##NAMES=Aurichalcite
##RRUFFID=R060426
##IDEAL CHEMISTRY=Zn^2+^_5_(CO_3_)_2_(OH)_6_
##LOCALITY=Bisbee, Cochise County, Arizona, USA
##OWNER=RRUFF
##SOURCE=Michael Scott
##DESCRIPTION=Divergent sprays of light blue lathlike crystals
##STATUS=The identification of this mineral is confirmed by single-crystal X-ray diffraction and chemical analysis.
##URL=rruff.info/R060426
##MEASURED CHEMISTRY=(Zn_3.61_Cu_1.33_Fe^2+^_0.06_)_Î£=5_(CO_3_)_2_(OH)_6_
172.0831, 40.29618
172.5652, 40.16670
173.0474, 40.44430
173.5295, 41.54751
174.0116, 42.26726
174.4937, 41.23029
174.9758, 38.44019
175.4579, 36.24309
175.9401, 36.18939
176.4222, 37.02633
176.9043, 37.41358
177.3864, 37.02790
177.8685, 36.34866
178.3506, 35.96350
178.8328, 35.92686
179.3149, 35.99875
179.7970, 36.30608
180.2791, 36.58646
180.7612, 36.58235
181.2433, 36.18298
181.7255, 35.52502
182.2076, 34.82878
182.6897, 33.81561
183.1718, 33.33278
183.6539, 33.97770
184.1360, 34.97093
184.6181, 35.46734
185.1003, 35.03762
185.5824, 33.97275
186.0645, 33.30679
186.5466, 33.30970
187.0287, 33.43118
187.5108, 33.79848
187.9930, 34.18782
188.4751, 34.29501
188.9572, 33.93653
189.4393, 33.21223
189.9214, 32.68026
190.4035, 32.30779
190.8857, 32.16365
191.3678, 32.58568
191.8499, 33.22525
192.3320, 33.41346
192.8141, 32.67086
193.2962, 31.19392
193.7784, 30.53670
194.2605, 30.96903
194.7426, 31.69945
195.2247, 32.90233
195.7068, 34.26990
196.1889, 34.87501
196.6711, 33.90856
197.1532, 31.80611
197.6353, 30.84683
198.1174, 31.71353
198.5995, 32.95686
199.0816, 34.05202
199.5638, 34.95275
200.0459, 35.30725
200.5280, 34.60596
201.0101, 33.27906
201.4922, 32.64851
201.9743, 33.27250
202.4565, 34.08372
202.9386, 34.16435
203.4207, 33.49970
203.9028, 32.65156
204.3849, 31.55464
204.8670, 30.60242
205.3492, 30.44651
205.8313, 31.52929
206.3134, 33.02918
206.7955, 33.90705
207.2776, 34.03982
207.7597, 34.12116
208.2419, 34.76818
208.7240, 35.41380
209.2061, 35.38787
209.6882, 34.32526
210.1703, 32.81343
210.6524, 31.87994
211.1346, 31.72976
211.6167, 31.66005
212.0988, 31.46236
212.5809, 31.22195
213.0630, 31.00855
213.5451, 30.84697
214.0273, 30.74260
214.5094, 30.69730
214.9915, 30.65627
215.4736, 30.79739
215.9557, 31.48546
216.4378, 32.19987
216.9200, 32.31273
217.4021, 31.52307
217.8842, 30.25180
218.3663, 29.71223
218.8484, 30.59177
219.3305, 31.25353
219.8127, 31.50080
220.2948, 31.45765
220.7769, 31.18209
221.2590, 30.69989
221.7411, 30.14824
222.2232, 29.93700
222.7054, 30.46782
223.1875, 30.88452
223.6696, 31.09116
224.1517, 31.17565
224.6338, 31.26144
225.1159, 31.40519
225.5980, 31.53950
226.0802, 31.46395
226.5623, 30.69670
227.0444, 30.29698
227.5265, 30.79962
228.0086, 31.58343
228.4907, 31.70899
228.9729, 30.74464
229.4550, 29.25471
229.9371, 28.76468
230.4192, 30.19176
230.9013, 31.12397
231.3834, 30.79081
231.8656, 29.82999
232.3477, 29.19694
232.8298, 29.27649
233.3119, 29.75772
233.7940, 29.97920
234.2761, 29.88361
234.7583, 29.74622
235.2404, 29.65250
235.7225, 29.55843
236.2046, 29.36296
236.6867, 29.00482
237.1688, 28.60135
237.6510, 28.30599
238.1331, 28.05612
238.6152, 28.09180
239.0973, 28.68400
239.5794, 29.60953
240.0615, 30.46920
240.5437, 31.27556
241.0258, 31.72947
241.5079, 31.17852
241.9900, 29.62179
242.4721, 28.43347
242.9542, 28.55958
243.4364, 29.49582
243.9185, 29.90891
244.4006, 29.39681
244.8827, 28.56807
245.3648, 27.99581
245.8469, 27.65328
246.3290, 27.41303
246.8112, 27.21387
247.2933, 27.06980
247.7754, 27.03197
248.2575, 27.14559
248.7396, 27.30688
249.2217, 27.45453
249.7039, 27.58453
250.1860, 27.67699
250.6681, 27.82829
251.1502, 27.95248
251.6323, 27.64775
252.1144, 26.55274
252.5966, 25.60196
253.0787, 25.43801
253.5608, 25.81394
254.0429, 26.17887
254.5250, 26.19210
255.0071, 25.95020
255.4893, 25.83086
255.9714, 25.88890
256.4535, 25.99170
256.9356, 26.13211
257.4177, 26.26278
257.8998, 26.27622
258.3820, 26.01515
258.8641, 25.63982
259.3462, 25.78685
259.8283, 26.92072
260.3104, 27.81034
260.7925, 28.06346
261.2747, 27.88169
261.7568, 27.50721
262.2389, 27.03644
262.7210, 26.48960
263.2031, 25.89197
263.6852, 25.09899
264.1674, 24.52135
264.6495, 24.41210
265.1316, 24.46701
265.6137, 24.27706
266.0958, 23.64098
266.5779, 22.89844
267.0601, 22.90859
267.5422, 24.14491
268.0243, 25.32306
268.5064, 26.46671
268.9885, 27.37207
269.4706, 27.77485
269.9528, 27.59584
270.4349, 27.10086
270.9170, 26.79550
271.3991, 26.80444
271.8812, 26.76797
272.3633, 26.47330
272.8455, 26.24585
273.3276, 26.50058
273.8097, 27.26897
274.2918, 28.05152
274.7739, 27.96443
275.2560, 26.14806
275.7382, 25.32792
276.2202, 26.30701
276.7024, 27.46482
277.1845, 27.61076
277.6666, 26.68696
278.1487, 25.63505
278.6308, 25.72255
279.1129, 27.62395
279.5951, 28.28275
280.0772, 26.35061
280.5593, 24.55961
281.0414, 24.72851
281.5235, 26.59899
282.0056, 28.45365
282.4878, 28.52962
282.9699, 26.43115
283.4520, 25.44249
283.9341, 26.60511
284.4162, 27.69386
284.8983, 27.71607
285.3805, 26.87730
285.8626, 25.92370
286.3447, 25.41749
286.8268, 25.35360
287.3089, 25.32901
287.7910, 25.51177
288.2732, 25.55377
288.7553, 25.08588
289.2374, 24.41805
289.7195, 24.17996
290.2016, 24.78773
290.6837, 26.05117
291.1659, 26.92598
291.6480, 27.10861
292.1301, 27.25471
292.6122, 27.72746
293.0943, 28.16095
293.5764, 27.77773
294.0586, 26.17566
294.5407, 24.12180
295.0228, 23.69647
295.5049, 27.37582
295.9870, 29.69519
296.4691, 29.76787
296.9513, 28.68815
297.4334, 27.44317
297.9155, 26.38332
298.3976, 25.54095
298.8797, 24.97332
299.3618, 24.72057
299.8440, 24.74320
300.3261, 25.26102
300.8082, 25.90931
301.2903, 26.40093
301.7724, 26.68030
302.2545, 26.87808
302.7367, 27.15737
303.2188, 27.57081
303.7009, 27.83587
304.1830, 27.90379
304.6651, 27.88069
305.1472, 27.62985
305.6294, 27.26911
306.1115, 27.33603
306.5936, 28.45042
307.0757, 30.72585
307.5578, 31.58790
308.0399, 29.98194
308.5221, 28.28365
309.0042, 27.51916
309.4863, 27.51484
309.9684, 27.65567
310.4505, 27.54877
310.9326, 27.25314
311.4148, 27.19211
311.8969, 27.33814
312.3790, 27.70480
312.8611, 28.68091
313.3432, 29.81226
313.8253, 30.29401
314.3075, 29.72311
314.7896, 28.52936
315.2717, 27.81370
315.7538, 28.11836
316.2359, 28.11588
316.7180, 27.41085
317.2001, 26.47627
317.6823, 25.81958
318.1644, 25.58616
318.6465, 25.61043
319.1286, 25.65115
319.6107, 25.69409
320.0928, 25.80015
320.5750, 26.02921
321.0571, 26.27831
321.5392, 26.46401
322.0213, 26.57953
322.5034, 26.69223
322.9855, 26.89587
323.4677, 27.23836
323.9498, 27.25617
324.4319, 26.71246
324.9140, 26.11746
325.3961, 25.64968
325.8782, 25.34048
326.3604, 25.23385
326.8425, 25.40587
327.3246, 25.80499
327.8067, 25.83204
328.2888, 25.02703
328.7709, 24.42612
329.2531, 24.51609
329.7352, 24.94616
330.2173, 25.06571
330.6994, 24.54544
331.1815, 23.70977
331.6636, 23.43806
332.1458, 24.49390
332.6279, 25.18756
333.1100, 25.47764
333.5921, 25.37782
334.0742, 24.69815
334.5563, 23.44776
335.0385, 22.14438
335.5206, 21.58469
336.0027, 22.20142
336.4848, 22.47371
336.9669, 22.15698
337.4490, 21.73005
337.9312, 21.42215
338.4133, 21.29052
338.8954, 21.37140
339.3775, 21.72965
339.8596, 22.40283
340.3417, 22.88808
340.8239, 23.01510
341.3060, 23.15703
341.7881, 23.63214
342.2702, 24.21684
342.7523, 24.40587
343.2344, 23.85636
343.7166, 22.74854
344.1987, 21.96462
344.6808, 21.53202
345.1629, 21.44374
345.6450, 22.00471
346.1271, 22.79103
346.6093, 23.36430
347.0914, 23.55668
347.5735, 23.46799
348.0556, 23.26647
348.5377, 22.86174
349.0198, 22.50217
349.5020, 22.23183
349.9841, 21.96809
350.4662, 21.58270
350.9483, 21.10879
351.4304, 20.75644
351.9125, 20.78466
352.3947, 21.26492
352.8768, 21.64841
353.3589, 21.90198
353.8410, 22.09265
354.3231, 22.29560
354.8052, 22.45160
355.2874, 22.41203
355.7695, 22.04175
356.2516, 21.42718
356.7337, 21.05834
357.2158, 21.08790
357.6979, 21.17823
358.1800, 21.37304
358.6621, 21.54789
359.1443, 21.46593
359.6264, 21.03963
360.1085, 20.62141
360.5906, 21.02026
361.0727, 22.89739
361.5548, 23.83509
362.0370, 22.78571
362.5191, 21.39956
363.0012, 20.61752
363.4833, 20.54594
363.9654, 20.80006
364.4475, 21.01517
364.9297, 21.18181
365.4118, 21.48166
365.8939, 22.16739
366.3760, 22.70224
366.8581, 22.80482
367.3402, 22.60396
367.8224, 22.34768
368.3045, 22.11336
368.7866, 21.97814
369.2687, 22.32265
369.7508, 23.64460
370.2329, 24.30981
370.7151, 23.18704
371.1972, 21.47108
371.6793, 20.25631
372.1614, 19.86451
372.6435, 20.01535
373.1256, 20.61101
373.6078, 21.71752
374.0899, 22.27335
374.5720, 21.44819
375.0541, 20.53997
375.5362, 20.60328
376.0183, 21.57873
376.5005, 22.59198
376.9826, 23.04472
377.4647, 23.07217
377.9468, 23.24025
378.4289, 23.75587
378.9110, 24.01678
379.3932, 23.21044
379.8753, 21.89634
380.3574, 21.18766
380.8395, 21.74040
381.3216, 22.76416
381.8037, 23.31722
382.2859, 23.39353
382.7680, 23.37982
383.2501, 23.47924
383.7322, 23.54609
384.2143, 23.32977
384.6964, 22.73332
385.1786, 22.18605
385.6607, 21.95089
386.1428, 21.95604
386.6249, 22.05328
387.1070, 22.25935
387.5891, 22.40518
388.0713, 22.13964
388.5534, 21.50999
389.0355, 21.23509
389.5176, 21.80087
389.9997, 22.57543
390.4818, 23.08444
390.9640, 23.27008
391.4461, 22.82897
391.9282, 21.23452
392.4103, 18.87581
392.8924, 17.78521
393.3745, 19.00958
393.8567, 20.23607
394.3388, 20.48190
394.8209, 20.10168
395.3030, 19.76924
395.7851, 19.73418
396.2672, 19.83874
396.7494, 19.79568
397.2315, 19.49958
397.7136, 19.30870
398.1957, 19.42834
398.6778, 19.52988
399.1599, 19.21937
399.6420, 18.53290
400.1241, 17.95678
400.6063, 17.97546
401.0884, 18.61940
401.5705, 18.80076
402.0526, 18.28737
402.5347, 17.64323
403.0168, 16.67393
403.4990, 15.76065
403.9811, 15.57964
404.4632, 16.46457
404.9453, 17.98260
405.4274, 19.10705
405.9095, 19.78212
406.3917, 20.09338
406.8738, 19.83717
407.3559, 19.41304
407.8380, 19.08504
408.3201, 18.89288
408.8022, 18.72454
409.2844, 18.41855
409.7665, 17.94708
410.2486, 17.82663
410.7307, 18.47355
411.2128, 19.03237
411.6949, 19.34391
412.1771, 19.38257
412.6592, 19.09705
413.1413, 18.42562
413.6234, 17.54080
414.1055, 16.76377
414.5876, 16.02839
415.0698, 15.59906
415.5519, 15.77549
416.0340, 16.12547
416.5161, 16.33362
416.9982, 16.37487
417.4803, 16.50006
417.9625, 17.13450
418.4446, 18.13701
418.9267, 18.45311
419.4088, 17.63818
419.8909, 16.80404
420.3730, 16.65006
420.8552, 16.99312
421.3373, 17.52676
421.8194, 18.31860
422.3015, 19.07979
422.7836, 19.57736
423.2657, 19.80569
423.7479, 19.37514
424.2300, 17.62215
424.7121, 15.58436
425.1942, 14.89028
425.6763, 15.73320
426.1584, 16.84406
426.6406, 18.01721
427.1227, 19.01268
427.6048, 19.31829
428.0869, 18.81947
428.5690, 18.05003
429.0511, 17.39137
429.5333, 16.87406
430.0154, 16.70624
430.4975, 17.18106
430.9796, 17.73043
431.4617, 18.18273
431.9438, 18.46034
432.4260, 18.29552
432.9081, 17.49472
433.3902, 16.45102
433.8723, 16.13489
434.3544, 17.49036
434.8365, 17.99697
435.3187, 16.44780
435.8008, 14.76614
436.2829, 14.79196
436.7650, 16.55043
437.2471, 18.63444
437.7292, 19.77377
438.2114, 19.95850
438.6935, 19.73337
439.1756, 18.48136
439.6577, 17.50201
440.1398, 17.10433
440.6219, 17.15212
441.1040, 17.56360
441.5862, 18.29906
442.0683, 19.06505
442.5504, 19.20663
443.0325, 18.34843
443.5146, 18.02550
443.9967, 19.01043
444.4789, 20.02500
444.9610, 20.42090
445.4431, 20.23090
445.9252, 19.81998
446.4073, 19.38070
446.8894, 18.93570
447.3716, 18.54994
447.8537, 18.17411
448.3358, 17.98424
448.8179, 18.54187
449.3000, 19.11632
449.7821, 18.68715
450.2643, 16.81699
450.7464, 15.02777
451.2285, 14.81961
451.7106, 15.89903
452.1927, 16.80395
452.6748, 17.19590
453.1570, 17.44935
453.6391, 17.98214
454.1212, 18.72376
454.6033, 19.33903
455.0854, 19.80291
455.5675, 20.06698
456.0497, 20.02643
456.5318, 19.71794
457.0139, 19.33186
457.4960, 18.92607
457.9781, 18.55154
458.4602, 18.36451
458.9424, 18.43254
459.4245, 18.50793
459.9066, 18.72920
460.3887, 18.83582
460.8708, 18.41739
461.3529, 17.48572
461.8351, 16.57004
462.3172, 16.17092
462.7993, 16.30678
463.2814, 16.47069
463.7635, 16.72106
464.2456, 16.93060
464.7278, 17.03607
465.2099, 17.09326
465.6920, 17.15494
466.1741, 17.24557
466.6562, 17.40918
467.1383, 17.84002
467.6205, 18.87429
468.1026, 19.12552
468.5847, 17.65039
469.0668, 16.18530
469.5489, 15.38498
470.0310, 15.24893
470.5132, 15.64555
470.9953, 16.71113
471.4774, 18.04714
471.9595, 18.55097
472.4416, 18.01377
472.9237, 17.41845
473.4059, 16.99212
473.8880, 16.73999
474.3701, 16.69920
474.8522, 16.87848
475.3343, 17.15543
475.8164, 17.52188
476.2986, 17.92024
476.7807, 18.25092
477.2628, 18.52785
477.7449, 18.58994
478.2270, 18.23295
478.7091, 17.53882
479.1913, 16.89979
479.6734, 16.24523
480.1555, 15.74993
480.6376, 15.56696
481.1197, 15.60306
481.6018, 15.68701
482.0839, 15.76900
482.5660, 15.81120
483.0482, 15.73380
483.5303, 15.44478
484.0124, 15.40392
484.4945, 15.63472
484.9766, 16.07277
485.4587, 16.96407
485.9409, 18.03328
486.4230, 18.62548
486.9051, 18.34854
487.3872, 17.52744
487.8693, 17.12086
488.3514, 17.43106
488.8336, 17.58907
489.3157, 17.51389
489.7978, 17.30680
490.2799, 16.98202
490.7620, 16.57595
491.2441, 16.16325
491.7263, 15.67980
492.2084, 15.24718
492.6905, 15.61184
493.1726, 17.26174
493.6547, 18.53030
494.1368, 18.37664
494.6190, 17.66207
495.1011, 17.19766
495.5832, 17.13256
496.0653, 17.24577
496.5474, 17.53045
497.0295, 17.86826
497.5117, 17.73472
497.9938, 16.87815
498.4759, 16.31337
498.9580, 17.26825
499.4401, 19.33940
499.9222, 20.33673
500.4044, 19.20910
500.8865, 17.93298
501.3686, 17.67975
501.8507, 17.99412
502.3328, 17.75125
502.8149, 16.54032
503.2971, 15.30549
503.7792, 15.51688
504.2613, 17.92557
504.7434, 19.03866
505.2255, 17.72048
505.7076, 16.37578
506.1898, 16.29618
506.6719, 17.05721
507.1540, 17.64595
507.6361, 17.52984
508.1182, 16.96338
508.6003, 16.50226
509.0825, 16.11833
509.5646, 15.91601
510.0467, 16.13063
510.5288, 16.33725
511.0109, 16.24141
511.4930, 15.91300
511.9752, 15.65462
512.4573, 15.64623
512.9394, 15.83945
513.4215, 16.27847
513.9036, 17.08597
514.3857, 17.31602
514.8679, 16.01446
515.3500, 14.38975
515.8321, 14.11719
516.3142, 15.38591
516.7963, 16.55496
517.2784, 16.85365
517.7606, 16.67183
518.2427, 16.44753
518.7248, 16.24090
519.2069, 16.27349
519.6890, 16.85547
520.1711, 17.73881
520.6533, 17.63031
521.1354, 15.40947
521.6175, 13.84753
522.0996, 13.74311
522.5817, 14.31159
523.0638, 14.89182
523.5460, 15.31341
524.0281, 15.60902
524.5102, 15.79607
524.9923, 15.87700
525.4744, 15.97206
525.9565, 16.48796
526.4387, 16.44554
526.9208, 15.09329
527.4029, 13.40481
527.8850, 12.39578
528.3671, 12.31803
528.8492, 12.69947
529.3314, 13.09512
529.8135, 13.51850
530.2956, 14.18192
530.7777, 15.29521
531.2598, 16.23189
531.7419, 16.62030
532.2241, 16.56938
532.7062, 16.10061
533.1883, 14.84792
533.6704, 13.93312
534.1525, 14.52430
534.6346, 15.98491
535.1168, 16.75363
535.5989, 16.44226
536.0810, 15.81436
536.5631, 15.67970
537.0452, 16.06850
537.5273, 15.93369
538.0095, 14.46635
538.4916, 13.42457
538.9737, 13.76240
539.4558, 14.83067
539.9379, 15.73201
540.4200, 16.14972
540.9022, 16.18051
541.3843, 15.84893
541.8664, 14.99359
542.3485, 14.69886
542.8306, 15.69591
543.3127, 16.47344
543.7948, 16.58804
544.2769, 16.16992
544.7590, 15.29098
545.2411, 13.89190
545.7233, 12.64058
546.2054, 12.63415
546.6875, 13.76153
547.1696, 14.29033
547.6517, 13.67023
548.1339, 12.95771
548.6160, 13.15729
549.0981, 13.98616
549.5802, 14.69320
550.0623, 15.13887
550.5444, 15.42507
551.0266, 15.55330
551.5087, 15.57747
551.9908, 15.66806
552.4729, 15.88470
552.9550, 16.01402
553.4371, 15.78228
553.9193, 15.13535
554.4014, 14.42328
554.8835, 13.15028
555.3656, 12.36433
555.8477, 12.69294
556.3298, 13.66485
556.8120, 14.65862
557.2941, 15.43423
557.7762, 15.96927
558.2583, 16.30922
558.7404, 16.50603
559.2225, 15.96539
559.7047, 13.56942
560.1868, 11.92217
560.6689, 12.99143
561.1510, 15.34900
561.6331, 16.45275
562.1152, 15.18982
562.5974, 13.49201
563.0795, 13.22058
563.5616, 14.01242
564.0437, 14.60709
564.5258, 14.78901
565.0079, 14.57462
565.4901, 13.78580
565.9722, 12.48558
566.4543, 11.79845
566.9364, 11.94897
567.4185, 12.44598
567.9006, 13.53550
568.3828, 14.69318
568.8649, 14.96731
569.3470, 14.20836
569.8291, 13.46777
570.3112, 14.13070
570.7933, 16.34870
571.2755, 17.23611
571.7576, 15.35611
572.2397, 13.92492
572.7218, 14.16129
573.2039, 15.00725
573.6860, 15.12413
574.1682, 14.20115
574.6503, 13.30966
575.1324, 13.72970
575.6145, 15.09526
576.0966, 15.72952
576.5787, 15.41526
577.0609, 14.81052
577.5430, 14.16702
578.0251, 13.55360
578.5072, 13.08909
578.9893, 12.68242
579.4714, 12.63605
579.9536, 13.26928
580.4357, 14.21957
580.9178, 15.19826
581.3999, 16.09252
581.8820, 16.64037
582.3641, 16.63264
582.8463, 16.11287
583.3284, 15.32856
583.8105, 14.00958
584.2926, 12.80652
584.7747, 11.29704
585.2568, 10.26096
585.7390, 10.66922
586.2211, 12.25887
586.7032, 13.66186
587.1853, 13.86117
587.6674, 13.20837
588.1495, 12.52337
588.6317, 11.73801
589.1138, 11.35819
589.5959, 11.68675
590.0780, 12.37450
590.5601, 13.07773
591.0422, 13.79654
591.5244, 14.30613
592.0065, 14.42362
592.4886, 14.39048
592.9707, 14.38335
593.4528, 14.40970
593.9349, 14.45956
594.4171, 14.52964
594.8992, 14.62018
595.3813, 14.77699
595.8634, 15.22618
596.3455, 15.03833
596.8276, 13.26642
597.3098, 11.93946
597.7919, 12.29871
598.2740, 13.58488
598.7561, 14.43984
599.2382, 14.30068
599.7203, 13.78808
600.2025, 13.75948
600.6846, 14.19783
601.1667, 14.46521
601.6488, 14.46754
602.1309, 14.35404
602.6130, 14.08187
603.0952, 13.78504
603.5773, 13.76955
604.0594, 14.17415
604.5415, 14.67333
605.0236, 15.28733
605.5057, 15.82053
605.9879, 15.83807
606.4700, 15.32581
606.9521, 14.89665
607.4342, 15.14269
607.9163, 15.89238
608.3984, 15.81948
608.8806, 14.01162
609.3627, 12.61697
609.8448, 11.74239
610.3269, 11.38582
610.8090, 11.75807
611.2911, 12.70311
611.7733, 13.65340
612.2554, 14.28072
612.7375, 14.58948
613.2196, 14.42992
613.7017, 13.72004
614.1838, 13.46231
614.6660, 14.23933
615.1481, 15.25014
615.6302, 15.40355
616.1123, 14.77365
616.5944, 14.56495
617.0765, 15.52622
617.5587, 16.50751
618.0408, 16.71820
618.5229, 16.35526
619.0050, 15.87936
619.4871, 15.45471
619.9692, 15.00694
620.4514, 14.39803
620.9335, 13.56103
621.4156, 13.05493
621.8977, 12.91499
622.3798, 13.09546
622.8619, 13.92071
623.3441, 14.88915
623.8262, 15.44578
624.3083, 15.45691
624.7904, 15.14080
625.2725, 14.41837
625.7546, 13.53698
626.2367, 13.28587
626.7188, 13.75700
627.2009, 14.23951
627.6830, 14.39892
628.1652, 14.31168
628.6473, 14.06775
629.1294, 13.48507
629.6115, 13.33308
630.0936, 14.54248
630.5757, 15.52089
631.0579, 14.48901
631.5400, 12.24709
632.0221, 11.10343
632.5042, 12.25465
632.9863, 14.57349
633.4684, 16.13407
633.9506, 16.99782
634.4327, 16.71524
634.9148, 13.98001
635.3969, 11.73469
635.8790, 11.66897
636.3611, 12.95592
636.8433, 14.23392
637.3254, 15.22567
637.8075, 15.95394
638.2896, 16.55365
638.7717, 16.86350
639.2538, 16.32847
639.7360, 14.91617
640.2181, 13.69731
640.7002, 13.45195
641.1823, 13.97028
641.6644, 14.40184
642.1465, 14.92853
642.6287, 15.09057
643.1108, 14.61003
643.5929, 14.00016
644.0750, 13.41629
644.5571, 13.00318
645.0392, 13.08742
645.5214, 13.96369
646.0035, 15.04431
646.4856, 15.14867
646.9677, 14.28271
647.4498, 13.99876
647.9319, 14.84181
648.4141, 15.74467
648.8962, 15.73647
649.3783, 15.04594
649.8604, 14.53020
650.3425, 14.20592
650.8246, 14.13174
651.3068, 14.64102
651.7889, 15.25257
652.2710, 15.24508
652.7531, 14.61875
653.2352, 14.04058
653.7173, 14.04794
654.1995, 14.49238
654.6816, 14.80744
655.1637, 15.14770
655.6458, 14.98309
656.1279, 13.41608
656.6100, 12.00268
657.0922, 11.75045
657.5743, 12.44431
658.0564, 13.24273
658.5385, 13.99276
659.0206, 14.48443
659.5027, 14.30782
659.9849, 13.71392
660.4670, 13.41023
660.9491, 13.56112
661.4312, 14.00243
661.9133, 14.70803
662.3954, 15.61125
662.8776, 15.75266
663.3597, 13.77736
663.8418, 12.82532
664.3239, 14.07993
664.8060, 15.80569
665.2881, 16.77524
665.7703, 16.85457
666.2524, 16.27213
666.7345, 14.81771
667.2166, 13.32246
667.6987, 13.79615
668.1808, 16.15755
668.6630, 17.15859
669.1451, 15.57398
669.6272, 13.54510
670.1093, 13.21172
670.5914, 14.44050
671.0735, 15.21586
671.5557, 15.32887
672.0378, 15.20321
672.5199, 14.56747
673.0020, 13.99732
673.4841, 14.33709
673.9662, 15.51768
674.4484, 16.62985
674.9305, 17.01577
675.4126, 16.74251
675.8947, 15.82945
676.3768, 13.96426
676.8589, 12.87904
677.3411, 13.36696
677.8232, 14.24475
678.3053, 14.43779
678.7874, 14.18743
679.2695, 14.40908
679.7516, 15.95712
680.2338, 17.20895
680.7159, 16.98653
681.1980, 15.93567
681.6801, 14.76599
682.1622, 13.74887
682.6443, 13.58763
683.1265, 15.05176
683.6086, 17.61144
684.0907, 18.61084
684.5728, 17.24169
685.0549, 16.07722
685.5370, 15.41291
686.0192, 15.09066
686.5013, 15.07276
686.9834, 15.33108
687.4655, 15.86055
687.9476, 16.89880
688.4297, 17.76930
688.9119, 17.75284
689.3940, 17.13043
689.8761, 16.45395
690.3582, 15.82993
690.8403, 15.40823
691.3224, 15.28261
691.8046, 15.46622
692.2867, 16.05315
692.7688, 17.68251
693.2509, 18.67483
693.7330, 18.41692
694.2151, 18.04891
694.6973, 18.33193
695.1794, 19.05703
695.6615, 19.61416
696.1436, 19.75401
696.6257, 19.59853
697.1078, 19.06259
697.5900, 18.32997
698.0721, 18.20954
698.5542, 18.87213
699.0363, 19.20770
699.5184, 18.23608
700.0005, 16.53054
700.4827, 16.14155
700.9648, 18.41237
701.4469, 19.81810
701.9290, 19.59237
702.4111, 19.17078
702.8932, 19.48526
703.3754, 20.25376
703.8575, 20.81141
704.3396, 20.89008
704.8217, 20.57692
705.3038, 19.54669
705.7859, 18.12266
706.2681, 18.19761
706.7502, 20.19066
707.2323, 21.73277
707.7144, 21.38049
708.1965, 19.84827
708.6786, 18.73889
709.1607, 18.14182
709.6428, 17.67455
710.1249, 17.03753
710.6071, 16.79511
711.0892, 17.76148
711.5713, 19.19209
712.0534, 19.74367
712.5355, 18.99393
713.0176, 17.88054
713.4998, 17.28819
713.9819, 17.21418
714.4640, 17.79973
714.9461, 19.18254
715.4282, 20.33616
715.9103, 20.85518
716.3925, 20.88279
716.8746, 20.51113
717.3567, 19.67703
717.8388, 19.05749
718.3209, 18.56777
718.8030, 18.46083
719.2852, 19.19102
719.7673, 20.22383
720.2494, 20.82515
720.7315, 20.84509
721.2136, 20.67245
721.6957, 20.61050
722.1779, 20.66265
722.6600, 20.91916
723.1421, 21.43368
723.6242, 21.65491
724.1063, 21.25478
724.5884, 20.77436
725.0706, 20.80020
725.5527, 21.30286
726.0348, 21.86343
726.5169, 22.73042
726.9990, 23.32240
727.4811, 23.34834
727.9633, 23.06442
728.4454, 22.58336
728.9275, 22.03850
729.4096, 21.80559
729.8917, 22.23993
730.3738, 22.88360
730.8560, 22.54711
731.3381, 21.18560
731.8202, 20.61740
732.3023, 21.52337
732.7844, 22.28822
733.2665, 21.38083
733.7487, 19.39679
734.2308, 18.63466
734.7129, 19.79852
735.1950, 20.84336
735.6771, 21.56952
736.1592, 21.85115
736.6414, 21.20262
737.1235, 20.06656
737.6056, 19.52369
738.0877, 20.07038
738.5698, 21.01007
739.0519, 21.47821
739.5341, 21.49030
740.0162, 21.13515
740.4983, 20.36056
740.9804, 19.44278
741.4625, 18.28670
741.9446, 17.26861
742.4268, 17.25032
742.9089, 18.49177
743.3910, 19.28382
743.8731, 19.29837
744.3552, 19.04082
744.8373, 18.45395
745.3195, 17.88089
745.8016, 17.86819
746.2837, 18.47895
746.7658, 19.14610
747.2479, 19.39277
747.7300, 19.30758
748.2122, 19.04654
748.6943, 18.60450
749.1764, 18.37662
749.6585, 18.57814
750.1406, 18.73832
750.6227, 18.23305
751.1049, 17.10389
751.5870, 16.68649
752.0691, 17.92176
752.5512, 18.54123
753.0333, 17.47159
753.5154, 16.15754
753.9976, 15.83834
754.4797, 16.39848
754.9618, 17.04226
755.4439, 17.39704
755.9260, 17.55571
756.4081, 17.65647
756.8903, 17.66898
757.3724, 17.37302
757.8545, 16.71604
758.3366, 16.22368
758.8187, 16.26314
759.3008, 16.62327
759.7830, 16.74950
760.2651, 16.32616
760.7472, 16.43112
761.2293, 17.97254
761.7114, 18.99422
762.1935, 18.30423
762.6757, 16.80540
763.1578, 15.65341
763.6399, 15.12549
764.1220, 14.94847
764.6041, 15.05784
765.0862, 15.32461
765.5684, 15.50154
766.0505, 15.64165
766.5326, 16.17509
767.0147, 17.28064
767.4968, 18.07040
767.9789, 17.39725
768.4611, 15.36157
768.9432, 14.48643
769.4253, 15.51226
769.9074, 16.43818
770.3895, 17.04441
770.8716, 17.38725
771.3538, 17.45856
771.8359, 17.28716
772.3180, 16.92571
772.8001, 16.27345
773.2822, 15.67746
773.7643, 15.31617
774.2465, 15.18971
774.7286, 15.39633
775.2107, 15.86960
775.6928, 16.36659
776.1749, 16.77630
776.6570, 16.92623
777.1392, 16.23367
777.6213, 14.41238
778.1034, 13.91792
778.5855, 15.44976
779.0676, 16.99244
779.5497, 17.71009
780.0319, 17.92807
780.5140, 18.01926
780.9961, 17.99014
781.4782, 17.90407
781.9603, 17.78889
782.4424, 17.60777
782.9246, 17.37784
783.4067, 17.04979
783.8888, 16.43496
784.3709, 15.58160
784.8530, 14.90878
785.3351, 14.75658
785.8173, 15.00529
786.2994, 15.42183
786.7815, 16.00500
787.2636, 16.63544
787.7457, 17.42429
788.2278, 17.77008
788.7100, 16.89813
789.1921, 15.28607
789.6742, 14.90789
790.1563, 17.00295
790.6384, 17.99395
791.1205, 16.37683
791.6026, 14.93537
792.0847, 15.84417
792.5668, 17.79005
793.0490, 18.18312
793.5311, 16.30000
794.0132, 14.55976
794.4953, 15.54997
794.9774, 17.69931
795.4595, 18.04235
795.9417, 16.82816
796.4238, 15.81946
796.9059, 15.58097
797.3880, 15.90376
797.8701, 16.68878
798.3522, 17.86577
798.8344, 18.20145
799.3165, 17.23137
799.7986, 16.31539
800.2807, 15.10989
800.7628, 14.53376
801.2449, 15.94814
801.7271, 18.41320
802.2092, 19.26383
802.6913, 17.20268
803.1734, 15.18552
803.6555, 14.63183
804.1376, 14.95955
804.6198, 15.96606
805.1019, 17.26822
805.5840, 17.97564
806.0661, 17.70756
806.5482, 17.10762
807.0303, 17.02321
807.5125, 17.39942
807.9946, 17.80062
808.4767, 18.30265
808.9588, 18.33926
809.4409, 17.43940
809.9230, 16.46694
810.4052, 16.55953
810.8873, 17.71448
811.3694, 18.15766
811.8515, 17.22278
812.3336, 16.49229
812.8157, 16.09170
813.2979, 16.16427
813.7800, 17.24406
814.2621, 18.87095
814.7442, 19.82206
815.2263, 19.49108
815.7084, 18.84605
816.1906, 18.86419
816.6727, 19.23322
817.1548, 19.30246
817.6369, 19.05853
818.1190, 18.75260
818.6011, 18.48217
819.0833, 18.35471
819.5654, 18.61163
820.0475, 19.28762
820.5296, 19.26293
821.0117, 18.00761
821.4938, 17.13910
821.9760, 17.30431
822.4581, 17.82076
822.9402, 18.23195
823.4223, 18.52034
823.9044, 18.62997
824.3865, 18.35026
824.8687, 18.19190
825.3508, 18.47183
825.8329, 18.87289
826.3150, 19.23447
826.7971, 19.42891
827.2792, 19.12670
827.7614, 18.17252
828.2435, 17.19843
828.7256, 17.00645
829.2077, 17.44168
829.6898, 18.05194
830.1719, 18.81830
830.6541, 19.16025
831.1362, 18.76846
831.6183, 18.22246
832.1004, 18.25450
832.5825, 18.85184
833.0646, 19.07122
833.5468, 18.48755
834.0289, 18.18741
834.5110, 18.52727
834.9931, 18.95861
835.4752, 19.31528
835.9573, 19.46875
836.4395, 19.03273
836.9216, 17.58387
837.4037, 16.64151
837.8858, 17.64881
838.3679, 19.06411
838.8500, 19.22669
839.3322, 18.41673
839.8143, 17.44230
840.2964, 16.65084
840.7785, 16.45257
841.2606, 17.65822
841.7427, 19.69055
842.2249, 19.98877
842.7070, 18.46115
843.1891, 17.44007
843.6712, 17.60563
844.1533, 18.02598
844.6354, 17.89026
845.1176, 17.34701
845.5997, 17.12571
846.0818, 17.31098
846.5639, 17.69944
847.0460, 18.89908
847.5281, 19.64265
848.0103, 18.69658
848.4924, 17.19492
848.9745, 17.08295
849.4566, 18.73877
849.9387, 19.96388
850.4208, 19.29855
850.9030, 17.99906
851.3851, 16.93529
851.8672, 16.17825
852.3493, 15.79799
852.8314, 15.80367
853.3135, 16.21804
853.7957, 17.14565
854.2778, 18.21330
854.7599, 18.51043
855.2420, 18.05330
855.7241, 17.52016
856.2062, 16.90164
856.6884, 16.64369
857.1705, 17.14467
857.6526, 17.95396
858.1347, 18.30181
858.6168, 18.23533
859.0989, 17.46754
859.5811, 14.45146
860.0632, 12.74775
860.5453, 14.41891
861.0274, 16.78352
861.5095, 17.19952
861.9916, 15.98259
862.4738, 15.46326
862.9559, 16.84367
863.4380, 18.34909
863.9201, 19.05175
864.4022, 19.10187
864.8843, 18.25254
865.3665, 16.91305
865.8486, 16.36065
866.3307, 17.10710
866.8128, 18.03571
867.2949, 17.60615
867.7770, 16.19511
868.2592, 15.46432
868.7413, 15.42293
869.2234, 15.61798
869.7055, 15.97278
870.1876, 16.33601
870.6697, 16.58834
871.1519, 16.71999
871.6340, 16.64806
872.1161, 16.08097
872.5981, 15.87086
873.0803, 16.25857
873.5624, 16.79456
874.0445, 17.68592
874.5266, 18.43319
875.0087, 18.15618
875.4908, 16.67939
875.9730, 15.47940
876.4551, 14.93052
876.9372, 14.95443
877.4193, 15.85357
877.9014, 17.10595
878.3835, 18.30853
878.8657, 19.19978
879.3478, 19.12716
879.8299, 17.48379
880.3120, 15.57523
880.7941, 15.54822
881.2762, 16.71496
881.7584, 16.60698
882.2405, 15.16846
882.7226, 14.37492
883.2047, 15.18056
883.6868, 16.36672
884.1689, 16.16676
884.6511, 14.64802
885.1332, 14.08202
885.6153, 14.86442
886.0974, 15.52597
886.5795, 15.88188
887.0616, 15.90569
887.5438, 15.36021
888.0259, 14.47429
888.5080, 13.95257
888.9901, 13.98204
889.4722, 13.96517
889.9543, 13.49845
890.4365, 13.31089
890.9186, 14.05802
891.4007, 15.17631
891.8828, 15.92797
892.3649, 16.19983
892.8470, 16.27114
893.3292, 16.18589
893.8113, 16.11173
894.2934, 16.25533
894.7755, 16.50231
895.2576, 16.84884
895.7397, 17.14024
896.2219, 16.58924
896.7040, 14.74925
897.1861, 12.88183
897.6682, 13.29945
898.1503, 15.58728
898.6324, 16.17553
899.1146, 14.91734
899.5967, 14.03993
900.0788, 14.27577
900.5609, 14.90484
901.0430, 15.26249
901.5251, 15.38924
902.0073, 15.55632
902.4894, 15.97138
902.9715, 15.99354
903.4536, 15.16547
903.9357, 14.43594
904.4178, 14.43022
904.9000, 14.66707
905.3821, 14.44631
905.8642, 13.69044
906.3463, 12.99310
906.8284, 11.88000
907.3105, 11.60121
907.7927, 13.76021
908.2748, 16.30730
908.7569, 17.14251
909.2390, 16.33512
909.7211, 14.81696
910.2032, 12.80103
910.6854, 11.41295
911.1675, 12.25762
911.6496, 14.07628
912.1317, 14.89796
912.6138, 14.80403
913.0959, 14.38146
913.5781, 13.84931
914.0602, 13.49745
914.5423, 13.69422
915.0244, 14.10962
915.5065, 13.44223
915.9886, 11.67479
916.4708, 11.22980
916.9529, 12.63819
917.4350, 14.12278
917.9171, 14.79808
918.3992, 14.82156
918.8813, 14.34500
919.3635, 13.19287
919.8456, 12.92520
920.3277, 14.54381
920.8098, 15.39850
921.2919, 13.99821
921.7740, 12.48962
922.2562, 12.73059
922.7383, 14.06244
923.2204, 14.34427
923.7025, 12.61611
924.1846, 11.68531
924.6667, 12.96711
925.1489, 14.47867
925.6310, 15.16475
926.1131, 15.25900
926.5952, 14.98866
927.0773, 14.51203
927.5594, 14.34906
928.0416, 15.15115
928.5237, 15.77543
929.0058, 14.72782
929.4879, 13.05619
929.9700, 12.47453
930.4521, 12.90755
930.9343, 13.36815
931.4164, 13.43908
931.8985, 13.50382
932.3806, 14.21300
932.8627, 15.19148
933.3448, 14.94989
933.8270, 13.63749
934.3091, 12.99346
934.7912, 13.41922
935.2733, 14.09503
935.7554, 14.49781
936.2375, 14.61332
936.7197, 14.30593
937.2018, 13.40200
937.6839, 13.14963
938.1660, 13.92554
938.6481, 14.37433
939.1302, 13.80840
939.6124, 13.04535
940.0945, 13.02104
940.5766, 13.62150
941.0587, 13.76615
941.5408, 12.97104
942.0229, 12.47908
942.5051, 12.45182
942.9872, 12.62468
943.4693, 12.86396
943.9514, 13.22758
944.4335, 14.02817
944.9156, 15.24870
945.3978, 15.74995
945.8799, 14.68762
946.3620, 13.37288
946.8441, 12.24356
947.3262, 11.37500
947.8083, 10.80098
948.2905, 10.55728
948.7726, 10.79570
949.2547, 11.57886
949.7368, 12.37159
950.2189, 12.65407
950.7010, 12.74589
951.1832, 13.10238
951.6653, 13.61808
952.1474, 14.11158
952.6295, 14.49309
953.1116, 14.48803
953.5938, 13.87938
954.0759, 13.07331
954.5580, 12.72389
955.0400, 12.77739
955.5222, 13.10379
956.0043, 13.67833
956.4864, 13.60345
956.9685, 12.48935
957.4506, 11.61392
957.9327, 12.32983
958.4149, 14.18293
958.8970, 15.24836
959.3791, 15.44938
959.8612, 15.21768
960.3433, 14.43989
960.8254, 13.58591
961.3076, 12.73441
961.7897, 12.08722
962.2718, 11.88265
962.7539, 12.11765
963.2360, 12.90671
963.7181, 15.14400
964.2003, 16.54224
964.6824, 16.90062
965.1645, 16.39512
965.6466, 14.11427
966.1287, 11.42112
966.6108, 10.90751
967.0930, 13.06244
967.5751, 14.52979
968.0572, 14.11039
968.5393, 13.50218
969.0214, 13.31554
969.5035, 13.28188
969.9857, 13.17089
970.4678, 12.97972
970.9499, 12.72986
971.4320, 12.39188
971.9141, 12.28924
972.3962, 12.71227
972.8784, 13.35365
973.3605, 14.17682
973.8426, 14.91725
974.3247, 15.16851
974.8068, 14.91590
975.2889, 14.33660
975.7711, 13.44208
976.2532, 12.73321
976.7353, 12.88301
977.2174, 13.54537
977.6995, 14.33356
978.1816, 15.05583
978.6638, 15.05842
979.1459, 14.23120
979.6280, 13.25681
980.1101, 12.62651
980.5922, 12.39278
981.0743, 12.91431
981.5565, 14.00456
982.0386, 14.42577
982.5207, 14.10871
983.0028, 13.96420
983.4849, 14.38594
983.9670, 14.61165
984.4492, 13.64486
984.9313, 13.92102
985.4134, 14.05932
985.8955, 13.45427
986.3776, 14.39162
986.8597, 14.21640
987.3419, 13.59177
987.8240, 12.61676
988.3061, 11.78473
988.7882, 11.94761
989.2703, 13.09522
989.7524, 13.25307
990.2346, 11.48932
990.7167, 10.86213
991.1988, 12.62015
991.6809, 14.33877
992.1630, 14.54253
992.6451, 13.90073
993.1273, 13.49487
993.6094, 13.29728
994.0915, 13.53835
994.5736, 15.30620
995.0557, 16.00174
995.5378, 13.66405
996.0200, 11.53668
996.5021, 12.60672
996.9842, 15.21618
997.4663, 15.63031
997.9484, 12.93752
998.4305, 11.25264
998.9127, 12.56942
999.3948, 13.88430
999.8769, 14.06116
1000.359, 13.53724
1000.841, 12.20102
1001.323, 10.63395
1001.805, 10.26271
1002.287, 11.66414
1002.770, 12.96549
1003.252, 13.23239
1003.734, 13.02770
1004.216, 12.21179
1004.698, 11.51631
1005.180, 12.26941
1005.662, 14.07997
1006.144, 15.07989
1006.627, 14.36695
1007.109, 13.46540
1007.591, 13.68749
1008.073, 14.35576
1008.555, 15.01204
1009.037, 15.37718
1009.519, 14.57146
1010.001, 12.83522
1010.483, 11.90236
1010.966, 12.84493
1011.448, 14.40648
1011.930, 15.26200
1012.412, 15.60092
1012.894, 15.87638
1013.376, 15.97395
1013.858, 15.15969
1014.340, 13.45192
1014.823, 12.38638
1015.305, 13.15318
1015.787, 12.06608
1016.269, 13.96083
1016.751, 12.23972
1017.233, 12.09728
1017.715, 13.40724
1018.197, 14.34148
1018.679, 14.38317
1019.162, 14.11394
1019.644, 13.99272
1020.126, 13.93009
1020.608, 13.68105
1021.090, 13.27037
1021.572, 13.02211
1022.054, 12.95020
1022.536, 13.00461
1023.018, 13.16611
1023.501, 13.52779
1023.983, 14.26479
1024.465, 15.09360
1024.947, 15.00461
1025.429, 13.89266
1025.911, 13.12568
1026.393, 12.78566
1026.875, 12.55903
1027.358, 12.27954
1027.840, 12.31630
1028.322, 13.17765
1028.804, 14.52580
1029.286, 14.90396
1029.768, 14.09027
1030.250, 13.14795
1030.732, 11.84758
1031.214, 11.16877
1031.697, 11.72188
1032.179, 12.55158
1032.661, 12.60229
1033.143, 12.11707
1033.625, 12.39079
1034.107, 13.94443
1034.589, 14.97246
1035.071, 15.58101
1035.553, 15.38877
1036.036, 13.53625
1036.518, 11.65501
1037.000, 11.57760
1037.482, 12.96328
1037.964, 13.82009
1038.446, 13.81383
1038.928, 13.92770
1039.410, 14.37823
1039.893, 14.65288
1040.375, 14.32822
1040.857, 13.95268
1041.339, 14.17307
1041.821, 14.84730
1042.303, 15.17119
1042.785, 14.63496
1043.267, 14.71920
1043.750, 16.38622
1044.232, 17.55831
1044.714, 17.15093
1045.196, 16.18976
1045.678, 15.36752
1046.160, 14.84207
1046.642, 15.18480
1047.124, 17.12788
1047.606, 18.39626
1048.089, 18.16802
1048.571, 17.85595
1049.053, 17.98279
1049.535, 18.32692
1050.017, 18.60172
1050.499, 18.87389
1050.981, 19.51466
1051.463, 20.82952
1051.945, 21.83590
1052.428, 22.27329
1052.910, 22.42623
1053.392, 22.16332
1053.874, 21.88176
1054.356, 21.96346
1054.838, 22.37136
1055.320, 22.84281
1055.802, 23.24430
1056.285, 23.99076
1056.767, 25.53438
1057.249, 27.04550
1057.731, 27.88812
1058.213, 28.67942
1058.695, 30.32034
1059.177, 32.45113
1059.659, 33.91708
1060.141, 34.45262
1060.624, 34.31581
1061.106, 32.61512
1061.588, 31.45412
1062.070, 32.51511
1062.552, 34.14281
1063.034, 34.72492
1063.516, 34.40868
1063.998, 33.99950
1064.480, 33.67199
1064.963, 33.39953
1065.445, 33.25393
1065.927, 33.05962
1066.409, 32.66804
1066.891, 32.23084
1067.373, 31.96388
1067.855, 31.76199
1068.337, 31.33001
1068.820, 30.58703
1069.302, 29.83347
1069.784, 29.24765
1070.266, 28.61987
1070.748, 28.01504
1071.230, 27.16478
1071.712, 25.65048
1072.194, 23.74206
1072.677, 21.98989
1073.159, 20.51888
1073.641, 19.13644
1074.123, 17.77510
1074.605, 16.46058
1075.087, 15.05513
1075.569, 13.84002
1076.051, 12.93175
1076.533, 12.44488
1077.016, 12.79589
1077.498, 13.94108
1077.980, 14.56889
1078.462, 13.77777
1078.944, 12.86041
1079.426, 12.33665
1079.908, 12.03815
1080.390, 11.82863
1080.872, 11.74578
1081.354, 11.92656
1081.837, 12.34731
1082.319, 12.70170
1082.801, 12.72618
1083.283, 12.95741
1083.765, 14.42203
1084.247, 15.37613
1084.729, 13.68838
1085.211, 11.21727
1085.694, 10.83970
1086.176, 12.38443
1086.658, 13.14413
1087.140, 11.99895
1087.622, 10.64135
1088.104, 9.292083
1088.586, 8.497244
1089.068, 8.993081
1089.551, 9.959826
1090.033, 10.41184
1090.515, 10.43939
1090.997, 10.81014
1091.479, 11.92034
1091.961, 12.50787
1092.443, 11.55243
1092.925, 10.61909
1093.407, 10.59285
1093.890, 10.92255
1094.372, 11.10252
1094.854, 11.15138
1095.336, 11.22050
1095.818, 11.32243
1096.300, 11.63088
1096.782, 12.64116
1097.264, 13.28639
1097.746, 12.76935
1098.229, 12.08736
1098.711, 12.29744
1099.193, 12.82125
1099.675, 12.32089
1100.157, 10.61324
1100.639, 9.495435
1101.121, 9.773906
1101.603, 10.18298
1102.086, 10.65384
1102.568, 10.86263
1103.050, 10.30091
1103.532, 9.533522
1104.014, 9.386908
1104.496, 9.865329
1104.978, 10.29999
1105.460, 10.49278
1105.943, 10.78407
1106.425, 11.58950
1106.907, 12.06861
1107.389, 11.75097
1107.871, 10.99258
1108.353, 9.745328
1108.835, 8.339113
1109.317, 8.299779
1109.799, 10.77778
1110.281, 12.04300
1110.764, 10.70594
1111.246, 9.617158
1111.728, 9.859450
1112.210, 10.39915
1112.692, 10.36401
1113.174, 10.01265
1113.656, 10.07942
1114.138, 10.73389
1114.621, 11.02948
1115.103, 10.64307
1115.585, 10.42383
1116.067, 10.52830
1116.549, 10.81622
1117.031, 11.47503
1117.513, 12.05696
1117.995, 11.71456
1118.478, 10.43467
1118.960, 9.581355
1119.442, 8.884434
1119.924, 9.401755
1120.406, 12.13927
1120.888, 14.20887
1121.370, 14.25621
1121.852, 13.21985
1122.334, 11.93746
1122.817, 10.57455
1123.299, 10.17227
1123.781, 11.16263
1124.263, 11.21693
1124.745, 9.964652
1125.227, 8.872111
1125.709, 8.293494
1126.191, 8.368055
1126.673, 9.410171
1127.156, 10.82607
1127.638, 10.98867
1128.120, 11.76427
1128.602, 12.21224
1129.084, 11.77897
1129.566, 12.29663
1130.048, 10.82718
1130.530, 9.645765
1131.013, 10.12212
1131.495, 11.32211
1131.977, 12.01332
1132.459, 12.13975
1132.941, 11.07152
1133.423, 8.950477
1133.905, 7.891103
1134.387, 8.104277
1134.870, 8.949676
1135.352, 10.17477
1135.834, 11.10100
1136.316, 11.05491
1136.798, 10.34041
1137.280, 9.113916
1137.762, 7.833533
1138.244, 8.671023
1138.726, 11.13197
1139.208, 12.31660
1139.691, 11.66127
1140.173, 10.87439
1140.655, 11.04240
1141.137, 11.36552
1141.619, 10.74055
1142.101, 9.640948
1142.583, 8.791554
1143.065, 8.184114
1143.548, 7.604850
1144.030, 7.194131
1144.512, 7.684106
1144.994, 9.307934
1145.476, 10.84825
1145.958, 11.34839
1146.440, 11.29399
1146.922, 10.84992
1147.405, 10.38951
1147.887, 10.63147
1148.369, 11.15032
1148.851, 10.81255
1149.333, 9.601583
1149.815, 8.906485
1150.297, 9.541416
1150.779, 10.36984
1151.261, 10.82224
1151.744, 11.11590
1152.226, 11.48227
1152.708, 11.72683
1153.190, 11.67562
1153.672, 11.27890
1154.154, 10.28997
1154.636, 8.447475
1155.118, 7.463142
1155.600, 8.383029
1156.083, 9.494793
1156.565, 10.57888
1157.047, 11.27464
1157.529, 11.25560
1158.011, 10.74069
1158.493, 9.893277
1158.975, 8.744017
1159.457, 8.215173
1159.940, 8.654326
1160.422, 9.248617
1160.904, 10.37324
1161.386, 11.04868
1161.868, 10.53912
1162.350, 9.949269
1162.832, 10.55129
1163.314, 11.72845
1163.796, 11.37037
1164.279, 11.31544
1164.761, 11.40555
1165.243, 9.870627
1165.725, 10.59731
1166.207, 9.407069
1166.689, 8.275466
1167.171, 8.315899
1167.653, 9.112830
1168.135, 10.21194
1168.618, 11.45553
1169.100, 11.92068
1169.582, 11.61326
1170.064, 10.85490
1170.546, 9.695053
1171.028, 9.346349
1171.510, 10.21199
1171.992, 10.94482
1172.474, 10.38141
1172.957, 9.456988
1173.439, 10.18504
1173.921, 9.562431
1174.403, 9.292293
1174.885, 9.679440
1175.367, 9.060992
1175.849, 9.725083
1176.331, 10.67883
1176.814, 11.46361
1177.296, 11.79426
1177.778, 10.97588
1178.260, 10.17123
1178.742, 11.23172
1179.224, 12.76812
1179.706, 12.83995
1180.188, 11.87634
1180.671, 10.88628
1181.153, 10.14849
1181.635, 9.682737
1182.117, 9.483322
1182.599, 9.619418
1183.081, 10.47486
1183.563, 11.26745
1184.045, 11.54647
1184.527, 11.49257
1185.010, 11.14157
1185.492, 10.66580
1185.974, 10.32083
1186.456, 10.12429
1186.938, 10.40146
1187.420, 12.10351
1187.902, 12.91382
1188.384, 11.27989
1188.866, 10.16405
1189.349, 11.65777
1189.831, 13.47818
1190.313, 13.06666
1190.795, 11.03709
1191.277, 9.802537
1191.759, 9.463145
1192.241, 9.536386
1192.723, 10.12860
1193.206, 10.83890
1193.688, 11.73420
1194.170, 12.11165
1194.652, 11.49790
1195.134, 10.35105
1195.616, 9.218616
1196.098, 8.209333
1196.580, 7.702918
1197.063, 7.732522
1197.545, 9.052543
1198.027, 11.46211
1198.509, 12.46332
1198.991, 11.45758
1199.473, 10.56631
1199.955, 11.31957
1200.437, 12.29764
1200.919, 11.23781
1201.401, 9.436874
1201.884, 9.233907
1202.366, 9.977258
1202.848, 10.58376
1203.330, 10.81640
1203.812, 10.41269
1204.294, 9.384068
1204.776, 8.556383
1205.258, 8.215138
1205.741, 8.591913
1206.223, 10.64943
1206.705, 12.61329
1207.187, 13.15534
1207.669, 12.78245
1208.151, 11.69761
1208.633, 10.38956
1209.115, 10.25827
1209.598, 11.89301
1210.080, 12.61585
1210.562, 11.49357
1211.044, 10.21592
1211.526, 8.246235
1212.008, 7.310153
1212.490, 8.962955
1212.972, 11.25757
1213.454, 11.90041
1213.937, 11.20045
1214.419, 10.55523
1214.901, 9.823314
1215.383, 10.00906
1215.865, 11.33718
1216.347, 12.16986
1216.829, 12.08349
1217.311, 11.99296
1217.793, 12.45994
1218.276, 12.95130
1218.758, 12.72847
1219.240, 12.01682
1219.722, 11.26784
1220.204, 10.60678
1220.686, 10.72088
1221.168, 11.37075
1221.650, 11.34918
1222.133, 10.50461
1222.615, 9.945337
1223.097, 10.34096
1223.579, 10.73664
1224.061, 10.09977
1224.543, 9.226763
1225.025, 8.633912
1225.507, 8.465731
1225.990, 9.148239
1226.472, 10.26057
1226.954, 11.14311
1227.436, 11.62088
1227.918, 11.43257
1228.400, 9.808543
1228.882, 8.992953
1229.364, 10.70696
1229.846, 11.74897
1230.328, 9.829687
1230.811, 7.849521
1231.293, 8.404749
1231.775, 10.11747
1232.257, 10.32232
1232.739, 9.034693
1233.221, 8.522913
1233.703, 8.875044
1234.185, 9.787229
1234.668, 11.46933
1235.150, 12.24354
1235.632, 11.46636
1236.114, 10.43486
1236.596, 10.13329
1237.078, 10.31084
1237.560, 10.60633
1238.042, 10.99017
1238.525, 11.59672
1239.007, 12.16942
1239.489, 11.67959
1239.971, 10.33844
1240.453, 9.208299
1240.935, 8.648694
1241.417, 8.630435
1241.899, 9.308420
1242.381, 9.909548
1242.864, 9.758996
1243.346, 9.344361
1243.828, 8.688688
1244.310, 8.308496
1244.792, 9.294664
1245.274, 10.82152
1245.756, 10.67736
1246.238, 8.570142
1246.720, 7.783741
1247.203, 10.39490
1247.685, 11.78334
1248.167, 10.73644
1248.649, 9.781547
1249.131, 9.664457
1249.613, 9.926257
1250.095, 10.35125
1250.577, 10.72060
1251.059, 10.47001
1251.542, 9.727666
1252.024, 10.39155
1252.506, 10.15965
1252.988, 9.996297
1253.470, 10.92559
1253.952, 10.18762
1254.434, 11.32236
1254.916, 12.49465
1255.399, 12.42072
1255.881, 11.82773
1256.363, 11.65489
1256.845, 11.49495
1257.327, 10.37455
1257.809, 9.133450
1258.291, 9.281799
1258.773, 10.32685
1259.255, 11.05352
1259.738, 11.16782
1260.220, 10.70578
1260.702, 9.296189
1261.184, 8.386830
1261.666, 8.553149
1262.148, 9.151713
1262.630, 10.43379
1263.112, 11.52909
1263.594, 11.83286
1264.077, 11.56649
1264.559, 10.94220
1265.041, 10.02248
1265.523, 9.297322
1266.005, 8.701433
1266.487, 8.824644
1266.969, 9.787653
1267.451, 10.44299
1267.934, 10.51593
1268.416, 10.34340
1268.898, 10.09381
1269.380, 10.09088
1269.862, 10.86591
1270.344, 11.87875
1270.826, 11.95267
1271.308, 11.66539
1271.791, 12.50277
1272.273, 13.70856
1272.755, 13.18330
1273.237, 11.18967
1273.719, 10.08526
1274.201, 10.71320
1274.683, 11.42622
1275.165, 11.80325
1275.647, 11.67086
1276.130, 10.10812
1276.612, 9.019523
1277.094, 10.39373
1277.576, 12.03748
1278.058, 11.15769
1278.540, 8.894956
1279.022, 8.514050
1279.504, 10.18574
1279.986, 11.33701
1280.469, 11.94391
1280.951, 12.08838
1281.433, 11.74740
1281.915, 11.53527
1282.397, 11.67492
1282.879, 11.74340
1283.361, 11.40343
1283.843, 10.85655
1284.326, 10.34179
1284.808, 9.857398
##END=



