##NAMES=Aurostibite
##RRUFFID=R060923
##IDEAL CHEMISTRY=AuSb_2_
##LOCALITY=Krásná Hora, Czech Republic
##OWNER=RRUFF
##SOURCE=Michael Scott
##DESCRIPTION=Gray massive crystals tarnished to gold color
##STATUS=The identification of this mineral is confirmed by single-crystal X-ray diffraction and chemical analysis.
##URL=rruff.info/R060923
##MEASURED CHEMISTRY=Au_0.99_Sb_2.00_
99.82780, 84.88095
100.3099, 86.73737
100.7920, 87.67250
101.2742, 87.71352
101.7563, 87.41102
102.2384, 86.05116
102.7205, 85.27464
103.2026, 87.62900
103.6847, 94.59345
104.1668, 101.4837
104.6490, 106.1724
105.1311, 106.6516
105.6132, 110.9350
106.0953, 119.9075
106.5774, 132.6282
107.0595, 146.8514
107.5417, 165.0899
108.0238, 182.4231
108.5059, 196.4416
108.9880, 199.8194
109.4701, 208.7144
109.9522, 224.7911
110.4344, 247.6652
110.9165, 271.8181
111.3986, 296.6253
111.8807, 322.9636
112.3628, 351.1877
112.8449, 379.3996
113.3271, 411.2491
113.8092, 448.6996
114.2913, 492.0634
114.7734, 536.8134
115.2555, 582.2998
115.7376, 628.2660
116.2198, 673.5159
116.7019, 719.4343
117.1840, 763.1781
117.6661, 803.7624
118.1482, 840.5784
118.6303, 874.9585
119.1124, 905.6684
119.5946, 934.0754
120.0767, 962.9034
120.5588, 994.0745
121.0409, 1025.822
121.5230, 1056.330
122.0051, 1082.119
122.4873, 1110.681
122.9694, 1151.202
123.4515, 1201.557
123.9336, 1249.657
124.4157, 1288.204
124.8979, 1318.846
125.3800, 1344.100
125.8621, 1362.297
126.3442, 1377.039
126.8263, 1393.177
127.3084, 1410.629
127.7905, 1428.429
128.2727, 1446.010
128.7548, 1463.172
129.2369, 1478.885
129.7190, 1490.139
130.2011, 1499.455
130.6832, 1515.765
131.1654, 1541.014
131.6475, 1567.674
132.1296, 1582.252
132.6117, 1585.335
133.0938, 1591.703
133.5759, 1611.905
134.0581, 1644.872
134.5402, 1673.383
135.0223, 1693.699
135.5044, 1711.687
135.9865, 1742.358
136.4686, 1787.021
136.9508, 1836.676
137.4329, 1883.155
137.9150, 1924.236
138.3971, 1976.254
138.8792, 2043.311
139.3613, 2123.543
139.8434, 2206.885
140.3256, 2294.861
140.8077, 2384.627
141.2898, 2473.716
141.7719, 2557.902
142.2540, 2651.446
142.7361, 2759.957
143.2183, 2886.365
143.7004, 3000.630
144.1825, 3092.561
144.6646, 3180.389
145.1467, 3287.042
145.6288, 3425.803
146.1110, 3565.797
146.5931, 3698.310
147.0752, 3822.370
147.5573, 3944.329
148.0394, 4059.600
148.5215, 4172.702
149.0037, 4295.652
149.4858, 4448.313
149.9679, 4591.249
150.4500, 4713.255
150.9321, 4828.067
151.4142, 4901.330
151.8964, 4938.609
152.3785, 4936.177
152.8606, 4880.222
153.3427, 4745.849
153.8248, 4574.819
154.3069, 4388.808
154.7890, 4168.719
155.2712, 3954.413
155.7533, 3746.183
156.2354, 3546.864
156.7175, 3365.984
157.1996, 3205.950
157.6817, 3062.901
158.1639, 2933.210
158.6460, 2818.377
159.1281, 2714.274
159.6102, 2618.937
160.0923, 2532.124
160.5744, 2457.165
161.0566, 2401.567
161.5387, 2356.312
162.0208, 2311.402
162.5029, 2257.095
162.9850, 2207.116
163.4671, 2170.597
163.9493, 2150.741
164.4314, 2130.496
164.9135, 2096.760
165.3956, 2057.907
165.8777, 2027.457
166.3598, 2019.134
166.8420, 2016.743
167.3241, 2007.485
167.8062, 1986.853
168.2883, 1968.174
168.7704, 1960.064
169.2525, 1960.555
169.7346, 1964.727
170.2168, 1972.494
170.6989, 1981.534
171.1810, 1989.400
171.6631, 1995.268
172.1452, 2000.612
172.6273, 2008.807
173.1095, 2018.427
173.5916, 2023.813
174.0737, 2018.388
174.5558, 2006.979
175.0379, 1996.870
175.5201, 1990.406
176.0022, 1985.178
176.4843, 1976.382
176.9664, 1964.812
177.4485, 1957.445
177.9306, 1961.827
178.4128, 1974.419
178.8949, 1987.690
179.3770, 1998.577
179.8591, 2009.258
180.3412, 2023.675
180.8233, 2041.989
181.3055, 2061.364
181.7876, 2079.168
182.2697, 2095.866
182.7518, 2113.697
183.2339, 2133.347
183.7160, 2154.668
184.1982, 2177.011
184.6803, 2200.416
185.1624, 2224.301
185.6445, 2250.053
186.1266, 2276.672
186.6087, 2299.626
187.0908, 2314.575
187.5730, 2323.676
188.0551, 2335.000
188.5372, 2349.318
189.0193, 2364.148
189.5014, 2383.645
189.9835, 2406.939
190.4657, 2410.663
190.9478, 2375.852
191.4299, 2307.173
191.9120, 2240.150
192.3941, 2176.457
192.8762, 2115.299
193.3584, 2055.941
193.8405, 1998.744
194.3226, 1941.257
194.8047, 1879.824
195.2868, 1814.934
195.7689, 1759.739
196.2511, 1715.484
196.7332, 1680.402
197.2153, 1651.844
197.6974, 1630.281
198.1795, 1611.008
198.6616, 1591.352
199.1438, 1571.103
199.6259, 1551.304
200.1080, 1531.926
200.5901, 1513.064
201.0722, 1494.980
201.5543, 1477.152
202.0364, 1461.604
202.5186, 1450.918
203.0007, 1445.895
203.4828, 1438.949
203.9649, 1428.220
204.4470, 1414.662
204.9291, 1402.459
205.4113, 1390.569
205.8934, 1382.436
206.3755, 1383.339
206.8576, 1396.318
207.3397, 1403.132
207.8218, 1398.689
208.3040, 1384.568
208.7861, 1375.068
209.2682, 1371.882
209.7503, 1370.334
210.2324, 1366.150
210.7145, 1358.906
211.1967, 1350.598
211.6788, 1339.730
212.1609, 1326.690
212.6430, 1324.579
213.1251, 1338.846
213.6072, 1356.038
214.0894, 1361.557
214.5715, 1351.445
215.0536, 1340.422
215.5357, 1331.208
216.0178, 1323.648
216.4999, 1320.178
216.9820, 1322.843
217.4642, 1327.136
217.9463, 1326.971
218.4284, 1319.203
218.9105, 1314.431
219.3926, 1317.256
219.8747, 1329.377
220.3569, 1333.419
220.8390, 1325.745
221.3211, 1313.284
221.8032, 1305.037
222.2853, 1302.362
222.7674, 1301.377
223.2496, 1301.097
223.7317, 1301.504
224.2138, 1303.078
224.6959, 1306.670
225.1780, 1310.856
225.6601, 1313.686
226.1423, 1315.177
226.6244, 1315.201
227.1065, 1313.070
227.5886, 1307.532
228.0707, 1304.975
228.5528, 1306.428
229.0350, 1310.194
229.5171, 1313.681
229.9992, 1318.088
230.4813, 1320.180
230.9634, 1317.996
231.4455, 1308.930
231.9276, 1304.317
232.4098, 1306.352
232.8919, 1311.794
233.3740, 1314.271
233.8561, 1312.718
234.3382, 1310.009
234.8203, 1307.143
235.3025, 1304.421
235.7846, 1300.387
236.2667, 1292.601
236.7488, 1284.516
237.2309, 1284.474
237.7130, 1299.222
238.1952, 1311.623
238.6773, 1314.410
239.1594, 1302.923
239.6415, 1294.551
240.1236, 1291.126
240.6057, 1290.164
241.0879, 1284.732
241.5700, 1267.452
242.0521, 1256.954
242.5342, 1262.839
243.0163, 1296.645
243.4984, 1318.234
243.9806, 1322.972
244.4627, 1316.852
244.9448, 1314.318
245.4269, 1318.397
245.9090, 1321.435
246.3911, 1319.530
246.8732, 1308.492
247.3554, 1302.610
247.8375, 1303.009
248.3196, 1308.196
248.8017, 1314.689
249.2838, 1322.884
249.7659, 1331.668
250.2481, 1341.332
250.7302, 1354.585
251.2123, 1361.842
251.6944, 1360.317
252.1765, 1353.850
252.6586, 1352.115
253.1408, 1358.015
253.6229, 1364.074
254.1050, 1366.843
254.5871, 1364.383
255.0692, 1363.904
255.5513, 1366.417
256.0334, 1370.568
256.5156, 1372.914
256.9977, 1372.372
257.4798, 1371.891
257.9619, 1373.112
258.4440, 1377.425
258.9261, 1379.121
259.4083, 1376.839
259.8904, 1372.469
260.3725, 1370.433
260.8546, 1370.646
261.3367, 1373.245
261.8188, 1379.022
262.3010, 1389.892
262.7831, 1397.569
263.2652, 1400.929
263.7473, 1401.702
264.2294, 1404.541
264.7115, 1411.355
265.1937, 1415.831
265.6758, 1413.662
266.1579, 1401.959
266.6400, 1396.082
267.1221, 1397.822
267.6042, 1404.211
268.0864, 1408.914
268.5685, 1411.234
269.0506, 1413.975
269.5327, 1419.457
270.0148, 1429.201
270.4969, 1433.299
270.9791, 1429.927
271.4612, 1422.844
271.9433, 1419.819
272.4254, 1422.057
272.9075, 1424.135
273.3896, 1422.755
273.8718, 1417.046
274.3539, 1415.953
274.8360, 1421.580
275.3181, 1429.036
275.8002, 1427.583
276.2823, 1414.631
276.7645, 1405.552
277.2466, 1409.770
277.7287, 1428.586
278.2108, 1438.022
278.6929, 1435.923
279.1750, 1428.522
279.6572, 1425.041
280.1393, 1425.677
280.6214, 1428.451
281.1035, 1434.086
281.5856, 1442.365
282.0677, 1445.921
282.5499, 1443.918
283.0320, 1439.213
283.5141, 1435.946
283.9962, 1434.212
284.4783, 1431.726
284.9604, 1428.204
285.4425, 1423.416
285.9247, 1413.302
286.4068, 1395.965
286.8889, 1380.684
287.3710, 1382.027
287.8531, 1399.129
288.3352, 1415.445
288.8174, 1424.487
289.2995, 1427.698
289.7816, 1431.509
290.2637, 1436.197
290.7458, 1439.351
291.2279, 1436.885
291.7101, 1429.656
292.1922, 1423.567
292.6743, 1422.166
293.1564, 1423.099
293.6385, 1418.657
294.1206, 1408.353
294.6028, 1399.394
295.0849, 1401.534
295.5670, 1411.701
296.0491, 1418.055
296.5312, 1413.814
297.0133, 1404.987
297.4955, 1403.678
297.9776, 1409.873
298.4597, 1416.950
298.9418, 1420.553
299.4239, 1420.685
299.9060, 1416.551
300.3882, 1403.566
300.8703, 1389.945
301.3524, 1389.812
301.8345, 1401.979
302.3166, 1414.302
302.7987, 1416.723
303.2809, 1413.250
303.7630, 1410.854
304.2451, 1412.070
304.7272, 1414.111
305.2093, 1412.419
305.6914, 1408.030
306.1736, 1406.784
306.6557, 1417.515
307.1378, 1431.826
307.6199, 1438.349
308.1020, 1430.779
308.5841, 1421.633
309.0663, 1423.047
309.5484, 1431.992
310.0305, 1437.968
310.5126, 1431.668
310.9947, 1421.625
311.4768, 1415.679
311.9590, 1416.124
312.4411, 1418.939
312.9232, 1423.785
313.4053, 1429.340
313.8874, 1432.377
314.3695, 1428.956
314.8517, 1424.260
315.3337, 1422.030
315.8159, 1423.628
316.2980, 1425.091
316.7801, 1424.320
317.2622, 1422.329
317.7443, 1420.880
318.2264, 1422.954
318.7086, 1423.887
319.1907, 1420.859
319.6728, 1412.680
320.1549, 1405.039
320.6370, 1395.574
321.1191, 1388.684
321.6013, 1389.957
322.0834, 1415.384
322.5655, 1435.509
323.0476, 1436.936
323.5297, 1415.734
324.0118, 1402.649
324.4940, 1407.409
324.9761, 1420.118
325.4582, 1431.355
325.9403, 1442.851
326.4224, 1449.922
326.9045, 1450.636
327.3867, 1444.727
327.8688, 1438.499
328.3509, 1428.450
328.8330, 1420.363
329.3151, 1418.389
329.7972, 1429.284
330.2794, 1437.403
330.7615, 1440.582
331.2436, 1439.394
331.7257, 1438.604
332.2078, 1438.829
332.6899, 1438.821
333.1721, 1437.545
333.6542, 1433.167
334.1363, 1431.606
334.6184, 1434.874
335.1005, 1440.957
335.5826, 1442.769
336.0648, 1437.949
336.5469, 1433.242
337.0290, 1432.458
337.5111, 1437.119
337.9932, 1439.759
338.4753, 1439.541
338.9575, 1437.768
339.4396, 1437.207
339.9217, 1438.245
340.4038, 1438.854
340.8859, 1438.160
341.3680, 1436.139
341.8502, 1432.557
342.3323, 1426.143
342.8144, 1421.286
343.2965, 1427.787
343.7786, 1446.259
344.2607, 1457.907
344.7429, 1452.439
345.2250, 1433.980
345.7071, 1422.531
346.1892, 1418.338
346.6713, 1419.144
347.1534, 1424.391
347.6355, 1433.258
348.1176, 1441.366
348.5998, 1448.717
349.0819, 1453.652
349.5640, 1450.115
350.0461, 1438.313
350.5282, 1428.575
351.0103, 1431.662
351.4925, 1442.681
351.9746, 1451.196
352.4567, 1454.153
352.9388, 1454.304
353.4209, 1453.969
353.9030, 1453.370
354.3852, 1453.482
354.8673, 1456.538
355.3494, 1460.060
355.8315, 1460.473
356.3136, 1455.947
356.7957, 1451.924
357.2779, 1454.509
357.7600, 1460.921
358.2421, 1464.785
358.7242, 1463.016
359.2063, 1457.734
359.6884, 1447.479
360.1706, 1429.961
360.6527, 1420.629
361.1348, 1435.528
361.6169, 1460.706
362.0990, 1477.524
362.5811, 1472.797
363.0633, 1465.338
363.5454, 1463.541
364.0275, 1468.039
364.5096, 1468.711
364.9917, 1457.126
365.4738, 1443.670
365.9560, 1436.808
366.4381, 1446.933
366.9202, 1454.054
367.4023, 1452.225
367.8844, 1442.836
368.3665, 1438.786
368.8487, 1446.334
369.3308, 1455.219
369.8129, 1460.282
370.2950, 1457.953
370.7771, 1457.212
371.2592, 1457.992
371.7414, 1460.441
372.2235, 1465.719
372.7056, 1478.224
373.1877, 1486.747
373.6698, 1483.878
374.1519, 1463.202
374.6341, 1459.681
375.1162, 1481.651
375.5983, 1511.702
376.0804, 1521.933
376.5625, 1507.370
377.0446, 1491.841
377.5267, 1483.090
378.0089, 1480.525
378.4910, 1475.372
378.9731, 1466.441
379.4552, 1459.307
379.9373, 1463.045
380.4194, 1477.215
380.9016, 1483.623
381.3837, 1474.908
381.8658, 1458.279
382.3479, 1452.320
382.8300, 1456.923
383.3121, 1464.182
383.7943, 1467.065
384.2764, 1467.859
384.7585, 1473.988
385.2406, 1488.168
385.7227, 1504.103
386.2048, 1513.193
386.6870, 1516.703
387.1691, 1519.038
387.6512, 1523.900
388.1333, 1528.251
388.6154, 1527.664
389.0975, 1521.179
389.5797, 1513.905
390.0618, 1510.150
390.5439, 1508.098
391.0260, 1505.104
391.5081, 1496.131
391.9902, 1489.203
392.4724, 1491.709
392.9545, 1503.137
393.4366, 1510.984
393.9187, 1504.658
394.4008, 1495.253
394.8829, 1491.602
395.3651, 1501.651
395.8472, 1511.305
396.3293, 1518.340
396.8114, 1522.561
397.2935, 1523.234
397.7756, 1514.026
398.2578, 1506.139
398.7399, 1504.963
399.2220, 1516.225
399.7041, 1523.657
400.1862, 1526.866
400.6683, 1526.253
401.1505, 1521.889
401.6326, 1508.358
402.1147, 1499.057
402.5968, 1498.866
403.0789, 1508.825
403.5610, 1514.493
404.0432, 1514.369
404.5253, 1512.076
405.0074, 1511.067
405.4895, 1511.692
405.9716, 1512.067
406.4537, 1511.328
406.9359, 1510.278
407.4180, 1512.562
407.9001, 1518.760
408.3822, 1524.993
408.8643, 1528.525
409.3464, 1529.588
409.8285, 1530.320
410.3106, 1530.658
410.7928, 1531.401
411.2749, 1535.144
411.7570, 1541.147
412.2391, 1544.577
412.7212, 1538.686
413.2033, 1529.757
413.6855, 1531.770
414.1676, 1545.459
414.6497, 1559.212
415.1318, 1561.556
415.6139, 1557.125
416.0960, 1553.668
416.5782, 1554.715
417.0603, 1556.747
417.5424, 1557.613
418.0245, 1557.229
418.5066, 1555.275
418.9887, 1546.877
419.4709, 1539.646
419.9530, 1540.578
420.4351, 1556.607
420.9172, 1568.950
421.3993, 1568.630
421.8814, 1560.558
422.3636, 1553.790
422.8457, 1547.915
423.3278, 1545.933
423.8099, 1551.393
424.2920, 1567.395
424.7741, 1575.306
425.2563, 1567.489
425.7384, 1555.364
426.2205, 1548.826
426.7026, 1550.342
427.1847, 1553.335
427.6668, 1557.351
428.1490, 1562.243
428.6311, 1567.690
429.1132, 1575.122
429.5953, 1580.392
430.0774, 1579.359
430.5595, 1570.173
431.0417, 1568.108
431.5238, 1576.396
432.0059, 1588.006
432.4880, 1588.937
432.9701, 1578.740
433.4522, 1571.862
433.9344, 1576.557
434.4165, 1589.219
434.8986, 1596.612
435.3807, 1598.599
435.8628, 1597.694
436.3449, 1594.832
436.8271, 1590.870
437.3092, 1588.190
437.7913, 1588.238
438.2734, 1588.649
438.7555, 1585.295
439.2376, 1579.520
439.7197, 1576.429
440.2018, 1582.391
440.6840, 1590.477
441.1661, 1593.311
441.6482, 1588.339
442.1303, 1585.296
442.6124, 1595.343
443.0945, 1608.783
443.5767, 1612.221
444.0588, 1586.872
444.5409, 1565.164
445.0230, 1560.414
445.5051, 1572.547
445.9872, 1583.318
446.4694, 1591.374
446.9515, 1596.187
447.4336, 1597.191
447.9157, 1587.118
448.3978, 1584.001
448.8799, 1592.570
449.3621, 1607.263
449.8442, 1614.307
450.3263, 1609.419
450.8084, 1605.360
451.2905, 1608.209
451.7726, 1618.880
452.2548, 1620.034
452.7369, 1608.089
453.2190, 1594.486
453.7011, 1593.155
454.1832, 1604.443
454.6653, 1612.754
455.1475, 1613.835
455.6296, 1610.779
456.1117, 1610.549
456.5938, 1613.045
457.0759, 1616.336
457.5580, 1620.792
458.0402, 1624.866
458.5223, 1623.938
459.0044, 1616.478
459.4865, 1610.150
459.9686, 1614.421
460.4507, 1624.799
460.9329, 1632.888
461.4150, 1635.415
461.8971, 1633.989
462.3792, 1626.796
462.8613, 1614.906
463.3434, 1607.087
463.8256, 1612.320
464.3077, 1620.122
464.7898, 1622.335
465.2719, 1609.595
465.7540, 1603.915
466.2361, 1616.612
466.7183, 1638.587
467.2004, 1651.112
467.6825, 1647.125
468.1646, 1639.512
468.6467, 1629.355
469.1288, 1615.645
469.6110, 1609.504
470.0930, 1614.098
470.5752, 1622.103
471.0573, 1627.464
471.5394, 1629.536
472.0215, 1630.764
472.5036, 1630.134
472.9857, 1629.892
473.4679, 1638.917
473.9500, 1658.239
474.4321, 1672.542
474.9142, 1667.681
475.3963, 1649.774
475.8784, 1647.805
476.3606, 1664.331
476.8427, 1682.224
477.3248, 1680.889
477.8069, 1667.101
478.2890, 1656.631
478.7711, 1656.613
479.2533, 1659.741
479.7354, 1659.484
480.2175, 1656.322
480.6996, 1652.127
481.1817, 1643.826
481.6638, 1637.551
482.1460, 1638.821
482.6281, 1650.257
483.1102, 1661.914
483.5923, 1671.312
484.0744, 1678.628
484.5565, 1684.113
485.0387, 1690.360
485.5208, 1691.806
486.0029, 1683.450
486.4850, 1666.845
486.9671, 1658.321
487.4492, 1663.741
487.9314, 1670.479
488.4135, 1671.031
488.8956, 1661.146
489.3777, 1659.134
489.8598, 1667.929
490.3419, 1681.198
490.8241, 1689.570
491.3062, 1692.864
491.7883, 1693.582
492.2704, 1692.515
492.7525, 1689.551
493.2346, 1683.475
493.7168, 1674.366
494.1989, 1664.791
494.6810, 1654.551
495.1631, 1645.569
495.6452, 1642.472
496.1273, 1646.929
496.6095, 1654.239
497.0916, 1661.081
497.5737, 1667.247
498.0558, 1672.375
498.5379, 1675.550
499.0201, 1678.213
499.5022, 1680.414
499.9843, 1682.373
500.4664, 1686.515
500.9485, 1697.915
501.4306, 1709.079
501.9127, 1714.815
502.3948, 1711.050
502.8770, 1707.080
503.3591, 1703.431
503.8412, 1700.023
504.3233, 1696.333
504.8054, 1689.644
505.2875, 1687.363
505.7697, 1693.890
506.2518, 1708.586
506.7339, 1712.309
507.2160, 1701.833
507.6981, 1688.919
508.1802, 1682.918
508.6624, 1683.724
509.1445, 1684.819
509.6266, 1685.557
510.1087, 1686.257
510.5908, 1688.034
511.0729, 1690.485
511.5551, 1691.533
512.0372, 1686.820
512.5193, 1681.805
513.0014, 1685.258
513.4835, 1696.593
513.9656, 1708.978
514.4478, 1721.558
514.9299, 1731.120
515.4120, 1733.599
515.8941, 1724.556
516.3762, 1716.236
516.8583, 1714.227
517.3405, 1716.003
517.8226, 1717.520
518.3047, 1714.144
518.7868, 1714.221
519.2689, 1723.938
519.7510, 1743.147
520.2332, 1750.570
520.7153, 1739.045
521.1974, 1724.241
521.6795, 1714.612
522.1616, 1709.787
522.6437, 1712.756
523.1259, 1726.556
523.6080, 1743.962
524.0901, 1753.323
524.5722, 1754.486
525.0543, 1751.723
525.5364, 1744.159
526.0186, 1734.862
526.5007, 1733.682
526.9828, 1740.039
527.4649, 1744.360
527.9470, 1734.720
528.4291, 1720.186
528.9113, 1715.382
529.3934, 1724.525
529.8755, 1734.417
530.3576, 1732.288
530.8397, 1725.835
531.3218, 1726.267
531.8040, 1752.096
532.2861, 1771.180
532.7682, 1764.356
533.2503, 1736.416
533.7324, 1720.086
534.2145, 1733.467
534.6967, 1747.849
535.1788, 1750.313
535.6609, 1735.097
536.1430, 1725.671
536.6251, 1724.087
537.1072, 1726.296
537.5894, 1727.656
538.0715, 1727.837
538.5536, 1728.996
539.0357, 1731.743
539.5178, 1735.570
539.9999, 1739.544
540.4821, 1743.583
540.9642, 1746.838
541.4463, 1748.648
541.9284, 1749.313
542.4105, 1748.996
542.8926, 1747.603
543.3748, 1747.073
543.8569, 1751.521
544.3390, 1757.005
544.8211, 1758.003
545.3032, 1750.130
545.7853, 1741.686
546.2675, 1735.127
546.7495, 1731.075
547.2316, 1730.947
547.7137, 1739.282
548.1959, 1747.674
548.6780, 1753.254
549.1601, 1755.629
549.6422, 1758.032
550.1243, 1760.200
550.6064, 1762.703
551.0886, 1766.704
551.5707, 1774.047
552.0528, 1775.350
552.5349, 1767.408
553.0170, 1757.037
553.4991, 1757.984
553.9813, 1770.210
554.4634, 1779.283
554.9455, 1777.566
555.4276, 1770.615
555.9097, 1772.745
556.3918, 1782.881
556.8740, 1791.100
557.3561, 1788.909
557.8382, 1781.640
558.3203, 1774.383
558.8024, 1766.944
559.2845, 1764.338
559.7667, 1775.262
560.2488, 1790.395
560.7309, 1798.949
561.2130, 1794.988
561.6951, 1787.533
562.1772, 1772.594
562.6594, 1754.411
563.1415, 1750.535
563.6236, 1775.135
564.1057, 1795.481
564.5878, 1797.636
565.0699, 1779.414
565.5521, 1772.613
566.0342, 1781.049
566.5163, 1791.766
566.9984, 1791.026
567.4805, 1779.572
567.9626, 1774.646
568.4448, 1780.638
568.9269, 1789.242
569.4090, 1785.479
569.8911, 1773.378
570.3732, 1766.579
570.8553, 1776.007
571.3375, 1790.771
571.8196, 1801.601
572.3017, 1808.599
572.7838, 1811.774
573.2659, 1809.797
573.7480, 1805.012
574.2302, 1797.784
574.7123, 1785.380
575.1944, 1778.737
575.6765, 1784.893
576.1586, 1795.081
576.6407, 1800.151
577.1229, 1796.159
577.6050, 1794.530
578.0871, 1797.134
578.5692, 1802.859
579.0513, 1808.721
579.5334, 1814.993
580.0156, 1820.018
580.4977, 1822.409
580.9798, 1822.845
581.4619, 1825.589
581.9440, 1830.753
582.4261, 1833.357
582.9083, 1825.224
583.3904, 1812.498
583.8725, 1806.053
584.3546, 1809.203
584.8367, 1814.345
585.3188, 1816.556
585.8010, 1817.184
586.2831, 1818.347
586.7652, 1824.870
587.2473, 1827.727
587.7294, 1820.228
588.2115, 1804.821
588.6937, 1797.611
589.1758, 1804.290
589.6579, 1813.221
590.1400, 1820.802
590.6221, 1827.274
591.1042, 1829.898
591.5864, 1827.118
592.0685, 1824.036
592.5506, 1825.465
593.0327, 1831.277
593.5148, 1840.051
593.9969, 1853.685
594.4791, 1864.918
594.9612, 1860.049
595.4433, 1843.706
595.9254, 1829.696
596.4075, 1822.066
596.8896, 1821.041
597.3718, 1830.759
597.8539, 1848.908
598.3360, 1863.473
598.8181, 1869.151
599.3002, 1869.635
599.7823, 1865.892
600.2645, 1856.099
600.7466, 1849.368
601.2287, 1847.693
601.7108, 1848.312
602.1929, 1848.970
602.6750, 1849.153
603.1572, 1851.070
603.6393, 1855.986
604.1214, 1861.557
604.6035, 1861.265
605.0856, 1854.873
605.5677, 1853.861
606.0499, 1867.182
606.5320, 1886.145
607.0141, 1889.951
607.4962, 1880.373
607.9783, 1870.756
608.4604, 1869.668
608.9425, 1873.312
609.4246, 1880.296
609.9067, 1891.692
610.3889, 1895.892
610.8710, 1874.924
611.3531, 1850.956
611.8352, 1843.953
612.3173, 1877.345
612.7994, 1902.007
613.2816, 1915.354
613.7637, 1918.713
614.2458, 1912.831
614.7279, 1892.605
615.2100, 1877.381
615.6921, 1873.760
616.1743, 1878.969
616.6564, 1879.794
617.1385, 1875.949
617.6206, 1875.270
618.1027, 1887.562
618.5848, 1905.755
619.0670, 1913.501
619.5491, 1909.563
620.0312, 1903.288
620.5133, 1899.732
620.9954, 1898.656
621.4775, 1900.146
621.9597, 1906.361
622.4418, 1911.035
622.9239, 1912.557
623.4060, 1911.087
623.8881, 1906.717
624.3702, 1892.017
624.8524, 1884.298
625.3345, 1890.033
625.8166, 1905.317
626.2987, 1910.076
626.7808, 1901.686
627.2629, 1892.182
627.7451, 1887.385
628.2272, 1886.707
628.7093, 1884.902
629.1914, 1881.731
629.6735, 1882.105
630.1556, 1896.072
630.6378, 1914.909
631.1199, 1923.540
631.6020, 1918.260
632.0841, 1907.229
632.5662, 1888.428
633.0483, 1869.630
633.5305, 1860.891
634.0126, 1875.337
634.4947, 1888.825
634.9768, 1896.914
635.4589, 1900.146
635.9410, 1900.089
636.4232, 1894.959
636.9053, 1889.528
637.3874, 1884.608
637.8695, 1880.415
638.3516, 1879.376
638.8337, 1881.659
639.3159, 1885.747
639.7980, 1892.514
640.2801, 1900.327
640.7622, 1903.788
641.2443, 1902.461
641.7264, 1898.056
642.2086, 1889.221
642.6907, 1879.296
643.1728, 1872.944
643.6549, 1872.532
644.1370, 1873.699
644.6191, 1873.355
645.1013, 1873.743
645.5834, 1878.642
646.0655, 1898.901
646.5476, 1910.868
647.0297, 1907.215
647.5118, 1892.065
647.9940, 1884.288
648.4761, 1885.612
648.9582, 1888.151
649.4403, 1888.352
649.9224, 1886.525
650.4045, 1884.100
650.8867, 1880.971
651.3688, 1879.499
651.8509, 1881.660
652.3330, 1886.708
652.8151, 1895.710
653.2972, 1910.527
653.7794, 1918.774
654.2615, 1903.082
654.7436, 1880.908
655.2257, 1871.094
655.7078, 1888.920
656.1899, 1906.067
656.6721, 1920.729
657.1542, 1931.894
657.6363, 1937.037
658.1184, 1934.583
658.6005, 1929.944
659.0826, 1923.812
659.5648, 1916.699
660.0469, 1909.993
660.5290, 1903.645
661.0111, 1899.747
661.4932, 1903.292
661.9753, 1908.979
662.4575, 1904.084
662.9396, 1889.058
663.4217, 1877.611
663.9038, 1883.055
664.3859, 1893.938
664.8680, 1900.034
665.3502, 1898.591
665.8323, 1896.418
666.3144, 1892.243
666.7965, 1889.685
667.2786, 1892.653
667.7607, 1906.257
668.2429, 1914.645
668.7250, 1915.047
669.2071, 1910.882
669.6892, 1908.289
670.1713, 1907.215
670.6534, 1906.518
671.1355, 1906.710
671.6176, 1906.078
672.0997, 1898.710
672.5818, 1886.807
673.0640, 1879.557
673.5461, 1885.306
674.0282, 1895.532
674.5103, 1906.756
674.9924, 1918.284
675.4745, 1921.794
675.9567, 1900.207
676.4388, 1881.464
676.9209, 1884.410
677.4030, 1918.301
677.8851, 1937.551
678.3672, 1938.215
678.8494, 1929.998
679.3315, 1919.469
679.8136, 1906.463
680.2957, 1897.149
680.7778, 1891.984
681.2599, 1891.687
681.7421, 1901.837
682.2242, 1917.854
682.7063, 1926.978
683.1884, 1919.853
683.6705, 1911.686
684.1526, 1916.749
684.6348, 1929.188
685.1169, 1936.179
685.5990, 1929.581
686.0811, 1921.190
686.5632, 1913.552
687.0453, 1906.968
687.5275, 1902.740
688.0096, 1901.389
688.4917, 1901.629
688.9738, 1903.499
689.4559, 1906.794
689.9380, 1907.647
690.4202, 1905.719
690.9023, 1905.981
691.3844, 1916.314
691.8665, 1930.590
692.3486, 1936.734
692.8307, 1932.672
693.3129, 1927.277
693.7950, 1924.974
694.2771, 1925.117
694.7592, 1927.329
695.2413, 1934.725
695.7234, 1938.932
696.2056, 1935.458
696.6877, 1929.763
697.1698, 1928.898
697.6519, 1934.796
698.1340, 1939.948
698.6161, 1942.951
699.0983, 1944.808
699.5804, 1948.920
700.0625, 1954.766
700.5446, 1956.781
701.0267, 1949.399
701.5089, 1939.547
701.9910, 1936.718
702.4731, 1939.596
702.9552, 1942.919
703.4373, 1945.507
703.9194, 1946.473
704.4016, 1946.348
704.8837, 1945.262
705.3658, 1937.799
705.8479, 1914.841
706.3300, 1895.365
706.8121, 1888.940
707.2943, 1897.042
707.7764, 1908.038
708.2585, 1923.144
708.7406, 1936.817
709.2227, 1944.374
709.7048, 1946.132
710.1870, 1941.279
710.6691, 1928.332
711.1512, 1916.084
711.6333, 1912.891
712.1154, 1914.652
712.5975, 1915.979
713.0797, 1914.841
713.5618, 1913.916
714.0439, 1914.464
714.5260, 1915.533
715.0081, 1915.513
715.4902, 1913.896
715.9724, 1911.612
716.4545, 1906.836
716.9366, 1902.860
717.4187, 1912.196
717.9008, 1934.920
718.3829, 1949.996
718.8651, 1941.353
719.3472, 1925.391
719.8293, 1933.630
720.3114, 1960.379
720.7935, 1980.778
721.2756, 1976.710
721.7578, 1965.167
722.2399, 1955.457
722.7220, 1948.115
723.2041, 1942.192
723.6862, 1934.288
724.1683, 1931.116
724.6505, 1937.780
725.1326, 1956.216
725.6147, 1965.869
726.0968, 1965.245
726.5789, 1960.697
727.0610, 1955.821
727.5432, 1951.446
728.0253, 1951.764
728.5074, 1957.784
728.9895, 1963.296
729.4716, 1964.379
729.9537, 1961.081
730.4359, 1952.081
730.9180, 1929.355
731.4001, 1916.519
731.8822, 1927.333
732.3643, 1948.528
732.8464, 1963.218
733.3285, 1971.532
733.8106, 1972.087
734.2927, 1961.677
734.7748, 1946.922
735.2570, 1940.453
735.7391, 1941.779
736.2212, 1943.807
736.7033, 1943.295
737.1854, 1943.656
737.6675, 1953.666
738.1497, 1968.581
738.6318, 1975.913
739.1139, 1961.764
739.5960, 1946.777
740.0781, 1940.828
740.5602, 1943.002
741.0424, 1945.517
741.5245, 1947.528
742.0066, 1950.448
742.4887, 1956.095
742.9708, 1963.547
743.4529, 1961.988
743.9351, 1950.057
744.4172, 1941.786
744.8993, 1951.369
745.3814, 1969.749
745.8635, 1976.256
746.3456, 1970.820
746.8278, 1965.249
747.3099, 1966.820
747.7920, 1971.683
748.2741, 1977.826
748.7562, 1985.937
749.2383, 1990.800
749.7205, 1992.763
750.2026, 1990.580
750.6847, 1983.588
751.1668, 1971.912
751.6489, 1951.873
752.1310, 1919.193
752.6132, 1892.072
753.0953, 1896.092
753.5774, 1923.064
754.0595, 1947.282
754.5416, 1965.177
755.0237, 1977.094
755.5059, 1982.161
755.9880, 1981.964
756.4701, 1978.340
756.9522, 1964.265
757.4343, 1957.007
757.9164, 1963.857
758.3986, 1976.741
758.8807, 1985.453
759.3628, 1988.663
759.8449, 1993.108
760.3270, 2002.260
760.8091, 2009.691
761.2913, 1998.701
761.7734, 1973.635
762.2555, 1954.893
762.7376, 1950.688
763.2197, 1954.996
763.7018, 1968.123
764.1840, 1985.191
764.6661, 1994.909
765.1482, 1983.419
765.6303, 1974.384
766.1124, 1977.378
766.5945, 1988.607
767.0767, 1994.337
767.5588, 1992.767
768.0409, 1990.390
768.5230, 1988.877
769.0051, 1988.471
769.4872, 1991.908
769.9694, 1998.469
770.4515, 2001.430
770.9336, 1990.297
771.4157, 1977.932
771.8978, 1980.333
772.3799, 1995.895
772.8621, 2006.970
773.3442, 2004.006
773.8263, 1998.136
774.3084, 1994.109
774.7905, 1992.057
775.2726, 1990.715
775.7548, 1990.251
776.2369, 1990.255
776.7190, 1991.381
777.2011, 1993.077
777.6832, 1990.179
778.1653, 1982.707
778.6475, 1977.944
779.1296, 1983.375
779.6117, 1993.453
780.0938, 2002.579
780.5759, 2009.800
781.0580, 2016.985
781.5402, 2030.830
782.0223, 2039.748
782.5044, 2034.642
782.9865, 2009.478
783.4686, 1993.748
783.9507, 1988.304
784.4329, 1990.224
784.9150, 2002.192
785.3971, 2020.427
785.8792, 2023.758
786.3613, 2008.578
786.8434, 1992.938
787.3256, 1991.957
787.8077, 2000.119
788.2898, 2013.026
788.7719, 2035.364
789.2540, 2048.055
789.7361, 2038.175
790.2183, 2021.604
790.7004, 2012.038
791.1825, 2010.734
791.6646, 2011.942
792.1467, 2015.394
792.6288, 2020.922
793.1110, 2030.609
793.5930, 2042.466
794.0751, 2049.749
794.5573, 2050.664
795.0394, 2047.370
795.5215, 2035.511
796.0036, 2022.924
796.4857, 2019.651
796.9678, 2044.158
797.4500, 2056.854
797.9321, 2045.885
798.4142, 2026.194
798.8963, 2017.715
799.3784, 2022.272
799.8605, 2029.275
800.3427, 2038.891
800.8248, 2046.067
801.3069, 2038.299
801.7890, 2021.509
802.2711, 2013.290
802.7532, 2024.233
803.2354, 2036.888
803.7175, 2039.729
804.1996, 2037.071
804.6817, 2036.140
805.1638, 2040.937
805.6459, 2044.132
806.1281, 2044.813
806.6102, 2043.654
807.0923, 2041.833
807.5744, 2039.340
808.0565, 2036.148
808.5386, 2031.245
809.0208, 2027.518
809.5029, 2031.260
809.9850, 2039.701
810.4671, 2046.018
810.9492, 2043.617
811.4313, 2042.516
811.9135, 2050.021
812.3956, 2061.501
812.8777, 2065.330
813.3598, 2054.773
813.8419, 2049.296
814.3240, 2054.453
814.8062, 2065.082
815.2883, 2067.701
815.7704, 2063.201
816.2525, 2061.755
816.7346, 2069.546
817.2167, 2078.949
817.6989, 2082.059
818.1810, 2079.964
818.6631, 2075.339
819.1452, 2066.200
819.6273, 2057.983
820.1094, 2052.900
820.5916, 2049.926
821.0737, 2045.079
821.5558, 2034.653
822.0379, 2037.726
822.5200, 2066.661
823.0021, 2103.630
823.4843, 2105.073
823.9664, 2079.032
824.4485, 2058.363
824.9306, 2064.818
825.4127, 2075.417
825.8948, 2070.512
826.3770, 2057.060
826.8591, 2052.546
827.3412, 2072.944
827.8233, 2087.443
828.3054, 2088.554
828.7875, 2081.108
829.2697, 2078.689
829.7518, 2081.535
830.2339, 2085.573
830.7160, 2090.630
831.1981, 2094.694
831.6802, 2095.543
832.1624, 2092.939
832.6445, 2086.148
833.1266, 2064.838
833.6087, 2049.976
834.0908, 2055.830
834.5729, 2074.893
835.0551, 2084.108
835.5372, 2080.042
836.0193, 2073.407
836.5014, 2065.256
836.9835, 2057.448
837.4656, 2054.687
837.9478, 2056.631
838.4299, 2061.446
838.9120, 2071.527
839.3941, 2080.419
839.8762, 2082.178
840.3583, 2078.402
840.8405, 2072.597
841.3226, 2062.929
841.8047, 2054.862
842.2868, 2049.107
842.7689, 2045.586
843.2510, 2045.427
843.7332, 2049.330
844.2153, 2048.647
844.6974, 2037.396
845.1795, 2026.393
845.6616, 2039.634
846.1437, 2066.987
846.6259, 2083.920
847.1080, 2071.247
847.5901, 2056.080
848.0722, 2046.928
848.5543, 2043.729
849.0364, 2046.568
849.5186, 2060.505
850.0007, 2068.745
850.4828, 2068.849
850.9649, 2061.956
851.4470, 2044.380
851.9291, 2019.783
852.4113, 2008.576
852.8934, 2022.554
853.3755, 2039.596
853.8576, 2036.479
854.3397, 2024.745
854.8218, 2022.143
855.3040, 2047.897
855.7860, 2063.362
856.2681, 2060.278
856.7502, 2048.731
857.2324, 2042.823
857.7145, 2042.879
858.1966, 2043.367
858.6787, 2043.418
859.1608, 2043.167
859.6429, 2040.659
860.1251, 2038.465
860.6072, 2041.892
861.0893, 2056.987
861.5714, 2068.213
862.0535, 2067.481
862.5356, 2061.000
863.0178, 2056.003
863.4999, 2052.563
863.9820, 2050.824
864.4641, 2051.356
864.9462, 2052.251
865.4283, 2050.158
865.9105, 2046.548
866.3926, 2047.027
866.8747, 2053.801
867.3568, 2057.719
867.8389, 2047.563
868.3210, 2034.093
868.8032, 2027.572
869.2853, 2034.106
869.7674, 2037.899
870.2495, 2037.696
870.7316, 2036.618
871.2137, 2038.326
871.6959, 2042.339
872.1780, 2040.832
872.6601, 2032.918
873.1422, 2026.221
873.6243, 2027.704
874.1064, 2033.650
874.5886, 2041.992
875.0707, 2053.686
875.5528, 2057.677
876.0349, 2044.353
876.5170, 2029.069
876.9991, 2018.254
877.4813, 2011.785
877.9634, 2014.062
878.4455, 2026.096
878.9276, 2037.893
879.4097, 2040.764
879.8918, 2039.039
880.3740, 2038.706
880.8561, 2040.098
881.3382, 2042.838
881.8203, 2047.640
882.3024, 2052.971
882.7845, 2057.493
883.2667, 2061.403
883.7488, 2070.337
884.2309, 2087.632
884.7130, 2096.417
885.1951, 2082.302
885.6772, 2056.897
886.1594, 2049.573
886.6415, 2057.499
887.1236, 2067.305
887.6057, 2071.885
888.0878, 2076.386
888.5699, 2087.714
889.0521, 2102.112
889.5342, 2102.351
890.0163, 2078.981
890.4984, 2061.479
890.9805, 2057.692
891.4626, 2063.480
891.9448, 2072.659
892.4269, 2083.483
892.9090, 2087.236
893.3911, 2074.042
893.8732, 2061.292
894.3553, 2061.456
894.8375, 2071.343
895.3196, 2085.411
895.8017, 2114.211
896.2838, 2129.302
896.7659, 2123.773
897.2480, 2108.885
897.7302, 2102.912
898.2123, 2104.814
898.6944, 2102.046
899.1765, 2090.840
899.6586, 2079.842
900.1407, 2079.618
900.6229, 2083.936
901.1050, 2084.625
901.5871, 2076.600
902.0692, 2072.099
902.5513, 2072.854
903.0334, 2076.905
903.5156, 2084.366
903.9977, 2095.606
904.4798, 2099.839
904.9619, 2096.281
905.4440, 2087.992
905.9261, 2071.483
906.4083, 2055.252
906.8904, 2051.112
907.3725, 2061.366
907.8546, 2071.277
908.3367, 2075.660
908.8188, 2079.320
909.3010, 2085.041
909.7831, 2092.792
910.2652, 2096.145
910.7473, 2094.799
911.2294, 2092.910
911.7115, 2095.795
912.1937, 2098.308
912.6758, 2088.729
913.1579, 2070.274
913.6400, 2059.149
914.1221, 2068.600
914.6042, 2079.501
915.0864, 2086.198
915.5685, 2088.823
916.0506, 2086.008
916.5327, 2076.293
917.0148, 2072.862
917.4969, 2084.129
917.9790, 2098.112
918.4611, 2090.392
918.9432, 2070.602
919.4254, 2060.884
919.9075, 2081.961
920.3896, 2100.535
920.8717, 2105.012
921.3538, 2101.286
921.8359, 2095.458
922.3181, 2084.998
922.8002, 2086.013
923.2823, 2103.269
923.7644, 2123.235
924.2465, 2124.149
924.7286, 2115.846
925.2108, 2119.125
925.6929, 2142.579
926.1750, 2158.203
926.6571, 2148.217
927.1392, 2129.489
927.6213, 2113.945
928.1035, 2101.049
928.5856, 2097.399
929.0677, 2104.577
929.5498, 2114.113
930.0319, 2121.523
930.5140, 2125.935
930.9962, 2123.967
931.4783, 2116.137
931.9604, 2110.020
932.4425, 2110.856
932.9246, 2112.801
933.4067, 2112.219
933.8889, 2109.804
934.3710, 2111.800
934.8531, 2119.888
935.3352, 2123.657
935.8173, 2116.927
936.2994, 2105.268
936.7816, 2095.690
937.2637, 2089.758
937.7458, 2092.160
938.2279, 2117.210
938.7100, 2136.917
939.1921, 2135.802
939.6743, 2124.659
940.1564, 2121.921
940.6385, 2130.633
941.1206, 2133.360
941.6027, 2126.734
942.0848, 2116.340
942.5670, 2107.004
943.0491, 2099.941
943.5312, 2097.026
944.0133, 2098.650
944.4954, 2104.720
944.9775, 2121.938
945.4597, 2138.350
945.9418, 2144.345
946.4239, 2137.917
946.9060, 2134.078
947.3881, 2133.203
947.8702, 2132.393
948.3524, 2125.907
948.8345, 2119.716
949.3166, 2129.418
949.7987, 2152.397
950.2808, 2162.211
950.7629, 2130.437
951.2451, 2101.139
951.7272, 2091.567
952.2093, 2098.322
952.6914, 2109.557
953.1735, 2126.223
953.6556, 2135.850
954.1378, 2130.772
954.6199, 2120.731
955.1020, 2119.229
955.5841, 2122.827
956.0662, 2124.705
956.5483, 2115.866
957.0305, 2114.048
957.5126, 2127.709
957.9947, 2145.668
958.4768, 2155.850
958.9589, 2158.253
959.4410, 2153.670
959.9232, 2141.093
960.4053, 2128.835
960.8874, 2124.343
961.3695, 2125.073
961.8516, 2129.232
962.3337, 2137.267
962.8159, 2142.543
963.2980, 2144.534
963.7801, 2142.390
964.2622, 2133.545
964.7443, 2119.263
965.2264, 2113.819
965.7086, 2116.825
966.1907, 2120.387
966.6728, 2120.005
967.1549, 2117.989
967.6370, 2114.628
968.1191, 2111.226
968.6013, 2111.993
969.0834, 2121.212
969.5655, 2129.203
970.0476, 2134.356
970.5297, 2137.885
971.0118, 2143.664
971.4940, 2150.408
971.9761, 2149.850
972.4582, 2137.004
972.9403, 2127.233
973.4224, 2134.062
973.9045, 2148.668
974.3867, 2162.879
974.8688, 2178.948
975.3509, 2184.635
975.8330, 2177.316
976.3151, 2166.077
976.7972, 2157.046
977.2794, 2149.872
977.7615, 2141.756
978.2436, 2133.229
978.7257, 2129.725
979.2078, 2139.863
979.6899, 2150.532
980.1720, 2152.705
980.6541, 2148.847
981.1362, 2152.260
981.6183, 2165.061
982.1005, 2176.333
982.5826, 2184.783
983.0647, 2186.734
983.5468, 2167.380
984.0289, 2137.879
984.5110, 2123.010
984.9932, 2138.056
985.4753, 2154.781
985.9574, 2169.785
986.4395, 2179.035
986.9216, 2176.216
987.4037, 2159.181
987.8859, 2151.077
988.3680, 2153.202
988.8501, 2160.191
989.3322, 2174.310
989.8143, 2186.443
990.2964, 2181.838
990.7786, 2160.523
991.2607, 2147.697
991.7428, 2157.069
992.2249, 2165.063
992.7070, 2163.804
993.1891, 2156.148
993.6713, 2151.348
994.1534, 2149.276
994.6355, 2149.286
995.1176, 2151.646
995.5997, 2155.210
996.0818, 2161.833
996.5640, 2168.141
997.0461, 2168.318
997.5282, 2156.763
998.0103, 2150.104
998.4924, 2150.236
998.9745, 2152.131
999.4567, 2147.023
999.9388, 2139.844
1000.421, 2147.948
1000.903, 2172.564
1001.385, 2192.273
1001.867, 2196.588
1002.349, 2190.341
1002.831, 2169.578
1003.314, 2138.163
1003.796, 2127.035
1004.278, 2138.626
1004.760, 2152.189
1005.242, 2160.895
1005.724, 2165.319
1006.206, 2162.636
1006.688, 2157.007
1007.171, 2156.936
1007.653, 2174.431
1008.135, 2184.837
1008.617, 2182.159
1009.099, 2174.794
1009.581, 2170.684
1010.063, 2169.829
1010.545, 2173.533
1011.027, 2181.989
1011.510, 2191.180
1011.992, 2201.473
1012.474, 2208.196
1012.956, 2204.200
1013.438, 2189.148
1013.920, 2183.714
1014.402, 2191.996
1014.884, 2201.686
1015.367, 2209.731
1015.849, 2215.140
1016.331, 2215.498
1016.813, 2211.322
1017.295, 2203.677
1017.777, 2186.974
1018.259, 2176.228
1018.741, 2183.734
1019.223, 2196.752
1019.706, 2201.242
1020.188, 2195.853
1020.670, 2188.242
1021.152, 2177.968
1021.634, 2171.233
1022.116, 2177.298
1022.598, 2187.987
1023.080, 2191.618
1023.563, 2188.094
1024.045, 2190.589
1024.527, 2211.939
1025.009, 2225.300
1025.491, 2219.286
1025.973, 2202.550
1026.455, 2201.972
1026.937, 2214.178
1027.419, 2220.635
1027.901, 2211.754
1028.384, 2202.278
1028.866, 2202.686
1029.348, 2207.781
1029.830, 2212.024
1030.312, 2216.734
1030.794, 2215.142
1031.276, 2206.229
1031.758, 2195.486
1032.241, 2182.797
1032.723, 2173.757
1033.205, 2184.176
1033.687, 2210.532
1034.169, 2226.201
1034.651, 2199.783
1035.133, 2187.428
1035.615, 2214.125
1036.098, 2259.354
1036.580, 2270.462
1037.062, 2250.225
1037.544, 2229.893
1038.026, 2216.013
1038.508, 2208.727
1038.990, 2210.198
1039.472, 2216.966
1039.954, 2226.981
1040.437, 2243.880
1040.919, 2246.428
1041.401, 2228.961
1041.883, 2214.532
1042.365, 2225.373
1042.847, 2247.984
1043.329, 2247.305
1043.811, 2228.866
1044.293, 2214.608
1044.776, 2220.959
1045.258, 2224.470
1045.740, 2212.966
1046.222, 2198.213
1046.704, 2202.848
1047.186, 2226.684
1047.668, 2239.922
1048.150, 2237.125
1048.633, 2230.622
1049.115, 2230.197
1049.597, 2232.467
1050.079, 2235.161
1050.561, 2238.368
1051.043, 2236.450
1051.525, 2225.852
1052.007, 2220.060
1052.490, 2228.318
1052.972, 2242.657
1053.454, 2242.552
1053.936, 2233.230
1054.418, 2229.284
1054.900, 2243.536
1055.382, 2254.884
1055.864, 2254.620
1056.346, 2251.292
1056.828, 2255.136
1057.311, 2266.274
1057.793, 2264.660
1058.275, 2248.536
1058.757, 2236.937
1059.239, 2253.048
1059.721, 2273.433
1060.203, 2277.717
1060.685, 2266.406
1061.168, 2257.224
1061.650, 2250.818
1062.132, 2247.406
1062.614, 2247.975
1063.096, 2249.943
1063.578, 2248.126
1064.060, 2244.644
1064.542, 2244.276
1065.025, 2249.948
1065.507, 2253.395
1065.989, 2248.858
1066.471, 2244.565
1066.953, 2246.448
1067.435, 2253.830
1067.917, 2255.324
1068.399, 2251.263
1068.881, 2245.785
1069.364, 2237.490
1069.846, 2232.361
1070.328, 2240.404
1070.810, 2253.432
1071.292, 2250.544
1071.774, 2222.438
1072.256, 2210.662
1072.738, 2222.782
1073.220, 2241.050
1073.703, 2243.741
1074.185, 2239.646
1074.667, 2244.255
1075.149, 2259.614
1075.631, 2264.713
1076.113, 2240.189
1076.595, 2224.443
1077.077, 2234.062
1077.559, 2258.817
1078.042, 2268.775
1078.524, 2266.363
1079.006, 2261.337
1079.488, 2255.880
1079.970, 2251.319
1080.452, 2249.832
1080.934, 2248.564
1081.416, 2243.041
1081.899, 2230.754
1082.381, 2234.255
1082.863, 2254.976
1083.345, 2272.824
1083.827, 2268.384
1084.309, 2257.836
1084.791, 2257.918
1085.273, 2266.248
1085.755, 2273.032
1086.238, 2275.844
1086.720, 2279.260
1087.202, 2284.547
1087.684, 2289.113
1088.166, 2290.331
1088.648, 2288.006
1089.130, 2279.630
1089.612, 2264.401
1090.094, 2254.197
1090.577, 2258.010
1091.059, 2263.933
1091.541, 2266.989
1092.023, 2267.961
1092.505, 2270.840
1092.987, 2275.170
1093.469, 2277.490
1093.951, 2276.745
1094.434, 2273.082
1094.916, 2260.443
1095.398, 2248.442
1095.880, 2249.230
1096.362, 2266.414
1096.844, 2280.706
1097.326, 2292.403
1097.808, 2299.454
1098.291, 2295.161
1098.773, 2289.022
1099.255, 2297.600
1099.737, 2315.114
1100.219, 2322.334
1100.701, 2308.217
1101.183, 2294.565
1101.665, 2282.688
1102.147, 2274.012
1102.630, 2272.979
1103.112, 2276.220
1103.594, 2274.583
1104.076, 2266.893
1104.558, 2260.802
1105.040, 2258.068
1105.522, 2260.070
1106.004, 2269.082
1106.486, 2282.269
1106.969, 2289.579
1107.451, 2291.330
1107.933, 2289.339
1108.415, 2282.021
1108.897, 2276.987
1109.379, 2285.395
1109.861, 2295.146
1110.343, 2292.666
1110.826, 2275.799
1111.308, 2265.046
1111.790, 2260.427
1112.272, 2262.762
1112.754, 2280.327
1113.236, 2298.998
1113.718, 2300.627
1114.200, 2290.938
1114.682, 2282.948
1115.165, 2276.929
1115.647, 2277.844
1116.129, 2289.049
1116.611, 2299.082
1117.093, 2290.662
1117.575, 2274.276
1118.057, 2272.290
1118.539, 2284.883
1119.021, 2296.868
1119.504, 2305.911
1119.986, 2308.954
1120.468, 2304.106
1120.950, 2294.204
1121.432, 2282.904
1121.914, 2271.591
1122.396, 2266.570
1122.878, 2270.339
1123.361, 2274.031
1123.843, 2268.768
1124.325, 2265.441
1124.807, 2272.032
1125.289, 2287.209
1125.771, 2299.567
1126.253, 2309.031
1126.735, 2313.639
1127.218, 2309.629
1127.700, 2305.194
1128.182, 2307.620
1128.664, 2313.457
1129.146, 2318.075
1129.628, 2320.589
1130.110, 2324.502
1130.592, 2330.504
1131.074, 2333.022
1131.557, 2323.840
1132.039, 2311.705
1132.521, 2306.951
1133.003, 2308.809
1133.485, 2315.223
1133.967, 2334.282
1134.449, 2340.163
1134.931, 2326.842
1135.413, 2309.157
1135.896, 2303.750
1136.378, 2307.338
1136.860, 2315.204
1137.342, 2326.586
1137.824, 2337.307
1138.306, 2348.838
1138.788, 2355.602
1139.270, 2356.416
1139.752, 2351.271
1140.235, 2335.524
1140.717, 2313.721
1141.199, 2301.862
1141.681, 2305.165
1142.163, 2310.627
1142.645, 2310.669
1143.127, 2312.588
1143.609, 2323.508
1144.092, 2340.247
1144.574, 2337.763
1145.056, 2318.247
1145.538, 2299.978
1146.020, 2288.008
1146.502, 2284.139
1146.984, 2293.317
1147.466, 2309.493
1147.948, 2327.521
1148.431, 2349.075
1148.913, 2358.210
1149.395, 2354.718
1149.877, 2346.256
1150.359, 2332.622
1150.841, 2321.051
1151.323, 2316.782
1151.805, 2319.251
1152.287, 2327.543
1152.770, 2344.555
1153.252, 2355.782
1153.734, 2360.030
1154.216, 2358.973
1154.698, 2348.805
1155.180, 2338.023
1155.662, 2341.351
1156.144, 2356.332
1156.627, 2355.693
1157.109, 2324.026
1157.591, 2312.287
1158.073, 2336.763
1158.555, 2369.558
1159.037, 2369.811
1159.519, 2352.763
1160.001, 2343.336
1160.484, 2345.814
1160.966, 2346.505
1161.448, 2341.129
1161.930, 2336.171
1162.412, 2332.293
1162.894, 2331.986
1163.376, 2346.637
1163.858, 2368.775
1164.340, 2378.630
1164.823, 2367.195
1165.305, 2354.914
1165.787, 2344.748
1166.269, 2338.530
1166.751, 2338.311
1167.233, 2342.874
1167.715, 2349.119
1168.197, 2355.837
1168.679, 2357.563
1169.162, 2345.569
1169.644, 2337.472
1170.126, 2344.618
1170.608, 2353.461
1171.090, 2350.353
1171.572, 2336.715
1172.054, 2335.521
1172.536, 2346.026
1173.019, 2357.111
1173.501, 2362.192
1173.983, 2366.346
1174.465, 2375.620
1174.947, 2383.388
1175.429, 2375.337
1175.911, 2351.747
1176.393, 2353.149
1176.875, 2383.227
1177.358, 2408.942
1177.840, 2400.816
1178.322, 2384.833
1178.804, 2375.994
1179.286, 2373.318
1179.768, 2374.238
1180.250, 2379.008
1180.732, 2379.535
1181.214, 2373.227
1181.697, 2370.441
1182.179, 2390.648
1182.661, 2410.090
1183.143, 2400.965
1183.625, 2367.890
1184.107, 2360.075
1184.589, 2380.429
1185.071, 2394.550
1185.554, 2390.687
1186.036, 2382.181
1186.518, 2383.556
1187.000, 2387.532
1187.482, 2384.537
1187.964, 2372.893
1188.446, 2369.509
1188.928, 2375.841
1189.411, 2380.299
1189.893, 2375.878
1190.375, 2370.355
1190.857, 2374.815
1191.339, 2383.434
1191.821, 2387.010
1192.303, 2380.509
1192.785, 2384.471
1193.267, 2401.444
1193.750, 2415.913
1194.232, 2417.852
1194.714, 2411.886
1195.196, 2399.466
1195.678, 2384.664
1196.160, 2376.103
1196.642, 2375.871
1197.124, 2381.082
1197.606, 2393.035
1198.089, 2404.848
1198.571, 2410.648
1199.053, 2412.842
1199.535, 2416.785
1200.017, 2420.085
1200.499, 2413.642
1200.981, 2388.562
1201.463, 2369.614
1201.945, 2358.340
1202.428, 2356.902
1202.910, 2375.691
1203.392, 2401.149
1203.874, 2413.111
1204.356, 2412.353
1204.838, 2413.002
1205.320, 2419.950
1205.802, 2422.090
1206.285, 2416.223
1206.767, 2408.821
1207.249, 2410.059
1207.731, 2414.339
1208.213, 2412.501
1208.695, 2403.720
1209.177, 2396.270
1209.659, 2390.845
1210.141, 2387.829
1210.624, 2387.799
1211.106, 2389.215
1211.588, 2388.271
1212.070, 2387.812
1212.552, 2392.684
1213.034, 2403.949
1213.516, 2418.266
1213.998, 2440.083
1214.480, 2451.619
1214.963, 2442.504
1215.445, 2426.920
1215.927, 2433.226
1216.409, 2449.447
1216.891, 2454.220
1217.373, 2439.788
1217.855, 2428.855
1218.337, 2424.092
1218.820, 2420.430
1219.302, 2414.222
1219.784, 2409.179
1220.266, 2414.772
1220.748, 2426.057
1221.230, 2433.763
1221.712, 2434.400
1222.194, 2433.720
1222.677, 2431.401
1223.159, 2429.350
1223.641, 2426.089
1224.123, 2425.998
1224.605, 2444.809
1225.087, 2471.566
1225.569, 2482.781
1226.051, 2457.174
1226.533, 2440.990
1227.016, 2436.060
1227.498, 2436.988
1227.980, 2441.299
1228.462, 2447.845
1228.944, 2459.937
1229.426, 2472.317
1229.908, 2470.853
1230.390, 2434.474
1230.872, 2419.583
1231.355, 2433.212
1231.837, 2451.705
1232.319, 2455.466
1232.801, 2450.746
1233.283, 2442.842
1233.765, 2434.076
1234.247, 2431.407
1234.729, 2435.840
1235.212, 2448.491
1235.694, 2472.843
1236.176, 2491.577
1236.658, 2480.027
1237.140, 2457.983
1237.622, 2448.782
1238.104, 2452.279
1238.586, 2461.568
1239.068, 2478.912
1239.551, 2491.369
1240.033, 2497.420
1240.515, 2498.092
1240.997, 2493.987
1241.479, 2485.588
1241.961, 2467.729
1242.443, 2444.561
1242.925, 2440.909
1243.407, 2462.477
1243.890, 2482.354
1244.372, 2496.635
1244.854, 2503.732
1245.336, 2495.898
1245.818, 2484.190
1246.300, 2479.641
1246.782, 2482.267
1247.264, 2483.480
1247.747, 2482.669
1248.229, 2485.042
1248.711, 2492.804
1249.193, 2498.650
1249.675, 2492.351
1250.157, 2483.512
1250.639, 2482.570
1251.121, 2488.124
1251.604, 2487.422
1252.086, 2480.171
1252.568, 2473.885
1253.050, 2470.308
1253.532, 2469.430
1254.014, 2475.009
1254.496, 2480.200
1254.978, 2476.641
1255.460, 2466.947
1255.943, 2468.728
1256.425, 2481.291
1256.907, 2489.643
1257.389, 2488.631
1257.871, 2485.988
1258.353, 2486.286
1258.835, 2488.010
1259.317, 2492.272
1259.799, 2496.944
1260.281, 2483.772
1260.764, 2457.043
1261.246, 2448.596
1261.728, 2477.611
1262.210, 2498.085
1262.692, 2471.569
1263.174, 2442.800
1263.656, 2437.722
1264.138, 2452.525
1264.621, 2480.462
1265.103, 2514.582
1265.585, 2524.095
1266.067, 2485.714
1266.549, 2456.982
1267.031, 2463.562
1267.513, 2479.089
1267.995, 2492.641
1268.478, 2503.612
1268.960, 2510.692
1269.442, 2513.844
1269.924, 2512.118
1270.406, 2498.973
1270.888, 2496.777
1271.370, 2515.339
1271.852, 2530.494
1272.334, 2523.886
1272.817, 2506.812
1273.299, 2506.687
1273.781, 2516.439
1274.263, 2520.417
1274.745, 2509.515
1275.227, 2503.539
1275.709, 2504.156
1276.191, 2506.955
1276.673, 2509.832
1277.156, 2512.845
1277.638, 2516.215
1278.120, 2519.817
1278.602, 2524.025
1279.084, 2532.049
1279.566, 2528.841
1280.048, 2511.658
1280.530, 2500.474
1281.013, 2514.958
1281.495, 2534.312
1281.977, 2536.308
1282.459, 2528.540
1282.941, 2522.603
1283.423, 2518.707
1283.905, 2519.618
1284.387, 2525.442
1284.870, 2530.465
1285.352, 2532.021
1285.834, 2530.408
1286.316, 2520.890
1286.798, 2511.470
1287.280, 2512.816
1287.762, 2525.448
1288.244, 2536.253
1288.726, 2544.748
1289.208, 2547.874
1289.691, 2539.338
1290.173, 2530.561
##END=



