##NAMES=Awaruite
##RRUFFID=R061020
##IDEAL CHEMISTRY=Ni_3_Fe
##LOCALITY=Oregon, USA
##OWNER=RRUFF
##SOURCE=Michael Scott
##DESCRIPTION=Silver metallic massive pebbles with brownish-red oxidized coating, variety josephinite
##STATUS=The identification of this mineral has been confirmed by X-ray diffraction and chemical analysis
##URL=rruff.info/R061020
##MEASURED CHEMISTRY=light phase: (Ni_2.60_Fe_0.40_)_Σ=3_(Fe_0.93_Co_0.07_)_Σ=1_ ; the rim (dark phase) is a Ni-Fe-silicate
170.9127, 9315.683
171.3948, 9363.637
171.8769, 9384.653
172.3590, 9380.761
172.8412, 9374.377
173.3233, 9381.565
173.8054, 9397.839
174.2875, 9415.490
174.7696, 9433.911
175.2517, 9451.085
175.7339, 9463.300
176.2160, 9470.311
176.6981, 9477.329
177.1802, 9487.451
177.6623, 9501.270
178.1444, 9520.109
178.6266, 9552.874
179.1087, 9589.668
179.5908, 9608.948
180.0729, 9606.759
180.5550, 9600.489
181.0371, 9612.979
181.5193, 9640.919
182.0014, 9667.055
182.4835, 9677.164
182.9656, 9677.979
183.4477, 9690.169
183.9298, 9719.386
184.4120, 9752.894
184.8941, 9768.074
185.3762, 9766.337
185.8583, 9765.750
186.3404, 9782.619
186.8225, 9812.340
187.3047, 9833.345
187.7868, 9838.832
188.2689, 9837.282
188.7510, 9846.660
189.2331, 9867.124
189.7152, 9892.579
190.1974, 9921.980
190.6795, 9954.115
191.1616, 9977.344
191.6437, 9986.133
192.1258, 9985.120
192.6080, 9989.798
193.0901, 10000.95
193.5722, 10013.37
194.0543, 10021.57
194.5364, 10025.52
195.0185, 10030.20
195.5007, 10036.70
195.9828, 10045.00
196.4649, 10052.92
196.9470, 10058.57
197.4291, 10070.04
197.9112, 10103.36
198.3934, 10161.68
198.8755, 10209.19
199.3576, 10232.43
199.8397, 10232.04
200.3218, 10224.43
200.8039, 10204.20
201.2861, 10187.16
201.7682, 10203.86
202.2503, 10263.01
202.7324, 10311.38
203.2145, 10322.63
203.6966, 10292.17
204.1788, 10273.52
204.6609, 10267.66
205.1430, 10272.70
205.6251, 10289.66
206.1072, 10324.33
206.5893, 10351.38
207.0715, 10353.17
207.5536, 10321.30
208.0357, 10311.40
208.5178, 10331.00
208.9999, 10368.88
209.4820, 10399.14
209.9642, 10420.99
210.4463, 10437.23
210.9284, 10447.47
211.4105, 10448.60
211.8926, 10455.68
212.3747, 10470.92
212.8569, 10492.27
213.3390, 10514.69
213.8211, 10540.59
214.3032, 10562.26
214.7853, 10574.06
215.2674, 10572.92
215.7496, 10570.37
216.2317, 10564.16
216.7138, 10557.05
217.1959, 10563.77
217.6780, 10588.17
218.1601, 10620.30
218.6423, 10657.58
219.1244, 10713.10
219.6065, 10738.12
220.0886, 10710.84
220.5707, 10639.46
221.0528, 10619.78
221.5350, 10677.86
222.0171, 10751.78
222.4992, 10790.66
222.9813, 10779.06
223.4634, 10766.04
223.9455, 10757.62
224.4277, 10753.79
224.9098, 10757.53
225.3919, 10772.33
225.8740, 10790.72
226.3561, 10805.39
226.8382, 10812.23
227.3204, 10823.41
227.8025, 10841.75
228.2846, 10867.39
228.7667, 10896.36
229.2488, 10935.71
229.7310, 10970.90
230.2131, 10984.77
230.6952, 10964.76
231.1773, 10946.41
231.6594, 10937.37
232.1415, 10938.54
232.6237, 10942.23
233.1058, 10949.56
233.5879, 10958.51
234.0700, 10965.83
234.5521, 10967.46
235.0342, 10974.85
235.5164, 10993.09
235.9985, 11025.20
236.4806, 11050.64
236.9627, 11070.37
237.4448, 11082.49
237.9269, 11081.80
238.4091, 11054.47
238.8912, 11037.61
239.3733, 11044.59
239.8554, 11082.33
240.3375, 11112.23
240.8196, 11129.94
241.3018, 11142.54
241.7839, 11163.13
242.2660, 11204.01
242.7481, 11231.84
243.2302, 11228.91
243.7123, 11177.32
244.1945, 11165.62
244.6766, 11220.51
245.1587, 11300.07
245.6408, 11329.03
246.1229, 11274.81
246.6050, 11224.40
247.0872, 11210.28
247.5693, 11247.05
248.0514, 11271.43
248.5335, 11276.70
249.0156, 11273.00
249.4977, 11280.90
249.9799, 11307.47
250.4620, 11333.19
250.9441, 11350.24
251.4262, 11354.85
251.9083, 11363.06
252.3904, 11377.30
252.8726, 11393.87
253.3547, 11404.58
253.8368, 11406.86
254.3189, 11408.01
254.8010, 11411.49
255.2831, 11419.65
255.7653, 11422.01
256.2474, 11413.39
256.7295, 11401.63
257.2116, 11405.23
257.6937, 11431.14
258.1758, 11458.72
258.6580, 11479.82
259.1401, 11494.40
259.6222, 11502.53
260.1043, 11501.53
260.5864, 11495.53
261.0685, 11492.72
261.5507, 11491.37
262.0328, 11496.94
262.5149, 11512.96
262.9970, 11542.68
263.4791, 11572.35
263.9612, 11602.99
264.4434, 11633.11
264.9255, 11659.68
265.4076, 11682.45
265.8897, 11702.26
266.3718, 11719.81
266.8539, 11735.17
267.3361, 11747.67
267.8182, 11758.31
268.3003, 11765.14
268.7824, 11761.38
269.2645, 11742.03
269.7466, 11726.41
270.2288, 11723.33
270.7109, 11734.14
271.1930, 11752.50
271.6751, 11784.73
272.1572, 11818.47
272.6393, 11821.07
273.1215, 11782.13
273.6036, 11751.35
274.0857, 11761.01
274.5678, 11817.62
275.0499, 11847.36
275.5320, 11839.43
276.0142, 11814.83
276.4963, 11819.67
276.9784, 11860.29
277.4605, 11897.63
277.9426, 11906.31
278.4247, 11884.93
278.9069, 11886.89
279.3890, 11921.75
279.8711, 11968.39
280.3532, 11983.16
280.8354, 11962.12
281.3175, 11944.98
281.7996, 11955.42
282.2817, 11991.93
282.7638, 12021.75
283.2459, 12044.27
283.7281, 12059.01
284.2102, 12060.54
284.6923, 12048.32
285.1744, 12041.08
285.6565, 12051.18
286.1386, 12076.15
286.6208, 12098.79
287.1029, 12119.72
287.5850, 12135.07
288.0671, 12135.81
288.5492, 12122.78
289.0313, 12111.25
289.5135, 12111.07
289.9956, 12119.10
290.4777, 12117.58
290.9598, 12102.47
291.4419, 12092.49
291.9240, 12120.87
292.4062, 12182.19
292.8883, 12236.09
293.3704, 12261.38
293.8525, 12265.44
294.3346, 12266.86
294.8167, 12265.50
295.2989, 12265.06
295.7810, 12271.09
296.2631, 12282.10
296.7452, 12292.43
297.2273, 12297.76
297.7094, 12301.04
298.1916, 12309.57
298.6737, 12324.08
299.1558, 12336.49
299.6379, 12330.70
300.1200, 12315.47
300.6021, 12313.55
301.0843, 12349.49
301.5664, 12398.27
302.0485, 12423.22
302.5306, 12423.46
303.0127, 12419.93
303.4948, 12435.30
303.9770, 12459.27
304.4591, 12472.76
304.9412, 12451.48
305.4233, 12425.53
305.9054, 12427.97
306.3875, 12458.17
306.8697, 12493.26
307.3518, 12523.69
307.8339, 12547.12
308.3160, 12559.67
308.7981, 12551.54
309.2802, 12538.39
309.7624, 12529.38
310.2445, 12524.68
310.7266, 12526.56
311.2087, 12547.55
311.6908, 12571.66
312.1729, 12581.65
312.6551, 12558.10
313.1372, 12532.22
313.6193, 12514.40
314.1014, 12506.13
314.5835, 12517.10
315.0656, 12578.13
315.5478, 12646.89
316.0299, 12688.17
316.5120, 12669.08
316.9941, 12648.68
317.4762, 12653.10
317.9583, 12675.56
318.4405, 12689.86
318.9226, 12664.28
319.4047, 12642.39
319.8868, 12653.92
320.3689, 12744.08
320.8510, 12811.78
321.3332, 12817.16
321.8153, 12780.16
322.2974, 12760.26
322.7795, 12785.04
323.2616, 12817.07
323.7437, 12839.80
324.2259, 12850.93
324.7080, 12853.80
325.1901, 12838.63
325.6722, 12815.40
326.1543, 12806.68
326.6364, 12821.30
327.1186, 12843.73
327.6007, 12872.25
328.0828, 12920.88
328.5649, 12943.79
329.0470, 12917.92
329.5291, 12872.90
330.0113, 12858.04
330.4934, 12894.83
330.9755, 12933.91
331.4576, 12962.75
331.9397, 12980.47
332.4218, 12989.14
332.9040, 12976.80
333.3861, 12964.49
333.8682, 12981.46
334.3503, 13041.61
334.8324, 13102.32
335.3145, 13155.24
335.7967, 13200.55
336.2788, 13239.37
336.7609, 13280.02
337.2430, 13301.81
337.7251, 13271.18
338.2072, 13170.36
338.6894, 13095.30
339.1715, 13074.02
339.6536, 13097.76
340.1357, 13100.85
340.6178, 13076.94
341.0999, 13053.69
341.5821, 13055.49
342.0642, 13082.65
342.5463, 13119.46
343.0284, 13167.09
343.5105, 13219.41
343.9926, 13257.83
344.4748, 13281.90
344.9569, 13297.77
345.4390, 13312.63
345.9211, 13324.16
346.4032, 13314.71
346.8853, 13272.45
347.3675, 13225.14
347.8496, 13230.87
348.3317, 13282.91
348.8138, 13328.00
349.2959, 13322.17
349.7780, 13286.18
350.2602, 13263.43
350.7423, 13259.57
351.2244, 13267.33
351.7065, 13277.98
352.1887, 13293.46
352.6708, 13319.40
353.1529, 13377.09
353.6350, 13438.24
354.1171, 13466.60
354.5992, 13457.50
355.0814, 13438.84
355.5635, 13426.29
356.0456, 13419.75
356.5277, 13419.04
357.0098, 13431.92
357.4919, 13444.85
357.9741, 13442.92
358.4562, 13426.09
358.9383, 13421.22
359.4204, 13454.82
359.9025, 13502.79
360.3846, 13540.28
360.8668, 13554.93
361.3489, 13562.08
361.8310, 13562.07
362.3131, 13556.88
362.7952, 13560.31
363.2773, 13584.71
363.7595, 13614.06
364.2416, 13638.14
364.7237, 13657.54
365.2058, 13668.80
365.6879, 13664.03
366.1700, 13649.27
366.6522, 13644.21
367.1343, 13667.24
367.6164, 13686.83
368.0985, 13687.53
368.5806, 13642.82
369.0627, 13629.11
369.5449, 13664.92
370.0270, 13726.68
370.5091, 13774.39
370.9912, 13809.55
371.4733, 13828.14
371.9554, 13823.63
372.4376, 13789.23
372.9197, 13771.78
373.4018, 13777.99
373.8839, 13794.03
374.3660, 13802.74
374.8481, 13801.04
375.3303, 13802.01
375.8124, 13809.66
376.2945, 13823.17
376.7766, 13834.62
377.2587, 13843.13
377.7408, 13852.01
378.2230, 13865.09
378.7051, 13882.33
379.1872, 13898.91
379.6693, 13915.16
380.1514, 13928.90
380.6335, 13926.73
381.1157, 13908.03
381.5978, 13902.64
382.0799, 13947.42
382.5620, 14025.30
383.0441, 14072.73
383.5262, 14075.97
384.0084, 14063.69
384.4905, 14075.83
384.9726, 14106.82
385.4547, 14132.63
385.9368, 14138.08
386.4189, 14132.08
386.9011, 14123.21
387.3832, 14110.66
387.8653, 14107.33
388.3474, 14133.97
388.8295, 14175.89
389.3116, 14207.85
389.7938, 14220.06
390.2759, 14217.80
390.7580, 14193.83
391.2401, 14150.12
391.7222, 14122.69
392.2043, 14145.19
392.6865, 14184.56
393.1686, 14211.88
393.6507, 14204.93
394.1328, 14199.44
394.6149, 14210.70
395.0970, 14233.65
395.5792, 14247.72
396.0613, 14234.16
396.5434, 14221.22
397.0255, 14223.23
397.5076, 14251.97
397.9897, 14277.82
398.4719, 14302.18
398.9540, 14322.09
399.4361, 14331.00
399.9182, 14308.31
400.4003, 14299.50
400.8824, 14323.32
401.3646, 14389.60
401.8467, 14434.02
402.3288, 14450.58
402.8109, 14451.69
403.2930, 14448.73
403.7751, 14438.92
404.2573, 14433.39
404.7394, 14434.40
405.2215, 14441.67
405.7036, 14455.53
406.1857, 14478.47
406.6678, 14498.33
407.1500, 14500.95
407.6321, 14486.83
408.1142, 14483.86
408.5963, 14497.18
409.0784, 14521.09
409.5605, 14546.98
410.0427, 14574.58
410.5248, 14601.40
411.0069, 14636.37
411.4890, 14669.04
411.9711, 14666.49
412.4532, 14622.43
412.9354, 14571.43
413.4175, 14538.33
413.8996, 14526.14
414.3817, 14542.98
414.8638, 14634.66
415.3459, 14730.39
415.8281, 14746.78
416.3102, 14689.12
416.7923, 14638.84
417.2744, 14659.62
417.7565, 14708.52
418.2386, 14742.85
418.7208, 14747.27
419.2029, 14740.70
419.6850, 14721.44
420.1671, 14695.84
420.6492, 14683.08
421.1313, 14695.18
421.6135, 14716.99
422.0956, 14743.99
422.5777, 14783.05
423.0598, 14808.98
423.5420, 14805.73
424.0241, 14791.15
424.5062, 14791.13
424.9883, 14812.04
425.4704, 14840.51
425.9525, 14882.44
426.4347, 14939.54
426.9168, 14959.88
427.3989, 14917.75
427.8810, 14871.31
428.3631, 14875.44
428.8452, 14950.38
429.3274, 15001.10
429.8095, 15008.73
430.2916, 14986.69
430.7737, 14969.92
431.2558, 14957.01
431.7379, 14958.26
432.2201, 14989.56
432.7022, 15046.31
433.1843, 15082.45
433.6664, 15092.78
434.1485, 15091.78
434.6306, 15094.94
435.1128, 15102.15
435.5949, 15112.97
436.0770, 15133.14
436.5591, 15154.37
437.0412, 15160.88
437.5233, 15153.33
438.0055, 15142.77
438.4876, 15128.62
438.9697, 15119.23
439.4518, 15127.68
439.9339, 15168.07
440.4160, 15210.38
440.8982, 15234.88
441.3803, 15245.87
441.8624, 15255.97
442.3445, 15276.31
442.8266, 15292.75
443.3087, 15294.80
443.7909, 15275.55
444.2730, 15262.44
444.7551, 15261.42
445.2372, 15269.83
445.7193, 15284.37
446.2014, 15317.45
446.6836, 15342.59
447.1657, 15349.24
447.6478, 15338.52
448.1299, 15347.09
448.6120, 15395.51
449.0941, 15439.27
449.5763, 15444.89
450.0584, 15392.43
450.5405, 15361.40
451.0226, 15358.13
451.5047, 15377.14
451.9868, 15413.73
452.4690, 15473.55
452.9511, 15519.63
453.4332, 15528.09
453.9153, 15504.77
454.3974, 15497.85
454.8795, 15508.53
455.3617, 15527.94
455.8438, 15556.02
456.3259, 15587.05
456.8080, 15598.95
457.2901, 15578.25
457.7722, 15543.10
458.2544, 15507.11
458.7365, 15474.01
459.2186, 15464.61
459.7007, 15514.27
460.1828, 15583.47
460.6649, 15629.71
461.1471, 15643.25
461.6292, 15646.36
462.1113, 15643.30
462.5934, 15639.58
463.0755, 15643.48
463.5576, 15670.37
464.0398, 15693.62
464.5219, 15698.72
465.0040, 15685.22
465.4861, 15680.85
465.9682, 15698.38
466.4503, 15720.77
466.9325, 15736.84
467.4146, 15727.20
467.8967, 15740.78
468.3788, 15795.54
468.8609, 15870.01
469.3430, 15911.57
469.8252, 15912.35
470.3073, 15896.35
470.7894, 15864.23
471.2715, 15814.55
471.7536, 15796.32
472.2357, 15814.95
472.7179, 15849.67
473.2000, 15884.78
473.6821, 15919.53
474.1642, 15938.56
474.6463, 15932.83
475.1284, 15916.02
475.6106, 15908.37
476.0927, 15911.00
476.5748, 15932.72
477.0569, 16000.82
477.5390, 16084.27
478.0211, 16134.65
478.5033, 16144.55
478.9854, 16137.71
479.4675, 16128.34
479.9496, 16115.31
480.4317, 16096.89
480.9138, 16062.25
481.3960, 16031.62
481.8781, 16014.02
482.3602, 16009.04
482.8423, 16012.52
483.3244, 16025.46
483.8065, 16044.81
484.2887, 16070.28
484.7708, 16113.54
485.2529, 16141.67
485.7350, 16143.95
486.2171, 16134.36
486.6992, 16135.92
487.1814, 16157.81
487.6635, 16174.25
488.1456, 16176.06
488.6277, 16164.18
489.1098, 16160.51
489.5919, 16165.34
490.0741, 16177.50
490.5562, 16198.54
491.0383, 16228.53
491.5204, 16256.04
492.0026, 16279.64
492.4847, 16300.92
492.9668, 16323.82
493.4489, 16347.45
493.9310, 16367.31
494.4131, 16376.74
494.8953, 16382.51
495.3774, 16399.93
495.8595, 16429.21
496.3416, 16447.40
496.8237, 16419.68
497.3058, 16379.07
497.7880, 16365.61
498.2701, 16408.38
498.7522, 16452.58
499.2343, 16473.49
499.7164, 16476.26
500.1985, 16473.20
500.6807, 16446.53
501.1628, 16433.62
501.6449, 16457.46
502.1270, 16533.04
502.6091, 16578.90
503.0912, 16577.88
503.5734, 16558.46
504.0555, 16541.05
504.5376, 16515.92
505.0197, 16518.38
505.5018, 16565.94
505.9839, 16637.75
506.4661, 16668.04
506.9482, 16649.29
507.4303, 16626.17
507.9124, 16617.20
508.3945, 16622.28
508.8766, 16645.42
509.3588, 16689.32
509.8409, 16731.88
510.3230, 16743.59
510.8051, 16735.17
511.2872, 16736.88
511.7693, 16760.73
512.2515, 16793.08
512.7336, 16824.11
513.2157, 16852.58
513.6978, 16874.52
514.1799, 16885.54
514.6620, 16890.82
515.1442, 16891.45
515.6263, 16886.02
516.1084, 16887.17
516.5905, 16906.12
517.0726, 16930.38
517.5547, 16947.99
518.0369, 16954.58
518.5190, 16957.54
519.0011, 16951.12
519.4832, 16941.12
519.9653, 16949.63
520.4474, 16989.51
520.9296, 17026.10
521.4117, 17043.69
521.8938, 17040.03
522.3759, 17041.99
522.8580, 17048.52
523.3401, 17063.43
523.8223, 17104.70
524.3044, 17167.96
524.7865, 17188.85
525.2686, 17132.85
525.7507, 17057.99
526.2328, 17082.70
526.7150, 17186.21
527.1971, 17266.60
527.6792, 17233.99
528.1613, 17162.60
528.6434, 17137.74
529.1255, 17167.06
529.6077, 17207.41
530.0898, 17240.51
530.5719, 17268.27
531.0540, 17293.48
531.5361, 17331.73
532.0182, 17349.30
532.5004, 17314.41
532.9825, 17250.58
533.4646, 17225.57
533.9467, 17291.74
534.4288, 17346.16
534.9109, 17352.00
535.3931, 17300.58
535.8752, 17281.77
536.3573, 17304.70
536.8394, 17345.10
537.3215, 17389.50
537.8036, 17440.44
538.2858, 17462.88
538.7679, 17443.53
539.2500, 17408.65
539.7321, 17405.89
540.2142, 17433.12
540.6964, 17471.98
541.1785, 17533.94
541.6606, 17594.34
542.1427, 17600.96
542.6248, 17556.23
543.1069, 17511.24
543.5891, 17498.94
544.0712, 17506.52
544.5533, 17523.84
545.0354, 17559.37
545.5175, 17581.28
545.9996, 17557.77
546.4818, 17515.76
546.9639, 17499.67
547.4460, 17562.79
547.9281, 17606.29
548.4102, 17592.35
548.8923, 17525.54
549.3745, 17490.52
549.8566, 17494.81
550.3387, 17520.10
550.8208, 17566.41
551.3029, 17646.17
551.7850, 17672.40
552.2672, 17627.64
552.7493, 17563.29
553.2314, 17553.51
553.7135, 17594.20
554.1956, 17640.22
554.6777, 17685.58
555.1599, 17720.76
555.6420, 17721.55
556.1241, 17693.31
556.6062, 17664.54
557.0883, 17647.28
557.5704, 17641.97
558.0526, 17652.05
558.5347, 17679.55
559.0168, 17708.95
559.4989, 17745.89
559.9810, 17774.35
560.4631, 17778.34
560.9453, 17717.72
561.4274, 17674.93
561.9095, 17671.01
562.3916, 17694.11
562.8737, 17713.35
563.3558, 17719.56
563.8380, 17737.27
564.3201, 17784.36
564.8022, 17860.71
565.2843, 17889.98
565.7664, 17861.68
566.2485, 17820.88
566.7307, 17807.96
567.2128, 17819.03
567.6949, 17823.25
568.1770, 17816.08
568.6591, 17802.04
569.1412, 17775.64
569.6234, 17746.03
570.1055, 17737.31
570.5876, 17785.76
571.0697, 17840.52
571.5518, 17854.79
572.0339, 17835.22
572.5161, 17822.69
572.9982, 17836.69
573.4803, 17861.85
573.9624, 17891.45
574.4445, 17930.68
574.9266, 17958.34
575.4088, 17969.73
575.8909, 17971.08
576.3730, 17966.11
576.8551, 17946.56
577.3372, 17941.04
577.8193, 17959.36
578.3015, 17991.03
578.7836, 18006.91
579.2657, 18005.78
579.7478, 17997.97
580.2299, 17981.06
580.7120, 17961.15
581.1942, 17960.93
581.6763, 17980.45
582.1584, 18012.23
582.6405, 18068.27
583.1226, 18126.45
583.6047, 18149.63
584.0869, 18119.45
584.5690, 18083.92
585.0511, 18064.64
585.5332, 18060.42
586.0153, 18069.43
586.4974, 18112.07
586.9796, 18145.95
587.4617, 18152.10
587.9438, 18134.78
588.4259, 18132.72
588.9080, 18154.44
589.3901, 18180.61
589.8723, 18205.52
590.3544, 18231.41
590.8365, 18236.34
591.3186, 18213.38
591.8007, 18188.91
592.2828, 18198.46
592.7650, 18236.65
593.2471, 18256.83
593.7292, 18244.02
594.2113, 18222.64
594.6934, 18220.24
595.1755, 18235.91
595.6577, 18266.96
596.1398, 18343.70
596.6219, 18410.85
597.1040, 18413.88
597.5862, 18359.19
598.0683, 18316.11
598.5504, 18318.77
599.0325, 18335.33
599.5146, 18346.20
599.9968, 18339.55
600.4789, 18353.64
600.9610, 18409.71
601.4431, 18469.86
601.9252, 18487.37
602.4073, 18443.45
602.8895, 18426.34
603.3716, 18459.14
603.8537, 18516.85
604.3358, 18539.12
604.8179, 18526.86
605.3000, 18514.58
605.7822, 18526.50
606.2643, 18547.37
606.7464, 18544.68
607.2285, 18520.31
607.7106, 18496.83
608.1927, 18492.07
608.6749, 18494.82
609.1570, 18491.02
609.6391, 18470.71
610.1212, 18469.48
610.6033, 18521.38
611.0854, 18590.12
611.5676, 18633.38
612.0497, 18616.30
612.5318, 18614.57
613.0139, 18646.51
613.4960, 18696.06
613.9781, 18709.96
614.4603, 18675.94
614.9424, 18650.05
615.4245, 18658.25
615.9066, 18693.64
616.3887, 18722.26
616.8708, 18744.08
617.3530, 18755.48
617.8351, 18741.03
618.3172, 18717.29
618.7993, 18717.99
619.2814, 18752.00
619.7635, 18786.17
620.2457, 18790.00
620.7278, 18781.70
621.2099, 18784.08
621.6920, 18816.17
622.1741, 18846.16
622.6563, 18865.84
623.1384, 18877.34
623.6205, 18887.74
624.1026, 18907.11
624.5847, 18910.22
625.0668, 18880.71
625.5490, 18822.37
626.0311, 18801.44
626.5132, 18823.54
626.9953, 18858.58
627.4774, 18888.44
627.9595, 18913.84
628.4417, 18939.80
628.9238, 18967.46
629.4059, 18990.08
629.8880, 18996.07
630.3701, 18993.79
630.8522, 18997.28
631.3344, 19011.93
631.8165, 19031.01
632.2986, 19055.99
632.7807, 19082.33
633.2628, 19100.56
633.7449, 19093.37
634.2271, 19094.13
634.7092, 19120.01
635.1913, 19166.25
635.6734, 19187.09
636.1555, 19170.28
636.6376, 19151.23
637.1198, 19150.26
637.6019, 19167.63
638.0840, 19172.05
638.5661, 19161.45
639.0482, 19149.95
639.5303, 19149.50
640.0125, 19159.27
640.4946, 19178.03
640.9767, 19206.93
641.4588, 19240.19
641.9409, 19279.38
642.4230, 19318.02
642.9052, 19344.69
643.3873, 19345.09
643.8694, 19343.98
644.3515, 19351.63
644.8336, 19365.52
645.3157, 19373.68
645.7979, 19373.06
646.2800, 19369.66
646.7621, 19361.18
647.2442, 19347.76
647.7263, 19358.40
648.2084, 19398.56
648.6906, 19443.78
649.1727, 19481.50
649.6548, 19509.89
650.1369, 19509.93
650.6190, 19476.17
651.1011, 19443.12
651.5833, 19449.21
652.0654, 19479.01
652.5475, 19509.74
653.0296, 19546.25
653.5117, 19563.64
653.9938, 19522.82
654.4760, 19457.48
654.9581, 19432.77
655.4402, 19510.88
655.9223, 19576.42
656.4044, 19604.10
656.8865, 19598.61
657.3687, 19584.96
657.8508, 19557.28
658.3329, 19537.23
658.8150, 19537.81
659.2971, 19556.90
659.7792, 19573.58
660.2614, 19587.76
660.7435, 19603.90
661.2256, 19632.40
661.7077, 19664.06
662.1898, 19683.47
662.6719, 19688.44
663.1541, 19679.75
663.6362, 19627.71
664.1183, 19573.72
664.6004, 19567.80
665.0825, 19690.76
665.5646, 19781.38
666.0468, 19792.39
666.5289, 19757.51
667.0110, 19739.71
667.4931, 19743.62
667.9752, 19755.39
668.4573, 19777.04
668.9395, 19802.38
669.4216, 19797.72
669.9037, 19762.28
670.3858, 19733.76
670.8679, 19744.22
671.3500, 19774.78
671.8322, 19785.36
672.3143, 19775.38
672.7964, 19770.57
673.2785, 19799.24
673.7606, 19834.60
674.2427, 19850.75
674.7249, 19835.86
675.2070, 19823.83
675.6891, 19836.69
676.1712, 19847.91
676.6533, 19827.75
677.1354, 19747.65
677.6176, 19701.85
678.0997, 19705.08
678.5818, 19740.21
679.0639, 19782.65
679.5460, 19832.16
680.0281, 19867.78
680.5103, 19877.73
680.9924, 19874.60
681.4745, 19874.09
681.9566, 19877.59
682.4387, 19890.60
682.9208, 19931.50
683.4030, 19971.12
683.8851, 19986.35
684.3672, 19976.79
684.8493, 19966.75
685.3314, 19954.14
685.8135, 19949.84
686.2957, 19964.42
686.7778, 20010.61
687.2599, 20016.60
687.7420, 19962.98
688.2241, 19906.44
688.7062, 19911.96
689.1884, 19974.75
689.6705, 20003.31
690.1526, 19978.53
690.6347, 19945.47
691.1168, 19965.82
691.5989, 20017.87
692.0811, 20056.92
692.5632, 20061.31
693.0453, 20057.83
693.5274, 20057.97
694.0095, 20061.51
694.4916, 20067.87
694.9738, 20081.33
695.4559, 20092.75
695.9380, 20100.94
696.4201, 20105.65
696.9022, 20102.44
697.3843, 20085.16
697.8665, 20079.69
698.3486, 20112.68
698.8307, 20170.97
699.3128, 20165.17
699.7949, 20095.99
700.2770, 20039.57
700.7592, 20077.02
701.2413, 20152.22
701.7234, 20188.88
702.2055, 20174.07
702.6876, 20156.11
703.1697, 20160.72
703.6519, 20172.38
704.1340, 20178.49
704.6161, 20177.70
705.0982, 20168.95
705.5803, 20140.36
706.0624, 20113.74
706.5446, 20124.32
707.0267, 20179.29
707.5088, 20217.15
707.9909, 20225.48
708.4730, 20214.23
708.9551, 20186.23
709.4373, 20150.37
709.9194, 20141.88
710.4015, 20202.87
710.8836, 20272.74
711.3657, 20304.22
711.8478, 20303.15
712.3300, 20288.84
712.8121, 20251.49
713.2942, 20218.11
713.7763, 20194.28
714.2584, 20180.38
714.7405, 20201.39
715.2227, 20281.74
715.7048, 20347.83
716.1869, 20348.73
716.6690, 20289.16
717.1511, 20269.68
717.6332, 20292.89
718.1154, 20322.46
718.5975, 20331.89
719.0796, 20324.89
719.5617, 20298.50
720.0438, 20246.40
720.5259, 20217.28
721.0081, 20261.98
721.4902, 20332.68
721.9723, 20384.97
722.4544, 20405.02
722.9365, 20411.28
723.4186, 20390.64
723.9008, 20367.17
724.3829, 20379.56
724.8650, 20440.10
725.3471, 20467.52
725.8292, 20435.29
726.3113, 20383.05
726.7935, 20391.80
727.2756, 20445.94
727.7577, 20483.93
728.2398, 20466.18
728.7219, 20435.13
729.2040, 20426.70
729.6862, 20435.19
730.1683, 20443.65
730.6504, 20445.91
731.1325, 20447.45
731.6146, 20450.61
732.0967, 20455.06
732.5789, 20457.10
733.0610, 20454.26
733.5431, 20454.66
734.0252, 20462.95
734.5073, 20478.19
734.9894, 20494.39
735.4716, 20511.61
735.9537, 20526.06
736.4358, 20538.86
736.9179, 20545.29
737.4000, 20532.76
737.8821, 20498.40
738.3643, 20474.71
738.8464, 20494.10
739.3286, 20520.44
739.8107, 20522.30
740.2928, 20467.47
740.7749, 20453.53
741.2570, 20498.63
741.7391, 20563.82
742.2213, 20618.21
742.7034, 20663.18
743.1855, 20669.01
743.6676, 20623.07
744.1497, 20568.25
744.6318, 20565.27
745.1140, 20597.21
745.5961, 20623.92
746.0782, 20631.18
746.5603, 20634.01
747.0424, 20630.34
747.5245, 20630.81
748.0067, 20653.88
748.4888, 20759.43
748.9709, 20816.92
749.4530, 20787.59
749.9351, 20704.75
750.4172, 20659.07
750.8994, 20655.25
751.3815, 20659.97
751.8636, 20660.20
752.3457, 20663.05
752.8278, 20693.76
753.3099, 20745.83
753.7921, 20786.02
754.2742, 20786.28
754.7563, 20775.30
755.2384, 20776.57
755.7205, 20788.63
756.2026, 20794.07
756.6848, 20779.51
757.1669, 20765.50
757.6490, 20758.03
758.1311, 20757.06
758.6132, 20768.65
759.0953, 20796.00
759.5775, 20825.02
760.0596, 20850.38
760.5417, 20870.38
761.0238, 20872.54
761.5059, 20856.66
761.9880, 20845.70
762.4702, 20869.55
762.9523, 20900.80
763.4344, 20906.26
763.9165, 20873.58
764.3986, 20855.53
764.8807, 20876.14
765.3629, 20910.28
765.8450, 20942.37
766.3271, 20981.71
766.8092, 20988.39
767.2913, 20952.33
767.7734, 20906.16
768.2556, 20888.70
768.7377, 20894.86
769.2198, 20896.13
769.7019, 20883.57
770.1840, 20884.21
770.6661, 20951.20
771.1483, 21038.37
771.6304, 21080.59
772.1125, 21023.84
772.5946, 20973.89
773.0767, 20960.08
773.5588, 20966.52
774.0410, 20970.77
774.5231, 20967.34
775.0052, 20978.87
775.4873, 21014.59
775.9694, 21057.92
776.4515, 21073.71
776.9337, 21067.47
777.4158, 21073.33
777.8979, 21111.75
778.3800, 21153.54
778.8621, 21173.54
779.3442, 21174.54
779.8264, 21162.96
780.3085, 21121.14
780.7906, 21088.87
781.2727, 21083.86
781.7548, 21096.65
782.2369, 21100.59
782.7191, 21087.68
783.2012, 21091.08
783.6833, 21128.80
784.1654, 21184.16
784.6475, 21206.16
785.1296, 21199.71
785.6118, 21199.55
786.0939, 21248.14
786.5760, 21294.05
787.0581, 21267.60
787.5402, 21188.32
788.0223, 21144.74
788.5045, 21207.28
788.9866, 21270.08
789.4687, 21289.48
789.9508, 21270.30
790.4329, 21270.17
790.9150, 21294.21
791.3972, 21320.29
791.8793, 21344.39
792.3614, 21361.27
792.8435, 21341.70
793.3256, 21289.69
793.8077, 21249.67
794.2899, 21266.54
794.7720, 21296.66
795.2541, 21296.47
795.7362, 21263.11
796.2183, 21251.87
796.7004, 21295.58
797.1826, 21346.12
797.6647, 21386.84
798.1468, 21418.92
798.6289, 21422.49
799.1110, 21391.59
799.5931, 21361.98
800.0753, 21366.78
800.5574, 21391.98
801.0395, 21402.67
801.5216, 21397.13
802.0037, 21379.52
802.4858, 21318.69
802.9680, 21270.84
803.4501, 21291.99
803.9322, 21409.37
804.4143, 21492.87
804.8964, 21521.56
805.3785, 21528.26
805.8607, 21531.42
806.3428, 21530.96
806.8249, 21525.14
807.3070, 21512.33
807.7891, 21505.23
808.2712, 21526.93
808.7534, 21559.00
809.2355, 21564.02
809.7176, 21534.08
810.1997, 21507.40
810.6818, 21505.02
811.1639, 21514.31
811.6461, 21526.25
812.1282, 21542.73
812.6103, 21553.35
813.0924, 21553.14
813.5745, 21555.10
814.0566, 21575.77
814.5388, 21613.00
815.0209, 21632.78
815.5030, 21630.09
815.9851, 21628.27
816.4672, 21652.21
816.9493, 21689.87
817.4315, 21728.55
817.9136, 21771.25
818.3957, 21794.61
818.8778, 21764.29
819.3599, 21728.73
819.8420, 21732.65
820.3242, 21798.23
820.8063, 21838.03
821.2884, 21847.01
821.7705, 21838.46
822.2526, 21813.35
822.7347, 21781.81
823.2169, 21787.20
823.6990, 21842.62
824.1811, 21894.16
824.6632, 21886.89
825.1453, 21858.65
825.6274, 21851.12
826.1096, 21887.11
826.5917, 21914.36
827.0738, 21929.99
827.5559, 21933.79
828.0380, 21921.30
828.5201, 21889.66
829.0023, 21866.00
829.4844, 21850.58
829.9665, 21853.24
830.4486, 21905.12
830.9307, 21978.37
831.4128, 22018.25
831.8950, 22006.76
832.3771, 21987.98
832.8592, 21977.03
833.3413, 21973.49
833.8234, 21977.69
834.3055, 21991.74
834.7877, 22008.10
835.2698, 22027.31
835.7519, 22048.19
836.2340, 22074.17
836.7161, 22102.21
837.1982, 22114.30
837.6804, 22106.86
838.1625, 22089.67
838.6446, 22057.29
839.1267, 22027.09
839.6088, 22022.73
840.0909, 22063.95
840.5731, 22093.29
841.0552, 22095.41
841.5373, 22085.08
842.0194, 22064.89
842.5015, 22024.92
842.9836, 22049.10
843.4658, 22157.68
843.9479, 22262.08
844.4300, 22241.34
844.9121, 22150.89
845.3942, 22101.54
845.8763, 22115.87
846.3585, 22146.47
846.8406, 22176.06
847.3227, 22204.49
847.8048, 22233.37
848.2869, 22271.13
848.7690, 22283.50
849.2512, 22257.84
849.7333, 22230.19
850.2154, 22240.18
850.6975, 22280.91
851.1796, 22304.15
851.6617, 22305.05
852.1439, 22298.44
852.6260, 22285.64
853.1081, 22278.20
853.5902, 22291.97
854.0723, 22336.47
854.5544, 22371.88
855.0366, 22391.91
855.5187, 22399.39
856.0008, 22389.39
856.4829, 22356.11
856.9650, 22358.98
857.4471, 22403.26
857.9293, 22447.66
858.4114, 22449.37
858.8935, 22428.99
859.3756, 22424.59
859.8577, 22440.07
860.3398, 22448.76
860.8220, 22426.36
861.3041, 22401.36
861.7862, 22395.53
862.2683, 22412.79
862.7504, 22413.90
863.2325, 22387.48
863.7147, 22375.83
864.1968, 22426.83
864.6789, 22517.09
865.1610, 22548.65
865.6431, 22522.99
866.1252, 22497.04
866.6074, 22516.32
867.0895, 22545.94
867.5716, 22555.77
868.0537, 22542.73
868.5358, 22549.24
869.0179, 22589.77
869.5001, 22633.66
869.9822, 22674.58
870.4643, 22709.69
870.9464, 22699.74
871.4285, 22646.06
871.9106, 22606.10
872.3928, 22627.97
872.8749, 22674.03
873.3570, 22709.31
873.8391, 22732.07
874.3212, 22738.64
874.8033, 22701.80
875.2855, 22678.07
875.7676, 22693.28
876.2497, 22737.18
876.7318, 22760.08
877.2139, 22761.20
877.6960, 22744.97
878.1782, 22694.82
878.6603, 22645.61
879.1424, 22673.72
879.6245, 22755.86
880.1067, 22820.99
880.5888, 22831.40
881.0709, 22823.84
881.5530, 22799.91
882.0352, 22770.15
882.5173, 22761.81
882.9994, 22779.21
883.4815, 22805.38
883.9636, 22837.36
884.4457, 22874.71
884.9279, 22930.38
885.4100, 22993.01
885.8921, 23018.75
886.3742, 22965.36
886.8563, 22913.23
887.3384, 22917.18
887.8206, 22953.34
888.3027, 22984.24
888.7848, 23017.82
889.2669, 23018.57
889.7490, 22965.23
890.2311, 22905.20
890.7133, 22923.01
891.1954, 23002.96
891.6775, 23043.69
892.1596, 23016.28
892.6417, 22984.75
893.1238, 23019.70
893.6060, 23076.24
894.0881, 23100.21
894.5702, 23051.44
895.0523, 23036.20
895.5344, 23089.14
896.0165, 23143.82
896.4987, 23129.54
896.9808, 23047.16
897.4629, 23021.03
897.9450, 23061.27
898.4271, 23109.83
898.9092, 23110.38
899.3914, 23091.91
899.8735, 23082.97
900.3556, 23085.91
900.8377, 23112.21
901.3198, 23202.90
901.8019, 23280.74
902.2841, 23301.23
902.7662, 23263.95
903.2483, 23266.91
903.7304, 23313.11
904.2125, 23356.69
904.6946, 23367.46
905.1768, 23355.35
905.6589, 23319.50
906.1410, 23267.04
906.6231, 23240.38
907.1052, 23281.70
907.5873, 23326.27
908.0695, 23352.94
908.5516, 23362.13
909.0337, 23349.53
909.5158, 23310.04
909.9979, 23288.96
910.4800, 23313.73
910.9622, 23356.36
911.4443, 23362.33
911.9264, 23346.59
912.4085, 23348.73
912.8906, 23406.47
913.3727, 23460.81
913.8549, 23490.58
914.3370, 23504.26
914.8191, 23515.21
915.3012, 23522.84
915.7833, 23531.02
916.2654, 23541.74
916.7476, 23549.64
917.2297, 23537.39
917.7118, 23517.81
918.1939, 23522.92
918.6760, 23574.76
919.1581, 23613.30
919.6403, 23589.54
920.1224, 23551.55
920.6045, 23547.40
921.0866, 23591.88
921.5687, 23628.62
922.0508, 23657.76
922.5330, 23676.40
923.0151, 23679.22
923.4972, 23669.81
923.9793, 23650.69
924.4614, 23622.29
924.9435, 23607.53
925.4257, 23629.04
925.9078, 23660.66
926.3899, 23686.08
926.8720, 23704.87
927.3541, 23721.26
927.8362, 23732.81
928.3184, 23750.92
928.8005, 23795.52
929.2826, 23845.44
929.7647, 23828.67
930.2468, 23762.04
930.7289, 23723.90
931.2111, 23805.21
931.6932, 23873.24
932.1753, 23835.78
932.6574, 23731.36
933.1395, 23700.71
933.6216, 23771.74
934.1038, 23828.51
934.5859, 23839.44
935.0680, 23829.39
935.5501, 23842.32
936.0322, 23870.52
936.5143, 23893.17
936.9965, 23897.85
937.4786, 23906.56
937.9607, 23941.77
938.4428, 23980.81
938.9249, 23994.18
939.4070, 23962.97
939.8892, 23964.16
940.3713, 24008.31
940.8534, 24061.15
941.3355, 24091.96
941.8176, 24102.94
942.2997, 24089.56
942.7819, 24049.85
943.2640, 24026.23
943.7461, 24064.46
944.2282, 24107.74
944.7103, 24114.83
945.1924, 24084.37
945.6746, 24062.02
946.1567, 24045.95
946.6388, 24047.23
947.1209, 24090.03
947.6030, 24146.59
948.0851, 24143.89
948.5673, 24096.73
949.0494, 24065.43
949.5315, 24086.30
950.0136, 24121.83
950.4957, 24169.62
950.9778, 24218.71
951.4600, 24238.63
951.9421, 24220.24
952.4242, 24224.99
952.9063, 24279.22
953.3884, 24333.63
953.8705, 24286.73
954.3527, 24190.83
954.8348, 24151.44
955.3169, 24225.61
955.7990, 24299.24
956.2811, 24348.00
956.7632, 24368.90
957.2454, 24351.60
957.7275, 24284.40
958.2096, 24249.52
958.6917, 24250.11
959.1738, 24269.77
959.6559, 24303.27
960.1381, 24342.16
960.6202, 24376.25
961.1023, 24404.37
961.5844, 24423.04
962.0665, 24427.64
962.5486, 24424.94
963.0308, 24414.54
963.5129, 24398.91
963.9950, 24393.43
964.4771, 24398.29
964.9592, 24402.97
965.4413, 24391.40
965.9235, 24390.53
966.4056, 24460.67
966.8877, 24561.38
967.3698, 24608.24
967.8519, 24505.74
968.3340, 24443.88
968.8162, 24461.11
969.2983, 24510.92
969.7804, 24522.67
970.2625, 24500.86
970.7446, 24510.12
971.2267, 24564.38
971.7089, 24619.29
972.1910, 24637.19
972.6731, 24634.43
973.1552, 24622.86
973.6373, 24599.03
974.1194, 24594.89
974.6016, 24625.96
975.0837, 24649.70
975.5658, 24630.42
976.0479, 24582.92
976.5300, 24582.35
977.0121, 24623.19
977.4943, 24663.65
977.9764, 24667.03
978.4585, 24674.06
978.9406, 24732.08
979.4227, 24815.48
979.9048, 24828.21
980.3870, 24730.97
980.8691, 24671.35
981.3512, 24684.83
981.8333, 24736.36
982.3154, 24786.51
982.7975, 24826.86
983.2797, 24827.09
983.7618, 24759.14
984.2439, 24716.88
984.7260, 24773.84
985.2081, 24854.78
985.6902, 24893.19
986.1724, 24877.50
986.6545, 24881.94
987.1366, 24908.88
987.6187, 24939.87
988.1008, 24973.71
988.5829, 24995.68
989.0651, 24969.36
989.5472, 24903.04
990.0293, 24857.92
990.5114, 24868.51
990.9935, 24892.34
991.4756, 24924.89
991.9578, 24956.85
992.4399, 24948.50
992.9220, 24902.01
993.4041, 24890.94
993.8862, 24952.57
994.3683, 25021.99
994.8505, 25023.25
995.3326, 24996.91
995.8147, 24999.96
996.2968, 25085.75
996.7789, 25118.45
997.2610, 25073.15
997.7432, 25012.07
998.2253, 24984.07
998.7074, 24986.63
999.1895, 25014.73
999.6716, 25066.48
1000.154, 25108.38
1000.636, 25111.88
1001.118, 25105.12
1001.600, 25103.40
1002.082, 25107.49
1002.564, 25116.41
1003.046, 25133.48
1003.529, 25141.18
1004.011, 25126.20
1004.493, 25112.27
1004.975, 25158.61
1005.457, 25235.63
1005.939, 25277.52
1006.421, 25244.94
1006.903, 25210.38
1007.385, 25186.47
1007.868, 25177.40
1008.350, 25193.28
1008.832, 25238.13
1009.314, 25257.29
1009.796, 25247.64
1010.278, 25237.57
1010.760, 25255.86
1011.242, 25281.72
1011.725, 25290.37
1012.207, 25282.73
1012.689, 25288.89
1013.171, 25331.22
1013.653, 25355.27
1014.135, 25335.63
1014.617, 25298.79
1015.099, 25318.74
1015.581, 25382.40
1016.064, 25436.04
1016.546, 25466.11
1017.028, 25473.16
1017.510, 25444.49
1017.992, 25399.84
1018.474, 25357.33
1018.956, 25303.13
1019.438, 25304.84
1019.921, 25372.64
1020.403, 25451.41
1020.885, 25498.06
1021.367, 25522.58
1021.849, 25538.70
1022.331, 25547.40
1022.813, 25549.92
1023.295, 25528.57
1023.778, 25523.94
1024.260, 25555.59
1024.742, 25607.64
1025.224, 25632.57
1025.706, 25632.92
1026.188, 25644.67
1026.670, 25686.67
1027.152, 25717.62
1027.634, 25672.79
1028.117, 25609.42
1028.599, 25600.87
1029.081, 25698.41
1029.563, 25726.67
1030.045, 25655.82
1030.527, 25592.24
1031.009, 25633.13
1031.491, 25737.49
1031.974, 25796.66
1032.456, 25811.78
1032.938, 25795.27
1033.420, 25687.68
1033.902, 25623.96
1034.384, 25697.54
1034.866, 25836.58
1035.348, 25884.14
1035.830, 25834.99
1036.313, 25791.15
1036.795, 25770.23
1037.277, 25773.36
1037.759, 25827.65
1038.241, 25893.19
1038.723, 25915.54
1039.205, 25868.08
1039.687, 25859.55
1040.169, 25918.00
1040.652, 25970.34
1041.134, 25969.42
1041.616, 25932.66
1042.098, 25921.08
1042.580, 25930.56
1043.062, 25942.72
1043.544, 25943.65
1044.026, 25950.52
1044.509, 25980.29
1044.991, 26016.40
1045.473, 26027.71
1045.955, 26006.86
1046.437, 26026.72
1046.919, 26104.88
1047.401, 26168.54
1047.883, 26098.34
1048.365, 25998.67
1048.848, 26012.30
1049.330, 26163.47
1049.812, 26247.70
1050.294, 26210.49
1050.776, 26158.30
1051.258, 26123.74
1051.740, 26107.43
1052.222, 26121.90
1052.704, 26157.83
1053.187, 26181.12
1053.669, 26168.48
1054.151, 26155.33
1054.633, 26150.32
1055.115, 26159.13
1055.597, 26190.96
1056.079, 26252.84
1056.561, 26296.01
1057.044, 26318.63
1057.526, 26327.65
1058.008, 26321.52
1058.490, 26309.92
1058.972, 26295.08
1059.454, 26281.12
1059.936, 26295.96
1060.418, 26369.64
1060.901, 26425.09
1061.383, 26443.57
1061.865, 26437.34
1062.347, 26416.78
1062.829, 26390.68
1063.311, 26389.46
1063.793, 26429.12
1064.275, 26458.46
1064.757, 26434.19
1065.240, 26406.36
1065.722, 26415.84
1066.204, 26463.17
1066.686, 26474.59
1067.168, 26449.31
1067.650, 26420.41
1068.132, 26391.77
1068.614, 26382.01
1069.096, 26424.71
1069.579, 26497.25
1070.061, 26546.98
1070.543, 26563.70
1071.025, 26563.22
1071.507, 26539.96
1071.989, 26516.55
1072.471, 26514.30
1072.953, 26532.58
1073.436, 26583.95
1073.918, 26667.85
1074.400, 26720.08
1074.882, 26674.76
1075.364, 26633.14
1075.846, 26637.52
1076.328, 26674.69
1076.810, 26704.83
1077.292, 26726.74
1077.775, 26720.17
1078.257, 26653.32
1078.739, 26619.80
1079.221, 26758.82
1079.703, 26935.53
1080.185, 26977.34
1080.667, 26836.84
1081.149, 26771.79
1081.631, 26794.80
1082.114, 26834.96
1082.596, 26842.20
1083.078, 26836.61
1083.560, 26858.56
1084.042, 26895.58
1084.524, 26906.84
1085.006, 26838.58
1085.488, 26802.43
1085.971, 26823.20
1086.453, 26866.61
1086.935, 26885.99
1087.417, 26886.66
1087.899, 26891.00
1088.381, 26902.03
1088.863, 26906.10
1089.345, 26872.79
1089.828, 26852.90
1090.310, 26885.66
1090.792, 26956.95
1091.274, 26992.80
1091.756, 26993.12
1092.238, 26989.69
1092.720, 26992.93
1093.202, 26996.98
1093.684, 26981.77
1094.167, 26970.67
1094.649, 27000.73
1095.131, 27106.21
1095.613, 27153.55
1096.095, 27131.25
1096.577, 27088.81
1097.059, 27043.29
1097.541, 27009.49
1098.024, 27029.63
1098.506, 27089.04
1098.988, 27136.69
1099.470, 27148.59
1099.952, 27153.31
1100.434, 27148.82
1100.916, 27148.30
1101.398, 27181.67
1101.880, 27237.37
1102.363, 27242.40
1102.845, 27189.09
1103.327, 27159.10
1103.809, 27232.40
1104.291, 27314.48
1104.773, 27350.92
1105.255, 27350.44
1105.737, 27341.07
1106.219, 27322.32
1106.702, 27318.55
1107.184, 27342.62
1107.666, 27367.11
1108.148, 27348.41
1108.630, 27324.56
1109.112, 27347.09
1109.594, 27440.07
1110.076, 27491.50
1110.559, 27493.76
1111.041, 27481.78
1111.523, 27472.09
1112.005, 27463.63
1112.487, 27456.62
1112.969, 27449.13
1113.451, 27436.29
1113.933, 27398.64
1114.416, 27382.21
1114.898, 27391.70
1115.380, 27421.68
1115.862, 27486.65
1116.344, 27567.36
1116.826, 27576.41
1117.308, 27516.32
1117.790, 27471.36
1118.272, 27482.74
1118.755, 27523.39
1119.237, 27601.49
1119.719, 27689.00
1120.201, 27712.31
1120.683, 27677.05
1121.165, 27664.42
1121.647, 27692.96
1122.129, 27731.42
1122.611, 27779.57
1123.094, 27808.53
1123.576, 27771.37
1124.058, 27673.53
1124.540, 27661.76
1125.022, 27746.48
1125.504, 27812.61
1125.986, 27803.05
1126.468, 27770.20
1126.951, 27775.91
1127.433, 27799.60
1127.915, 27809.61
1128.397, 27789.86
1128.879, 27779.56
1129.361, 27776.95
1129.843, 27789.07
1130.325, 27828.91
1130.807, 27883.29
1131.290, 27931.28
1131.772, 27971.39
1132.254, 27998.12
1132.736, 28004.53
1133.218, 28003.26
1133.700, 27992.78
1134.182, 27980.82
1134.664, 27982.85
1135.146, 27990.92
1135.629, 27964.61
1136.111, 27903.90
1136.593, 27876.17
1137.075, 27949.60
1137.557, 28027.18
1138.039, 28079.76
1138.521, 28104.87
1139.003, 28077.46
1139.486, 28008.58
1139.968, 27993.78
1140.450, 28063.83
1140.932, 28134.26
1141.414, 28130.95
1141.896, 28115.60
1142.378, 28142.35
1142.860, 28207.04
1143.343, 28237.58
1143.825, 28233.57
1144.307, 28217.89
1144.789, 28190.65
1145.271, 28172.76
1145.753, 28189.82
1146.235, 28225.81
1146.717, 28263.90
1147.199, 28310.40
1147.682, 28318.92
1148.164, 28280.55
1148.646, 28255.23
1149.128, 28314.70
1149.610, 28387.38
1150.092, 28359.01
1150.574, 28271.13
1151.056, 28230.27
1151.538, 28293.23
1152.021, 28328.14
1152.503, 28317.61
1152.985, 28303.69
1153.467, 28340.18
1153.949, 28398.13
1154.431, 28418.85
1154.913, 28406.30
1155.395, 28412.44
1155.878, 28486.70
1156.360, 28534.77
1156.842, 28532.94
1157.324, 28508.85
1157.806, 28504.79
1158.288, 28514.38
1158.770, 28517.45
1159.252, 28509.68
1159.734, 28518.30
1160.217, 28597.07
1160.699, 28640.68
1161.181, 28588.15
1161.663, 28488.88
1162.145, 28488.14
1162.627, 28569.19
1163.109, 28675.53
1163.591, 28817.79
1164.073, 28894.78
1164.556, 28780.55
1165.038, 28648.20
1165.520, 28612.11
1166.002, 28661.25
1166.484, 28692.59
1166.966, 28706.86
1167.448, 28711.62
1167.930, 28702.22
1168.413, 28696.53
1168.895, 28715.33
1169.377, 28736.18
1169.859, 28727.12
1170.341, 28679.47
1170.823, 28700.97
1171.305, 28791.37
1171.787, 28849.90
1172.270, 28757.72
1172.752, 28663.44
1173.234, 28701.67
1173.716, 28803.75
1174.198, 28812.87
1174.680, 28694.84
1175.162, 28695.18
1175.644, 28841.08
1176.126, 28994.78
1176.609, 29033.08
1177.091, 29028.24
1177.573, 29042.74
1178.055, 29071.09
1178.537, 29074.72
1179.019, 29048.49
1179.501, 29015.15
1179.983, 28975.16
1180.465, 28945.07
1180.948, 28949.19
1181.430, 28968.33
1181.912, 28981.74
1182.394, 28987.82
1182.876, 28997.92
1183.358, 29013.22
1183.840, 29030.64
1184.322, 29051.77
1184.805, 29068.88
1185.287, 29058.33
1185.769, 29043.55
1186.251, 29062.29
1186.733, 29128.64
1187.215, 29171.68
1187.697, 29177.61
1188.179, 29195.63
1188.661, 29262.40
1189.144, 29329.92
1189.626, 29284.59
1190.108, 29190.59
1190.590, 29163.24
1191.072, 29266.31
1191.554, 29339.52
1192.036, 29367.59
1192.518, 29385.20
1193.000, 29418.46
1193.483, 29451.38
1193.965, 29450.94
1194.447, 29424.51
1194.929, 29389.31
1195.411, 29338.01
1195.893, 29296.32
1196.375, 29259.33
1196.857, 29244.56
1197.340, 29284.72
1197.822, 29350.59
1198.304, 29366.33
1198.786, 29347.38
1199.268, 29352.32
1199.750, 29436.89
1200.232, 29494.47
1200.714, 29505.49
1201.197, 29501.97
1201.679, 29530.21
1202.161, 29566.76
1202.643, 29546.76
1203.125, 29475.81
1203.607, 29413.37
1204.089, 29349.82
1204.571, 29352.84
1205.053, 29463.59
1205.536, 29591.44
1206.018, 29583.07
1206.500, 29496.91
1206.982, 29484.75
1207.464, 29558.15
1207.946, 29608.70
1208.428, 29556.02
1208.910, 29533.39
1209.392, 29582.50
1209.875, 29661.55
1210.357, 29689.96
1210.839, 29690.04
1211.321, 29728.54
1211.803, 29820.58
1212.285, 29875.65
1212.767, 29828.35
1213.249, 29783.05
1213.732, 29769.55
1214.214, 29779.58
1214.696, 29804.22
1215.178, 29835.72
1215.660, 29851.51
1216.142, 29841.36
1216.624, 29842.35
1217.106, 29886.66
1217.589, 29910.56
1218.071, 29875.56
1218.553, 29811.60
1219.035, 29781.99
1219.517, 29790.49
1219.999, 29858.10
1220.481, 30038.96
1220.963, 30134.73
1221.445, 30056.91
1221.927, 29965.01
1222.410, 29944.58
1222.892, 29974.87
1223.374, 30017.46
1223.856, 30058.20
1224.338, 30054.50
1224.820, 29943.38
1225.302, 29883.83
1225.784, 29908.35
1226.267, 29966.70
1226.749, 30046.16
1227.231, 30126.04
1227.713, 30129.81
1228.195, 30080.76
1228.677, 30048.79
1229.159, 30069.22
1229.641, 30099.09
1230.124, 30140.41
1230.606, 30175.81
1231.088, 30187.01
1231.570, 30182.34
1232.052, 30173.90
1232.534, 30167.34
1233.016, 30181.10
1233.498, 30265.99
1233.980, 30296.14
1234.463, 30235.53
1234.945, 30175.36
1235.427, 30230.43
1235.909, 30338.90
1236.391, 30362.49
1236.873, 30316.51
1237.355, 30291.21
1237.837, 30321.81
1238.320, 30364.80
1238.802, 30422.66
1239.284, 30473.65
1239.766, 30488.34
1240.248, 30482.80
1240.730, 30487.20
1241.212, 30499.04
1241.694, 30490.48
1242.177, 30429.26
1242.659, 30413.35
1243.141, 30467.80
1243.623, 30534.78
1244.105, 30535.33
1244.587, 30511.71
1245.069, 30526.74
1245.551, 30578.83
1246.033, 30609.10
1246.516, 30598.81
1246.998, 30612.37
1247.480, 30669.39
1247.962, 30724.55
1248.444, 30711.03
1248.926, 30674.13
1249.408, 30669.41
1249.890, 30698.93
1250.372, 30718.77
1250.855, 30726.99
1251.337, 30721.93
1251.819, 30696.30
1252.301, 30686.91
1252.783, 30757.94
1253.265, 30850.04
1253.747, 30905.29
1254.229, 30919.17
1254.712, 30911.98
1255.194, 30879.58
1255.676, 30856.04
1256.158, 30847.62
1256.640, 30859.41
1257.122, 30927.77
1257.604, 30994.71
1258.086, 30990.89
1258.568, 30928.56
1259.051, 30908.04
1259.533, 30929.36
1260.015, 30945.54
1260.497, 30939.30
1260.979, 30939.88
1261.461, 30983.12
1261.943, 31032.02
1262.425, 31053.53
1262.907, 31053.88
1263.390, 31071.13
1263.872, 31103.98
1264.354, 31143.61
1264.836, 31194.99
1265.318, 31225.86
1265.800, 31184.92
1266.282, 31148.43
1266.764, 31174.07
1267.247, 31242.23
1267.729, 31252.91
1268.211, 31217.60
1268.693, 31189.74
1269.175, 31189.02
1269.657, 31189.27
1270.139, 31165.89
1270.621, 31155.91
1271.104, 31177.73
1271.586, 31227.25
1272.068, 31316.33
1272.550, 31420.46
1273.032, 31463.56
1273.514, 31389.09
1273.996, 31346.25
1274.478, 31380.17
1274.960, 31420.49
1275.443, 31429.06
1275.925, 31420.14
1276.407, 31436.55
1276.889, 31459.81
1277.371, 31444.01
1277.853, 31338.36
1278.335, 31306.72
1278.817, 31375.43
1279.299, 31464.30
1279.782, 31542.87
1280.264, 31600.41
1280.746, 31606.45
1281.228, 31584.24
1281.710, 31571.37
1282.192, 31573.32
1282.674, 31594.17
1283.156, 31639.33
1283.639, 31670.91
1284.121, 31659.55
1284.603, 31636.26
1285.085, 31622.62
1285.567, 31623.23
1286.049, 31649.88
1286.531, 31708.04
1287.013, 31739.82
1287.495, 31745.17
1287.978, 31744.78
1288.460, 31746.24
1288.942, 31750.64
1289.424, 31762.63
1289.906, 31775.12
1290.388, 31780.29
1290.870, 31778.28
1291.352, 31779.47
1291.834, 31783.18
1292.317, 31783.75
1292.799, 31766.10
1293.281, 31764.04
1293.763, 31815.99
##END=



