##NAMES=Awaruite
##RRUFFID=R061020
##IDEAL CHEMISTRY=Ni_3_Fe
##LOCALITY=Oregon, USA
##OWNER=RRUFF
##SOURCE=Michael Scott
##DESCRIPTION=Silver metallic massive pebbles with brownish-red oxidized coating, variety josephinite
##STATUS=The identification of this mineral has been confirmed by X-ray diffraction and chemical analysis
##URL=rruff.info/R061020
##MEASURED CHEMISTRY=light phase: (Ni_2.60_Fe_0.40_)_Σ=3_(Fe_0.93_Co_0.07_)_Σ=1_ ; the rim (dark phase) is a Ni-Fe-silicate
174.5606, 6544.303
175.0427, 6531.635
175.5248, 6516.489
176.0069, 6509.198
176.4890, 6518.432
176.9712, 6537.301
177.4533, 6544.292
177.9354, 6530.039
178.4175, 6520.527
178.8996, 6529.866
179.3817, 6549.196
179.8639, 6565.487
180.3460, 6571.005
180.8281, 6569.226
181.3102, 6571.778
181.7923, 6581.169
182.2744, 6590.642
182.7566, 6595.351
183.2387, 6598.941
183.7208, 6607.440
184.2029, 6626.187
184.6850, 6650.356
185.1671, 6663.108
185.6493, 6656.597
186.1314, 6650.965
186.6135, 6652.060
187.0956, 6658.017
187.5777, 6666.575
188.0598, 6677.081
188.5419, 6688.899
189.0241, 6700.052
189.5062, 6709.066
189.9883, 6719.960
190.4704, 6736.506
190.9525, 6754.657
191.4346, 6770.203
191.9168, 6782.229
192.3989, 6788.496
192.8810, 6758.208
193.3631, 6790.968
193.8452, 6811.574
194.3273, 6820.679
194.8095, 6783.834
195.2916, 6806.324
195.7737, 6805.035
196.2558, 6802.771
196.7379, 6833.612
197.2200, 6803.450
197.7022, 6833.767
198.1843, 6839.941
198.6664, 6857.165
199.1485, 6850.463
199.6306, 6851.150
200.1127, 6875.772
200.5949, 6887.142
201.0770, 6877.686
201.5591, 6869.910
202.0412, 6879.825
202.5233, 6888.661
203.0054, 6890.111
203.4876, 6881.289
203.9697, 6867.671
204.4518, 6861.305
204.9339, 6866.537
205.4160, 6870.271
205.8981, 6865.255
206.3803, 6860.426
206.8624, 6865.952
207.3445, 6885.438
207.8266, 6909.367
208.3087, 6920.425
208.7908, 6915.009
209.2730, 6903.838
209.7551, 6879.377
210.2372, 6855.809
210.7193, 6844.504
211.2014, 6848.734
211.6835, 6862.859
212.1657, 6880.374
212.6478, 6905.253
213.1299, 6922.121
213.6120, 6926.634
214.0941, 6925.177
214.5762, 6919.119
215.0584, 6909.624
215.5405, 6901.752
216.0226, 6878.465
216.5047, 6912.329
216.9868, 6934.037
217.4689, 6944.244
217.9511, 6908.501
218.4332, 6932.093
218.9153, 6931.906
219.3974, 6930.744
219.8795, 6962.687
220.3616, 6933.626
220.8438, 6965.046
221.3259, 6972.322
221.8080, 6990.647
222.2901, 6985.047
222.7722, 6986.836
223.2543, 7012.559
223.7365, 7025.031
224.2186, 7016.676
224.7007, 7035.704
225.1828, 7005.808
225.6649, 7018.843
226.1470, 7035.801
226.6292, 7050.962
227.1113, 7062.539
227.5934, 7062.217
228.0755, 7050.294
228.5576, 7045.262
229.0397, 7058.816
229.5219, 7066.217
230.0040, 7050.629
230.4861, 7020.984
230.9682, 6998.620
231.4503, 7001.496
231.9324, 7024.607
232.4146, 7034.392
232.8967, 7016.078
233.3788, 7005.565
233.8609, 7020.778
234.3430, 7051.650
234.8251, 7081.620
235.3073, 7103.654
235.7894, 7117.504
236.2715, 7120.696
236.7536, 7107.073
237.2357, 7094.547
237.7178, 7088.924
238.2000, 7088.259
238.6821, 7090.738
239.1642, 7096.432
239.6463, 7103.521
240.1284, 7107.390
240.6105, 7105.432
241.0927, 7108.167
241.5748, 7127.813
242.0569, 7150.125
242.5390, 7160.830
243.0211, 7154.480
243.5032, 7140.104
243.9854, 7128.971
244.4675, 7121.597
244.9496, 7114.562
245.4317, 7101.803
245.9138, 7092.281
246.3959, 7095.621
246.8781, 7114.501
247.3602, 7136.175
247.8423, 7147.565
248.3244, 7148.758
248.8065, 7151.622
249.2886, 7162.104
249.7708, 7171.897
250.2529, 7172.729
250.7350, 7164.125
251.2171, 7155.241
251.6992, 7150.576
252.1813, 7150.379
252.6635, 7156.988
253.1456, 7173.246
253.6277, 7192.985
254.1098, 7212.934
254.5919, 7232.511
255.0740, 7246.554
255.5562, 7247.731
256.0383, 7242.028
256.5204, 7244.571
257.0025, 7259.525
257.4846, 7275.657
257.9667, 7281.330
258.4489, 7280.178
258.9310, 7282.897
259.4131, 7298.721
259.8952, 7317.592
260.3773, 7324.741
260.8594, 7318.721
261.3416, 7309.966
261.8237, 7304.295
262.3058, 7301.428
262.7879, 7300.119
263.2700, 7299.812
263.7521, 7301.387
264.2343, 7309.040
264.7164, 7321.639
265.1985, 7326.498
265.6806, 7312.974
266.1627, 7288.513
266.6448, 7276.846
267.1270, 7289.470
267.6091, 7298.712
268.0912, 7283.005
268.5733, 7251.892
269.0554, 7234.011
269.5375, 7242.854
270.0197, 7267.342
270.5018, 7282.543
270.9839, 7286.113
271.4660, 7288.930
271.9481, 7299.268
272.4302, 7309.037
272.9124, 7302.224
273.3945, 7273.125
273.8766, 7238.967
274.3587, 7225.187
274.8408, 7239.571
275.3229, 7252.407
275.8051, 7258.142
276.2872, 7264.073
276.7693, 7279.739
277.2514, 7305.173
277.7335, 7328.371
278.2156, 7335.574
278.6978, 7322.515
279.1799, 7319.992
279.6620, 7344.169
280.1441, 7363.132
280.6262, 7354.408
281.1083, 7323.957
281.5905, 7293.552
282.0726, 7278.649
282.5547, 7278.746
283.0368, 7286.784
283.5189, 7322.596
284.0010, 7344.027
284.4832, 7331.905
284.9653, 7300.566
285.4474, 7271.902
285.9295, 7257.104
286.4116, 7252.811
286.8937, 7247.908
287.3759, 7233.685
287.8580, 7232.343
288.3401, 7258.306
288.8222, 7290.505
289.3043, 7310.143
289.7864, 7311.325
290.2685, 7300.735
290.7506, 7287.078
291.2328, 7266.771
291.7149, 7253.170
292.1970, 7255.419
292.6791, 7257.333
293.1612, 7244.544
293.6433, 7219.178
294.1255, 7199.180
294.6076, 7205.773
295.0897, 7240.907
295.5718, 7265.945
296.0539, 7276.342
296.5360, 7280.092
297.0182, 7277.272
297.5003, 7270.399
297.9824, 7263.728
298.4645, 7254.681
298.9466, 7249.240
299.4287, 7273.073
299.9109, 7346.337
300.3930, 7404.140
300.8751, 7406.224
301.3572, 7381.189
301.8393, 7363.586
302.3214, 7366.976
302.8036, 7376.669
303.2857, 7371.078
303.7678, 7348.791
304.2499, 7334.712
304.7320, 7340.458
305.2141, 7357.402
305.6963, 7377.632
306.1784, 7402.943
306.6605, 7420.431
307.1426, 7417.487
307.6247, 7399.378
308.1068, 7384.694
308.5890, 7379.186
309.0711, 7374.853
309.5532, 7358.173
310.0353, 7329.903
310.5174, 7311.826
310.9995, 7317.595
311.4817, 7332.861
311.9638, 7339.943
312.4459, 7336.981
312.9280, 7332.613
313.4101, 7335.180
313.8922, 7343.977
314.3744, 7343.780
314.8565, 7322.236
315.3386, 7303.427
315.8207, 7305.315
316.3028, 7321.947
316.7849, 7334.101
317.2671, 7330.842
317.7492, 7316.267
318.2313, 7306.167
318.7134, 7298.886
319.1955, 7297.657
319.6776, 7306.083
320.1598, 7319.466
320.6419, 7332.247
321.1240, 7342.573
321.6061, 7352.538
322.0882, 7365.483
322.5703, 7382.886
323.0525, 7399.809
323.5346, 7414.235
324.0167, 7429.592
324.4988, 7450.206
324.9809, 7474.505
325.4630, 7495.429
325.9452, 7505.261
326.4273, 7503.657
326.9094, 7510.256
327.3915, 7529.060
327.8736, 7552.595
328.3557, 7585.449
328.8379, 7620.495
329.3200, 7647.420
329.8021, 7661.013
330.2842, 7663.389
330.7663, 7655.670
331.2484, 7628.265
331.7306, 7616.743
332.2127, 7646.605
332.6948, 7686.801
333.1769, 7711.355
333.6590, 7714.814
334.1411, 7712.799
334.6233, 7722.734
335.1054, 7743.399
335.5875, 7755.738
336.0696, 7757.603
336.5517, 7748.408
337.0338, 7723.574
337.5160, 7685.936
337.9981, 7653.660
338.4802, 7636.492
338.9623, 7628.728
339.4444, 7623.505
339.9265, 7621.093
340.4087, 7614.593
340.8908, 7599.033
341.3729, 7574.935
341.8550, 7546.859
342.3371, 7505.006
342.8192, 7468.440
343.3014, 7451.855
343.7835, 7449.808
344.2656, 7445.908
344.7477, 7431.819
345.2298, 7415.215
345.7119, 7415.046
346.1941, 7446.792
346.6762, 7463.857
347.1583, 7449.044
347.6404, 7423.803
348.1225, 7409.031
348.6046, 7408.314
349.0868, 7412.727
349.5689, 7412.326
350.0510, 7405.439
350.5331, 7403.755
351.0152, 7414.565
351.4973, 7422.574
351.9795, 7417.924
352.4616, 7406.014
352.9437, 7398.971
353.4258, 7404.711
353.9079, 7419.541
354.3900, 7431.252
354.8722, 7448.046
355.3543, 7446.092
355.8364, 7394.822
356.3185, 7341.092
356.8006, 7337.537
357.2827, 7395.813
357.7649, 7460.109
358.2470, 7458.899
358.7291, 7388.618
359.2112, 7331.771
359.6933, 7294.098
360.1754, 7277.238
360.6576, 7291.061
361.1397, 7327.531
361.6218, 7355.048
362.1039, 7357.021
362.5860, 7340.298
363.0681, 7308.183
363.5503, 7255.982
364.0324, 7224.330
364.5145, 7248.307
364.9966, 7307.161
365.4787, 7350.296
365.9608, 7377.562
366.4430, 7384.536
366.9251, 7349.009
367.4072, 7291.243
367.8893, 7263.537
368.3714, 7285.667
368.8535, 7331.629
369.3357, 7361.668
369.8178, 7368.515
370.2999, 7381.641
370.7820, 7415.033
371.2641, 7446.081
371.7462, 7455.287
372.2283, 7443.688
372.7104, 7425.106
373.1926, 7408.723
373.6747, 7395.082
374.1568, 7396.594
374.6389, 7439.618
375.1210, 7467.899
375.6031, 7459.404
376.0853, 7434.651
376.5674, 7420.916
377.0495, 7428.854
377.5316, 7444.884
378.0137, 7444.115
378.4958, 7419.690
378.9780, 7402.512
379.4601, 7399.273
379.9422, 7401.630
380.4243, 7412.189
380.9064, 7426.879
381.3885, 7430.776
381.8707, 7401.736
382.3528, 7353.172
382.8349, 7334.214
383.3170, 7352.949
383.7991, 7377.522
384.2813, 7396.333
384.7634, 7408.144
385.2455, 7409.098
385.7276, 7394.153
386.2097, 7375.856
386.6918, 7359.104
387.1740, 7345.964
387.6561, 7346.962
388.1382, 7369.501
388.6203, 7396.590
389.1024, 7402.538
389.5845, 7383.873
390.0667, 7363.986
390.5488, 7332.974
391.0309, 7310.594
391.5130, 7319.848
391.9951, 7356.886
392.4772, 7394.848
392.9594, 7413.532
393.4415, 7415.375
393.9236, 7423.828
394.4057, 7434.997
394.8878, 7457.834
395.3699, 7520.443
395.8521, 7583.554
396.3342, 7594.705
396.8163, 7539.976
397.2984, 7462.729
397.7805, 7428.822
398.2626, 7450.771
398.7448, 7458.126
399.2269, 7439.069
399.7090, 7412.438
400.1911, 7384.355
400.6732, 7355.679
401.1553, 7325.942
401.6375, 7289.068
402.1196, 7254.762
402.6017, 7246.206
403.0838, 7267.507
403.5659, 7290.148
404.0480, 7303.599
404.5302, 7310.346
405.0123, 7314.313
405.4944, 7315.266
405.9765, 7315.044
406.4586, 7315.770
406.9407, 7315.802
407.4229, 7310.807
407.9050, 7299.637
408.3871, 7288.148
408.8692, 7281.661
409.3513, 7280.593
409.8334, 7283.583
410.3156, 7298.139
410.7977, 7308.908
411.2798, 7308.810
411.7619, 7299.327
412.2440, 7279.943
412.7261, 7249.465
413.2083, 7219.627
413.6904, 7222.363
414.1725, 7288.337
414.6546, 7328.127
415.1367, 7320.617
415.6188, 7303.332
416.1010, 7301.776
416.5831, 7315.394
417.0652, 7325.673
417.5473, 7311.614
418.0294, 7280.792
418.5115, 7277.398
418.9937, 7315.661
419.4758, 7349.632
419.9579, 7343.832
420.4400, 7326.965
420.9221, 7340.584
421.4042, 7407.240
421.8864, 7463.305
422.3685, 7441.059
422.8506, 7365.370
423.3327, 7321.248
423.8148, 7333.265
424.2969, 7362.846
424.7791, 7369.942
425.2612, 7353.184
425.7433, 7329.554
426.2254, 7282.678
426.7075, 7244.571
427.1896, 7247.647
427.6718, 7277.093
428.1539, 7288.104
428.6360, 7254.838
429.1181, 7197.299
429.6002, 7171.681
430.0823, 7205.042
430.5645, 7228.171
431.0466, 7227.297
431.5287, 7225.211
432.0108, 7245.321
432.4929, 7283.874
432.9750, 7312.692
433.4572, 7303.326
433.9393, 7262.301
434.4214, 7234.326
434.9035, 7220.129
435.3856, 7217.663
435.8677, 7239.327
436.3499, 7266.629
436.8320, 7274.678
437.3141, 7252.869
437.7962, 7231.607
438.2783, 7239.050
438.7604, 7266.484
439.2426, 7286.777
439.7247, 7294.212
440.2068, 7294.586
440.6889, 7294.166
441.1710, 7292.740
441.6531, 7282.443
442.1353, 7244.017
442.6174, 7214.759
443.0995, 7227.916
443.5816, 7264.887
444.0637, 7280.444
444.5458, 7253.072
445.0280, 7207.236
445.5101, 7196.915
445.9922, 7252.916
446.4743, 7283.404
446.9564, 7271.106
447.4385, 7251.836
447.9207, 7247.065
448.4028, 7254.228
448.8849, 7257.869
449.3670, 7245.542
449.8491, 7223.791
450.3312, 7213.192
450.8134, 7216.891
451.2955, 7220.240
451.7776, 7217.702
452.2597, 7212.453
452.7418, 7207.460
453.2239, 7202.828
453.7060, 7199.563
454.1881, 7200.924
454.6703, 7203.064
455.1524, 7197.921
455.6345, 7184.507
456.1166, 7171.389
456.5987, 7165.076
457.0808, 7165.001
457.5630, 7165.148
458.0451, 7162.226
458.5272, 7163.180
459.0093, 7169.946
459.4914, 7181.307
459.9735, 7197.718
460.4557, 7218.466
460.9378, 7239.035
461.4199, 7255.082
461.9020, 7267.620
462.3841, 7267.571
462.8662, 7242.006
463.3484, 7218.524
463.8305, 7209.845
464.3126, 7209.034
464.7947, 7203.049
465.2768, 7184.382
465.7589, 7167.171
466.2411, 7173.845
466.7232, 7201.218
467.2053, 7216.287
467.6874, 7208.184
468.1695, 7191.833
468.6516, 7181.982
469.1338, 7178.112
469.6159, 7178.068
470.0980, 7182.809
470.5801, 7190.076
471.0622, 7203.127
471.5443, 7217.620
472.0265, 7219.261
472.5086, 7200.188
472.9907, 7173.676
473.4728, 7170.822
473.9549, 7220.276
474.4370, 7237.259
474.9192, 7190.356
475.4013, 7143.900
475.8834, 7142.428
476.3655, 7174.396
476.8476, 7197.170
477.3297, 7181.304
477.8119, 7142.830
478.2940, 7118.862
478.7761, 7111.331
479.2582, 7108.599
479.7403, 7107.989
480.2224, 7110.325
480.7046, 7117.718
481.1867, 7130.620
481.6688, 7140.447
482.1509, 7138.485
482.6330, 7134.874
483.1151, 7146.135
483.5973, 7170.371
484.0794, 7186.460
484.5615, 7180.521
485.0436, 7158.159
485.5257, 7139.786
486.0078, 7112.838
486.4900, 7107.213
486.9721, 7146.896
487.4542, 7191.706
487.9363, 7205.513
488.4184, 7189.783
488.9005, 7174.296
489.3827, 7186.615
489.8648, 7218.473
490.3469, 7226.617
490.8290, 7200.212
491.3111, 7178.006
491.7932, 7176.410
492.2754, 7184.684
492.7575, 7198.984
493.2396, 7221.061
493.7217, 7225.136
494.2038, 7177.010
494.6859, 7109.253
495.1681, 7077.331
495.6502, 7085.650
496.1323, 7105.531
496.6144, 7120.961
497.0965, 7130.956
497.5786, 7130.194
498.0608, 7103.100
498.5429, 7086.560
499.0250, 7093.985
499.5071, 7108.051
499.9892, 7112.662
500.4713, 7106.080
500.9535, 7096.669
501.4356, 7091.111
501.9177, 7089.341
502.3998, 7091.348
502.8819, 7099.613
503.3640, 7106.393
503.8462, 7110.013
504.3283, 7110.298
504.8104, 7105.738
505.2925, 7095.643
505.7746, 7085.940
506.2567, 7076.063
506.7389, 7070.273
507.2210, 7083.237
507.7031, 7115.547
508.1852, 7134.549
508.6673, 7113.356
509.1494, 7062.262
509.6316, 7035.083
510.1137, 7043.616
510.5958, 7058.960
511.0779, 7087.644
511.5600, 7115.464
512.0421, 7129.589
512.5242, 7128.892
513.0063, 7119.741
513.4885, 7105.276
513.9706, 7087.411
514.4527, 7077.440
514.9348, 7078.303
515.4169, 7079.730
515.8990, 7074.729
516.3812, 7070.572
516.8633, 7076.733
517.3454, 7095.194
517.8275, 7109.991
518.3096, 7112.635
518.7917, 7107.146
519.2739, 7095.688
519.7560, 7079.597
520.2381, 7068.023
520.7202, 7065.874
521.2023, 7073.150
521.6844, 7090.054
522.1666, 7147.130
522.6487, 7172.052
523.1308, 7134.579
523.6129, 7087.460
524.0950, 7071.356
524.5771, 7083.869
525.0593, 7097.272
525.5414, 7092.358
526.0235, 7073.994
526.5056, 7052.969
526.9877, 7027.281
527.4698, 7010.570
527.9520, 7013.405
528.4341, 7021.609
528.9162, 7016.580
529.3983, 6997.989
529.8804, 6987.036
530.3625, 6996.368
530.8447, 7011.805
531.3268, 7020.913
531.8089, 7024.464
532.2910, 7029.579
532.7731, 7040.543
533.2552, 7050.046
533.7374, 7040.455
534.2195, 6993.382
534.7016, 6968.035
535.1837, 6978.042
535.6658, 6994.416
536.1479, 7005.855
536.6301, 7012.380
537.1122, 7017.471
537.5943, 7023.434
538.0764, 7026.776
538.5585, 7019.714
539.0406, 7003.467
539.5228, 6994.671
540.0049, 7001.076
540.4870, 7005.962
540.9691, 6986.088
541.4512, 6943.068
541.9333, 6923.438
542.4155, 6951.754
542.8976, 6979.940
543.3797, 6982.931
543.8618, 6972.758
544.3439, 6971.796
544.8260, 6985.671
545.3082, 6997.626
545.7903, 6982.737
546.2724, 6938.407
546.7545, 6915.761
547.2366, 6927.670
547.7188, 6941.996
548.2009, 6951.778
548.6830, 6954.543
549.1651, 6940.855
549.6472, 6903.434
550.1293, 6881.887
550.6115, 6923.015
551.0936, 6991.165
551.5757, 7018.563
552.0578, 6998.782
552.5399, 6967.277
553.0220, 6945.024
553.5042, 6932.505
553.9863, 6931.909
554.4684, 6963.044
554.9505, 6979.958
555.4326, 6973.808
555.9147, 6958.853
556.3969, 6944.361
556.8790, 6931.319
557.3611, 6915.620
557.8432, 6889.465
558.3253, 6864.792
558.8074, 6877.456
559.2896, 6931.773
559.7717, 6965.523
560.2538, 6953.242
560.7359, 6923.076
561.2180, 6907.173
561.7001, 6904.711
562.1823, 6904.271
562.6644, 6909.718
563.1465, 6911.096
563.6286, 6892.271
564.1107, 6866.509
564.5928, 6866.476
565.0750, 6903.072
565.5571, 6944.305
566.0392, 6940.968
566.5213, 6885.189
567.0034, 6843.133
567.4855, 6813.648
567.9677, 6800.717
568.4498, 6816.574
568.9319, 6844.061
569.4140, 6858.292
569.8961, 6851.808
570.3782, 6842.462
570.8604, 6843.816
571.3425, 6849.649
571.8246, 6849.073
572.3067, 6840.962
572.7888, 6828.501
573.2709, 6812.681
573.7531, 6795.372
574.2352, 6784.077
574.7173, 6777.128
575.1994, 6779.525
575.6815, 6806.266
576.1636, 6829.589
576.6458, 6824.270
577.1279, 6797.448
577.6100, 6778.608
578.0921, 6788.155
578.5742, 6809.553
579.0563, 6812.037
579.5385, 6797.298
580.0206, 6796.231
580.5027, 6822.231
580.9848, 6850.383
581.4669, 6850.709
581.9490, 6820.705
582.4312, 6804.851
582.9133, 6809.854
583.3954, 6821.397
583.8775, 6840.848
584.3596, 6860.601
584.8417, 6871.113
585.3239, 6870.177
585.8060, 6861.872
586.2881, 6847.953
586.7702, 6829.643
587.2523, 6816.603
587.7344, 6807.729
588.2166, 6808.318
588.6987, 6832.749
589.1808, 6860.126
589.6629, 6859.215
590.1450, 6824.755
590.6271, 6795.635
591.1093, 6785.982
591.5914, 6784.702
592.0735, 6782.692
592.5556, 6780.462
593.0377, 6782.554
593.5198, 6791.197
594.0020, 6802.526
594.4841, 6809.355
594.9662, 6810.610
595.4483, 6811.698
595.9304, 6814.089
596.4125, 6814.372
596.8947, 6806.886
597.3768, 6797.569
597.8589, 6799.366
598.3410, 6821.773
598.8231, 6834.633
599.3052, 6808.265
599.7874, 6763.319
600.2695, 6731.968
600.7516, 6718.350
601.2337, 6716.868
601.7158, 6725.046
602.1979, 6740.302
602.6801, 6753.288
603.1622, 6767.259
603.6443, 6772.756
604.1264, 6757.224
604.6085, 6744.636
605.0906, 6751.783
605.5728, 6773.943
606.0549, 6795.634
606.5370, 6812.064
607.0191, 6821.802
607.5012, 6818.706
607.9833, 6807.139
608.4655, 6804.766
608.9476, 6816.136
609.4297, 6826.594
609.9118, 6821.737
610.3939, 6802.664
610.8760, 6788.880
611.3582, 6783.610
611.8403, 6779.605
612.3224, 6776.537
612.8045, 6774.112
613.2866, 6771.471
613.7687, 6769.074
614.2509, 6769.557
614.7330, 6779.063
615.2151, 6788.698
615.6972, 6778.777
616.1793, 6751.293
616.6614, 6730.357
617.1436, 6723.861
617.6257, 6723.615
618.1078, 6718.447
618.5899, 6706.707
619.0720, 6711.811
619.5541, 6755.575
620.0363, 6788.557
620.5184, 6791.230
621.0005, 6778.468
621.4826, 6762.984
621.9647, 6749.465
622.4468, 6743.948
622.9290, 6757.966
623.4111, 6782.064
623.8932, 6788.384
624.3753, 6776.298
624.8574, 6758.125
625.3395, 6734.048
625.8217, 6713.202
626.3038, 6712.001
626.7859, 6737.119
627.2680, 6744.449
627.7501, 6711.544
628.2322, 6684.650
628.7144, 6687.665
629.1965, 6707.008
629.6786, 6725.361
630.1607, 6737.034
630.6428, 6742.088
631.1249, 6737.096
631.6071, 6725.041
632.0892, 6720.173
632.5713, 6723.859
633.0534, 6724.448
633.5355, 6714.216
634.0176, 6701.497
634.4998, 6702.818
634.9819, 6723.690
635.4640, 6730.577
635.9461, 6700.286
636.4282, 6676.763
636.9103, 6692.508
637.3925, 6727.008
637.8746, 6746.226
638.3567, 6739.263
638.8388, 6721.058
639.3209, 6705.578
639.8030, 6692.696
640.2852, 6682.932
640.7673, 6677.305
641.2494, 6668.245
641.7315, 6649.390
642.2136, 6627.977
642.6957, 6617.866
643.1779, 6620.971
643.6600, 6626.138
644.1421, 6630.207
644.6242, 6638.511
645.1063, 6667.694
645.5884, 6699.016
646.0706, 6695.604
646.5527, 6646.493
647.0348, 6590.533
647.5169, 6568.922
647.9990, 6578.025
648.4811, 6604.695
648.9633, 6653.685
649.4454, 6684.360
649.9275, 6670.757
650.4096, 6634.988
650.8917, 6618.631
651.3738, 6627.716
651.8560, 6633.448
652.3381, 6634.460
652.8202, 6631.416
653.3023, 6615.579
653.7844, 6598.855
654.2665, 6604.318
654.7487, 6638.536
655.2308, 6673.998
655.7129, 6678.617
656.1950, 6660.225
656.6771, 6648.630
657.1592, 6645.137
657.6414, 6642.351
658.1235, 6636.466
658.6056, 6630.152
659.0876, 6628.729
659.5698, 6635.214
660.0519, 6636.840
660.5340, 6618.780
661.0161, 6612.122
661.4982, 6644.994
661.9803, 6691.351
662.4625, 6712.313
662.9446, 6697.786
663.4267, 6674.529
663.9088, 6663.944
664.3909, 6662.974
664.8730, 6665.105
665.3552, 6670.081
665.8373, 6675.387
666.3194, 6679.892
666.8015, 6684.393
667.2836, 6690.069
667.7657, 6696.911
668.2479, 6704.978
668.7300, 6712.000
669.2121, 6722.719
669.6942, 6750.572
670.1763, 6776.471
670.6584, 6771.682
671.1406, 6733.302
671.6227, 6699.687
672.1048, 6700.297
672.5869, 6720.475
673.0690, 6744.948
673.5511, 6770.202
674.0333, 6777.043
674.5154, 6757.450
674.9975, 6728.393
675.4796, 6711.352
675.9617, 6707.016
676.4438, 6704.790
676.9260, 6690.816
677.4081, 6699.365
677.8902, 6779.080
678.3723, 6855.234
678.8544, 6846.185
679.3365, 6753.417
679.8187, 6667.258
680.3008, 6632.364
680.7829, 6622.049
681.2650, 6621.824
681.7471, 6625.237
682.2292, 6616.219
682.7114, 6590.958
683.1935, 6560.182
683.6756, 6532.141
684.1577, 6508.513
684.6398, 6505.779
685.1219, 6536.486
685.6041, 6556.516
686.0862, 6552.872
686.5683, 6537.948
687.0504, 6518.875
687.5325, 6496.882
688.0146, 6478.360
688.4968, 6471.414
688.9789, 6460.740
689.4610, 6430.363
689.9431, 6396.171
690.4252, 6382.269
690.9073, 6388.588
691.3895, 6393.930
691.8716, 6381.874
692.3537, 6360.620
692.8358, 6348.911
693.3179, 6346.545
693.8000, 6360.031
694.2822, 6401.090
694.7643, 6434.035
695.2464, 6424.739
695.7285, 6383.159
696.2106, 6359.807
696.6927, 6361.747
697.1749, 6370.146
697.6570, 6390.830
698.1391, 6409.425
698.6212, 6418.010
699.1033, 6415.017
699.5854, 6395.245
700.0676, 6352.753
700.5497, 6314.662
701.0318, 6324.758
701.5139, 6366.917
701.9960, 6381.881
702.4781, 6363.504
702.9603, 6337.557
703.4424, 6316.701
703.9245, 6300.790
704.4066, 6289.481
704.8887, 6282.126
705.3708, 6281.053
705.8530, 6302.542
706.3351, 6312.005
706.8172, 6284.707
707.2993, 6243.240
707.7814, 6219.293
708.2635, 6219.860
708.7457, 6227.804
709.2278, 6238.060
709.7099, 6246.929
710.1920, 6249.313
710.6741, 6246.351
711.1563, 6241.144
711.6384, 6234.892
712.1205, 6230.611
712.6026, 6233.766
713.0847, 6243.672
713.5668, 6239.799
714.0490, 6211.170
714.5311, 6199.110
715.0132, 6227.291
715.4953, 6267.083
715.9774, 6288.738
716.4595, 6293.238
716.9417, 6295.691
717.4238, 6305.558
717.9059, 6305.267
718.3880, 6276.559
718.8701, 6240.135
719.3522, 6220.295
719.8344, 6218.448
720.3165, 6220.824
720.7986, 6218.587
721.2807, 6214.152
721.7628, 6209.529
722.2449, 6205.699
722.7271, 6213.257
723.2092, 6236.119
723.6913, 6256.384
724.1734, 6261.734
724.6555, 6253.417
725.1376, 6235.217
725.6198, 6186.693
726.1019, 6163.361
726.5840, 6193.975
727.0661, 6219.313
727.5482, 6202.323
728.0303, 6161.011
728.5125, 6128.715
728.9946, 6112.841
729.4767, 6113.258
729.9588, 6136.859
730.4409, 6172.256
730.9230, 6217.490
731.4052, 6262.544
731.8873, 6273.999
732.3694, 6237.888
732.8515, 6182.647
733.3336, 6142.211
733.8157, 6116.770
734.2979, 6121.719
734.7800, 6170.835
735.2621, 6203.197
735.7442, 6188.617
736.2263, 6157.413
736.7084, 6149.305
737.1906, 6164.798
737.6727, 6170.740
738.1548, 6142.887
738.6369, 6132.787
739.1190, 6183.875
739.6011, 6243.396
740.0833, 6252.786
740.5654, 6213.282
741.0475, 6168.137
741.5296, 6138.942
742.0117, 6122.191
742.4938, 6117.399
742.9760, 6121.274
743.4581, 6127.149
743.9402, 6133.289
744.4223, 6124.474
744.9044, 6085.603
745.3865, 6034.846
745.8687, 6029.093
746.3508, 6088.621
746.8329, 6128.486
747.3150, 6145.338
747.7971, 6142.256
748.2792, 6100.435
748.7614, 6047.870
749.2435, 6032.454
749.7256, 6067.607
750.2077, 6091.298
750.6898, 6075.501
751.1719, 6052.117
751.6541, 6036.378
752.1362, 6030.822
752.6183, 6042.590
753.1004, 6070.919
753.5825, 6094.919
754.0646, 6093.206
754.5468, 6074.945
755.0289, 6060.326
755.5110, 6049.214
755.9931, 6038.878
756.4752, 6028.010
756.9573, 6022.388
757.4395, 6029.019
757.9216, 6045.904
758.4037, 6055.628
758.8858, 6053.198
759.3679, 6053.173
759.8500, 6062.625
760.3322, 6069.633
760.8143, 6064.883
761.2964, 6052.970
761.7785, 6045.674
762.2606, 6048.123
762.7427, 6047.764
763.2249, 6033.479
763.7070, 6018.397
764.1891, 6016.087
764.6712, 6023.071
765.1533, 6029.832
765.6354, 6032.514
766.1176, 6030.747
766.5997, 6022.526
767.0818, 6009.512
767.5639, 5995.765
768.0460, 5981.394
768.5281, 5976.624
769.0103, 5986.218
769.4924, 6001.456
769.9745, 6012.030
770.4566, 6018.021
770.9387, 6029.028
771.4208, 6053.060
771.9030, 6068.941
772.3851, 6068.287
772.8672, 6063.322
773.3493, 6061.745
773.8314, 6062.702
774.3135, 6062.813
774.7957, 6065.307
775.2778, 6058.996
775.7599, 6023.060
776.2420, 5987.694
776.7241, 5991.111
777.2062, 6021.549
777.6884, 6040.849
778.1705, 6032.482
778.6526, 6012.293
779.1347, 5995.750
779.6168, 5983.025
780.0989, 5974.171
780.5811, 5969.306
781.0632, 5971.871
781.5453, 5984.249
782.0274, 5999.178
782.5095, 6007.894
782.9916, 6010.330
783.4738, 6008.936
783.9559, 5995.486
784.4380, 5993.638
784.9201, 6024.036
785.4022, 6053.096
785.8843, 6053.512
786.3665, 6032.125
786.8486, 6015.229
787.3307, 6009.109
787.8128, 6004.708
788.2949, 6001.812
788.7770, 5996.942
789.2592, 5983.861
789.7413, 5966.857
790.2234, 5955.677
790.7055, 5954.229
791.1876, 5958.351
791.6697, 5969.647
792.1519, 5981.521
792.6340, 5977.167
793.1161, 5958.640
793.5982, 5938.919
794.0803, 5922.082
794.5624, 5916.727
795.0446, 5937.467
795.5267, 5978.839
796.0088, 5982.762
796.4909, 5934.633
796.9730, 5898.314
797.4551, 5891.281
797.9373, 5891.874
798.4194, 5885.729
798.9015, 5873.291
799.3836, 5856.978
799.8657, 5831.063
800.3478, 5811.393
800.8300, 5796.129
801.3121, 5791.446
801.7942, 5806.809
802.2763, 5833.293
802.7584, 5858.468
803.2405, 5878.948
803.7227, 5891.196
804.2048, 5889.361
804.6869, 5880.728
805.1690, 5869.051
805.6511, 5858.088
806.1332, 5859.542
806.6154, 5874.366
807.0975, 5885.596
807.5796, 5878.187
808.0617, 5857.104
808.5438, 5829.733
809.0259, 5796.012
809.5081, 5790.671
809.9902, 5825.184
810.4723, 5856.343
810.9544, 5852.728
811.4365, 5830.010
811.9186, 5830.215
812.4008, 5866.671
812.8829, 5888.747
813.3650, 5891.316
813.8471, 5885.526
814.3292, 5870.580
814.8113, 5851.950
815.2935, 5833.535
815.7756, 5816.027
816.2577, 5806.270
816.7398, 5811.610
817.2219, 5819.001
817.7040, 5827.819
818.1862, 5831.521
818.6683, 5820.513
819.1504, 5797.054
819.6325, 5770.806
820.1146, 5744.800
820.5967, 5726.471
821.0789, 5727.552
821.5610, 5741.363
822.0431, 5758.615
822.5252, 5775.615
823.0073, 5776.595
823.4894, 5754.259
823.9715, 5723.006
824.4536, 5700.899
824.9357, 5687.833
825.4178, 5681.278
825.9000, 5680.396
826.3821, 5693.308
826.8642, 5731.036
827.3463, 5763.579
827.8284, 5758.556
828.3105, 5723.280
828.7927, 5707.848
829.2748, 5737.777
829.7569, 5747.741
830.2390, 5720.668
830.7211, 5689.981
831.2032, 5669.266
831.6854, 5656.803
832.1675, 5648.158
832.6496, 5642.471
833.1317, 5642.416
833.6138, 5656.400
834.0959, 5668.553
834.5781, 5664.155
835.0602, 5653.472
835.5423, 5654.875
836.0244, 5668.046
836.5065, 5671.628
836.9886, 5644.749
837.4708, 5616.658
837.9529, 5640.083
838.4350, 5688.533
838.9171, 5686.275
839.3992, 5633.426
839.8813, 5598.564
840.3635, 5618.860
840.8456, 5656.431
841.3277, 5642.996
841.8098, 5581.372
842.2919, 5564.534
842.7740, 5600.637
843.2562, 5628.962
843.7383, 5628.034
844.2204, 5618.150
844.7025, 5620.268
845.1846, 5632.944
845.6667, 5640.607
846.1489, 5633.861
846.6310, 5638.513
847.1131, 5685.541
847.5952, 5714.158
848.0773, 5673.005
848.5594, 5599.386
849.0416, 5564.218
849.5237, 5582.323
850.0058, 5600.360
850.4879, 5606.452
850.9700, 5607.915
851.4521, 5608.337
851.9343, 5606.683
852.4164, 5597.947
852.8985, 5584.276
853.3806, 5579.723
853.8627, 5600.618
854.3448, 5617.975
854.8270, 5595.375
855.3091, 5556.820
855.7912, 5542.957
856.2733, 5551.729
856.7554, 5555.377
857.2375, 5541.047
857.7197, 5526.771
858.2018, 5543.387
858.6839, 5579.040
859.1660, 5583.551
859.6481, 5558.856
860.1302, 5538.597
860.6124, 5532.655
861.0945, 5525.859
861.5766, 5501.663
862.0587, 5468.466
862.5408, 5465.971
863.0229, 5505.226
863.5051, 5524.597
863.9872, 5509.414
864.4693, 5495.489
864.9514, 5502.478
865.4335, 5521.218
865.9156, 5538.007
866.3978, 5555.813
866.8799, 5556.706
867.3620, 5530.907
867.8441, 5502.008
868.3262, 5463.299
868.8083, 5433.264
869.2905, 5433.391
869.7726, 5456.127
870.2547, 5471.504
870.7368, 5472.155
871.2189, 5466.220
871.7010, 5446.796
872.1832, 5431.144
872.6653, 5434.841
873.1474, 5451.161
873.6295, 5470.627
874.1116, 5489.534
874.5938, 5499.529
875.0759, 5489.935
875.5580, 5472.966
876.0401, 5457.015
876.5222, 5444.740
877.0043, 5442.670
877.4865, 5450.014
877.9686, 5460.326
878.4507, 5470.725
878.9328, 5475.242
879.4149, 5459.831
879.8970, 5431.646
880.3792, 5419.208
880.8613, 5421.909
881.3434, 5418.483
881.8255, 5401.364
882.3076, 5384.239
882.7897, 5382.378
883.2719, 5391.823
883.7540, 5389.909
884.2361, 5372.856
884.7182, 5377.633
885.2003, 5418.018
885.6824, 5451.133
886.1646, 5449.125
886.6467, 5428.117
887.1288, 5420.408
887.6109, 5429.837
888.0930, 5431.966
888.5751, 5417.651
889.0573, 5410.915
889.5394, 5392.252
890.0215, 5415.074
890.5036, 5425.741
890.9857, 5424.906
891.4678, 5378.121
891.9500, 5390.669
892.4321, 5379.440
892.9142, 5367.236
893.3963, 5388.137
893.8784, 5348.035
894.3605, 5368.411
894.8427, 5364.644
895.3248, 5371.927
895.8069, 5355.285
896.2890, 5346.032
896.7711, 5360.712
897.2532, 5345.560
897.7354, 5341.669
898.2175, 5358.207
898.6996, 5385.061
899.1817, 5388.540
899.6638, 5352.616
900.1459, 5316.696
900.6281, 5314.993
901.1102, 5330.937
901.5923, 5351.313
902.0744, 5370.035
902.5565, 5371.966
903.0386, 5356.444
903.5208, 5342.756
904.0029, 5346.063
904.4850, 5355.949
904.9671, 5357.636
905.4492, 5351.095
905.9313, 5330.046
906.4135, 5297.164
906.8956, 5278.314
907.3777, 5284.389
907.8598, 5318.821
908.3419, 5345.697
908.8240, 5360.418
909.3062, 5363.637
909.7883, 5320.907
910.2704, 5337.511
910.7525, 5330.337
911.2346, 5322.188
911.7167, 5347.144
912.1989, 5311.096
912.6810, 5335.527
913.1631, 5335.816
913.6452, 5347.154
914.1273, 5334.567
914.6094, 5329.369
915.0916, 5348.104
915.5737, 5298.667
916.0558, 5295.438
916.5379, 5286.855
917.0200, 5283.572
917.5021, 5287.554
917.9843, 5293.373
918.4664, 5306.432
918.9485, 5314.606
919.4306, 5305.598
919.9127, 5293.178
920.3948, 5301.233
920.8770, 5331.061
921.3591, 5335.072
921.8412, 5274.543
922.3233, 5235.645
922.8054, 5253.917
923.2875, 5242.487
923.7697, 5270.677
924.2518, 5286.712
924.7339, 5291.246
925.2160, 5249.830
925.6981, 5267.748
926.1802, 5261.888
926.6624, 5255.053
927.1445, 5281.322
927.6266, 5246.589
928.1087, 5272.334
928.5908, 5273.937
929.0729, 5286.589
929.5551, 5275.315
930.0372, 5271.432
930.5193, 5291.481
931.0014, 5298.279
931.4835, 5284.251
931.9656, 5297.605
932.4478, 5292.249
932.9299, 5295.563
933.4120, 5297.860
933.8941, 5300.478
934.3762, 5294.456
934.8583, 5255.974
935.3405, 5210.592
935.8226, 5208.660
936.3047, 5238.960
936.7868, 5253.124
937.2689, 5234.495
937.7510, 5206.378
938.2332, 5186.745
938.7153, 5176.229
939.1974, 5179.518
939.6795, 5192.397
940.1616, 5202.919
940.6437, 5209.626
941.1259, 5216.639
941.6080, 5226.223
942.0901, 5235.047
942.5722, 5240.541
943.0543, 5241.246
943.5364, 5227.869
944.0186, 5202.646
944.5007, 5182.551
944.9828, 5171.542
945.4649, 5170.918
945.9470, 5183.027
946.4291, 5200.319
946.9113, 5202.306
947.3934, 5190.734
947.8755, 5206.676
948.3576, 5253.495
948.8397, 5280.386
949.3218, 5270.117
949.8040, 5240.551
950.2861, 5205.237
950.7682, 5168.711
951.2503, 5150.265
951.7324, 5152.228
952.2145, 5149.316
952.6967, 5136.463
953.1788, 5136.281
953.6609, 5164.131
954.1430, 5193.921
954.6251, 5190.569
955.1072, 5158.118
955.5894, 5145.535
956.0715, 5158.726
956.5536, 5171.948
957.0357, 5183.296
957.5178, 5192.585
957.9999, 5200.563
958.4821, 5205.501
958.9642, 5204.798
959.4463, 5198.536
959.9284, 5184.424
960.4105, 5149.906
960.8926, 5135.580
961.3748, 5166.559
961.8569, 5192.271
962.3390, 5172.895
962.8211, 5129.105
963.3032, 5107.993
963.7853, 5117.315
964.2675, 5116.557
964.7496, 5088.227
965.2317, 5075.873
965.7138, 5106.316
966.1959, 5139.060
966.6780, 5141.421
967.1602, 5122.084
967.6423, 5106.443
968.1244, 5091.198
968.6065, 5089.139
969.0886, 5116.543
969.5707, 5136.952
970.0529, 5134.362
970.5350, 5124.250
971.0171, 5118.575
971.4992, 5117.688
971.9813, 5121.720
972.4634, 5139.865
972.9456, 5144.006
973.4277, 5114.496
973.9098, 5089.509
974.3919, 5091.386
974.8740, 5102.361
975.3561, 5102.119
975.8383, 5091.061
976.3204, 5082.378
976.8025, 5078.664
977.2846, 5076.880
977.7667, 5078.871
978.2488, 5079.881
978.7310, 5079.313
979.2131, 5074.993
979.6952, 5058.614
980.1773, 5032.222
980.6594, 5022.738
981.1415, 5050.032
981.6237, 5076.951
982.1058, 5095.895
982.5879, 5108.046
983.0700, 5114.573
983.5521, 5114.766
984.0342, 5103.735
984.5164, 5081.824
984.9985, 5068.210
985.4806, 5071.927
985.9627, 5081.129
986.4448, 5100.096
986.9269, 5114.501
987.4091, 5111.195
987.8912, 5095.811
988.3732, 5079.222
988.8553, 5063.565
989.3375, 5045.451
989.8196, 5018.754
990.3017, 4995.546
990.7838, 4980.349
991.2659, 4972.091
991.7480, 4971.203
992.2302, 4976.029
992.7123, 4984.121
993.1944, 4995.016
993.6765, 5007.106
994.1586, 5023.889
994.6407, 5036.671
995.1229, 5040.560
995.6050, 5038.591
996.0871, 5029.057
996.5692, 5017.207
997.0513, 5015.508
997.5334, 5027.940
998.0156, 5037.226
998.4977, 5031.979
998.9798, 5025.592
999.4619, 5024.025
999.9440, 5026.272
1000.426, 5032.522
1000.908, 5041.217
1001.390, 5049.804
1001.872, 5057.949
1002.355, 5062.289
1002.837, 5059.485
1003.319, 5054.487
1003.801, 5043.888
1004.283, 5037.549
1004.765, 5054.146
1005.247, 5083.197
1005.729, 5092.125
1006.212, 5068.944
1006.694, 5046.357
1007.176, 5042.103
1007.658, 5039.365
1008.140, 5021.312
1008.622, 5004.444
1009.104, 5016.233
1009.586, 5044.769
1010.068, 5047.592
1010.551, 5006.548
1011.033, 4976.059
1011.515, 4985.936
1011.997, 5006.074
1012.479, 5029.716
1012.961, 5045.930
1013.443, 5036.196
1013.925, 5009.810
1014.408, 4997.326
1014.890, 5009.855
1015.372, 5022.354
1015.854, 5027.218
1016.336, 5026.251
1016.818, 5017.776
1017.300, 5005.939
1017.782, 4992.587
1018.264, 4979.928
1018.747, 4973.131
1019.229, 4974.976
1019.711, 4976.035
1020.193, 4971.710
1020.675, 4967.310
1021.157, 4968.997
1021.639, 4969.128
1022.121, 4956.707
1022.604, 4936.321
1023.086, 4923.697
1023.568, 4924.163
1024.050, 4922.910
1024.532, 4910.323
1025.014, 4901.667
1025.496, 4911.035
1025.978, 4921.209
1026.460, 4912.473
1026.943, 4891.358
1027.425, 4879.065
1027.907, 4880.205
1028.389, 4885.043
1028.871, 4893.543
1029.353, 4902.589
1029.835, 4917.885
1030.317, 4927.159
1030.800, 4913.173
1031.282, 4885.879
1031.764, 4872.213
1032.246, 4877.070
1032.728, 4887.169
1033.210, 4910.983
1033.692, 4926.170
1034.174, 4899.314
1034.656, 4920.100
1035.139, 4928.716
1035.621, 4925.847
1036.103, 4877.026
1036.585, 4887.542
1037.067, 4874.277
1037.549, 4860.040
1038.031, 4878.905
1038.513, 4836.769
1038.995, 4855.109
1039.478, 4849.293
1039.960, 4832.882
1040.442, 4832.834
1040.924, 4850.394
1041.406, 4857.560
1041.888, 4853.060
1042.370, 4839.030
1042.852, 4796.300
1043.335, 4771.515
1043.817, 4804.017
1044.299, 4863.939
1044.781, 4900.615
1045.263, 4913.900
1045.745, 4904.949
1046.227, 4859.208
1046.709, 4827.521
1047.192, 4821.077
1047.674, 4821.172
1048.156, 4818.866
1048.638, 4815.618
1049.120, 4813.222
1049.602, 4811.761
1050.084, 4812.955
1050.566, 4814.488
1051.048, 4832.705
1051.531, 4878.795
1052.013, 4906.144
1052.495, 4888.926
1052.977, 4850.593
1053.459, 4819.877
1053.941, 4796.208
1054.423, 4771.332
1054.905, 4743.130
1055.387, 4750.102
1055.870, 4800.948
1056.352, 4832.171
1056.834, 4815.458
1057.316, 4783.972
1057.798, 4772.536
1058.280, 4777.071
1058.762, 4787.828
1059.244, 4803.742
1059.727, 4809.465
1060.209, 4804.380
1060.691, 4796.630
1061.173, 4789.013
1061.655, 4783.972
1062.137, 4784.439
1062.619, 4786.461
1063.101, 4780.417
1063.583, 4769.243
1064.066, 4763.570
1064.548, 4763.070
1065.030, 4761.830
1065.512, 4759.114
1065.994, 4763.979
1066.476, 4784.443
1066.958, 4805.853
1067.440, 4805.879
1067.922, 4794.151
1068.405, 4789.885
1068.887, 4788.965
1069.369, 4776.292
1069.851, 4752.511
1070.333, 4733.384
1070.815, 4726.554
1071.297, 4729.872
1071.779, 4752.918
1072.261, 4774.419
1072.744, 4767.348
1073.226, 4743.934
1073.708, 4716.471
1074.190, 4692.396
1074.672, 4687.282
1075.154, 4707.424
1075.636, 4725.309
1076.118, 4715.327
1076.601, 4707.804
1077.083, 4731.573
1077.565, 4761.102
1078.047, 4771.783
1078.529, 4766.345
1079.011, 4752.934
1079.493, 4733.436
1079.975, 4721.337
1080.458, 4721.370
1080.940, 4729.282
1081.422, 4756.777
1081.904, 4777.883
1082.386, 4771.216
1082.868, 4749.604
1083.350, 4732.077
1083.832, 4719.949
1084.314, 4706.917
1084.797, 4684.109
1085.279, 4673.188
1085.761, 4686.729
1086.243, 4698.848
1086.725, 4699.904
1087.207, 4694.753
1087.689, 4683.440
1088.171, 4670.004
1088.653, 4676.347
1089.136, 4717.259
1089.618, 4733.316
1090.100, 4713.828
1090.582, 4695.291
1091.064, 4685.400
1091.546, 4685.772
1092.028, 4700.713
1092.510, 4722.229
1092.993, 4731.478
1093.475, 4728.154
1093.957, 4720.145
1094.439, 4706.377
1094.921, 4704.747
1095.403, 4719.840
1095.885, 4730.276
1096.367, 4723.314
1096.849, 4709.360
1097.332, 4702.185
1097.814, 4700.875
1098.296, 4707.851
1098.778, 4718.219
1099.260, 4698.045
1099.742, 4651.779
1100.224, 4635.852
1100.706, 4670.225
1101.188, 4710.833
1101.671, 4721.084
1102.153, 4710.303
1102.635, 4683.955
1103.117, 4651.267
1103.599, 4621.053
1104.081, 4600.391
1104.563, 4609.878
1105.045, 4647.479
1105.528, 4676.132
1106.010, 4673.445
1106.492, 4666.613
1106.974, 4680.768
1107.456, 4694.541
1107.938, 4688.378
1108.420, 4671.126
1108.902, 4651.282
1109.385, 4632.443
1109.867, 4620.082
1110.349, 4616.028
1110.831, 4615.663
1111.313, 4617.443
1111.795, 4622.668
1112.277, 4637.297
1112.759, 4650.107
1113.241, 4649.095
1113.724, 4641.813
1114.206, 4643.992
1114.688, 4657.369
1115.170, 4665.790
1115.652, 4672.559
1116.134, 4667.408
1116.616, 4641.152
1117.098, 4618.771
1117.580, 4612.771
1118.063, 4611.767
1118.545, 4601.072
1119.027, 4585.821
1119.509, 4593.842
1119.991, 4631.348
1120.473, 4632.294
1120.955, 4588.840
1121.437, 4573.930
1121.920, 4609.701
1122.402, 4644.076
1122.884, 4638.355
1123.366, 4614.527
1123.848, 4613.204
1124.330, 4625.693
1124.812, 4614.704
1125.294, 4587.411
1125.776, 4573.622
1126.259, 4575.276
1126.741, 4578.558
1127.223, 4577.157
1127.705, 4565.287
1128.187, 4522.567
1128.669, 4487.846
1129.151, 4520.864
1129.633, 4578.936
1130.115, 4609.199
1130.598, 4615.708
1131.080, 4616.319
1131.562, 4614.761
1132.044, 4605.799
1132.526, 4583.814
1133.008, 4563.056
1133.490, 4543.006
1133.972, 4534.286
1134.455, 4556.832
1134.937, 4582.637
1135.419, 4570.057
1135.901, 4537.686
1136.383, 4553.434
1136.865, 4647.464
1137.347, 4682.841
1137.829, 4607.964
1138.312, 4559.004
1138.794, 4574.136
1139.276, 4586.113
1139.758, 4552.828
1140.240, 4508.011
1140.722, 4499.519
1141.204, 4521.058
1141.686, 4526.120
1142.168, 4512.044
1142.651, 4518.537
1143.133, 4549.916
1143.615, 4560.574
1144.097, 4535.585
1144.579, 4506.054
1145.061, 4495.088
1145.543, 4498.484
1146.025, 4512.123
1146.507, 4533.436
1146.990, 4564.461
1147.472, 4595.172
1147.954, 4592.419
1148.436, 4560.082
1148.918, 4533.572
1149.400, 4526.818
1149.882, 4524.027
1150.364, 4513.066
1150.847, 4501.577
1151.329, 4490.892
1151.811, 4487.088
1152.293, 4506.560
1152.775, 4531.759
1153.257, 4530.542
1153.739, 4503.407
1154.221, 4483.165
1154.703, 4481.609
1155.186, 4477.300
1155.668, 4462.021
1156.150, 4448.833
1156.632, 4443.062
1157.114, 4439.446
1157.596, 4427.203
1158.078, 4419.991
1158.560, 4453.623
1159.042, 4530.947
1159.525, 4549.602
1160.007, 4495.777
1160.489, 4451.996
1160.971, 4426.208
1161.453, 4428.784
1161.935, 4466.720
1162.417, 4511.128
1162.899, 4535.175
1163.382, 4540.798
1163.864, 4527.362
1164.346, 4500.002
1164.828, 4468.324
1165.310, 4438.879
1165.792, 4435.588
1166.274, 4456.690
1166.756, 4472.611
1167.239, 4469.312
1167.721, 4461.964
1168.203, 4464.549
1168.685, 4465.985
1169.167, 4451.791
1169.649, 4436.713
1170.131, 4434.550
1170.613, 4443.342
1171.095, 4464.989
1171.578, 4495.653
1172.060, 4501.539
1172.542, 4454.604
1173.024, 4423.595
1173.506, 4423.907
1173.988, 4431.923
1174.470, 4450.305
1174.952, 4460.597
1175.434, 4442.559
1175.917, 4414.428
1176.399, 4416.395
1176.881, 4447.517
1177.363, 4462.414
1177.845, 4460.376
1178.327, 4453.735
1178.809, 4443.926
1179.291, 4433.156
1179.774, 4422.270
1180.256, 4415.079
1180.738, 4414.802
1181.220, 4420.247
1181.702, 4437.467
1182.184, 4453.878
1182.666, 4437.479
1183.148, 4406.203
1183.630, 4403.185
1184.113, 4424.190
1184.595, 4427.743
1185.077, 4398.613
1185.559, 4385.251
1186.041, 4439.076
1186.523, 4477.777
1187.005, 4445.131
1187.487, 4406.203
1187.969, 4402.375
1188.452, 4420.312
1188.934, 4449.769
1189.416, 4484.039
1189.898, 4490.939
1190.380, 4463.232
1190.862, 4430.139
1191.344, 4382.353
1191.826, 4364.958
1192.309, 4394.948
1192.791, 4419.665
1193.273, 4407.185
1193.755, 4385.564
1194.237, 4393.217
1194.719, 4418.249
1195.201, 4425.461
1195.683, 4420.138
1196.166, 4421.339
1196.648, 4426.574
1197.130, 4418.413
1197.612, 4396.960
1198.094, 4386.414
1198.576, 4400.842
1199.058, 4415.260
1199.540, 4406.259
1200.022, 4396.716
1200.505, 4409.037
1200.987, 4422.323
1201.469, 4410.157
1201.951, 4387.701
1202.433, 4388.883
1202.915, 4414.721
1203.397, 4419.512
1203.879, 4384.530
1204.361, 4364.451
1204.844, 4368.197
1205.326, 4365.291
1205.808, 4344.538
1206.290, 4324.305
1206.772, 4316.020
1207.254, 4319.934
1207.736, 4342.270
1208.218, 4373.260
1208.701, 4363.161
1209.183, 4325.675
1209.665, 4318.190
1210.147, 4340.200
1210.629, 4369.463
1211.111, 4397.172
1211.593, 4415.799
1212.075, 4420.920
1212.557, 4415.598
1213.040, 4391.430
1213.522, 4370.099
1214.004, 4369.034
1214.486, 4377.618
1214.968, 4389.479
1215.450, 4400.839
1215.932, 4406.463
1216.414, 4405.878
1216.896, 4402.500
1217.379, 4393.591
1217.861, 4389.083
1218.343, 4391.805
1218.825, 4390.959
1219.307, 4381.763
1219.789, 4375.558
1220.271, 4380.541
1220.753, 4391.297
1221.236, 4401.723
1221.718, 4408.956
1222.200, 4395.027
1222.682, 4371.782
1223.164, 4386.109
1223.646, 4424.813
1224.128, 4430.793
1224.610, 4395.232
1225.093, 4355.823
1225.575, 4327.468
1226.057, 4316.344
1226.539, 4342.170
1227.021, 4366.244
1227.503, 4361.798
1227.985, 4351.241
1228.467, 4353.966
1228.949, 4363.056
1229.432, 4365.795
1229.914, 4362.441
1230.396, 4355.575
1230.878, 4342.048
1231.360, 4338.377
1231.842, 4346.846
1232.324, 4352.717
1232.806, 4352.541
1233.288, 4349.034
1233.771, 4343.615
1234.253, 4337.730
1234.735, 4335.771
1235.217, 4330.583
1235.699, 4300.479
1236.181, 4264.239
1236.663, 4254.235
1237.145, 4263.568
1237.627, 4281.161
1238.110, 4299.023
1238.592, 4294.977
1239.074, 4254.777
1239.556, 4238.724
1240.038, 4296.592
1240.520, 4334.504
1241.002, 4300.876
1241.484, 4276.396
1241.967, 4307.601
1242.449, 4347.499
1242.931, 4342.818
1243.413, 4312.379
1243.895, 4317.477
1244.377, 4355.926
1244.859, 4374.701
1245.341, 4374.473
1245.823, 4354.677
1246.306, 4321.225
1246.788, 4307.478
1247.270, 4324.570
1247.752, 4345.441
1248.234, 4353.213
1248.716, 4351.495
1249.198, 4332.985
1249.680, 4317.579
1250.162, 4330.470
1250.645, 4347.225
1251.127, 4339.171
1251.609, 4314.025
1252.091, 4290.998
1252.573, 4271.076
1253.055, 4268.801
1253.537, 4291.413
1254.019, 4310.607
1254.502, 4327.849
1254.984, 4323.682
1255.466, 4291.014
1255.948, 4256.131
1256.430, 4235.262
1256.912, 4230.132
1257.394, 4251.781
1257.876, 4280.530
1258.359, 4278.352
1258.841, 4261.191
1259.323, 4249.191
1259.805, 4245.604
1260.287, 4254.169
1260.769, 4272.874
1261.251, 4292.915
1261.733, 4313.200
1262.215, 4328.551
1262.698, 4337.218
1263.180, 4341.837
1263.662, 4343.330
1264.144, 4339.970
1264.626, 4329.462
1265.108, 4317.877
1265.590, 4311.196
1266.072, 4307.721
1266.554, 4302.475
1267.037, 4296.778
1267.519, 4297.917
1268.001, 4304.441
##END=



