##NAMES=Axinite-(Fe)
##RRUFFID=R050026
##IDEAL CHEMISTRY=Ca_4_Fe^2+^_2_Al_4_[B_2_Si_8_O_30_](OH)_2_
##LOCALITY=Pouyva mine, Polar Urals, Western Siberian Region, Russia
##OWNER=RRUFF
##SOURCE=Rock Currier
##DESCRIPTION=Brown transparent flat crystal
##STATUS=The identification of this mineral has been confirmed by X-ray diffraction and chemical analysis
##URL=rruff.info/R050026
##MEASURED CHEMISTRY=Ca_2.00_(Fe^2+^_0.61_Mn_0.26_Mg_0.13_)Al_2.00_BSi_4_O_15_(OH)
146.5716, 1587.889
147.0537, 1664.201
147.5358, 1752.505
148.0179, 1833.884
148.5001, 1912.536
148.9822, 1981.421
149.4643, 2034.596
149.9464, 2072.304
150.4285, 2100.993
150.9106, 2129.494
151.3928, 2154.157
151.8749, 2153.327
152.3570, 2109.938
152.8391, 2050.012
153.3212, 1993.760
153.8033, 1942.583
154.2855, 1896.794
154.7676, 1858.515
155.2497, 1826.294
155.7318, 1794.333
156.2139, 1756.793
156.6960, 1721.528
157.1782, 1698.561
157.6603, 1689.342
158.1424, 1685.773
158.6245, 1680.989
159.1066, 1677.109
159.5887, 1680.600
160.0709, 1698.548
160.5530, 1722.768
161.0351, 1740.370
161.5172, 1749.033
161.9993, 1758.451
162.4814, 1773.178
162.9636, 1793.396
163.4457, 1821.819
163.9278, 1862.951
164.4099, 1911.798
164.8920, 1959.390
165.3741, 2005.426
165.8563, 2050.744
166.3384, 2092.684
166.8205, 2134.433
167.3026, 2182.199
167.7847, 2240.459
168.2668, 2305.898
168.7490, 2372.629
169.2311, 2443.080
169.7132, 2509.740
170.1953, 2573.312
170.6774, 2630.593
171.1595, 2675.523
171.6417, 2705.686
172.1238, 2721.578
172.6059, 2724.724
173.0880, 2716.066
173.5701, 2690.949
174.0522, 2642.667
174.5344, 2579.671
175.0165, 2513.308
175.4986, 2446.012
175.9807, 2380.426
176.4628, 2323.631
176.9449, 2279.077
177.4271, 2237.497
177.9092, 2196.175
178.3913, 2155.021
178.8734, 2113.043
179.3555, 2067.171
179.8376, 2021.976
180.3197, 1991.867
180.8019, 1986.005
181.2840, 1979.623
181.7661, 1964.223
182.2482, 1943.970
182.7303, 1923.465
183.2124, 1904.281
183.6946, 1887.262
184.1767, 1874.156
184.6588, 1862.184
185.1409, 1860.312
185.6230, 1873.625
186.1051, 1895.380
186.5873, 1918.173
187.0694, 1938.640
187.5515, 1958.004
188.0336, 1980.174
188.5157, 2006.619
188.9978, 2033.238
189.4800, 2053.721
189.9621, 2075.761
190.4442, 2107.517
190.9263, 2152.479
191.4084, 2208.485
191.8905, 2272.790
192.3727, 2359.440
192.8548, 2428.569
193.3369, 2477.052
193.8190, 2506.934
194.3011, 2517.563
194.7832, 2508.464
195.2654, 2486.365
195.7475, 2464.907
196.2296, 2441.766
196.7117, 2423.850
197.1938, 2407.824
197.6759, 2398.436
198.1581, 2400.675
198.6402, 2416.064
199.1223, 2440.884
199.6044, 2467.498
200.0865, 2490.677
200.5686, 2527.629
201.0508, 2578.273
201.5329, 2641.179
202.0150, 2719.230
202.4971, 2812.234
202.9792, 2909.530
203.4613, 2992.526
203.9435, 3049.793
204.4256, 3118.326
204.9077, 3219.309
205.3898, 3317.290
205.8719, 3389.094
206.3540, 3429.906
206.8362, 3449.457
207.3183, 3460.017
207.8004, 3460.677
208.2825, 3453.504
208.7646, 3438.048
209.2467, 3416.374
209.7289, 3387.889
210.2110, 3353.541
210.6931, 3316.458
211.1752, 3281.425
211.6573, 3252.096
212.1395, 3211.546
212.6216, 3147.810
213.1037, 3084.105
213.5858, 3031.546
214.0679, 2990.404
214.5500, 2954.336
215.0322, 2915.932
215.5143, 2872.943
215.9964, 2843.892
216.4785, 2843.334
216.9606, 2842.879
217.4427, 2833.331
217.9249, 2814.608
218.4070, 2790.355
218.8891, 2763.490
219.3712, 2734.056
219.8533, 2700.348
220.3354, 2664.936
220.8176, 2622.178
221.2997, 2567.486
221.7818, 2504.094
222.2639, 2437.369
222.7460, 2370.549
223.2281, 2303.770
223.7103, 2244.424
224.1924, 2197.640
224.6745, 2153.258
225.1566, 2105.041
225.6387, 2058.511
226.1208, 2022.447
226.6030, 2002.615
227.0851, 1995.792
227.5672, 1988.513
228.0493, 1978.960
228.5314, 1971.535
229.0135, 1970.456
229.4957, 1970.521
229.9778, 1963.959
230.4599, 1946.919
230.9420, 1926.109
231.4241, 1918.734
231.9062, 1933.626
232.3884, 1947.606
232.8705, 1957.420
233.3526, 1965.268
233.8347, 1972.779
234.3168, 1980.525
234.7989, 1988.891
235.2811, 1997.961
235.7632, 2006.037
236.2453, 2019.285
236.7274, 2038.766
237.2095, 2062.515
237.6916, 2091.711
238.1738, 2125.556
238.6559, 2158.940
239.1380, 2184.803
239.6201, 2200.575
240.1022, 2218.476
240.5843, 2241.707
241.0665, 2264.860
241.5486, 2285.388
242.0307, 2303.294
242.5128, 2320.082
242.9949, 2337.428
243.4770, 2355.558
243.9592, 2371.867
244.4413, 2387.711
244.9234, 2400.219
245.4055, 2407.209
245.8876, 2409.843
246.3697, 2410.851
246.8519, 2411.266
247.3340, 2411.522
247.8161, 2415.691
248.2982, 2426.709
248.7803, 2437.977
249.2624, 2440.215
249.7446, 2442.197
250.2267, 2458.906
250.7088, 2501.073
251.1909, 2560.353
251.6730, 2611.963
252.1551, 2649.828
252.6373, 2692.931
253.1194, 2751.263
253.6015, 2815.621
254.0836, 2877.436
254.5657, 2934.347
255.0478, 2984.751
255.5300, 3027.901
256.0121, 3065.549
256.4942, 3088.459
256.9763, 3091.660
257.4584, 3079.845
257.9406, 3050.303
258.4227, 3001.810
258.9048, 2951.097
259.3869, 2913.739
259.8690, 2889.881
260.3511, 2875.457
260.8333, 2871.088
261.3154, 2875.819
261.7975, 2890.587
262.2796, 2914.765
262.7617, 2941.239
263.2438, 2963.857
263.7260, 2984.013
264.2081, 3009.059
264.6902, 3038.523
265.1723, 3075.521
265.6544, 3126.031
266.1365, 3186.175
266.6187, 3242.359
267.1008, 3284.157
267.5829, 3318.424
268.0650, 3358.698
268.5471, 3404.879
269.0292, 3458.195
269.5114, 3528.325
269.9935, 3605.321
270.4756, 3671.877
270.9577, 3718.030
271.4398, 3756.404
271.9219, 3802.073
272.4041, 3855.428
272.8862, 3906.135
273.3683, 3953.726
273.8504, 3992.225
274.3325, 4012.071
274.8146, 4006.938
275.2968, 3993.734
275.7789, 3985.099
276.2610, 3978.401
276.7431, 3962.573
277.2252, 3933.299
277.7073, 3893.194
278.1895, 3847.246
278.6716, 3796.950
279.1537, 3737.745
279.6358, 3661.716
280.1179, 3577.132
280.6000, 3497.979
281.0822, 3426.982
281.5643, 3362.232
282.0464, 3300.731
282.5285, 3242.372
283.0106, 3192.745
283.4927, 3152.488
283.9749, 3121.338
284.4570, 3100.443
284.9391, 3089.366
285.4212, 3083.755
285.9033, 3080.867
286.3854, 3080.761
286.8676, 3081.019
287.3497, 3083.032
287.8318, 3084.042
288.3139, 3079.952
288.7960, 3073.483
289.2781, 3072.325
289.7603, 3081.334
290.2424, 3097.854
290.7245, 3110.592
291.2066, 3116.386
291.6887, 3122.617
292.1708, 3130.254
292.6530, 3138.965
293.1351, 3148.922
293.6172, 3160.123
294.0993, 3171.123
294.5814, 3179.438
295.0635, 3185.436
295.5457, 3187.433
296.0278, 3184.627
296.5099, 3178.752
296.9920, 3168.169
297.4741, 3154.387
297.9562, 3143.715
298.4384, 3142.908
298.9205, 3153.149
299.4026, 3165.435
299.8847, 3177.413
300.3668, 3193.662
300.8489, 3215.117
301.3311, 3242.268
301.8131, 3276.480
302.2953, 3319.773
302.7774, 3369.692
303.2595, 3412.875
303.7416, 3439.502
304.2237, 3474.220
304.7058, 3531.326
305.1880, 3594.187
305.6701, 3647.435
306.1522, 3685.642
306.6343, 3707.451
307.1164, 3707.420
307.5985, 3679.938
308.0807, 3651.474
308.5628, 3636.690
309.0449, 3614.912
309.5270, 3568.262
310.0091, 3497.063
310.4912, 3424.088
310.9734, 3368.657
311.4555, 3329.426
311.9376, 3290.825
312.4197, 3240.576
312.9018, 3209.068
313.3839, 3220.440
313.8661, 3263.239
314.3482, 3307.995
314.8303, 3336.915
315.3124, 3361.687
315.7945, 3404.812
316.2766, 3468.794
316.7588, 3536.415
317.2409, 3602.869
317.7230, 3664.958
318.2051, 3717.714
318.6872, 3760.888
319.1693, 3793.454
319.6515, 3820.939
320.1336, 3838.995
320.6157, 3825.646
321.0978, 3767.125
321.5799, 3683.785
322.0620, 3603.062
322.5442, 3523.582
323.0263, 3453.617
323.5084, 3401.388
323.9905, 3357.211
324.4726, 3306.174
324.9547, 3245.638
325.4369, 3188.731
325.9190, 3147.979
326.4011, 3125.264
326.8832, 3107.050
327.3653, 3091.155
327.8474, 3081.390
328.3296, 3083.979
328.8117, 3095.085
329.2938, 3103.450
329.7759, 3102.113
330.2580, 3093.651
330.7401, 3089.803
331.2223, 3093.921
331.7044, 3098.535
332.1865, 3101.776
332.6686, 3105.657
333.1507, 3111.485
333.6328, 3119.914
334.1150, 3132.384
334.5971, 3150.510
335.0792, 3171.983
335.5613, 3206.133
336.0434, 3262.048
336.5255, 3320.899
337.0077, 3367.916
337.4898, 3407.827
337.9719, 3458.729
338.4540, 3537.331
338.9361, 3639.930
339.4182, 3733.044
339.9004, 3809.696
340.3825, 3885.866
340.8646, 3975.233
341.3467, 4064.178
341.8288, 4136.740
342.3109, 4187.835
342.7931, 4217.952
343.2752, 4227.138
343.7573, 4214.896
344.2394, 4184.799
344.7215, 4135.226
345.2036, 4068.003
345.6858, 3978.299
346.1679, 3866.779
346.6500, 3758.674
347.1321, 3666.833
347.6142, 3590.599
348.0963, 3529.901
348.5785, 3487.783
349.0606, 3451.541
349.5427, 3409.847
350.0248, 3365.828
350.5069, 3329.785
350.9890, 3312.557
351.4712, 3296.636
351.9533, 3270.390
352.4354, 3233.626
352.9175, 3185.345
353.3996, 3124.050
353.8817, 3052.130
354.3639, 2973.965
354.8460, 2887.041
355.3281, 2801.343
355.8102, 2718.158
356.2923, 2637.887
356.7744, 2560.437
357.2566, 2485.870
357.7387, 2419.311
358.2208, 2366.948
358.7029, 2330.805
359.1850, 2298.440
359.6671, 2270.173
360.1493, 2244.824
360.6314, 2222.974
361.1135, 2203.588
361.5956, 2183.966
362.0777, 2161.959
362.5598, 2140.094
363.0420, 2128.369
363.5241, 2138.005
364.0062, 2139.662
364.4883, 2122.387
364.9704, 2101.303
365.4525, 2089.447
365.9347, 2089.404
366.4168, 2093.910
366.8989, 2094.556
367.3810, 2090.912
367.8631, 2090.825
368.3452, 2096.546
368.8274, 2103.734
369.3095, 2110.281
369.7916, 2116.472
370.2737, 2122.958
370.7558, 2129.330
371.2379, 2136.758
371.7201, 2148.201
372.2022, 2164.209
372.6843, 2178.725
373.1664, 2188.686
373.6485, 2195.824
374.1306, 2202.689
374.6128, 2208.988
375.0949, 2216.302
375.5770, 2225.301
376.0591, 2235.869
376.5412, 2247.531
377.0233, 2260.091
377.5055, 2274.856
377.9876, 2295.355
378.4697, 2322.443
378.9518, 2338.853
379.4339, 2330.244
379.9160, 2323.558
380.3982, 2333.244
380.8803, 2358.104
381.3624, 2393.828
381.8445, 2439.150
382.3266, 2489.873
382.8087, 2533.870
383.2909, 2553.782
383.7730, 2590.033
384.2551, 2653.442
384.7372, 2726.621
385.2193, 2798.447
385.7014, 2865.539
386.1836, 2927.492
386.6657, 2982.356
387.1478, 3029.223
387.6299, 3083.132
388.1120, 3164.243
388.5941, 3228.464
389.0763, 3259.810
389.5584, 3265.985
390.0405, 3258.825
390.5226, 3242.865
391.0047, 3217.280
391.4868, 3178.421
391.9690, 3125.235
392.4511, 3070.415
392.9332, 3019.871
393.4153, 2966.372
393.8974, 2902.409
394.3795, 2827.823
394.8617, 2753.393
395.3438, 2678.667
395.8259, 2609.435
396.3080, 2557.285
396.7901, 2524.001
397.2722, 2496.269
397.7544, 2465.040
398.2365, 2431.932
398.7186, 2404.237
399.2007, 2382.918
399.6828, 2366.002
400.1649, 2350.397
400.6471, 2339.276
401.1292, 2341.330
401.6113, 2359.534
402.0934, 2380.494
402.5755, 2383.015
403.0576, 2355.658
403.5398, 2345.106
404.0219, 2365.967
404.5040, 2387.540
404.9861, 2390.326
405.4682, 2380.385
405.9503, 2375.287
406.4325, 2386.193
406.9146, 2410.009
407.3967, 2436.053
407.8788, 2464.794
408.3609, 2494.847
408.8430, 2516.428
409.3252, 2545.374
409.8073, 2599.402
410.2894, 2679.584
410.7715, 2762.885
411.2536, 2821.795
411.7357, 2864.430
412.2179, 2932.768
412.7000, 3034.927
413.1821, 3149.095
413.6642, 3259.470
414.1463, 3371.288
414.6284, 3494.572
415.1106, 3642.899
415.5927, 3789.824
416.0748, 3923.718
416.5569, 4041.607
417.0390, 4134.393
417.5211, 4199.444
418.0033, 4235.060
418.4854, 4236.100
418.9675, 4194.425
419.4496, 4141.428
419.9317, 4068.496
420.4138, 3992.555
420.8960, 3919.561
421.3781, 3852.871
421.8602, 3798.458
422.3423, 3760.273
422.8244, 3736.452
423.3065, 3719.719
423.7887, 3720.358
424.2708, 3711.669
424.7529, 3690.414
425.2350, 3660.066
425.7171, 3621.177
426.1992, 3574.930
426.6814, 3526.787
427.1635, 3481.812
427.6456, 3439.426
428.1277, 3397.864
428.6098, 3360.356
429.0919, 3317.404
429.5741, 3264.038
430.0562, 3202.109
430.5383, 3131.983
431.0204, 3048.616
431.5025, 2968.133
431.9846, 2905.369
432.4668, 2856.838
432.9489, 2810.415
433.4310, 2763.204
433.9131, 2716.633
434.3952, 2671.967
434.8773, 2629.408
435.3595, 2590.141
435.8416, 2549.615
436.3237, 2516.765
436.8058, 2495.974
437.2879, 2487.268
437.7701, 2490.593
438.2522, 2506.353
438.7343, 2531.467
439.2164, 2557.791
439.6985, 2581.718
440.1806, 2613.739
440.6628, 2655.813
441.1449, 2703.694
441.6270, 2758.207
442.1091, 2816.684
442.5912, 2872.823
443.0733, 2923.114
443.5555, 2966.571
444.0376, 3001.866
444.5197, 3034.332
445.0018, 3043.659
445.4839, 3017.197
445.9660, 2965.005
446.4482, 2889.355
446.9303, 2787.760
447.4124, 2686.922
447.8945, 2605.070
448.3766, 2535.112
448.8587, 2460.626
449.3409, 2378.313
449.8230, 2302.997
450.3051, 2245.888
450.7872, 2206.558
451.2693, 2174.239
451.7514, 2156.085
452.2336, 2136.086
452.7157, 2106.204
453.1978, 2072.397
453.6799, 2040.798
454.1620, 2013.882
454.6441, 1996.275
455.1263, 1997.644
455.6084, 2025.401
456.0905, 2030.089
456.5726, 1980.459
457.0547, 1939.133
457.5368, 1930.011
458.0190, 1940.594
458.5011, 1950.064
458.9832, 1949.820
459.4653, 1944.692
459.9474, 1941.350
460.4295, 1939.849
460.9117, 1937.047
461.3938, 1931.086
461.8759, 1925.404
462.3580, 1921.388
462.8401, 1919.534
463.3222, 1923.595
463.8044, 1939.519
464.2865, 1957.940
464.7686, 1970.125
465.2507, 1977.340
465.7328, 1986.026
466.2149, 1999.643
466.6971, 2013.654
467.1792, 2018.074
467.6613, 2001.222
468.1434, 2000.260
468.6255, 2029.191
469.1076, 2061.541
469.5898, 2079.877
470.0719, 2086.851
470.5540, 2094.688
471.0361, 2111.633
471.5182, 2133.417
472.0003, 2146.865
472.4825, 2147.547
472.9646, 2151.750
473.4467, 2165.340
473.9288, 2181.892
474.4109, 2196.743
474.8930, 2210.094
475.3752, 2226.611
475.8573, 2246.095
476.3394, 2271.512
476.8215, 2312.143
477.3036, 2368.233
477.7857, 2419.689
478.2679, 2452.753
478.7500, 2477.819
479.2321, 2521.733
479.7142, 2589.656
480.1963, 2658.887
480.6784, 2721.580
481.1606, 2786.112
481.6427, 2866.163
482.1248, 2958.310
482.6069, 3042.514
483.0890, 3104.511
483.5711, 3145.995
484.0533, 3178.694
484.5354, 3213.704
485.0175, 3219.518
485.4996, 3192.379
485.9817, 3138.199
486.4638, 3054.936
486.9460, 2945.641
487.4281, 2828.987
487.9102, 2713.994
488.3923, 2602.978
488.8744, 2503.741
489.3565, 2417.409
489.8387, 2336.666
490.3208, 2252.359
490.8029, 2175.582
491.2850, 2128.902
491.7671, 2122.567
492.2492, 2115.745
492.7314, 2091.209
493.2135, 2061.168
493.6956, 2038.120
494.1777, 2023.859
494.6598, 2016.410
495.1419, 2015.226
495.6241, 2018.983
496.1062, 2018.737
496.5883, 2005.347
497.0704, 2001.167
497.5525, 2015.165
498.0346, 2034.093
498.5168, 2046.744
498.9989, 2052.167
499.4810, 2057.107
499.9631, 2068.265
500.4452, 2083.360
500.9273, 2092.339
501.4095, 2093.144
501.8916, 2096.917
502.3737, 2112.266
502.8558, 2131.174
503.3379, 2140.274
503.8200, 2136.844
504.3022, 2134.042
504.7843, 2134.325
505.2664, 2139.218
505.7485, 2153.112
506.2306, 2174.817
506.7127, 2195.986
507.1949, 2211.678
507.6770, 2221.698
508.1591, 2224.928
508.6412, 2215.365
509.1233, 2207.542
509.6054, 2204.239
510.0876, 2201.334
510.5697, 2196.117
511.0518, 2188.358
511.5339, 2178.972
512.0161, 2168.024
512.4982, 2156.319
512.9803, 2148.020
513.4624, 2145.110
513.9445, 2133.086
514.4266, 2100.881
514.9088, 2062.154
515.3909, 2037.004
515.8730, 2026.981
516.3551, 2009.848
516.8372, 1969.243
517.3193, 1925.665
517.8015, 1899.317
518.2836, 1887.961
518.7657, 1877.363
519.2478, 1860.157
519.7299, 1838.758
520.2120, 1818.445
520.6942, 1795.878
521.1763, 1781.043
521.6584, 1779.680
522.1405, 1779.722
522.6226, 1773.668
523.1047, 1763.611
523.5869, 1755.971
524.0690, 1753.914
524.5511, 1756.287
525.0332, 1764.546
525.5153, 1778.595
525.9974, 1781.404
526.4796, 1761.884
526.9617, 1741.428
527.4438, 1749.816
527.9259, 1782.634
528.4080, 1799.113
528.8901, 1776.172
529.3723, 1752.596
529.8544, 1753.131
530.3365, 1769.256
530.8186, 1784.039
531.3007, 1791.659
531.7828, 1796.051
532.2650, 1803.150
532.7471, 1814.310
533.2292, 1819.767
533.7113, 1813.191
534.1934, 1808.070
534.6755, 1812.032
535.1577, 1818.499
535.6398, 1817.490
536.1219, 1805.534
536.6040, 1791.784
537.0861, 1783.727
537.5682, 1780.696
538.0504, 1781.803
538.5325, 1787.592
539.0146, 1792.819
539.4967, 1794.713
539.9788, 1792.842
540.4609, 1785.366
540.9431, 1762.019
541.4252, 1747.592
541.9073, 1755.002
542.3894, 1768.427
542.8715, 1773.321
543.3536, 1768.199
543.8358, 1758.805
544.3179, 1748.766
544.8000, 1739.074
545.2821, 1734.199
545.7642, 1734.894
546.2463, 1738.408
546.7285, 1747.807
547.2106, 1756.984
547.6927, 1761.076
548.1748, 1760.165
548.6569, 1757.779
549.1390, 1753.193
549.6211, 1749.474
550.1032, 1752.215
550.5853, 1759.462
551.0674, 1761.194
551.5496, 1752.396
552.0317, 1741.751
552.5138, 1744.231
552.9959, 1766.386
553.4780, 1779.477
553.9601, 1774.440
554.4423, 1771.440
554.9244, 1779.034
555.4065, 1793.863
555.8886, 1810.954
556.3707, 1828.667
556.8528, 1844.888
557.3350, 1854.632
557.8171, 1859.363
558.2992, 1872.123
558.7813, 1896.250
559.2634, 1921.791
559.7455, 1944.130
560.2277, 1962.479
560.7098, 1975.099
561.1919, 1978.645
561.6740, 1982.388
562.1561, 1988.671
562.6382, 1996.908
563.1204, 2008.949
563.6025, 2023.213
564.0846, 2031.862
564.5667, 2027.653
565.0488, 2016.280
565.5309, 2021.481
566.0131, 2050.849
566.4952, 2077.565
566.9773, 2095.583
567.4594, 2110.778
567.9415, 2124.569
568.4236, 2138.193
568.9058, 2155.884
569.3879, 2179.870
569.8700, 2208.419
570.3521, 2247.671
570.8342, 2291.101
571.3163, 2313.240
571.7985, 2304.928
572.2806, 2287.529
572.7627, 2288.408
573.2448, 2311.471
573.7269, 2315.514
574.2090, 2282.874
574.6912, 2253.331
575.1733, 2241.362
575.6554, 2235.243
576.1375, 2220.542
576.6196, 2194.480
577.1017, 2166.713
577.5839, 2144.054
578.0660, 2126.681
578.5481, 2116.261
579.0302, 2113.429
579.5123, 2112.201
579.9944, 2109.981
580.4766, 2107.717
580.9587, 2107.178
581.4408, 2108.174
581.9229, 2111.021
582.4050, 2115.488
582.8871, 2122.059
583.3693, 2130.483
583.8514, 2141.302
584.3335, 2156.526
584.8156, 2177.035
585.2977, 2199.495
585.7798, 2218.634
586.2620, 2234.107
586.7441, 2250.579
587.2262, 2272.709
587.7083, 2288.697
588.1904, 2286.675
588.6725, 2275.529
589.1547, 2270.859
589.6368, 2279.820
590.1189, 2281.708
590.6010, 2264.849
591.0831, 2236.209
591.5652, 2203.449
592.0474, 2167.824
592.5295, 2127.884
593.0116, 2081.801
593.4937, 2033.696
593.9758, 1996.230
594.4579, 1973.949
594.9401, 1951.927
595.4222, 1928.506
595.9043, 1905.725
596.3864, 1884.572
596.8685, 1864.967
597.3506, 1846.428
597.8328, 1828.084
598.3149, 1812.289
598.7970, 1801.083
599.2791, 1794.047
599.7612, 1791.953
600.2433, 1794.966
600.7255, 1794.617
601.2076, 1781.655
601.6897, 1759.049
602.1718, 1751.246
602.6539, 1776.848
603.1360, 1791.994
603.6182, 1781.521
604.1003, 1768.967
604.5824, 1773.854
605.0645, 1794.086
605.5466, 1813.800
606.0287, 1824.599
606.5109, 1829.119
606.9930, 1827.638
607.4751, 1821.772
607.9572, 1825.453
608.4393, 1843.609
608.9214, 1866.587
609.4036, 1885.487
609.8857, 1900.295
610.3678, 1913.207
610.8499, 1924.911
611.3320, 1934.016
611.8141, 1936.562
612.2963, 1938.650
612.7784, 1946.576
613.2605, 1960.733
613.7426, 1977.446
614.2247, 1996.155
614.7068, 2013.621
615.1890, 2019.948
615.6711, 2014.573
616.1532, 2010.662
616.6353, 2011.933
617.1174, 2016.241
617.5995, 2024.211
618.0817, 2035.939
618.5638, 2035.261
619.0459, 2008.033
619.5280, 1983.947
620.0101, 1980.442
620.4922, 1983.546
620.9744, 1973.615
621.4565, 1948.246
621.9386, 1922.259
622.4207, 1911.555
622.9028, 1909.776
623.3849, 1889.059
623.8671, 1845.054
624.3492, 1807.587
624.8313, 1786.964
625.3134, 1775.125
625.7955, 1764.417
626.2776, 1754.745
626.7598, 1744.128
627.2419, 1731.067
627.7240, 1718.375
628.2061, 1705.066
628.6882, 1694.091
629.1703, 1690.057
629.6525, 1693.762
630.1346, 1702.822
630.6167, 1718.264
631.0988, 1736.515
631.5809, 1733.666
632.0630, 1701.502
632.5452, 1680.650
633.0273, 1687.912
633.5094, 1707.433
633.9915, 1723.578
634.4736, 1736.383
634.9557, 1745.196
635.4379, 1746.449
635.9200, 1747.161
636.4021, 1750.038
636.8842, 1755.404
637.3663, 1764.041
637.8484, 1775.868
638.3306, 1788.881
638.8127, 1800.117
639.2948, 1810.945
639.7769, 1832.386
640.2590, 1870.886
640.7411, 1897.024
641.2233, 1898.050
641.7054, 1887.062
642.1875, 1874.408
642.6696, 1860.641
643.1517, 1853.939
643.6339, 1860.162
644.1160, 1869.399
644.5981, 1882.610
645.0802, 1892.798
645.5623, 1886.413
646.0444, 1862.489
646.5266, 1836.134
647.0087, 1821.919
647.4908, 1816.809
647.9729, 1805.935
648.4550, 1787.664
648.9371, 1770.559
649.4193, 1757.973
649.9014, 1746.042
650.3835, 1729.079
650.8656, 1708.362
651.3477, 1693.012
651.8298, 1688.523
652.3120, 1685.129
652.7941, 1678.300
653.2762, 1669.758
653.7583, 1661.061
654.2404, 1652.985
654.7225, 1647.124
655.2047, 1645.114
655.6868, 1645.832
656.1689, 1645.346
656.6510, 1643.207
657.1331, 1642.982
657.6152, 1647.229
658.0974, 1650.966
658.5795, 1647.885
659.0616, 1639.919
659.5437, 1635.917
660.0258, 1640.802
660.5079, 1644.605
660.9901, 1640.347
661.4722, 1635.633
661.9543, 1640.376
662.4364, 1653.477
662.9185, 1665.146
663.4006, 1668.393
663.8828, 1667.668
664.3649, 1672.688
664.8470, 1683.611
665.3291, 1694.398
665.8112, 1702.347
666.2933, 1714.599
666.7755, 1738.993
667.2576, 1772.224
667.7397, 1799.855
668.2218, 1821.522
668.7039, 1838.177
669.1860, 1845.459
669.6682, 1851.486
670.1503, 1859.194
670.6324, 1871.552
671.1145, 1895.679
671.5966, 1936.480
672.0787, 1980.952
672.5609, 2008.126
673.0430, 2021.246
673.5251, 2046.431
674.0072, 2089.557
674.4893, 2124.435
674.9714, 2132.455
675.4536, 2124.160
675.9357, 2127.302
676.4178, 2151.455
676.8999, 2166.048
677.3820, 2165.198
677.8641, 2159.839
678.3463, 2156.110
678.8284, 2151.678
679.3105, 2144.037
679.7926, 2132.383
680.2747, 2110.094
680.7568, 2061.361
681.2390, 1999.900
681.7211, 1961.603
682.2032, 1946.811
682.6853, 1930.951
683.1674, 1903.077
683.6495, 1870.309
684.1317, 1843.264
684.6138, 1822.733
685.0959, 1804.203
685.5780, 1787.102
686.0601, 1772.510
686.5422, 1762.390
687.0244, 1753.870
687.5065, 1743.315
687.9886, 1730.582
688.4707, 1719.939
688.9528, 1713.229
689.4349, 1710.263
689.9171, 1711.633
690.3992, 1716.568
690.8813, 1722.870
691.3634, 1729.938
691.8455, 1738.474
692.3276, 1749.172
692.8098, 1761.940
693.2919, 1776.510
693.7740, 1796.348
694.2561, 1810.076
694.7382, 1802.874
695.2203, 1800.608
695.7025, 1826.896
696.1846, 1874.094
696.6667, 1911.969
697.1488, 1923.951
697.6309, 1938.783
698.1130, 1978.532
698.5952, 2025.783
699.0773, 2051.832
699.5594, 2060.820
700.0415, 2085.688
700.5236, 2148.355
701.0057, 2230.978
701.4879, 2294.174
701.9700, 2336.498
702.4521, 2393.323
702.9342, 2471.492
703.4163, 2554.437
703.8984, 2630.158
704.3806, 2704.905
704.8627, 2795.655
705.3448, 2908.645
705.8269, 3018.625
706.3090, 3112.456
706.7911, 3212.663
707.2733, 3336.448
707.7554, 3474.938
708.2375, 3611.019
708.7196, 3740.178
709.2017, 3870.045
709.6838, 4015.970
710.1660, 4166.374
710.6481, 4287.326
711.1302, 4380.112
711.6123, 4478.701
712.0944, 4599.725
712.5765, 4711.365
713.0587, 4772.963
713.5408, 4782.628
714.0229, 4782.742
714.5050, 4793.936
714.9871, 4765.737
715.4692, 4679.954
715.9514, 4560.917
716.4335, 4421.589
716.9156, 4266.619
717.3977, 4104.631
717.8798, 3936.666
718.3619, 3766.065
718.8441, 3588.913
719.3262, 3413.221
719.8083, 3248.910
720.2904, 3099.607
720.7725, 2974.447
721.2546, 2882.700
721.7368, 2808.847
722.2189, 2710.842
722.7010, 2581.566
723.1831, 2480.003
723.6652, 2424.175
724.1473, 2368.904
724.6295, 2279.767
725.1116, 2178.521
725.5937, 2110.632
726.0758, 2086.378
726.5579, 2061.351
727.0400, 2025.546
727.5222, 1988.658
728.0043, 1954.157
728.4864, 1923.165
728.9685, 1897.723
729.4506, 1878.006
729.9327, 1860.129
730.4149, 1842.463
730.8970, 1823.508
731.3791, 1796.679
731.8612, 1763.491
732.3433, 1739.227
732.8254, 1728.899
733.3076, 1724.676
733.7897, 1719.648
734.2718, 1713.531
734.7539, 1701.750
735.2360, 1675.384
735.7181, 1658.321
736.2003, 1661.475
736.6824, 1666.636
737.1645, 1660.797
737.6466, 1647.895
738.1287, 1640.822
738.6108, 1646.945
739.0930, 1649.590
739.5751, 1636.160
740.0572, 1616.393
740.5393, 1599.678
741.0214, 1587.298
741.5035, 1578.417
741.9857, 1572.710
742.4678, 1571.822
742.9499, 1581.967
743.4320, 1601.601
743.9141, 1607.488
744.3962, 1596.748
744.8784, 1586.345
745.3605, 1581.789
745.8426, 1582.231
746.3247, 1588.168
746.8068, 1600.909
747.2889, 1606.496
747.7711, 1603.924
748.2532, 1596.031
748.7353, 1574.170
749.2174, 1554.167
749.6995, 1551.945
750.1816, 1565.545
750.6638, 1581.616
751.1459, 1597.176
751.6280, 1606.655
752.1101, 1598.200
752.5922, 1582.376
753.0743, 1580.707
753.5565, 1594.043
754.0386, 1608.829
754.5207, 1617.131
755.0028, 1621.997
755.4849, 1629.429
755.9670, 1639.790
756.4492, 1648.876
756.9313, 1655.086
757.4134, 1664.229
757.8955, 1682.005
758.3776, 1701.832
758.8597, 1712.414
759.3419, 1712.598
759.8240, 1716.879
760.3061, 1729.072
760.7882, 1742.373
761.2703, 1756.078
761.7524, 1768.392
762.2346, 1774.388
762.7167, 1776.271
763.1988, 1785.935
763.6809, 1814.285
764.1630, 1845.840
764.6451, 1864.002
765.1273, 1871.276
765.6094, 1871.458
766.0915, 1866.128
766.5736, 1863.214
767.0557, 1868.050
767.5378, 1876.237
768.0200, 1879.037
768.5021, 1876.792
768.9842, 1865.691
769.4663, 1839.712
769.9484, 1818.050
770.4305, 1815.108
770.9127, 1816.856
771.3948, 1801.365
771.8769, 1767.288
772.3590, 1736.614
772.8411, 1711.440
773.3232, 1690.748
773.8054, 1676.312
774.2875, 1664.734
774.7696, 1652.087
775.2517, 1638.549
775.7338, 1627.525
776.2159, 1621.613
776.6981, 1617.412
777.1802, 1614.600
777.6623, 1609.746
778.1444, 1590.053
778.6265, 1556.939
779.1086, 1532.245
779.5908, 1528.805
780.0729, 1537.106
780.5550, 1541.031
781.0371, 1540.712
781.5192, 1533.310
782.0013, 1515.002
782.4835, 1499.821
782.9656, 1494.420
783.4477, 1493.481
783.9298, 1490.481
784.4119, 1485.372
784.8940, 1480.830
785.3762, 1475.751
785.8583, 1472.848
786.3404, 1475.412
786.8225, 1478.430
787.3046, 1476.301
787.7867, 1470.596
788.2689, 1468.536
788.7510, 1475.230
789.2331, 1479.431
789.7152, 1466.045
790.1973, 1446.885
790.6794, 1444.039
791.1616, 1454.495
791.6437, 1457.745
792.1258, 1444.936
792.6079, 1426.544
793.0900, 1415.767
793.5721, 1412.250
794.0543, 1412.924
794.5364, 1418.195
795.0185, 1425.703
795.5006, 1436.371
795.9827, 1445.701
796.4648, 1449.167
796.9470, 1447.163
797.4291, 1443.852
797.9112, 1437.690
798.3933, 1432.445
798.8754, 1427.631
799.3575, 1424.418
799.8397, 1424.263
800.3218, 1425.968
800.8039, 1426.896
801.2860, 1426.057
801.7681, 1427.233
802.2502, 1435.775
802.7324, 1444.118
803.2145, 1442.749
803.6966, 1436.817
804.1787, 1436.630
804.6608, 1444.547
805.1429, 1456.172
805.6251, 1469.786
806.1072, 1481.965
806.5893, 1482.154
807.0714, 1472.604
807.5535, 1470.917
808.0356, 1480.358
808.5178, 1493.557
808.9999, 1506.214
809.4820, 1518.207
809.9641, 1529.578
810.4462, 1542.135
810.9283, 1547.232
811.4105, 1540.857
811.8926, 1533.540
812.3747, 1527.811
812.8568, 1524.186
813.3389, 1524.666
813.8210, 1529.187
814.3032, 1530.090
814.7853, 1527.245
815.2674, 1519.354
815.7495, 1501.527
816.2316, 1481.952
816.7137, 1467.270
817.1959, 1457.635
817.6780, 1450.622
818.1601, 1445.307
818.6422, 1441.931
819.1243, 1442.230
819.6064, 1443.683
820.0886, 1442.307
820.5707, 1438.427
821.0528, 1434.752
821.5349, 1432.091
822.0170, 1427.046
822.4991, 1413.746
822.9813, 1396.018
823.4634, 1392.694
823.9455, 1404.726
824.4276, 1409.762
824.9097, 1401.364
825.3918, 1392.597
825.8740, 1393.382
826.3561, 1401.270
826.8382, 1408.361
827.3203, 1416.443
827.8024, 1419.534
828.2845, 1413.820
828.7667, 1407.744
829.2488, 1403.279
829.7309, 1400.701
830.2130, 1400.869
830.6951, 1403.778
831.1772, 1406.474
831.6594, 1408.710
832.1415, 1410.036
832.6236, 1410.405
833.1057, 1409.674
833.5878, 1406.470
834.0699, 1402.020
834.5521, 1400.135
835.0342, 1402.854
835.5163, 1406.554
835.9984, 1407.454
836.4805, 1407.384
836.9626, 1408.923
837.4448, 1412.271
837.9269, 1418.656
838.4090, 1428.140
838.8911, 1435.056
839.3732, 1431.642
839.8553, 1422.369
840.3375, 1425.642
840.8196, 1441.787
841.3017, 1453.234
841.7838, 1456.351
842.2659, 1456.913
842.7480, 1457.949
843.2302, 1460.340
843.7123, 1467.096
844.1944, 1481.723
844.6765, 1488.551
845.1586, 1479.495
845.6407, 1474.690
846.1229, 1484.821
846.6050, 1499.604
847.0871, 1510.652
847.5692, 1517.646
848.0513, 1519.470
848.5334, 1508.626
849.0156, 1502.564
849.4977, 1508.861
849.9798, 1519.135
850.4619, 1527.732
850.9440, 1534.911
851.4261, 1543.310
851.9083, 1554.068
852.3904, 1561.539
852.8725, 1561.841
853.3546, 1557.236
853.8367, 1547.067
854.3188, 1534.788
854.8010, 1527.675
855.2831, 1526.542
855.7652, 1525.851
856.2473, 1521.306
856.7294, 1515.653
857.2115, 1514.085
857.6937, 1515.719
858.1758, 1516.640
858.6579, 1516.487
859.1400, 1516.698
859.6221, 1518.163
860.1042, 1518.460
860.5864, 1512.502
861.0685, 1500.947
861.5506, 1503.458
862.0327, 1525.937
862.5148, 1538.618
862.9969, 1531.089
863.4791, 1520.027
863.9612, 1518.750
864.4433, 1524.261
864.9254, 1525.762
865.4075, 1521.826
865.8896, 1516.816
866.3718, 1503.935
866.8539, 1498.085
867.3360, 1511.854
867.8181, 1530.650
868.3002, 1537.396
868.7823, 1531.685
869.2645, 1526.065
869.7466, 1522.443
870.2287, 1521.141
870.7108, 1524.432
871.1929, 1528.339
871.6750, 1526.770
872.1572, 1523.357
872.6393, 1528.514
873.1214, 1546.150
873.6035, 1561.700
874.0856, 1562.910
874.5677, 1558.041
875.0499, 1554.304
875.5320, 1552.393
876.0141, 1554.181
876.4962, 1559.170
876.9783, 1562.355
877.4604, 1559.474
877.9426, 1556.642
878.4247, 1565.856
878.9068, 1583.532
879.3889, 1595.652
879.8710, 1601.720
880.3531, 1609.757
880.8353, 1623.220
881.3174, 1634.867
881.7995, 1635.071
882.2816, 1626.170
882.7637, 1623.263
883.2458, 1627.140
883.7280, 1630.329
884.2101, 1629.725
884.6922, 1635.056
885.1743, 1654.842
885.6564, 1681.918
886.1385, 1700.031
886.6207, 1705.588
887.1028, 1718.293
887.5849, 1742.104
888.0670, 1766.662
888.5491, 1790.598
889.0313, 1813.018
889.5134, 1830.517
889.9955, 1845.352
890.4776, 1868.309
890.9597, 1905.691
891.4418, 1940.831
891.9240, 1969.236
892.4061, 1997.491
892.8882, 2029.433
893.3703, 2063.389
893.8524, 2098.286
894.3345, 2133.430
894.8167, 2163.238
895.2988, 2176.403
895.7809, 2194.514
896.2630, 2231.504
896.7451, 2277.518
897.2272, 2328.479
897.7094, 2378.259
898.1915, 2413.968
898.6736, 2430.858
899.1557, 2444.832
899.6378, 2471.984
900.1199, 2500.354
900.6021, 2510.924
901.0842, 2512.469
901.5663, 2526.660
902.0484, 2554.492
902.5305, 2578.872
903.0126, 2589.581
903.4948, 2588.566
903.9769, 2573.147
904.4590, 2549.030
904.9411, 2535.542
905.4232, 2532.104
905.9053, 2528.419
906.3875, 2521.104
906.8696, 2511.108
907.3517, 2499.294
907.8338, 2485.556
908.3159, 2470.147
908.7980, 2453.132
909.2802, 2430.932
909.7623, 2403.402
910.2444, 2368.625
910.7265, 2324.793
911.2086, 2276.286
911.6907, 2228.057
912.1729, 2180.239
912.6550, 2142.669
913.1371, 2120.487
913.6192, 2091.332
914.1013, 2047.343
914.5834, 2003.168
915.0656, 1967.340
915.5477, 1938.496
916.0298, 1913.963
916.5119, 1895.998
916.9940, 1873.646
917.4761, 1842.927
917.9583, 1813.508
918.4404, 1786.942
918.9225, 1762.905
919.4046, 1739.881
919.8867, 1719.044
920.3688, 1705.235
920.8510, 1703.231
921.3331, 1698.253
921.8152, 1680.349
922.2973, 1668.104
922.7794, 1675.568
923.2615, 1689.733
923.7437, 1696.751
924.2258, 1695.306
924.7079, 1688.572
925.1900, 1674.131
925.6721, 1660.106
926.1542, 1646.646
926.6364, 1637.901
927.1185, 1640.290
927.6006, 1648.614
928.0827, 1652.990
928.5648, 1651.782
929.0469, 1653.690
929.5291, 1670.039
930.0112, 1683.758
930.4933, 1678.340
930.9754, 1665.510
931.4575, 1659.426
931.9396, 1659.528
932.4218, 1660.383
932.9039, 1659.875
933.3860, 1655.093
933.8681, 1635.159
934.3502, 1616.304
934.8323, 1625.453
935.3145, 1649.803
935.7966, 1662.583
936.2787, 1661.694
936.7608, 1659.634
937.2429, 1662.822
937.7250, 1670.083
938.2072, 1681.613
938.6893, 1695.533
939.1714, 1707.031
939.6535, 1716.943
940.1356, 1728.547
940.6177, 1742.727
941.0999, 1759.173
941.5820, 1777.558
942.0641, 1798.744
942.5462, 1825.137
943.0283, 1855.849
943.5104, 1888.718
943.9926, 1922.751
944.4747, 1945.108
944.9568, 1951.449
945.4389, 1959.993
945.9210, 1987.618
946.4031, 2028.132
946.8853, 2063.761
947.3674, 2094.629
947.8495, 2134.243
948.3316, 2184.510
948.8137, 2231.345
949.2958, 2269.317
949.7780, 2301.114
950.2601, 2327.969
950.7422, 2352.127
951.2243, 2386.560
951.7064, 2432.947
952.1885, 2479.146
952.6707, 2524.946
953.1528, 2565.329
953.6349, 2595.964
954.1170, 2624.112
954.5991, 2660.133
955.0812, 2703.523
955.5634, 2747.263
956.0455, 2790.753
956.5276, 2834.697
957.0097, 2873.170
957.4918, 2926.989
957.9739, 3017.384
958.4561, 3118.858
958.9382, 3187.002
959.4203, 3218.636
959.9024, 3266.087
960.3845, 3337.177
960.8666, 3409.666
961.3488, 3495.851
961.8309, 3561.047
962.3130, 3573.809
962.7951, 3556.272
963.2772, 3553.728
963.7593, 3572.645
964.2415, 3571.917
964.7236, 3545.644
965.2057, 3508.260
965.6878, 3456.396
966.1699, 3399.529
966.6520, 3343.867
967.1342, 3287.295
967.6163, 3223.720
968.0984, 3149.091
968.5805, 3083.408
969.0626, 3027.970
969.5447, 2980.722
970.0269, 2938.464
970.5090, 2906.608
970.9911, 2895.562
971.4732, 2897.300
971.9553, 2888.751
972.4374, 2860.012
972.9196, 2848.998
973.4017, 2866.909
973.8838, 2895.538
974.3659, 2936.830
974.8480, 2979.143
975.3301, 3010.898
975.8123, 3035.204
976.2944, 3063.860
976.7765, 3103.440
977.2586, 3131.496
977.7407, 3139.356
978.2228, 3139.006
978.7050, 3133.597
979.1871, 3124.009
979.6692, 3112.094
980.1513, 3096.601
980.6334, 3072.815
981.1155, 3038.496
981.5977, 2999.865
982.0798, 2949.185
982.5619, 2905.898
983.0440, 2890.057
983.5261, 2879.009
984.0082, 2840.607
984.4904, 2782.929
984.9725, 2746.900
985.4546, 2751.033
985.9367, 2754.024
986.4188, 2737.828
986.9009, 2719.815
987.3831, 2704.271
987.8652, 2696.567
988.3473, 2710.716
988.8294, 2739.251
989.3115, 2748.850
989.7936, 2721.283
990.2758, 2698.520
990.7579, 2703.152
991.2400, 2712.265
991.7221, 2714.483
992.2042, 2710.452
992.6863, 2700.147
993.1685, 2685.222
993.6506, 2670.449
994.1327, 2655.769
994.6148, 2646.390
995.0969, 2650.148
995.5790, 2654.076
996.0612, 2641.359
996.5433, 2628.730
997.0254, 2643.584
997.5075, 2680.962
997.9896, 2707.002
998.4717, 2708.215
998.9539, 2702.823
999.4360, 2692.339
999.9181, 2685.550
1000.400, 2689.860
1000.882, 2700.748
1001.364, 2717.022
1001.847, 2734.475
1002.329, 2740.638
1002.811, 2731.525
1003.293, 2709.733
1003.775, 2668.152
1004.257, 2623.221
1004.739, 2589.171
1005.221, 2556.867
1005.703, 2512.850
1006.186, 2458.816
1006.668, 2407.916
1007.150, 2368.111
1007.632, 2320.575
1008.114, 2244.489
1008.596, 2171.485
1009.078, 2126.892
1009.560, 2094.006
1010.043, 2052.491
1010.525, 2002.037
1011.007, 1952.202
1011.489, 1905.321
1011.971, 1860.444
1012.453, 1812.969
1012.935, 1771.752
1013.417, 1746.261
1013.899, 1727.184
1014.382, 1705.551
1014.864, 1680.688
1015.346, 1654.074
1015.828, 1625.354
1016.310, 1598.723
1016.792, 1575.168
1017.274, 1554.847
1017.756, 1539.223
1018.239, 1525.779
1018.721, 1511.715
1019.203, 1497.622
1019.685, 1486.439
1020.167, 1479.798
1020.649, 1471.172
1021.131, 1451.018
1021.613, 1437.566
1022.095, 1443.137
1022.578, 1455.825
1023.060, 1468.154
1023.542, 1477.602
1024.024, 1479.957
1024.506, 1473.308
1024.988, 1467.021
1025.470, 1465.343
1025.952, 1462.058
1026.435, 1454.502
1026.917, 1444.804
1027.399, 1433.273
1027.881, 1421.429
1028.363, 1412.523
1028.845, 1407.498
1029.327, 1400.954
1029.809, 1390.865
1030.292, 1380.609
1030.774, 1369.911
1031.256, 1360.462
1031.738, 1356.292
1032.220, 1352.954
1032.702, 1341.806
1033.184, 1321.631
1033.666, 1302.512
1034.148, 1279.603
1034.630, 1266.500
1035.113, 1273.250
1035.595, 1281.818
1036.077, 1283.454
1036.559, 1280.172
1037.041, 1274.214
1037.523, 1265.514
1038.005, 1258.388
1038.487, 1250.771
1038.970, 1248.241
1039.452, 1257.568
1039.934, 1263.584
1040.416, 1257.708
1040.898, 1246.672
1041.380, 1235.742
1041.862, 1225.907
1042.344, 1229.506
1042.826, 1261.195
1043.309, 1272.851
1043.791, 1249.899
1044.273, 1231.079
1044.755, 1231.620
1045.237, 1240.639
1045.719, 1248.429
1046.201, 1254.927
1046.683, 1259.841
1047.166, 1262.960
1047.648, 1265.523
1048.130, 1268.243
1048.612, 1267.628
1049.094, 1260.552
1049.576, 1255.205
1050.058, 1258.887
1050.540, 1268.969
1051.022, 1279.743
1051.505, 1292.279
1051.987, 1292.727
1052.469, 1278.214
1052.951, 1269.767
1053.433, 1272.640
1053.915, 1281.590
1054.397, 1294.908
1054.879, 1306.228
1055.361, 1300.869
1055.844, 1281.381
1056.326, 1280.659
1056.808, 1298.601
1057.290, 1311.305
1057.772, 1314.719
1058.254, 1310.319
1058.736, 1298.372
1059.218, 1285.091
1059.701, 1279.880
1060.183, 1279.020
1060.665, 1268.987
1061.147, 1251.469
1061.629, 1234.734
1062.111, 1220.154
1062.593, 1210.106
1063.075, 1205.377
1063.557, 1203.089
1064.040, 1200.965
1064.522, 1198.678
1065.004, 1196.234
1065.486, 1192.963
1065.968, 1185.535
1066.450, 1175.744
1066.932, 1170.798
1067.414, 1171.974
1067.896, 1173.535
1068.379, 1171.833
1068.861, 1167.962
1069.343, 1161.639
1069.825, 1155.066
1070.307, 1148.540
1070.789, 1145.308
1071.271, 1154.641
1071.753, 1174.103
1072.236, 1188.262
1072.718, 1189.619
1073.200, 1189.088
1073.682, 1193.986
1074.164, 1201.014
1074.646, 1210.851
1075.128, 1218.719
1075.610, 1214.238
1076.093, 1203.630
1076.575, 1206.411
1077.057, 1228.300
1077.539, 1244.404
1078.021, 1236.854
1078.503, 1230.474
1078.985, 1238.346
1079.467, 1249.859
1079.949, 1257.306
1080.432, 1262.340
1080.914, 1271.073
1081.396, 1283.365
1081.878, 1284.856
1082.360, 1259.814
1082.842, 1244.019
1083.324, 1251.812
1083.806, 1259.214
1084.288, 1253.111
1084.771, 1242.994
1085.253, 1239.779
1085.735, 1241.894
1086.217, 1241.686
1086.699, 1240.622
1087.181, 1232.935
1087.663, 1214.644
1088.145, 1197.681
1088.628, 1184.501
1089.110, 1174.671
1089.592, 1168.430
1090.074, 1164.710
1090.556, 1162.068
1091.038, 1160.817
1091.520, 1149.142
1092.002, 1123.157
1092.484, 1114.396
1092.967, 1130.443
1093.449, 1147.435
1093.931, 1153.673
1094.413, 1153.412
1094.895, 1151.461
1095.377, 1148.301
1095.859, 1145.405
1096.341, 1142.885
1096.823, 1141.054
1097.306, 1140.259
1097.788, 1144.517
1098.270, 1154.634
1098.752, 1162.454
1099.234, 1160.839
1099.716, 1156.124
1100.198, 1159.748
1100.680, 1166.420
1101.163, 1163.341
1101.645, 1154.547
1102.127, 1150.788
1102.609, 1153.599
1103.091, 1159.946
1103.573, 1168.609
1104.055, 1176.494
1104.537, 1181.995
1105.020, 1184.493
1105.502, 1182.303
1105.984, 1177.596
1106.466, 1171.369
1106.948, 1165.365
1107.430, 1163.207
1107.912, 1165.375
1108.394, 1166.818
1108.876, 1166.938
1109.359, 1163.742
1109.841, 1153.059
1110.323, 1142.700
1110.805, 1142.005
1111.287, 1141.201
1111.769, 1122.830
1112.251, 1091.927
1112.733, 1078.379
1113.215, 1094.206
1113.698, 1104.207
1114.180, 1105.108
1114.662, 1103.614
1115.144, 1100.486
1115.626, 1096.296
1116.108, 1090.983
1116.590, 1085.230
1117.072, 1079.810
1117.555, 1074.703
1118.037, 1074.479
1118.519, 1079.755
1119.001, 1088.498
1119.483, 1102.608
1119.965, 1103.890
1120.447, 1082.730
1120.929, 1059.195
1121.411, 1053.887
1121.894, 1061.733
1122.376, 1074.998
1122.858, 1090.059
1123.340, 1082.527
1123.822, 1057.193
1124.304, 1046.502
1124.786, 1055.951
1125.268, 1064.792
1125.750, 1061.156
1126.233, 1053.854
1126.715, 1054.293
1127.197, 1055.646
1127.679, 1044.562
1128.161, 1030.223
1128.643, 1030.185
1129.125, 1039.669
1129.607, 1041.082
1130.090, 1030.688
1130.572, 1022.085
1131.054, 1024.135
1131.536, 1025.899
1132.018, 1018.979
1132.500, 1012.814
1132.982, 1015.406
1133.464, 1021.317
1133.947, 1025.234
1134.429, 1026.208
1134.911, 1021.884
1135.393, 1007.435
1135.875, 1003.351
1136.357, 1025.473
1136.839, 1036.529
1137.321, 1022.109
1137.803, 1007.154
1138.286, 1006.058
1138.768, 1012.297
1139.250, 1017.127
1139.732, 1020.348
1140.214, 1019.513
1140.696, 1013.748
1141.178, 1011.028
1141.660, 1012.195
1142.142, 1012.592
1142.625, 1010.711
1143.107, 1008.384
1143.589, 1007.193
1144.071, 1005.536
1144.553, 1000.009
1145.035, 991.9562
1145.517, 983.3741
1145.999, 976.2234
1146.482, 978.0330
1146.964, 987.5650
1147.446, 996.9982
1147.928, 1003.047
1148.410, 1004.061
1148.892, 995.9291
1149.374, 987.2267
1149.856, 986.8106
1150.339, 988.3953
1150.821, 985.4530
1151.303, 980.4172
1151.785, 976.9363
1152.267, 975.5447
1152.749, 975.9447
1153.231, 978.8086
1153.713, 980.4790
1154.195, 979.0812
1154.677, 977.8420
1155.160, 974.4923
1155.642, 975.3866
1156.124, 989.6063
1156.606, 1005.941
1157.088, 1006.267
1157.570, 992.4769
1158.052, 988.4408
1158.534, 998.9109
1159.017, 994.4741
1159.499, 969.2752
1159.981, 957.5197
1160.463, 970.9301
1160.945, 987.6479
1161.427, 992.3711
1161.909, 988.3843
1162.391, 978.4239
1162.874, 965.4552
1163.356, 958.6358
1163.838, 957.5156
1164.320, 963.0275
1164.802, 973.0653
1165.284, 980.4282
1165.766, 982.8511
1166.248, 982.8907
1166.730, 982.0692
1167.213, 979.9090
1167.695, 975.1971
1168.177, 969.8236
1168.659, 965.8928
1169.141, 962.0354
1169.623, 954.2090
1170.105, 945.1646
1170.587, 944.4047
1171.069, 955.2076
1171.552, 960.4828
1172.034, 952.9351
1172.516, 946.4137
1172.998, 939.6627
1173.480, 939.3585
1173.962, 951.8922
1174.444, 967.5175
1174.926, 977.3788
1175.409, 981.1021
1175.891, 975.9317
1176.373, 960.9874
1176.855, 948.5985
1177.337, 938.6241
1177.819, 937.8751
1178.301, 947.3225
1178.783, 954.5751
1179.266, 953.5938
1179.748, 950.6691
1180.230, 953.1159
1180.712, 956.3140
1181.194, 949.6433
1181.676, 940.5431
1182.158, 943.7856
1182.640, 954.2005
1183.122, 961.4622
1183.604, 962.8950
1184.087, 956.4131
1184.569, 939.8068
1185.051, 926.6748
1185.533, 923.2039
1186.015, 924.5526
1186.497, 933.0172
1186.979, 940.9641
1187.461, 942.6657
1187.944, 940.9684
1188.426, 940.5367
1188.908, 940.7672
1189.390, 936.9530
1189.872, 925.2769
1190.354, 924.0240
1190.836, 935.9128
1191.318, 947.0537
1191.801, 955.1375
1192.283, 956.1967
1192.765, 947.2574
1193.247, 935.7690
1193.729, 931.2000
1194.211, 930.6969
1194.693, 926.1912
1195.175, 920.4107
1195.657, 922.1888
1196.140, 928.9526
1196.622, 930.3431
1197.104, 926.4818
1197.586, 929.9440
1198.068, 947.5420
1198.550, 959.4311
1199.032, 948.5747
1199.514, 934.4276
1199.996, 923.4161
1200.479, 918.2731
1200.961, 924.3500
1201.443, 935.4974
1201.925, 945.6772
1202.407, 953.0766
1202.889, 948.5307
1203.371, 924.1193
1203.853, 913.9443
1204.336, 922.5812
1204.818, 931.0481
1205.300, 936.0399
1205.782, 938.0270
1206.264, 936.8184
1206.746, 935.7983
1207.228, 940.1572
1207.710, 945.3364
1208.193, 936.8084
1208.675, 920.7731
1209.157, 914.8527
1209.639, 917.7421
1210.121, 925.3003
1210.603, 934.6404
1211.085, 939.3311
1211.567, 936.7947
1212.049, 931.9387
1212.531, 926.3546
1213.014, 921.1868
1213.496, 914.3589
1213.978, 911.1144
1214.460, 920.5677
1214.942, 931.7347
1215.424, 926.7297
1215.906, 911.9330
1216.388, 914.2583
1216.871, 939.5867
1217.353, 943.5695
1217.835, 919.2200
1218.317, 903.3579
1218.799, 901.6868
1219.281, 905.3755
1219.763, 911.3359
1220.245, 913.1790
1220.728, 903.6353
1221.210, 892.4636
1221.692, 901.4329
1222.174, 918.5353
1222.656, 916.2536
1223.138, 903.8715
1223.620, 902.0370
1224.102, 909.1910
1224.584, 912.8960
1225.067, 910.0013
1225.549, 905.8051
1226.031, 901.4014
1226.513, 898.3381
1226.995, 898.8735
##END=



