##NAMES=Axinite-(Fe)
##RRUFFID=R040074
##IDEAL CHEMISTRY=Ca_4_Fe^2+^_2_Al_4_[B_2_Si_8_O_30_](OH)_2_
##LOCALITY=Luning, Nevada, USA
##OWNER=RRUFF
##SOURCE=University of Arizona Mineral Museum
##DESCRIPTION=Pale brown wedge-shaped crystal
##STATUS=The identification of this mineral has been confirmed by X-ray diffraction and chemical analysis
##URL=rruff.info/R040074
##MEASURED CHEMISTRY=(Ca_0.98_Mn_0.01_)_2_(Fe_0.41_Mg_0.39_Mn_0.20_)Al_1.95_B_1.20_Si_3.90_O_15_(OH)
122.1115, 811.1833
122.5936, 807.7395
123.0757, 819.7263
123.5579, 864.8138
124.0400, 933.9208
124.5221, 1004.999
125.0042, 1059.156
125.4863, 1094.823
125.9684, 1135.914
126.4506, 1189.638
126.9327, 1243.052
127.4148, 1290.645
127.8969, 1333.272
128.3790, 1376.629
128.8611, 1425.365
129.3432, 1478.477
129.8254, 1541.448
130.3075, 1628.135
130.7896, 1712.801
131.2717, 1786.645
131.7538, 1846.529
132.2359, 1890.839
132.7181, 1915.231
133.2002, 1909.223
133.6823, 1907.476
134.1644, 1915.492
134.6465, 1923.271
135.1286, 1920.920
135.6108, 1907.690
136.0929, 1893.328
136.5750, 1891.975
137.0571, 1898.649
137.5392, 1931.981
138.0213, 1997.496
138.5035, 2084.228
138.9856, 2186.669
139.4677, 2302.027
139.9498, 2425.788
140.4319, 2548.150
140.9140, 2662.434
141.3962, 2786.430
141.8783, 2931.706
142.3604, 3082.166
142.8425, 3220.468
143.3246, 3339.484
143.8067, 3445.231
144.2889, 3551.681
144.7710, 3658.407
145.2531, 3766.076
145.7352, 3861.512
146.2173, 3910.666
146.6994, 3919.327
147.1816, 3933.501
147.6637, 3949.010
148.1458, 3953.447
148.6279, 3942.424
149.1100, 3931.896
149.5921, 3933.687
150.0743, 3938.000
150.5564, 3927.450
151.0385, 3896.327
151.5206, 3842.059
152.0027, 3755.495
152.4848, 3625.615
152.9670, 3484.953
153.4491, 3336.489
153.9312, 3184.672
154.4133, 3040.409
154.8954, 2905.945
155.3775, 2786.049
155.8597, 2692.143
156.3418, 2627.409
156.8239, 2579.345
157.3060, 2545.731
157.7881, 2524.648
158.2702, 2508.359
158.7524, 2495.338
159.2345, 2483.502
159.7166, 2467.092
160.1987, 2437.505
160.6808, 2414.199
161.1629, 2413.356
161.6451, 2432.426
162.1272, 2451.281
162.6093, 2455.722
163.0914, 2456.355
163.5735, 2475.001
164.0556, 2516.576
164.5378, 2570.740
165.0199, 2628.951
165.5020, 2691.591
165.9841, 2765.125
166.4662, 2856.908
166.9483, 2960.755
167.4305, 3064.502
167.9126, 3167.325
168.3947, 3269.716
168.8768, 3379.798
169.3589, 3498.831
169.8410, 3595.364
170.3232, 3655.910
170.8053, 3680.585
171.2874, 3669.065
171.7695, 3609.389
172.2516, 3525.938
172.7337, 3443.551
173.2159, 3362.845
173.6980, 3272.904
174.1801, 3161.630
174.6622, 3037.524
175.1443, 2913.039
175.6264, 2791.137
176.1086, 2668.089
176.5907, 2534.965
177.0728, 2388.968
177.5549, 2250.419
178.0370, 2130.250
178.5191, 2024.631
179.0013, 1930.141
179.4834, 1845.650
179.9655, 1772.398
180.4476, 1714.186
180.9297, 1673.131
181.4118, 1635.915
181.8940, 1590.724
182.3761, 1547.347
182.8582, 1518.204
183.3403, 1508.168
183.8224, 1511.776
184.3046, 1522.734
184.7867, 1541.211
185.2688, 1565.935
185.7509, 1596.168
186.2330, 1632.458
186.7151, 1677.236
187.1973, 1732.856
187.6794, 1794.583
188.1615, 1855.347
188.6436, 1912.621
189.1257, 1978.216
189.6078, 2056.637
190.0900, 2145.931
190.5721, 2249.730
191.0542, 2374.663
191.5363, 2503.083
192.0184, 2615.309
192.5005, 2713.180
192.9827, 2785.843
193.4648, 2833.473
193.9469, 2851.652
194.4290, 2827.005
194.9111, 2747.442
195.3932, 2642.423
195.8754, 2545.749
196.3575, 2454.476
196.8396, 2382.890
197.3217, 2341.557
197.8038, 2321.016
198.2859, 2314.534
198.7681, 2319.322
199.2502, 2340.432
199.7323, 2389.053
200.2144, 2469.646
200.6965, 2553.193
201.1786, 2627.557
201.6608, 2700.985
202.1429, 2780.649
202.6250, 2870.285
203.1071, 2960.840
203.5892, 3040.162
204.0713, 3106.630
204.5535, 3173.623
205.0356, 3248.500
205.5177, 3323.875
205.9998, 3395.682
206.4819, 3464.661
206.9640, 3523.557
207.4462, 3563.383
207.9283, 3583.080
208.4104, 3593.134
208.8925, 3590.847
209.3746, 3582.818
209.8567, 3574.245
210.3388, 3566.086
210.8210, 3555.808
211.3031, 3540.727
211.7852, 3520.752
212.2673, 3498.766
212.7494, 3479.172
213.2315, 3454.775
213.7137, 3420.775
214.1958, 3376.826
214.6779, 3323.443
215.1600, 3257.066
215.6421, 3178.195
216.1242, 3105.749
216.6064, 3053.715
217.0885, 3000.944
217.5706, 2932.237
218.0527, 2846.800
218.5348, 2748.428
219.0169, 2628.255
219.4991, 2490.307
219.9812, 2378.627
220.4633, 2315.748
220.9454, 2266.063
221.4275, 2198.220
221.9096, 2112.577
222.3918, 2028.143
222.8739, 1956.089
223.3560, 1895.020
223.8381, 1838.118
224.3202, 1786.001
224.8023, 1735.505
225.2845, 1681.786
225.7666, 1625.789
226.2487, 1574.230
226.7308, 1533.024
227.2129, 1499.498
227.6950, 1464.083
228.1772, 1423.221
228.6593, 1385.776
229.1414, 1357.784
229.6235, 1338.278
230.1056, 1326.313
230.5877, 1327.764
231.0699, 1335.514
231.5520, 1333.325
232.0341, 1317.206
232.5162, 1299.267
232.9983, 1285.769
233.4804, 1277.063
233.9626, 1276.196
234.4447, 1286.858
234.9268, 1304.925
235.4089, 1325.061
235.8910, 1347.333
236.3731, 1370.718
236.8553, 1395.787
237.3374, 1421.589
237.8195, 1446.210
238.3016, 1469.356
238.7837, 1491.021
239.2658, 1510.082
239.7480, 1526.489
240.2301, 1543.968
240.7122, 1566.060
241.1943, 1590.734
241.6764, 1612.563
242.1585, 1629.067
242.6407, 1644.766
243.1228, 1661.000
243.6049, 1678.337
244.0870, 1702.381
244.5691, 1738.580
245.0512, 1782.297
245.5334, 1819.838
246.0155, 1845.608
246.4976, 1873.266
246.9797, 1908.721
247.4618, 1951.556
247.9439, 2003.415
248.4261, 2068.806
248.9082, 2138.471
249.3903, 2191.389
249.8724, 2220.232
250.3545, 2251.469
250.8366, 2297.154
251.3188, 2351.004
251.8009, 2401.936
252.2830, 2446.374
252.7651, 2485.748
253.2472, 2523.458
253.7293, 2562.950
254.2115, 2591.022
254.6936, 2600.669
255.1757, 2599.505
255.6578, 2595.176
256.1399, 2589.455
256.6220, 2584.179
257.1042, 2580.672
257.5863, 2576.958
258.0684, 2584.277
258.5505, 2605.195
259.0326, 2635.877
259.5147, 2674.238
259.9969, 2719.754
260.4790, 2770.961
260.9611, 2827.156
261.4432, 2888.287
261.9253, 2955.317
262.4074, 3024.595
262.8896, 3101.590
263.3717, 3192.000
263.8538, 3293.979
264.3359, 3402.288
264.8180, 3514.097
265.3001, 3629.771
265.7823, 3734.906
266.2644, 3814.777
266.7465, 3901.968
267.2286, 4021.596
267.7107, 4155.260
268.1928, 4265.590
268.6750, 4328.791
269.1571, 4355.742
269.6392, 4399.097
270.1213, 4495.437
270.6034, 4566.998
271.0855, 4596.355
271.5677, 4599.900
272.0498, 4597.061
272.5319, 4596.082
273.0140, 4592.041
273.4961, 4574.335
273.9782, 4543.307
274.4604, 4495.541
274.9425, 4420.625
275.4246, 4337.699
275.9067, 4267.294
276.3888, 4211.998
276.8709, 4151.901
277.3531, 4056.448
277.8352, 3914.883
278.3173, 3772.914
278.7994, 3625.537
279.2815, 3483.753
279.7636, 3351.628
280.2458, 3230.181
280.7279, 3118.568
281.2100, 3014.841
281.6921, 2918.611
282.1742, 2838.064
282.6563, 2781.071
283.1385, 2731.606
283.6206, 2677.073
284.1027, 2623.889
284.5848, 2588.290
285.0669, 2586.088
285.5490, 2608.204
286.0312, 2620.672
286.5133, 2615.022
286.9954, 2617.544
287.4775, 2640.520
287.9596, 2678.074
288.4417, 2723.701
288.9239, 2776.330
289.4060, 2834.090
289.8881, 2893.872
290.3702, 2955.137
290.8523, 3021.884
291.3344, 3099.677
291.8166, 3181.720
292.2987, 3259.397
292.7808, 3330.399
293.2629, 3400.720
293.7450, 3474.385
294.2271, 3550.805
294.7093, 3628.962
295.1914, 3710.005
295.6735, 3790.427
296.1556, 3866.693
296.6377, 3938.591
297.1198, 4008.890
297.6020, 4084.025
298.0841, 4157.274
298.5662, 4217.129
299.0483, 4261.751
299.5304, 4294.479
300.0125, 4317.986
300.4947, 4332.272
300.9768, 4337.905
301.4589, 4331.758
301.9410, 4319.157
302.4231, 4302.093
302.9052, 4281.689
303.3874, 4263.195
303.8695, 4251.248
304.3516, 4245.390
304.8337, 4234.657
305.3158, 4220.906
305.7979, 4201.394
306.2801, 4177.246
306.7622, 4146.410
307.2443, 4104.957
307.7264, 4051.170
308.2085, 3985.126
308.6906, 3908.021
309.1728, 3797.355
309.6549, 3702.021
310.1370, 3627.983
310.6191, 3568.534
311.1012, 3516.151
311.5833, 3468.655
312.0655, 3429.980
312.5476, 3406.359
313.0297, 3399.090
313.5118, 3405.209
313.9939, 3424.911
314.4760, 3455.459
314.9582, 3497.545
315.4403, 3549.820
315.9224, 3608.576
316.4045, 3673.864
316.8866, 3745.660
317.3687, 3803.940
317.8509, 3849.669
318.3330, 3878.156
318.8151, 3886.568
319.2972, 3877.648
319.7793, 3857.425
320.2614, 3832.198
320.7436, 3793.531
321.2257, 3718.516
321.7078, 3599.585
322.1899, 3466.675
322.6720, 3316.674
323.1541, 3164.138
323.6363, 3023.687
324.1184, 2899.375
324.6005, 2783.556
325.0826, 2664.159
325.5647, 2541.917
326.0468, 2443.745
326.5290, 2384.254
327.0111, 2342.911
327.4932, 2295.930
327.9753, 2243.178
328.4574, 2195.500
328.9395, 2154.907
329.4217, 2123.168
329.9038, 2107.724
330.3859, 2111.816
330.8680, 2115.537
331.3501, 2097.929
331.8322, 2061.157
332.3144, 2035.955
332.7965, 2026.207
333.2786, 2027.196
333.7607, 2036.969
334.2428, 2055.049
334.7249, 2079.531
335.2070, 2108.492
335.6891, 2143.645
336.1713, 2193.662
336.6534, 2262.482
337.1355, 2338.736
337.6176, 2416.908
338.0997, 2502.469
338.5818, 2605.708
339.0640, 2729.281
339.5461, 2862.594
340.0282, 2987.410
340.5103, 3091.555
340.9924, 3215.609
341.4745, 3380.739
341.9567, 3545.219
342.4388, 3695.046
342.9209, 3822.369
343.4030, 3916.695
343.8851, 3965.069
344.3672, 3968.476
344.8494, 3966.681
345.3315, 3972.037
345.8136, 3955.024
346.2957, 3896.347
346.7778, 3814.190
347.2599, 3734.613
347.7421, 3668.971
348.2242, 3611.490
348.7063, 3547.355
349.1884, 3470.174
349.6705, 3413.387
350.1526, 3406.137
350.6348, 3411.679
351.1169, 3402.333
351.5990, 3374.644
352.0811, 3336.480
352.5632, 3297.245
353.0453, 3252.923
353.5275, 3188.873
354.0096, 3102.978
354.4917, 2996.548
354.9738, 2861.736
355.4559, 2704.172
355.9380, 2549.813
356.4202, 2400.938
356.9023, 2259.479
357.3844, 2125.920
357.8665, 2000.925
358.3486, 1887.448
358.8307, 1787.165
359.3129, 1699.722
359.7950, 1621.079
360.2771, 1552.658
360.7592, 1489.976
361.2413, 1430.892
361.7234, 1377.410
362.2056, 1333.396
362.6877, 1299.852
363.1698, 1273.070
363.6519, 1247.365
364.1340, 1221.823
364.6161, 1199.917
365.0983, 1184.279
365.5804, 1169.403
366.0625, 1149.661
366.5446, 1127.108
367.0267, 1109.384
367.5089, 1102.523
367.9910, 1105.866
368.4731, 1113.645
368.9552, 1132.501
369.4373, 1146.044
369.9194, 1147.744
370.4016, 1143.191
370.8837, 1138.705
371.3658, 1136.498
371.8479, 1135.421
372.3300, 1133.165
372.8121, 1129.395
373.2943, 1129.264
373.7764, 1136.875
374.2585, 1145.731
374.7406, 1150.002
375.2227, 1149.806
375.7048, 1149.173
376.1870, 1147.054
376.6691, 1146.668
377.1512, 1155.705
377.6333, 1175.700
378.1154, 1196.537
378.5975, 1209.762
379.0797, 1217.308
379.5618, 1230.739
380.0439, 1244.244
380.5260, 1269.596
381.0081, 1319.992
381.4902, 1386.612
381.9724, 1448.572
382.4545, 1497.059
382.9366, 1540.850
383.4187, 1597.042
383.9008, 1671.009
384.3829, 1750.021
384.8651, 1835.537
385.3472, 1924.777
385.8293, 2019.007
386.3114, 2116.314
386.7935, 2209.011
387.2756, 2289.840
387.7578, 2359.086
388.2399, 2429.146
388.7220, 2508.150
389.2041, 2576.610
389.6862, 2636.371
390.1683, 2680.770
390.6505, 2702.755
391.1326, 2699.688
391.6147, 2672.172
392.0968, 2615.866
392.5789, 2528.044
393.0610, 2437.160
393.5432, 2348.437
394.0253, 2258.766
394.5074, 2164.074
394.9895, 2065.145
395.4716, 1972.347
395.9537, 1892.511
396.4359, 1821.190
396.9180, 1749.065
397.4001, 1674.816
397.8822, 1612.333
398.3643, 1572.857
398.8464, 1553.656
399.3286, 1535.637
399.8107, 1520.069
400.2928, 1504.283
400.7749, 1483.303
401.2570, 1462.172
401.7391, 1451.126
402.2213, 1453.524
402.7034, 1461.587
403.1855, 1462.999
403.6676, 1453.252
404.1497, 1449.055
404.6318, 1448.765
405.1140, 1454.607
405.5961, 1466.961
406.0782, 1486.440
406.5603, 1513.827
407.0424, 1549.095
407.5245, 1593.258
408.0067, 1649.384
408.4888, 1717.895
408.9709, 1798.334
409.4530, 1893.852
409.9351, 1998.472
410.4172, 2105.909
410.8994, 2215.072
411.3815, 2329.475
411.8636, 2450.097
412.3457, 2577.393
412.8278, 2720.281
413.3099, 2884.028
413.7921, 3053.978
414.2742, 3220.495
414.7563, 3383.567
415.2384, 3546.480
415.7205, 3730.256
416.2026, 3895.856
416.6848, 4025.601
417.1669, 4113.410
417.6490, 4135.687
418.1311, 4077.521
418.6132, 3958.678
419.0953, 3820.555
419.5775, 3637.068
420.0596, 3480.069
420.5417, 3354.427
421.0238, 3253.507
421.5059, 3170.902
421.9880, 3106.908
422.4702, 3067.863
422.9523, 3061.752
423.4344, 3086.652
423.9165, 3113.902
424.3986, 3137.568
424.8807, 3172.568
425.3629, 3228.242
425.8450, 3293.414
426.3271, 3357.339
426.8092, 3416.831
427.2913, 3469.926
427.7734, 3515.183
428.2556, 3552.371
428.7377, 3582.385
429.2198, 3610.797
429.7019, 3622.796
430.1840, 3605.231
430.6661, 3561.515
431.1483, 3499.598
431.6304, 3413.933
432.1125, 3316.822
432.5946, 3221.103
433.0767, 3124.681
433.5588, 3015.076
434.0410, 2883.666
434.5231, 2739.198
435.0052, 2603.174
435.4873, 2476.157
435.9694, 2355.993
436.4515, 2232.374
436.9337, 2122.527
437.4158, 2043.216
437.8979, 1993.389
438.3800, 1960.385
438.8621, 1933.817
439.3442, 1913.931
439.8264, 1902.279
440.3085, 1901.126
440.7906, 1905.472
441.2727, 1912.516
441.7548, 1924.405
442.2369, 1945.460
442.7191, 1977.235
443.2012, 2010.225
443.6833, 2040.054
444.1654, 2064.941
444.6475, 2071.369
445.1296, 2057.226
445.6118, 2025.079
446.0939, 1972.321
446.5760, 1902.294
447.0581, 1824.109
447.5402, 1732.406
448.0223, 1639.190
448.5045, 1549.959
448.9866, 1465.683
449.4687, 1386.182
449.9508, 1311.873
450.4329, 1243.857
450.9150, 1184.901
451.3972, 1137.182
451.8793, 1095.173
452.3614, 1056.520
452.8435, 1025.489
453.3256, 1009.620
453.8077, 1004.096
454.2899, 995.3073
454.7720, 972.9896
455.2541, 942.6985
455.7362, 924.0039
456.2183, 921.4946
456.7004, 918.6595
457.1826, 910.8915
457.6647, 901.1351
458.1468, 890.9769
458.6289, 880.6412
459.1110, 871.3500
459.5931, 863.7372
460.0753, 857.7292
460.5574, 853.9543
461.0395, 852.6738
461.5216, 850.2142
462.0037, 842.3298
462.4858, 831.4913
462.9680, 829.0404
463.4501, 840.7446
463.9322, 852.8529
464.4143, 863.5132
464.8964, 871.6108
465.3785, 873.9059
465.8607, 870.4066
466.3428, 867.0015
466.8249, 870.6508
467.3070, 882.1121
467.7891, 891.9196
468.2712, 895.9973
468.7534, 903.0008
469.2355, 917.5348
469.7176, 935.5296
470.1997, 950.9737
470.6818, 961.2198
471.1639, 971.0029
471.6461, 986.1854
472.1282, 1006.527
472.6103, 1027.001
473.0924, 1045.314
473.5745, 1066.552
474.0566, 1097.885
474.5388, 1137.028
475.0209, 1174.347
475.5030, 1200.572
475.9851, 1231.430
476.4672, 1277.669
476.9493, 1337.322
477.4315, 1406.081
477.9136, 1482.663
478.3957, 1562.520
478.8778, 1635.733
479.3599, 1695.441
479.8420, 1766.649
480.3242, 1850.600
480.8063, 1943.138
481.2884, 2046.530
481.7705, 2156.060
482.2526, 2263.160
482.7347, 2363.252
483.2169, 2456.081
483.6990, 2546.385
484.1811, 2639.547
484.6632, 2698.267
485.1453, 2714.130
485.6274, 2689.205
486.1096, 2626.983
486.5917, 2528.459
487.0738, 2408.321
487.5559, 2261.360
488.0380, 2102.274
488.5201, 1938.847
489.0023, 1775.913
489.4844, 1636.035
489.9665, 1531.840
490.4486, 1455.365
490.9307, 1385.631
491.4128, 1323.668
491.8950, 1268.138
492.3771, 1215.262
492.8592, 1171.870
493.3413, 1144.340
493.8234, 1130.782
494.3055, 1122.832
494.7877, 1114.183
495.2698, 1107.618
495.7519, 1114.536
496.2340, 1140.976
496.7161, 1160.683
497.1982, 1157.567
497.6804, 1150.855
498.1625, 1158.125
498.6446, 1180.341
499.1267, 1205.826
499.6088, 1227.532
500.0909, 1250.315
500.5730, 1283.517
501.0551, 1326.035
501.5373, 1363.753
502.0194, 1386.438
502.5015, 1401.292
502.9836, 1430.681
503.4657, 1493.118
503.9478, 1543.786
504.4300, 1573.249
504.9121, 1596.882
505.3942, 1626.050
505.8763, 1660.794
506.3584, 1695.707
506.8405, 1726.678
507.3227, 1754.354
507.8048, 1782.885
508.2869, 1817.030
508.7690, 1835.972
509.2511, 1823.888
509.7332, 1799.821
510.2154, 1783.568
510.6975, 1776.446
511.1796, 1760.750
511.6617, 1722.625
512.1439, 1675.029
512.6260, 1634.757
513.1081, 1601.542
513.5902, 1565.757
514.0723, 1522.417
514.5544, 1472.070
515.0366, 1417.229
515.5187, 1350.061
516.0008, 1289.439
516.4829, 1236.232
516.9650, 1188.898
517.4471, 1148.067
517.9293, 1112.688
518.4114, 1080.798
518.8935, 1051.190
519.3756, 1023.691
519.8577, 996.2572
520.3398, 967.6819
520.8220, 946.8083
521.3041, 940.8838
521.7862, 939.8378
522.2683, 932.2800
522.7504, 918.1781
523.2325, 904.6831
523.7147, 894.4744
524.1968, 885.5743
524.6789, 874.4041
525.1610, 862.4539
525.6431, 855.8877
526.1252, 857.9141
526.6074, 865.6924
527.0895, 873.4430
527.5716, 883.6069
528.0537, 888.5765
528.5358, 881.8145
529.0179, 876.6702
529.5001, 881.7078
529.9822, 893.8184
530.4643, 904.1381
530.9464, 906.8454
531.4285, 908.4865
531.9106, 922.7974
532.3928, 949.2067
532.8749, 963.6038
533.3570, 954.2262
533.8391, 942.2767
534.3212, 951.9594
534.8033, 982.0279
535.2855, 1011.469
535.7676, 1037.358
536.2497, 1062.898
536.7318, 1091.543
537.2139, 1120.682
537.6960, 1144.815
538.1782, 1162.123
538.6603, 1175.705
539.1424, 1189.650
539.6245, 1203.704
540.1066, 1219.223
540.5887, 1235.903
541.0709, 1254.445
541.5530, 1276.574
542.0351, 1299.952
542.5172, 1321.350
542.9993, 1339.488
543.4814, 1356.441
543.9636, 1375.092
544.4457, 1393.754
544.9278, 1409.916
545.4099, 1423.587
545.8920, 1427.803
546.3741, 1415.276
546.8563, 1387.891
547.3384, 1363.489
547.8205, 1342.141
548.3026, 1323.127
548.7847, 1308.936
549.2668, 1295.472
549.7490, 1277.611
550.2311, 1255.644
550.7132, 1235.275
551.1953, 1221.529
551.6774, 1213.376
552.1595, 1205.266
552.6417, 1194.817
553.1238, 1194.755
553.6059, 1215.412
554.0880, 1244.906
554.5701, 1266.620
555.0522, 1279.290
555.5344, 1295.117
556.0165, 1321.005
556.4986, 1349.195
556.9807, 1372.010
557.4628, 1390.679
557.9449, 1411.656
558.4271, 1438.696
558.9092, 1467.085
559.3913, 1487.555
559.8734, 1500.037
560.3555, 1504.722
560.8376, 1494.430
561.3198, 1482.892
561.8019, 1477.663
562.2840, 1475.341
562.7661, 1467.604
563.2482, 1449.086
563.7303, 1429.093
564.2125, 1417.826
564.6946, 1413.087
565.1767, 1405.946
565.6588, 1393.837
566.1409, 1385.185
566.6230, 1387.743
567.1052, 1401.427
567.5873, 1420.162
568.0694, 1447.492
568.5515, 1474.793
569.0336, 1496.128
569.5157, 1518.701
569.9979, 1552.821
570.4800, 1598.212
570.9621, 1642.500
571.4442, 1674.044
571.9263, 1695.209
572.4084, 1714.949
572.8906, 1733.348
573.3727, 1749.684
573.8548, 1765.713
574.3369, 1777.486
574.8190, 1777.608
575.3011, 1764.421
575.7833, 1753.333
576.2654, 1752.353
576.7475, 1750.930
577.2296, 1741.466
577.7117, 1724.808
578.1938, 1701.692
578.6760, 1672.042
579.1581, 1645.136
579.6402, 1638.733
580.1223, 1656.539
580.6044, 1676.697
581.0865, 1699.459
581.5686, 1723.651
582.0507, 1747.226
582.5328, 1771.924
583.0150, 1801.022
583.4971, 1835.123
583.9792, 1874.079
584.4613, 1922.792
584.9434, 1974.689
585.4255, 2017.267
585.9077, 2049.299
586.3898, 2079.964
586.8719, 2117.510
587.3540, 2158.620
587.8361, 2183.856
588.3182, 2190.259
588.8004, 2184.424
589.2825, 2169.115
589.7646, 2141.349
590.2467, 2099.016
590.7288, 2042.331
591.2109, 1971.535
591.6931, 1879.193
592.1752, 1781.003
592.6573, 1700.870
593.1394, 1636.016
593.6215, 1566.236
594.1036, 1483.708
594.5858, 1401.148
595.0679, 1332.238
595.5500, 1278.167
596.0321, 1229.460
596.5142, 1188.032
596.9963, 1148.940
597.4785, 1108.148
597.9606, 1070.506
598.4427, 1042.728
598.9248, 1025.589
599.4069, 1012.088
599.8890, 995.1235
600.3712, 976.5349
600.8533, 964.0616
601.3354, 958.5533
601.8175, 950.9373
602.2996, 934.4782
602.7817, 916.8337
603.2639, 913.3340
603.7460, 927.8627
604.2281, 937.3101
604.7102, 936.9931
605.1923, 933.2996
605.6744, 926.7917
606.1566, 920.4431
606.6387, 919.4149
607.1208, 925.7872
607.6029, 935.9144
608.0850, 945.5486
608.5671, 954.6554
609.0493, 962.8808
609.5314, 970.7649
610.0135, 976.1900
610.4956, 974.4579
610.9777, 970.6188
611.4598, 975.6605
611.9420, 992.9569
612.4241, 1011.050
612.9062, 1030.543
613.3883, 1046.484
613.8704, 1052.954
614.3525, 1051.485
614.8347, 1047.862
615.3168, 1045.230
615.7989, 1043.188
616.2810, 1040.014
616.7631, 1034.756
617.2452, 1035.302
617.7274, 1046.501
618.2095, 1057.798
618.6916, 1063.375
619.1737, 1063.876
619.6558, 1060.132
620.1379, 1052.162
620.6201, 1040.142
621.1022, 1021.681
621.5843, 1000.527
622.0664, 981.5533
622.5485, 965.1492
623.0306, 949.0270
623.5128, 931.5026
623.9949, 913.2235
624.4770, 896.5131
624.9591, 882.6610
625.4412, 866.1784
625.9233, 842.9545
626.4055, 820.4534
626.8876, 804.6670
627.3697, 793.8036
627.8518, 781.4836
628.3339, 760.3082
628.8160, 745.0536
629.2982, 750.6080
629.7803, 765.6022
630.2624, 770.7931
630.7445, 763.7066
631.2266, 755.9719
631.7087, 757.4255
632.1909, 766.0948
632.6730, 770.6588
633.1551, 765.9692
633.6372, 770.5357
634.1193, 797.3464
634.6014, 826.1808
635.0836, 840.6636
635.5657, 843.7042
636.0478, 850.7628
636.5299, 869.9632
637.0120, 891.2151
637.4941, 907.3509
637.9763, 920.8111
638.4584, 936.3607
638.9405, 954.8210
639.4226, 972.7371
639.9047, 986.5842
640.3868, 997.1529
640.8690, 1011.297
641.3511, 1032.921
641.8332, 1048.881
642.3153, 1053.264
642.7974, 1053.243
643.2795, 1053.682
643.7617, 1054.482
644.2438, 1053.840
644.7259, 1055.119
645.2080, 1050.845
645.6901, 1031.806
646.1722, 1004.604
646.6544, 981.6974
647.1365, 965.7063
647.6186, 950.2744
648.1007, 928.9125
648.5828, 902.9228
649.0649, 881.5936
649.5471, 867.0027
650.0292, 851.9347
650.5113, 834.3088
650.9934, 815.9549
651.4755, 796.8398
651.9576, 777.6902
652.4398, 762.7217
652.9219, 755.1191
653.4040, 750.0677
653.8861, 744.7557
654.3682, 739.7933
654.8503, 736.1154
655.3325, 733.9822
655.8146, 733.5472
656.2967, 735.5557
656.7788, 739.0433
657.2609, 737.5586
657.7430, 727.8989
658.2252, 723.7020
658.7073, 730.9692
659.1894, 742.1950
659.6715, 752.0920
660.1536, 760.4365
660.6357, 765.1586
661.1179, 760.9603
661.6000, 758.4791
662.0821, 761.2878
662.5642, 769.9583
663.0463, 787.5369
663.5284, 813.0294
664.0106, 838.5809
664.4927, 856.9360
664.9748, 871.1516
665.4569, 892.1790
665.9390, 921.3404
666.4211, 949.5244
666.9033, 974.4319
667.3854, 998.1132
667.8675, 1018.499
668.3496, 1037.665
668.8317, 1069.619
669.3138, 1122.919
669.7960, 1179.865
670.2781, 1237.185
670.7602, 1293.158
671.2423, 1345.809
671.7244, 1395.443
672.2065, 1444.501
672.6887, 1494.875
673.1708, 1545.527
673.6529, 1594.669
674.1350, 1642.479
674.6171, 1690.435
675.0992, 1743.482
675.5814, 1783.750
676.0635, 1792.457
676.5456, 1773.721
677.0277, 1759.898
677.5098, 1765.583
677.9919, 1755.705
678.4741, 1716.997
678.9562, 1667.424
679.4383, 1619.217
679.9204, 1572.823
680.4025, 1525.096
680.8846, 1474.397
681.3668, 1420.728
681.8489, 1361.407
682.3310, 1298.926
682.8131, 1244.064
683.2952, 1198.938
683.7773, 1157.389
684.2595, 1113.980
684.7416, 1071.761
685.2237, 1040.889
685.7058, 1029.045
686.1879, 1016.485
686.6700, 1001.736
687.1522, 987.7092
687.6343, 975.3046
688.1164, 964.7792
688.5985, 956.2220
689.0806, 949.6138
689.5627, 945.2446
690.0449, 940.5591
690.5270, 939.4504
691.0091, 952.5238
691.4912, 977.9536
691.9733, 998.4233
692.4554, 1004.466
692.9376, 1003.296
693.4197, 1008.267
693.9018, 1019.171
694.3839, 1037.646
694.8660, 1069.032
695.3481, 1100.573
695.8303, 1123.891
696.3124, 1145.726
696.7945, 1174.496
697.2766, 1211.346
697.7587, 1252.778
698.2408, 1297.098
698.7230, 1345.871
699.2051, 1399.763
699.6872, 1459.230
700.1693, 1524.750
700.6514, 1596.266
701.1335, 1676.712
701.6157, 1771.856
702.0978, 1879.741
702.5799, 1978.898
703.0620, 2061.985
703.5441, 2171.813
704.0262, 2327.716
704.5084, 2511.086
704.9905, 2704.322
705.4726, 2907.136
705.9547, 3114.788
706.4368, 3317.270
706.9189, 3537.197
707.4011, 3790.102
707.8832, 4060.938
708.3653, 4334.155
708.8474, 4606.914
709.3295, 4882.314
709.8116, 5166.017
710.2938, 5451.401
710.7759, 5736.035
711.2580, 6015.558
711.7401, 6270.869
712.2222, 6498.873
712.7043, 6690.823
713.1865, 6843.653
713.6686, 6952.569
714.1507, 6987.655
714.6328, 6943.985
715.1149, 6834.104
715.5970, 6645.686
716.0792, 6407.508
716.5613, 6119.949
717.0434, 5798.161
717.5255, 5468.150
718.0076, 5136.641
718.4897, 4805.152
718.9719, 4464.565
719.4540, 4130.800
719.9361, 3822.566
720.4182, 3541.675
720.9003, 3282.490
721.3824, 3041.997
721.8646, 2823.378
722.3467, 2633.634
722.8288, 2473.226
723.3109, 2330.865
723.7930, 2211.303
724.2751, 2094.266
724.7573, 1965.464
725.2394, 1837.615
725.7215, 1737.435
726.2036, 1667.867
726.6857, 1601.699
727.1678, 1533.987
727.6500, 1471.677
728.1321, 1419.675
728.6142, 1374.020
729.0963, 1329.664
729.5784, 1285.658
730.0605, 1243.112
730.5427, 1200.289
731.0248, 1161.792
731.5069, 1140.452
731.9890, 1131.861
732.4711, 1112.688
732.9532, 1076.191
733.4354, 1037.982
733.9175, 1012.704
734.3996, 998.6351
734.8817, 982.2473
735.3638, 958.9473
735.8459, 943.1238
736.3281, 944.4936
736.8102, 946.4958
737.2923, 938.7375
737.7744, 923.7845
738.2565, 908.8170
738.7386, 893.4255
739.2208, 881.8987
739.7029, 878.0597
740.1850, 877.5272
740.6671, 877.8831
741.1492, 877.5342
741.6313, 874.3185
742.1135, 867.2874
742.5956, 855.2731
743.0777, 831.0293
743.5598, 798.6303
744.0419, 784.6788
744.5240, 791.4008
745.0062, 805.2648
745.4883, 823.8318
745.9704, 839.8561
746.4525, 840.6588
746.9346, 822.3554
747.4167, 811.5004
747.8989, 812.0696
748.3810, 814.9116
748.8631, 817.8341
749.3452, 822.2514
749.8273, 831.3080
750.3094, 844.1217
750.7916, 853.6837
751.2737, 854.3214
751.7558, 853.3873
752.2379, 856.5627
752.7200, 862.1208
753.2021, 865.8071
753.6843, 867.9965
754.1664, 874.6793
754.6485, 890.2875
755.1306, 911.9357
755.6127, 933.7628
756.0948, 955.7467
756.5770, 975.5107
757.0591, 991.6913
757.5412, 1009.063
758.0233, 1029.689
758.5054, 1053.942
758.9875, 1083.713
759.4697, 1123.680
759.9518, 1157.575
760.4339, 1181.099
760.9160, 1203.300
761.3981, 1221.778
761.8802, 1244.243
762.3624, 1285.363
762.8445, 1346.260
763.3266, 1400.404
763.8087, 1429.339
764.2908, 1446.040
764.7729, 1460.199
765.2551, 1473.863
765.7372, 1494.209
766.2193, 1521.448
766.7014, 1541.824
767.1835, 1541.821
767.6656, 1528.174
768.1478, 1526.879
768.6299, 1541.215
769.1120, 1536.394
769.5941, 1502.038
770.0762, 1459.906
770.5583, 1423.851
771.0405, 1392.090
771.5226, 1358.268
772.0047, 1320.169
772.4868, 1284.015
772.9689, 1253.743
773.4510, 1221.678
773.9332, 1181.945
774.4153, 1138.805
774.8974, 1098.870
775.3795, 1063.813
775.8616, 1029.040
776.3438, 987.3528
776.8259, 948.0668
777.3080, 922.2420
777.7901, 906.5976
778.2722, 893.5510
778.7543, 880.6545
779.2365, 867.3902
779.7186, 853.5600
780.2007, 838.7800
780.6828, 820.3211
781.1649, 797.5997
781.6470, 780.9764
782.1292, 773.7314
782.6113, 768.8623
783.0934, 761.5831
783.5755, 752.5157
784.0576, 744.0399
784.5397, 737.6279
785.0219, 729.1897
785.5040, 716.4876
785.9861, 704.2632
786.4682, 693.3421
786.9503, 684.8450
787.4324, 681.3943
787.9146, 683.7673
788.3967, 684.3074
788.8788, 677.5510
789.3609, 668.9473
789.8430, 662.2400
790.3251, 657.4543
790.8073, 655.0555
791.2894, 654.6194
791.7715, 652.7419
792.2536, 645.1560
792.7357, 636.5155
793.2178, 641.9615
793.7000, 659.4791
794.1821, 660.7794
794.6642, 638.6950
795.1463, 619.2902
795.6284, 622.0900
796.1105, 638.2413
796.5927, 642.0844
797.0748, 626.8083
797.5569, 617.0283
798.0390, 616.7508
798.5211, 616.9461
799.0032, 609.8180
799.4854, 603.6290
799.9675, 611.4520
800.4496, 635.0406
800.9317, 652.6314
801.4138, 653.8716
801.8959, 652.7070
802.3781, 654.4968
802.8602, 659.2172
803.3423, 667.4474
803.8244, 678.4029
804.3065, 688.8628
804.7886, 695.4752
805.2708, 703.9516
805.7529, 724.4912
806.2350, 752.2214
806.7171, 773.6001
807.1992, 787.7805
807.6813, 802.4052
808.1635, 821.9528
808.6456, 841.8424
809.1277, 852.3775
809.6098, 852.4951
810.0919, 862.4938
810.5740, 887.0281
811.0562, 906.9466
811.5383, 915.2357
812.0204, 916.7775
812.5025, 917.2783
812.9846, 916.7607
813.4667, 910.7451
813.9489, 896.8084
814.4310, 881.0065
814.9131, 862.9378
815.3952, 844.4847
815.8773, 826.6391
816.3594, 809.5616
816.8416, 793.6036
817.3237, 779.6600
817.8058, 763.9939
818.2879, 740.1539
818.7700, 717.0139
819.2521, 704.7011
819.7343, 700.5303
820.2164, 698.2807
820.6985, 695.3885
821.1806, 689.0512
821.6627, 674.1023
822.1448, 655.2911
822.6270, 644.2684
823.1091, 640.5922
823.5912, 642.1368
824.0733, 648.8469
824.5554, 652.1205
825.0375, 643.5399
825.5197, 628.9175
826.0018, 629.5905
826.4839, 652.4359
826.9660, 663.9077
827.4481, 657.2800
827.9302, 648.2419
828.4124, 643.2642
828.8945, 640.9613
829.3766, 638.2890
829.8587, 634.3564
830.3408, 636.1694
830.8229, 651.8986
831.3051, 663.8282
831.7872, 663.4255
832.2693, 658.8431
832.7514, 657.3488
833.2335, 659.2960
833.7156, 661.9991
834.1978, 664.4271
834.6799, 667.2549
835.1620, 672.3997
835.6441, 677.2385
836.1262, 675.8165
836.6083, 671.1730
837.0905, 673.7761
837.5726, 687.6646
838.0547, 704.2072
838.5368, 715.0698
839.0189, 720.6311
839.5010, 718.6952
839.9832, 710.8475
840.4653, 712.7025
840.9474, 728.8159
841.4295, 745.6720
841.9116, 750.9793
842.3937, 747.6074
842.8759, 746.3958
843.3580, 746.8546
843.8401, 751.8097
844.3222, 762.3115
844.8043, 775.9622
845.2864, 793.7553
845.7686, 812.3582
846.2507, 825.8642
846.7328, 833.5022
847.2149, 838.5175
847.6970, 836.7176
848.1791, 837.6390
848.6613, 847.3050
849.1434, 858.1624
849.6255, 863.6035
850.1076, 863.7766
850.5897, 861.7855
851.0718, 855.9621
851.5540, 853.0527
852.0361, 860.1360
852.5182, 868.6140
853.0003, 869.3155
853.4824, 864.7906
853.9645, 862.1927
854.4467, 863.9467
854.9288, 867.0132
855.4109, 867.8243
855.8930, 868.8002
856.3751, 876.7615
856.8572, 888.1946
857.3394, 891.3035
857.8215, 884.0498
858.3036, 873.2621
858.7857, 863.2537
859.2678, 855.6789
859.7499, 856.2198
860.2321, 864.5610
860.7142, 866.5779
861.1963, 860.0989
861.6784, 856.7358
862.1605, 863.3084
862.6426, 871.7641
863.1248, 869.0251
863.6069, 854.1612
864.0890, 849.2620
864.5711, 860.4709
865.0532, 869.1157
865.5353, 872.8329
866.0175, 871.6082
866.4996, 861.3126
866.9817, 846.0357
867.4638, 838.8650
867.9459, 845.6171
868.4280, 848.5350
868.9102, 841.2286
869.3923, 834.3431
869.8744, 834.3219
870.3565, 837.0894
870.8386, 836.2852
871.3207, 831.5070
871.8029, 829.3773
872.2850, 834.9000
872.7671, 841.4636
873.2492, 844.3480
873.7313, 846.5253
874.2134, 853.4202
874.6956, 862.9722
875.1777, 867.0427
875.6598, 861.7898
876.1419, 855.4568
876.6240, 856.1932
877.1061, 861.3754
877.5883, 867.9491
878.0704, 874.9363
878.5525, 879.0577
879.0346, 879.7110
879.5167, 880.3817
879.9988, 883.9658
880.4810, 889.7485
880.9631, 895.3315
881.4452, 901.0135
881.9273, 912.6635
882.4094, 931.4905
882.8915, 943.9304
883.3737, 940.8348
883.8558, 935.8925
884.3379, 952.5143
884.8200, 991.4509
885.3021, 1018.329
885.7842, 1028.969
886.2664, 1039.688
886.7485, 1052.058
887.2306, 1068.935
887.7127, 1093.805
888.1948, 1124.933
888.6769, 1155.721
889.1591, 1184.149
889.6412, 1216.282
890.1233, 1254.970
890.6054, 1294.066
891.0875, 1331.016
891.5696, 1367.515
892.0518, 1404.707
892.5339, 1442.887
893.0160, 1484.735
893.4981, 1532.266
893.9802, 1581.402
894.4623, 1632.483
894.9445, 1683.003
895.4266, 1729.880
895.9087, 1774.413
896.3908, 1821.040
896.8729, 1871.525
897.3550, 1914.039
897.8372, 1937.689
898.3193, 1954.163
898.8014, 1970.921
899.2835, 1988.341
899.7656, 2009.890
900.2477, 2033.085
900.7299, 2046.575
901.2120, 2043.477
901.6941, 2030.421
902.1762, 2015.320
902.6583, 1995.389
903.1404, 1958.427
903.6226, 1910.687
904.1047, 1880.646
904.5868, 1876.330
905.0689, 1872.242
905.5510, 1840.841
906.0331, 1795.132
906.5153, 1773.337
906.9974, 1770.400
907.4795, 1747.422
907.9616, 1699.092
908.4437, 1648.963
908.9258, 1609.186
909.4080, 1579.007
909.8900, 1559.798
910.3721, 1551.105
910.8542, 1530.132
911.3364, 1495.173
911.8185, 1458.353
912.3006, 1423.120
912.7827, 1384.421
913.2648, 1335.080
913.7469, 1281.435
914.2291, 1245.408
914.7112, 1233.081
915.1933, 1221.343
915.6754, 1215.221
916.1575, 1199.760
916.6396, 1161.457
917.1218, 1119.075
917.6039, 1095.914
918.0860, 1091.154
918.5681, 1081.617
919.0502, 1058.692
919.5323, 1043.829
920.0145, 1044.452
920.4966, 1047.049
920.9787, 1042.800
921.4608, 1036.817
921.9429, 1038.981
922.4250, 1051.124
922.9072, 1058.694
923.3893, 1054.938
923.8714, 1051.207
924.3535, 1047.261
924.8356, 1048.502
925.3177, 1062.652
925.7999, 1085.375
926.2820, 1104.967
926.7641, 1117.757
927.2462, 1130.267
927.7283, 1147.105
928.2104, 1162.931
928.6926, 1173.414
929.1747, 1181.078
929.6568, 1189.527
930.1389, 1199.073
930.6210, 1208.892
931.1031, 1221.298
931.5853, 1226.428
932.0674, 1209.719
932.5495, 1186.752
933.0316, 1175.455
933.5137, 1173.355
933.9958, 1173.909
934.4780, 1174.274
934.9601, 1169.799
935.4422, 1154.962
935.9243, 1136.725
936.4064, 1121.876
936.8885, 1111.333
937.3707, 1109.664
937.8528, 1114.695
938.3349, 1116.608
938.8170, 1111.419
939.2991, 1104.341
939.7813, 1098.879
940.2634, 1097.130
940.7455, 1104.676
941.2276, 1120.417
941.7097, 1141.412
942.1918, 1166.401
942.6740, 1188.517
943.1561, 1203.381
943.6382, 1217.416
944.1203, 1241.877
944.6024, 1274.947
945.0845, 1305.205
945.5667, 1332.813
946.0488, 1359.651
946.5309, 1385.943
947.0130, 1415.201
947.4951, 1450.176
947.9772, 1489.285
948.4594, 1530.486
948.9415, 1574.011
949.4236, 1608.542
949.9057, 1631.692
950.3878, 1667.439
950.8699, 1728.271
951.3521, 1784.182
951.8342, 1801.398
952.3163, 1792.634
952.7984, 1814.607
953.2805, 1874.215
953.7626, 1928.203
954.2448, 1973.260
954.7269, 2014.404
955.2090, 2050.094
955.6911, 2089.948
956.1732, 2148.029
956.6553, 2222.235
957.1375, 2282.607
957.6196, 2318.851
958.1017, 2370.232
958.5838, 2444.077
959.0659, 2527.286
959.5480, 2617.409
960.0302, 2708.318
960.5123, 2788.985
960.9944, 2858.605
961.4765, 2931.029
961.9586, 3018.377
962.4407, 3085.159
962.9229, 3124.455
963.4050, 3143.883
963.8871, 3143.220
964.3692, 3127.842
964.8513, 3107.689
965.3334, 3082.387
965.8156, 3054.393
966.2977, 3027.093
966.7798, 2992.529
967.2619, 2947.225
967.7440, 2895.830
968.2261, 2835.328
968.7083, 2772.196
969.1904, 2720.411
969.6725, 2676.284
970.1546, 2657.538
970.6367, 2685.103
971.1188, 2712.716
971.6010, 2713.720
972.0831, 2720.351
972.5652, 2764.602
973.0473, 2838.094
973.5294, 2909.138
974.0115, 2971.176
974.4937, 3037.816
974.9758, 3114.664
975.4579, 3191.951
975.9400, 3275.838
976.4221, 3350.886
976.9042, 3397.575
977.3864, 3420.891
977.8685, 3448.508
978.3506, 3499.763
978.8327, 3523.580
979.3148, 3491.517
979.7969, 3448.276
980.2791, 3427.871
980.7612, 3402.170
981.2433, 3327.208
981.7254, 3209.648
982.2075, 3109.361
982.6896, 3053.241
983.1718, 2993.601
983.6539, 2907.617
984.1360, 2822.328
984.6181, 2758.621
985.1002, 2703.446
985.5823, 2631.384
986.0645, 2544.957
986.5466, 2481.494
987.0287, 2467.082
987.5108, 2454.812
987.9929, 2424.801
988.4750, 2393.313
988.9572, 2371.300
989.4393, 2355.526
989.9214, 2341.383
990.4035, 2327.598
990.8856, 2311.234
991.3677, 2286.985
991.8499, 2266.147
992.3320, 2249.748
992.8141, 2242.235
993.2962, 2253.094
993.7783, 2272.523
994.2604, 2282.186
994.7426, 2280.369
995.2247, 2287.562
995.7068, 2316.555
996.1889, 2350.438
996.6710, 2383.383
997.1531, 2416.045
997.6353, 2444.860
998.1174, 2475.208
998.5995, 2521.365
999.0816, 2584.012
999.5637, 2634.315
1000.046, 2646.384
1000.528, 2660.537
1001.010, 2702.334
1001.492, 2749.235
1001.974, 2783.768
1002.456, 2807.795
1002.939, 2829.144
1003.421, 2849.029
1003.903, 2858.449
1004.385, 2849.730
1004.867, 2834.281
1005.349, 2827.398
1005.831, 2807.452
1006.313, 2750.816
1006.795, 2668.316
1007.278, 2580.226
1007.760, 2491.040
1008.242, 2402.748
1008.724, 2321.973
1009.206, 2235.323
1009.688, 2125.873
1010.170, 2017.223
1010.652, 1934.617
1011.135, 1867.138
1011.617, 1789.374
1012.099, 1696.970
1012.581, 1614.073
1013.063, 1554.934
1013.545, 1502.156
1014.027, 1452.350
1014.509, 1401.088
1014.991, 1338.721
1015.474, 1274.446
1015.956, 1226.444
1016.438, 1197.568
1016.920, 1172.431
1017.402, 1150.369
1017.884, 1124.159
1018.366, 1081.677
1018.848, 1042.530
1019.331, 1024.359
1019.813, 1019.515
1020.295, 1015.296
1020.777, 1009.350
1021.259, 999.3521
1021.741, 975.4201
1022.223, 959.8971
1022.705, 965.9137
1023.187, 977.8223
1023.670, 985.9569
1024.152, 991.5634
1024.634, 998.5272
1025.116, 1007.227
1025.598, 1012.815
1026.080, 1010.949
1026.562, 1010.326
1027.044, 1016.961
1027.526, 1021.693
1028.009, 1018.714
1028.491, 1010.122
1028.973, 998.5913
1029.455, 984.5031
1029.937, 970.1433
1030.419, 958.1866
1030.901, 942.6298
1031.383, 913.9193
1031.866, 890.6340
1032.348, 890.5040
1032.830, 897.4260
1033.312, 887.3561
1033.794, 860.4162
1034.276, 841.7397
1034.758, 840.6011
1035.240, 837.2080
1035.723, 827.4602
1036.205, 817.6965
1036.687, 810.2731
1037.169, 804.5248
1037.651, 799.8336
1038.133, 796.1290
1038.615, 792.6585
1039.097, 789.5379
1039.579, 786.3676
1040.062, 780.5626
1040.544, 778.3834
1041.026, 785.9619
1041.508, 794.5080
1041.990, 794.5162
1042.472, 787.2955
1042.954, 780.2750
1043.436, 771.0148
1043.918, 767.9481
1044.401, 775.8913
1044.883, 780.5013
1045.365, 774.9301
1045.847, 767.8771
1046.329, 768.1155
1046.811, 773.0831
1047.293, 772.6838
1047.775, 763.8765
1048.258, 762.3051
1048.740, 770.9694
1049.222, 777.5062
1049.704, 777.4716
1050.186, 776.9113
1050.668, 780.3893
1051.150, 787.1285
1051.632, 795.0613
1052.115, 804.1092
1052.597, 816.1752
1053.079, 832.3137
1053.561, 845.4246
1054.043, 854.1437
1054.525, 857.4327
1055.007, 853.1235
1055.489, 848.0580
1055.971, 858.5599
1056.453, 881.9385
1056.936, 879.3837
1057.418, 851.1694
1057.900, 840.9249
1058.382, 856.7648
1058.864, 871.0565
1059.346, 868.4753
1059.828, 857.9836
1060.310, 849.7950
1060.793, 845.1740
1061.275, 854.2175
1061.757, 872.2891
1062.239, 869.7559
1062.721, 845.5155
1063.203, 823.2952
1063.685, 813.4227
1064.167, 809.1713
1064.650, 805.6550
1065.132, 800.2485
1065.614, 785.2687
1066.096, 765.0643
1066.578, 750.7292
1067.060, 741.9779
1067.542, 733.1921
1068.024, 722.9286
1068.506, 716.1084
1068.989, 718.0421
1069.471, 721.3493
1069.953, 714.4515
1070.435, 705.2206
1070.917, 705.7505
1071.399, 713.4168
1071.881, 721.6212
1072.363, 728.6576
1072.845, 734.5436
1073.328, 737.8104
1073.810, 745.2150
1074.292, 766.2748
1074.774, 789.4396
1075.256, 802.7352
1075.738, 812.0497
1076.220, 824.8611
1076.702, 842.3895
1077.184, 864.5773
1077.667, 892.5305
1078.149, 919.0212
1078.631, 938.0169
1079.113, 958.2258
1079.595, 986.4783
1080.077, 1016.041
1080.559, 1041.053
1081.041, 1062.002
1081.524, 1082.896
1082.006, 1105.437
1082.488, 1117.260
1082.970, 1113.610
1083.452, 1102.405
1083.934, 1080.923
1084.416, 1057.271
1084.898, 1033.487
1085.380, 1012.118
1085.863, 999.8174
1086.345, 996.6591
1086.827, 980.8095
1087.309, 941.3427
1087.791, 912.0420
1088.273, 901.3774
1088.755, 888.4061
1089.237, 862.4125
1089.719, 834.3893
1090.202, 817.5544
1090.684, 807.9752
1091.166, 785.6271
1091.648, 745.1888
1092.130, 724.1548
1092.612, 727.0787
1093.094, 729.1259
1093.576, 723.8228
1094.059, 711.3187
1094.541, 689.6277
1095.023, 667.5784
1095.505, 665.2057
1095.987, 680.0908
1096.469, 688.7633
1096.951, 691.8910
1097.433, 698.5110
1097.916, 709.4693
1098.398, 712.3362
1098.880, 700.4730
1099.362, 685.3578
1099.844, 679.8516
1100.326, 681.1848
1100.808, 685.3616
1101.290, 691.3371
1101.772, 697.9847
1102.255, 703.9604
1102.737, 704.7520
1103.219, 699.5810
1103.701, 695.0143
1104.183, 695.3784
1104.665, 698.7429
1105.147, 705.9780
1105.629, 712.8831
1106.111, 715.0654
1106.594, 713.2859
1107.076, 708.7493
1107.558, 702.0687
1108.040, 694.4540
1108.522, 686.5113
1109.004, 677.0724
1109.486, 663.1257
1109.968, 650.5219
1110.451, 643.7750
1110.933, 638.6782
1111.415, 629.6407
1111.897, 619.2931
1112.379, 615.9370
1112.861, 622.2191
1113.343, 623.5892
1113.825, 615.1800
1114.307, 606.9857
1114.790, 599.7457
1115.272, 593.9066
1115.754, 589.2278
1116.236, 586.7290
1116.718, 589.1180
1117.200, 595.2628
1117.682, 593.5401
1118.164, 580.2031
1118.646, 577.1443
1119.129, 590.1259
1119.611, 589.4774
1120.093, 562.3084
1120.575, 535.3144
1121.057, 531.1281
1121.539, 541.1251
1122.021, 548.5205
1122.503, 553.1555
1122.986, 553.9669
1123.468, 551.0083
1123.950, 542.3545
1124.432, 528.9656
1124.914, 522.8379
1125.396, 529.9176
1125.878, 538.0660
1126.360, 533.2558
1126.843, 522.4089
1127.325, 514.3819
1127.807, 509.1497
1128.289, 507.9580
1128.771, 509.2858
1129.253, 510.4108
1129.735, 510.1541
1130.217, 496.3874
1130.699, 505.1278
1131.182, 509.6039
1131.664, 510.0492
1132.146, 494.3820
1132.628, 499.5204
1133.110, 496.3212
1133.592, 492.7797
1134.074, 495.0054
1134.556, 491.9817
1135.038, 481.4920
1135.521, 476.1043
1136.003, 481.9443
1136.485, 487.1083
1136.967, 489.6574
1137.449, 490.1017
1137.931, 488.3372
1138.413, 484.8568
1138.895, 479.7561
1139.378, 473.4076
1139.860, 469.9601
1140.342, 470.1920
1140.824, 469.6420
1141.306, 467.7456
1141.788, 466.7131
1142.270, 467.0681
1142.752, 470.3257
1143.234, 478.4735
1143.717, 487.1185
1144.199, 487.4358
1144.681, 480.7089
1145.163, 470.8972
1145.645, 459.3599
1146.127, 451.0049
1146.609, 446.8891
1147.091, 448.3417
1147.573, 455.6950
1148.056, 464.0864
1148.538, 470.9436
1149.020, 474.3952
1149.502, 467.1624
1149.984, 459.6696
1150.466, 469.3067
1150.948, 485.8564
1151.430, 491.1958
1151.913, 483.2110
1152.395, 467.6899
1152.877, 440.5080
1153.359, 426.3003
1153.841, 445.5634
1154.323, 463.4272
1154.805, 462.6992
1155.287, 457.3670
1155.770, 459.4068
1156.252, 464.6597
1156.734, 463.2589
1157.216, 454.8448
1157.698, 453.5760
1158.180, 464.4707
1158.662, 466.8474
1159.144, 455.8887
1159.626, 447.2124
1160.109, 446.4535
1160.591, 450.9353
1161.073, 459.6320
1161.555, 468.2356
1162.037, 463.8358
1162.519, 449.6757
1163.001, 447.7814
1163.483, 455.8097
1163.965, 460.9450
1164.448, 460.8700
1164.930, 455.4871
1165.412, 445.1088
1165.894, 438.7658
1166.376, 446.7557
1166.858, 459.3060
1167.340, 469.9388
1167.822, 475.5562
1168.305, 469.3341
1168.787, 456.9568
1169.269, 447.0204
1169.751, 440.9790
1170.233, 437.5833
1170.715, 436.3449
1171.197, 438.1013
1171.679, 447.9228
1172.161, 454.2019
1172.644, 449.7592
1173.126, 443.7005
1173.608, 442.3690
1174.090, 443.1519
1174.572, 441.8919
1175.054, 438.8370
1175.536, 437.8117
1176.018, 439.5702
1176.500, 439.5157
1176.983, 437.0790
1177.465, 435.3173
1177.947, 435.3371
1178.429, 433.4890
1178.911, 426.4946
1179.393, 419.8412
1179.875, 424.1691
1180.357, 435.3117
1180.840, 443.4725
1181.322, 448.3960
1181.804, 447.3460
1182.286, 442.4958
1182.768, 441.9272
1183.250, 447.3929
1183.732, 451.5710
1184.214, 450.1409
1184.697, 446.2874
1185.179, 441.2358
1185.661, 435.4536
1186.143, 425.0739
1186.625, 417.4969
1187.107, 422.9939
1187.589, 437.6005
1188.071, 449.6696
1188.553, 458.3658
1189.036, 463.3421
1189.518, 464.9970
1190.000, 461.6927
1190.482, 450.1744
1190.964, 441.4731
1191.446, 440.6975
1191.928, 442.9261
1192.410, 443.9812
1192.892, 443.3139
1193.375, 438.0080
1193.857, 429.3495
1194.339, 427.5606
1194.821, 431.4330
1195.303, 434.9380
1195.785, 436.7560
1196.267, 434.8725
1196.749, 428.9394
1197.232, 426.6896
1197.714, 436.9246
1198.196, 448.0547
1198.678, 448.0775
1199.160, 445.2889
1199.642, 451.1443
1200.124, 456.9598
1200.606, 446.2243
1201.089, 424.2171
1201.571, 413.8696
1202.053, 422.0825
1202.535, 424.6212
1203.017, 411.3738
1203.499, 404.0346
1203.981, 407.3245
1204.463, 412.8694
1204.945, 418.7493
1205.427, 421.2626
1205.910, 414.8035
1206.392, 404.8939
1206.874, 411.0375
1207.356, 430.8127
1207.838, 429.2149
1208.320, 410.2523
1208.802, 404.8624
1209.284, 416.2102
1209.767, 429.7707
1210.249, 439.0591
1210.731, 442.5370
1211.213, 436.8467
1211.695, 428.9878
1212.177, 422.6961
1212.659, 420.3192
1213.141, 427.9655
1213.624, 438.2581
1214.106, 440.5759
1214.588, 436.6701
1215.070, 436.2724
1215.552, 442.3140
1216.034, 441.9265
1216.516, 427.1941
1216.998, 418.1615
1217.480, 419.0355
1217.963, 420.4895
1218.445, 418.4712
1218.927, 416.9022
1219.409, 419.7199
1219.891, 424.8709
1220.373, 427.6531
1220.855, 428.3915
1221.337, 429.2759
1221.819, 429.9134
1222.302, 427.6547
1222.784, 423.2194
1223.266, 421.7108
1223.748, 424.3831
1224.230, 425.5320
1224.712, 420.3050
1225.194, 415.7425
1225.676, 417.7342
1226.159, 421.4127
1226.641, 423.3459
1227.123, 425.0483
1227.605, 429.0745
1228.087, 433.9758
1228.569, 435.8997
1229.051, 434.5690
1229.533, 434.3544
1230.016, 437.6003
1230.498, 433.9740
1230.980, 419.9122
1231.462, 412.6073
1231.944, 417.9319
1232.426, 424.5895
1232.908, 424.7845
1233.390, 422.2922
1233.872, 423.6450
1234.354, 425.3587
1234.837, 416.4552
1235.319, 403.4294
1235.801, 400.3238
1236.283, 404.6597
1236.765, 409.4292
1237.247, 412.0750
1237.729, 409.3434
1238.211, 398.7971
1238.694, 388.9198
1239.176, 376.0392
1239.658, 374.1472
1240.140, 398.9116
1240.622, 423.5396
1241.104, 433.2420
1241.586, 434.5533
1242.068, 434.1753
1242.551, 431.9672
1243.033, 427.0417
1243.515, 419.3140
1243.997, 410.1499
1244.479, 400.2139
1244.961, 403.8984
1245.443, 421.3253
1245.925, 433.1294
1246.407, 431.8105
1246.890, 427.3395
1247.372, 426.9295
1247.854, 428.0561
1248.336, 428.1225
1248.818, 428.7967
1249.300, 435.8727
1249.782, 440.9238
1250.264, 429.6707
1250.746, 410.0276
1251.229, 402.4469
1251.711, 409.3638
1252.193, 413.8202
1252.675, 414.5535
1253.157, 415.4191
1253.639, 417.1868
1254.121, 416.1147
1254.603, 410.5930
1255.086, 406.0856
1255.568, 405.9258
1256.050, 409.9514
1256.532, 420.9107
1257.014, 431.5160
1257.496, 420.6918
1257.978, 403.1377
1258.460, 410.1393
1258.943, 430.3708
1259.425, 439.0355
1259.907, 434.1681
1260.389, 425.1422
1260.871, 413.6596
1261.353, 407.7318
##END=



