##NAMES=Axinite-(Mn)
##RRUFFID=R050299
##IDEAL CHEMISTRY=Ca_4_Mn^2+^_2_Al_4_[B_2_Si_8_O_30_](OH)_2_
##LOCALITY=Dalnegorsk, Russia
##OWNER=RRUFF
##SOURCE=Eugene Schlepp
##DESCRIPTION=Brown axe-head-shaped crystal
##STATUS=The identification of this mineral has been confirmed by X-ray diffraction and chemical analysis
##URL=rruff.info/R050299
##MEASURED CHEMISTRY=Ca_2.00_(Mn_0.64_Fe^2+^_0.34_Mg_0.02_)Al_2.00_B_1.00_Si_4.00_O_15_(OH)
92.04132, 0.0000000E+00
92.52344, 73.49818
93.00555, 72.55341
93.48767, 72.68324
93.96979, 75.66905
94.45190, 78.82687
94.93402, 82.03550
95.41614, 83.93600
95.89825, 84.80131
96.38037, 85.27037
96.86249, 85.22759
97.34460, 84.19050
97.82672, 81.50841
98.30884, 79.02698
98.79095, 76.83328
99.27307, 74.92999
99.75519, 73.54997
100.2373, 73.16164
100.7194, 73.65301
101.2015, 74.00516
101.6837, 74.17800
102.1658, 74.23582
102.6479, 74.24839
103.1300, 74.22604
103.6121, 74.06198
104.0942, 73.33369
104.5764, 72.40221
105.0585, 71.92080
105.5406, 72.24024
106.0227, 73.17661
106.5048, 74.16007
106.9869, 75.00915
107.4691, 76.15530
107.9512, 77.92155
108.4333, 80.13433
108.9154, 82.37710
109.3975, 84.62830
109.8796, 87.15932
110.3617, 87.88470
110.8439, 86.07030
111.3260, 83.13551
111.8081, 79.18562
112.2902, 74.48857
112.7723, 69.60786
113.2544, 65.30649
113.7366, 61.55963
114.2187, 58.62988
114.7008, 56.87345
115.1829, 55.66334
115.6650, 54.44508
116.1471, 53.01333
116.6293, 51.55488
117.1114, 50.54266
117.5935, 50.08146
118.0756, 49.77164
118.5577, 49.54275
119.0398, 49.39877
119.5220, 49.34201
120.0041, 49.36038
120.4862, 49.49750
120.9683, 49.80378
121.4504, 50.34290
121.9325, 50.93635
122.4147, 51.42891
122.8968, 51.80964
123.3789, 52.21861
123.8610, 52.69331
124.3431, 53.24715
124.8252, 53.89253
125.3074, 54.60293
125.7895, 55.44381
126.2716, 56.56538
126.7537, 58.03711
127.2358, 59.68938
127.7179, 61.59971
128.2001, 63.59193
128.6822, 65.54324
129.1643, 67.47093
129.6464, 69.30449
130.1285, 70.02128
130.6106, 69.07081
131.0928, 67.41856
131.5749, 64.82675
132.0570, 61.65102
132.5391, 58.47993
133.0212, 55.80404
133.5033, 53.60407
133.9855, 52.20379
134.4676, 51.78997
134.9497, 51.83140
135.4318, 52.17229
135.9139, 52.74265
136.3960, 53.37506
136.8782, 53.86872
137.3603, 54.18267
137.8424, 54.58609
138.3245, 55.21801
138.8066, 55.89838
139.2887, 56.42836
139.7709, 56.76815
140.2530, 56.93345
140.7351, 56.85827
141.2172, 56.56787
141.6993, 56.32312
142.1814, 56.25668
142.6636, 56.33135
143.1457, 56.39293
143.6278, 56.31734
144.1099, 56.34121
144.5920, 56.64565
145.0741, 57.23090
145.5563, 57.96223
146.0384, 58.69794
146.5205, 59.41297
147.0026, 60.33297
147.4847, 61.82717
147.9668, 63.33099
148.4490, 64.46905
148.9311, 65.17809
149.4132, 65.76638
149.8953, 66.79858
150.3774, 68.87112
150.8595, 70.11712
151.3417, 70.31157
151.8238, 69.85090
152.3059, 68.86031
152.7880, 67.42751
153.2701, 65.80846
153.7522, 64.66994
154.2344, 64.13711
154.7165, 64.05103
155.1986, 64.64710
155.6807, 65.62116
156.1628, 66.71308
156.6449, 67.83187
157.1271, 68.83298
157.6092, 69.04922
158.0913, 68.20150
158.5734, 67.07328
159.0555, 65.67995
159.5376, 64.14057
160.0198, 62.75193
160.5019, 61.66719
160.9840, 60.88798
161.4661, 60.29367
161.9482, 59.79765
162.4303, 59.55275
162.9125, 59.74527
163.3946, 60.35986
163.8767, 61.05875
164.3588, 61.62880
164.8409, 62.16510
165.3230, 62.82368
165.8052, 63.59789
166.2873, 64.53298
166.7694, 65.68631
167.2515, 67.08404
167.7336, 68.63572
168.2157, 70.39585
168.6979, 72.25236
169.1800, 74.12418
169.6621, 76.05720
170.1442, 77.92545
170.6263, 79.40140
171.1084, 80.49282
171.5906, 81.09494
172.0727, 81.36070
172.5548, 81.18095
173.0369, 80.38278
173.5190, 78.81965
174.0011, 76.55116
174.4833, 74.07687
174.9654, 70.77458
175.4475, 67.88605
175.9296, 65.74201
176.4117, 64.21162
176.8938, 63.04663
177.3760, 62.11435
177.8581, 61.42920
178.3402, 60.39637
178.8223, 58.78711
179.3044, 57.10355
179.7865, 55.37844
180.2687, 53.70415
180.7508, 52.28561
181.2329, 51.33708
181.7150, 50.91064
182.1971, 50.35289
182.6792, 49.45029
183.1614, 48.61135
183.6435, 48.12732
184.1256, 47.98722
184.6077, 47.90121
185.0898, 47.57752
185.5719, 47.00535
186.0540, 46.68820
186.5362, 46.70691
187.0183, 46.94541
187.5004, 47.33933
187.9825, 47.88866
188.4646, 48.49109
188.9467, 49.07244
189.4289, 49.63407
189.9110, 50.19269
190.3931, 50.73602
190.8752, 51.28229
191.3573, 51.90368
191.8394, 52.66541
192.3216, 53.32783
192.8037, 53.58189
193.2858, 53.58786
193.7679, 53.71351
194.2500, 54.26889
194.7321, 55.08560
195.2143, 55.57771
195.6964, 55.46837
196.1785, 55.45012
196.6606, 55.96506
197.1427, 56.84416
197.6248, 57.70694
198.1070, 58.21516
198.5891, 58.43335
199.0712, 59.02245
199.5533, 60.14511
200.0354, 61.51346
200.5175, 63.00238
200.9997, 64.62730
201.4818, 66.44175
201.9639, 68.49456
202.4460, 70.78895
202.9281, 73.16386
203.4102, 75.71230
203.8924, 78.24548
204.3745, 80.95446
204.8566, 83.64211
205.3387, 85.83483
205.8208, 87.11526
206.3029, 87.43149
206.7851, 87.30436
207.2672, 86.47187
207.7493, 85.49863
208.2314, 84.63001
208.7135, 83.83316
209.1956, 82.92400
209.6778, 81.73320
210.1599, 80.23512
210.6420, 78.62068
211.1241, 76.91689
211.6062, 75.07724
212.0883, 73.15308
212.5705, 71.07639
213.0526, 68.91605
213.5347, 66.63818
214.0168, 64.21304
214.4989, 62.28771
214.9810, 61.21836
215.4632, 60.31907
215.9453, 59.07423
216.4274, 57.47997
216.9095, 55.97296
217.3916, 54.92916
217.8737, 54.38306
218.3559, 53.93571
218.8380, 53.80016
219.3201, 53.61634
219.8022, 52.98322
220.2843, 51.87193
220.7664, 50.74400
221.2486, 49.94587
221.7307, 49.44265
222.2128, 49.09175
222.6949, 49.03514
223.1770, 49.03893
223.6591, 48.81971
224.1413, 48.34504
224.6234, 47.81971
225.1055, 47.30495
225.5876, 46.85052
226.0697, 46.58068
226.5518, 46.63179
227.0340, 46.83271
227.5161, 46.96455
227.9982, 47.04485
228.4803, 46.98911
228.9624, 46.58130
229.4445, 46.04665
229.9267, 45.67716
230.4088, 45.58748
230.8909, 45.71744
231.3730, 45.96966
231.8551, 46.36489
232.3372, 46.83547
232.8194, 47.43372
233.3015, 48.06279
233.7836, 48.62124
234.2657, 49.07933
234.7478, 49.42470
235.2299, 49.58895
235.7121, 49.41943
236.1942, 49.38374
236.6763, 49.61879
237.1584, 50.03244
237.6405, 50.54766
238.1227, 51.14143
238.6048, 51.79161
239.0869, 52.43446
239.5690, 53.03502
240.0511, 53.70064
240.5332, 54.51479
241.0154, 55.36455
241.4975, 56.10957
241.9796, 56.68796
242.4617, 57.18679
242.9438, 57.83382
243.4259, 58.84605
243.9081, 59.65938
244.3902, 60.27282
244.8723, 60.65524
245.3544, 60.73869
245.8365, 60.50256
246.3186, 60.04966
246.8007, 59.61051
247.2829, 59.23863
247.7650, 58.79870
248.2471, 58.27155
248.7292, 57.68665
249.2113, 56.97589
249.6934, 56.13803
250.1756, 55.38078
250.6577, 55.12373
251.1398, 55.82564
251.6219, 56.40449
252.1040, 56.82579
252.5861, 57.14506
253.0683, 57.37671
253.5504, 57.53260
254.0325, 57.68193
254.5146, 57.95638
254.9967, 58.60862
255.4788, 58.87398
255.9610, 58.67114
256.4431, 58.13905
256.9252, 57.30353
257.4073, 56.19158
257.8894, 54.99628
258.3716, 53.96732
258.8537, 53.15747
259.3358, 52.42799
259.8179, 51.61356
260.3000, 50.97370
260.7821, 50.82103
261.2643, 51.18858
261.7464, 51.72659
262.2285, 52.08091
262.7106, 52.22071
263.1927, 52.22097
263.6748, 51.89526
264.1570, 51.54845
264.6391, 51.44432
265.1212, 51.60688
265.6033, 51.88703
266.0854, 52.14514
266.5675, 52.38472
267.0497, 52.73592
267.5318, 53.32386
268.0139, 53.93775
268.4960, 54.39045
268.9781, 54.67713
269.4602, 54.93842
269.9424, 55.22582
270.4245, 55.58141
270.9066, 56.16082
271.3887, 57.07015
271.8708, 58.13092
272.3529, 59.23438
272.8351, 60.37788
273.3172, 61.55376
273.7993, 62.84144
274.2814, 64.13011
274.7635, 65.14500
275.2456, 65.87452
275.7278, 66.33113
276.2099, 66.48403
276.6920, 66.34759
277.1741, 66.03203
277.6562, 65.56956
278.1383, 64.94968
278.6204, 64.24152
279.1025, 63.49731
279.5847, 62.53833
280.0668, 60.94692
280.5489, 58.88832
281.0310, 57.43004
281.5131, 57.15287
281.9952, 57.47611
282.4774, 57.53555
282.9595, 57.30425
283.4416, 56.98146
283.9237, 56.52153
284.4058, 56.02117
284.8879, 55.92257
285.3701, 56.46843
285.8522, 57.28353
286.3343, 58.03633
286.8164, 58.72662
287.2985, 59.22880
287.7806, 59.42368
288.2628, 59.37123
288.7449, 59.20690
289.2270, 58.79729
289.7091, 58.56611
290.1912, 58.96048
290.6733, 59.83278
291.1555, 60.68404
291.6376, 61.18736
292.1197, 61.50949
292.6018, 62.06411
293.0839, 62.91288
293.5660, 63.88981
294.0482, 64.92427
294.5303, 65.99557
295.0124, 67.08591
295.4945, 68.16830
295.9766, 69.26693
296.4587, 70.45129
296.9409, 71.76432
297.4230, 73.01823
297.9051, 74.09293
298.3872, 75.06966
298.8693, 76.05132
299.3514, 77.10751
299.8336, 78.11080
300.3157, 78.82198
300.7978, 79.17283
301.2799, 79.66886
301.7620, 80.53120
302.2441, 81.62880
302.7263, 82.89627
303.2084, 84.34065
303.6905, 85.85767
304.1726, 87.53567
304.6547, 89.40181
305.1368, 90.67848
305.6190, 91.25619
306.1011, 91.02843
306.5832, 89.83047
307.0653, 87.67215
307.5474, 85.03279
308.0295, 82.18159
308.5117, 79.13801
308.9938, 76.02963
309.4759, 72.72038
309.9580, 69.55400
310.4401, 66.68284
310.9222, 64.11890
311.4044, 61.88741
311.8865, 60.02858
312.3686, 58.53358
312.8507, 57.35176
313.3328, 56.56162
313.8149, 55.97196
314.2971, 55.46531
314.7792, 55.05323
315.2613, 54.76331
315.7434, 54.62862
316.2255, 54.60855
316.7076, 54.63413
317.1898, 54.73528
317.6719, 54.79757
318.1540, 54.76019
318.6361, 54.66275
319.1182, 54.51918
319.6003, 54.30328
320.0825, 54.12597
320.5646, 54.20452
321.0467, 54.60316
321.5288, 54.84957
322.0109, 54.79991
322.4930, 54.51858
322.9752, 53.96257
323.4573, 53.11951
323.9394, 52.27116
324.4215, 51.71317
324.9036, 51.44186
325.3857, 51.10028
325.8679, 50.46601
326.3500, 49.92364
326.8321, 49.77227
327.3142, 49.97258
327.7963, 50.25117
328.2784, 50.53093
328.7606, 50.76656
329.2427, 50.71074
329.7248, 50.22330
330.2069, 49.65514
330.6890, 49.14889
331.1711, 48.72624
331.6533, 48.43882
332.1354, 48.30886
332.6175, 48.32901
333.0996, 48.53476
333.5817, 49.00456
334.0638, 49.40880
334.5460, 49.40148
335.0281, 49.29661
335.5102, 49.45772
335.9923, 50.00834
336.4744, 50.78204
336.9565, 51.67463
337.4387, 52.69837
337.9208, 53.55985
338.4029, 53.97541
338.8850, 54.32174
339.3671, 54.96996
339.8492, 55.96482
340.3314, 57.07207
340.8135, 58.19466
341.2956, 59.31591
341.7777, 60.24636
342.2598, 60.84338
342.7419, 61.39705
343.2241, 62.22404
343.7062, 63.26208
344.1883, 64.17220
344.6704, 64.71152
345.1525, 65.02470
345.6346, 65.42593
346.1168, 65.94907
346.5989, 66.50020
347.0810, 67.01585
347.5631, 67.50971
348.0452, 68.00459
348.5273, 68.45920
349.0095, 68.95922
349.4916, 69.64425
349.9737, 70.51646
350.4558, 71.38795
350.9379, 72.38993
351.4200, 73.17618
351.9022, 73.25700
352.3843, 72.51685
352.8664, 71.32530
353.3485, 69.93417
353.8306, 68.29893
354.3127, 66.15099
354.7949, 63.17770
355.2770, 60.04576
355.7591, 57.60110
356.2412, 55.81910
356.7233, 54.14708
357.2054, 52.38470
357.6876, 50.61060
358.1697, 48.88859
358.6518, 47.19889
359.1339, 45.76202
359.6160, 44.88652
360.0981, 44.47758
360.5803, 44.03664
361.0624, 43.44926
361.5445, 42.85320
362.0266, 42.33897
362.5087, 41.91063
362.9908, 41.58512
363.4730, 41.37085
363.9551, 41.27539
364.4372, 41.29689
364.9193, 41.47075
365.4014, 41.68824
365.8835, 41.97221
366.3657, 42.26125
366.8478, 42.37850
367.3299, 42.22578
367.8120, 42.04780
368.2941, 42.30642
368.7762, 43.15646
369.2584, 43.72751
369.7405, 43.55865
370.2226, 43.25563
370.7047, 43.52349
371.1868, 44.41415
371.6689, 45.28680
372.1511, 45.54185
372.6332, 45.14207
373.1153, 44.93891
373.5974, 44.96143
374.0795, 45.12635
374.5616, 45.47929
375.0438, 45.94683
375.5259, 46.35643
376.0080, 46.60443
376.4901, 46.74416
376.9722, 46.96282
377.4543, 47.29079
377.9365, 47.65503
378.4186, 48.01502
378.9007, 48.42297
379.3828, 48.95205
379.8649, 49.61738
380.3470, 50.34378
380.8292, 51.01129
381.3113, 51.53405
381.7934, 52.28651
382.2755, 53.37978
382.7576, 54.57367
383.2397, 55.73379
383.7219, 56.86833
384.2040, 58.04330
384.6861, 59.31092
385.1682, 60.66662
385.6503, 61.99794
386.1324, 63.32894
386.6146, 64.60130
387.0967, 65.87189
387.5788, 67.04450
388.0609, 68.04289
388.5430, 68.82864
389.0251, 69.34531
389.5073, 69.46714
389.9894, 69.09490
390.4715, 68.49982
390.9536, 67.48080
391.4357, 66.44560
391.9178, 65.69897
392.4000, 65.23315
392.8821, 64.78282
393.3642, 64.08151
393.8463, 63.11914
394.3284, 62.18645
394.8105, 61.29891
395.2927, 60.41503
395.7748, 59.48389
396.2569, 58.55463
396.7390, 57.68562
397.2211, 56.89064
397.7032, 56.20765
398.1854, 55.79545
398.6675, 55.80946
399.1496, 55.61628
399.6317, 54.88945
400.1138, 53.97505
400.5959, 53.02513
401.0780, 52.07817
401.5602, 51.35664
402.0423, 51.25591
402.5244, 51.69535
403.0065, 51.72611
403.4886, 50.99499
403.9707, 50.19041
404.4529, 49.75579
404.9350, 49.62850
405.4171, 49.64423
405.8992, 49.71587
406.3813, 49.90038
406.8634, 50.35976
407.3456, 51.13236
407.8277, 51.81784
408.3098, 52.06318
408.7919, 52.18772
409.2740, 52.71981
409.7561, 53.76941
410.2383, 55.01878
410.7204, 56.35193
411.2025, 57.74440
411.6846, 59.07252
412.1667, 60.23105
412.6488, 61.55605
413.1310, 63.70623
413.6131, 66.67025
414.0952, 69.07743
414.5773, 70.54097
415.0594, 71.45277
415.5415, 72.14464
416.0237, 72.62849
416.5058, 72.77767
416.9879, 72.50919
417.4700, 71.83013
417.9521, 70.79314
418.4342, 69.03967
418.9164, 67.42188
419.3985, 66.19868
419.8806, 65.24100
420.3627, 64.38277
420.8448, 63.56646
421.3269, 62.80313
421.8091, 62.09955
422.2912, 61.42650
422.7733, 60.93726
423.2554, 60.84788
423.7375, 60.74150
424.2196, 60.23969
424.7018, 59.47456
425.1839, 58.92152
425.6660, 58.94692
426.1481, 59.45522
426.6302, 59.80355
427.1123, 60.15229
427.5945, 60.09691
428.0766, 59.37706
428.5587, 58.34754
429.0408, 57.30510
429.5229, 56.35734
430.0050, 55.50723
430.4872, 54.78794
430.9693, 54.25330
431.4514, 53.63897
431.9335, 52.82566
432.4156, 52.02660
432.8977, 51.30149
433.3799, 50.65860
433.8620, 50.08384
434.3441, 49.55944
434.8262, 49.10923
435.3083, 48.79508
435.7904, 48.60115
436.2726, 48.59345
436.7547, 48.98054
437.2368, 49.46795
437.7189, 49.75941
438.2010, 49.78529
438.6831, 49.83549
439.1653, 50.13997
439.6474, 50.67728
440.1295, 51.35641
440.6116, 52.20191
441.0937, 53.11300
441.5758, 54.07422
442.0580, 55.04199
442.5401, 55.85622
443.0222, 56.49548
443.5043, 56.94085
443.9864, 57.21729
444.4685, 57.30948
444.9507, 57.09574
445.4328, 56.52564
445.9149, 55.59608
446.3970, 54.23877
446.8791, 52.28564
447.3612, 50.47963
447.8434, 49.09025
448.3255, 47.92532
448.8076, 46.68943
449.2897, 45.34372
449.7718, 44.18299
450.2539, 43.50563
450.7361, 43.33566
451.2182, 43.19544
451.7003, 43.21245
452.1824, 43.11768
452.6645, 42.61590
453.1466, 41.97716
453.6288, 41.70799
454.1109, 42.03097
454.5930, 42.63874
455.0751, 42.92971
455.5572, 42.82586
456.0393, 42.52727
456.5215, 41.86953
457.0036, 41.19025
457.4857, 40.70431
457.9678, 40.38702
458.4499, 40.05853
458.9320, 39.54882
459.4142, 38.92487
459.8963, 38.60341
460.3784, 38.79662
460.8605, 38.91890
461.3426, 38.68533
461.8247, 38.38413
462.3069, 38.34046
462.7890, 38.63459
463.2711, 38.96925
463.7532, 38.95237
464.2353, 38.62402
464.7174, 38.58406
465.1996, 39.04481
465.6817, 39.57497
466.1638, 39.83167
466.6459, 39.91547
467.1280, 40.08121
467.6101, 40.46077
468.0923, 40.91361
468.5744, 41.32396
469.0565, 41.68829
469.5386, 41.93620
470.0207, 42.02906
470.5028, 42.00404
470.9850, 41.87846
471.4671, 41.60558
471.9492, 41.48462
472.4313, 41.80223
472.9134, 42.18556
473.3955, 42.09414
473.8777, 41.54938
474.3598, 41.18428
474.8419, 41.51465
475.3240, 42.46352
475.8061, 43.26341
476.2882, 43.83963
476.7704, 44.38581
477.2525, 44.85039
477.7346, 45.34444
478.2167, 46.02036
478.6988, 46.91137
479.1809, 47.88208
479.6631, 48.76957
480.1452, 49.54325
480.6273, 50.36281
481.1094, 51.37497
481.5915, 52.27694
482.0736, 53.03441
482.5558, 53.59746
483.0379, 53.91542
483.5200, 53.97071
484.0021, 53.74043
484.4842, 53.17768
484.9663, 52.26665
485.4485, 51.07749
485.9306, 49.47399
486.4127, 47.70451
486.8948, 45.78636
487.3769, 43.79254
487.8590, 42.07715
488.3412, 40.96670
488.8233, 40.23518
489.3054, 39.47206
489.7875, 38.67596
490.2696, 37.86068
490.7517, 36.94753
491.2339, 36.08283
491.7160, 35.53559
492.1981, 35.40783
492.6802, 35.30560
493.1623, 35.05599
493.6444, 34.73537
494.1266, 34.42723
494.6087, 34.14824
495.0908, 33.96123
495.5729, 33.91546
496.0550, 34.01396
496.5371, 34.26005
497.0193, 34.79880
497.5014, 35.29216
497.9835, 35.60039
498.4656, 35.81489
498.9477, 36.09871
499.4298, 36.49711
499.9120, 36.86759
500.3941, 36.95970
500.8762, 36.62778
501.3583, 36.60347
501.8404, 37.34330
502.3225, 37.92609
502.8047, 37.90119
503.2868, 37.49758
503.7689, 37.14381
504.2510, 37.04258
504.7331, 37.11419
505.2152, 37.22025
505.6974, 37.35810
506.1795, 37.55872
506.6616, 37.97632
507.1437, 38.31017
507.6258, 38.27105
508.1079, 37.92318
508.5901, 37.63283
509.0722, 37.65820
509.5543, 37.80349
510.0364, 37.75626
510.5185, 37.51820
511.0006, 37.31761
511.4828, 37.28451
511.9649, 37.33241
512.4470, 37.30657
512.9291, 37.25734
513.4112, 37.00097
513.8933, 36.31972
514.3754, 35.51190
514.8575, 34.88795
515.3397, 34.46764
515.8218, 34.10740
516.3039, 33.69262
516.7860, 33.39979
517.2681, 33.16416
517.7502, 32.87313
518.2324, 32.77241
518.7145, 32.61499
519.1966, 32.37922
519.6787, 31.97965
520.1608, 31.44179
520.6429, 30.96207
521.1251, 30.76853
521.6072, 30.84938
522.0893, 30.80942
522.5714, 30.52391
523.0535, 30.31761
523.5356, 30.34387
524.0178, 30.47898
524.4999, 30.58634
524.9820, 30.63119
525.4641, 30.65214
525.9462, 30.70724
526.4283, 30.77466
526.9105, 30.72157
527.3926, 30.47326
527.8747, 30.27458
528.3568, 30.33638
528.8389, 30.60895
529.3210, 30.92410
529.8032, 31.44590
530.2853, 31.80115
530.7674, 31.60858
531.2495, 31.13443
531.7316, 30.89248
532.2137, 31.03218
532.6959, 31.42354
533.1780, 31.96201
533.6601, 32.73581
534.1422, 33.08698
534.6243, 32.67396
535.1064, 32.28338
535.5886, 32.24278
536.0707, 32.40812
536.5528, 32.52486
537.0349, 32.49279
537.5170, 32.42533
537.9991, 32.53164
538.4813, 32.86960
538.9634, 33.07998
539.4455, 33.05299
539.9276, 32.99632
540.4097, 32.95445
540.8918, 32.95938
541.3740, 33.07830
541.8561, 33.37105
542.3382, 33.71577
542.8203, 34.00422
543.3024, 34.22846
543.7845, 34.25846
544.2667, 33.93898
544.7488, 33.66023
545.2309, 34.02306
545.7130, 34.93469
546.1951, 35.48173
546.6772, 35.27363
547.1594, 34.89500
547.6415, 34.62407
548.1236, 34.48991
548.6057, 34.57740
549.0878, 34.93184
549.5699, 35.33742
550.0521, 35.41398
550.5342, 34.98008
551.0163, 34.77287
551.4984, 34.85981
551.9805, 35.06707
552.4626, 35.38948
552.9448, 35.76417
553.4269, 36.06921
553.9090, 36.23726
554.3911, 36.40935
554.8732, 36.89374
555.3553, 37.76617
555.8375, 38.43662
556.3196, 38.73534
556.8017, 38.91622
557.2838, 39.06438
557.7659, 39.23029
558.2480, 39.56736
558.7302, 40.28744
559.2123, 41.01136
559.6944, 41.30482
560.1765, 41.24855
560.6586, 41.21339
561.1407, 41.33080
561.6229, 41.43789
562.1050, 41.30059
562.5871, 40.86445
563.0692, 40.57837
563.5513, 40.57086
564.0334, 40.59107
564.5156, 40.40844
564.9977, 40.18450
565.4798, 40.25510
565.9619, 40.74882
566.4440, 41.43270
566.9261, 41.92942
567.4083, 42.17242
567.8904, 42.49810
568.3725, 42.96384
568.8546, 43.45770
569.3367, 43.99677
569.8188, 44.52513
570.3010, 44.95022
570.7831, 45.23654
571.2652, 45.44106
571.7473, 45.64650
572.2294, 45.84092
572.7115, 45.91781
573.1937, 45.82769
573.6758, 45.69876
574.1579, 45.64651
574.6400, 45.64554
575.1221, 45.59569
575.6042, 45.52341
576.0864, 45.36012
576.5685, 44.94959
577.0506, 44.46185
577.5327, 44.18348
578.0148, 44.18391
578.4969, 44.34791
578.9791, 44.56538
579.4612, 44.83876
579.9433, 45.10684
580.4254, 45.25674
580.9075, 45.53843
581.3896, 46.08807
581.8718, 46.74928
582.3539, 47.32185
582.8360, 47.77595
583.3181, 48.28062
583.8002, 49.04011
584.2823, 50.02053
584.7645, 50.98486
585.2466, 51.98345
585.7287, 52.83059
586.2108, 53.44881
586.6929, 53.84553
587.1750, 54.01270
587.6572, 53.93095
588.1393, 53.69976
588.6214, 53.47541
589.1035, 53.07120
589.5856, 52.13818
590.0677, 50.69731
590.5499, 49.19960
591.0320, 47.93113
591.5141, 46.82452
591.9962, 45.64455
592.4783, 44.12871
592.9604, 42.93247
593.4426, 42.42998
593.9247, 41.94361
594.4068, 40.81909
594.8889, 39.25414
595.3710, 38.00061
595.8531, 37.59422
596.3353, 37.71576
596.8174, 37.62318
597.2995, 37.28245
597.7816, 36.91641
598.2637, 36.51754
598.7458, 36.17316
599.2280, 35.92672
599.7101, 35.78306
600.1922, 35.76742
600.6743, 35.99928
601.1564, 36.26553
601.6385, 36.35094
602.1207, 36.32172
602.6028, 36.38861
603.0849, 36.62523
603.5670, 36.92580
604.0491, 37.14795
604.5313, 37.26500
605.0134, 37.47095
605.4955, 37.85218
605.9776, 38.21129
606.4597, 38.46893
606.9418, 38.67669
607.4240, 38.96429
607.9061, 39.34610
608.3882, 39.58558
608.8703, 39.30647
609.3524, 38.56158
609.8345, 38.07233
610.3167, 37.93420
610.7988, 37.83634
611.2809, 37.63172
611.7630, 37.37594
612.2451, 37.14908
612.7272, 36.97029
613.2094, 36.76203
613.6915, 36.39674
614.1736, 36.03339
614.6557, 35.94986
615.1378, 36.11194
615.6199, 36.16497
616.1021, 35.87539
616.5842, 35.37946
617.0663, 35.07447
617.5484, 35.15094
618.0305, 35.09206
618.5126, 34.75074
618.9948, 34.42302
619.4769, 34.38577
619.9590, 34.49216
620.4411, 34.35625
620.9232, 33.74215
621.4053, 32.96060
621.8875, 32.54831
622.3696, 32.49770
622.8517, 32.29678
623.3338, 31.82672
623.8159, 31.25606
624.2980, 30.67739
624.7802, 30.10821
625.2623, 29.61143
625.7444, 29.20020
626.2265, 28.85743
626.7086, 28.63183
627.1907, 28.44437
627.6729, 28.13258
628.1550, 27.69173
628.6371, 27.34911
629.1192, 27.33716
629.6013, 27.59077
630.0834, 27.55259
630.5656, 26.89490
631.0477, 26.49424
631.5298, 26.64846
632.0119, 26.93942
632.4940, 27.07015
632.9761, 27.03317
633.4583, 26.97660
633.9404, 26.95292
634.4225, 26.98996
634.9046, 27.21263
635.3867, 27.59491
635.8688, 27.76095
636.3510, 27.54525
636.8331, 27.18613
637.3152, 26.93673
637.7973, 26.80243
638.2794, 26.79700
638.7615, 27.07602
639.2437, 27.31071
639.7258, 27.30922
640.2079, 27.20358
640.6900, 27.19558
641.1721, 27.32965
641.6542, 27.48510
642.1364, 27.53300
642.6185, 27.48083
643.1006, 27.41959
643.5827, 27.33681
644.0648, 27.27332
644.5469, 27.33101
645.0291, 27.35813
645.5112, 27.18984
645.9933, 26.81694
646.4754, 26.42850
646.9575, 25.94126
647.4396, 25.60129
647.9218, 25.84552
648.4039, 26.52033
648.8860, 26.94264
649.3681, 26.82211
649.8502, 26.46549
650.3323, 26.34657
650.8145, 26.54883
651.2966, 26.60473
651.7787, 26.29056
652.2608, 26.09367
652.7429, 26.23896
653.2250, 26.55023
653.7072, 26.80552
654.1893, 26.94829
654.6714, 27.06507
655.1535, 27.28082
655.6356, 27.53576
656.1177, 27.57673
656.5999, 27.36180
657.0820, 27.23318
657.5641, 27.35193
658.0462, 27.64416
658.5283, 28.02658
659.0104, 28.54600
659.4926, 28.91100
659.9747, 28.93009
660.4568, 28.92418
660.9389, 29.06916
661.4210, 29.35056
661.9031, 29.70953
662.3853, 30.12362
662.8674, 30.59873
663.3495, 31.21755
663.8316, 32.01105
664.3137, 32.41261
664.7958, 32.13059
665.2780, 31.98661
665.7601, 32.53447
666.2422, 33.32792
666.7243, 33.82972
667.2064, 33.94669
667.6885, 34.09475
668.1707, 34.45454
668.6528, 34.95517
669.1349, 35.55055
669.6170, 36.21848
670.0991, 36.89282
670.5812, 37.53810
671.0634, 38.18620
671.5455, 38.88127
672.0276, 39.57782
672.5097, 40.48145
672.9918, 41.90509
673.4739, 43.19014
673.9561, 43.99043
674.4382, 44.59381
674.9203, 45.41365
675.4024, 46.54801
675.8845, 47.68107
676.3666, 48.70885
676.8488, 49.50547
677.3309, 49.70546
677.8130, 49.30178
678.2951, 48.81855
678.7772, 48.52816
679.2593, 48.23927
679.7415, 47.57413
680.2236, 46.36339
680.7057, 45.28603
681.1878, 44.54873
681.6699, 43.71515
682.1520, 42.50971
682.6342, 41.10279
683.1163, 39.71196
683.5984, 38.40858
684.0805, 37.29469
684.5626, 36.49700
685.0447, 35.98313
685.5269, 35.61989
686.0090, 35.45302
686.4911, 35.15834
686.9732, 34.49322
687.4553, 33.71901
687.9374, 33.28393
688.4196, 33.21633
688.9017, 33.13349
689.3838, 32.81734
689.8659, 32.63179
690.3480, 32.87628
690.8301, 33.37964
691.3123, 33.85726
691.7944, 34.21181
692.2765, 34.49242
692.7586, 34.71046
693.2407, 34.88618
693.7228, 35.31631
694.2050, 36.08300
694.6871, 36.89180
695.1692, 37.62929
695.6513, 38.37494
696.1334, 39.21862
696.6155, 40.16247
697.0977, 41.13491
697.5798, 42.13444
698.0619, 43.14275
698.5440, 44.09922
699.0261, 45.06686
699.5082, 46.16475
699.9904, 47.42617
700.4725, 48.80159
700.9546, 50.25328
701.4367, 51.77119
701.9188, 53.21576
702.4009, 54.41505
702.8831, 55.88092
703.3652, 58.00619
703.8473, 60.25658
704.3294, 62.25414
704.8115, 64.00603
705.2936, 65.70797
705.7758, 67.28175
706.2579, 68.97046
706.7400, 70.92644
707.2221, 73.16777
707.7042, 75.89678
708.1863, 79.12009
708.6685, 82.30972
709.1505, 84.94473
709.6326, 87.12961
710.1147, 89.63667
710.5969, 92.70527
711.0790, 95.64425
711.5611, 98.47836
712.0432, 101.0734
712.5253, 103.5737
713.0074, 105.7560
713.4896, 106.9519
713.9717, 106.7085
714.4538, 105.7661
714.9359, 104.9221
715.4180, 103.8462
715.9001, 101.7381
716.3823, 98.48759
716.8644, 94.54815
717.3465, 90.15200
717.8286, 85.45778
718.3107, 80.97681
718.7928, 76.79867
719.2750, 72.70181
719.7571, 68.53671
720.2392, 64.59711
720.7213, 61.05061
721.2034, 57.85435
721.6855, 54.90023
722.1677, 52.17361
722.6498, 49.63347
723.1319, 47.15136
723.6140, 44.85647
724.0961, 43.10018
724.5782, 41.87002
725.0604, 40.81274
725.5425, 39.75489
726.0246, 38.69558
726.5067, 37.60512
726.9888, 36.39526
727.4709, 35.42692
727.9531, 34.94890
728.4352, 34.42625
728.9173, 33.55689
729.3994, 32.60282
729.8815, 31.95493
730.3636, 31.68746
730.8458, 31.44384
731.3279, 30.89963
731.8100, 30.25698
732.2921, 29.91117
732.7742, 29.81008
733.2563, 29.54283
733.7385, 28.93748
734.2206, 28.26916
734.7027, 27.89189
735.1848, 27.82494
735.6669, 27.75816
736.1490, 27.69872
736.6312, 27.62983
737.1133, 27.58481
737.5954, 27.50258
738.0775, 27.28385
738.5596, 26.95970
739.0417, 26.71532
739.5239, 26.70261
740.0060, 26.74118
740.4881, 26.59051
740.9702, 26.31780
741.4523, 26.11675
741.9344, 26.02818
742.4166, 26.06079
742.8987, 26.25367
743.3808, 26.54936
743.8629, 26.65700
744.3450, 26.48321
744.8271, 26.28745
745.3093, 26.03484
745.7914, 25.81368
746.2735, 25.66778
746.7556, 25.58973
747.2377, 25.56124
747.7198, 25.58315
748.2020, 25.62698
748.6841, 25.63669
749.1662, 25.66878
749.6483, 25.89641
750.1304, 26.28272
750.6125, 26.49329
751.0947, 26.34144
751.5768, 26.01691
752.0589, 25.84763
752.5410, 25.84086
753.0231, 25.96481
753.5052, 26.38494
753.9874, 26.71323
754.4695, 26.79931
754.9516, 26.76136
755.4337, 26.69763
755.9158, 26.62498
756.3979, 26.58993
756.8801, 26.57462
757.3622, 26.64028
757.8443, 26.90260
758.3264, 27.28417
758.8085, 27.62820
759.2906, 27.88418
759.7728, 28.00892
760.2549, 27.92379
760.7370, 27.69068
761.2191, 27.70323
761.7012, 28.02441
762.1833, 28.42945
762.6655, 29.01977
763.1476, 29.53580
763.6297, 29.75284
764.1118, 29.76519
764.5939, 29.85420
765.0760, 30.16541
765.5582, 30.37663
766.0403, 30.24140
766.5224, 29.98491
767.0045, 29.87621
767.4866, 29.89370
767.9688, 29.86814
768.4509, 29.71457
768.9330, 29.44338
769.4151, 28.98849
769.8972, 28.32763
770.3793, 28.06863
770.8615, 28.40301
771.3436, 28.65162
771.8257, 28.50605
772.3078, 28.11995
772.7899, 27.69365
773.2720, 27.22170
773.7542, 26.79447
774.2363, 26.38276
774.7184, 26.06469
775.2005, 25.95316
775.6826, 25.92348
776.1647, 25.83511
776.6469, 25.65107
777.1290, 25.36011
777.6111, 24.89873
778.0932, 24.40584
778.5753, 24.25548
779.0574, 24.43209
779.5396, 24.49175
780.0217, 24.31645
780.5038, 24.13867
780.9859, 24.16779
781.4680, 24.33552
781.9501, 24.33945
782.4323, 24.03835
782.9144, 23.81045
783.3965, 23.70963
783.8786, 23.64871
784.3607, 23.56943
784.8428, 23.49683
785.3250, 23.50158
785.8071, 23.60664
786.2892, 23.69033
786.7713, 23.63154
787.2534, 23.48915
787.7355, 23.35724
788.2177, 23.24207
788.6998, 23.16562
789.1819, 23.14099
789.6640, 23.10614
790.1461, 22.96744
790.6282, 22.72599
791.1104, 22.63831
791.5925, 22.82550
792.0746, 22.96296
792.5567, 22.93597
793.0388, 22.89370
793.5209, 22.99127
794.0031, 23.16691
794.4852, 23.19515
794.9673, 22.95242
795.4494, 22.66153
795.9315, 22.36692
796.4136, 22.16035
796.8958, 22.20506
797.3779, 22.46625
797.8600, 22.78661
798.3421, 23.08994
798.8242, 23.30063
799.3063, 23.23383
799.7885, 22.87379
800.2706, 22.72353
800.7527, 22.86059
801.2348, 22.97258
801.7169, 22.89128
802.1990, 22.76383
802.6812, 22.82325
803.1633, 23.07031
803.6454, 23.22988
804.1275, 23.20913
804.6096, 23.17966
805.0917, 23.20142
805.5739, 23.24709
806.0560, 23.27842
806.5381, 23.30129
807.0202, 23.36981
807.5023, 23.53934
807.9844, 23.69460
808.4666, 23.62429
808.9487, 23.39751
809.4308, 23.29423
809.9129, 23.34849
810.3950, 23.44054
810.8771, 23.51066
811.3593, 23.55518
811.8414, 23.56042
812.3235, 23.50137
812.8056, 23.49973
813.2877, 23.75057
813.7698, 23.81003
814.2520, 23.34231
814.7341, 22.77287
815.2162, 22.56667
815.6983, 22.73240
816.1804, 22.88455
816.6625, 22.81399
817.1447, 22.72893
817.6268, 22.85975
818.1089, 23.04365
818.5910, 22.97445
819.0731, 22.65485
819.5552, 22.35547
820.0374, 22.25085
820.5195, 22.27826
821.0016, 22.34318
821.4837, 22.44980
821.9658, 22.39199
822.4479, 22.05288
822.9301, 21.91221
823.4122, 22.36941
823.8943, 23.03121
824.3764, 23.16361
824.8585, 22.63269
825.3406, 22.27887
825.8228, 22.16401
826.3049, 22.18863
826.7870, 22.51509
827.2691, 22.83398
827.7512, 22.73984
828.2333, 22.28467
828.7155, 21.92438
829.1976, 21.90804
829.6797, 22.08097
830.1618, 22.41016
830.6439, 22.76508
831.1260, 22.74777
831.6082, 22.35843
832.0903, 22.05200
832.5724, 22.09649
833.0545, 22.33537
833.5366, 22.44895
834.0187, 22.39899
834.5009, 22.50976
834.9830, 22.89515
835.4651, 23.21094
835.9472, 23.30167
836.4293, 23.28461
836.9114, 23.29311
837.3936, 23.32406
837.8757, 23.31245
838.3578, 23.17269
838.8399, 23.08337
839.3220, 23.13924
839.8041, 23.25680
840.2863, 23.42377
840.7684, 23.57379
841.2505, 23.50791
841.7326, 23.09369
842.2147, 22.69213
842.6968, 22.82438
843.1790, 23.29661
843.6611, 23.56646
844.1432, 23.60874
844.6253, 23.55655
845.1074, 23.44775
845.5895, 23.37771
846.0717, 23.48358
846.5538, 23.76542
847.0359, 24.04119
847.5180, 24.39316
848.0001, 24.57004
848.4822, 24.33320
848.9644, 24.08278
849.4465, 24.11902
849.9286, 24.36309
850.4107, 24.58097
850.8928, 24.78444
851.3749, 24.84675
851.8571, 24.52956
852.3392, 24.22474
852.8213, 24.35195
853.3034, 24.72064
853.7855, 24.88724
854.2676, 24.72291
854.7498, 24.50570
855.2319, 24.47172
855.7140, 24.58743
856.1961, 24.83507
856.6782, 25.18406
857.1603, 25.41631
857.6425, 25.47310
858.1246, 25.46500
858.6067, 25.48039
859.0888, 25.50646
859.5709, 25.48851
860.0530, 25.38962
860.5352, 25.34433
861.0173, 25.36790
861.4994, 25.43250
861.9815, 25.57184
862.4636, 25.72059
862.9457, 25.79883
863.4279, 25.80006
863.9100, 25.73771
864.3921, 25.47929
864.8742, 25.31226
865.3563, 25.47029
865.8384, 25.75403
866.3206, 25.94990
866.8027, 26.02510
867.2848, 26.01970
867.7669, 25.94390
868.2490, 25.84629
868.7311, 25.77384
869.2133, 25.73276
869.6954, 25.74169
870.1775, 25.80158
870.6596, 25.91583
871.1417, 26.09309
871.6238, 26.26774
872.1060, 26.34212
872.5881, 26.31701
873.0702, 26.32392
873.5523, 26.36738
874.0344, 26.43673
874.5165, 26.59299
874.9987, 26.70316
875.4808, 26.57360
875.9629, 26.31193
876.4450, 26.24518
876.9271, 26.44601
877.4092, 26.72667
877.8914, 27.15084
878.3735, 27.54136
878.8556, 27.79766
879.3377, 27.94726
879.8198, 28.00179
880.3019, 27.98533
880.7841, 28.04545
881.2662, 28.32161
881.7483, 28.69118
882.2304, 28.97276
882.7125, 29.23489
883.1946, 29.70021
883.6768, 30.36570
884.1589, 30.90464
884.6410, 31.07821
885.1231, 31.17679
885.6052, 31.87178
886.0873, 33.18704
886.5695, 34.12557
887.0516, 34.58934
887.5337, 34.95477
888.0158, 35.28991
888.4979, 35.70042
888.9800, 36.30013
889.4622, 37.09081
889.9443, 38.06611
890.4264, 39.37226
890.9085, 40.64916
891.3906, 41.95555
891.8727, 43.13697
892.3549, 43.99575
892.8370, 44.69095
893.3191, 45.55228
893.8012, 46.67989
894.2833, 47.75763
894.7654, 48.48169
895.2476, 49.23576
895.7297, 50.49236
896.2118, 51.94584
896.6939, 53.06601
897.1760, 53.77022
897.6581, 54.27956
898.1403, 54.70047
898.6224, 55.16345
899.1045, 56.02608
899.5866, 57.14048
900.0687, 57.90059
900.5508, 58.24817
901.0330, 58.17508
901.5151, 57.63961
901.9972, 56.90223
902.4793, 56.40034
902.9614, 55.40297
903.4435, 54.28603
903.9257, 53.41211
904.4078, 51.76773
904.8899, 50.78304
905.3720, 49.72379
905.8541, 47.84612
906.3362, 45.46323
906.8184, 43.57328
907.3005, 42.33081
907.7826, 41.25852
908.2647, 40.40398
908.7468, 39.58948
909.2289, 38.81462
909.7111, 37.98118
910.1932, 36.89732
910.6753, 35.59626
911.1574, 34.40950
911.6395, 33.50816
912.1216, 32.76349
912.6038, 32.11785
913.0859, 31.53580
913.5680, 30.95747
914.0501, 30.39030
914.5322, 29.89075
915.0143, 29.48215
915.4965, 29.09338
915.9786, 28.61213
916.4607, 28.22994
916.9428, 27.82919
917.4249, 27.40880
917.9070, 27.09081
918.3892, 26.68100
918.8713, 26.37617
919.3534, 26.37095
919.8355, 26.52338
920.3176, 26.35970
920.7997, 25.72030
921.2819, 25.37378
921.7640, 25.47251
922.2461, 25.58698
922.7282, 25.55127
923.2103, 25.44722
923.6924, 25.35883
924.1746, 25.28633
924.6567, 25.25168
925.1388, 25.34575
925.6209, 25.35009
926.1030, 25.13013
926.5851, 24.89958
927.0673, 24.77742
927.5494, 24.75877
928.0315, 24.84457
928.5136, 25.03936
928.9957, 25.18325
929.4778, 25.18960
929.9600, 25.11450
930.4421, 24.94045
930.9242, 24.74674
931.4063, 24.70779
931.8884, 24.78779
932.3705, 24.70485
932.8527, 24.26941
933.3348, 23.83397
933.8169, 23.94909
934.2990, 24.40318
934.7811, 24.62045
935.2632, 24.59926
935.7454, 24.49120
936.2275, 24.34477
936.7096, 24.33188
937.1917, 24.65401
937.6738, 25.19676
938.1559, 25.51031
938.6381, 25.56411
939.1202, 25.62127
939.6023, 25.70868
940.0844, 25.79764
940.5665, 25.88366
941.0486, 25.94175
941.5308, 25.86586
942.0129, 25.59836
942.4950, 25.84799
942.9771, 27.28208
943.4592, 28.22425
943.9413, 28.10234
944.4235, 27.77056
944.9056, 27.58373
945.3877, 27.61899
945.8698, 28.07544
946.3519, 29.10552
946.8340, 29.96274
947.3162, 30.24128
947.7983, 30.54832
948.2804, 31.34947
948.7625, 32.24904
949.2446, 32.67517
949.7267, 32.72206
950.2089, 33.03244
950.6910, 33.96944
951.1731, 34.97194
951.6552, 35.56881
952.1373, 36.00508
952.6194, 36.59261
953.1016, 37.27732
953.5837, 37.85555
954.0658, 38.28578
954.5479, 38.72535
955.0300, 39.26517
955.5121, 39.97314
955.9943, 41.04543
956.4763, 42.39973
956.9584, 43.74347
957.4406, 45.04285
957.9227, 46.21592
958.4048, 47.22286
958.8869, 48.18187
959.3690, 49.25192
959.8511, 50.41816
960.3333, 51.57924
960.8154, 52.74279
961.2975, 53.83697
961.7796, 54.88722
962.2617, 55.71061
962.7438, 56.13058
963.2260, 56.30574
963.7081, 56.62603
964.1902, 57.24144
964.6723, 57.18501
965.1544, 56.00711
965.6365, 54.90314
966.1187, 54.09874
966.6008, 53.50972
967.0829, 53.18525
967.5650, 53.01374
968.0471, 52.59019
968.5292, 51.56454
969.0114, 51.15551
969.4935, 52.18553
969.9756, 53.08857
970.4577, 52.89997
970.9398, 52.41809
971.4219, 52.45433
971.9041, 53.06592
972.3862, 54.02566
972.8683, 55.42356
973.3504, 56.77302
973.8325, 57.75684
974.3146, 58.65270
974.7968, 59.75390
975.2789, 60.92936
975.7610, 62.00249
976.2431, 62.88449
976.7252, 63.38279
977.2073, 63.25853
977.6895, 62.89105
978.1716, 62.67973
978.6537, 62.51799
979.1358, 62.26524
979.6179, 61.88275
980.1000, 61.26477
980.5822, 60.38863
981.0643, 59.51270
981.5464, 58.95927
982.0285, 58.07851
982.5106, 57.69394
982.9927, 56.55928
983.4749, 55.57045
983.9570, 54.80169
984.4391, 54.28761
984.9212, 54.05561
985.4033, 54.03466
985.8854, 54.19696
986.3676, 54.48327
986.8497, 54.25438
987.3318, 53.43216
987.8139, 53.06074
988.2960, 53.41565
988.7781, 53.91095
989.2603, 54.21177
989.7424, 54.31959
990.2245, 54.20211
990.7066, 53.80360
991.1887, 53.64177
991.6708, 53.77600
992.1530, 54.00986
992.6351, 54.36564
993.1172, 54.70815
993.5993, 54.91268
994.0814, 55.03068
994.5635, 55.21438
995.0457, 55.46107
995.5278, 55.78017
996.0099, 56.23118
996.4920, 56.67801
996.9741, 57.07325
997.4562, 57.46156
997.9384, 58.05830
998.4205, 58.68866
998.9026, 58.67461
999.3847, 57.52401
999.8668, 56.79193
1000.349, 57.29707
1000.831, 57.67944
1001.313, 57.23736
1001.795, 56.36879
1002.277, 55.44207
1002.760, 54.53547
1003.242, 53.72634
1003.724, 53.19954
1004.206, 52.37908
1004.688, 50.68883
1005.170, 48.91015
1005.652, 47.67603
1006.134, 46.73161
1006.616, 45.65062
1007.099, 44.37870
1007.581, 43.12902
1008.063, 42.05967
1008.545, 40.89588
1009.027, 39.13103
1009.509, 37.37061
1009.991, 36.52520
1010.473, 36.20366
1010.956, 35.42724
1011.438, 34.02362
1011.920, 32.67615
1012.402, 31.88314
1012.884, 31.26208
1013.366, 30.20235
1013.848, 29.71191
1014.330, 28.54347
1014.812, 28.55574
1015.295, 28.39571
1015.777, 27.85647
1016.259, 27.23647
1016.741, 26.77829
1017.223, 26.42710
1017.705, 26.08885
1018.187, 25.77000
1018.669, 25.52761
1019.151, 25.34641
1019.634, 25.03592
1020.116, 24.53166
1020.598, 24.17238
1021.080, 24.36752
1021.562, 24.86285
1022.044, 24.90358
1022.526, 24.53442
1023.008, 24.21580
1023.491, 23.99211
1023.973, 23.74421
1024.455, 23.41336
1024.937, 23.12722
1025.419, 23.04682
1025.901, 23.12293
1026.383, 23.13948
1026.865, 23.09686
1027.348, 22.96392
1027.830, 22.71235
1028.312, 22.53728
1028.794, 22.55283
1029.276, 22.59159
1029.758, 22.42538
1030.240, 22.09407
1030.722, 21.93579
1031.204, 22.00281
1031.687, 22.00085
1032.169, 21.86755
1032.651, 21.76769
1033.133, 21.78448
1033.615, 21.86323
1034.097, 21.94556
1034.579, 22.02770
1035.061, 22.03490
1035.543, 21.88608
1036.026, 21.88761
1036.508, 22.17817
1036.990, 22.40564
1037.472, 22.36396
1037.954, 22.21666
1038.436, 22.16544
1038.918, 22.20855
1039.400, 22.30048
1039.883, 22.46564
1040.365, 22.63169
1040.847, 22.75934
1041.329, 22.93386
1041.811, 23.21017
1042.293, 23.54439
1042.775, 23.89130
1043.257, 24.24944
1043.740, 24.58713
1044.222, 25.00086
1044.704, 25.24535
1045.186, 25.13002
1045.668, 25.05200
1046.150, 25.19551
1046.632, 25.46308
1047.114, 25.74259
1047.596, 26.03190
1048.078, 26.36071
1048.561, 26.75395
1049.043, 27.15215
1049.525, 27.58285
1050.007, 27.97605
1050.489, 28.36485
1050.971, 28.65646
1051.453, 28.65601
1051.935, 28.41086
1052.418, 28.35622
1052.900, 28.64631
1053.382, 28.98509
1053.864, 29.49351
1054.346, 29.83858
1054.828, 29.75268
1055.310, 29.47209
1055.792, 29.23884
1056.275, 29.08075
1056.757, 29.00944
1057.239, 29.17645
1057.721, 29.11869
1058.203, 28.61027
1058.685, 27.95916
1059.167, 27.22305
1059.649, 26.51599
1060.131, 26.00996
1060.614, 25.65454
1061.096, 25.14985
1061.578, 24.31442
1062.060, 23.61233
1062.542, 23.26269
1063.024, 23.02364
1063.506, 22.82704
1063.988, 22.61753
1064.470, 22.34794
1064.953, 22.01652
1065.435, 21.61229
1065.917, 21.05829
1066.399, 20.69020
1066.881, 20.79154
1067.363, 20.94094
1067.845, 20.85717
1068.327, 20.71836
1068.810, 20.75565
1069.292, 20.92595
1069.774, 21.01612
1070.256, 20.94796
1070.738, 20.91372
1071.220, 21.10151
1071.702, 21.22245
1072.184, 21.00886
1072.667, 20.72124
1073.149, 20.62886
1073.631, 20.70582
1074.113, 20.80084
1074.595, 20.86884
1075.077, 21.01563
1075.559, 21.36661
1076.041, 21.71340
1076.523, 21.92586
1077.005, 22.08912
1077.488, 22.32305
1077.970, 22.56902
1078.452, 22.66056
1078.934, 22.55894
1079.416, 22.48705
1079.898, 22.55009
1080.380, 22.65932
1080.862, 22.84973
1081.344, 22.99320
1081.827, 22.94000
1082.309, 22.76676
1082.791, 22.62534
1083.273, 22.54349
1083.755, 22.45553
1084.237, 22.46279
1084.719, 22.27540
1085.201, 21.52571
1085.684, 20.75135
1086.166, 20.36237
1086.648, 20.25716
1087.130, 20.31554
1087.612, 20.47014
1088.094, 20.48599
1088.576, 20.24774
1089.058, 19.91478
1089.541, 19.40729
1090.023, 18.98465
1090.505, 18.89365
1090.987, 18.95795
1091.469, 18.94877
1091.951, 18.85189
1092.433, 18.75934
1092.915, 18.68719
1093.397, 18.65777
1093.880, 18.73630
1094.362, 18.79525
1094.844, 18.73174
1095.326, 18.62956
1095.808, 18.58571
1096.290, 18.58894
1096.772, 18.55896
1097.254, 18.45307
1097.736, 18.43605
1098.219, 18.72847
1098.701, 18.91296
1099.183, 18.67426
1099.665, 18.35569
1100.147, 18.28813
1100.629, 18.38221
1101.111, 18.37291
1101.593, 18.20359
1102.076, 18.11295
1102.558, 18.23629
1103.040, 18.34735
1103.522, 18.32574
1104.004, 18.31430
1104.486, 18.48221
1104.968, 18.69538
1105.450, 18.72472
1105.932, 18.55164
1106.415, 18.34479
1106.897, 18.11619
1107.379, 17.88531
1107.861, 17.54806
1108.343, 17.33261
1108.825, 17.51599
1109.307, 17.77877
1109.789, 17.67851
1110.271, 17.26245
1110.754, 17.00548
1111.236, 17.05050
1111.718, 17.06469
1112.200, 17.06801
1112.682, 16.97313
1113.164, 16.59065
1113.646, 16.23140
1114.128, 16.23895
1114.611, 16.49723
1115.093, 16.59346
1115.575, 16.42333
1116.057, 16.40430
1116.539, 16.73838
1117.021, 16.91537
1117.503, 16.72810
1117.985, 16.48424
1118.468, 16.36669
1118.950, 16.33604
1119.432, 16.33482
1119.914, 16.37236
1120.396, 16.31631
1120.878, 16.07653
1121.360, 15.94211
1121.842, 15.99851
1122.324, 16.07287
1122.807, 16.10894
1123.289, 16.07988
1123.771, 15.91897
1124.253, 15.65674
1124.735, 15.56038
1125.217, 15.69108
1125.699, 15.76481
1126.181, 15.74200
1126.663, 15.75376
1127.146, 15.86810
1127.628, 15.96922
1128.110, 15.94606
1128.592, 15.83499
1129.074, 15.73519
1129.556, 15.64474
1130.038, 15.59517
1130.520, 15.59227
1131.003, 15.59045
1131.485, 15.57979
1131.967, 15.56038
1132.449, 15.52525
1132.931, 15.51232
1133.413, 15.60299
1133.895, 15.77062
1134.377, 15.82426
1134.859, 15.76684
1135.342, 15.66905
1135.824, 15.54127
1136.306, 15.41934
1136.788, 15.31779
1137.270, 15.26774
1137.752, 15.31354
1138.234, 15.41155
1138.716, 15.46321
1139.198, 15.47193
1139.681, 15.40487
1140.163, 15.29633
1140.645, 15.40201
1141.127, 15.75611
1141.609, 15.97742
1142.091, 15.78559
1142.573, 15.46299
1143.055, 15.42755
1143.538, 15.53263
1144.020, 15.47354
1144.502, 15.30716
1144.984, 15.18921
1145.466, 15.13802
1145.948, 15.08312
1146.430, 14.99701
1146.912, 15.00918
1147.395, 15.34595
1147.877, 15.70994
1148.359, 15.76927
1148.841, 15.64034
1149.323, 15.38462
1149.805, 15.11487
1150.287, 15.07295
1150.769, 15.27479
1151.251, 15.43366
1151.734, 15.40004
1152.216, 15.28522
1152.698, 15.10259
1153.180, 14.93110
1153.662, 14.83809
1154.144, 14.79695
1154.626, 14.73319
1155.108, 14.68553
1155.590, 14.82860
1156.073, 15.25705
1156.555, 15.55734
1157.037, 15.53009
1157.519, 15.41860
1158.001, 15.25024
1158.483, 15.10627
1158.965, 15.04024
1159.447, 15.04142
1159.930, 15.12029
1160.412, 15.27346
1160.894, 15.31682
1161.376, 15.14943
1161.858, 14.99905
1162.340, 14.82743
1162.822, 14.75106
1163.304, 14.89313
1163.786, 15.06895
1164.269, 15.09705
1164.751, 15.02134
1165.233, 14.99580
1165.715, 15.03865
1166.197, 15.04969
1166.679, 15.01497
1167.161, 14.98997
1167.643, 14.99377
1168.125, 14.98620
1168.608, 14.94078
1169.090, 14.87398
1169.572, 14.79776
1170.054, 14.72536
1170.536, 14.78834
1171.018, 14.99759
1171.500, 15.08278
1171.982, 15.01778
1172.465, 14.92707
1172.947, 14.85098
1173.429, 14.82454
1173.911, 14.88742
1174.393, 14.97063
1174.875, 14.92181
1175.357, 14.78430
1175.839, 14.70829
1176.322, 14.69734
1176.804, 14.79753
1177.286, 14.98065
1177.768, 15.04121
1178.250, 14.88970
1178.732, 14.70591
1179.214, 14.66081
1179.696, 14.67726
1180.178, 14.65510
1180.661, 14.62228
1181.143, 14.63708
1181.625, 14.67301
1182.107, 14.63853
1182.589, 14.54148
1183.071, 14.52533
1183.553, 14.67877
1184.035, 14.83862
1184.517, 14.94238
1185.000, 14.96970
1185.482, 14.80132
1185.964, 14.63551
1186.446, 14.74423
1186.928, 15.00910
1187.410, 15.12680
1187.892, 15.04327
1188.374, 14.92737
1188.857, 14.75657
1189.339, 14.65012
1189.821, 14.70886
1190.303, 14.74599
1190.785, 14.61828
1191.267, 14.46535
1191.749, 14.43359
1192.231, 14.50456
1192.714, 14.62432
1193.196, 14.85714
1193.678, 14.87171
1194.160, 14.55924
1194.642, 14.32650
1195.124, 14.26246
1195.606, 14.26125
1196.088, 14.26389
1196.570, 14.30066
1197.052, 14.43461
1197.535, 14.62327
1198.017, 14.63051
1198.499, 14.46157
1198.981, 14.34130
1199.463, 14.28570
1199.945, 14.32031
1200.427, 14.44851
1200.909, 14.58016
1201.392, 14.65792
1201.874, 14.66947
1202.356, 14.57141
1202.838, 14.40988
1203.320, 14.26954
1203.802, 14.15109
1204.284, 14.04216
1204.766, 13.95554
1205.249, 13.94524
1205.731, 14.02017
1206.213, 14.10925
1206.695, 14.18108
1207.177, 14.22339
1207.659, 14.20528
1208.141, 14.17527
1208.623, 14.16456
1209.105, 14.17588
1209.588, 14.24632
1210.070, 14.33366
1210.552, 14.28710
1211.034, 14.04690
1211.516, 13.96009
1211.998, 14.28755
1212.480, 14.51262
1212.962, 14.44495
1213.444, 14.32246
1213.927, 14.26551
1214.409, 14.21918
1214.891, 14.08138
1215.373, 13.90552
1215.855, 13.95752
1216.337, 14.33943
1216.819, 14.47770
1217.301, 14.29116
1217.784, 14.18086
1218.266, 14.24272
1218.748, 14.33129
1219.230, 14.37797
1219.712, 14.35107
1220.194, 14.19041
1220.676, 13.95285
1221.158, 13.80024
1221.641, 13.73556
1222.123, 13.80345
1222.605, 13.98019
1223.087, 14.17129
1223.569, 14.33598
1224.051, 14.37960
1224.533, 14.24510
1225.015, 14.06215
1225.497, 13.91254
1225.979, 13.83319
1226.462, 13.91961
1226.944, 14.06216
1227.426, 14.12748
1227.908, 14.12763
1228.390, 14.10736
1228.872, 14.07897
1229.354, 14.05441
1229.836, 14.05992
1230.319, 14.00412
1230.801, 13.75915
1231.283, 13.57285
1231.765, 13.62050
1232.247, 13.69873
1232.729, 13.58943
1233.211, 13.43145
1233.693, 13.51996
1234.176, 13.84082
1234.658, 13.95702
1235.140, 13.76466
1235.622, 13.69394
1236.104, 13.80303
1236.586, 13.88468
1237.068, 13.87121
1237.550, 13.85731
1238.032, 13.91953
1238.515, 13.98384
1238.997, 13.91756
1239.479, 13.75329
1239.961, 13.58414
1240.443, 13.43620
1240.925, 13.46158
1241.407, 13.63452
1241.889, 13.78136
1242.371, 13.85317
1242.854, 13.91189
1243.336, 14.00273
1243.818, 14.04977
1244.300, 13.93476
1244.782, 13.79173
1245.264, 13.68077
1245.746, 13.67546
1246.228, 13.97381
1246.711, 14.39639
1247.193, 14.58358
1247.675, 14.48886
1248.157, 14.32198
1248.639, 14.03296
1249.121, 13.88018
1249.603, 14.03607
1250.085, 14.15943
1250.568, 14.13220
1251.050, 14.05163
1251.532, 13.95548
1252.014, 13.87227
1252.496, 13.85833
1252.978, 13.90394
1253.460, 13.88409
1253.942, 13.78310
1254.424, 13.82794
1254.906, 14.04117
1255.389, 14.09112
1255.871, 13.88978
1256.353, 13.69759
1256.835, 13.68086
1257.317, 13.76442
1257.799, 13.91982
1258.281, 14.04327
1258.763, 13.84393
1259.246, 13.94323
1259.728, 13.92331
1260.210, 13.82327
1260.692, 13.88465
1261.174, 13.72078
1261.656, 13.57992
1262.138, 13.56404
1262.620, 13.55483
1263.103, 13.46552
1263.585, 13.41469
1264.067, 13.50313
1264.549, 13.59726
1265.031, 13.57997
1265.513, 13.52657
1265.995, 13.55427
1266.477, 13.64546
1266.959, 13.70953
1267.442, 13.75655
1267.924, 13.71884
1268.406, 13.56055
1268.888, 13.49970
1269.370, 13.59466
1269.852, 13.63300
1270.334, 13.49789
1270.816, 13.39780
1271.298, 13.59405
1271.781, 13.37264
1272.263, 13.67099
1272.745, 13.24091
1273.227, 13.15145
1273.709, 13.30006
1274.191, 13.40627
1274.673, 13.42997
1275.155, 13.42425
1275.638, 13.40882
1276.120, 13.39562
1276.602, 13.38061
1277.084, 13.38772
1277.566, 13.45966
1278.048, 13.52027
1278.530, 13.53429
1279.012, 13.50550
1279.495, 13.40699
1279.977, 13.28003
1280.459, 13.20703
1280.941, 13.18608
1281.423, 13.28321
1281.905, 13.57348
1282.387, 13.69394
1282.869, 13.59459
1283.351, 13.46406
1283.833, 13.34913
1284.316, 13.31957
1284.798, 13.43298
1285.280, 13.56649
1285.762, 13.57295
1286.244, 13.45881
1286.726, 0.0000000E+00
1287.208, 0.0000000E+00
1287.690, 0.0000000E+00
1288.173, 0.0000000E+00
1288.655, 0.0000000E+00
1289.137, 0.0000000E+00
1289.619, 0.0000000E+00
1290.101, 0.0000000E+00
1290.583, 0.0000000E+00
1291.065, 0.0000000E+00
1291.547, 0.0000000E+00
1292.030, 0.0000000E+00
1292.512, 0.0000000E+00
1292.994, 0.0000000E+00
1293.476, 0.0000000E+00
1293.958, 0.0000000E+00
1294.440, 0.0000000E+00
1294.922, 0.0000000E+00
1295.404, 0.0000000E+00
1295.886, 0.0000000E+00
1296.369, 0.0000000E+00
1296.851, 0.0000000E+00
1297.333, 0.0000000E+00
1297.815, 0.0000000E+00
1298.297, 0.0000000E+00
1298.779, 0.0000000E+00
1299.261, 0.0000000E+00
1299.743, 0.0000000E+00
1300.225, 0.0000000E+00
1300.708, 0.0000000E+00
1301.190, 0.0000000E+00
1301.672, 0.0000000E+00
1302.154, 0.0000000E+00
1302.636, 0.0000000E+00
1303.118, 0.0000000E+00
1303.600, 0.0000000E+00
1304.082, 0.0000000E+00
1304.565, 0.0000000E+00
1305.047, 0.0000000E+00
##END=



