##NAMES=Axinite-(Fe)
##RRUFFID=R050026
##IDEAL CHEMISTRY=Ca_4_Fe^2+^_2_Al_4_[B_2_Si_8_O_30_](OH)_2_
##LOCALITY=Pouyva mine, Polar Urals, Western Siberian Region, Russia
##OWNER=RRUFF
##SOURCE=Rock Currier
##DESCRIPTION=Brown transparent flat crystal
##STATUS=The identification of this mineral has been confirmed by X-ray diffraction and chemical analysis
##URL=rruff.info/R050026
##MEASURED CHEMISTRY=Ca_2.00_(Fe^2+^_0.61_Mn_0.26_Mg_0.13_)Al_2.00_BSi_4_O_15_(OH)
147.7334, 6009.660
148.2155, 6081.833
148.6976, 6165.280
149.1797, 6272.604
149.6618, 6387.839
150.1439, 6488.950
150.6261, 6572.342
151.1082, 6643.668
151.5903, 6704.583
152.0724, 6758.872
152.5545, 6794.094
153.0366, 6799.347
153.5188, 6784.985
154.0009, 6771.427
154.4830, 6747.732
154.9651, 6735.555
155.4472, 6745.960
155.9293, 6800.713
156.4115, 6847.803
156.8936, 6873.851
157.3757, 6883.524
157.8578, 6893.563
158.3399, 6909.894
158.8221, 6927.465
159.3042, 6943.145
159.7863, 6955.494
160.2684, 6966.502
160.7505, 6969.364
161.2326, 6966.969
161.7148, 6981.701
162.1969, 7032.937
162.6790, 7102.254
163.1611, 7171.133
163.6432, 7237.457
164.1253, 7299.294
164.6075, 7351.689
165.0896, 7394.327
165.5717, 7442.586
166.0538, 7504.816
166.5359, 7578.220
167.0180, 7658.734
167.5002, 7739.831
167.9823, 7831.016
168.4644, 7946.063
168.9465, 8089.969
169.4286, 8229.970
169.9107, 8356.366
170.3929, 8461.268
170.8750, 8531.266
171.3571, 8543.913
171.8392, 8523.973
172.3213, 8496.794
172.8034, 8466.300
173.2856, 8426.945
173.7677, 8365.995
174.2498, 8289.271
174.7319, 8217.898
175.2140, 8167.690
175.6961, 8130.057
176.1783, 8092.716
176.6604, 8054.517
177.1425, 8014.852
177.6246, 7968.563
178.1067, 7917.920
178.5888, 7874.619
179.0710, 7855.062
179.5531, 7849.695
180.0352, 7836.597
180.5173, 7805.367
180.9994, 7769.464
181.4815, 7752.714
181.9637, 7754.558
182.4458, 7762.117
182.9279, 7764.466
183.4100, 7763.340
183.8921, 7764.771
184.3742, 7767.117
184.8564, 7774.599
185.3385, 7801.180
185.8206, 7848.448
186.3027, 7898.317
186.7848, 7928.287
187.2669, 7941.672
187.7491, 7964.593
188.2312, 8007.516
188.7133, 8066.861
189.1954, 8130.874
189.6775, 8198.979
190.1596, 8272.693
190.6418, 8356.357
191.1239, 8449.483
191.6060, 8545.658
192.0881, 8652.042
192.5702, 8764.469
193.0524, 8847.646
193.5345, 8901.688
194.0166, 8926.068
194.4987, 8907.137
194.9808, 8841.768
195.4629, 8780.064
195.9451, 8743.475
196.4272, 8731.297
196.9093, 8738.512
197.3914, 8769.188
197.8735, 8812.619
198.3556, 8844.926
198.8378, 8862.354
199.3199, 8891.447
199.8020, 8947.360
200.2841, 9030.615
200.7662, 9125.185
201.2483, 9229.939
201.7305, 9345.700
202.2126, 9480.265
202.6947, 9640.324
203.1768, 9794.210
203.6589, 9922.483
204.1410, 10021.57
204.6232, 10113.66
205.1053, 10204.77
205.5874, 10288.31
206.0695, 10338.80
206.5516, 10348.67
207.0337, 10345.35
207.5159, 10350.65
207.9980, 10370.73
208.4801, 10368.04
208.9622, 10330.93
209.4443, 10267.65
209.9264, 10220.91
210.4086, 10198.30
210.8907, 10176.78
211.3728, 10136.50
211.8549, 10069.52
212.3370, 10009.87
212.8191, 9963.509
213.3013, 9929.197
213.7834, 9892.711
214.2655, 9851.947
214.7476, 9812.237
215.2297, 9776.615
215.7118, 9740.736
216.1940, 9721.137
216.6761, 9726.313
217.1582, 9754.663
217.6403, 9771.413
218.1224, 9778.897
218.6045, 9771.508
219.0867, 9743.580
219.5688, 9694.309
220.0509, 9625.624
220.5330, 9533.250
221.0151, 9415.214
221.4972, 9310.541
221.9794, 9219.035
222.4615, 9140.055
222.9436, 9071.759
223.4257, 9013.802
223.9078, 8966.929
224.3899, 8933.090
224.8721, 8912.516
225.3542, 8896.264
225.8363, 8885.545
226.3184, 8877.859
226.8005, 8870.242
227.2827, 8862.869
227.7648, 8855.257
228.2469, 8846.757
228.7290, 8836.917
229.2111, 8829.446
229.6932, 8822.446
230.1754, 8819.431
230.6575, 8825.280
231.1396, 8842.116
231.6217, 8864.245
232.1038, 8891.686
232.5859, 8926.266
233.0681, 8955.844
233.5502, 8977.031
234.0323, 8995.540
234.5144, 9020.921
234.9965, 9059.320
235.4786, 9093.695
235.9608, 9116.248
236.4429, 9121.223
236.9250, 9139.817
237.4071, 9174.586
237.8892, 9221.346
238.3713, 9275.401
238.8535, 9345.060
239.3356, 9407.998
239.8177, 9455.209
240.2998, 9481.238
240.7819, 9513.569
241.2640, 9558.467
241.7462, 9606.538
242.2283, 9641.061
242.7104, 9654.625
243.1925, 9666.887
243.6746, 9685.620
244.1567, 9715.680
244.6389, 9735.388
245.1210, 9741.483
245.6031, 9739.196
246.0852, 9737.814
246.5673, 9739.629
247.0494, 9738.204
247.5316, 9727.124
248.0137, 9695.608
248.4958, 9692.039
248.9779, 9724.110
249.4600, 9779.941
249.9421, 9839.816
250.4243, 9913.734
250.9064, 9974.286
251.3885, 10004.09
251.8706, 9982.451
252.3527, 10003.00
252.8348, 10084.18
253.3170, 10195.84
253.7991, 10281.36
254.2812, 10333.99
254.7633, 10371.80
255.2454, 10401.54
255.7275, 10424.58
256.2097, 10432.74
256.6918, 10422.13
257.1739, 10399.25
257.6560, 10374.42
258.1381, 10344.57
258.6202, 10319.00
259.1024, 10301.27
259.5845, 10292.81
260.0666, 10286.45
260.5487, 10279.96
261.0308, 10277.30
261.5129, 10285.02
261.9951, 10302.56
262.4772, 10331.74
262.9593, 10374.33
263.4414, 10432.93
263.9235, 10495.69
264.4056, 10567.56
264.8878, 10639.69
265.3699, 10694.60
265.8520, 10724.13
266.3341, 10761.05
266.8162, 10821.65
267.2983, 10910.21
267.7805, 10992.02
268.2626, 11066.25
268.7447, 11133.83
269.2268, 11196.37
269.7089, 11254.07
270.1910, 11305.74
270.6732, 11348.48
271.1553, 11380.24
271.6374, 11422.21
272.1195, 11476.88
272.6016, 11538.25
273.0837, 11599.92
273.5659, 11666.08
274.0480, 11713.11
274.5301, 11733.12
275.0122, 11725.77
275.4943, 11687.81
275.9764, 11608.51
276.4586, 11518.76
276.9407, 11471.34
277.4228, 11472.77
277.9049, 11465.18
278.3870, 11425.63
278.8691, 11355.17
279.3513, 11275.83
279.8334, 11185.75
280.3155, 11091.55
280.7976, 10993.32
281.2798, 10890.58
281.7619, 10814.84
282.2440, 10787.62
282.7261, 10802.03
283.2082, 10805.08
283.6903, 10794.66
284.1725, 10780.71
284.6546, 10774.11
285.1367, 10774.84
285.6188, 10781.36
286.1009, 10794.64
286.5830, 10813.42
287.0652, 10832.37
287.5473, 10851.15
288.0294, 10870.89
288.5115, 10898.86
288.9936, 10932.57
289.4757, 10949.69
289.9579, 10929.11
290.4400, 10890.04
290.9221, 10890.43
291.4042, 10932.69
291.8863, 10984.09
292.3684, 11008.09
292.8506, 11011.62
293.3327, 11025.96
293.8148, 11069.71
294.2969, 11125.41
294.7790, 11155.50
295.2611, 11160.02
295.7433, 11164.12
296.2254, 11195.58
296.7075, 11245.04
297.1896, 11283.10
297.6717, 11288.52
298.1538, 11290.22
298.6360, 11337.34
299.1181, 11427.19
299.6002, 11522.82
300.0823, 11601.15
300.5644, 11665.42
301.0465, 11719.76
301.5287, 11752.70
302.0108, 11791.86
302.4929, 11871.54
302.9750, 11987.80
303.4571, 12113.44
303.9392, 12243.35
304.4214, 12368.47
304.9035, 12482.39
305.3856, 12591.32
305.8677, 12671.72
306.3498, 12688.44
306.8319, 12653.84
307.3141, 12611.48
307.7962, 12593.22
308.2783, 12577.15
308.7604, 12538.09
309.2425, 12461.49
309.7246, 12384.01
310.2068, 12326.16
310.6889, 12285.20
311.1710, 12253.15
311.6531, 12214.75
312.1352, 12190.66
312.6173, 12199.37
313.0995, 12250.77
313.5816, 12314.14
314.0637, 12379.51
314.5458, 12446.91
315.0279, 12516.81
315.5100, 12583.28
315.9922, 12656.94
316.4743, 12747.95
316.9564, 12863.95
317.4385, 12970.34
317.9206, 13065.01
318.4027, 13141.13
318.8849, 13189.21
319.3670, 13202.84
319.8491, 13191.35
320.3312, 13157.23
320.8133, 13100.06
321.2954, 13022.87
321.7776, 12911.93
322.2597, 12786.38
322.7418, 12666.61
323.2239, 12533.25
323.7060, 12428.18
324.1881, 12377.37
324.6703, 12388.07
325.1524, 12366.17
325.6345, 12259.83
326.1166, 12142.79
326.5987, 12073.72
327.0808, 12097.83
327.5630, 12116.98
328.0451, 12114.84
328.5272, 12093.02
329.0093, 12087.47
329.4914, 12113.54
329.9735, 12142.06
330.4557, 12152.44
330.9378, 12124.75
331.4199, 12113.50
331.9020, 12123.00
332.3841, 12152.13
332.8662, 12195.97
333.3484, 12255.28
333.8305, 12327.49
334.3126, 12413.63
334.7947, 12516.83
335.2768, 12621.69
335.7589, 12727.86
336.2411, 12834.85
336.7232, 12946.97
337.2053, 13068.00
337.6874, 13180.70
338.1695, 13270.76
338.6516, 13331.92
339.1338, 13423.41
339.6159, 13555.97
340.0980, 13702.33
340.5801, 13814.59
341.0622, 13892.18
341.5443, 13952.44
342.0265, 14006.68
342.5086, 14052.53
342.9907, 14074.94
343.4728, 14075.98
343.9549, 14044.65
344.4370, 13954.11
344.9192, 13810.42
345.4013, 13665.58
345.8834, 13543.07
346.3655, 13432.74
346.8476, 13306.49
347.3297, 13163.88
347.8119, 13031.36
348.2940, 12931.00
348.7761, 12861.21
349.2582, 12821.33
349.7403, 12823.44
350.2225, 12841.35
350.7046, 12844.57
351.1867, 12832.62
351.6688, 12801.39
352.1509, 12741.42
352.6331, 12662.00
353.1152, 12577.44
353.5973, 12493.03
354.0794, 12400.30
354.5615, 12284.95
355.0436, 12153.63
355.5258, 12026.48
356.0079, 11914.13
356.4900, 11811.07
356.9721, 11708.67
357.4542, 11599.29
357.9363, 11512.03
358.4185, 11483.27
358.9006, 11485.60
359.3827, 11471.59
359.8648, 11399.22
360.3469, 11324.42
360.8290, 11274.17
361.3112, 11251.60
361.7933, 11247.56
362.2754, 11281.74
362.7575, 11324.30
363.2396, 11342.85
363.7217, 11296.12
364.2039, 11258.41
364.6860, 11254.08
365.1681, 11283.94
365.6502, 11308.14
366.1323, 11311.78
366.6144, 11314.72
367.0966, 11330.97
367.5787, 11392.54
368.0608, 11427.90
368.5429, 11414.47
369.0250, 11365.51
369.5071, 11348.79
369.9893, 11372.93
370.4714, 11418.97
370.9535, 11484.93
371.4356, 11600.92
371.9177, 11663.00
372.3998, 11646.00
372.8820, 11586.52
373.3641, 11567.37
373.8462, 11600.99
374.3283, 11642.72
374.8104, 11675.55
375.2925, 11698.99
375.7747, 11722.59
376.2568, 11746.57
376.7389, 11770.71
377.2210, 11792.32
377.7031, 11810.68
378.1852, 11836.92
378.6674, 11877.13
379.1495, 11927.80
379.6316, 11973.16
380.1137, 12011.51
380.5958, 12056.43
381.0779, 12121.75
381.5601, 12205.51
382.0422, 12292.67
382.5243, 12381.48
383.0064, 12472.51
383.4885, 12573.54
383.9706, 12682.64
384.4528, 12778.76
384.9349, 12830.82
385.4170, 12865.53
385.8991, 12934.78
386.3812, 13057.62
386.8633, 13180.58
387.3455, 13248.51
387.8276, 13278.09
388.3097, 13308.60
388.7918, 13379.10
389.2739, 13445.52
389.7560, 13469.09
390.2382, 13444.46
390.7203, 13405.93
391.2024, 13375.20
391.6845, 13339.89
392.1666, 13285.17
392.6487, 13194.07
393.1309, 13094.01
393.6130, 12993.20
394.0951, 12891.87
394.5772, 12794.18
395.0593, 12690.72
395.5414, 12597.67
396.0236, 12526.22
396.5057, 12490.97
396.9878, 12461.64
397.4699, 12440.80
397.9520, 12424.84
398.4341, 12402.69
398.9163, 12371.03
399.3984, 12336.44
399.8805, 12297.41
400.3626, 12242.45
400.8447, 12218.90
401.3268, 12240.82
401.8090, 12283.81
402.2911, 12314.82
402.7732, 12331.23
403.2553, 12340.93
403.7374, 12341.03
404.2195, 12333.02
404.7017, 12344.98
405.1838, 12379.46
405.6659, 12427.59
406.1480, 12489.05
406.6301, 12564.63
407.1122, 12617.92
407.5944, 12632.65
408.0765, 12631.58
408.5586, 12663.62
409.0407, 12728.68
409.5228, 12822.89
410.0049, 12963.26
410.4871, 13130.23
410.9692, 13265.92
411.4513, 13359.02
411.9334, 13444.28
412.4155, 13556.05
412.8976, 13693.64
413.3798, 13849.46
413.8619, 14021.83
414.3440, 14212.16
414.8261, 14442.21
415.3082, 14712.47
415.7903, 14952.78
416.2725, 15126.44
416.7546, 15243.53
417.2367, 15318.46
417.7188, 15354.33
418.2009, 15347.73
418.6830, 15281.50
419.1652, 15166.67
419.6473, 15046.14
420.1294, 14919.88
420.6115, 14801.41
421.0937, 14693.84
421.5758, 14591.17
422.0579, 14518.42
422.5400, 14499.78
423.0221, 14508.46
423.5042, 14499.76
423.9864, 14439.45
424.4685, 14399.03
424.9506, 14406.36
425.4327, 14468.09
425.9148, 14490.27
426.3969, 14466.73
426.8791, 14410.80
427.3612, 14325.85
427.8433, 14194.14
428.3254, 14093.13
428.8075, 14047.82
429.2896, 14035.33
429.7718, 13974.54
430.2539, 13857.88
430.7360, 13733.54
431.2181, 13630.91
431.7002, 13548.46
432.1823, 13462.81
432.6645, 13371.14
433.1466, 13281.41
433.6287, 13198.96
434.1108, 13126.36
434.5929, 13077.75
435.0750, 13078.34
435.5572, 13098.81
436.0393, 13078.13
436.5214, 13018.66
437.0035, 12970.88
437.4856, 12989.00
437.9677, 13039.32
438.4499, 13073.17
438.9320, 13066.71
439.4141, 13060.53
439.8962, 13076.68
440.3783, 13114.93
440.8604, 13175.09
441.3426, 13295.57
441.8247, 13408.08
442.3068, 13466.27
442.7889, 13452.48
443.2710, 13445.57
443.7531, 13487.08
444.2353, 13538.10
444.7174, 13556.33
445.1995, 13525.77
445.6816, 13472.56
446.1637, 13388.36
446.6458, 13278.13
447.1280, 13187.41
447.6101, 13132.97
448.0922, 13079.25
448.5743, 13004.48
449.0564, 12891.90
449.5385, 12800.33
450.0207, 12731.33
450.5028, 12684.03
450.9849, 12661.23
451.4670, 12666.79
451.9491, 12678.46
452.4312, 12689.91
452.9134, 12700.78
453.3955, 12708.13
453.8776, 12711.59
454.3597, 12714.17
454.8418, 12719.33
455.3239, 12726.27
455.8061, 12730.88
456.2882, 12730.27
456.7703, 12730.12
457.2524, 12741.72
457.7345, 12762.00
458.2166, 12778.78
458.6988, 12778.95
459.1809, 12774.62
459.6630, 12779.86
460.1451, 12797.32
460.6272, 12815.72
461.1093, 12824.74
461.5915, 12831.45
462.0736, 12844.51
462.5557, 12882.47
463.0378, 12911.90
463.5199, 12907.44
464.0020, 12876.06
464.4842, 12870.41
464.9663, 12929.48
465.4484, 12996.38
465.9305, 13039.49
466.4126, 13028.50
466.8947, 13047.07
467.3769, 13119.03
467.8590, 13209.96
468.3411, 13260.61
468.8232, 13244.01
469.3053, 13241.36
469.7874, 13282.77
470.2696, 13364.26
470.7517, 13408.65
471.2338, 13408.28
471.7159, 13394.23
472.1980, 13386.50
472.6801, 13385.43
473.1623, 13406.38
473.6444, 13457.24
474.1265, 13519.89
474.6086, 13562.12
475.0907, 13586.77
475.5728, 13612.21
476.0550, 13640.39
476.5371, 13678.44
477.0192, 13741.42
477.5013, 13830.27
477.9834, 13924.87
478.4655, 14009.67
478.9477, 14091.24
479.4298, 14176.53
479.9119, 14263.78
480.3940, 14361.52
480.8761, 14481.87
481.3582, 14616.87
481.8404, 14742.19
482.3225, 14860.82
482.8046, 14958.86
483.2867, 15031.76
483.7688, 15079.63
484.2509, 15100.47
484.7331, 15100.74
485.2152, 15069.98
485.6973, 14995.44
486.1794, 14856.51
486.6615, 14707.45
487.1436, 14549.37
487.6258, 14385.94
488.1079, 14233.03
488.5900, 14090.69
489.0721, 13961.36
489.5542, 13843.23
490.0363, 13735.56
490.5185, 13662.73
491.0006, 13633.22
491.4827, 13614.42
491.9648, 13549.04
492.4470, 13450.14
492.9291, 13393.77
493.4112, 13429.33
493.8933, 13502.19
494.3754, 13526.75
494.8575, 13509.53
495.3397, 13490.16
495.8218, 13491.10
496.3039, 13505.23
496.7860, 13526.95
497.2681, 13558.39
497.7502, 13586.57
498.2324, 13599.84
498.7145, 13607.20
499.1966, 13621.09
499.6787, 13651.05
500.1608, 13682.03
500.6429, 13708.76
501.1251, 13731.56
501.6072, 13757.23
502.0893, 13794.81
502.5714, 13828.10
503.0535, 13847.34
503.5356, 13838.72
504.0178, 13850.37
504.4999, 13891.54
504.9820, 13944.51
505.4641, 13984.28
505.9462, 14010.02
506.4283, 14026.28
506.9105, 14033.15
507.3926, 14031.61
507.8747, 14022.49
508.3568, 14005.19
508.8389, 13991.24
509.3210, 13995.03
509.8032, 14008.62
510.2853, 14010.36
510.7674, 13997.21
511.2495, 13973.59
511.7316, 13931.50
512.2137, 13882.79
512.6959, 13852.12
513.1780, 13869.36
513.6601, 13891.34
514.1422, 13890.40
514.6243, 13868.52
515.1064, 13841.54
515.5886, 13809.96
516.0707, 13779.09
516.5528, 13753.27
517.0349, 13737.58
517.5170, 13716.89
517.9991, 13679.19
518.4813, 13640.00
518.9634, 13618.88
519.4455, 13618.03
519.9276, 13633.33
520.4097, 13676.35
520.8918, 13737.48
521.3740, 13752.49
521.8561, 13710.83
522.3382, 13658.07
522.8203, 13617.52
523.3024, 13589.82
523.7845, 13584.78
524.2667, 13607.36
524.7488, 13635.97
525.2309, 13640.17
525.7130, 13627.52
526.1951, 13624.39
526.6772, 13643.83
527.1594, 13673.52
527.6415, 13700.84
528.1236, 13726.09
528.6057, 13751.31
529.0878, 13790.99
529.5699, 13822.01
530.0521, 13819.31
530.5342, 13769.06
531.0163, 13733.99
531.4984, 13736.48
531.9805, 13763.02
532.4626, 13799.14
532.9448, 13869.52
533.4269, 13917.06
533.9090, 13926.57
534.3911, 13907.64
534.8732, 13896.15
535.3553, 13890.65
535.8375, 13895.50
536.3196, 13917.86
536.8017, 13959.75
537.2838, 13981.04
537.7659, 13979.26
538.2480, 13965.56
538.7302, 13947.01
539.2123, 13925.07
539.6944, 13911.10
540.1765, 13908.24
540.6586, 13913.13
541.1407, 13921.96
541.6229, 13934.68
542.1050, 13951.17
542.5871, 13976.88
543.0692, 14002.76
543.5513, 14018.54
544.0334, 14023.68
544.5156, 14030.66
544.9977, 14048.97
545.4798, 14069.40
545.9619, 14084.27
546.4440, 14087.11
546.9261, 14091.88
547.4083, 14098.93
547.8904, 14109.51
548.3725, 14126.47
548.8546, 14158.31
549.3367, 14182.59
549.8188, 14191.96
550.3010, 14187.82
550.7831, 14184.59
551.2652, 14180.12
551.7473, 14183.80
552.2294, 14207.10
552.7115, 14247.59
553.1937, 14278.10
553.6758, 14294.31
554.1579, 14309.59
554.6400, 14344.11
555.1221, 14391.66
555.6042, 14433.38
556.0864, 14457.04
556.5685, 14478.20
557.0506, 14510.27
557.5327, 14552.04
558.0148, 14598.65
558.4969, 14652.32
558.9791, 14706.86
559.4612, 14760.22
559.9433, 14813.89
560.4254, 14856.51
560.9075, 14877.22
561.3896, 14890.71
561.8718, 14910.63
562.3539, 14944.33
562.8360, 14971.41
563.3181, 14985.83
563.8002, 14994.64
564.2823, 15015.96
564.7645, 15051.83
565.2466, 15089.87
565.7287, 15120.38
566.2108, 15148.46
566.6929, 15206.48
567.1750, 15295.42
567.6572, 15381.72
568.1393, 15435.38
568.6214, 15465.30
569.1035, 15481.70
569.5856, 15480.39
570.0677, 15490.46
570.5499, 15554.74
571.0320, 15642.66
571.5141, 15706.28
571.9962, 15719.94
572.4783, 15714.10
572.9604, 15696.87
573.4426, 15669.18
573.9247, 15633.94
574.4068, 15585.03
574.8889, 15534.63
575.3710, 15483.37
575.8531, 15426.47
576.3353, 15400.35
576.8174, 15422.03
577.2995, 15449.64
577.7816, 15438.20
578.2637, 15382.95
578.7458, 15340.02
579.2280, 15318.41
579.7101, 15310.91
580.1922, 15309.35
580.6743, 15312.26
581.1564, 15311.30
581.6385, 15294.91
582.1207, 15276.56
582.6028, 15277.34
583.0849, 15294.93
583.5670, 15311.08
584.0491, 15301.26
584.5313, 15294.48
585.0134, 15317.98
585.4955, 15388.07
585.9776, 15447.75
586.4597, 15464.56
586.9418, 15470.97
587.4240, 15505.18
587.9061, 15605.71
588.3882, 15676.60
588.8703, 15708.11
589.3524, 15703.30
589.8345, 15661.93
590.3167, 15571.11
590.7988, 15493.35
591.2809, 15464.22
591.7630, 15472.31
592.2451, 15461.26
592.7272, 15430.65
593.2094, 15391.28
593.6915, 15349.82
594.1736, 15306.45
594.6557, 15258.69
595.1378, 15204.37
595.6199, 15157.38
596.1021, 15128.24
596.5842, 15113.27
597.0663, 15107.24
597.5485, 15118.16
598.0306, 15127.51
598.5127, 15129.77
598.9948, 15125.69
599.4769, 15118.67
599.9590, 15105.07
600.4412, 15093.13
600.9233, 15084.17
601.4054, 15077.67
601.8875, 15083.86
602.3696, 15107.88
602.8517, 15131.91
603.3339, 15134.22
603.8160, 15117.63
604.2981, 15122.13
604.7802, 15155.36
605.2623, 15198.90
605.7444, 15230.72
606.2266, 15253.82
606.7087, 15274.37
607.1908, 15287.17
607.6729, 15306.67
608.1550, 15354.64
608.6371, 15420.66
609.1193, 15472.55
609.6014, 15477.26
610.0835, 15481.70
610.5656, 15509.94
611.0477, 15567.03
611.5298, 15620.49
612.0120, 15673.05
612.4941, 15717.41
612.9762, 15746.40
613.4583, 15754.46
613.9404, 15767.80
614.4225, 15789.88
614.9047, 15813.02
615.3868, 15820.33
615.8689, 15814.15
616.3510, 15828.48
616.8331, 15889.57
617.3152, 15954.82
617.7974, 15950.13
618.2795, 15889.72
618.7616, 15829.01
619.2437, 15789.92
619.7258, 15768.75
620.2079, 15774.13
620.6901, 15805.60
621.1722, 15815.46
621.6543, 15768.33
622.1364, 15707.25
622.6185, 15660.31
623.1006, 15634.23
623.5828, 15610.33
624.0649, 15588.57
624.5470, 15569.03
625.0291, 15551.15
625.5112, 15534.19
625.9933, 15525.40
626.4755, 15532.67
626.9576, 15540.04
627.4397, 15502.12
627.9218, 15426.14
628.4039, 15367.36
628.8860, 15359.46
629.3682, 15381.05
629.8503, 15408.23
630.3324, 15440.32
630.8145, 15473.33
631.2966, 15518.99
631.7787, 15554.55
632.2609, 15556.36
632.7430, 15507.48
633.2251, 15480.44
633.7072, 15499.63
634.1893, 15540.44
634.6714, 15584.13
635.1536, 15635.39
635.6357, 15679.89
636.1178, 15717.67
636.5999, 15746.60
637.0820, 15756.83
637.5641, 15747.20
638.0463, 15748.28
638.5284, 15776.98
639.0105, 15816.40
639.4926, 15830.59
639.9747, 15823.37
640.4568, 15816.60
640.9390, 15826.43
641.4211, 15840.92
641.9032, 15849.17
642.3853, 15850.36
642.8674, 15849.92
643.3495, 15846.29
643.8317, 15844.27
644.3138, 15847.90
644.7959, 15864.78
645.2780, 15872.76
645.7601, 15865.52
646.2422, 15854.94
646.7244, 15862.03
647.2065, 15896.72
647.6886, 15891.58
648.1707, 15819.92
648.6528, 15723.85
649.1349, 15689.04
649.6171, 15709.44
650.0992, 15740.60
650.5813, 15771.06
651.0634, 15795.17
651.5455, 15804.37
652.0276, 15800.25
652.5098, 15790.85
652.9919, 15771.86
653.4740, 15755.61
653.9561, 15749.30
654.4382, 15753.92
654.9203, 15767.10
655.4025, 15798.62
655.8846, 15830.40
656.3667, 15851.97
656.8488, 15866.55
657.3309, 15856.67
657.8130, 15811.42
658.2952, 15760.35
658.7773, 15745.35
659.2594, 15764.34
659.7415, 15796.41
660.2236, 15843.32
660.7057, 15888.81
661.1879, 15901.19
661.6700, 15891.84
662.1521, 15892.36
662.6342, 15936.04
663.1163, 15978.97
663.5984, 15985.18
664.0806, 15960.17
664.5627, 15953.36
665.0448, 15995.70
665.5269, 16041.77
666.0090, 16071.84
666.4911, 16083.18
666.9733, 16096.37
667.4554, 16110.70
667.9375, 16128.25
668.4196, 16150.13
668.9017, 16176.52
669.3839, 16208.12
669.8660, 16244.10
670.3481, 16288.53
670.8302, 16358.93
671.3123, 16440.20
671.7944, 16497.87
672.2766, 16506.78
672.7587, 16512.00
673.2408, 16540.36
673.7229, 16586.52
674.2050, 16640.49
674.6871, 16730.77
675.1693, 16794.36
675.6514, 16801.45
676.1335, 16764.55
676.6156, 16748.12
677.0977, 16760.71
677.5798, 16774.76
678.0620, 16782.84
678.5441, 16783.46
679.0262, 16755.07
679.5083, 16695.61
679.9904, 16637.31
680.4725, 16614.38
680.9547, 16607.75
681.4368, 16580.71
681.9189, 16527.27
682.4010, 16472.89
682.8831, 16428.87
683.3652, 16395.84
683.8474, 16375.47
684.3295, 16374.46
684.8116, 16376.17
685.2937, 16382.73
685.7758, 16388.70
686.2579, 16387.20
686.7401, 16378.29
687.2222, 16359.48
687.7043, 16322.62
688.1864, 16283.03
688.6685, 16286.94
689.1506, 16331.18
689.6328, 16364.35
690.1149, 16351.73
690.5970, 16322.52
691.0791, 16321.85
691.5612, 16345.19
692.0433, 16369.25
692.5255, 16367.25
693.0076, 16373.75
693.4897, 16421.72
693.9718, 16519.00
694.4539, 16585.36
694.9360, 16579.39
695.4182, 16568.17
695.9003, 16587.44
696.3824, 16643.32
696.8645, 16705.47
697.3466, 16777.47
697.8287, 16846.34
698.3109, 16887.82
698.7930, 16910.35
699.2751, 16960.85
699.7572, 17050.06
700.2393, 17157.09
700.7214, 17262.41
701.2036, 17369.96
701.6857, 17486.78
702.1678, 17639.00
702.6499, 17773.33
703.1320, 17844.16
703.6141, 17883.01
704.0963, 17971.13
704.5784, 18139.38
705.0605, 18315.87
705.5426, 18487.04
706.0247, 18655.38
706.5068, 18826.42
706.9890, 19000.56
707.4711, 19181.17
707.9532, 19367.72
708.4353, 19561.89
708.9174, 19769.00
709.3995, 19987.70
709.8817, 20196.83
710.3638, 20380.13
710.8459, 20546.79
711.3280, 20706.89
711.8101, 20865.85
712.2922, 20990.75
712.7744, 21078.97
713.2565, 21124.81
713.7386, 21131.65
714.2207, 21113.27
714.7028, 21012.74
715.1849, 20807.49
715.6671, 20557.38
716.1492, 20316.90
716.6313, 20087.28
717.1134, 19857.33
717.5955, 19625.78
718.0776, 19398.50
718.5598, 19187.88
719.0419, 18989.10
719.5240, 18793.22
720.0061, 18583.12
720.4882, 18389.79
720.9703, 18228.26
721.4525, 18092.39
721.9346, 17967.37
722.4167, 17852.25
722.8988, 17743.63
723.3809, 17635.38
723.8630, 17533.65
724.3452, 17471.46
724.8273, 17455.65
725.3094, 17431.28
725.7915, 17364.69
726.2736, 17274.28
726.7557, 17205.89
727.2379, 17158.13
727.7200, 17120.05
728.2021, 17087.16
728.6842, 17059.20
729.1663, 17036.16
729.6484, 17018.25
730.1306, 17002.99
730.6127, 17005.63
731.0948, 16996.80
731.5769, 16953.89
732.0590, 16857.60
732.5411, 16809.40
733.0233, 16819.32
733.5054, 16854.84
733.9875, 16898.93
734.4696, 16947.04
734.9517, 16958.22
735.4338, 16923.35
735.9160, 16880.07
736.3981, 16864.33
736.8802, 16865.61
737.3623, 16869.70
737.8444, 16878.41
738.3266, 16878.55
738.8087, 16857.93
739.2908, 16828.12
739.7729, 16806.42
740.2551, 16798.94
740.7372, 16787.43
741.2193, 16760.50
741.7014, 16736.25
742.1835, 16768.00
742.6656, 16856.48
743.1478, 16909.20
743.6299, 16874.43
744.1120, 16816.09
744.5941, 16852.40
745.0762, 16952.96
745.5583, 17024.43
746.0405, 16986.83
746.5226, 16938.29
747.0047, 16936.83
747.4868, 16974.51
747.9689, 16998.63
748.4510, 16997.74
748.9332, 16988.93
749.4153, 16975.92
749.8974, 16958.99
750.3795, 16934.52
750.8616, 16898.69
751.3438, 16884.78
751.8259, 16936.49
752.3080, 17020.98
752.7901, 17053.02
753.2722, 17033.35
753.7543, 17017.45
754.2365, 17047.00
754.7186, 17092.40
755.2007, 17129.07
755.6828, 17151.90
756.1649, 17181.87
756.6470, 17241.07
757.1292, 17292.31
757.6113, 17308.71
758.0934, 17277.90
758.5755, 17268.26
759.0576, 17281.90
759.5397, 17309.64
760.0219, 17347.93
760.5040, 17392.86
760.9861, 17429.33
761.4682, 17452.96
761.9503, 17477.50
762.4324, 17520.25
762.9146, 17567.55
763.3967, 17602.44
763.8788, 17603.93
764.3609, 17620.48
764.8430, 17679.86
765.3251, 17746.68
765.8073, 17780.56
766.2894, 17774.65
766.7715, 17761.13
767.2536, 17741.69
767.7357, 17721.51
768.2178, 17714.55
768.7000, 17715.75
769.1821, 17703.66
769.6642, 17666.29
770.1463, 17621.25
770.6284, 17572.97
771.1105, 17529.39
771.5927, 17505.84
772.0748, 17536.83
772.5569, 17553.63
773.0390, 17533.34
773.5211, 17489.30
774.0032, 17453.10
774.4854, 17424.57
774.9675, 17406.22
775.4496, 17405.60
775.9317, 17409.68
776.4138, 17375.48
776.8959, 17311.65
777.3781, 17263.44
777.8602, 17263.61
778.3423, 17282.34
778.8244, 17299.98
779.3065, 17315.62
779.7886, 17327.10
780.2708, 17337.99
780.7529, 17339.68
781.2350, 17328.83
781.7171, 17306.33
782.1992, 17277.43
782.6813, 17238.32
783.1635, 17209.01
783.6456, 17201.77
784.1277, 17212.01
784.6098, 17228.04
785.0919, 17249.05
785.5740, 17267.36
786.0562, 17269.78
786.5383, 17273.62
787.0204, 17302.51
787.5025, 17357.36
787.9846, 17386.42
788.4667, 17361.23
788.9489, 17322.01
789.4310, 17278.18
789.9131, 17228.26
790.3952, 17212.15
790.8773, 17235.22
791.3594, 17267.66
791.8416, 17288.53
792.3237, 17301.38
792.8058, 17317.88
793.2879, 17338.52
793.7700, 17350.90
794.2521, 17338.53
794.7343, 17319.67
795.2164, 17307.95
795.6985, 17304.55
796.1806, 17311.54
796.6627, 17339.34
797.1448, 17365.70
797.6270, 17373.10
798.1091, 17357.41
798.5912, 17359.20
799.0733, 17381.95
799.5554, 17404.96
800.0375, 17408.06
800.5197, 17397.09
801.0018, 17378.07
801.4839, 17349.47
801.9660, 17334.37
802.4481, 17357.02
802.9302, 17392.93
803.4124, 17421.43
803.8945, 17435.27
804.3766, 17451.72
804.8587, 17472.55
805.3408, 17493.65
805.8229, 17509.84
806.3051, 17521.16
806.7872, 17538.02
807.2693, 17561.70
807.7514, 17588.93
808.2335, 17625.66
808.7156, 17660.84
809.1978, 17674.36
809.6799, 17654.31
810.1620, 17638.68
810.6441, 17650.07
811.1262, 17669.46
811.6083, 17677.82
812.0905, 17668.93
812.5726, 17663.30
813.0547, 17663.97
813.5368, 17662.96
814.0189, 17640.29
814.5010, 17603.67
814.9832, 17608.63
815.4653, 17674.58
815.9474, 17731.03
816.4295, 17696.84
816.9116, 17621.89
817.3937, 17567.41
817.8759, 17552.94
818.3580, 17551.38
818.8401, 17569.67
819.3222, 17590.55
819.8043, 17596.37
820.2864, 17582.43
820.7686, 17574.07
821.2507, 17572.76
821.7328, 17579.94
822.2149, 17605.77
822.6970, 17640.99
823.1791, 17660.27
823.6613, 17652.79
824.1434, 17645.28
824.6255, 17662.11
825.1076, 17685.55
825.5897, 17695.60
826.0718, 17668.26
826.5540, 17657.79
827.0361, 17671.23
827.5182, 17693.46
828.0003, 17706.17
828.4824, 17709.39
828.9645, 17717.20
829.4467, 17733.16
829.9288, 17747.46
830.4109, 17742.03
830.8930, 17729.74
831.3751, 17732.59
831.8572, 17766.23
832.3394, 17792.33
832.8215, 17783.95
833.3036, 17769.00
833.7857, 17779.91
834.2678, 17829.19
834.7499, 17866.85
835.2321, 17887.82
835.7142, 17901.09
836.1963, 17924.77
836.6784, 17951.30
837.1605, 17944.37
837.6426, 17887.78
838.1248, 17840.29
838.6069, 17859.47
839.0890, 17907.09
839.5711, 17941.27
840.0532, 17949.34
840.5353, 17949.38
841.0175, 17930.01
841.4996, 17916.53
841.9817, 17942.89
842.4638, 18011.70
842.9459, 18053.44
843.4280, 18058.45
843.9102, 18052.32
844.3923, 18057.98
844.8744, 18073.10
845.3565, 18096.51
845.8386, 18132.54
846.3207, 18159.77
846.8029, 18162.71
847.2850, 18157.30
847.7671, 18155.84
848.2492, 18151.92
848.7313, 18174.59
849.2134, 18234.03
849.6956, 18293.68
850.1777, 18312.84
850.6598, 18301.77
851.1419, 18294.82
851.6240, 18295.88
852.1061, 18302.94
852.5883, 18319.75
853.0704, 18338.59
853.5525, 18352.93
854.0346, 18361.55
854.5167, 18364.70
854.9988, 18356.04
855.4810, 18350.36
855.9631, 18362.27
856.4452, 18392.27
856.9273, 18405.54
857.4094, 18400.39
857.8915, 18390.24
858.3737, 18383.98
858.8558, 18381.15
859.3379, 18381.37
859.8200, 18384.64
860.3021, 18390.37
860.7842, 18405.01
861.2664, 18415.80
861.7485, 18412.16
862.2306, 18390.80
862.7127, 18389.14
863.1948, 18409.15
863.6769, 18440.03
864.1591, 18486.11
864.6412, 18534.74
865.1233, 18548.58
865.6054, 18529.90
866.0875, 18521.07
866.5696, 18569.35
867.0518, 18617.23
867.5339, 18624.14
868.0160, 18585.04
868.4981, 18552.21
868.9802, 18517.10
869.4623, 18507.56
869.9445, 18552.03
870.4266, 18632.08
870.9087, 18653.81
871.3908, 18622.74
871.8729, 18594.76
872.3550, 18608.28
872.8372, 18635.69
873.3193, 18657.84
873.8014, 18674.21
874.2835, 18685.25
874.7656, 18682.32
875.2477, 18684.59
875.7299, 18697.44
876.2120, 18719.01
876.6941, 18745.66
877.1762, 18777.29
877.6583, 18801.02
878.1404, 18804.25
878.6226, 18803.58
879.1047, 18827.38
879.5869, 18865.04
880.0690, 18889.71
880.5511, 18862.85
881.0332, 18854.74
881.5153, 18904.37
881.9974, 18979.95
882.4796, 19012.54
882.9617, 18991.16
883.4438, 18991.52
883.9259, 19037.96
884.4080, 19100.50
884.8901, 19133.64
885.3723, 19145.31
885.8544, 19152.42
886.3365, 19147.89
886.8186, 19160.97
887.3007, 19204.16
887.7828, 19273.35
888.2650, 19367.51
888.7471, 19512.37
889.2292, 19605.47
889.7113, 19628.00
890.1934, 19620.58
890.6755, 19621.94
891.1577, 19637.06
891.6398, 19684.61
892.1219, 19770.78
892.6040, 19873.24
893.0861, 19992.86
893.5682, 20110.62
894.0504, 20207.95
894.5325, 20276.50
895.0146, 20335.50
895.4967, 20379.88
895.9788, 20423.84
896.4609, 20469.99
896.9431, 20523.00
897.4252, 20623.95
897.9073, 20775.67
898.3894, 20918.52
898.8715, 21017.80
899.3536, 21084.09
899.8358, 21118.57
900.3179, 21118.01
900.8000, 21131.57
901.2821, 21171.68
901.7642, 21215.04
902.2463, 21252.20
902.7285, 21283.39
903.2106, 21323.06
903.6927, 21369.70
904.1748, 21390.40
904.6569, 21332.26
905.1390, 21263.02
905.6212, 21266.79
906.1033, 21324.54
906.5854, 21348.43
907.0675, 21286.27
907.5496, 21219.31
908.0317, 21165.37
908.5139, 21120.72
908.9960, 21071.70
909.4781, 21018.49
909.9602, 20973.17
910.4423, 20949.33
910.9244, 20921.13
911.4066, 20850.79
911.8887, 20755.06
912.3708, 20663.69
912.8529, 20593.92
913.3350, 20520.79
913.8171, 20439.89
914.2993, 20354.27
914.7814, 20265.56
915.2635, 20172.72
915.7456, 20092.61
916.2277, 20029.61
916.7098, 19970.78
917.1920, 19903.20
917.6741, 19830.05
918.1562, 19750.49
918.6383, 19654.63
919.1204, 19591.15
919.6025, 19610.45
920.0847, 19638.52
920.5668, 19620.44
921.0489, 19544.49
921.5310, 19512.56
922.0131, 19529.93
922.4952, 19547.92
922.9774, 19510.46
923.4595, 19456.76
923.9416, 19452.78
924.4237, 19498.75
924.9058, 19536.93
925.3879, 19530.72
925.8701, 19526.53
926.3522, 19553.01
926.8343, 19602.29
927.3164, 19598.81
927.7985, 19534.47
928.2806, 19492.81
928.7628, 19525.93
929.2449, 19591.10
929.7270, 19631.19
930.2091, 19648.32
930.6912, 19649.34
931.1733, 19621.10
931.6555, 19595.42
932.1376, 19582.43
932.6197, 19577.69
933.1018, 19573.36
933.5839, 19568.25
934.0660, 19573.47
934.5482, 19593.13
935.0303, 19617.25
935.5124, 19629.16
935.9945, 19637.90
936.4766, 19659.88
936.9587, 19703.24
937.4409, 19748.75
937.9230, 19787.15
938.4051, 19828.44
938.8872, 19884.78
939.3693, 19964.34
939.8514, 20010.19
940.3336, 20018.80
940.8157, 20016.26
941.2978, 20010.95
941.7799, 20014.82
942.2620, 20046.16
942.7441, 20105.28
943.2263, 20180.57
943.7084, 20296.98
944.1905, 20395.05
944.6726, 20443.28
945.1547, 20451.95
945.6368, 20480.72
946.1190, 20529.44
946.6011, 20607.29
947.0832, 20735.93
947.5653, 20876.75
948.0474, 20981.17
948.5295, 21058.36
949.0117, 21129.61
949.4938, 21185.48
949.9759, 21258.69
950.4580, 21365.43
950.9401, 21484.57
951.4222, 21581.88
951.9044, 21657.38
952.3865, 21729.91
952.8686, 21798.43
953.3507, 21884.06
953.8328, 22029.89
954.3149, 22196.48
954.7971, 22328.26
955.2792, 22394.61
955.7613, 22496.71
956.2434, 22688.16
956.7255, 22872.15
957.2076, 22973.87
957.6898, 22997.97
958.1719, 23110.83
958.6540, 23311.94
959.1361, 23505.36
959.6182, 23626.35
960.1003, 23710.54
960.5825, 23783.67
961.0646, 23848.72
961.5467, 23915.55
962.0288, 24002.76
962.5109, 24067.42
962.9930, 24105.35
963.4752, 24108.32
963.9573, 24035.16
964.4394, 23899.07
964.9215, 23783.21
965.4036, 23738.60
965.8857, 23673.90
966.3679, 23474.87
966.8500, 23228.97
967.3321, 23051.41
967.8142, 23023.65
968.2963, 22940.03
968.7784, 22771.81
969.2606, 22605.40
969.7427, 22544.08
970.2248, 22559.59
970.7069, 22547.48
971.1890, 22500.23
971.6711, 22458.52
972.1533, 22432.72
972.6354, 22435.51
973.1175, 22494.20
973.5996, 22605.95
974.0817, 22663.75
974.5638, 22648.09
975.0460, 22648.16
975.5281, 22707.90
976.0102, 22800.72
976.4923, 22887.21
976.9744, 22960.19
977.4565, 22998.66
977.9387, 22965.69
978.4208, 22929.14
978.9029, 22905.44
979.3850, 22895.42
979.8671, 22908.63
980.3492, 22955.73
980.8314, 22956.50
981.3135, 22894.88
981.7956, 22818.80
982.2777, 22775.80
982.7598, 22753.57
983.2419, 22733.73
983.7241, 22712.49
984.2062, 22703.26
984.6883, 22727.81
985.1704, 22746.48
985.6525, 22732.84
986.1346, 22693.43
986.6168, 22703.07
987.0989, 22760.53
987.5810, 22826.72
988.0631, 22895.01
988.5452, 22948.66
989.0273, 22968.03
989.5095, 22960.04
989.9916, 22941.45
990.4737, 22907.10
990.9558, 22876.48
991.4379, 22856.53
991.9200, 22834.99
992.4022, 22784.68
992.8843, 22714.80
993.3664, 22664.99
993.8485, 22645.04
994.3306, 22632.37
994.8127, 22619.04
995.2949, 22600.94
995.7770, 22568.55
996.2591, 22515.79
996.7412, 22497.51
997.2233, 22522.07
997.7054, 22551.15
998.1876, 22559.57
998.6697, 22556.97
999.1518, 22566.12
999.6339, 22584.01
1000.116, 22598.71
1000.598, 22612.94
1001.080, 22613.55
1001.562, 22588.87
1002.044, 22551.26
1002.527, 22523.11
1003.009, 22505.84
1003.491, 22479.60
1003.973, 22440.44
1004.455, 22395.32
1004.937, 22367.98
1005.419, 22331.95
1005.901, 22246.69
1006.384, 22088.94
1006.866, 21954.37
1007.348, 21873.59
1007.830, 21788.72
1008.312, 21660.29
1008.794, 21499.18
1009.276, 21364.14
1009.758, 21254.51
1010.240, 21159.70
1010.723, 21071.63
1011.205, 20998.30
1011.687, 20956.56
1012.169, 20932.59
1012.651, 20887.71
1013.133, 20809.78
1013.615, 20744.10
1014.097, 20699.65
1014.580, 20663.16
1015.062, 20618.17
1015.544, 20567.95
1016.026, 20516.98
1016.508, 20465.20
1016.990, 20419.91
1017.472, 20382.48
1017.954, 20354.58
1018.436, 20338.24
1018.919, 20333.11
1019.401, 20324.82
1019.883, 20313.34
1020.365, 20316.32
1020.847, 20369.69
1021.329, 20420.96
1021.811, 20396.84
1022.293, 20330.88
1022.776, 20306.66
1023.258, 20382.32
1023.740, 20430.09
1024.222, 20433.22
1024.704, 20411.77
1025.186, 20380.19
1025.668, 20346.82
1026.150, 20350.21
1026.632, 20399.17
1027.115, 20434.91
1027.597, 20407.84
1028.079, 20367.08
1028.561, 20347.18
1029.043, 20347.47
1029.525, 20330.46
1030.007, 20291.07
1030.489, 20281.66
1030.972, 20358.91
1031.454, 20442.62
1031.936, 20398.10
1032.418, 20277.05
1032.900, 20191.15
1033.382, 20205.79
1033.864, 20214.46
1034.346, 20201.25
1034.828, 20184.13
1035.311, 20184.60
1035.793, 20200.07
1036.275, 20214.92
1036.757, 20228.00
1037.239, 20236.99
1037.721, 20246.59
1038.203, 20246.17
1038.685, 20217.66
1039.167, 20166.56
1039.650, 20148.63
1040.132, 20172.92
1040.614, 20188.34
1041.096, 20166.20
1041.578, 20145.79
1042.060, 20213.38
1042.542, 20323.36
1043.024, 20387.72
1043.507, 20343.94
1043.989, 20326.05
1044.471, 20382.41
1044.953, 20444.00
1045.435, 20448.82
1045.917, 20403.21
1046.399, 20394.93
1046.881, 20424.24
1047.364, 20460.86
1047.846, 20486.84
1048.328, 20510.76
1048.810, 20541.82
1049.292, 20576.11
1049.774, 20596.43
1050.256, 20597.60
1050.738, 20603.96
1051.220, 20622.78
1051.703, 20527.41
1052.185, 20605.12
1052.667, 20662.59
1053.149, 20700.53
1053.631, 20683.45
1054.113, 20719.75
1054.595, 20723.85
1055.077, 20719.25
1055.559, 20741.01
1056.042, 20692.23
1056.524, 20698.01
1057.006, 20671.24
1057.488, 20648.13
1057.970, 20592.69
1058.452, 20682.34
1058.934, 20625.06
1059.416, 20549.17
1059.899, 20535.68
1060.381, 20610.29
1060.863, 20660.26
1061.345, 20676.27
1061.827, 20668.07
1062.309, 20630.71
1062.791, 20583.20
1063.273, 20559.60
1063.755, 20561.63
1064.238, 20549.18
1064.720, 20483.86
1065.202, 20438.20
1065.684, 20435.83
1066.166, 20466.09
1066.648, 20521.25
1067.130, 20587.17
1067.612, 20593.58
1068.094, 20483.69
1068.577, 20392.24
1069.059, 20422.06
1069.541, 20495.00
1070.023, 20535.43
1070.505, 20537.98
1070.987, 20522.38
1071.469, 20483.47
1071.951, 20473.92
1072.434, 20566.41
1072.916, 20681.74
1073.398, 20725.17
1073.880, 20710.91
1074.362, 20693.56
1074.844, 20678.59
1075.326, 20671.15
1075.808, 20671.54
1076.291, 20680.32
1076.773, 20702.70
1077.255, 20733.73
1077.737, 20757.17
1078.219, 20769.95
1078.701, 20786.50
1079.183, 20810.53
1079.665, 20844.84
1080.147, 20900.81
1080.630, 20968.61
1081.112, 20985.25
1081.594, 20952.29
1082.076, 20915.51
1082.558, 20886.31
1083.040, 20871.04
1083.522, 20894.01
1084.004, 20926.07
1084.486, 20925.24
1084.969, 20871.66
1085.451, 20830.87
1085.933, 20804.83
1086.415, 20785.46
1086.897, 20762.15
1087.379, 20743.72
1087.861, 20754.29
1088.343, 20785.92
1088.826, 20804.26
1089.308, 20792.05
1089.790, 20769.87
1090.272, 20736.92
1090.754, 20701.85
1091.236, 20674.76
1091.718, 20656.89
1092.200, 20658.10
1092.682, 20681.36
1093.165, 20702.07
1093.647, 20693.77
1094.129, 20688.58
1094.611, 20715.99
1095.093, 20767.62
1095.575, 20774.27
1096.057, 20733.51
1096.539, 20709.66
1097.022, 20733.96
1097.504, 20770.51
1097.986, 20785.12
1098.468, 20787.84
1098.950, 20791.68
1099.432, 20797.30
1099.914, 20809.84
1100.396, 20832.62
1100.879, 20850.88
1101.361, 20853.20
1101.843, 20843.92
1102.325, 20823.40
1102.807, 20797.51
1103.289, 20787.85
1103.771, 20813.02
1104.253, 20842.69
1104.735, 20877.88
1105.218, 20907.26
1105.700, 20908.48
1106.182, 20888.59
1106.664, 20882.88
1107.146, 20895.37
1107.628, 20907.66
1108.110, 20916.81
1108.592, 20913.72
1109.074, 20882.25
1109.557, 20834.94
1110.039, 20831.77
1110.521, 20873.55
1111.003, 20887.96
1111.485, 20843.02
1111.967, 20797.24
1112.449, 20812.90
1112.931, 20854.46
1113.414, 20886.60
1113.896, 20907.30
1114.378, 20903.07
1114.860, 20868.04
1115.342, 20833.34
1115.824, 20813.57
1116.306, 20807.22
1116.788, 20822.41
1117.271, 20847.88
1117.753, 20858.59
1118.235, 20818.92
1118.717, 20809.54
1119.199, 20851.14
1119.681, 20893.65
1120.163, 20875.97
1120.645, 20821.04
1121.127, 20794.54
1121.609, 20798.18
1122.092, 20816.17
1122.574, 20856.47
1123.056, 20891.21
1123.538, 20917.09
1124.020, 20928.38
1124.502, 20901.38
1124.984, 20843.10
1125.466, 20815.82
1125.949, 20833.32
1126.431, 20862.78
1126.913, 20905.95
1127.395, 20931.28
1127.877, 20900.48
1128.359, 20824.85
1128.841, 20795.65
1129.323, 20815.13
1129.806, 20840.17
1130.288, 20853.55
1130.770, 20869.23
1131.252, 20914.83
1131.734, 20964.90
1132.216, 20981.02
1132.698, 20943.26
1133.180, 20936.04
1133.662, 20968.26
1134.145, 20993.56
1134.627, 20965.76
1135.109, 20924.01
1135.591, 20941.99
1136.073, 20995.88
1136.555, 21024.84
1137.037, 20983.01
1137.519, 20958.30
1138.001, 20958.69
1138.484, 20971.11
1138.966, 20985.78
1139.448, 21001.03
1139.930, 21013.13
1140.412, 21021.80
1140.894, 21025.74
1141.376, 21010.38
1141.858, 21010.29
1142.341, 21043.65
1142.823, 21086.62
1143.305, 21092.19
1143.787, 21068.15
1144.269, 21047.50
1144.751, 21035.11
1145.233, 21033.54
1145.715, 21065.84
1146.198, 21086.41
1146.680, 21063.47
1147.162, 21009.82
1147.644, 20981.37
1148.126, 20978.32
1148.608, 21009.13
1149.090, 21094.71
1149.572, 21166.35
1150.054, 21160.06
1150.536, 21123.43
1151.019, 21101.45
1151.501, 21096.77
1151.983, 21086.71
1152.465, 21070.65
1152.947, 21063.19
1153.429, 21081.91
1153.911, 21101.82
1154.393, 21089.06
1154.876, 21063.99
1155.358, 21065.47
1155.840, 21111.25
1156.322, 21132.01
1156.804, 21122.30
1157.286, 21110.70
1157.768, 21121.15
1158.250, 21142.31
1158.733, 21167.35
1159.215, 21191.32
1159.697, 21196.58
1160.179, 21165.90
1160.661, 21149.42
1161.143, 21153.84
1161.625, 21171.12
1162.107, 21200.92
1162.589, 21233.22
1163.072, 21246.10
1163.554, 21239.87
1164.036, 21245.98
1164.518, 21293.48
1165.000, 21316.27
1165.482, 21292.00
1165.964, 21245.85
1166.446, 21222.15
1166.928, 21212.63
1167.411, 21194.47
1167.893, 21159.52
1168.375, 21145.83
1168.857, 21175.55
1169.339, 21219.78
1169.821, 21281.06
1170.303, 21339.54
1170.785, 21323.38
1171.268, 21253.91
1171.750, 21198.64
1172.232, 21174.72
1172.714, 21179.16
1173.196, 21247.20
1173.678, 21308.01
1174.160, 21308.94
1174.642, 21263.41
1175.125, 21264.81
1175.607, 21304.85
1176.089, 21338.06
1176.571, 21345.13
1177.053, 21338.05
1177.535, 21313.84
1178.017, 21283.67
1178.499, 21250.63
1178.981, 21214.96
1179.464, 21228.51
1179.946, 21288.29
1180.428, 21339.16
1180.910, 21326.11
1181.392, 21317.02
1181.874, 21368.30
1182.356, 21436.65
1182.838, 21448.41
1183.320, 21400.84
1183.803, 21385.48
1184.285, 21410.33
1184.767, 21438.92
1185.249, 21441.00
1185.731, 21440.20
1186.213, 21458.35
1186.695, 21485.58
1187.177, 21492.27
1187.660, 21477.12
1188.142, 21456.75
1188.624, 21431.25
1189.106, 21423.18
1189.588, 21484.26
1190.070, 21544.92
1190.552, 21535.29
1191.034, 21466.05
1191.516, 21430.73
1191.999, 21432.23
1192.481, 21436.02
1192.963, 21428.26
1193.445, 21438.72
1193.927, 21531.50
1194.409, 21634.25
1194.891, 21666.18
1195.373, 21620.99
1195.855, 21582.87
1196.338, 21550.44
1196.820, 21538.24
1197.302, 21564.61
1197.784, 21587.38
1198.266, 21538.34
1198.748, 21469.84
1199.230, 21454.71
1199.712, 21511.88
1200.195, 21539.51
1200.677, 21532.81
1201.159, 21531.23
1201.641, 21566.46
1202.123, 21603.94
1202.605, 21587.72
1203.087, 21552.27
1203.569, 21560.14
1204.052, 21650.45
1204.534, 21675.83
1205.016, 21626.21
1205.498, 21573.27
1205.980, 21574.25
1206.462, 21592.03
1206.944, 21570.30
1207.426, 21534.06
1207.908, 21547.90
1208.391, 21647.78
1208.873, 21704.74
1209.355, 21709.86
1209.837, 21693.89
1210.319, 21663.47
1210.801, 21641.34
1211.283, 21667.16
1211.765, 21725.11
1212.247, 21755.30
1212.730, 21743.14
1213.212, 21739.85
1213.694, 21754.01
1214.176, 21761.10
1214.658, 21714.29
1215.140, 21663.88
1215.622, 21683.58
1216.104, 21759.68
1216.587, 21789.74
1217.069, 21753.54
1217.551, 21718.62
1218.033, 21691.56
1218.515, 21687.08
1218.997, 21747.01
1219.479, 21821.29
1219.961, 21847.82
1220.443, 21825.19
1220.926, 21818.52
1221.408, 21836.64
1221.890, 21845.35
1222.372, 21835.62
1222.854, 21817.87
1223.336, 21802.39
1223.818, 21787.29
1224.300, 21764.00
1224.782, 21732.02
1225.265, 21739.28
1225.747, 21797.72
1226.229, 21834.87
1226.711, 21820.65
1227.193, 21798.08
1227.675, 21825.01
1228.157, 21870.05
1228.639, 21896.79
1229.122, 21900.04
1229.604, 21891.74
1230.086, 21868.63
1230.568, 21856.79
1231.050, 21871.98
1231.532, 21890.65
1232.014, 21885.08
1232.496, 21867.52
1232.979, 21845.23
1233.461, 21813.45
1233.943, 21849.16
1234.425, 21962.98
1234.907, 22030.95
1235.389, 21960.15
1235.871, 21874.53
1236.353, 21909.80
1236.835, 21997.07
1237.318, 22045.99
1237.800, 22049.25
1238.282, 22044.46
1238.764, 22031.68
1239.246, 22009.59
1239.728, 21960.69
1240.210, 21923.99
1240.692, 21950.61
1241.175, 22000.50
1241.657, 22016.24
1242.139, 21988.86
1242.621, 21983.73
1243.103, 22001.02
1243.585, 22013.24
1244.067, 21991.54
1244.549, 21972.02
1245.031, 21972.99
1245.514, 21995.80
1245.996, 22046.05
1246.478, 22129.40
1246.960, 22176.08
1247.442, 22185.75
1247.924, 22172.19
1248.406, 22114.16
1248.888, 22068.66
1249.370, 22075.19
1249.853, 22109.15
1250.335, 22147.06
1250.817, 22187.48
1251.299, 22184.08
1251.781, 22138.46
1252.263, 22104.06
1252.745, 22133.99
1253.227, 22158.40
1253.710, 22134.90
1254.192, 22098.21
1254.674, 22091.08
1255.156, 22110.49
1255.638, 22138.42
1256.120, 22172.73
1256.602, 22203.45
1257.084, 22239.63
1257.567, 22248.88
1258.049, 22201.68
1258.531, 22149.22
1259.013, 22179.18
1259.495, 22264.13
1259.977, 22298.73
1260.459, 22279.34
1260.941, 22262.55
1261.423, 22287.74
1261.906, 22297.32
1262.388, 22270.08
1262.870, 22236.12
1263.352, 22241.17
1263.834, 22272.40
1264.316, 22310.40
1264.798, 22350.08
1265.280, 22359.58
1265.762, 22294.18
1266.245, 22258.02
1266.727, 22278.52
1267.209, 22313.59
1267.691, 22294.69
1268.173, 22256.27
1268.655, 22264.61
1269.137, 22321.32
1269.619, 22345.20
1270.102, 22307.29
1270.584, 22295.15
1271.066, 22331.87
1271.548, 22382.93
1272.030, 22412.92
1272.512, 22426.28
1272.994, 22417.00
1273.476, 22389.26
1273.958, 22397.80
1274.441, 22453.16
1274.923, 22501.05
1275.405, 22532.63
1275.887, 22538.23
1276.369, 22483.13
1276.851, 22416.39
1277.333, 22385.82
1277.815, 22389.11
1278.297, 22394.09
1278.780, 22400.21
1279.262, 22424.57
1279.744, 22476.22
1280.226, 22512.90
1280.708, 22475.07
1281.190, 22433.10
1281.672, 22443.96
1282.154, 22491.48
1282.637, 22518.79
1283.119, 22527.46
1283.601, 22528.69
1284.083, 22522.82
1284.565, 22526.23
1285.047, 22568.08
1285.529, 22599.20
1286.011, 22592.08
1286.494, 22561.12
1286.976, 22546.70
1287.458, 22543.67
1287.940, 22529.92
1288.422, 22496.96
1288.904, 22487.81
1289.386, 22543.85
1289.868, 22593.73
1290.350, 22617.45
1290.833, 22617.15
1291.315, 22581.86
1291.797, 22530.29
1292.279, 22500.63
1292.761, 22502.18
1293.243, 22503.06
1293.725, 22491.19
1294.207, 22501.38
1294.689, 22554.42
1295.172, 22612.71
1295.654, 22605.05
1296.136, 22577.96
1296.618, 22603.01
1297.100, 22696.81
1297.582, 22737.38
1298.064, 22717.23
1298.546, 22692.20
1299.029, 22677.34
1299.511, 22671.06
1299.993, 22673.73
1300.475, 22682.80
1300.957, 22703.17
1301.439, 22729.85
1301.921, 22723.62
1302.403, 22686.01
1302.885, 22663.49
1303.368, 22670.22
1303.850, 22687.82
1304.332, 22714.33
1304.814, 22735.93
1305.296, 22742.68
1305.778, 22739.58
1306.260, 22746.30
1306.742, 22759.39
1307.224, 22763.68
1307.707, 22753.14
1308.189, 22746.85
1308.671, 22763.93
1309.153, 22768.86
##END=



