##NAMES=Axinite-(Mn)
##RRUFFID=R061121
##IDEAL CHEMISTRY=Ca_4_Mn^2+^_2_Al_4_[B_2_Si_8_O_30_](OH)_2_
##LOCALITY=Franklin, Sussex County, New Jersey, USA
##OWNER=RRUFF
##SOURCE=Michael Scott
##DESCRIPTION=Honey-yellow massive associated with pink rhodonite
##STATUS=The identification of this mineral has been confirmed by X-ray diffraction and chemical analysis
##URL=rruff.info/R061121
##MEASURED CHEMISTRY=(Ca_1.93_Mn_0.07_)_Σ=2_(Mn^2+^_0.87_Zn_0.08_Fe^2+^_0.05_)_Σ=1_(Al_1.95_Fe^3+^_0.05_)_Σ=2_BSi_4.00_O_15_(OH); OH and B assumed by stoichiometry
122.0469, 1894.046
122.5290, 2030.110
123.0111, 2167.224
123.4933, 2314.665
123.9754, 2472.027
124.4575, 2642.998
124.9396, 2795.479
125.4217, 2939.507
125.9038, 3104.457
126.3860, 3302.727
126.8681, 3532.171
127.3502, 3750.192
127.8323, 3953.906
128.3144, 4127.042
128.7965, 4210.938
129.2787, 4157.620
129.7608, 4005.830
130.2429, 3836.899
130.7250, 3645.799
131.2071, 3457.471
131.6892, 3297.146
132.1714, 3163.296
132.6535, 3060.758
133.1356, 2994.739
133.6177, 2962.461
134.0998, 2945.026
134.5819, 2943.003
135.0640, 2951.671
135.5462, 2961.920
136.0283, 2973.201
136.5104, 2989.148
136.9925, 3011.104
137.4746, 3038.867
137.9567, 3077.268
138.4389, 3131.709
138.9210, 3197.241
139.4031, 3248.407
139.8852, 3283.610
140.3673, 3311.113
140.8494, 3334.993
141.3316, 3349.469
141.8137, 3377.494
142.2958, 3424.081
142.7779, 3488.814
143.2600, 3564.755
143.7421, 3659.890
144.2243, 3758.706
144.7064, 3842.382
145.1885, 3913.521
145.6706, 3967.792
146.1527, 4001.292
146.6348, 4006.352
147.1170, 4016.265
147.5991, 4036.335
148.0812, 4059.695
148.5633, 4073.398
149.0454, 4080.379
149.5275, 4074.651
150.0097, 4055.342
150.4918, 4038.261
150.9739, 3984.333
151.4560, 3862.503
151.9381, 3698.593
152.4202, 3571.153
152.9024, 3497.760
153.3845, 3453.837
153.8666, 3426.725
154.3487, 3417.473
154.8308, 3423.080
155.3129, 3450.939
155.7950, 3497.976
156.2772, 3538.545
156.7593, 3576.280
157.2414, 3601.548
157.7235, 3607.164
158.2056, 3582.761
158.6877, 3547.303
159.1699, 3495.897
159.6520, 3427.557
160.1341, 3382.507
160.6162, 3378.453
161.0983, 3403.084
161.5804, 3442.884
162.0626, 3498.836
162.5447, 3564.008
163.0268, 3632.469
163.5089, 3701.541
163.9910, 3786.507
164.4731, 3897.452
164.9553, 4028.745
165.4374, 4171.042
165.9195, 4332.842
166.4016, 4496.248
166.8837, 4651.833
167.3658, 4800.130
167.8480, 4934.739
168.3301, 5059.353
168.8122, 5168.399
169.2943, 5246.954
169.7764, 5260.978
170.2585, 5250.438
170.7407, 5262.790
171.2228, 5327.827
171.7049, 5385.727
172.1870, 5393.544
172.6691, 5352.082
173.1512, 5266.032
173.6334, 5105.409
174.1155, 4907.594
174.5976, 4730.285
175.0797, 4584.355
175.5618, 4470.692
176.0439, 4399.775
176.5260, 4369.694
177.0082, 4354.338
177.4903, 4348.669
177.9724, 4342.148
178.4545, 4310.720
178.9366, 4236.489
179.4187, 4136.295
179.9009, 4031.981
180.3830, 3921.788
180.8651, 3822.313
181.3472, 3752.853
181.8293, 3707.868
182.3114, 3667.978
182.7936, 3612.919
183.2757, 3557.646
183.7578, 3539.565
184.2399, 3562.217
184.7220, 3606.193
185.2041, 3650.793
185.6863, 3696.620
186.1684, 3745.063
186.6505, 3791.066
187.1326, 3838.960
187.6147, 3909.448
188.0968, 4006.216
188.5790, 4120.018
189.0611, 4239.162
189.5432, 4363.313
190.0253, 4496.625
190.5074, 4684.428
190.9895, 4905.209
191.4717, 5002.498
191.9538, 4944.892
192.4359, 4786.805
192.9180, 4621.792
193.4001, 4446.189
193.8822, 4289.387
194.3644, 4167.348
194.8465, 4079.890
195.3286, 4026.353
195.8107, 4008.129
196.2928, 4022.346
196.7749, 4063.119
197.2570, 4131.007
197.7392, 4219.992
198.2213, 4328.038
198.7034, 4456.421
199.1855, 4589.975
199.6676, 4724.419
200.1497, 4863.119
200.6319, 5021.804
201.1140, 5201.552
201.5961, 5395.838
202.0782, 5604.541
202.5603, 5833.107
203.0424, 6044.296
203.5246, 6237.643
204.0067, 6409.697
204.4888, 6514.056
204.9709, 6539.238
205.4530, 6522.635
205.9352, 6497.861
206.4173, 6462.994
206.8994, 6427.948
207.3815, 6396.012
207.8636, 6366.769
208.3457, 6339.960
208.8279, 6323.532
209.3100, 6296.827
209.7921, 6235.550
210.2742, 6138.113
210.7563, 6008.247
211.2384, 5842.875
211.7206, 5637.637
212.2027, 5436.113
212.6848, 5235.370
213.1669, 5040.703
213.6490, 4860.784
214.1311, 4691.731
214.6133, 4544.760
215.0954, 4430.439
215.5775, 4360.235
216.0596, 4263.961
216.5417, 4127.826
217.0238, 3977.330
217.5059, 3853.462
217.9881, 3764.489
218.4702, 3684.845
218.9523, 3605.282
219.4344, 3526.185
219.9165, 3446.833
220.3986, 3361.531
220.8808, 3279.003
221.3629, 3215.788
221.8450, 3176.625
222.3271, 3148.288
222.8092, 3126.265
223.2913, 3113.001
223.7735, 3099.906
224.2556, 3086.872
224.7377, 3073.980
225.2198, 3061.492
225.7019, 3047.867
226.1840, 3036.798
226.6662, 3030.195
227.1483, 3030.300
227.6304, 3029.099
228.1125, 3023.496
228.5946, 3017.054
229.0767, 3020.737
229.5589, 3038.765
230.0410, 3060.664
230.5231, 3081.542
231.0052, 3099.522
231.4873, 3120.195
231.9694, 3143.419
232.4516, 3169.720
232.9337, 3202.485
233.4158, 3248.153
233.8979, 3291.523
234.3800, 3322.126
234.8621, 3327.851
235.3443, 3347.411
235.8264, 3389.202
236.3085, 3446.914
236.7906, 3491.617
237.2727, 3510.789
237.7548, 3533.158
238.2369, 3577.453
238.7191, 3659.305
239.2012, 3730.873
239.6833, 3782.556
240.1654, 3819.698
240.6475, 3871.528
241.1296, 3952.277
241.6118, 4029.363
242.0939, 4082.255
242.5760, 4101.829
243.0581, 4115.099
243.5402, 4123.577
244.0223, 4127.264
244.5045, 4126.450
244.9866, 4120.171
245.4687, 4110.825
245.9508, 4099.403
246.4329, 4083.497
246.9150, 4070.643
247.3972, 4058.783
247.8793, 4049.889
248.3614, 4055.955
248.8435, 4077.676
249.3256, 4113.835
249.8077, 4165.366
250.2899, 4241.842
250.7720, 4313.568
251.2541, 4377.756
251.7362, 4434.170
252.2183, 4487.713
252.7004, 4545.546
253.1826, 4589.738
253.6647, 4607.357
254.1468, 4594.973
254.6289, 4561.807
255.1110, 4501.291
255.5931, 4417.277
256.0753, 4345.619
256.5574, 4285.464
257.0395, 4237.090
257.5216, 4200.764
258.0037, 4174.980
258.4858, 4165.406
258.9680, 4177.306
259.4501, 4207.731
259.9322, 4231.717
260.4143, 4241.840
260.8964, 4257.665
261.3785, 4296.653
261.8607, 4370.412
262.3428, 4435.242
262.8249, 4486.079
263.3070, 4523.552
263.7891, 4554.703
264.2712, 4579.805
264.7534, 4596.991
265.2355, 4602.783
265.7176, 4593.580
266.1997, 4584.596
266.6818, 4575.602
267.1639, 4568.125
267.6461, 4572.030
268.1282, 4590.644
268.6103, 4613.282
269.0924, 4632.223
269.5745, 4646.119
270.0566, 4660.690
270.5387, 4674.538
271.0208, 4689.839
271.5030, 4718.274
271.9851, 4762.468
272.4672, 4812.719
272.9493, 4870.078
273.4314, 4940.648
273.9135, 4977.163
274.3957, 4967.710
274.8778, 4920.970
275.3599, 4868.304
275.8420, 4809.850
276.3241, 4745.022
276.8062, 4669.009
277.2884, 4579.830
277.7705, 4502.111
278.2526, 4439.207
278.7347, 4389.879
279.2168, 4351.800
279.6989, 4325.560
280.1811, 4306.130
280.6632, 4289.033
281.1453, 4274.227
281.6274, 4267.781
282.1095, 4271.709
282.5916, 4283.252
283.0738, 4295.464
283.5559, 4308.083
284.0380, 4323.654
284.5201, 4345.824
285.0022, 4373.946
285.4843, 4397.141
285.9665, 4412.078
286.4486, 4424.056
286.9307, 4447.730
287.4128, 4483.258
287.8949, 4513.766
288.3770, 4521.634
288.8592, 4511.940
289.3413, 4514.336
289.8234, 4532.765
290.3055, 4562.999
290.7876, 4595.731
291.2697, 4631.597
291.7519, 4678.968
292.2340, 4743.798
292.7161, 4824.492
293.1982, 4917.956
293.6803, 5026.990
294.1624, 5141.972
294.6446, 5243.321
295.1267, 5334.557
295.6088, 5434.756
296.0909, 5563.163
296.5730, 5706.944
297.0551, 5846.997
297.5373, 5983.365
298.0194, 6103.721
298.5015, 6188.245
298.9836, 6241.605
299.4657, 6284.564
299.9478, 6317.809
300.4300, 6349.449
300.9121, 6393.084
301.3942, 6450.134
301.8763, 6513.357
302.3584, 6584.104
302.8405, 6656.112
303.3227, 6711.632
303.8048, 6752.913
304.2869, 6768.634
304.7690, 6748.210
305.2511, 6691.130
305.7332, 6596.131
306.2154, 6445.821
306.6975, 6258.218
307.1796, 6062.059
307.6617, 5852.341
308.1438, 5653.658
308.6259, 5479.442
309.1081, 5331.111
309.5901, 5210.836
310.0723, 5127.499
310.5544, 5070.257
311.0365, 5024.062
311.5186, 4979.203
312.0007, 4946.052
312.4828, 4933.642
312.9650, 4941.204
313.4471, 4957.383
313.9292, 4976.887
314.4113, 5001.698
314.8934, 5033.794
315.3755, 5068.673
315.8577, 5115.657
316.3398, 5181.784
316.8219, 5265.195
317.3040, 5351.657
317.7861, 5448.554
318.2682, 5539.280
318.7504, 5611.161
319.2325, 5656.735
319.7146, 5689.352
320.1967, 5717.635
320.6788, 5737.773
321.1609, 5732.684
321.6431, 5684.762
322.1252, 5619.703
322.6073, 5551.524
323.0894, 5481.907
323.5715, 5409.885
324.0536, 5327.726
324.5358, 5242.353
325.0179, 5171.850
325.5000, 5120.253
325.9821, 5082.270
326.4642, 5055.340
326.9464, 5039.115
327.4285, 5034.327
327.9106, 5044.912
328.3927, 5066.461
328.8748, 5090.396
329.3569, 5108.571
329.8391, 5137.678
330.3212, 5184.291
330.8033, 5254.256
331.2854, 5324.505
331.7675, 5389.850
332.2496, 5458.006
332.7318, 5538.914
333.2139, 5635.352
333.6960, 5741.306
334.1781, 5858.396
334.6602, 5989.092
335.1423, 6112.827
335.6245, 6225.890
336.1066, 6338.303
336.5887, 6464.167
337.0708, 6617.449
337.5529, 6745.009
338.0350, 6833.688
338.5172, 6885.044
338.9993, 6908.530
339.4814, 6903.000
339.9635, 6873.160
340.4456, 6817.266
340.9277, 6731.889
341.4099, 6650.629
341.8920, 6579.870
342.3741, 6517.413
342.8562, 6452.291
343.3383, 6384.103
343.8204, 6318.462
344.3026, 6257.759
344.7847, 6202.982
345.2668, 6152.225
345.7489, 6102.507
346.2310, 6061.302
346.7131, 6047.600
347.1953, 6060.198
347.6774, 6081.159
348.1595, 6102.587
348.6416, 6123.258
349.1237, 6145.579
349.6058, 6174.667
350.0880, 6188.586
350.5700, 6162.205
351.0522, 6097.847
351.5343, 6004.539
352.0164, 5872.819
352.4985, 5720.348
352.9806, 5571.821
353.4627, 5429.162
353.9449, 5287.404
354.4270, 5132.232
354.9091, 4976.343
355.3912, 4840.419
355.8733, 4738.976
356.3554, 4659.303
356.8376, 4593.477
357.3197, 4540.993
357.8018, 4493.694
358.2839, 4444.163
358.7660, 4398.009
359.2481, 4361.394
359.7303, 4341.143
360.2124, 4326.385
360.6945, 4310.635
361.1766, 4295.104
361.6587, 4286.425
362.1408, 4293.943
362.6230, 4305.075
363.1051, 4311.108
363.5872, 4304.517
364.0693, 4300.863
364.5514, 4307.265
365.0335, 4319.631
365.5157, 4327.015
365.9978, 4318.410
366.4799, 4311.875
366.9620, 4315.040
367.4441, 4331.627
367.9262, 4351.238
368.4084, 4376.935
368.8905, 4404.516
369.3726, 4427.308
369.8547, 4440.990
370.3368, 4454.859
370.8189, 4470.089
371.3011, 4485.886
371.7832, 4510.052
372.2653, 4551.611
372.7474, 4593.487
373.2295, 4615.650
373.7116, 4606.833
374.1938, 4605.492
374.6759, 4619.292
375.1580, 4647.228
375.6401, 4682.475
376.1222, 4727.593
376.6043, 4774.651
377.0865, 4816.606
377.5686, 4851.757
378.0507, 4894.958
378.5328, 4945.715
379.0149, 5007.434
379.4970, 5095.179
379.9792, 5210.306
380.4613, 5323.925
380.9434, 5405.276
381.4255, 5464.277
381.9076, 5553.668
382.3897, 5681.661
382.8719, 5825.286
383.3540, 5956.455
383.8361, 6076.021
384.3182, 6182.634
384.8003, 6273.409
385.2824, 6351.583
385.7646, 6424.140
386.2467, 6492.115
386.7288, 6547.680
387.2109, 6592.596
387.6930, 6619.875
388.1751, 6615.058
388.6573, 6555.462
389.1394, 6476.985
389.6215, 6408.547
390.1036, 6348.701
390.5857, 6288.050
391.0678, 6221.815
391.5499, 6151.400
392.0320, 6076.685
392.5142, 5993.501
392.9963, 5914.654
393.4784, 5845.507
393.9605, 5784.434
394.4426, 5726.535
394.9247, 5662.967
395.4069, 5607.956
395.8890, 5570.008
396.3711, 5556.220
396.8532, 5542.293
397.3353, 5522.887
397.8174, 5502.030
398.2996, 5484.695
398.7817, 5483.837
399.2638, 5473.445
399.7459, 5438.986
400.2280, 5376.129
400.7101, 5347.588
401.1923, 5364.760
401.6744, 5405.222
402.1565, 5453.710
402.6386, 5514.970
403.1207, 5572.677
403.6028, 5620.417
404.0850, 5663.939
404.5671, 5725.315
405.0492, 5806.744
405.5313, 5900.579
406.0134, 6002.926
406.4955, 6112.682
406.9777, 6234.790
407.4598, 6371.392
407.9419, 6517.114
408.4240, 6657.853
408.9061, 6793.247
409.3882, 6942.601
409.8704, 7116.556
410.3525, 7311.563
410.8346, 7514.911
411.3167, 7728.151
411.7988, 7941.637
412.2809, 8150.897
412.7631, 8350.512
413.2452, 8521.895
413.7273, 8652.943
414.2094, 8757.979
414.6915, 8859.427
415.1736, 8951.939
415.6558, 9012.548
416.1379, 9011.590
416.6200, 8977.320
417.1021, 8934.271
417.5842, 8880.574
418.0663, 8835.299
418.5485, 8828.063
419.0306, 8835.602
419.5127, 8815.606
419.9948, 8740.907
420.4769, 8643.688
420.9590, 8532.069
421.4412, 8403.069
421.9233, 8283.852
422.4054, 8180.084
422.8875, 8087.904
423.3696, 8002.187
423.8517, 7937.673
424.3339, 7863.219
424.8160, 7772.787
425.2981, 7667.904
425.7802, 7557.733
426.2623, 7451.828
426.7444, 7328.669
427.2266, 7172.324
427.7087, 6952.229
428.1908, 6772.008
428.6729, 6643.119
429.1550, 6544.565
429.6371, 6434.233
430.1193, 6307.069
430.6014, 6190.809
431.0835, 6097.548
431.5656, 6025.708
432.0477, 5955.805
432.5298, 5887.695
433.0119, 5822.306
433.4940, 5754.622
433.9762, 5687.458
434.4583, 5642.525
434.9404, 5630.503
435.4225, 5636.507
435.9046, 5635.739
436.3867, 5629.141
436.8689, 5623.692
437.3510, 5614.078
437.8331, 5611.564
438.3152, 5639.595
438.7973, 5708.152
439.2794, 5774.527
439.7616, 5801.449
440.2437, 5802.208
440.7258, 5800.780
441.2079, 5808.661
441.6900, 5815.876
442.1721, 5818.874
442.6543, 5817.251
443.1364, 5806.042
443.6185, 5782.861
444.1006, 5749.580
444.5827, 5707.768
445.0648, 5651.167
445.5470, 5593.854
446.0291, 5535.899
446.5112, 5478.320
446.9933, 5425.057
447.4754, 5370.291
447.9576, 5325.797
448.4397, 5295.813
448.9218, 5282.887
449.4039, 5275.213
449.8860, 5271.472
450.3681, 5274.520
450.8503, 5290.391
451.3324, 5324.594
451.8145, 5352.378
452.2966, 5367.733
452.7787, 5372.564
453.2608, 5373.102
453.7430, 5368.196
454.2251, 5365.727
454.7072, 5377.171
455.1893, 5398.625
455.6714, 5402.260
456.1535, 5381.797
456.6357, 5352.812
457.1178, 5334.492
457.5999, 5325.287
458.0820, 5318.723
458.5641, 5310.759
459.0462, 5304.389
459.5284, 5303.771
460.0105, 5308.949
460.4926, 5317.586
460.9747, 5328.771
461.4568, 5342.382
461.9389, 5358.135
462.4211, 5375.917
462.9032, 5395.910
463.3853, 5417.363
463.8674, 5440.863
464.3495, 5468.017
464.8316, 5498.690
465.3138, 5533.333
465.7959, 5572.868
466.2780, 5618.038
466.7601, 5664.708
467.2422, 5714.885
467.7243, 5765.445
468.2065, 5811.949
468.6886, 5851.068
469.1707, 5892.548
469.6528, 5940.776
470.1349, 5993.221
470.6170, 6032.866
471.0992, 6050.437
471.5813, 6078.502
472.0634, 6139.844
472.5455, 6236.417
473.0276, 6329.827
473.5097, 6417.799
473.9918, 6503.743
474.4739, 6586.720
474.9561, 6668.093
475.4382, 6761.833
475.9203, 6875.451
476.4024, 7002.452
476.8845, 7128.564
477.3666, 7254.321
477.8488, 7387.656
478.3309, 7553.494
478.8130, 7724.766
479.2951, 7862.695
479.7772, 7957.632
480.2593, 8022.646
480.7415, 8064.132
481.2236, 8081.668
481.7057, 8074.479
482.1878, 8030.895
482.6699, 7972.356
483.1520, 7931.084
483.6342, 7912.285
484.1163, 7803.646
484.5984, 7498.682
485.0805, 7147.568
485.5626, 6862.195
486.0447, 6673.375
486.5269, 6505.532
487.0090, 6354.583
487.4911, 6223.541
487.9732, 6120.032
488.4553, 6049.501
488.9374, 5992.601
489.4196, 5940.116
489.9017, 5891.540
490.3838, 5868.661
490.8659, 5876.555
491.3480, 5893.004
491.8301, 5893.205
492.3123, 5879.105
492.7944, 5872.226
493.2765, 5877.838
493.7586, 5891.258
494.2407, 5907.839
494.7228, 5926.553
495.2050, 5942.260
495.6871, 5936.338
496.1692, 5933.284
496.6513, 5972.329
497.1334, 6059.099
497.6155, 6141.222
498.0977, 6179.828
498.5798, 6196.981
499.0619, 6218.634
499.5440, 6260.284
500.0261, 6299.175
500.5082, 6327.226
500.9904, 6346.343
501.4725, 6363.949
501.9546, 6386.826
502.4367, 6403.594
502.9188, 6409.099
503.4009, 6401.305
503.8831, 6389.460
504.3652, 6372.208
504.8473, 6352.081
505.3294, 6331.318
505.8115, 6310.056
506.2936, 6288.600
506.7758, 6268.049
507.2579, 6247.062
507.7400, 6221.396
508.2221, 6191.179
508.7042, 6156.490
509.1863, 6111.117
509.6685, 6060.211
510.1506, 6030.208
510.6327, 6024.777
511.1148, 6018.726
511.5969, 5984.000
512.0790, 5929.221
512.5612, 5872.465
513.0433, 5816.010
513.5254, 5763.857
514.0075, 5722.044
514.4896, 5687.811
514.9717, 5652.707
515.4539, 5603.458
515.9360, 5558.693
516.4181, 5531.076
516.9002, 5524.930
517.3823, 5521.828
517.8644, 5518.256
518.3466, 5515.729
518.8287, 5515.870
519.3108, 5520.984
519.7929, 5525.686
520.2750, 5528.937
520.7571, 5531.364
521.2393, 5534.857
521.7214, 5538.239
522.2035, 5545.063
522.6856, 5558.833
523.1677, 5579.647
523.6498, 5592.282
524.1320, 5594.505
524.6141, 5596.708
525.0962, 5612.072
525.5783, 5638.106
526.0604, 5662.918
526.5425, 5685.418
527.0247, 5702.658
527.5068, 5705.771
527.9889, 5699.456
528.4710, 5700.292
528.9531, 5725.163
529.4352, 5756.523
529.9174, 5778.183
530.3995, 5788.728
530.8816, 5801.704
531.3637, 5824.297
531.8458, 5852.115
532.3279, 5881.771
532.8101, 5923.808
533.2922, 5953.869
533.7743, 5959.214
534.2564, 5950.200
534.7385, 5952.202
535.2206, 5973.459
535.7027, 5993.140
536.1848, 6003.026
536.6669, 6002.822
537.1490, 6012.072
537.6312, 6032.317
538.1133, 6058.335
538.5954, 6088.123
539.0775, 6121.451
539.5596, 6150.408
540.0417, 6174.063
540.5239, 6192.947
541.0060, 6202.679
541.4881, 6206.528
541.9702, 6217.688
542.4523, 6252.757
542.9344, 6292.108
543.4166, 6307.465
543.8987, 6302.250
544.3808, 6304.751
544.8629, 6345.054
545.3450, 6391.749
545.8271, 6416.107
546.3093, 6399.857
546.7914, 6394.519
547.2735, 6423.756
547.7556, 6468.531
548.2377, 6502.746
548.7198, 6512.810
549.2020, 6526.317
549.6841, 6549.194
550.1662, 6579.591
550.6483, 6602.899
551.1304, 6612.527
551.6125, 6630.938
552.0947, 6676.791
552.5768, 6751.960
553.0589, 6802.405
553.5410, 6822.595
554.0231, 6839.459
554.5052, 6890.724
554.9874, 6966.988
555.4695, 7031.203
555.9516, 7071.306
556.4337, 7099.328
556.9158, 7127.562
557.3979, 7155.458
557.8801, 7181.059
558.3622, 7205.635
558.8443, 7225.452
559.3264, 7236.227
559.8085, 7237.318
560.2906, 7237.738
560.7728, 7238.827
561.2549, 7241.237
561.7370, 7245.411
562.2191, 7250.756
562.7012, 7258.416
563.1833, 7265.350
563.6655, 7275.789
564.1476, 7297.388
564.6297, 7331.710
565.1118, 7374.301
565.5939, 7429.800
566.0760, 7493.431
566.5582, 7530.218
567.0403, 7538.109
567.5224, 7545.434
568.0045, 7580.299
568.4866, 7630.841
568.9688, 7657.815
569.4509, 7655.363
569.9330, 7647.375
570.4151, 7661.530
570.8972, 7684.857
571.3793, 7695.844
571.8615, 7678.545
572.3436, 7657.177
572.8257, 7638.104
573.3078, 7624.915
573.7899, 7627.754
574.2720, 7667.596
574.7542, 7707.789
575.2363, 7732.048
575.7184, 7736.996
576.2005, 7746.924
576.6826, 7763.534
577.1647, 7782.958
577.6469, 7801.526
578.1290, 7816.556
578.6111, 7842.019
579.0932, 7881.868
579.5753, 7927.976
580.0574, 7968.153
580.5396, 8002.348
581.0217, 8031.737
581.5038, 8048.952
581.9859, 8067.068
582.4680, 8119.333
582.9501, 8198.697
583.4323, 8267.223
583.9144, 8297.939
584.3965, 8307.239
584.8786, 8311.841
585.3607, 8315.247
585.8428, 8301.993
586.3250, 8257.514
586.8071, 8197.680
587.2892, 8137.095
587.7713, 8085.460
588.2534, 8023.747
588.7355, 7945.810
589.2177, 7858.163
589.6998, 7774.186
590.1819, 7688.115
590.6640, 7618.338
591.1461, 7573.869
591.6282, 7551.040
592.1104, 7525.778
592.5925, 7497.614
593.0746, 7469.469
593.5567, 7442.667
594.0388, 7417.650
594.5209, 7393.305
595.0031, 7368.489
595.4852, 7351.606
595.9673, 7354.445
596.4494, 7369.155
596.9315, 7383.965
597.4136, 7396.737
597.8958, 7406.812
598.3779, 7409.633
598.8600, 7409.731
599.3421, 7418.230
599.8242, 7442.612
600.3063, 7471.101
600.7885, 7503.077
601.2706, 7538.230
601.7527, 7563.987
602.2348, 7574.203
602.7169, 7585.214
603.1990, 7610.783
603.6812, 7653.285
604.1633, 7683.165
604.6454, 7697.450
605.1275, 7704.786
605.6096, 7716.333
606.0917, 7730.597
606.5739, 7740.150
607.0560, 7737.190
607.5381, 7736.788
608.0202, 7762.035
608.5023, 7804.551
608.9844, 7840.410
609.4666, 7861.146
609.9487, 7869.114
610.4308, 7857.553
610.9129, 7826.675
611.3950, 7810.311
611.8771, 7825.058
612.3593, 7849.274
612.8414, 7872.703
613.3235, 7900.766
613.8056, 7912.252
614.2877, 7900.245
614.7698, 7881.046
615.2520, 7873.625
615.7341, 7878.579
616.2162, 7893.506
616.6983, 7925.091
617.1804, 7956.037
617.6625, 7950.472
618.1446, 7913.435
618.6267, 7869.621
619.1088, 7824.083
619.5909, 7782.486
620.0731, 7757.122
620.5552, 7745.622
621.0373, 7722.092
621.5194, 7664.897
622.0015, 7596.952
622.4836, 7531.905
622.9658, 7468.738
623.4479, 7415.985
623.9300, 7378.755
624.4121, 7348.994
624.8942, 7320.132
625.3763, 7291.886
625.8585, 7264.675
626.3406, 7238.747
626.8227, 7213.833
627.3048, 7187.372
627.7869, 7159.563
628.2690, 7139.747
628.7512, 7135.844
629.2333, 7140.574
629.7154, 7144.956
630.1975, 7147.707
630.6796, 7138.167
631.1617, 7094.563
631.6439, 7045.452
632.1260, 7019.050
632.6081, 7021.338
633.0902, 7022.479
633.5723, 7009.752
634.0544, 6992.434
634.5366, 6977.689
635.0187, 6957.455
635.5008, 6952.937
635.9829, 6972.577
636.4650, 7001.964
636.9471, 7017.150
637.4293, 7013.292
637.9114, 7016.707
638.3935, 7037.426
638.8756, 7066.083
639.3577, 7072.926
639.8398, 7060.375
640.3220, 7056.162
640.8041, 7084.869
641.2862, 7126.649
641.7683, 7155.553
642.2504, 7170.889
642.7325, 7183.708
643.2147, 7204.898
643.6968, 7223.096
644.1789, 7226.762
644.6610, 7205.517
645.1431, 7194.120
645.6252, 7208.071
646.1074, 7228.437
646.5895, 7237.631
647.0716, 7230.796
647.5537, 7224.650
648.0358, 7221.277
648.5179, 7219.559
649.0001, 7217.286
649.4822, 7214.547
649.9643, 7211.699
650.4464, 7207.917
650.9285, 7205.050
651.4106, 7204.858
651.8928, 7208.069
652.3749, 7217.942
652.8570, 7239.387
653.3391, 7266.560
653.8212, 7297.811
654.3033, 7333.331
654.7855, 7361.599
655.2676, 7373.218
655.7497, 7379.931
656.2318, 7389.398
656.7139, 7400.358
657.1960, 7417.550
657.6782, 7443.145
658.1603, 7472.442
658.6424, 7498.815
659.1245, 7521.636
659.6066, 7549.766
660.0887, 7586.828
660.5709, 7625.700
661.0530, 7645.527
661.5351, 7653.920
662.0172, 7682.193
662.4993, 7767.151
662.9814, 7862.675
663.4636, 7922.634
663.9457, 7953.681
664.4278, 7986.612
664.9099, 8036.226
665.3920, 8088.772
665.8741, 8136.794
666.3563, 8177.797
666.8384, 8223.878
667.3205, 8276.538
667.8026, 8331.624
668.2847, 8383.608
668.7668, 8429.693
669.2490, 8495.774
669.7311, 8587.139
670.2132, 8686.679
670.6953, 8773.527
671.1774, 8852.253
671.6595, 8938.226
672.1417, 9039.155
672.6238, 9142.175
673.1059, 9236.151
673.5880, 9324.477
674.0701, 9412.149
674.5522, 9504.779
675.0344, 9594.313
675.5165, 9690.221
675.9986, 9784.139
676.4807, 9838.965
676.9628, 9838.297
677.4449, 9820.166
677.9271, 9797.721
678.4092, 9770.458
678.8913, 9716.435
679.3734, 9630.726
679.8555, 9543.955
680.3376, 9486.876
680.8198, 9447.014
681.3019, 9375.278
681.7840, 9267.110
682.2661, 9155.338
682.7482, 9069.506
683.2303, 8998.127
683.7125, 8928.709
684.1946, 8853.188
684.6767, 8788.744
685.1588, 8750.312
685.6409, 8723.199
686.1230, 8686.641
686.6052, 8620.480
687.0873, 8576.271
687.5694, 8564.717
688.0515, 8575.799
688.5336, 8583.645
689.0157, 8586.668
689.4979, 8603.321
689.9800, 8648.701
690.4621, 8707.317
690.9442, 8741.582
691.4263, 8754.892
691.9084, 8763.965
692.3906, 8772.376
692.8727, 8785.885
693.3548, 8808.593
693.8369, 8841.094
694.3190, 8883.547
694.8011, 8940.558
695.2833, 9004.189
695.7654, 9069.518
696.2475, 9134.509
696.7296, 9206.497
697.2117, 9284.806
697.6938, 9370.643
698.1760, 9462.555
698.6581, 9559.662
699.1402, 9673.675
699.6223, 9806.970
700.1044, 9953.634
700.5865, 10118.49
701.0686, 10290.42
701.5507, 10440.95
702.0328, 10535.70
702.5150, 10643.40
702.9971, 10819.63
703.4792, 11038.57
703.9613, 11248.87
704.4434, 11398.53
704.9255, 11583.89
705.4077, 11843.66
705.8898, 12156.60
706.3719, 12442.16
706.8540, 12683.19
707.3361, 12940.92
707.8182, 13244.44
708.3004, 13584.97
708.7825, 13926.51
709.2646, 14267.37
709.7467, 14602.84
710.2288, 14937.23
710.7109, 15264.48
711.1931, 15587.32
711.6752, 15908.04
712.1573, 16166.01
712.6394, 16357.57
713.1215, 16454.02
713.6036, 16423.03
714.0858, 16202.73
714.5679, 15983.05
715.0500, 15792.43
715.5321, 15577.83
716.0142, 15283.67
716.4963, 14907.18
716.9785, 14490.13
717.4606, 14029.16
717.9427, 13558.78
718.4248, 13115.40
718.9069, 12700.01
719.3890, 12331.02
719.8712, 12018.21
720.3533, 11739.96
720.8354, 11476.71
721.3175, 11233.56
721.7996, 11013.97
722.2817, 10823.99
722.7639, 10650.09
723.2460, 10483.18
723.7281, 10327.60
724.2102, 10201.91
724.6923, 10114.79
725.1744, 10031.57
725.6566, 9938.378
726.1387, 9838.158
726.6208, 9738.758
727.1029, 9641.362
727.5850, 9574.180
728.0671, 9579.823
728.5493, 9613.530
729.0314, 9613.419
729.5135, 9577.934
729.9956, 9546.106
730.4777, 9548.805
730.9598, 9552.262
731.4420, 9530.821
731.9241, 9467.815
732.4062, 9426.358
732.8883, 9415.541
733.3704, 9414.674
733.8525, 9407.812
734.3347, 9394.191
734.8168, 9383.636
735.2989, 9376.683
735.7810, 9373.274
736.2631, 9379.251
736.7452, 9388.235
737.2274, 9383.147
737.7095, 9353.006
738.1916, 9327.521
738.6737, 9331.702
739.1558, 9351.271
739.6379, 9366.475
740.1201, 9369.759
740.6022, 9372.201
741.0843, 9373.611
741.5664, 9375.646
742.0485, 9382.274
742.5306, 9394.811
743.0128, 9405.530
743.4949, 9410.805
743.9770, 9414.792
744.4591, 9429.182
744.9412, 9451.512
745.4233, 9470.274
745.9055, 9472.945
746.3876, 9474.716
746.8697, 9489.383
747.3518, 9514.519
747.8339, 9540.500
748.3160, 9568.684
748.7982, 9591.993
749.2803, 9604.774
749.7624, 9608.026
750.2445, 9616.459
750.7266, 9628.577
751.2087, 9649.454
751.6909, 9684.406
752.1730, 9730.976
752.6551, 9776.107
753.1372, 9819.948
753.6193, 9861.026
754.1014, 9899.547
754.5836, 9933.760
755.0657, 9958.501
755.5478, 9972.813
756.0299, 9990.930
756.5120, 10022.27
756.9941, 10057.12
757.4763, 10086.87
757.9584, 10105.27
758.4405, 10140.30
758.9226, 10200.95
759.4047, 10263.54
759.8868, 10299.48
760.3690, 10312.32
760.8511, 10341.26
761.3332, 10392.05
761.8153, 10449.23
762.2974, 10500.33
762.7795, 10545.02
763.2617, 10583.99
763.7438, 10618.43
764.2259, 10643.28
764.7080, 10643.72
765.1901, 10638.49
765.6722, 10654.16
766.1544, 10717.19
766.6365, 10750.85
767.1186, 10738.66
767.6007, 10705.96
768.0828, 10696.85
768.5649, 10710.17
769.0471, 10716.38
769.5292, 10707.92
770.0113, 10688.09
770.4934, 10653.55
770.9755, 10611.54
771.4576, 10577.38
771.9398, 10560.22
772.4219, 10549.09
772.9040, 10546.55
773.3861, 10546.91
773.8682, 10533.23
774.3503, 10495.28
774.8325, 10461.72
775.3146, 10441.60
775.7967, 10429.76
776.2788, 10408.05
776.7609, 10376.76
777.2430, 10348.07
777.7252, 10324.85
778.2073, 10309.63
778.6894, 10310.46
779.1715, 10323.47
779.6536, 10334.12
780.1357, 10340.05
780.6179, 10337.88
781.1000, 10319.48
781.5821, 10286.83
782.0642, 10270.98
782.5463, 10278.52
783.0284, 10291.84
783.5105, 10308.12
783.9926, 10324.97
784.4747, 10317.42
784.9568, 10285.49
785.4390, 10263.98
785.9211, 10284.05
786.4032, 10324.04
786.8853, 10352.33
787.3674, 10369.10
787.8495, 10402.42
788.3317, 10501.74
788.8138, 10590.33
789.2959, 10617.27
789.7780, 10573.70
790.2601, 10539.27
790.7422, 10516.40
791.2244, 10498.59
791.7065, 10482.09
792.1886, 10467.23
792.6707, 10456.23
793.1528, 10449.08
793.6349, 10448.22
794.1171, 10458.96
794.5992, 10475.16
795.0813, 10490.45
795.5634, 10504.29
796.0455, 10514.17
796.5276, 10504.49
797.0098, 10501.46
797.4919, 10524.98
797.9740, 10583.07
798.4561, 10632.39
798.9382, 10672.46
799.4203, 10703.90
799.9025, 10729.21
800.3846, 10747.14
800.8667, 10743.98
801.3488, 10716.36
801.8309, 10695.89
802.3130, 10711.24
802.7952, 10746.54
803.2773, 10788.44
803.7594, 10842.72
804.2415, 10878.52
804.7236, 10872.87
805.2057, 10857.94
805.6879, 10854.65
806.1700, 10861.70
806.6521, 10888.49
807.1342, 10940.19
807.6163, 10994.74
808.0984, 11028.57
808.5806, 11045.29
809.0627, 11052.27
809.5448, 11048.58
810.0269, 11046.83
810.5090, 11058.55
810.9911, 11075.62
811.4733, 11089.28
811.9554, 11090.34
812.4375, 11102.51
812.9196, 11130.61
813.4017, 11165.96
813.8839, 11206.05
814.3660, 11252.91
814.8481, 11267.31
815.3302, 11238.25
815.8123, 11205.99
816.2944, 11221.39
816.7766, 11266.84
817.2587, 11313.17
817.7408, 11356.90
818.2229, 11391.75
818.7050, 11390.90
819.1871, 11391.47
819.6693, 11440.23
820.1514, 11577.37
820.6335, 11681.18
821.1156, 11741.38
821.5977, 11777.04
822.0798, 11812.57
822.5620, 11846.61
823.0441, 11862.09
823.5262, 11852.39
824.0083, 11841.25
824.4904, 11855.14
824.9725, 11881.62
825.4547, 11903.00
825.9368, 11908.18
826.4189, 11920.80
826.9010, 11954.17
827.3831, 11993.02
827.8652, 12021.19
828.3474, 12033.88
828.8295, 12053.90
829.3116, 12083.69
829.7937, 12119.10
830.2758, 12162.41
830.7579, 12206.59
831.2401, 12228.76
831.7222, 12212.60
832.2043, 12208.22
832.6864, 12262.40
833.1685, 12340.27
833.6506, 12402.17
834.1328, 12431.54
834.6149, 12457.70
835.0970, 12476.20
835.5791, 12496.96
836.0612, 12537.56
836.5433, 12597.37
837.0255, 12634.90
837.5076, 12641.62
837.9897, 12640.18
838.4718, 12650.14
838.9539, 12670.26
839.4360, 12701.58
839.9182, 12753.96
840.4003, 12793.12
840.8824, 12790.62
841.3645, 12780.91
841.8466, 12798.03
842.3287, 12850.51
842.8109, 12907.36
843.2930, 12972.86
843.7751, 13027.58
844.2572, 13030.41
844.7393, 13004.17
845.2214, 13025.92
845.7036, 13115.71
846.1857, 13208.92
846.6678, 13257.10
847.1499, 13285.22
847.6320, 13317.84
848.1141, 13363.56
848.5963, 13403.28
849.0784, 13433.12
849.5605, 13460.43
850.0426, 13497.39
850.5247, 13543.62
851.0068, 13557.96
851.4890, 13533.21
851.9711, 13513.04
852.4532, 13558.95
852.9353, 13626.79
853.4174, 13651.79
853.8995, 13612.39
854.3817, 13590.50
854.8638, 13637.98
855.3459, 13694.60
855.8280, 13715.19
856.3101, 13686.25
856.7922, 13690.10
857.2744, 13732.13
857.7565, 13787.50
858.2386, 13845.15
858.7207, 13898.25
859.2028, 13924.06
859.6849, 13920.65
860.1671, 13921.40
860.6492, 13948.46
861.1313, 13986.39
861.6134, 14025.65
862.0955, 14065.27
862.5776, 14104.14
863.0598, 14146.99
863.5419, 14180.57
864.0240, 14191.33
864.5061, 14183.22
864.9882, 14194.42
865.4703, 14224.59
865.9524, 14251.47
866.4345, 14248.53
866.9166, 14242.56
867.3987, 14269.18
867.8809, 14328.26
868.3630, 14360.41
868.8451, 14309.10
869.3272, 14273.64
869.8093, 14297.58
870.2914, 14373.13
870.7736, 14421.84
871.2557, 14441.43
871.7378, 14460.62
872.2199, 14498.97
872.7020, 14545.03
873.1841, 14582.56
873.6663, 14611.32
874.1484, 14633.28
874.6305, 14631.41
875.1126, 14640.17
875.5947, 14680.17
876.0768, 14743.64
876.5590, 14802.54
877.0411, 14856.46
877.5232, 14907.97
878.0053, 14958.24
878.4874, 15006.17
878.9695, 15044.49
879.4517, 15077.31
879.9338, 15118.24
880.4159, 15185.51
880.8980, 15251.17
881.3801, 15289.02
881.8622, 15315.48
882.3444, 15370.42
882.8265, 15466.55
883.3086, 15567.61
883.7907, 15668.51
884.2728, 15770.50
884.7549, 15872.30
885.2371, 15976.49
885.7192, 16094.88
886.2013, 16236.14
886.6834, 16383.37
887.1655, 16514.82
887.6476, 16647.43
888.1298, 16804.72
888.6119, 17020.15
889.0940, 17221.41
889.5761, 17402.23
890.0582, 17573.21
890.5403, 17743.67
891.0225, 17912.37
891.5046, 18099.91
891.9867, 18315.22
892.4688, 18518.12
892.9509, 18668.89
893.4330, 18790.09
893.9152, 18904.68
894.3973, 19013.03
894.8794, 19134.02
895.3615, 19292.71
895.8436, 19449.44
896.3257, 19580.98
896.8079, 19688.23
897.2900, 19770.23
897.7721, 19828.87
898.2542, 19857.46
898.7363, 19831.71
899.2184, 19782.64
899.7006, 19766.68
900.1827, 19786.07
900.6648, 19765.11
901.1469, 19640.36
901.6290, 19498.09
902.1111, 19376.40
902.5933, 19275.23
903.0754, 19175.55
903.5575, 19077.71
904.0396, 18979.56
904.5217, 18882.02
905.0038, 18781.81
905.4860, 18670.43
905.9681, 18549.61
906.4502, 18430.76
906.9323, 18312.49
907.4144, 18204.00
907.8965, 18118.81
908.3787, 18046.56
908.8608, 17956.15
909.3429, 17844.97
909.8250, 17724.15
910.3071, 17587.80
910.7892, 17455.11
911.2714, 17376.46
911.7535, 17331.62
912.2356, 17265.56
912.7177, 17135.51
913.1998, 17016.13
913.6819, 16949.92
914.1641, 16913.81
914.6462, 16870.88
915.1283, 16808.23
915.6104, 16773.92
916.0925, 16780.30
916.5746, 16792.81
917.0568, 16760.19
917.5389, 16698.52
918.0210, 16650.69
918.5031, 16623.01
918.9852, 16613.04
919.4673, 16635.62
919.9495, 16663.74
920.4316, 16673.69
920.9137, 16659.54
921.3958, 16642.49
921.8779, 16613.78
922.3600, 16603.95
922.8422, 16650.18
923.3243, 16732.53
923.8064, 16779.41
924.2885, 16791.82
924.7706, 16797.79
925.2527, 16810.05
925.7349, 16826.08
926.2170, 16846.53
926.6991, 16870.30
927.1812, 16888.60
927.6633, 16899.13
928.1454, 16909.44
928.6276, 16923.27
929.1097, 16937.91
929.5918, 16940.54
930.0739, 16935.86
930.5560, 16943.93
931.0381, 16987.92
931.5203, 17031.38
932.0024, 17041.40
932.4845, 17039.09
932.9666, 17068.03
933.4487, 17144.95
933.9308, 17220.84
934.4130, 17290.34
934.8951, 17357.17
935.3772, 17428.99
935.8593, 17503.49
936.3414, 17571.94
936.8235, 17631.69
937.3057, 17693.17
937.7878, 17772.88
938.2699, 17851.80
938.7520, 17904.50
939.2341, 17906.16
939.7162, 17970.37
940.1984, 18115.23
940.6805, 18276.12
941.1626, 18404.82
941.6447, 18508.67
942.1268, 18606.69
942.6089, 18700.98
943.0911, 18809.69
943.5732, 18967.29
944.0553, 19121.13
944.5374, 19239.35
945.0195, 19322.13
945.5016, 19396.17
945.9838, 19450.23
946.4659, 19531.82
946.9480, 19665.85
947.4301, 19827.31
947.9122, 19955.97
948.3943, 20060.85
948.8764, 20172.59
949.3585, 20326.34
949.8406, 20459.49
950.3228, 20514.43
950.8049, 20540.81
951.2870, 20617.68
951.7691, 20761.06
952.2512, 20908.41
952.7333, 21053.18
953.2155, 21205.99
953.6976, 21381.23
954.1797, 21575.90
954.6618, 21787.54
955.1439, 22018.77
955.6260, 22245.63
956.1082, 22447.07
956.5903, 22649.23
957.0724, 22880.57
957.5545, 23146.20
958.0366, 23366.31
958.5187, 23538.94
959.0009, 23666.25
959.4830, 23727.41
959.9651, 23754.17
960.4472, 23824.86
960.9293, 23919.25
961.4114, 23953.14
961.8936, 23849.93
962.3757, 23724.00
962.8578, 23614.37
963.3399, 23509.19
963.8220, 23372.15
964.3041, 23197.86
964.7863, 23048.87
965.2684, 22938.90
965.7505, 22864.92
966.2326, 22849.10
966.7147, 22859.22
967.1968, 22841.09
967.6790, 22754.49
968.1611, 22698.74
968.6432, 22700.81
969.1253, 22734.83
969.6074, 22794.32
970.0895, 22881.68
970.5717, 22925.17
971.0538, 22922.21
971.5359, 22923.93
972.0180, 22978.68
972.5001, 23053.71
972.9822, 23116.95
973.4644, 23167.26
973.9465, 23219.26
974.4286, 23300.58
974.9107, 23343.87
975.3928, 23317.62
975.8749, 23244.87
976.3571, 23201.96
976.8392, 23181.92
977.3213, 23142.97
977.8034, 23051.59
978.2855, 22963.81
978.7676, 22932.71
979.2498, 22929.04
979.7319, 22905.03
980.2140, 22818.30
980.6961, 22795.11
981.1782, 22865.22
981.6603, 22944.70
982.1425, 22914.91
982.6246, 22821.14
983.1067, 22824.15
983.5888, 22938.57
984.0709, 23044.28
984.5530, 23043.55
985.0352, 23030.07
985.5173, 23072.69
985.9994, 23166.49
986.4815, 23224.91
986.9636, 23238.42
987.4457, 23252.70
987.9279, 23279.01
988.4100, 23325.42
988.8921, 23426.71
989.3742, 23560.05
989.8563, 23667.74
990.3384, 23709.47
990.8206, 23742.55
991.3027, 23760.25
991.7848, 23792.63
992.2669, 23890.39
992.7490, 24060.47
993.2311, 24186.87
993.7133, 24252.31
994.1954, 24316.15
994.6775, 24454.85
995.1596, 24614.55
995.6417, 24733.10
996.1238, 24798.68
996.6060, 24858.51
997.0881, 24919.40
997.5702, 24978.45
998.0523, 25044.34
998.5344, 25105.73
999.0165, 25095.90
999.4987, 25025.13
999.9808, 24960.14
1000.463, 24967.80
1000.945, 24959.72
1001.427, 24868.85
1001.909, 24723.55
1002.391, 24577.21
1002.873, 24433.60
1003.356, 24290.35
1003.838, 24148.43
1004.320, 24004.45
1004.802, 23859.48
1005.284, 23709.81
1005.766, 23542.28
1006.248, 23354.03
1006.730, 23175.83
1007.213, 23045.08
1007.695, 22909.51
1008.177, 22729.59
1008.659, 22512.26
1009.141, 22359.16
1009.623, 22273.77
1010.105, 22201.29
1010.587, 22114.71
1011.069, 22027.28
1011.552, 21941.97
1012.034, 21869.31
1012.516, 21833.49
1012.998, 21899.05
1013.480, 21916.99
1013.962, 21851.76
1014.444, 21763.22
1014.926, 21731.12
1015.409, 21745.23
1015.891, 21739.91
1016.373, 21706.53
1016.855, 21683.20
1017.337, 21702.00
1017.819, 21737.99
1018.301, 21781.21
1018.783, 21830.39
1019.265, 21843.08
1019.748, 21803.40
1020.230, 21788.81
1020.712, 21844.47
1021.194, 21930.02
1021.676, 21973.88
1022.158, 21985.38
1022.640, 21986.76
1023.122, 21974.17
1023.604, 21968.54
1024.087, 21979.69
1024.569, 21995.31
1025.051, 22002.61
1025.533, 22000.88
1026.015, 21997.12
1026.497, 21990.79
1026.979, 21989.11
1027.461, 22002.39
1027.943, 22019.70
1028.426, 22030.86
1028.908, 22035.47
1029.390, 22040.63
1029.872, 22049.66
1030.354, 22055.55
1030.836, 22056.40
1031.318, 22054.55
1031.800, 22054.64
1032.283, 22056.47
1032.765, 22057.40
1033.247, 22051.87
1033.729, 22055.78
1034.211, 22078.01
1034.693, 22112.42
1035.175, 22154.64
1035.657, 22207.81
1036.140, 22245.86
1036.622, 22267.06
1037.104, 22288.63
1037.586, 22326.27
1038.068, 22369.29
1038.550, 22400.98
1039.032, 22424.72
1039.514, 22464.99
1039.996, 22543.05
1040.479, 22610.29
1040.961, 22653.61
1041.443, 22685.38
1041.925, 22732.35
1042.407, 22787.94
1042.889, 22829.71
1043.371, 22850.50
1043.853, 22865.02
1044.335, 22863.97
1044.818, 22875.17
1045.300, 22923.92
1045.782, 23014.03
1046.264, 23099.56
1046.746, 23181.05
1047.228, 23253.48
1047.710, 23301.28
1048.192, 23345.59
1048.675, 23414.11
1049.157, 23500.55
1049.639, 23590.98
1050.121, 23704.37
1050.603, 23782.46
1051.085, 23810.35
1051.567, 23814.27
1052.049, 23823.70
1052.531, 23839.29
1053.014, 23867.47
1053.496, 23910.18
1053.978, 23945.68
1054.460, 23960.74
1054.942, 23964.69
1055.424, 23963.14
1055.906, 23956.73
1056.388, 23941.92
1056.870, 23917.92
1057.353, 23892.39
1057.835, 23867.08
1058.317, 23842.17
1058.799, 23823.57
1059.281, 23802.82
1059.763, 23765.53
1060.245, 23686.63
1060.727, 23626.49
1061.210, 23581.89
1061.692, 23566.37
1062.174, 23612.07
1062.656, 23696.84
1063.138, 23725.45
1063.620, 23703.52
1064.102, 23698.09
1064.584, 23779.78
1065.067, 23853.11
1065.549, 23860.56
1066.031, 23832.28
1066.513, 23830.09
1066.995, 23854.87
1067.477, 23894.64
1067.959, 23949.33
1068.441, 24006.53
1068.923, 24042.31
1069.406, 24079.43
1069.888, 24147.91
1070.370, 24259.14
1070.852, 24352.91
1071.334, 24425.51
1071.816, 24480.25
1072.298, 24507.84
1072.780, 24524.58
1073.262, 24568.36
1073.745, 24634.53
1074.227, 24708.78
1074.709, 24806.54
1075.191, 24883.98
1075.673, 24920.43
1076.155, 24938.98
1076.637, 24961.49
1077.119, 24987.84
1077.601, 25002.33
1078.084, 25004.52
1078.566, 25009.92
1079.048, 25034.85
1079.530, 25064.31
1080.012, 25090.07
1080.494, 25110.95
1080.976, 25121.98
1081.458, 25116.82
1081.941, 25131.80
1082.423, 25184.37
1082.905, 25234.94
1083.387, 25211.09
1083.869, 25155.19
1084.351, 25136.68
1084.833, 25177.74
1085.315, 25215.23
1085.797, 25241.29
1086.280, 25256.51
1086.762, 25256.83
1087.244, 25247.03
1087.726, 25244.92
1088.208, 25250.26
1088.690, 25262.30
1089.172, 25278.38
1089.654, 25303.80
1090.136, 25351.79
1090.619, 25403.85
1091.101, 25437.16
1091.583, 25449.04
1092.065, 25468.62
1092.547, 25497.37
1093.029, 25531.88
1093.511, 25577.88
1093.993, 25622.16
1094.476, 25647.63
1094.958, 25658.12
1095.440, 25677.48
1095.922, 25710.92
1096.404, 25741.05
1096.886, 25760.37
1097.368, 25784.96
1097.850, 25843.02
1098.333, 25921.39
1098.815, 26000.42
1099.297, 26077.93
1099.779, 26140.99
1100.261, 26178.04
1100.743, 26209.84
1101.225, 26242.79
1101.707, 26277.56
1102.189, 26322.33
1102.672, 26373.17
1103.154, 26414.34
1103.636, 26434.40
1104.118, 26449.67
1104.600, 26460.04
1105.082, 26475.14
1105.564, 26509.90
1106.046, 26569.71
1106.528, 26591.70
1107.011, 26573.41
1107.493, 26565.09
1107.975, 26628.70
1108.457, 26697.86
1108.939, 26696.97
1109.421, 26650.91
1109.903, 26652.85
1110.385, 26729.68
1110.868, 26784.51
1111.350, 26798.34
1111.832, 26805.40
1112.314, 26855.62
1112.796, 26922.04
1113.278, 26965.54
1113.760, 26980.43
1114.242, 26986.01
1114.724, 26967.24
1115.207, 26971.01
1115.689, 27020.43
1116.171, 27094.01
1116.653, 27142.72
1117.135, 27170.42
1117.617, 27184.87
1118.099, 27174.31
1118.581, 27190.02
1119.063, 27280.52
1119.546, 27381.98
1120.028, 27454.66
1120.510, 27499.36
1120.992, 27517.63
1121.474, 27511.51
1121.956, 27504.05
1122.438, 27495.75
1122.920, 27503.53
1123.403, 27548.47
1123.885, 27612.96
1124.367, 27669.53
1124.849, 27720.19
1125.331, 27748.22
1125.813, 27750.68
1126.295, 27751.11
1126.777, 27767.99
1127.260, 27794.69
1127.742, 27827.53
1128.224, 27865.13
1128.706, 27900.63
1129.188, 27931.97
1129.670, 27967.80
1130.152, 28013.41
1130.634, 28053.12
1131.116, 28048.17
1131.599, 28028.66
1132.081, 28043.44
1132.563, 28100.60
1133.045, 28179.79
1133.527, 28299.30
1134.009, 28403.39
1134.491, 28468.80
1134.973, 28506.58
1135.455, 28545.44
1135.938, 28581.40
1136.420, 28601.38
1136.902, 28590.82
1137.384, 28590.08
1137.866, 28611.53
1138.348, 28652.29
1138.830, 28717.46
1139.312, 28803.93
1139.795, 28872.09
1140.277, 28923.23
1140.759, 28962.85
1141.241, 28998.97
1141.723, 29019.57
1142.205, 28992.24
1142.687, 28961.04
1143.169, 28992.78
1143.651, 29098.18
1144.134, 29143.41
1144.616, 29119.69
1145.098, 29102.23
1145.580, 29164.48
1146.062, 29242.93
1146.544, 29284.63
1147.026, 29299.27
1147.508, 29330.42
1147.990, 29383.26
1148.473, 29434.38
1148.955, 29482.87
1149.437, 29517.27
1149.919, 29501.51
1150.401, 29481.34
1150.883, 29516.20
1151.365, 29611.79
1151.847, 29700.52
1152.330, 29785.08
1152.812, 29842.96
1153.294, 29859.23
1153.776, 29860.73
1154.258, 29890.09
1154.740, 29933.91
1155.222, 29969.09
1155.704, 29987.68
1156.186, 30011.08
1156.669, 30042.43
1157.151, 30075.79
1157.633, 30105.00
1158.115, 30136.95
1158.597, 30200.32
1159.079, 30281.40
1159.561, 30342.15
1160.043, 30359.84
1160.526, 30373.02
1161.008, 30379.01
1161.490, 30398.20
1161.972, 30457.33
1162.454, 30545.05
1162.936, 30586.57
1163.418, 30592.81
1163.900, 30622.41
1164.382, 30739.67
1164.865, 30840.97
1165.347, 30883.19
1165.829, 30900.66
1166.311, 30934.39
1166.793, 30981.33
1167.275, 30998.40
1167.757, 30984.95
1168.239, 30981.79
1168.721, 31023.14
1169.204, 31074.05
1169.686, 31121.79
1170.168, 31164.78
1170.650, 31199.40
1171.132, 31226.33
1171.614, 31251.93
1172.096, 31276.92
1172.578, 31311.54
1173.061, 31376.76
1173.543, 31443.66
1174.025, 31483.27
1174.507, 31504.26
1174.989, 31547.93
1175.471, 31615.92
1175.953, 31668.55
1176.435, 31689.66
1176.917, 31714.56
1177.400, 31790.03
1177.882, 31876.38
1178.364, 31922.67
1178.846, 31925.90
1179.328, 31989.86
1179.810, 32123.88
1180.292, 32234.80
1180.774, 32278.05
1181.256, 32296.08
1181.739, 32325.39
1182.221, 32363.45
1182.703, 32411.82
1183.185, 32479.05
1183.667, 32512.10
1184.149, 32503.93
1184.631, 32504.96
1185.113, 32553.71
1185.596, 32618.43
1186.078, 32654.68
1186.560, 32677.23
1187.042, 32714.56
1187.524, 32776.57
1188.006, 32842.25
1188.488, 32915.47
1188.970, 32973.46
1189.453, 32986.36
1189.935, 32980.81
1190.417, 32987.71
1190.899, 33007.70
1191.381, 33040.90
1191.863, 33096.79
1192.345, 33148.03
1192.827, 33191.76
1193.309, 33237.88
1193.792, 33317.76
1194.274, 33394.32
1194.756, 33378.69
1195.238, 33292.70
1195.720, 33291.10
1196.202, 33462.46
1196.684, 33600.61
1197.166, 33670.86
1197.648, 33700.51
1198.131, 33694.28
1198.613, 33684.91
1199.095, 33740.14
1199.577, 33863.20
1200.059, 33957.20
1200.541, 33987.94
1201.023, 34019.38
1201.505, 34067.43
1201.988, 34121.78
1202.470, 34172.72
1202.952, 34217.01
1203.434, 34242.23
1203.916, 34243.64
1204.398, 34266.65
1204.880, 34333.33
1205.362, 34392.61
1205.844, 34424.50
1206.327, 34443.97
1206.809, 34471.29
1207.291, 34511.23
1207.773, 34579.66
1208.255, 34693.34
1208.737, 34775.65
1209.219, 34803.50
1209.701, 34824.82
1210.183, 34857.42
1210.666, 34901.86
1211.148, 34962.60
1211.630, 35034.69
1212.112, 35110.25
1212.594, 35203.58
1213.076, 35253.28
1213.558, 35235.62
1214.040, 35211.36
1214.523, 35209.39
1215.005, 35231.42
1215.487, 35300.18
1215.969, 35395.77
1216.451, 35467.60
1216.933, 35484.85
1217.415, 35500.32
1217.897, 35515.68
1218.380, 35538.94
1218.862, 35571.74
1219.344, 35619.13
1219.826, 35707.18
1220.308, 35820.34
1220.790, 35910.11
1221.272, 35936.43
1221.754, 35971.95
1222.236, 36023.46
1222.719, 36083.84
1223.201, 36149.41
1223.683, 36217.59
1224.165, 36278.44
1224.647, 36335.50
1225.129, 36405.72
1225.611, 36522.41
1226.093, 36608.26
1226.575, 36655.34
1227.058, 36670.80
1227.540, 36638.56
1228.022, 36590.91
1228.504, 36597.04
1228.986, 36651.46
1229.468, 36699.19
1229.950, 36727.21
1230.432, 36744.48
1230.915, 36745.22
1231.397, 36757.77
1231.879, 36838.76
1232.361, 36945.34
1232.843, 36991.14
1233.325, 36980.06
1233.807, 37006.75
1234.289, 37108.40
1234.771, 37205.40
1235.254, 37289.37
1235.736, 37347.65
1236.218, 37326.99
1236.700, 37288.86
1237.182, 37327.42
1237.664, 37448.44
1238.146, 37579.16
1238.628, 37732.58
1239.110, 37829.55
1239.593, 37841.43
1240.075, 37824.69
1240.557, 37853.34
1241.039, 37900.59
1241.521, 37927.43
1242.003, 37930.50
1242.485, 37959.95
1242.967, 38025.35
1243.449, 38094.56
1243.932, 38164.08
1244.414, 38221.90
1244.896, 38234.09
1245.378, 38240.00
1245.860, 38293.33
1246.342, 38404.16
1246.824, 38491.09
1247.306, 38556.93
1247.789, 38572.61
1248.271, 38503.84
1248.753, 38452.15
1249.235, 38577.09
1249.717, 38752.48
1250.199, 38828.02
1250.681, 38793.24
1251.163, 38784.59
1251.646, 38803.01
1252.128, 38836.68
1252.610, 38883.17
1253.092, 38939.71
1253.574, 39008.18
1254.056, 39082.42
1254.538, 39163.04
1255.020, 39248.23
1255.502, 39289.05
1255.984, 39286.22
1256.467, 39300.63
1256.949, 39363.34
1257.431, 39435.72
1257.913, 39498.30
1258.395, 39549.98
1258.877, 39582.90
1259.359, 39600.79
1259.841, 39665.34
1260.324, 39771.50
1260.806, 39872.09
1261.288, 39950.20
1261.770, 40011.14
1262.252, 40044.36
1262.734, 40069.98
##END=



