##NAMES=Axinite-(Fe)
##RRUFFID=R060183
##IDEAL CHEMISTRY=Ca_4_Fe^2+^_2_Al_4_[B_2_Si_8_O_30_](OH)_2_
##LOCALITY=Skagit Bluffs, near Manning Park, British Columbia, Canada
##OWNER=RRUFF
##SOURCE=Lloyd Twaites
##DESCRIPTION=Light-pink transparent axe-head-shaped single crystal
##STATUS=The identification of this mineral has been confirmed by X-ray diffraction and chemical analysis
##URL=rruff.info/R060183
##MEASURED CHEMISTRY=Ca_2.00_(Fe^2+^_0.58_Mn_0.23_Mg_0.19_)Al_2.00_B_1.00_Si_4.00_O_15_(OH)
92.02539, 204.4642
92.50751, 206.5112
92.98962, 208.9605
93.47174, 207.8793
93.95386, 206.1791
94.43597, 205.3194
94.91809, 206.4616
95.40021, 209.0557
95.88232, 210.5115
96.36444, 210.3916
96.84656, 209.7599
97.32867, 208.8826
97.81078, 207.9179
98.29290, 207.0900
98.77502, 206.5569
99.25713, 206.1901
99.73925, 204.6343
100.2214, 201.6732
100.7035, 198.1647
101.1856, 194.3091
101.6677, 190.1890
102.1498, 185.9200
102.6320, 181.5815
103.1141, 176.8092
103.5962, 172.9390
104.0783, 170.2305
104.5604, 168.2478
105.0425, 166.6059
105.5247, 165.2093
106.0068, 163.9754
106.4889, 162.7359
106.9710, 161.4581
107.4531, 160.2459
107.9352, 159.1746
108.4173, 158.2155
108.8995, 157.2572
109.3816, 156.5225
109.8637, 155.5222
110.3458, 153.8010
110.8279, 151.2586
111.3100, 148.1456
111.7922, 144.6510
112.2743, 140.6687
112.7564, 136.6856
113.2385, 132.6577
113.7206, 128.7639
114.2027, 125.1835
114.6849, 122.0260
115.1670, 119.1955
115.6491, 116.3961
116.1312, 113.0634
116.6133, 110.4655
117.0954, 109.2235
117.5776, 108.7726
118.0597, 108.2420
118.5418, 106.9931
119.0239, 105.0054
119.5060, 103.3271
119.9881, 102.9390
120.4703, 102.4312
120.9524, 101.8105
121.4345, 100.7382
121.9166, 100.2491
122.3987, 99.52630
122.8808, 98.79388
123.3630, 98.38670
123.8451, 97.38009
124.3272, 96.96789
124.8093, 96.31841
125.2914, 95.77753
125.7735, 95.00149
126.2557, 94.29794
126.7378, 93.82977
127.2199, 92.24001
127.7020, 92.25273
128.1841, 92.14600
128.6662, 91.92620
129.1483, 91.25478
129.6305, 91.16650
130.1126, 90.84455
130.5947, 90.51302
131.0768, 90.50687
131.5589, 89.90113
132.0410, 89.88982
132.5232, 89.64117
133.0053, 89.50117
133.4874, 89.12602
133.9695, 88.82350
134.4516, 88.75621
134.9337, 88.55867
135.4159, 88.15639
135.8980, 88.02331
136.3801, 87.40936
136.8622, 88.17783
137.3443, 88.72575
137.8264, 89.16064
138.3086, 89.14397
138.7907, 89.71042
139.2728, 90.04314
139.7549, 90.36629
140.2370, 91.01482
140.7191, 91.06377
141.2013, 91.70722
141.6834, 91.49268
142.1655, 92.55864
142.6476, 94.56197
143.1297, 96.15406
143.6118, 96.82913
144.0939, 97.70049
144.5761, 99.13366
145.0582, 101.1147
145.5403, 103.5901
146.0224, 106.5600
146.5045, 110.0679
146.9866, 113.9915
147.4688, 118.2775
147.9509, 123.0103
148.4330, 128.6554
148.9151, 135.4643
149.3972, 141.6472
149.8793, 145.9436
150.3615, 149.0233
150.8436, 151.5743
151.3257, 154.1247
151.8078, 156.1473
152.2899, 156.3894
152.7720, 154.5350
153.2542, 151.1974
153.7363, 146.1031
154.2184, 140.0716
154.7005, 134.2555
155.1826, 129.3426
155.6647, 125.2880
156.1469, 121.7625
156.6290, 119.5575
157.1111, 117.1490
157.5932, 113.9330
158.0753, 110.1718
158.5574, 106.4680
159.0396, 103.2916
159.5217, 100.6503
160.0038, 98.53125
160.4859, 96.92368
160.9680, 95.74934
161.4501, 95.06603
161.9323, 94.82930
162.4144, 94.88795
162.8965, 95.05822
163.3786, 95.26902
163.8607, 96.13660
164.3428, 97.75305
164.8250, 99.88148
165.3071, 102.3968
165.7892, 105.2724
166.2713, 108.4267
166.7534, 111.6692
167.2355, 114.9050
167.7177, 119.1100
168.1998, 124.8338
168.6819, 131.4543
169.1640, 138.4151
169.6461, 145.7839
170.1282, 152.7825
170.6104, 158.5222
171.0925, 163.1678
171.5746, 166.5896
172.0567, 168.9117
172.5388, 169.9776
173.0209, 169.1950
173.5031, 165.9531
173.9852, 161.3513
174.4673, 156.3826
174.9494, 151.0752
175.4315, 145.5488
175.9136, 139.7871
176.3958, 133.7936
176.8779, 128.0130
177.3600, 122.3588
177.8421, 117.1019
178.3242, 112.5768
178.8063, 108.7122
179.2885, 105.0372
179.7706, 100.9408
180.2527, 96.20432
180.7348, 91.98716
181.2169, 88.40811
181.6990, 85.31127
182.1812, 82.71742
182.6633, 80.59250
183.1454, 78.85019
183.6275, 77.37619
184.1096, 76.20572
184.5917, 75.27416
185.0738, 74.43517
185.5560, 73.86620
186.0381, 73.72732
186.5202, 74.04600
187.0023, 74.70192
187.4844, 75.49399
187.9665, 76.48671
188.4487, 77.54202
188.9308, 78.06713
189.4129, 78.92361
189.8950, 81.09011
190.3771, 84.86414
190.8592, 89.54165
191.3414, 93.78409
191.8235, 97.33981
192.3056, 100.9101
192.7877, 105.0191
193.2698, 109.0399
193.7519, 112.2355
194.2341, 114.3824
194.7162, 115.4715
195.1983, 115.1162
195.6804, 113.0522
196.1625, 111.0087
196.6446, 109.4026
197.1268, 108.1891
197.6089, 107.1815
198.0910, 106.1684
198.5731, 105.6240
199.0552, 106.1939
199.5373, 107.8723
200.0195, 110.2700
200.5016, 113.1869
200.9837, 116.6560
201.4658, 120.8442
201.9479, 126.0760
202.4300, 131.8768
202.9122, 137.5328
203.3943, 143.0201
203.8764, 148.6987
204.3585, 155.0416
204.8406, 162.0557
205.3227, 168.7511
205.8048, 174.9772
206.2870, 180.6530
206.7691, 185.7324
207.2512, 190.1970
207.7333, 194.0154
208.2154, 197.0453
208.6975, 199.2112
209.1797, 201.0266
209.6618, 202.5162
210.1439, 203.7027
210.6260, 204.4519
211.1081, 204.7809
211.5902, 204.9809
212.0724, 205.5149
212.5545, 206.6528
213.0366, 207.2703
213.5187, 206.9786
214.0008, 206.4165
214.4829, 205.9365
214.9651, 205.6197
215.4472, 205.3419
215.9293, 204.8874
216.4114, 204.0217
216.8935, 203.4857
217.3756, 204.1931
217.8578, 204.5667
218.3399, 203.5624
218.8220, 200.9449
219.3041, 197.1309
219.7862, 192.8290
220.2683, 188.6373
220.7505, 182.5000
221.2326, 173.3418
221.7147, 163.1234
222.1968, 152.9937
222.6789, 143.3389
223.1610, 134.3400
223.6432, 126.2825
224.1253, 119.5310
224.6074, 113.1910
225.0895, 107.0925
225.5716, 101.4754
226.0537, 96.61864
226.5358, 92.56535
227.0180, 89.13338
227.5001, 86.09153
227.9822, 83.46104
228.4643, 81.30033
228.9464, 79.82210
229.4285, 78.72558
229.9107, 77.72117
230.3928, 76.74358
230.8749, 75.89820
231.3570, 75.43694
231.8391, 75.42420
232.3212, 75.10768
232.8034, 73.89803
233.2855, 72.50433
233.7676, 71.88047
234.2497, 72.25334
234.7318, 73.05756
235.2139, 73.73745
235.6961, 74.31087
236.1782, 74.94117
236.6603, 75.58862
237.1424, 76.34079
237.6245, 77.42519
238.1066, 78.98145
238.5888, 80.51161
239.0709, 81.45071
239.5530, 81.96309
240.0351, 82.54185
240.5172, 83.54162
240.9993, 84.67885
241.4815, 85.31635
241.9636, 85.22131
242.4457, 85.14400
242.9278, 85.83521
243.4099, 86.95918
243.8920, 87.80953
244.3742, 87.94749
244.8563, 87.63034
245.3384, 87.38555
245.8205, 87.12642
246.3026, 87.15674
246.7847, 87.58801
247.2668, 88.38998
247.7490, 89.56859
248.2311, 91.18291
248.7132, 93.14288
249.1953, 95.23018
249.6774, 97.31501
250.1595, 99.82553
250.6417, 102.9605
251.1238, 106.5450
251.6059, 110.4300
252.0880, 114.6595
252.5701, 119.0110
253.0522, 122.9906
253.5344, 126.5314
254.0165, 129.7502
254.4986, 132.8252
254.9807, 135.6093
255.4628, 138.0596
255.9449, 140.2077
256.4271, 141.7787
256.9092, 142.0085
257.3913, 140.1717
257.8734, 138.2999
258.3555, 136.8783
258.8376, 135.5988
259.3198, 134.0989
259.8019, 132.2381
260.2840, 130.2894
260.7661, 128.6925
261.2482, 126.8814
261.7303, 126.6789
262.2125, 128.8801
262.6946, 132.1059
263.1767, 135.4033
263.6588, 138.4374
264.1409, 141.1407
264.6230, 143.3900
265.1052, 144.9790
265.5873, 146.4770
266.0694, 147.8286
266.5515, 149.1662
267.0336, 150.6809
267.5157, 152.3692
267.9979, 153.9591
268.4800, 155.0168
268.9621, 155.2710
269.4442, 155.5404
269.9263, 156.3254
270.4084, 156.7692
270.8906, 156.0309
271.3727, 154.1597
271.8548, 152.1132
272.3369, 151.1533
272.8190, 151.9262
273.3011, 151.6151
273.7833, 149.5199
274.2654, 147.1556
274.7475, 145.4448
275.2296, 144.3619
275.7117, 143.2883
276.1938, 141.6250
276.6760, 139.3168
277.1581, 136.6777
277.6402, 133.2240
278.1223, 129.9532
278.6044, 127.4000
279.0865, 125.4580
279.5686, 123.6651
280.0508, 121.6338
280.5329, 119.3568
281.0150, 117.3770
281.4971, 115.4339
281.9792, 113.9669
282.4613, 113.3468
282.9435, 113.3477
283.4256, 113.4302
283.9077, 113.2290
284.3898, 112.8113
284.8719, 112.8068
285.3540, 113.7458
285.8362, 114.4368
286.3183, 114.3802
286.8004, 113.8772
287.2825, 113.5235
287.7646, 113.6523
288.2467, 114.0565
288.7289, 113.9937
289.2110, 113.0156
289.6931, 112.1658
290.1752, 111.6082
290.6573, 111.2736
291.1394, 111.1842
291.6216, 111.3746
292.1037, 111.5490
292.5858, 111.0275
293.0679, 109.2357
293.5500, 107.8672
294.0321, 107.3786
294.5143, 107.2680
294.9964, 106.9767
295.4785, 106.3527
295.9606, 105.6132
296.4427, 105.0698
296.9248, 104.8194
297.4070, 104.4770
297.8891, 103.9942
298.3712, 103.4352
298.8533, 102.7687
299.3354, 102.0169
299.8175, 101.3982
300.2997, 101.1418
300.7818, 101.3122
301.2639, 101.5902
301.7460, 101.7548
302.2281, 102.1894
302.7102, 103.2823
303.1924, 104.9772
303.6745, 106.8004
304.1566, 108.4070
304.6387, 109.8061
305.1208, 111.3171
305.6029, 112.9789
306.0851, 114.7073
306.5672, 116.4589
307.0493, 118.2420
307.5314, 120.1550
308.0135, 122.3457
308.4956, 124.6297
308.9778, 126.1474
309.4599, 126.1203
309.9420, 126.4330
310.4241, 127.6972
310.9062, 129.7163
311.3883, 132.1001
311.8705, 134.6713
312.3526, 137.5490
312.8347, 140.9727
313.3168, 144.7708
313.7989, 149.3678
314.2810, 154.9949
314.7632, 161.4146
315.2453, 168.3945
315.7274, 175.8570
316.2095, 183.8222
316.6916, 192.6152
317.1737, 202.7069
317.6559, 211.5245
318.1380, 218.8969
318.6201, 224.8897
319.1022, 229.6656
319.5843, 233.2370
320.0664, 235.2415
320.5485, 235.3521
321.0306, 233.3386
321.5128, 229.6778
321.9949, 223.8851
322.4770, 216.9094
322.9591, 208.7962
323.4412, 199.8652
323.9233, 191.0365
324.4055, 182.8355
324.8876, 175.3185
325.3697, 169.0928
325.8518, 164.6438
326.3339, 160.7016
326.8160, 156.5559
327.2982, 152.5621
327.7803, 149.5509
328.2624, 147.9910
328.7445, 147.4390
329.2266, 146.7037
329.7087, 145.3057
330.1909, 144.5850
330.6730, 145.0234
331.1551, 146.1984
331.6372, 147.6268
332.1193, 149.1710
332.6014, 150.8179
333.0836, 152.5310
333.5657, 154.2160
334.0478, 156.3343
334.5299, 158.7708
335.0120, 161.7142
335.4941, 165.4741
335.9763, 170.0067
336.4584, 174.8698
336.9405, 179.5683
337.4226, 184.0751
337.9047, 189.3361
338.3868, 195.6343
338.8690, 202.3691
339.3511, 209.6805
339.8332, 217.2632
340.3153, 224.2486
340.7974, 230.0684
341.2795, 234.8579
341.7617, 239.3450
342.2438, 244.6647
342.7259, 248.4198
343.2080, 250.5323
343.6901, 250.6414
344.1722, 248.0759
344.6544, 242.5589
345.1365, 234.6067
345.6186, 225.2438
346.1007, 213.3157
346.5828, 201.5808
347.0649, 189.8508
347.5471, 178.5175
348.0292, 167.7690
348.5113, 157.7683
348.9934, 148.6967
349.4755, 140.9813
349.9576, 134.8951
350.4398, 129.0617
350.9219, 123.2426
351.4040, 117.8360
351.8861, 113.3139
352.3682, 109.4835
352.8503, 105.7166
353.3325, 101.5546
353.8146, 97.03701
354.2967, 92.64796
354.7788, 88.19013
355.2609, 84.09454
355.7430, 80.45724
356.2252, 77.24583
356.7073, 74.41512
357.1894, 71.95423
357.6715, 69.81203
358.1536, 67.82394
358.6357, 65.86042
359.1179, 64.29900
359.5999, 63.44780
360.0821, 62.77972
360.5642, 61.90363
361.0463, 60.72532
361.5284, 59.36366
362.0105, 57.87026
362.4926, 56.03498
362.9748, 54.91317
363.4569, 54.88366
363.9390, 55.16030
364.4211, 55.54272
364.9032, 55.95834
365.3853, 56.34309
365.8675, 56.65143
366.3496, 56.88619
366.8317, 57.06023
367.3138, 56.93464
367.7959, 57.07045
368.2780, 57.72889
368.7602, 58.65203
369.2423, 59.47266
369.7244, 60.01761
370.2065, 60.54667
370.6886, 61.68169
371.1707, 63.83323
371.6529, 65.53739
372.1350, 66.45602
372.6171, 66.99535
373.0992, 67.29623
373.5813, 67.42899
374.0634, 67.58662
374.5456, 68.02464
375.0277, 68.76325
375.5098, 69.31687
375.9919, 69.52824
376.4740, 69.70370
376.9561, 69.96255
377.4383, 70.29734
377.9204, 70.67138
378.4025, 71.05432
378.8846, 71.46982
379.3667, 71.92006
379.8488, 72.25843
380.3310, 73.02605
380.8131, 74.65283
381.2952, 76.71423
381.7773, 78.76846
382.2594, 80.65727
382.7415, 82.74638
383.2237, 85.45667
383.7058, 88.78971
384.1879, 92.37192
384.6700, 96.39902
385.1521, 100.3497
385.6342, 103.7830
386.1164, 106.7005
386.5985, 109.4726
387.0806, 112.4706
387.5627, 115.4255
388.0448, 117.7009
388.5269, 119.1936
389.0091, 120.1608
389.4912, 120.8848
389.9733, 121.2165
390.4554, 120.6791
390.9375, 118.8431
391.4196, 116.4076
391.9018, 113.9855
392.3839, 111.5397
392.8660, 108.7653
393.3481, 105.3518
393.8302, 101.6968
394.3123, 98.55725
394.7945, 95.98470
395.2766, 93.66546
395.7587, 91.53854
396.2408, 89.57498
396.7229, 87.67763
397.2050, 85.78189
397.6872, 84.20613
398.1693, 83.40922
398.6514, 83.48215
399.1335, 83.28750
399.6156, 82.64458
400.0977, 81.82269
400.5798, 80.81751
401.0620, 79.74691
401.5441, 79.06182
402.0262, 79.11193
402.5083, 79.71280
402.9904, 79.93008
403.4725, 79.48589
403.9547, 79.06570
404.4368, 78.75970
404.9189, 78.56160
405.4010, 78.40736
405.8831, 78.28841
406.3652, 78.37220
406.8474, 78.93274
407.3295, 80.15959
407.8116, 81.33275
408.2937, 82.29602
408.7758, 83.34282
409.2579, 84.48418
409.7401, 85.83863
410.2222, 87.67577
410.7043, 90.24622
411.1864, 93.47580
411.6685, 96.78118
412.1506, 100.0438
412.6328, 103.5430
413.1149, 107.3104
413.5970, 111.3330
414.0791, 115.5524
414.5612, 119.9584
415.0433, 124.6925
415.5255, 130.0722
416.0076, 136.3800
416.4897, 142.4470
416.9718, 147.8920
417.4539, 153.3218
417.9360, 159.1626
418.4182, 165.2981
418.9003, 171.1442
419.3824, 176.2704
419.8645, 180.7944
420.3466, 185.3486
420.8287, 189.9572
421.3109, 194.4920
421.7930, 198.9925
422.2751, 203.3339
422.7572, 207.4605
423.2393, 211.4541
423.7214, 214.7577
424.2036, 216.7077
424.6857, 217.3227
425.1678, 217.2340
425.6499, 216.5768
426.1320, 215.1948
426.6141, 213.1507
427.0963, 210.4330
427.5784, 206.7509
428.0605, 201.6094
428.5426, 195.5718
429.0247, 189.5584
429.5068, 183.5989
429.9890, 177.3075
430.4711, 170.3838
430.9532, 162.9468
431.4353, 155.5682
431.9174, 148.3710
432.3995, 141.0363
432.8817, 132.9384
433.3638, 124.6649
433.8459, 117.4164
434.3280, 111.6162
434.8101, 106.8307
435.2922, 102.5369
435.7744, 98.79318
436.2565, 95.47200
436.7386, 92.47588
437.2207, 89.97395
437.7028, 88.19064
438.1849, 87.05154
438.6671, 86.23838
439.1492, 85.51877
439.6313, 84.96593
440.1134, 85.03894
440.5955, 86.00833
441.0776, 87.29225
441.5598, 88.98857
442.0418, 90.88924
442.5240, 92.84511
443.0061, 94.78341
443.4882, 96.65164
443.9703, 98.53120
444.4524, 100.7575
444.9345, 101.4275
445.4167, 99.49737
445.8988, 97.01272
446.3809, 94.74949
446.8630, 92.46352
447.3451, 89.47247
447.8272, 85.32667
448.3094, 80.46041
448.7915, 75.90705
449.2736, 71.64840
449.7557, 67.76884
450.2378, 64.18158
450.7199, 61.03786
451.2021, 58.56795
451.6842, 56.76629
452.1663, 55.23576
452.6484, 53.60285
453.1305, 51.96305
453.6126, 50.83714
454.0948, 50.39844
454.5769, 50.14659
455.0590, 49.77995
455.5411, 49.36305
456.0232, 49.00179
456.5053, 48.67437
456.9875, 48.47405
457.4696, 48.62283
457.9517, 49.01345
458.4338, 49.08616
458.9159, 48.52917
459.3980, 47.82643
459.8802, 47.78661
460.3623, 48.45742
460.8444, 49.03901
461.3265, 49.32255
461.8086, 49.50252
462.2907, 49.66893
462.7729, 49.86894
463.2550, 50.23640
463.7371, 50.84691
464.2192, 51.71239
464.7013, 52.94268
465.1834, 55.04856
465.6656, 56.84329
466.1477, 57.79262
466.6298, 58.54700
467.1119, 59.90320
467.5940, 62.00451
468.0761, 64.26402
468.5583, 65.95672
469.0404, 66.98620
469.5225, 68.15844
470.0046, 69.75736
470.4867, 71.20525
470.9688, 72.40244
471.4510, 73.30847
471.9331, 73.79668
472.4152, 73.77042
472.8973, 73.54549
473.3794, 73.74402
473.8615, 74.46233
474.3437, 75.18593
474.8258, 75.63594
475.3079, 76.22569
475.7900, 77.13932
476.2721, 78.40386
476.7542, 80.08233
477.2364, 82.25466
477.7185, 84.85146
478.2006, 87.77982
478.6827, 91.05051
479.1648, 94.49400
479.6469, 97.83234
480.1291, 101.4186
480.6112, 105.8117
481.0933, 111.1659
481.5754, 116.9361
482.0575, 123.3778
482.5396, 129.9274
483.0217, 135.6748
483.5038, 140.4538
483.9860, 144.2032
484.4681, 146.9489
484.9502, 148.5984
485.4323, 148.7121
485.9144, 147.7563
486.3965, 144.9009
486.8787, 139.0641
487.3608, 131.1884
487.8429, 122.7633
488.3250, 114.3642
488.8071, 106.1253
489.2892, 98.30869
489.7714, 90.64185
490.2535, 83.99891
490.7356, 78.46674
491.2177, 73.70186
491.6998, 69.63937
492.1819, 66.21664
492.6641, 63.39910
493.1462, 61.21626
493.6283, 59.54342
494.1104, 58.00185
494.5925, 56.51587
495.0746, 55.37895
495.5568, 54.84627
496.0389, 54.57101
496.5210, 54.35509
497.0031, 54.17382
497.4852, 54.05928
497.9673, 54.12310
498.4495, 54.26598
498.9316, 54.18235
499.4137, 53.81893
499.8958, 53.43589
500.3779, 53.24546
500.8600, 53.10522
501.3422, 52.69642
501.8243, 51.82769
502.3064, 51.07159
502.7885, 50.82472
503.2706, 50.85135
503.7527, 50.58312
504.2349, 49.88937
504.7170, 49.50698
505.1991, 50.37328
505.6812, 52.60536
506.1633, 53.45021
506.6454, 51.97793
507.1276, 50.32111
507.6097, 49.09794
508.0918, 48.24285
508.5739, 47.67640
509.0560, 47.35353
509.5381, 47.08427
510.0203, 46.52665
510.5024, 45.50388
510.9845, 44.79829
511.4666, 44.93230
511.9487, 44.86691
512.4308, 44.02147
512.9130, 42.69292
513.3951, 41.50347
513.8772, 40.78070
514.3593, 40.30639
514.8414, 39.62954
515.3235, 38.68670
515.8057, 38.03731
516.2878, 38.14951
516.7699, 38.24538
517.2520, 37.49962
517.7341, 36.05052
518.2162, 34.91825
518.6984, 34.71896
519.1805, 34.95793
519.6626, 35.17655
520.1447, 35.33191
520.6268, 34.96819
521.1089, 33.64859
521.5911, 31.93590
522.0732, 31.23508
522.5553, 31.87148
523.0374, 32.33668
523.5195, 32.28358
524.0016, 32.02585
524.4838, 31.79017
524.9659, 31.61266
525.4480, 31.48138
525.9301, 31.39928
526.4122, 31.34308
526.8943, 31.17871
527.3765, 30.69184
527.8586, 30.41409
528.3407, 30.63084
528.8228, 30.89477
529.3049, 30.76341
529.7870, 30.24525
530.2692, 29.74832
530.7513, 29.57608
531.2334, 29.72594
531.7155, 30.30960
532.1976, 31.68398
532.6797, 32.65171
533.1619, 32.20603
533.6440, 31.33862
534.1261, 31.07168
534.6082, 31.60774
535.0903, 32.31178
535.5724, 32.83742
536.0546, 33.22425
536.5367, 33.50719
537.0188, 33.67535
537.5009, 33.97100
537.9830, 34.69248
538.4651, 35.68967
538.9473, 36.13813
539.4294, 35.38427
539.9115, 34.95647
540.3936, 35.53072
540.8757, 36.54569
541.3578, 37.37969
541.8400, 37.88116
542.3221, 38.13904
542.8042, 38.20203
543.2863, 38.06398
543.7684, 38.11628
544.2505, 38.63023
544.7326, 39.00982
545.2147, 39.09756
545.6968, 39.01783
546.1790, 38.83722
546.6611, 38.59404
547.1432, 38.46921
547.6253, 38.73201
548.1074, 39.34317
548.5895, 39.85048
549.0717, 40.25822
549.5538, 40.51353
550.0359, 40.45326
550.5180, 40.25145
551.0001, 40.15781
551.4822, 40.21151
551.9644, 40.37947
552.4465, 40.59370
552.9286, 40.91707
553.4107, 41.58429
553.8928, 42.65051
554.3749, 43.62154
554.8571, 43.95196
555.3392, 43.67743
555.8213, 44.07451
556.3034, 45.47093
556.7855, 47.02832
557.2676, 48.67532
557.7498, 50.30574
558.2319, 51.78277
558.7140, 53.08540
559.1961, 54.28511
559.6782, 55.50242
560.1603, 56.73524
560.6425, 57.62076
561.1246, 57.81831
561.6067, 58.15682
562.0888, 59.25118
562.5709, 60.43322
563.0530, 60.85471
563.5352, 60.29178
564.0173, 59.54003
564.4994, 59.21228
564.9815, 59.23805
565.4636, 59.36631
565.9457, 59.55104
566.4279, 59.97754
566.9100, 60.90046
567.3921, 62.15009
567.8742, 63.10285
568.3563, 63.59957
568.8384, 64.06779
569.3206, 64.48526
569.8027, 65.03626
570.2848, 66.07336
570.7669, 67.57353
571.2490, 69.10136
571.7311, 70.29622
572.2133, 71.15825
572.6954, 71.64080
573.1775, 71.65218
573.6596, 71.37483
574.1417, 70.72146
574.6238, 69.87847
575.1060, 69.03761
575.5881, 68.19825
576.0702, 67.18553
576.5523, 65.85582
577.0344, 64.23581
577.5165, 62.35101
577.9987, 60.11759
578.4808, 57.98860
578.9629, 56.11313
579.4450, 54.50967
579.9271, 53.22935
580.4092, 52.31937
580.8914, 51.39911
581.3735, 50.20649
581.8556, 49.00603
582.3377, 48.09120
582.8198, 47.46119
583.3019, 46.95522
583.7841, 46.48611
584.2662, 46.06683
584.7483, 45.72783
585.2304, 45.41763
585.7125, 45.28646
586.1946, 45.48090
586.6768, 45.71241
587.1589, 45.79781
587.6410, 45.76570
588.1231, 45.77052
588.6052, 45.93608
589.0873, 46.08358
589.5695, 45.77612
590.0516, 44.94024
590.5337, 44.19359
591.0158, 43.80875
591.4979, 43.35414
591.9800, 42.31820
592.4622, 40.88064
592.9443, 39.79340
593.4264, 39.63147
593.9085, 39.59420
594.3906, 38.97107
594.8727, 37.95033
595.3549, 36.99525
595.8370, 36.24229
596.3191, 35.74014
596.8012, 35.57292
597.2833, 35.78794
597.7654, 36.01367
598.2476, 36.26972
598.7297, 36.51222
599.2118, 36.58900
599.6939, 36.70519
600.1760, 37.18774
600.6581, 38.10560
601.1403, 39.11415
601.6224, 39.77094
602.1045, 40.10179
602.5866, 40.69352
603.0687, 41.68209
603.5508, 42.62585
604.0330, 43.15421
604.5151, 43.57721
604.9972, 44.25709
605.4793, 45.23798
605.9614, 46.46029
606.4435, 48.09164
606.9257, 49.85771
607.4078, 51.30962
607.8899, 52.44454
608.3720, 53.63041
608.8541, 55.09266
609.3362, 56.76649
609.8184, 58.46200
610.3005, 60.14811
610.7826, 61.89994
611.2647, 63.74750
611.7468, 65.63102
612.2289, 67.59604
612.7111, 69.56480
613.1932, 71.36943
613.6753, 72.91905
614.1574, 74.24597
614.6395, 75.36277
615.1216, 76.25373
615.6038, 77.24011
616.0859, 78.45650
616.5680, 79.67946
617.0501, 80.86124
617.5322, 81.93043
618.0143, 82.57405
618.4965, 82.59984
618.9786, 82.32985
619.4607, 82.08891
619.9428, 81.65218
620.4249, 80.54630
620.9070, 78.67277
621.3892, 76.37931
621.8713, 74.00206
622.3534, 71.53159
622.8355, 68.91472
623.3176, 66.08435
623.7997, 63.17930
624.2819, 60.35133
624.7640, 57.38747
625.2461, 53.75039
625.7282, 49.60401
626.2103, 46.15220
626.6924, 44.67564
627.1745, 44.43970
627.6566, 43.60920
628.1387, 42.13173
628.6208, 40.77172
629.1030, 39.82297
629.5851, 39.10988
630.0672, 38.37550
630.5493, 37.61235
631.0314, 36.93675
631.5135, 36.31472
631.9957, 35.83038
632.4778, 35.47266
632.9599, 35.30173
633.4420, 35.53361
633.9241, 36.22940
634.4063, 36.98206
634.8884, 37.13911
635.3705, 36.57824
635.8526, 36.46051
636.3347, 37.03204
636.8168, 37.71857
637.2990, 38.45439
637.7811, 39.11812
638.2632, 39.49633
638.7453, 39.52595
639.2274, 39.62422
639.7095, 40.17865
640.1917, 40.95274
640.6738, 41.47968
641.1559, 41.74207
641.6380, 42.13116
642.1201, 42.90568
642.6022, 43.85375
643.0844, 44.49566
643.5665, 44.67483
644.0486, 44.84600
644.5307, 45.31495
645.0128, 45.48238
645.4949, 44.70950
645.9771, 43.43846
646.4592, 42.61848
646.9413, 42.68496
647.4234, 42.98424
647.9055, 42.51504
648.3876, 41.29577
648.8698, 40.30494
649.3519, 39.77654
649.8340, 39.11717
650.3161, 37.69244
650.7982, 35.95942
651.2803, 34.88734
651.7625, 34.74884
652.2446, 34.73397
652.7267, 34.62526
653.2088, 34.42236
653.6909, 34.02414
654.1730, 33.50187
654.6552, 33.15349
655.1373, 33.16632
655.6194, 33.44259
656.1015, 33.78066
656.5836, 34.34452
657.0657, 34.54227
657.5479, 33.82988
658.0300, 33.23545
658.5121, 33.24154
658.9942, 33.68301
659.4763, 34.23195
659.9584, 34.83622
660.4406, 35.33687
660.9227, 35.45117
661.4048, 35.36553
661.8869, 35.56170
662.3690, 36.11087
662.8511, 36.89085
663.3333, 37.87261
663.8154, 38.98858
664.2975, 39.94579
664.7796, 40.61990
665.2617, 41.30651
665.7438, 41.99747
666.2260, 42.71880
666.7081, 43.37244
667.1902, 44.07613
667.6723, 45.13774
668.1544, 46.76664
668.6365, 48.63133
669.1187, 50.20296
669.6008, 51.49890
670.0829, 52.88947
670.5650, 54.36378
671.0471, 56.08458
671.5292, 58.21713
672.0114, 60.69379
672.4935, 63.19517
672.9756, 65.75917
673.4577, 68.26613
673.9398, 70.65660
674.4219, 72.96402
674.9041, 75.37410
675.3862, 77.76794
675.8683, 79.77589
676.3504, 81.19355
676.8325, 82.00639
677.3146, 82.13628
677.7968, 81.50034
678.2789, 80.58704
678.7610, 79.48353
679.2431, 78.03136
679.7252, 76.00051
680.2073, 73.61058
680.6895, 71.33969
681.1716, 69.41281
681.6537, 67.29630
682.1358, 64.52360
682.6179, 61.45331
683.1000, 58.44586
683.5822, 55.61464
684.0643, 53.14411
684.5464, 51.15090
685.0285, 49.61452
685.5106, 48.51171
685.9927, 48.09304
686.4749, 47.52472
686.9570, 46.59412
687.4391, 45.69649
687.9212, 44.98309
688.4033, 44.43135
688.8854, 43.98132
689.3676, 43.61860
689.8497, 43.34408
690.3318, 43.17206
690.8139, 43.08657
691.2960, 42.95928
691.7781, 42.79568
692.2603, 43.03423
692.7424, 44.00678
693.2245, 45.44413
693.7066, 46.65123
694.1887, 47.49752
694.6708, 48.36974
695.1530, 49.18137
695.6351, 50.09898
696.1172, 51.13059
696.5993, 52.34893
697.0814, 53.85700
697.5635, 55.69247
698.0457, 57.79296
698.5278, 60.31727
699.0099, 63.05409
699.4920, 65.20139
699.9741, 66.64085
700.4562, 68.36781
700.9384, 70.89729
701.4205, 74.03598
701.9026, 77.39399
702.3847, 81.04765
702.8668, 84.69637
703.3489, 88.28490
703.8311, 91.92240
704.3132, 95.39021
704.7953, 99.03506
705.2774, 103.4416
705.7595, 108.7500
706.2416, 114.6098
706.7238, 120.6219
707.2059, 126.8086
707.6880, 133.3016
708.1701, 140.0680
708.6522, 147.3697
709.1343, 155.6205
709.6164, 164.1553
710.0985, 171.8487
710.5806, 178.5383
711.0627, 185.6497
711.5449, 194.2809
712.0270, 202.3174
712.5091, 209.0564
712.9912, 214.4250
713.4733, 218.3310
713.9554, 220.8017
714.4376, 222.0457
714.9197, 222.5299
715.4018, 221.8938
715.8839, 218.5609
716.3660, 212.3855
716.8481, 204.6573
717.3303, 195.3165
717.8124, 185.2812
718.2945, 175.4116
718.7766, 165.7282
719.2587, 156.1336
719.7408, 146.5402
720.2230, 137.1700
720.7051, 127.9202
721.1872, 119.0622
721.6693, 110.8156
722.1514, 103.2551
722.6335, 96.36494
723.1157, 90.15086
723.5978, 84.55644
724.0799, 79.51199
724.5620, 74.99998
725.0441, 70.87505
725.5262, 67.02103
726.0084, 63.74417
726.4905, 61.69440
726.9726, 60.48413
727.4547, 58.65171
727.9368, 55.43489
728.4189, 52.65486
728.9011, 51.11149
729.3832, 50.04883
729.8653, 48.90113
730.3474, 47.58045
730.8295, 46.09236
731.3116, 44.41840
731.7938, 42.76554
732.2759, 41.47890
732.7580, 40.56385
733.2401, 39.90442
733.7222, 39.62360
734.2043, 39.24644
734.6865, 38.40985
735.1686, 37.33031
735.6507, 36.48177
736.1328, 35.91377
736.6149, 35.41453
737.0970, 34.87639
737.5792, 34.45116
738.0613, 34.40017
738.5434, 34.50161
739.0255, 34.28540
739.5076, 33.60082
739.9897, 32.79986
740.4719, 32.33060
740.9540, 32.13140
741.4361, 31.63282
741.9182, 30.68061
742.4003, 30.29446
742.8824, 31.22751
743.3646, 32.47142
743.8467, 32.53272
744.3288, 31.39930
744.8109, 30.69689
745.2930, 30.88345
745.7751, 31.14186
746.2573, 31.18528
746.7394, 31.09520
747.2215, 30.87103
747.7036, 30.59466
748.1857, 30.58545
748.6678, 31.19478
749.1500, 32.04947
749.6321, 32.19744
750.1142, 31.63971
750.5963, 31.39734
751.0784, 31.78255
751.5605, 32.19300
752.0427, 32.15281
752.5248, 31.72229
753.0069, 31.24026
753.4890, 30.30298
753.9711, 29.94093
754.4532, 30.81934
754.9354, 31.84099
755.4175, 32.16067
755.8996, 31.98401
756.3817, 31.97365
756.8638, 32.42213
757.3459, 32.90993
757.8281, 32.83312
758.3102, 32.21846
758.7923, 32.78181
759.2744, 33.22570
759.7565, 33.55650
760.2386, 33.43570
760.7208, 33.89817
761.2029, 34.12681
761.6850, 34.34591
762.1671, 34.89038
762.6492, 34.83523
763.1313, 35.37455
763.6135, 35.67665
764.0956, 37.00590
764.5777, 38.10569
765.0598, 38.65239
765.5419, 39.00338
766.0240, 39.34758
766.5062, 39.66463
766.9883, 39.98492
767.4704, 40.26406
767.9525, 40.26247
768.4346, 39.91520
768.9167, 39.51701
769.3989, 39.36031
769.8810, 39.36452
770.3631, 39.02783
770.8452, 38.03383
771.3273, 37.27128
771.8094, 37.02494
772.2916, 36.79567
772.7737, 36.31717
773.2558, 35.66162
773.7379, 34.97984
774.2200, 34.28248
774.7021, 33.69900
775.1843, 33.34170
775.6664, 33.13652
776.1485, 33.07269
776.6306, 33.08129
777.1127, 32.93288
777.5948, 32.52358
778.0770, 31.91851
778.5591, 31.10732
779.0412, 30.04388
779.5233, 29.81243
780.0054, 30.95071
780.4875, 31.78847
780.9697, 31.56661
781.4518, 30.96488
781.9339, 30.67671
782.4160, 30.66948
782.8981, 30.45142
783.3802, 29.76788
783.8624, 29.00381
784.3445, 28.15040
784.8266, 27.43913
785.3087, 27.31512
785.7908, 27.69540
786.2729, 27.96073
786.7551, 27.67707
787.2372, 27.13652
787.7193, 26.95020
788.2014, 27.11408
788.6835, 27.20665
789.1656, 27.15739
789.6478, 27.13284
790.1299, 27.28577
790.6120, 27.49873
791.0941, 27.44895
791.5762, 26.96459
792.0583, 26.74593
792.5404, 27.04278
793.0225, 27.38072
793.5046, 27.73130
793.9868, 27.89565
794.4689, 27.44776
794.9510, 26.39872
795.4331, 25.56885
795.9152, 25.73053
796.3973, 26.38181
796.8795, 26.73872
797.3616, 26.84277
797.8437, 26.85503
798.3258, 26.80984
798.8079, 26.81850
799.2900, 27.00739
799.7722, 27.31676
800.2543, 27.37429
800.7364, 26.85119
801.2185, 26.74914
801.7006, 27.72329
802.1827, 28.55316
802.6649, 28.44913
803.1470, 27.86169
803.6291, 27.68349
804.1112, 28.18355
804.5933, 28.59226
805.0754, 27.99802
805.5576, 27.54811
806.0397, 29.07953
806.5218, 29.70091
807.0039, 30.15314
807.4860, 30.44530
807.9681, 30.09797
808.4503, 30.57647
808.9324, 30.72397
809.4145, 30.85793
809.8966, 31.45260
810.3787, 31.19832
810.8608, 31.25106
811.3430, 31.50719
811.8251, 31.63302
812.3072, 31.67074
812.7893, 31.90753
813.2714, 32.69152
813.7535, 33.15157
814.2357, 33.04521
814.7178, 32.68645
815.1999, 32.11589
815.6820, 31.50158
816.1641, 31.15353
816.6462, 31.18487
817.1284, 31.27404
817.6105, 31.18255
818.0926, 30.92633
818.5747, 30.39063
819.0568, 29.66404
819.5389, 29.31274
820.0211, 28.86484
820.5032, 29.28484
820.9853, 29.53568
821.4674, 29.62646
821.9495, 29.07776
822.4316, 29.35481
822.9138, 29.30095
823.3959, 29.23350
823.8780, 29.62678
824.3601, 29.17109
824.8422, 29.22855
825.3243, 29.66255
825.8065, 29.92743
826.2886, 30.03221
826.7707, 29.49753
827.2528, 29.78860
827.7349, 29.74874
828.2170, 29.69531
828.6992, 30.10262
829.1813, 29.66094
829.6634, 30.06092
830.1455, 30.12493
830.6276, 30.34271
831.1097, 30.22751
831.5919, 30.21518
832.0740, 30.14038
832.5561, 30.68980
833.0382, 31.07006
833.5203, 31.29026
834.0024, 30.87096
834.4846, 31.27748
834.9667, 31.35300
835.4488, 31.41498
835.9309, 31.93768
836.4130, 31.61141
836.8951, 32.12677
837.3773, 32.30623
837.8594, 32.63939
838.3415, 32.63960
838.8236, 32.74265
839.3057, 33.17878
839.7878, 33.10145
840.2700, 33.50996
840.7521, 34.10669
841.2342, 34.67816
841.7163, 35.14411
842.1984, 35.41454
842.6805, 35.33138
843.1627, 35.08637
843.6448, 35.30146
844.1269, 35.98835
844.6090, 36.66637
845.0911, 37.26435
845.5732, 37.79233
846.0554, 38.23634
846.5375, 38.62479
847.0196, 39.04461
847.5017, 39.56835
847.9838, 39.94883
848.4659, 40.16214
848.9481, 40.26660
849.4302, 40.15074
849.9123, 40.01521
850.3944, 40.09870
850.8765, 40.42522
851.3586, 40.84138
851.8408, 41.42211
852.3229, 41.91312
852.8050, 41.98909
853.2871, 41.87431
853.7692, 41.95657
854.2513, 42.27155
854.7335, 42.66241
855.2156, 43.04380
855.6977, 43.33238
856.1798, 43.26676
856.6619, 42.86799
857.1440, 42.87415
857.6262, 43.41469
858.1083, 43.87382
858.5904, 44.01145
859.0725, 43.88335
859.5546, 43.46709
860.0367, 42.69823
860.5189, 42.42188
861.0010, 43.05470
861.4831, 43.59509
861.9652, 43.96766
862.4473, 44.12622
862.9294, 43.86599
863.4116, 43.37611
863.8937, 43.19855
864.3758, 43.61355
864.8579, 43.96086
865.3400, 43.76446
865.8221, 43.32989
866.3043, 42.88601
866.7864, 42.51743
867.2685, 42.36966
867.7506, 42.10685
868.2327, 42.52340
868.7148, 42.77080
869.1970, 42.85815
869.6791, 42.30600
870.1612, 42.57961
870.6433, 42.52230
871.1254, 42.45142
871.6075, 42.84125
872.0897, 42.38213
872.5718, 42.76465
873.0539, 42.81120
873.5360, 43.01152
874.0181, 42.87887
874.5002, 42.84906
874.9823, 43.15233
875.4644, 43.27118
875.9465, 43.10019
876.4286, 43.31029
876.9108, 42.83953
877.3929, 42.96623
877.8750, 43.35070
878.3571, 43.19647
878.8392, 43.41265
879.3214, 43.48776
879.8035, 42.92174
880.2856, 43.10004
880.7677, 43.63598
881.2498, 44.06301
881.7319, 44.39016
882.2141, 44.13818
882.6962, 44.77212
883.1783, 45.13530
883.6604, 45.54520
884.1425, 46.47604
884.6246, 46.61807
885.1068, 47.66225
885.5889, 48.43052
886.0710, 49.41267
886.5531, 50.12220
887.0352, 50.99479
887.5173, 52.26057
887.9995, 53.40255
888.4816, 54.20494
888.9637, 54.58114
889.4458, 54.73875
889.9279, 55.79465
890.4100, 58.02308
890.8922, 60.09620
891.3743, 61.57376
891.8564, 63.16224
892.3385, 65.31075
892.8206, 67.65611
893.3027, 69.62418
893.7849, 71.30634
894.2670, 73.43910
894.7491, 76.66438
895.2312, 79.87496
895.7133, 81.73093
896.1954, 83.04818
896.6776, 85.11549
897.1597, 87.93655
897.6418, 91.03496
898.1239, 94.18452
898.6060, 97.29937
899.0881, 100.2831
899.5703, 103.1266
900.0524, 105.8747
900.5345, 108.5307
901.0166, 110.8439
901.4987, 112.6643
901.9808, 114.5954
902.4630, 117.3494
902.9451, 120.4293
903.4272, 122.0375
903.9093, 121.5325
904.3914, 121.0537
904.8735, 120.6966
905.3557, 120.2432
905.8378, 119.8802
906.3199, 119.2216
906.8020, 117.8349
907.2841, 115.7167
907.7662, 113.1586
908.2484, 109.9568
908.7305, 106.6878
909.2126, 103.5453
909.6947, 100.5017
910.1768, 97.47034
910.6589, 94.51554
911.1411, 91.81807
911.6232, 89.46221
912.1053, 87.07404
912.5874, 84.17034
913.0695, 81.11779
913.5516, 78.55308
914.0338, 76.34544
914.5159, 73.98081
914.9980, 71.36203
915.4801, 68.83656
915.9622, 66.66202
916.4443, 64.75846
916.9265, 62.91266
917.4086, 61.12187
917.8907, 59.45880
918.3728, 57.93746
918.8549, 56.39885
919.3370, 54.71272
919.8192, 53.08048
920.3013, 51.80434
920.7834, 50.88588
921.2655, 49.88517
921.7476, 48.57034
922.2297, 47.57549
922.7119, 47.33993
923.1940, 47.09907
923.6761, 46.21311
924.1582, 45.06404
924.6403, 44.50898
925.1224, 44.79342
925.6046, 44.92865
926.0867, 44.49055
926.5688, 44.04991
927.0509, 43.89524
927.5330, 43.91508
928.0151, 44.06227
928.4973, 44.25122
928.9794, 44.19304
929.4615, 43.59348
929.9436, 43.14097
930.4257, 43.76062
930.9078, 44.70777
931.3900, 44.74935
931.8721, 44.09798
932.3542, 43.67181
932.8363, 43.78735
933.3184, 44.16072
933.8005, 44.52065
934.2827, 44.92030
934.7648, 45.56742
935.2469, 46.42313
935.7290, 47.10406
936.2111, 47.53913
936.6932, 47.91503
937.1754, 48.29967
937.6575, 48.83025
938.1396, 49.81320
938.6217, 51.30645
939.1038, 52.50868
939.5859, 53.25257
940.0681, 54.17206
940.5502, 55.53547
941.0323, 56.99026
941.5144, 58.27987
941.9965, 59.41624
942.4786, 60.40061
942.9608, 60.64959
943.4429, 61.95837
943.9250, 65.39180
944.4071, 68.72807
944.8892, 70.96803
945.3713, 72.70723
945.8535, 74.49642
946.3356, 76.44291
946.8177, 78.69638
947.2998, 81.50566
947.7819, 84.33888
948.2640, 86.83666
948.7462, 89.30198
949.2283, 91.93484
949.7104, 94.77898
950.1925, 97.99937
950.6746, 101.6063
951.1567, 105.0491
951.6389, 107.8579
952.1210, 110.3311
952.6031, 112.7362
953.0852, 115.1576
953.5673, 117.9409
954.0494, 121.0069
954.5316, 123.6585
955.0137, 125.5154
955.4958, 127.1579
955.9779, 129.4398
956.4600, 132.2475
956.9421, 134.8955
957.4242, 137.4245
957.9063, 140.6141
958.3884, 144.6985
958.8705, 149.2182
959.3527, 153.8044
959.8348, 158.4913
960.3169, 163.3721
960.7990, 168.6481
961.2811, 173.0764
961.7632, 176.4193
962.2454, 179.5430
962.7275, 182.9882
963.2096, 185.9887
963.6917, 187.7277
964.1738, 188.2465
964.6559, 188.0027
965.1381, 187.2835
965.6202, 185.3178
966.1023, 181.4933
966.5844, 177.1471
967.0665, 172.5336
967.5486, 167.8883
968.0308, 163.5307
968.5129, 159.4707
968.9950, 155.4597
969.4771, 151.3885
969.9592, 147.4268
970.4413, 143.2874
970.9235, 139.6025
971.4056, 136.9405
971.8877, 135.1321
972.3698, 133.7828
972.8519, 132.7926
973.3340, 132.2617
973.8162, 132.2821
974.2983, 132.7465
974.7804, 133.7457
975.2625, 135.0316
975.7446, 136.1934
976.2267, 137.2873
976.7089, 138.8255
977.1910, 141.0777
977.6731, 143.1831
978.1552, 144.1531
978.6373, 144.4419
979.1194, 144.9303
979.6016, 145.4356
980.0837, 145.3634
980.5658, 144.5761
981.0479, 143.1133
981.5300, 140.9635
982.0121, 138.4437
982.4943, 136.1685
982.9764, 134.0659
983.4585, 131.5856
983.9406, 128.7423
984.4227, 126.2177
984.9048, 124.2409
985.3870, 122.5380
985.8691, 120.8797
986.3512, 119.2672
986.8333, 117.6613
987.3154, 116.0353
987.7975, 114.6591
988.2797, 113.5710
988.7618, 112.6126
989.2439, 111.6945
989.7260, 110.9535
990.2081, 110.6263
990.6902, 110.6409
991.1724, 110.2981
991.6545, 109.5587
992.1366, 108.5272
992.6187, 106.9066
993.1008, 105.4487
993.5829, 104.6356
994.0651, 104.0778
994.5472, 102.9934
995.0293, 101.3544
995.5114, 101.5480
995.9935, 101.3539
996.4756, 101.0404
996.9578, 100.6137
997.4399, 99.73552
997.9220, 99.44048
998.4041, 98.91173
998.8862, 98.37339
999.3683, 98.16049
999.8505, 97.34784
1000.333, 96.76591
1000.815, 96.55727
1001.297, 95.87398
1001.779, 94.75969
1002.261, 92.99864
1002.743, 90.92287
1003.225, 89.16748
1003.707, 87.89505
1004.190, 86.67878
1004.672, 85.53292
1005.154, 84.12139
1005.636, 82.16297
1006.118, 79.83431
1006.600, 76.94437
1007.082, 73.90949
1007.564, 71.90536
1008.046, 71.36811
1008.529, 70.75356
1009.011, 68.76669
1009.493, 66.16801
1009.975, 63.76456
1010.457, 61.37724
1010.939, 58.42471
1011.421, 55.09451
1011.903, 52.29311
1012.385, 50.47689
1012.868, 49.26417
1013.350, 48.38611
1013.832, 47.75109
1014.314, 47.56724
1014.796, 47.43191
1015.278, 45.82598
1015.760, 42.74644
1016.242, 40.06846
1016.725, 38.90989
1017.207, 38.46593
1017.689, 37.66169
1018.171, 36.58914
1018.653, 35.49035
1019.135, 34.41685
1019.617, 33.71173
1020.099, 33.44075
1020.581, 33.29440
1021.064, 33.07354
1021.546, 32.77967
1022.028, 32.34003
1022.510, 31.79040
1022.992, 31.57126
1023.474, 31.68958
1023.956, 31.87940
1024.438, 32.08011
1024.921, 32.28045
1025.403, 32.47696
1025.885, 32.65603
1026.367, 32.79911
1026.849, 32.91176
1027.331, 32.91167
1027.813, 32.82189
1028.295, 32.43189
1028.777, 31.58189
1029.260, 30.77154
1029.742, 30.41268
1030.224, 30.38783
1030.706, 30.42877
1031.188, 30.62840
1031.670, 30.32314
1032.152, 29.23502
1032.634, 28.48850
1033.116, 28.58971
1033.599, 28.74360
1034.081, 28.21495
1034.563, 27.27490
1035.045, 26.80637
1035.527, 27.04807
1036.009, 26.90876
1036.491, 26.12874
1036.973, 25.45899
1037.456, 25.06494
1037.938, 24.91420
1038.420, 25.12115
1038.902, 25.52551
1039.384, 25.53555
1039.866, 24.81632
1040.348, 24.65318
1040.830, 25.52516
1041.313, 26.26786
1041.795, 26.58935
1042.277, 26.66674
1042.759, 26.57967
1043.241, 26.36581
1043.723, 26.12543
1044.205, 25.78783
1044.687, 25.62489
1045.169, 25.49084
1045.651, 25.73794
1046.134, 27.03778
1046.616, 28.25549
1047.098, 28.26830
1047.580, 27.45857
1048.062, 27.00221
1048.544, 27.05153
1049.026, 27.26261
1049.508, 27.77423
1049.991, 28.20592
1050.473, 28.43387
1050.955, 28.53048
1051.437, 28.43484
1051.919, 28.28033
1052.401, 28.46986
1052.883, 29.21692
1053.365, 29.59145
1053.848, 28.92510
1054.330, 28.45897
1054.812, 28.80680
1055.294, 29.43160
1055.776, 29.98443
1056.258, 30.40317
1056.740, 30.59749
1057.222, 30.50761
1057.704, 30.49079
1058.187, 30.84767
1058.669, 31.04171
1059.151, 30.64217
1059.633, 30.15945
1060.115, 30.17082
1060.597, 30.42624
1061.079, 30.25754
1061.561, 29.49106
1062.043, 28.78968
1062.526, 28.51781
1063.008, 28.18064
1063.490, 27.46535
1063.972, 26.66632
1064.454, 25.96133
1064.936, 25.40883
1065.418, 25.07917
1065.900, 24.98624
1066.383, 25.02756
1066.865, 25.36605
1067.347, 25.56855
1067.829, 25.34305
1068.311, 24.97826
1068.793, 24.67134
1069.275, 24.43694
1069.757, 24.28085
1070.240, 24.19643
1070.722, 24.04757
1071.204, 23.76003
1071.686, 23.41848
1072.168, 22.75725
1072.650, 22.34485
1073.132, 22.79129
1073.614, 23.76225
1074.096, 24.79796
1074.578, 25.74869
1075.061, 26.24279
1075.543, 25.70803
1076.025, 25.35115
1076.507, 26.06685
1076.989, 26.87692
1077.471, 26.89016
1077.953, 26.53696
1078.435, 26.53599
1078.918, 26.96535
1079.400, 27.47932
1079.882, 27.99745
1080.364, 28.47730
1080.846, 28.98368
1081.328, 29.35964
1081.810, 29.37063
1082.292, 29.25630
1082.774, 29.39462
1083.257, 29.75181
1083.739, 29.96475
1084.221, 29.95448
1084.703, 29.65812
1085.185, 28.81901
1085.667, 27.93743
1086.149, 27.33447
1086.631, 26.88091
1087.114, 26.38090
1087.596, 25.86646
1088.078, 25.59733
1088.560, 25.78452
1089.042, 25.53580
1089.524, 23.78169
1090.006, 22.31596
1090.488, 22.64828
1090.970, 23.38382
1091.453, 22.95246
1091.935, 21.71644
1092.417, 20.94160
1092.899, 20.95038
1093.381, 21.05442
1093.863, 21.07781
1094.345, 21.03845
1094.827, 20.96052
1095.309, 20.80800
1095.792, 20.48501
1096.274, 20.08900
1096.756, 19.80120
1097.238, 19.65364
1097.720, 19.54102
1098.202, 19.36444
1098.684, 19.31009
1099.166, 19.52829
1099.649, 19.79943
1100.131, 19.98655
1100.613, 20.11904
1101.095, 20.28654
1101.577, 20.48229
1102.059, 20.53545
1102.541, 20.28231
1103.023, 20.08413
1103.505, 19.86921
1103.988, 19.90864
1104.470, 20.61660
1104.952, 21.46961
1105.434, 21.81366
1105.916, 21.71962
1106.398, 21.79277
1106.880, 22.39475
1107.362, 22.51269
1107.844, 21.56036
1108.327, 20.64851
1108.809, 20.09826
1109.291, 19.83955
1109.773, 20.03877
1110.255, 20.44408
1110.737, 20.26386
1111.219, 19.17033
1111.701, 18.56449
1112.184, 17.92060
1112.666, 18.36511
1113.148, 18.60544
1113.630, 18.64748
1114.112, 18.18266
1114.594, 18.15400
1115.076, 17.81702
1115.558, 17.37610
1116.041, 17.13522
1116.523, 17.30926
1117.005, 17.32596
1117.487, 17.45470
1117.969, 17.47461
1118.451, 17.39148
1118.933, 16.89684
1119.415, 16.93359
1119.897, 16.75740
1120.380, 16.57220
1120.862, 16.68375
1121.344, 16.24897
1121.826, 16.35581
1122.308, 15.81507
1122.790, 16.05546
1123.272, 16.37735
1123.754, 16.44441
1124.236, 16.32023
1124.719, 16.22664
1125.201, 16.18942
1125.683, 16.02739
1126.165, 15.69106
1126.647, 15.42087
1127.129, 15.27964
1127.611, 15.20037
1128.093, 15.14453
1128.576, 15.10697
1129.058, 15.07010
1129.540, 15.03760
1130.022, 15.09770
1130.504, 15.25577
1130.986, 15.48127
1131.468, 15.79284
1131.950, 15.88310
1132.432, 15.56726
1132.915, 15.22128
1133.397, 15.33672
1133.879, 15.74213
1134.361, 15.78786
1134.843, 15.51266
1135.325, 15.36235
1135.807, 15.36902
1136.289, 15.55946
1136.771, 15.93192
1137.254, 15.97563
1137.736, 15.21121
1138.218, 14.18704
1138.700, 13.93076
1139.182, 14.23901
1139.664, 14.46656
1140.146, 14.62284
1140.628, 14.90888
1141.111, 15.30819
1141.593, 15.44576
1142.075, 15.12185
1142.557, 14.60966
1143.039, 14.12257
1143.521, 13.72641
1144.003, 13.57523
1144.485, 13.58280
1144.968, 13.59136
1145.450, 13.58441
1145.932, 13.55528
1146.414, 13.51863
1146.896, 13.61762
1147.378, 14.01752
1147.860, 14.45867
1148.342, 14.76935
1148.824, 14.91678
1149.307, 14.74925
1149.789, 14.44317
1150.271, 14.36510
1150.753, 14.48827
1151.235, 14.37115
1151.717, 13.73294
1152.199, 13.32882
1152.681, 13.79716
1153.163, 14.39812
1153.646, 14.79338
1154.128, 14.94622
1154.610, 14.74015
1155.092, 14.30841
1155.574, 13.91158
1156.056, 13.59669
1156.538, 13.38102
1157.020, 13.24415
1157.503, 13.24328
1157.985, 13.62174
1158.467, 13.89010
1158.949, 13.54211
1159.431, 13.05199
1159.913, 13.07770
1160.395, 13.58405
1160.877, 14.05772
1161.359, 14.72984
1161.842, 14.83347
1162.324, 13.88281
1162.806, 13.09212
1163.288, 12.71662
1163.770, 12.70857
1164.252, 13.20497
1164.734, 13.91864
1165.216, 14.19956
1165.698, 14.01496
1166.181, 13.77142
1166.663, 13.32808
1167.145, 13.46502
1167.627, 14.56222
1168.109, 15.18247
1168.591, 14.51834
1169.073, 13.50914
1169.555, 13.22645
1170.037, 13.51103
1170.520, 13.87512
1171.002, 14.30648
1171.484, 14.27610
1171.966, 13.77340
1172.448, 13.23524
1172.930, 12.78373
1173.412, 12.66848
1173.894, 13.08287
1174.377, 13.67189
1174.859, 13.94990
1175.341, 13.97009
1175.823, 13.76284
1176.305, 13.44842
1176.787, 13.40322
1177.269, 13.63120
1177.751, 13.95872
1178.234, 14.30615
1178.716, 14.58285
1179.198, 14.76921
1179.680, 14.74213
1180.162, 14.16239
1180.644, 13.45672
1181.126, 13.16087
1181.608, 13.14795
1182.090, 13.14296
1182.573, 13.12546
1183.055, 13.27941
1183.537, 13.72117
1184.019, 13.98100
1184.501, 13.63819
1184.983, 13.26437
1185.465, 12.92379
1185.947, 12.92916
1186.429, 14.73141
1186.912, 14.77584
1187.394, 14.71181
1187.876, 14.54481
1188.358, 13.96620
1188.840, 13.35572
1189.322, 13.47013
1189.804, 13.51136
1190.286, 13.51254
1190.769, 13.47672
1191.251, 13.41204
1191.733, 13.26885
1192.215, 13.13138
1192.697, 13.24587
1193.179, 13.65756
1193.661, 13.93439
1194.143, 14.07336
1194.625, 14.09330
1195.108, 14.01158
1195.590, 13.69703
1196.072, 13.00826
1196.554, 12.40758
1197.036, 12.46695
1197.518, 12.95640
1198.000, 13.15167
1198.482, 13.09392
1198.964, 13.16278
1199.447, 13.36332
1199.929, 13.64885
1200.411, 13.98010
1200.893, 14.11354
1201.375, 13.90533
1201.857, 13.52412
1202.339, 13.09037
1202.821, 12.67230
1203.304, 12.27565
1203.786, 12.03242
1204.268, 12.30152
1204.750, 12.90479
1205.232, 13.43063
1205.714, 13.73482
1206.196, 13.66484
1206.678, 12.95170
1207.161, 12.46103
1207.643, 13.16094
1208.125, 13.77864
1208.607, 13.19608
1209.089, 12.26567
1209.571, 11.87131
1210.053, 11.91114
1210.535, 11.94053
1211.017, 11.89047
1211.500, 11.96723
1211.982, 12.43988
1212.464, 12.67091
1212.946, 12.31910
1213.428, 12.05344
1213.910, 12.17623
1214.392, 12.42474
1214.874, 12.57083
1215.356, 12.63527
1215.839, 12.68240
1216.321, 12.71546
1216.803, 12.66952
1217.285, 12.50588
1217.767, 12.51180
1218.249, 12.06518
1218.731, 12.34916
1219.213, 12.52429
1219.696, 12.59648
1220.178, 12.25705
1220.660, 12.44904
1221.142, 12.42806
1221.624, 12.39835
1222.106, 12.26746
1222.588, 11.84341
1223.070, 11.84394
1223.552, 12.23121
1224.035, 12.79590
1224.517, 13.44233
1224.999, 13.87123
1225.481, 13.67294
1225.963, 13.32277
1226.445, 13.29824
1226.927, 13.30719
1227.409, 12.82394
1227.891, 12.26428
1228.374, 12.53908
1228.856, 13.51830
1229.338, 13.90976
1229.820, 13.16272
1230.302, 12.56575
1230.784, 12.41025
1231.266, 12.45026
1231.748, 12.80772
1232.231, 13.11686
1232.713, 13.08323
1233.195, 12.93398
1233.677, 13.02969
1234.159, 13.31993
1234.641, 13.32112
1235.123, 12.93255
1235.605, 12.75299
1236.088, 12.84189
1236.570, 12.87643
1237.052, 12.76559
1237.534, 12.65584
1238.016, 12.63505
1238.498, 12.72338
1238.980, 13.06177
1239.462, 13.41256
1239.944, 12.91813
1240.427, 11.95519
1240.909, 11.62035
1241.391, 11.88086
1241.873, 12.38340
1242.355, 12.96873
1242.837, 13.40295
1243.319, 13.55851
1243.801, 13.57682
1244.283, 13.49668
1244.766, 13.40324
1245.248, 13.43631
1245.730, 13.42004
1246.212, 13.07606
1246.694, 12.60715
1247.176, 12.42696
1247.658, 12.53863
1248.140, 12.47729
1248.622, 11.96247
1249.105, 11.72918
1249.587, 12.07174
1250.069, 12.26762
1250.551, 11.96998
1251.033, 11.83640
1251.515, 12.40101
1251.997, 13.14610
1252.479, 13.29559
1252.962, 12.93381
1253.444, 12.39706
1253.926, 11.69927
1254.408, 11.85965
1254.890, 12.84783
1255.372, 13.30526
1255.854, 12.94482
1256.336, 12.58520
1256.818, 12.69803
1257.301, 12.91418
1257.783, 12.82956
1258.265, 12.61707
1258.747, 12.46917
1259.229, 12.37488
1259.711, 12.27532
1260.193, 12.23775
1260.675, 12.50515
1261.157, 12.98247
1261.640, 13.11812
1262.122, 12.66843
1262.604, 12.25349
1263.086, 11.95137
1263.568, 11.87749
1264.050, 12.34081
1264.532, 12.72924
1265.014, 12.60847
1265.497, 12.29741
1265.979, 12.14832
1266.461, 12.12381
1266.943, 12.07297
1267.425, 11.99627
1267.907, 11.85497
1268.389, 11.62407
1268.871, 11.61746
1269.354, 11.89216
1269.836, 12.35674
1270.318, 12.97760
1270.800, 13.36999
1271.282, 13.09088
1271.764, 12.58158
1272.246, 12.56086
1272.728, 12.79697
1273.210, 12.87994
1273.693, 12.90492
1274.175, 13.14793
1274.657, 13.53170
1275.139, 13.75686
1275.621, 13.73855
1276.103, 13.52310
1276.585, 12.87660
1277.067, 12.45677
1277.549, 12.75914
1278.032, 12.98324
1278.514, 12.43030
1278.996, 11.94952
1279.478, 12.49520
1279.960, 13.45972
1280.442, 13.60728
1280.924, 12.97202
1281.406, 12.69298
1281.889, 12.83857
1282.371, 12.75699
1282.853, 12.37833
1283.335, 12.34745
1283.817, 12.84206
1284.299, 13.27009
1284.781, 13.24879
1285.263, 13.03545
1285.745, 12.89121
1286.228, 12.81594
##END=



