##NAMES=Axinite-(Mn)
##RRUFFID=R050299
##IDEAL CHEMISTRY=Ca_4_Mn^2+^_2_Al_4_[B_2_Si_8_O_30_](OH)_2_
##LOCALITY=Dalnegorsk, Russia
##OWNER=RRUFF
##SOURCE=Eugene Schlepp
##DESCRIPTION=Brown axe-head-shaped crystal
##STATUS=The identification of this mineral has been confirmed by X-ray diffraction and chemical analysis
##URL=rruff.info/R050299
##MEASURED CHEMISTRY=Ca_2.00_(Mn_0.64_Fe^2+^_0.34_Mg_0.02_)Al_2.00_B_1.00_Si_4.00_O_15_(OH)
92.35352, 4.813406
92.83563, 4.594452
93.31775, 4.501288
93.79987, 4.572165
94.28198, 4.773953
94.76410, 5.007354
95.24622, 5.234784
95.72833, 5.501077
96.21045, 5.928395
96.69257, 6.527359
97.17468, 7.148729
97.65680, 7.652458
98.13892, 8.042777
98.62103, 8.403133
99.10315, 8.706879
99.58527, 8.983034
100.0674, 9.434417
100.5495, 10.08832
101.0316, 10.84929
101.5137, 11.56483
101.9958, 12.18744
102.4780, 12.94972
102.9601, 13.94247
103.4422, 15.19841
103.9243, 16.45250
104.4064, 17.65808
104.8885, 18.89776
105.3707, 20.32964
105.8528, 21.83550
106.3349, 23.68620
106.8170, 26.04908
107.2991, 29.49244
107.7813, 32.36253
108.2634, 34.36581
108.7455, 35.76469
109.2276, 37.36795
109.7097, 40.14015
110.1918, 42.42579
110.6740, 43.54078
111.1561, 42.55114
111.6382, 41.41991
112.1203, 40.20118
112.6024, 38.91064
113.0845, 37.70743
113.5667, 36.48589
114.0488, 35.43517
114.5309, 34.67072
115.0130, 34.19311
115.4951, 34.04164
115.9772, 34.31166
116.4594, 34.99511
116.9415, 35.75741
117.4236, 36.51210
117.9057, 37.26995
118.3878, 38.03915
118.8699, 38.61411
119.3521, 39.36388
119.8342, 40.64165
120.3163, 42.52430
120.7984, 44.31208
121.2805, 45.35466
121.7626, 46.02758
122.2448, 46.97292
122.7269, 48.70784
123.2090, 50.75610
123.6911, 52.61590
124.1732, 54.17837
124.6553, 55.78720
125.1375, 57.57174
125.6196, 59.61483
126.1017, 62.17846
126.5838, 65.42802
127.0659, 69.30752
127.5480, 73.85967
128.0302, 79.34521
128.5123, 85.02637
128.9944, 90.59227
129.4765, 95.87783
129.9586, 99.34262
130.4407, 99.55144
130.9229, 96.91132
131.4050, 92.75152
131.8871, 86.64986
132.3692, 79.89563
132.8513, 75.58802
133.3334, 73.71638
133.8156, 72.78806
134.2977, 71.81971
134.7798, 71.06953
135.2619, 71.13018
135.7440, 72.16696
136.2261, 74.07584
136.7083, 76.69697
137.1904, 80.20901
137.6725, 83.88307
138.1546, 87.28845
138.6367, 90.63173
139.1188, 92.73703
139.6010, 93.17310
140.0831, 91.94891
140.5652, 90.36461
141.0473, 88.15920
141.5294, 85.92435
142.0115, 84.49065
142.4937, 84.07375
142.9758, 83.87430
143.4579, 83.54200
143.9400, 82.86201
144.4221, 83.05081
144.9042, 84.07993
145.3864, 85.96052
145.8685, 88.78400
146.3506, 93.37293
146.8327, 97.81052
147.3148, 101.5301
147.7969, 104.3347
148.2791, 106.8262
148.7612, 108.9445
149.2433, 110.7556
149.7254, 112.4522
150.2075, 114.8155
150.6896, 116.3884
151.1718, 116.5945
151.6539, 114.4669
152.1360, 112.4224
152.6181, 109.9319
153.1002, 107.4602
153.5823, 106.4173
154.0645, 107.3406
154.5466, 109.3546
155.0287, 112.0731
155.5108, 116.7483
155.9929, 120.6129
156.4750, 123.6973
156.9572, 125.8009
157.4393, 125.9662
157.9214, 123.3842
158.4035, 119.1956
158.8856, 114.1152
159.3677, 106.8659
159.8499, 100.1544
160.3320, 94.51743
160.8141, 89.97610
161.2962, 86.75439
161.7783, 85.49284
162.2604, 85.35426
162.7426, 85.64744
163.2247, 86.18738
163.7068, 87.09297
164.1889, 88.25256
164.6710, 89.69313
165.1531, 91.94105
165.6353, 95.21124
166.1174, 99.42867
166.5995, 104.5129
167.0816, 110.8356
167.5637, 117.7120
168.0458, 124.7362
168.5280, 131.8395
169.0101, 139.3076
169.4922, 148.3314
169.9743, 157.5694
170.4564, 165.0843
170.9385, 169.7862
171.4207, 172.6194
171.9028, 174.7694
172.3849, 176.3333
172.8670, 175.6798
173.3491, 170.4952
173.8312, 162.2373
174.3134, 153.6543
174.7955, 145.5367
175.2776, 138.0451
175.7597, 131.4840
176.2418, 125.8535
176.7239, 120.8998
177.2061, 116.4084
177.6882, 112.2879
178.1703, 108.3768
178.6524, 105.0151
179.1345, 101.6559
179.6166, 97.24528
180.0988, 91.53160
180.5809, 85.56926
181.0630, 80.36945
181.5451, 75.84584
182.0272, 71.87952
182.5093, 68.28284
182.9915, 65.15051
183.4736, 62.82611
183.9557, 61.36755
184.4378, 60.49413
184.9199, 59.90744
185.4020, 59.60145
185.8842, 59.46295
186.3663, 59.36258
186.8484, 59.36831
187.3305, 59.76508
187.8126, 60.62404
188.2947, 61.75665
188.7769, 62.79680
189.2590, 63.76215
189.7411, 65.02544
190.2232, 66.95764
190.7053, 69.44933
191.1874, 71.88360
191.6696, 74.29138
192.1517, 76.52444
192.6338, 78.37795
193.1159, 79.85609
193.5980, 80.88770
194.0801, 81.20330
194.5623, 80.86834
195.0444, 80.82339
195.5265, 81.14408
196.0086, 81.80199
196.4907, 82.71485
196.9728, 83.86807
197.4550, 85.38518
197.9371, 87.28905
198.4192, 89.57536
198.9013, 92.42327
199.3834, 95.83607
199.8655, 99.80782
200.3477, 104.4649
200.8298, 109.8653
201.3119, 115.6673
201.7940, 121.6534
202.2761, 127.7840
202.7582, 134.5993
203.2404, 142.3138
203.7225, 150.6187
204.2046, 158.9444
204.6867, 167.5909
205.1688, 175.2766
205.6509, 181.0992
206.1331, 184.9829
206.6152, 187.7809
207.0973, 189.5804
207.5794, 190.3386
208.0615, 189.7968
208.5436, 187.7316
209.0258, 184.9471
209.5079, 182.1390
209.9900, 179.6362
210.4721, 175.5897
210.9542, 169.5789
211.4363, 162.0176
211.9185, 154.1916
212.4006, 145.9651
212.8827, 137.6953
213.3648, 129.6911
213.8469, 121.7591
214.3290, 114.4360
214.8112, 107.6634
215.2933, 101.5707
215.7754, 96.45537
216.2575, 92.51243
216.7396, 89.16270
217.2217, 86.16267
217.7038, 83.63587
218.1860, 81.09807
218.6681, 78.50550
219.1502, 75.89671
219.6323, 73.47813
220.1144, 71.40625
220.5965, 69.29393
221.0787, 66.86903
221.5608, 63.87270
222.0429, 61.29717
222.5250, 59.30675
223.0071, 57.77237
223.4892, 56.26937
223.9714, 54.63398
224.4535, 53.26626
224.9356, 52.40907
225.4177, 52.28529
225.8998, 52.13192
226.3819, 51.80154
226.8641, 51.42796
227.3462, 51.53886
227.8283, 52.43849
228.3104, 53.35627
228.7925, 53.85744
229.2746, 53.69228
229.7568, 53.68420
230.2389, 53.87564
230.7210, 54.23940
231.2031, 54.67926
231.6852, 55.16258
232.1673, 55.76754
232.6495, 56.50927
233.1316, 57.30812
233.6137, 58.44044
234.0958, 60.03434
234.5779, 61.92783
235.0600, 63.62074
235.5422, 64.95120
236.0243, 66.34437
236.5064, 67.97256
236.9885, 69.79560
237.4706, 71.95274
237.9527, 74.50146
238.4349, 77.34304
238.9170, 80.19202
239.3991, 82.92709
239.8812, 85.85041
240.3633, 89.10563
240.8454, 92.78639
241.3276, 96.57254
241.8097, 100.4838
242.2918, 104.4432
242.7739, 108.3413
243.2560, 112.6556
243.7381, 116.1741
244.2203, 118.4343
244.7024, 119.2910
245.1845, 119.2867
245.6666, 118.3386
246.1487, 116.5708
246.6308, 114.0720
247.1130, 110.2467
247.5951, 106.6490
248.0772, 103.8527
248.5593, 101.9630
249.0414, 100.4088
249.5235, 99.09313
250.0057, 98.17578
250.4878, 97.90586
250.9699, 98.35603
251.4520, 99.33676
251.9341, 100.8757
252.4162, 103.1178
252.8984, 105.2665
253.3805, 107.4564
253.8626, 109.4621
254.3447, 111.0463
254.8268, 112.7078
255.3089, 112.9762
255.7911, 111.1840
256.2732, 107.0743
256.7553, 102.9745
257.2374, 98.62662
257.7195, 94.53094
258.2017, 91.29945
258.6838, 89.03974
259.1659, 87.33286
259.6480, 86.05192
260.1301, 85.20049
260.6122, 84.99791
261.0944, 85.73203
261.5765, 86.76131
262.0586, 87.30982
262.5407, 87.02583
263.0228, 87.24187
263.5049, 88.33691
263.9871, 90.28577
264.4692, 92.19363
264.9513, 94.09300
265.4334, 95.92728
265.9155, 97.70836
266.3976, 99.45273
266.8798, 100.9257
267.3619, 101.8125
267.8440, 102.3018
268.3261, 103.8936
268.8082, 106.7515
269.2903, 110.3501
269.7725, 114.3627
270.2546, 118.8197
270.7367, 123.3093
271.2188, 127.7423
271.7009, 132.1223
272.1830, 136.5881
272.6652, 141.1336
273.1473, 145.6895
273.6294, 150.5491
274.1115, 155.9657
274.5936, 160.0344
275.0757, 162.5826
275.5579, 163.7030
276.0400, 163.6250
276.5221, 162.3929
277.0042, 159.7799
277.4863, 155.1929
277.9684, 148.4516
278.4506, 142.2299
278.9327, 136.7508
279.4148, 131.8261
279.8969, 127.0379
280.3790, 122.3548
280.8611, 118.0371
281.3433, 114.1076
281.8254, 110.5574
282.3075, 107.8902
282.7896, 106.1718
283.2717, 105.1748
283.7538, 104.5964
284.2360, 104.4390
284.7181, 104.6385
285.2002, 105.2711
285.6823, 106.2915
286.1644, 107.2599
286.6465, 108.1266
287.1287, 109.0845
287.6108, 110.4921
288.0929, 112.3183
288.5750, 113.9981
289.0571, 115.2433
289.5392, 116.1768
290.0214, 117.1482
290.5035, 118.1154
290.9856, 119.4094
291.4677, 121.5070
291.9498, 124.3164
292.4319, 127.1657
292.9141, 129.7390
293.3962, 132.3064
293.8783, 135.5255
294.3604, 139.3895
294.8425, 143.6343
295.3246, 148.3369
295.8068, 153.3358
296.2889, 157.9524
296.7710, 161.9307
297.2531, 165.6444
297.7352, 169.7362
298.2173, 174.1376
298.6995, 178.4344
299.1816, 181.9700
299.6637, 185.1875
300.1458, 188.8894
300.6279, 193.2091
301.1100, 198.1523
301.5922, 203.6440
302.0743, 209.7080
302.5564, 216.4175
303.0385, 224.8961
303.5206, 233.7227
304.0027, 241.2688
304.4849, 247.4136
304.9670, 251.5862
305.4491, 253.5767
305.9312, 253.1446
306.4133, 249.7117
306.8954, 242.6174
307.3776, 232.5943
307.8597, 219.7747
308.3418, 203.8549
308.8239, 187.6971
309.3060, 172.4682
309.7881, 158.3933
310.2703, 146.3089
310.7524, 137.0053
311.2345, 129.2686
311.7166, 122.4513
312.1987, 116.5328
312.6808, 111.5561
313.1630, 107.5800
313.6451, 104.4955
314.1272, 102.1559
314.6093, 100.8108
315.0914, 99.94500
315.5735, 99.34776
316.0557, 99.03500
316.5378, 99.09547
317.0199, 99.85010
317.5020, 100.8244
317.9841, 101.6795
318.4662, 102.2172
318.9484, 102.7857
319.4305, 103.7841
319.9126, 104.9298
320.3947, 105.4796
320.8768, 104.9136
321.3589, 103.9297
321.8411, 102.8573
322.3232, 101.7760
322.8053, 100.5414
323.2874, 98.85481
323.7695, 97.04710
324.2516, 95.64240
324.7338, 94.84171
325.2159, 94.34302
325.6980, 94.08407
326.1801, 94.08553
326.6622, 94.21215
327.1443, 94.70895
327.6265, 95.21772
328.1086, 95.37974
328.5907, 95.31773
329.0728, 94.76246
329.5549, 93.49915
330.0370, 91.51328
330.5192, 89.70974
331.0013, 87.91245
331.4834, 86.43175
331.9655, 85.47659
332.4476, 85.22046
332.9297, 85.18868
333.4119, 85.30087
333.8940, 85.60091
334.3761, 86.30933
334.8582, 87.49342
335.3403, 88.94674
335.8224, 90.53431
336.3046, 92.16270
336.7867, 94.25115
337.2688, 96.96060
337.7509, 100.0276
338.2330, 102.9456
338.7151, 105.5811
339.1973, 108.4258
339.6794, 111.7743
340.1615, 115.6263
340.6436, 119.3333
341.1257, 122.7826
341.6078, 126.2538
342.0899, 130.3026
342.5721, 134.9388
343.0542, 139.1015
343.5363, 142.2816
344.0184, 144.7139
344.5005, 147.5491
344.9826, 150.8197
345.4648, 154.0917
345.9469, 156.8383
346.4290, 159.1659
346.9111, 161.5526
347.3932, 163.9787
347.8753, 166.6876
348.3575, 170.2984
348.8396, 174.7211
349.3217, 179.1715
349.8038, 183.4792
350.2859, 187.3638
350.7680, 190.3660
351.2502, 192.6205
351.7323, 193.2447
352.2144, 191.3763
352.6965, 187.0674
353.1786, 180.5201
353.6607, 170.6430
354.1429, 159.1452
354.6250, 147.8324
355.1071, 136.7728
355.5892, 126.3704
356.0713, 116.7645
356.5534, 108.0531
357.0356, 100.3800
357.5177, 93.81908
357.9998, 88.26257
358.4819, 84.07774
358.9640, 81.08169
359.4461, 78.37829
359.9283, 75.40624
360.4104, 72.57285
360.8925, 70.24288
361.3746, 68.67992
361.8567, 67.31105
362.3388, 65.73991
362.8210, 64.19373
363.3031, 63.15016
363.7852, 63.29114
364.2673, 63.54298
364.7494, 63.33529
365.2315, 62.41706
365.7137, 61.74482
366.1958, 61.55862
366.6779, 61.70270
367.1600, 61.99250
367.6421, 62.55367
368.1242, 63.10785
368.6064, 63.48574
369.0885, 63.66547
369.5706, 64.27435
370.0527, 65.68544
370.5348, 67.24023
371.0169, 68.53306
371.4991, 69.45089
371.9812, 70.26543
372.4633, 70.89314
372.9454, 71.43684
373.4275, 72.27647
373.9096, 73.61684
374.3918, 74.91531
374.8739, 75.90136
375.3560, 76.54237
375.8381, 77.00795
376.3202, 77.11655
376.8023, 77.27674
377.2845, 78.15466
377.7666, 79.82394
378.2487, 81.77481
378.7308, 83.80846
379.2129, 85.96876
379.6950, 88.40366
380.1772, 91.16309
380.6593, 94.04151
381.1414, 96.75639
381.6235, 99.34946
382.1056, 102.4346
382.5877, 106.0854
383.0699, 110.3279
383.5520, 115.4282
384.0341, 121.3527
384.5162, 127.2790
384.9983, 132.6657
385.4804, 137.7355
385.9626, 143.2276
386.4447, 149.3756
386.9268, 155.0781
387.4089, 159.2299
387.8910, 162.0976
388.3731, 164.1816
388.8553, 166.0342
389.3374, 167.0134
389.8195, 166.1855
390.3016, 163.6383
390.7837, 160.6312
391.2658, 157.7912
391.7480, 154.9870
392.2301, 152.0853
392.7122, 149.0681
393.1943, 145.9313
393.6764, 142.7627
394.1585, 139.4922
394.6407, 135.9850
395.1228, 131.6555
395.6049, 127.4855
396.0870, 123.8880
396.5691, 120.9435
397.0512, 118.5589
397.5334, 117.0440
398.0155, 115.9668
398.4976, 114.8055
398.9797, 113.5170
399.4618, 112.1160
399.9439, 110.5580
400.4261, 108.8436
400.9082, 107.1794
401.3903, 105.4759
401.8724, 103.9043
402.3545, 102.5251
402.8366, 101.1521
403.3188, 100.4328
403.8009, 100.5790
404.2830, 101.3233
404.7651, 101.9596
405.2472, 102.3563
405.7293, 102.9993
406.2115, 104.0839
406.6936, 105.6038
407.1757, 107.4297
407.6578, 109.5543
408.1399, 112.0235
408.6220, 114.8810
409.1042, 118.1292
409.5863, 121.8779
410.0684, 126.1483
410.5505, 131.1620
411.0326, 136.5155
411.5147, 142.8961
411.9969, 149.7511
412.4790, 157.1568
412.9611, 164.9326
413.4432, 172.6539
413.9253, 180.4699
414.4074, 187.7404
414.8896, 194.4124
415.3717, 200.0819
415.8538, 203.7147
416.3359, 204.4487
416.8180, 203.1228
417.3001, 200.2416
417.7823, 195.8048
418.2644, 190.4095
418.7465, 183.1241
419.2286, 175.5218
419.7107, 169.2117
420.1928, 164.8687
420.6750, 161.4104
421.1571, 158.6038
421.6392, 156.3606
422.1213, 154.5318
422.6034, 153.5785
423.0855, 152.6050
423.5677, 151.1584
424.0498, 149.0097
424.5319, 147.1348
425.0140, 145.7268
425.4961, 144.5599
425.9782, 143.4180
426.4604, 142.4854
426.9425, 141.3176
427.4246, 139.8785
427.9067, 138.1546
428.3888, 136.1179
428.8709, 133.6866
429.3531, 131.0983
429.8352, 128.4042
430.3173, 125.5983
430.7994, 122.9063
431.2815, 120.3556
431.7636, 117.8876
432.2458, 115.4488
432.7279, 113.0352
433.2100, 110.6877
433.6921, 108.3548
434.1742, 106.0989
434.6563, 104.1559
435.1385, 102.4953
435.6206, 101.2419
436.1027, 100.3905
436.5848, 100.0200
437.0669, 100.4365
437.5490, 101.8650
438.0312, 103.6815
438.5133, 105.0079
438.9954, 106.1310
439.4775, 107.8466
439.9596, 110.9189
440.4417, 114.5432
440.9239, 118.1768
441.4060, 121.7892
441.8881, 125.0330
442.3702, 128.0164
442.8523, 130.3577
443.3344, 131.7209
443.8166, 132.2683
444.2987, 131.5236
444.7808, 128.9921
445.2629, 125.0088
445.7450, 120.5207
446.2271, 115.3368
446.7093, 110.1178
447.1914, 105.0583
447.6735, 100.0607
448.1556, 95.54140
448.6377, 91.38609
449.1198, 87.82623
449.6020, 85.16740
450.0841, 83.85619
450.5662, 82.59736
451.0483, 81.06876
451.5304, 79.44980
452.0125, 78.64888
452.4947, 78.84921
452.9768, 79.28115
453.4589, 79.55102
453.9410, 79.65635
454.4231, 79.83852
454.9052, 80.21148
455.3874, 80.31461
455.8695, 79.32839
456.3516, 77.39915
456.8337, 75.64677
457.3158, 74.44254
457.7979, 73.59512
458.2801, 72.83181
458.7622, 72.14101
459.2443, 71.40868
459.7264, 70.38208
460.2085, 69.34296
460.6906, 68.67964
461.1728, 68.46912
461.6549, 68.53649
462.1370, 68.84144
462.6191, 69.32990
463.1012, 69.91777
463.5833, 70.75455
464.0655, 71.51607
464.5476, 71.75497
465.0297, 71.60242
465.5118, 72.18616
465.9939, 74.37679
466.4760, 76.95980
466.9582, 79.29198
467.4403, 81.40070
467.9224, 83.14776
468.4045, 84.43746
468.8866, 85.40537
469.3687, 86.25370
469.8509, 86.96423
470.3330, 87.55259
470.8151, 87.95323
471.2972, 88.20277
471.7793, 88.69651
472.2614, 89.49224
472.7436, 90.39102
473.2257, 91.21857
473.7078, 91.97463
474.1899, 92.91089
474.6720, 94.00828
475.1541, 95.40461
475.6363, 97.27007
476.1184, 99.60437
476.6005, 102.4296
477.0826, 106.0570
477.5647, 109.9943
478.0468, 113.3791
478.5290, 116.2796
479.0111, 119.3160
479.4932, 123.0021
479.9753, 127.0367
480.4574, 131.2317
480.9395, 135.7962
481.4217, 139.7281
481.9038, 142.5428
482.3859, 144.2493
482.8680, 144.8026
483.3501, 143.8695
483.8322, 142.0890
484.3144, 139.9478
484.7965, 137.3792
485.2786, 133.1550
485.7607, 125.7587
486.2428, 117.7472
486.7249, 110.3327
487.2071, 103.7142
487.6892, 97.40797
488.1713, 91.14487
488.6534, 85.39321
489.1355, 80.82877
489.6176, 77.72976
490.0998, 74.93342
490.5819, 72.02269
491.0640, 69.15092
491.5461, 67.31064
492.0282, 66.60346
492.5103, 66.09492
492.9925, 64.95662
493.4746, 63.39526
493.9567, 62.66979
494.4388, 62.95790
494.9209, 63.54198
495.4030, 63.54553
495.8852, 63.19659
496.3673, 63.07112
496.8494, 63.42083
497.3315, 64.04955
497.8136, 64.84190
498.2957, 65.77623
498.7779, 66.73293
499.2600, 67.65873
499.7421, 68.59017
500.2242, 69.61327
500.7063, 70.82610
501.1884, 71.77512
501.6706, 71.94836
502.1527, 71.95448
502.6348, 72.40575
503.1169, 74.01057
503.5990, 75.31129
504.0811, 76.06687
504.5633, 76.39152
505.0454, 76.71069
505.5275, 77.02947
506.0096, 77.32446
506.4917, 77.57614
506.9738, 77.78084
507.4560, 78.03043
507.9381, 78.35819
508.4202, 78.64042
508.9023, 78.75552
509.3844, 78.70653
509.8665, 78.52759
510.3487, 78.18808
510.8308, 77.79026
511.3129, 77.56892
511.7950, 77.46792
512.2772, 77.22358
512.7593, 76.75308
513.2414, 76.03369
513.7235, 75.01280
514.2056, 73.69347
514.6877, 72.15627
515.1699, 70.17867
515.6520, 68.14823
516.1341, 66.44743
516.6162, 65.31922
517.0983, 64.20448
517.5804, 62.76493
518.0626, 61.24159
518.5447, 60.03007
519.0268, 59.30145
519.5089, 58.78073
519.9910, 58.50602
520.4731, 58.45017
520.9553, 58.17995
521.4374, 57.51601
521.9195, 56.91051
522.4016, 56.68090
522.8837, 56.95198
523.3658, 56.88309
523.8480, 56.31963
524.3301, 55.73152
524.8122, 55.85152
525.2943, 56.63245
525.7764, 57.31647
526.2585, 57.65294
526.7407, 57.83196
527.2228, 58.23816
527.7049, 58.83204
528.1870, 59.36851
528.6691, 59.60160
529.1512, 59.75283
529.6334, 60.07405
530.1155, 60.58723
530.5976, 61.20448
531.0797, 62.09528
531.5618, 62.96567
532.0439, 63.50092
532.5261, 63.35683
533.0082, 63.26259
533.4903, 63.37491
533.9724, 63.66395
534.4545, 64.07355
534.9366, 64.83900
535.4188, 65.44213
535.9009, 65.68391
536.3830, 65.57755
536.8651, 65.72214
537.3472, 66.26231
537.8293, 66.77086
538.3115, 66.91726
538.7936, 66.66950
539.2757, 66.49657
539.7578, 66.39171
540.2399, 66.45074
540.7220, 66.92059
541.2042, 67.71816
541.6863, 68.40271
542.1684, 68.84303
542.6505, 69.10466
543.1326, 69.13985
543.6147, 69.03683
544.0969, 69.14014
544.5790, 69.79111
545.0611, 70.63618
545.5432, 71.45336
546.0253, 72.22764
546.5074, 72.79865
546.9896, 72.98808
547.4717, 73.00082
547.9538, 73.00256
548.4359, 73.07851
548.9180, 73.06210
549.4001, 72.71040
549.8823, 72.32816
550.3644, 72.46608
550.8465, 73.40545
551.3286, 74.32883
551.8107, 74.95037
552.2928, 75.36568
552.7750, 76.25813
553.2571, 77.66934
553.7392, 79.36500
554.2213, 81.33170
554.7034, 83.48650
555.1855, 85.40060
555.6677, 87.02308
556.1498, 88.63599
556.6319, 90.59462
557.1140, 92.74316
557.5961, 94.73211
558.0782, 96.38647
558.5604, 97.98363
559.0425, 100.0310
559.5246, 102.1809
560.0067, 103.6400
560.4888, 103.6807
560.9709, 103.3084
561.4531, 102.8256
561.9352, 102.2541
562.4173, 101.9140
562.8994, 101.8496
563.3815, 102.0325
563.8636, 102.4448
564.3458, 103.0583
564.8279, 103.9840
565.3100, 105.2747
565.7921, 106.8239
566.2742, 108.4883
566.7563, 110.2754
567.2385, 112.1994
567.7206, 114.2808
568.2027, 116.4660
568.6848, 118.6637
569.1669, 120.8616
569.6490, 122.7388
570.1312, 123.9156
570.6133, 124.7898
571.0954, 126.0994
571.5775, 127.8175
572.0596, 129.0726
572.5417, 129.1453
573.0239, 128.6234
573.5060, 127.9268
573.9881, 126.9457
574.4702, 126.2930
574.9523, 126.4341
575.4344, 126.8954
575.9166, 127.0764
576.3987, 126.7321
576.8808, 126.3687
577.3629, 125.9563
577.8450, 125.5699
578.3271, 125.3910
578.8093, 125.3144
579.2914, 125.7595
579.7735, 127.0286
580.2556, 129.0008
580.7377, 130.8830
581.2198, 132.6472
581.7020, 134.5174
582.1841, 136.5928
582.6662, 138.9103
583.1483, 141.7370
583.6304, 145.1645
584.1125, 148.5460
584.5947, 151.3983
585.0768, 153.8069
585.5589, 155.9043
586.0410, 158.0831
586.5231, 159.5788
587.0052, 160.0456
587.4873, 159.5756
587.9694, 158.4130
588.4515, 156.6987
588.9337, 154.1835
589.4158, 150.8068
589.8979, 146.5677
590.3800, 141.5260
590.8621, 135.2023
591.3442, 128.8922
591.8264, 123.5316
592.3085, 119.1537
592.7906, 114.6328
593.2727, 109.7752
593.7548, 105.2981
594.2369, 102.1742
594.7191, 100.1242
595.2012, 98.11134
595.6833, 95.75523
596.1654, 93.54329
596.6475, 92.08509
597.1296, 91.19579
597.6118, 90.41162
598.0939, 89.43806
598.5760, 88.59396
599.0581, 88.00243
599.5402, 87.68790
600.0223, 87.69556
600.5045, 88.23703
600.9866, 88.93740
601.4687, 89.63030
601.9508, 90.29324
602.4329, 91.06163
602.9150, 92.00502
603.3972, 92.95031
603.8793, 93.68323
604.3614, 94.16683
604.8435, 94.88440
605.3256, 95.92631
605.8077, 97.12072
606.2899, 98.27546
606.7720, 99.36388
607.2541, 100.2054
607.7362, 100.6236
608.2183, 100.8776
608.7004, 101.4170
609.1826, 102.0853
609.6647, 102.3202
610.1468, 101.5648
610.6289, 100.5112
611.1110, 99.56600
611.5931, 98.74972
612.0753, 97.90228
612.5574, 96.75356
613.0395, 95.74716
613.5216, 95.17238
614.0037, 95.30433
614.4858, 95.13542
614.9680, 94.57993
615.4501, 93.83846
615.9322, 93.12009
616.4143, 92.42526
616.8964, 91.76628
617.3785, 91.12599
617.8607, 90.56707
618.3428, 90.36223
618.8249, 90.38579
619.3070, 90.11221
619.7891, 89.23920
620.2712, 87.99413
620.7534, 86.52762
621.2355, 84.85835
621.7176, 83.12945
622.1997, 81.38640
622.6818, 79.62345
623.1639, 77.73585
623.6461, 75.64748
624.1282, 73.94563
624.6103, 72.97005
625.0924, 72.14767
625.5745, 71.13893
626.0566, 69.89520
626.5388, 68.49868
627.0209, 66.79943
627.5030, 65.22519
627.9851, 64.49358
628.4672, 64.56702
628.9493, 64.57351
629.4315, 64.29905
629.9136, 63.87818
630.3957, 63.42134
630.8778, 62.97932
631.3599, 62.71233
631.8420, 62.83485
632.3242, 63.05225
632.8063, 63.21189
633.2884, 63.29358
633.7705, 63.21802
634.2526, 62.71392
634.7347, 62.25631
635.2169, 62.02555
635.6990, 62.01366
636.1811, 62.39829
636.6632, 63.47932
637.1453, 64.58061
637.6274, 65.17489
638.1096, 65.18367
638.5917, 65.24547
639.0738, 65.38490
639.5559, 65.59685
640.0380, 65.98079
640.5201, 66.46272
641.0023, 66.70377
641.4844, 66.58473
641.9665, 66.26697
642.4486, 65.76336
642.9307, 65.19638
643.4128, 64.83881
643.8950, 65.05495
644.3771, 65.26094
644.8592, 65.23068
645.3413, 64.96843
645.8234, 64.52534
646.3055, 63.61537
646.7877, 62.84084
647.2698, 62.43797
647.7519, 62.41815
648.2340, 62.31903
648.7161, 62.09856
649.1982, 61.91318
649.6804, 61.92095
650.1625, 62.09349
650.6446, 62.13639
651.1267, 62.01704
651.6088, 61.90571
652.0909, 62.00667
652.5731, 62.23263
653.0552, 62.44311
653.5373, 62.62691
654.0194, 62.72985
654.5015, 62.48224
654.9836, 62.20113
655.4658, 62.34875
655.9479, 63.56745
656.4300, 64.62093
656.9121, 65.10567
657.3942, 65.26521
657.8763, 65.76192
658.3585, 66.69807
658.8406, 67.74112
659.3227, 68.80376
659.8048, 69.89016
660.2869, 70.94807
660.7690, 71.97168
661.2512, 73.09025
661.7333, 74.46188
662.2154, 75.95042
662.6975, 77.19656
663.1796, 78.20042
663.6617, 79.39458
664.1439, 81.24060
664.6260, 83.31353
665.1081, 85.23862
665.5902, 86.88879
666.0723, 88.55888
666.5544, 90.13158
667.0366, 91.87181
667.5187, 94.02104
668.0008, 96.74268
668.4829, 99.55556
668.9650, 102.4290
669.4471, 105.3567
669.9293, 108.2807
670.4114, 111.1978
670.8935, 114.4940
671.3756, 118.3269
671.8577, 122.5156
672.3398, 127.0704
672.8220, 131.8504
673.3041, 136.2968
673.7862, 139.8540
674.2683, 143.2070
674.7504, 146.8851
675.2325, 150.8191
675.7147, 154.5319
676.1968, 158.3868
676.6789, 161.5746
677.1610, 163.9065
677.6431, 165.4855
678.1252, 165.0981
678.6074, 162.1845
679.0895, 158.3549
679.5716, 154.5621
680.0537, 150.7756
680.5358, 146.8780
681.0179, 142.9248
681.5001, 138.5440
681.9822, 132.9172
682.4643, 126.7061
682.9464, 121.4137
683.4285, 117.3365
683.9106, 113.8595
684.3928, 110.7028
684.8749, 107.7916
685.3570, 104.9845
685.8391, 101.7519
686.3212, 99.19789
686.8033, 97.81688
687.2855, 97.09656
687.7676, 96.21605
688.2497, 94.92435
688.7318, 94.09877
689.2139, 93.96890
689.6960, 94.36217
690.1782, 94.88807
690.6603, 95.54218
691.1424, 96.22250
691.6245, 96.82392
692.1066, 97.47274
692.5887, 98.22005
693.0709, 99.13352
693.5530, 100.5357
694.0351, 102.8169
694.5172, 105.4561
694.9993, 108.1046
695.4814, 110.7321
695.9636, 113.7074
696.4457, 117.1492
696.9278, 120.8934
697.4099, 124.8874
697.8920, 129.1421
698.3741, 133.5018
698.8563, 137.8661
699.3384, 142.6432
699.8205, 148.3193
700.3026, 154.7260
700.7847, 161.2768
701.2668, 167.8814
701.7490, 174.8360
702.2311, 182.4428
702.7132, 190.5694
703.1953, 199.0610
703.6774, 208.0172
704.1595, 217.0793
704.6417, 225.7682
705.1238, 234.7116
705.6059, 244.6750
706.0880, 255.8183
706.5701, 267.8611
707.0522, 280.9562
707.5344, 294.8649
708.0165, 308.9895
708.4986, 323.2769
708.9807, 337.7250
709.4628, 352.4235
709.9449, 367.1400
710.4271, 382.0496
710.9092, 396.6704
711.3913, 409.7725
711.8734, 421.1111
712.3555, 430.1490
712.8376, 436.8319
713.3198, 441.0514
713.8019, 442.2080
714.2840, 440.8780
714.7661, 435.5911
715.2482, 425.3056
715.7303, 410.1873
716.2125, 394.4752
716.6946, 378.3100
717.1767, 360.8696
717.6588, 341.3204
718.1409, 319.8657
718.6230, 299.0747
719.1052, 278.6808
719.5873, 259.9323
720.0694, 243.5957
720.5515, 229.1264
721.0336, 215.5847
721.5157, 202.9297
721.9979, 191.3009
722.4800, 180.6877
722.9621, 171.0440
723.4442, 162.3500
723.9263, 154.8513
724.4084, 147.7415
724.8906, 140.7356
725.3727, 134.3615
725.8548, 129.2738
726.3369, 125.5026
726.8190, 121.9427
727.3011, 118.5260
727.7833, 115.2335
728.2654, 112.0666
728.7475, 109.0641
729.2296, 106.3268
729.7117, 103.9290
730.1938, 101.7177
730.6760, 99.57144
731.1581, 97.58203
731.6402, 95.85420
732.1223, 94.47408
732.6044, 93.30372
733.0865, 92.43314
733.5687, 91.71581
734.0508, 90.83768
734.5329, 89.76046
735.0150, 88.65015
735.4971, 87.47408
735.9792, 86.36504
736.4614, 85.72808
736.9435, 85.47444
737.4256, 85.14672
737.9077, 84.41562
738.3898, 83.58427
738.8719, 82.92406
739.3541, 82.40122
739.8362, 81.90773
740.3183, 81.40658
740.8004, 80.92501
741.2825, 80.39137
741.7646, 79.84074
742.2468, 79.68142
742.7289, 80.12303
743.2110, 80.42498
743.6931, 80.17065
744.1752, 79.47694
744.6573, 78.99368
745.1395, 78.72218
745.6216, 78.56747
746.1037, 78.50614
746.5858, 78.50435
747.0679, 78.52263
747.5500, 78.55949
748.0322, 78.63093
748.5143, 78.70806
748.9964, 78.85122
749.4785, 79.12114
749.9606, 79.55853
750.4427, 79.93681
750.9249, 80.25938
751.4070, 80.52694
751.8891, 80.67195
752.3712, 80.70140
752.8533, 81.02832
753.3354, 81.69343
753.8176, 82.39816
754.2997, 82.86938
754.7818, 83.19477
755.2639, 83.47683
755.7460, 83.70422
756.2281, 84.05404
756.7103, 84.65789
757.1924, 85.40144
757.6745, 86.17725
758.1566, 86.91605
758.6387, 87.81490
759.1208, 88.96202
759.6030, 90.17467
760.0851, 91.26489
760.5672, 92.23738
761.0493, 93.18983
761.5314, 94.13034
762.0135, 95.06091
762.4957, 95.98898
762.9778, 96.90351
763.4599, 97.80538
763.9420, 98.70733
764.4241, 99.54495
764.9063, 100.4110
765.3884, 101.1412
765.8705, 101.5261
766.3526, 101.0774
766.8347, 100.9968
767.3168, 101.6571
767.7990, 102.4142
768.2811, 102.2691
768.7632, 101.1915
769.2453, 99.76585
769.7274, 97.99174
770.2095, 96.24516
770.6917, 95.21291
771.1738, 94.61597
771.6559, 93.81893
772.1380, 92.50404
772.6201, 91.06783
773.1022, 89.59130
773.5844, 88.17100
774.0665, 86.99871
774.5486, 86.27603
775.0307, 85.53943
775.5128, 84.72564
775.9949, 83.86868
776.4771, 83.04543
776.9592, 82.24924
777.4413, 81.49882
777.9234, 80.75991
778.4055, 80.12197
778.8876, 79.86959
779.3698, 79.83480
779.8519, 79.58379
780.3340, 78.62776
780.8161, 77.71879
781.2982, 77.22242
781.7803, 77.03465
782.2625, 76.87790
782.7446, 76.75705
783.2267, 76.61491
783.7088, 76.42884
784.1909, 76.21904
784.6730, 76.09657
785.1552, 76.05863
785.6373, 75.81345
786.1194, 75.07596
786.6015, 74.26414
787.0836, 74.05452
787.5657, 74.28832
788.0479, 74.53171
788.5300, 74.57237
789.0121, 74.58677
789.4942, 74.65266
789.9763, 74.75454
790.4584, 74.83009
790.9406, 74.89962
791.4227, 74.88748
791.9048, 74.71714
792.3869, 74.48042
792.8690, 74.52260
793.3511, 74.82448
793.8333, 75.07980
794.3154, 75.04911
794.7975, 74.97823
795.2796, 75.31788
795.7617, 75.89486
796.2438, 76.13977
796.7260, 75.20373
797.2081, 74.54121
797.6902, 74.99767
798.1723, 76.23463
798.6544, 76.92349
799.1365, 76.90981
799.6187, 76.72612
800.1008, 76.45967
800.5829, 76.19902
801.0650, 76.25479
801.5471, 76.58782
802.0292, 76.95263
802.5114, 77.15993
802.9935, 77.38362
803.4756, 77.79771
803.9577, 78.36231
804.4398, 78.93706
804.9219, 79.50510
805.4041, 80.05042
805.8862, 80.49702
806.3683, 80.91528
806.8504, 81.71768
807.3325, 83.06519
807.8146, 83.98032
808.2968, 83.87994
808.7789, 83.30455
809.2610, 83.55051
809.7431, 84.43225
810.2252, 85.19238
810.7073, 85.37729
811.1895, 85.36677
811.6716, 85.39252
812.1537, 85.42603
812.6358, 85.34438
813.1179, 85.16170
813.6000, 84.81116
814.0822, 84.21929
814.5643, 83.46203
815.0464, 82.82309
815.5285, 82.30635
816.0106, 81.82124
816.4927, 81.34304
816.9749, 80.86451
817.4570, 80.30540
817.9391, 79.73257
818.4212, 79.32204
818.9033, 79.27845
819.3854, 79.28776
819.8676, 79.27950
820.3497, 79.22276
820.8318, 79.01588
821.3139, 78.53774
821.7960, 78.18569
822.2781, 78.02311
822.7603, 78.07941
823.2424, 78.59936
823.7245, 79.48327
824.2066, 80.06260
824.6887, 79.89300
825.1708, 79.53262
825.6530, 79.49313
826.1351, 79.65482
826.6172, 79.75115
827.0993, 79.68063
827.5814, 79.55888
828.0635, 79.27494
828.5457, 79.01479
829.0278, 79.28522
829.5099, 80.21729
829.9920, 80.75978
830.4741, 80.55527
830.9562, 80.04125
831.4384, 79.82019
831.9205, 79.85576
832.4026, 80.06193
832.8847, 80.54916
833.3668, 80.99680
833.8489, 81.16166
834.3311, 81.19921
834.8132, 81.38232
835.2953, 81.79783
835.7774, 82.22562
836.2595, 82.68717
836.7416, 83.08887
837.2238, 83.24350
837.7059, 83.17631
838.1880, 83.05706
838.6701, 82.84254
839.1522, 82.84384
839.6343, 83.55930
840.1165, 84.63228
840.5986, 85.54780
841.0807, 86.12119
841.5628, 86.60329
842.0449, 86.99648
842.5270, 87.34843
843.0092, 87.71365
843.4913, 88.11019
843.9734, 88.40958
844.4555, 88.58770
844.9376, 88.71634
845.4197, 88.77016
845.9019, 88.85934
846.3840, 89.29784
846.8661, 90.24561
847.3482, 91.04744
847.8303, 91.21983
848.3124, 91.14780
848.7946, 91.15358
849.2767, 91.20715
849.7588, 91.51576
850.2409, 92.16862
850.7230, 92.90700
851.2051, 93.56221
851.6873, 94.11412
852.1694, 94.45444
852.6515, 94.57238
853.1336, 94.55946
853.6157, 94.35559
854.0978, 94.14393
854.5800, 94.13610
855.0621, 94.38702
855.5442, 94.56034
856.0263, 94.44637
856.5084, 94.38661
856.9905, 94.51604
857.4727, 94.83331
857.9548, 95.54635
858.4369, 96.71713
858.9190, 97.64163
859.4011, 97.53654
859.8832, 97.01989
860.3654, 97.18566
860.8475, 97.96680
861.3296, 98.53194
861.8117, 98.12318
862.2938, 97.76681
862.7759, 98.05078
863.2581, 98.88117
863.7402, 99.59720
864.2223, 100.1724
864.7044, 100.7157
865.1865, 101.3313
865.6686, 101.9054
866.1508, 102.0512
866.6329, 101.8539
867.1150, 101.6775
867.5971, 101.6203
868.0792, 101.7307
868.5613, 102.1295
869.0435, 102.7257
869.5256, 103.2294
870.0077, 103.6013
870.4898, 103.9023
870.9719, 104.1067
871.4540, 104.2870
871.9362, 104.6165
872.4183, 105.0810
872.9004, 105.5716
873.3825, 106.0660
873.8646, 106.5517
874.3467, 106.9555
874.8289, 107.3622
875.3110, 107.8961
875.7931, 108.6569
876.2752, 109.4599
876.7573, 110.3237
877.2394, 111.1825
877.7216, 111.9312
878.2037, 112.5526
878.6858, 113.3363
879.1679, 114.3367
879.6500, 115.4130
880.1321, 116.3980
880.6143, 117.3797
881.0964, 118.4912
881.5785, 119.7702
882.0606, 121.1192
882.5427, 122.5527
883.0248, 124.0131
883.5070, 125.3948
883.9891, 126.6288
884.4712, 128.2705
884.9533, 130.3388
885.4354, 132.6393
885.9175, 135.0718
886.3997, 137.6131
886.8818, 140.0489
887.3639, 142.4243
887.8460, 145.2572
888.3281, 149.1123
888.8102, 153.2057
889.2924, 157.0279
889.7745, 160.6101
890.2566, 164.6461
890.7387, 169.2054
891.2208, 173.9397
891.7029, 178.8047
892.1851, 183.7137
892.6672, 188.5817
893.1493, 193.4239
893.6314, 198.1833
894.1135, 202.5755
894.5956, 207.2183
895.0778, 212.5295
895.5599, 218.3817
896.0420, 224.3772
896.5241, 231.0575
897.0062, 236.7755
897.4883, 241.1169
897.9705, 244.5213
898.4526, 247.6071
898.9347, 250.3725
899.4168, 252.8936
899.8989, 255.4062
900.3810, 257.0874
900.8632, 257.3638
901.3453, 256.4287
901.8274, 254.4737
902.3095, 251.2225
902.7916, 247.4779
903.2737, 243.1970
903.7559, 238.4460
904.2380, 233.1729
904.7201, 227.3899
905.2022, 221.6459
905.6843, 216.0443
906.1664, 210.3194
906.6486, 204.1254
907.1307, 197.9231
907.6128, 191.8923
908.0949, 186.0585
908.5770, 181.2116
909.0591, 178.2132
909.5413, 175.0940
910.0234, 170.8704
910.5055, 165.8267
910.9876, 161.8280
911.4697, 158.8266
911.9518, 155.9148
912.4340, 152.2414
912.9161, 148.6699
913.3982, 146.4570
913.8803, 145.1277
914.3624, 143.3869
914.8445, 139.9010
915.3267, 137.2954
915.8088, 136.4625
916.2909, 136.4098
916.7730, 134.9043
917.2551, 131.9890
917.7372, 129.9224
918.2194, 129.3537
918.7015, 129.2976
919.1836, 128.4925
919.6657, 127.6036
920.1478, 127.7216
920.6299, 130.2523
921.1121, 131.1264
921.5942, 128.1927
922.0763, 125.2151
922.5584, 125.8278
923.0405, 130.2342
923.5226, 131.5468
924.0048, 129.4146
924.4869, 126.9278
924.9690, 126.8075
925.4511, 127.5575
925.9332, 127.4029
926.4153, 126.2791
926.8975, 125.4744
927.3796, 125.6845
927.8617, 125.9061
928.3438, 125.8622
928.8259, 125.5564
929.3080, 124.8912
929.7902, 123.8739
930.2723, 123.0659
930.7544, 122.7568
931.2365, 122.7425
931.7186, 122.9463
932.2007, 123.2515
932.6829, 123.4178
933.1650, 123.4699
933.6471, 123.2145
934.1292, 122.3933
934.6113, 121.4922
935.0934, 121.2415
935.5756, 121.6342
936.0577, 122.0894
936.5398, 122.5162
937.0219, 123.0334
937.5040, 123.8792
937.9861, 124.8092
938.4683, 125.4804
938.9504, 125.7533
939.4325, 126.2271
939.9146, 127.1697
940.3967, 128.0871
940.8788, 128.6260
941.3610, 128.8481
941.8431, 129.5871
942.3252, 130.8415
942.8073, 132.4036
943.2894, 134.3044
943.7715, 136.2928
944.2537, 138.1246
944.7358, 139.8489
945.2179, 141.6853
945.7000, 143.5699
946.1821, 145.7572
946.6642, 148.4470
947.1464, 151.3621
947.6285, 153.9010
948.1106, 156.1092
948.5927, 158.2187
949.0748, 160.2482
949.5569, 162.3251
950.0391, 164.2932
950.5212, 166.5159
951.0033, 169.4780
951.4854, 173.9485
951.9675, 177.4898
952.4496, 179.6087
952.9318, 181.6021
953.4139, 184.5073
953.8960, 188.1800
954.3781, 191.8058
954.8602, 195.3472
955.3423, 198.9778
955.8245, 202.3753
956.3066, 206.2724
956.7887, 211.3741
957.2708, 217.5906
957.7529, 223.7571
958.2350, 229.9285
958.7172, 235.9193
959.1993, 241.7490
959.6814, 247.3819
960.1635, 252.8026
960.6456, 257.9156
961.1277, 262.3668
961.6099, 266.1830
962.0920, 269.0424
962.5741, 270.6572
963.0562, 271.2653
963.5383, 271.1540
964.0204, 270.4767
964.5026, 268.6534
964.9847, 265.4810
965.4668, 261.9272
965.9489, 258.5987
966.4310, 255.6447
966.9131, 253.2851
967.3953, 251.5332
967.8774, 250.0913
968.3595, 248.5474
968.8416, 247.5824
969.3237, 247.5703
969.8058, 248.4047
970.2880, 249.6459
970.7701, 251.2520
971.2522, 253.7521
971.7343, 257.5259
972.2164, 261.9737
972.6985, 266.5260
973.1807, 271.1305
973.6628, 275.6202
974.1449, 279.7377
974.6270, 284.2314
975.1091, 289.9818
975.5912, 295.5447
976.0734, 299.7247
976.5555, 302.5121
977.0376, 303.9531
977.5197, 304.0028
978.0018, 303.2433
978.4839, 301.9620
978.9661, 300.2300
979.4482, 298.2093
979.9303, 295.8833
980.4124, 292.7535
980.8945, 288.1850
981.3766, 283.6411
981.8588, 279.4166
982.3409, 275.5418
982.8230, 271.9967
983.3051, 268.8438
983.7872, 266.4476
984.2693, 265.0760
984.7515, 264.2216
985.2336, 263.9268
985.7157, 263.7621
986.1978, 263.0821
986.6799, 261.1119
987.1620, 260.4136
987.6442, 261.2498
988.1263, 262.6259
988.6084, 263.8663
989.0905, 264.9064
989.5726, 265.5023
990.0547, 265.6739
990.5369, 265.7012
991.0190, 265.2632
991.5011, 265.1974
991.9832, 266.0370
992.4653, 267.5614
992.9474, 269.0581
993.4296, 270.4710
993.9117, 272.3685
994.3938, 275.1583
994.8759, 277.9675
995.3580, 279.3936
995.8401, 280.0995
996.3223, 281.2428
996.8044, 283.4877
997.2865, 285.3664
997.7686, 286.8799
998.2507, 287.7557
998.7328, 287.5219
999.2150, 286.2508
999.6971, 285.6455
1000.179, 285.7084
1000.661, 285.7739
1001.143, 285.9124
1001.626, 285.4196
1002.108, 283.6898
1002.590, 280.8171
1003.072, 277.3017
1003.554, 273.3024
1004.036, 268.5573
1004.518, 262.8326
1005.000, 256.7584
1005.482, 251.6274
1005.965, 247.0669
1006.447, 242.2703
1006.929, 237.0899
1007.411, 231.4929
1007.893, 225.1602
1008.375, 218.5575
1008.857, 211.9094
1009.339, 205.1078
1009.822, 199.1347
1010.304, 194.0351
1010.786, 189.4467
1011.268, 185.3158
1011.750, 181.5843
1012.232, 178.3102
1012.714, 175.3692
1013.196, 172.3669
1013.678, 168.8068
1014.161, 165.7209
1014.643, 163.4451
1015.125, 161.5377
1015.607, 159.3243
1016.089, 156.8983
1016.571, 154.7947
1017.053, 153.1181
1017.535, 151.5992
1018.018, 149.9177
1018.500, 148.4036
1018.982, 147.4107
1019.464, 146.9688
1019.946, 146.2683
1020.428, 145.2399
1020.910, 144.1907
1021.392, 143.1326
1021.874, 142.2624
1022.357, 142.1033
1022.839, 142.4308
1023.321, 142.7404
1023.803, 143.2752
1024.285, 143.1282
1024.767, 141.5371
1025.249, 139.6221
1025.731, 138.4520
1026.214, 138.0272
1026.696, 137.6546
1027.178, 137.3038
1027.660, 136.9452
1028.142, 136.4823
1028.624, 136.0560
1029.106, 135.8354
1029.588, 135.7954
1030.070, 135.6811
1030.553, 135.5408
1031.035, 135.1313
1031.517, 134.2305
1031.999, 133.3051
1032.481, 133.3273
1032.963, 133.9775
1033.445, 134.4106
1033.927, 134.3375
1034.410, 134.3515
1034.892, 134.7784
1035.374, 135.3372
1035.856, 135.8527
1036.338, 136.3283
1036.820, 136.6884
1037.302, 136.9270
1037.784, 137.0989
1038.266, 137.0749
1038.749, 137.1320
1039.231, 137.6650
1039.713, 138.4895
1040.195, 139.1483
1040.677, 139.4829
1041.159, 139.7449
1041.641, 139.8540
1042.123, 140.1049
1042.605, 141.0699
1043.088, 142.4489
1043.570, 143.3259
1044.052, 143.6053
1044.534, 143.7568
1045.016, 143.6028
1045.498, 143.8331
1045.980, 144.9211
1046.462, 146.6749
1046.945, 148.2740
1047.427, 149.7278
1047.909, 151.1415
1048.391, 152.5191
1048.873, 153.9080
1049.355, 155.3955
1049.837, 156.9209
1050.319, 158.3875
1050.802, 159.6252
1051.284, 161.2580
1051.766, 163.5051
1052.248, 165.6188
1052.730, 167.0448
1053.212, 167.8958
1053.694, 168.3342
1054.176, 168.4688
1054.658, 168.7954
1055.141, 170.1628
1055.623, 171.0500
1056.105, 170.7782
1056.587, 169.7864
1057.069, 168.6794
1057.551, 167.4653
1058.033, 165.7786
1058.515, 163.5368
1058.997, 161.0954
1059.480, 158.5816
1059.962, 156.1303
1060.444, 153.7966
1060.926, 151.6238
1061.408, 149.8989
1061.890, 148.8190
1062.372, 147.6404
1062.854, 146.0588
1063.337, 144.3407
1063.819, 143.0112
1064.301, 141.9644
1064.783, 140.9659
1065.265, 139.8613
1065.747, 139.0114
1066.229, 138.5182
1066.711, 138.3266
1067.193, 138.5576
1067.676, 139.1647
1068.158, 139.1022
1068.640, 138.4241
1069.122, 137.9409
1069.604, 138.2491
1070.086, 138.8130
1070.568, 139.4312
1071.050, 140.0110
1071.532, 140.3141
1072.015, 140.1474
1072.497, 140.4262
1072.979, 141.3025
1073.461, 142.3769
1073.943, 143.3149
1074.425, 144.1357
1074.907, 144.8583
1075.389, 145.4827
1075.872, 146.0811
1076.354, 146.5598
1076.836, 147.1599
1077.318, 147.9139
1077.800, 148.8530
1078.282, 150.3389
1078.764, 152.1254
1079.246, 153.2196
1079.729, 153.1362
1080.211, 153.1991
1080.693, 154.5706
1081.175, 156.0029
1081.657, 156.5813
1082.139, 156.3098
1082.621, 155.5810
1083.103, 154.3815
1083.585, 153.1782
1084.068, 152.1388
1084.550, 151.2972
1085.032, 151.0514
1085.514, 150.9368
1085.996, 150.0438
1086.478, 147.5808
1086.960, 145.9624
1087.442, 145.4368
1087.924, 145.2143
1088.406, 144.4780
1088.889, 143.5672
1089.371, 143.1048
1089.853, 143.0766
1090.335, 143.1854
1090.817, 143.6020
1091.299, 143.7460
1091.781, 143.2954
1092.263, 142.7094
1092.746, 143.0067
1093.228, 143.9611
1093.710, 144.4038
1094.192, 144.0777
1094.674, 143.7984
1095.156, 144.0740
1095.638, 144.6021
1096.120, 145.3403
1096.603, 146.1868
1097.085, 146.3103
1097.567, 145.6731
1098.049, 145.2362
1098.531, 145.3425
1099.013, 145.8036
1099.495, 146.7353
1099.977, 147.7518
1100.459, 148.3250
1100.942, 148.1530
1101.424, 148.2765
1101.906, 148.8248
1102.388, 149.2519
1102.870, 149.0959
1103.352, 148.6418
1103.834, 148.3936
1104.316, 148.3132
1104.798, 148.2986
1105.281, 148.2519
1105.763, 148.3977
1106.245, 148.9394
1106.727, 149.4172
1107.209, 149.2999
1107.691, 148.6727
1108.173, 147.7803
1108.655, 146.6615
1109.138, 145.6784
1109.620, 144.9877
1110.102, 144.5271
1110.584, 144.3411
1111.066, 144.3203
1111.548, 144.2976
1112.030, 144.2678
1112.512, 143.9509
1112.995, 143.2341
1113.477, 142.6283
1113.959, 142.7805
1114.441, 143.0796
1114.923, 142.9062
1115.405, 142.2603
1115.887, 142.0349
1116.369, 142.2949
1116.851, 142.6184
1117.333, 142.9026
1117.816, 143.0875
1118.298, 143.1176
1118.780, 142.9872
1119.262, 142.6356
1119.744, 141.8598
1120.226, 141.5297
1120.708, 141.9081
1121.190, 142.1397
1121.673, 141.4682
1122.155, 140.4423
1122.637, 140.5486
1123.119, 141.3975
1123.601, 141.9128
1124.083, 141.3938
1124.565, 140.8700
1125.047, 140.2992
1125.530, 140.0408
1126.012, 140.6178
1126.494, 141.8388
1126.976, 142.6910
1127.458, 143.1557
1127.940, 143.3775
1128.422, 143.3522
1128.904, 143.1913
1129.386, 142.8298
1129.869, 142.4291
1130.351, 142.2593
1130.833, 142.3156
1131.315, 142.3793
1131.797, 142.4313
1132.279, 142.3653
1132.761, 141.6194
1133.243, 141.1443
1133.725, 142.0445
1134.208, 143.9232
1134.690, 144.7417
1135.172, 144.3737
1135.654, 143.8207
1136.136, 143.2281
1136.618, 142.8530
1137.100, 143.1033
1137.582, 143.6457
1138.065, 144.1595
1138.547, 144.6028
1139.029, 144.9433
1139.511, 145.2208
1139.993, 145.2288
1140.475, 144.7339
1140.957, 144.1718
1141.439, 144.3027
1141.922, 144.8355
1142.404, 145.2876
1142.886, 145.5569
1143.368, 145.6643
1143.850, 145.5597
1144.332, 145.4173
1144.814, 145.2889
1145.296, 145.2292
1145.778, 145.5327
1146.260, 146.0316
1146.743, 146.2439
1147.225, 145.5165
1147.707, 143.9732
1148.189, 145.4689
1148.671, 146.3708
1149.153, 146.7107
1149.635, 144.8057
1150.117, 145.7996
1150.600, 145.6320
1151.082, 145.4165
1151.564, 146.8184
1152.046, 145.2399
1152.528, 146.6162
1153.010, 146.8129
1153.492, 147.5495
1153.974, 147.1172
1154.457, 147.0462
1154.939, 148.1442
1155.421, 148.5948
1155.903, 148.0278
1156.385, 148.7987
1156.867, 147.1794
1157.349, 147.6575
1157.831, 149.0406
1158.313, 148.5325
1158.796, 149.3251
1159.278, 149.6220
1159.760, 147.6683
1160.242, 149.6288
1160.724, 149.8966
1161.206, 148.4262
1161.688, 150.2526
1162.170, 149.0218
1162.652, 148.8822
1163.135, 149.5642
1163.617, 149.3898
1164.099, 150.5651
1164.581, 150.4402
1165.063, 150.1990
1165.545, 150.4648
1166.027, 149.2940
1166.509, 150.7885
1166.992, 150.4626
1167.474, 150.8828
1167.956, 151.0546
1168.438, 151.1620
1168.920, 150.8432
1169.402, 150.4937
1169.884, 150.7607
1170.366, 152.1183
1170.849, 152.8826
1171.331, 152.9291
1171.813, 152.8292
1172.295, 152.9489
1172.777, 153.0808
1173.259, 152.6232
1173.741, 151.9770
1174.223, 151.9607
1174.705, 153.5882
1175.188, 154.4285
1175.670, 154.3295
1176.152, 153.7854
1176.634, 152.6995
1177.116, 151.6557
1177.598, 152.0676
1178.080, 153.5059
1178.562, 154.6462
1179.044, 155.1462
1179.527, 155.0872
1180.009, 154.1965
1180.491, 153.3554
1180.973, 153.5203
1181.455, 154.3269
1181.937, 155.0716
1182.419, 155.6914
1182.901, 156.0645
1183.384, 155.7701
1183.866, 155.7858
1184.348, 156.4244
1184.830, 157.1519
1185.312, 157.1154
1185.794, 156.6743
1186.276, 156.9888
1186.758, 158.0349
1187.240, 158.5693
1187.723, 156.9724
1188.205, 156.3262
1188.687, 157.7487
1189.169, 159.9161
1189.651, 160.6231
1190.133, 160.2673
1190.615, 160.0317
1191.097, 160.0709
1191.579, 160.0498
1192.062, 159.6938
1192.544, 159.4126
1193.026, 159.3774
1193.508, 159.4595
1193.990, 159.3034
1194.472, 159.0215
1194.954, 159.0563
1195.436, 159.5284
1195.919, 159.9522
1196.401, 160.1409
1196.883, 160.1833
1197.365, 160.0418
1197.847, 159.8422
1198.329, 159.9886
1198.811, 160.4030
1199.293, 160.7899
1199.776, 161.0807
1200.258, 161.3200
1200.740, 161.4235
1201.222, 161.6023
1201.704, 162.0370
1202.186, 162.5953
1202.668, 162.4803
1203.150, 161.9662
1203.632, 162.3525
1204.115, 164.6663
1204.597, 166.1224
1205.079, 164.4314
1205.561, 162.4653
1206.043, 161.8657
1206.525, 162.3991
1207.007, 163.1653
1207.489, 164.0627
1207.971, 164.6347
1208.454, 164.4881
1208.936, 164.4095
1209.418, 164.9254
1209.900, 165.4302
1210.382, 165.4507
1210.864, 165.7548
1211.346, 165.9169
1211.828, 165.7180
1212.311, 165.9583
1212.793, 165.4625
1213.275, 164.9899
1213.757, 164.7152
1214.239, 164.6759
1214.721, 164.9730
1215.203, 165.5619
1215.685, 166.3139
1216.167, 167.1102
1216.650, 167.3385
1217.132, 165.6631
1217.614, 164.7449
1218.096, 165.8909
1218.578, 167.6073
1219.060, 168.7547
1219.542, 169.3518
1220.024, 169.4884
1220.506, 169.2080
1220.989, 168.7494
1221.471, 167.8325
1221.953, 167.2900
1222.435, 167.4700
1222.917, 167.9624
1223.399, 168.3978
1223.881, 168.7924
1224.363, 169.2686
1224.846, 169.7952
1225.328, 170.1495
1225.810, 169.9274
1226.292, 169.9404
1226.774, 170.5576
1227.256, 171.2372
1227.738, 171.1855
1228.220, 170.6656
1228.703, 170.7756
1229.185, 171.4504
1229.667, 171.8363
1230.149, 170.9490
1230.631, 170.5834
1231.113, 171.3357
1231.595, 172.4202
1232.077, 172.7287
1232.559, 172.5795
1233.042, 173.0259
1233.524, 174.0195
1234.006, 174.5797
1234.488, 173.8611
1234.970, 173.2484
1235.452, 172.9866
1235.934, 172.9708
1236.416, 173.0871
1236.898, 173.3390
1237.381, 173.8557
1237.863, 174.5894
1238.345, 175.0382
1238.827, 174.8659
1239.309, 174.6130
1239.791, 174.2928
1240.273, 174.0863
1240.755, 174.3617
1241.238, 174.8690
1241.720, 175.1680
1242.202, 175.2240
1242.684, 175.1168
1243.166, 174.5675
1243.648, 174.5218
1244.130, 175.2793
1244.612, 176.2630
1245.094, 176.6589
1245.577, 176.8272
1246.059, 177.4445
1246.541, 178.5089
1247.023, 178.9573
1247.505, 178.4262
1247.987, 178.1251
1248.469, 178.3235
1248.951, 178.7621
1249.433, 179.2673
1249.916, 179.7216
1250.398, 179.9536
1250.880, 179.9602
1251.362, 180.0159
1251.844, 180.1548
1252.326, 180.2140
1252.808, 180.1171
1253.290, 180.1120
1253.773, 180.6703
1254.255, 181.3021
1254.737, 181.4709
1255.219, 181.1919
1255.701, 181.0794
1256.183, 181.1677
1256.665, 181.0103
1257.147, 180.3894
1257.630, 180.1641
1258.112, 181.7886
1258.594, 183.6101
1259.076, 184.0036
1259.558, 183.3212
1260.040, 183.2630
1260.522, 183.8172
1261.004, 183.8513
1261.486, 183.0185
1261.969, 182.3185
1262.451, 182.4475
1262.933, 183.0556
1263.415, 184.1366
1263.897, 185.4219
1264.379, 186.0186
1264.861, 185.9896
1265.343, 185.6917
1265.825, 185.1550
1266.308, 184.7533
1266.790, 184.7829
1267.272, 184.9292
1267.754, 185.0247
1268.236, 185.1245
1268.718, 185.3103
1269.200, 185.6272
1269.682, 186.3049
1270.165, 187.4370
1270.647, 188.4427
1271.129, 189.0225
1271.611, 189.5151
1272.093, 190.1232
1272.575, 190.5913
1273.057, 190.1621
1273.539, 189.2642
1274.021, 188.9200
1274.504, 189.3507
1274.986, 189.6253
1275.468, 189.3367
1275.950, 189.4146
1276.432, 190.2854
1276.914, 191.3343
1277.396, 191.6375
1277.878, 191.4783
1278.360, 191.2364
1278.843, 190.9621
1279.325, 190.7492
1279.807, 190.6219
1280.289, 190.4114
1280.771, 189.9322
1281.253, 189.8029
1281.735, 191.3820
1282.217, 193.2932
1282.700, 193.9515
1283.182, 193.3046
1283.664, 192.6234
1284.146, 191.8649
1284.628, 191.5817
1285.110, 191.9543
1285.592, 192.6005
1286.074, 193.4620
1286.557, 194.2036
1287.039, 194.4811
1287.521, 194.4261
1288.003, 194.4672
1288.485, 194.6073
1288.967, 194.9539
1289.449, 195.5688
1289.931, 196.0370
1290.413, 196.0788
1290.896, 195.9099
1291.378, 195.5818
1291.860, 195.2015
1292.342, 194.9812
1292.824, 194.9400
1293.306, 195.1623
1293.788, 195.6745
1294.270, 196.2742
1294.752, 197.0723
1295.235, 197.6752
1295.717, 197.9291
1296.199, 198.0059
1296.681, 198.1617
1297.163, 198.3623
1297.645, 198.6025
1298.127, 198.8798
1298.609, 198.8507
1299.092, 198.2571
1299.574, 197.9811
1300.056, 198.2658
1300.538, 198.8144
1301.020, 199.4368
1301.502, 200.0159
1301.984, 200.3836
1302.466, 200.5432
1302.948, 200.7638
1303.431, 201.0767
1303.913, 201.2524
1304.395, 201.2811
1304.877, 201.0429
##END=



