##NAMES=Axinite-(Mg)
##RRUFFID=R070133
##IDEAL CHEMISTRY=Ca_4_Mg_2_Al_4_[B_2_Si_8_O_30_](OH)_2_
##LOCALITY=Merelani, Tanzania
##OWNER=RRUFF
##SOURCE=Michael Gray
##DESCRIPTION=Pale brown cut gem stone
##STATUS=The identification of this mineral is confirmed by single-crystal X-ray diffraction and chemical analysis.
##URL=rruff.info/R070133
##MEASURED CHEMISTRY=Ca_4.00_(Mg_1.86_Al_0.08_Mn_0.06_)_Σ=2_Al_4.00_[B_2_(Si_7.92_Al_0.08_)_Σ=8_O_30_](OH)_2_; B and OH not measured but assumed by stoichiometry
120.2904, 1105.854
120.7725, 1178.047
121.2547, 1258.821
121.7368, 1347.741
122.2189, 1449.586
122.7010, 1558.038
123.1831, 1665.996
123.6652, 1768.542
124.1474, 1870.755
124.6295, 1979.633
125.1116, 2095.415
125.5937, 2211.488
126.0758, 2322.635
126.5579, 2429.754
127.0401, 2533.255
127.5222, 2630.296
128.0043, 2724.891
128.4864, 2828.724
128.9685, 2946.175
129.4506, 3062.955
129.9328, 3154.479
130.4149, 3222.626
130.8970, 3295.985
131.3791, 3397.522
131.8612, 3523.386
132.3433, 3641.579
132.8255, 3748.300
133.3076, 3845.237
133.7897, 3934.851
134.2718, 4016.368
134.7539, 4096.558
135.2360, 4188.631
135.7182, 4296.038
136.2003, 4377.984
136.6824, 4417.438
137.1645, 4418.397
137.6466, 4437.951
138.1287, 4483.451
138.6109, 4535.145
139.0930, 4563.289
139.5751, 4558.938
140.0572, 4558.863
140.5393, 4577.592
141.0215, 4621.125
141.5036, 4654.580
141.9857, 4667.235
142.4678, 4675.068
142.9499, 4718.349
143.4320, 4814.349
143.9142, 4918.397
144.3963, 5008.662
144.8784, 5079.010
145.3605, 5147.756
145.8426, 5209.682
146.3247, 5268.049
146.8069, 5348.636
147.2890, 5466.016
147.7711, 5593.746
148.2532, 5714.876
148.7353, 5825.939
149.2174, 5934.489
149.6996, 6046.517
150.1817, 6165.712
150.6638, 6257.951
151.1459, 6318.755
151.6280, 6354.217
152.1101, 6370.109
152.5923, 6355.854
153.0744, 6332.305
153.5565, 6299.857
154.0386, 6252.342
154.5207, 6218.365
155.0028, 6202.971
155.4850, 6203.211
155.9671, 6214.412
156.4492, 6244.960
156.9313, 6279.210
157.4134, 6309.949
157.8955, 6332.742
158.3777, 6359.063
158.8598, 6388.735
159.3419, 6423.859
159.8240, 6469.729
160.3061, 6536.969
160.7882, 6610.756
161.2704, 6682.037
161.7525, 6761.011
162.2346, 6823.646
162.7167, 6861.181
163.1988, 6874.503
163.6809, 6866.591
164.1631, 6827.530
164.6452, 6772.295
165.1273, 6715.833
165.6094, 6651.559
166.0915, 6597.110
166.5736, 6566.248
167.0558, 6559.596
167.5379, 6559.878
168.0200, 6559.188
168.5021, 6558.115
168.9842, 6557.560
169.4663, 6556.437
169.9485, 6556.813
170.4306, 6561.614
170.9127, 6571.902
171.3948, 6582.000
171.8769, 6585.561
172.3591, 6585.060
172.8412, 6586.488
173.3233, 6594.389
173.8054, 6605.626
174.2875, 6615.528
174.7696, 6622.027
175.2518, 6630.467
175.7339, 6650.752
176.2160, 6679.988
176.6981, 6704.205
177.1802, 6709.522
177.6623, 6704.139
178.1445, 6703.615
178.6266, 6712.204
179.1087, 6726.114
179.5908, 6740.252
180.0729, 6754.619
180.5550, 6770.166
181.0372, 6788.300
181.5193, 6808.318
182.0014, 6827.157
182.4835, 6841.233
182.9656, 6855.027
183.4477, 6879.505
183.9299, 6915.108
184.4120, 6954.235
184.8941, 6989.110
185.3762, 7020.838
185.8583, 7053.458
186.3404, 7091.576
186.8226, 7132.064
187.3047, 7164.601
187.7868, 7188.031
188.2689, 7207.531
188.7510, 7228.773
189.2331, 7251.628
189.7153, 7275.934
190.1974, 7305.824
190.6795, 7338.837
191.1616, 7356.124
191.6437, 7352.102
192.1258, 7342.684
192.6080, 7355.764
193.0901, 7392.141
193.5722, 7434.629
194.0543, 7473.628
194.5364, 7509.323
195.0185, 7551.673
195.5007, 7605.557
195.9828, 7661.552
196.4649, 7699.352
196.9470, 7719.763
197.4291, 7720.745
197.9112, 7692.354
198.3934, 7632.632
198.8755, 7584.980
199.3576, 7555.094
199.8397, 7541.052
200.3218, 7540.428
200.8039, 7557.445
201.2861, 7573.103
201.7682, 7564.884
202.2503, 7526.548
202.7324, 7511.733
203.2145, 7538.487
203.6967, 7598.810
204.1788, 7634.376
204.6609, 7636.897
205.1430, 7633.218
205.6251, 7651.808
206.1072, 7698.963
206.5894, 7739.971
207.0715, 7764.149
207.5536, 7772.055
208.0357, 7788.407
208.5178, 7814.419
208.9999, 7847.037
209.4821, 7882.633
209.9642, 7920.025
210.4463, 7964.528
210.9284, 8021.044
211.4105, 8090.901
211.8926, 8151.750
212.3748, 8205.260
212.8569, 8247.889
213.3390, 8271.952
213.8211, 8268.875
214.3032, 8268.571
214.7853, 8284.420
215.2675, 8322.196
215.7496, 8345.581
216.2317, 8350.930
216.7138, 8344.475
217.1959, 8335.751
217.6780, 8319.682
218.1602, 8311.638
218.6423, 8316.858
219.1244, 8334.333
219.6065, 8370.235
220.0886, 8433.437
220.5707, 8512.143
221.0529, 8574.360
221.5350, 8616.872
222.0171, 8650.383
222.4992, 8679.474
222.9813, 8702.467
223.4634, 8725.800
223.9456, 8755.377
224.4277, 8784.777
224.9098, 8788.120
225.3919, 8751.496
225.8740, 8710.161
226.3561, 8681.813
226.8383, 8667.203
227.3204, 8665.774
227.8025, 8685.647
228.2846, 8719.885
228.7667, 8733.838
229.2488, 8718.637
229.7310, 8694.685
230.2131, 8672.085
230.6952, 8643.420
231.1773, 8633.141
231.6594, 8650.733
232.1415, 8691.633
232.6237, 8720.225
233.1058, 8735.152
233.5879, 8739.389
234.0700, 8731.885
234.5521, 8698.008
235.0343, 8682.428
235.5164, 8697.541
235.9985, 8741.145
236.4806, 8772.108
236.9627, 8783.883
237.4448, 8789.887
237.9270, 8799.843
238.4091, 8810.689
238.8912, 8831.599
239.3733, 8866.937
239.8554, 8916.585
240.3375, 8962.711
240.8197, 9006.813
241.3018, 9045.868
241.7839, 9077.932
242.2660, 9103.941
242.7481, 9120.902
243.2302, 9126.043
243.7124, 9118.770
244.1945, 9113.351
244.6766, 9108.263
245.1587, 9106.504
245.6408, 9112.039
246.1229, 9130.055
246.6051, 9145.122
247.0872, 9150.465
247.5693, 9143.908
248.0514, 9156.074
248.5335, 9200.545
249.0156, 9251.682
249.4978, 9275.752
249.9799, 9250.447
250.4620, 9242.550
250.9441, 9274.362
251.4262, 9352.328
251.9083, 9409.752
252.3905, 9439.475
252.8726, 9454.659
253.3547, 9468.723
253.8368, 9475.920
254.3189, 9494.231
254.8010, 9532.500
255.2832, 9595.090
255.7653, 9645.589
256.2474, 9682.991
256.7295, 9708.756
257.2116, 9719.885
257.6938, 9702.678
258.1759, 9701.452
258.6580, 9732.688
259.1401, 9801.338
259.6222, 9864.737
260.1043, 9919.743
260.5865, 9972.044
261.0686, 10028.48
261.5507, 10089.30
262.0328, 10153.32
262.5149, 10220.08
262.9970, 10289.46
263.4792, 10365.78
263.9613, 10453.87
264.4434, 10544.79
264.9255, 10622.51
265.4076, 10678.74
265.8897, 10744.96
266.3719, 10835.22
266.8540, 10951.98
267.3361, 11063.41
267.8182, 11166.84
268.3003, 11266.65
268.7824, 11376.97
269.2646, 11508.59
269.7467, 11613.66
270.2288, 11676.95
270.7109, 11696.63
271.1930, 11688.06
271.6751, 11643.90
272.1573, 11581.78
272.6394, 11524.42
273.1215, 11469.82
273.6036, 11429.24
274.0857, 11415.33
274.5678, 11430.18
275.0500, 11415.24
275.5321, 11362.12
276.0142, 11293.48
276.4963, 11251.03
276.9784, 11242.67
277.4605, 11208.96
277.9427, 11111.30
278.4248, 10952.35
278.9069, 10837.38
279.3890, 10774.15
279.8711, 10740.42
280.3532, 10705.70
280.8354, 10669.26
281.3175, 10640.55
281.7996, 10627.21
282.2817, 10627.54
282.7638, 10618.51
283.2459, 10596.00
283.7281, 10576.01
284.2102, 10578.50
284.6923, 10603.51
285.1744, 10647.07
285.6565, 10725.83
286.1386, 10828.48
286.6208, 10875.71
287.1029, 10858.73
287.5850, 10819.70
288.0671, 10808.09
288.5492, 10822.52
289.0313, 10845.47
289.5135, 10872.27
289.9956, 10902.21
290.4777, 10932.93
290.9598, 10964.46
291.4419, 10997.30
291.9240, 11033.69
292.4062, 11072.88
292.8883, 11109.03
293.3704, 11130.82
293.8525, 11149.12
294.3346, 11201.60
294.8167, 11291.41
295.2989, 11378.43
295.7810, 11403.04
296.2631, 11384.88
296.7452, 11393.93
297.2273, 11475.80
297.7094, 11595.36
298.1916, 11693.16
298.6737, 11767.85
299.1558, 11835.71
299.6379, 11914.54
300.1200, 11997.61
300.6021, 12071.38
301.0843, 12137.61
301.5664, 12187.25
302.0485, 12205.20
302.5306, 12192.03
303.0127, 12162.40
303.4948, 12122.42
303.9770, 12074.77
304.4591, 12023.12
304.9412, 11968.71
305.4233, 11911.40
305.9054, 11846.36
306.3875, 11775.13
306.8697, 11711.85
307.3518, 11659.07
307.8339, 11622.58
308.3160, 11611.51
308.7981, 11642.77
309.2802, 11687.42
309.7624, 11730.78
310.2445, 11771.49
310.7266, 11799.15
311.2087, 11790.73
311.6909, 11773.73
312.1730, 11776.35
312.6551, 11820.57
313.1372, 11870.45
313.6193, 11908.24
314.1014, 11935.46
314.5836, 11957.85
315.0657, 11968.05
315.5478, 11980.09
316.0299, 12005.49
316.5120, 12056.67
316.9941, 12108.67
317.4763, 12148.17
317.9584, 12179.84
318.4405, 12219.38
318.9226, 12276.57
319.4047, 12339.77
319.8868, 12403.94
320.3690, 12482.45
320.8511, 12539.76
321.3332, 12556.66
321.8153, 12545.25
322.2974, 12538.04
322.7795, 12554.49
323.2617, 12566.13
323.7438, 12558.38
324.2259, 12511.99
324.7080, 12478.61
325.1901, 12470.03
325.6722, 12477.54
326.1544, 12482.46
326.6365, 12488.63
327.1186, 12487.78
327.6007, 12475.70
328.0828, 12444.65
328.5649, 12420.64
329.0471, 12404.23
329.5292, 12394.72
330.0113, 12391.16
330.4934, 12397.34
330.9755, 12404.43
331.4576, 12409.06
331.9398, 12409.25
332.4219, 12415.53
332.9040, 12424.50
333.3861, 12442.28
333.8682, 12482.41
334.3503, 12568.79
334.8325, 12625.97
335.3146, 12620.40
335.7967, 12547.76
336.2788, 12534.92
336.7609, 12600.34
337.2430, 12697.08
337.7252, 12776.85
338.2073, 12839.99
338.6894, 12888.83
339.1715, 12919.76
339.6536, 12936.22
340.1357, 12961.03
340.6179, 12994.56
341.1000, 13035.90
341.5821, 13092.88
342.0642, 13165.46
342.5463, 13214.31
343.0284, 13219.19
343.5106, 13203.24
343.9927, 13239.83
344.4748, 13331.69
344.9569, 13432.10
345.4390, 13496.93
345.9211, 13534.97
346.4033, 13599.06
346.8854, 13705.83
347.3675, 13827.90
347.8496, 13916.01
348.3317, 13972.39
348.8138, 14020.04
349.2960, 14077.74
349.7781, 14136.19
350.2602, 14175.82
350.7423, 14191.51
351.2244, 14195.43
351.7065, 14199.36
352.1887, 14202.64
352.6708, 14202.95
353.1529, 14197.98
353.6350, 14189.81
354.1171, 14181.65
354.5992, 14174.23
355.0814, 14163.05
355.5635, 14137.14
356.0456, 14105.65
356.5277, 14084.63
357.0098, 14097.52
357.4919, 14111.71
357.9741, 14099.08
358.4562, 14057.79
358.9383, 14021.29
359.4204, 14013.94
359.9025, 14018.76
360.3846, 14016.80
360.8668, 13999.77
361.3489, 13976.62
361.8310, 13949.06
362.3131, 13917.50
362.7952, 13886.75
363.2773, 13846.76
363.7595, 13815.08
364.2416, 13804.03
364.7237, 13827.74
365.2058, 13859.18
365.6879, 13904.09
366.1700, 13956.78
366.6522, 13989.94
367.1343, 13979.79
367.6164, 13965.68
368.0985, 13965.86
368.5806, 13990.44
369.0627, 14014.13
369.5449, 14037.57
370.0270, 14059.87
370.5091, 14079.86
370.9912, 14095.71
371.4733, 14111.74
371.9554, 14128.70
372.4376, 14145.68
372.9197, 14168.28
373.4018, 14199.88
373.8839, 14233.61
374.3661, 14257.83
374.8482, 14266.84
375.3303, 14284.19
375.8124, 14322.06
376.2945, 14378.82
376.7766, 14415.11
377.2588, 14425.90
377.7409, 14428.93
378.2230, 14441.82
378.7051, 14464.62
379.1872, 14491.03
379.6693, 14520.62
380.1515, 14552.08
380.6336, 14575.87
381.1157, 14591.22
381.5978, 14617.08
382.0799, 14686.76
382.5620, 14783.56
383.0442, 14839.43
383.5263, 14831.04
384.0084, 14800.13
384.4905, 14806.07
384.9726, 14844.32
385.4547, 14888.99
385.9369, 14930.33
386.4190, 14967.30
386.9011, 14995.38
387.3832, 15011.40
387.8653, 15032.17
388.3474, 15074.90
388.8296, 15133.11
389.3117, 15193.36
389.7938, 15251.87
390.2759, 15307.52
390.7580, 15356.64
391.2401, 15398.26
391.7223, 15446.93
392.2044, 15524.55
392.6865, 15607.15
393.1686, 15670.78
393.6507, 15696.45
394.1328, 15711.60
394.6150, 15724.43
395.0971, 15734.68
395.5792, 15738.47
396.0613, 15726.26
396.5434, 15713.12
397.0255, 15707.69
397.5077, 15709.79
397.9898, 15721.40
398.4719, 15751.62
398.9540, 15792.19
399.4361, 15819.46
399.9182, 15820.01
400.4004, 15821.85
400.8825, 15832.96
401.3646, 15849.67
401.8467, 15890.59
402.3288, 15972.75
402.8109, 16064.94
403.2931, 16116.83
403.7752, 16112.83
404.2573, 16111.99
404.7394, 16131.85
405.2215, 16171.77
405.7036, 16210.23
406.1858, 16245.39
406.6679, 16284.15
407.1500, 16341.84
407.6321, 16418.51
408.1142, 16468.37
408.5963, 16473.38
409.0785, 16452.60
409.5606, 16450.79
410.0427, 16467.84
410.5248, 16490.63
411.0069, 16507.00
411.4890, 16522.25
411.9712, 16552.20
412.4533, 16601.82
412.9354, 16658.11
413.4175, 16703.07
413.8996, 16741.17
414.3817, 16784.01
414.8639, 16839.82
415.3460, 16901.85
415.8281, 16963.07
416.3102, 17023.36
416.7923, 17083.10
417.2744, 17137.53
417.7566, 17192.23
418.2387, 17252.72
418.7208, 17350.24
419.2029, 17427.29
419.6850, 17434.93
420.1671, 17386.19
420.6493, 17378.14
421.1314, 17518.78
421.6135, 17657.99
422.0956, 17703.32
422.5777, 17559.89
423.0598, 17438.78
423.5420, 17368.74
424.0241, 17336.73
424.5062, 17308.65
424.9883, 17256.29
425.4704, 17239.71
425.9525, 17288.51
426.4347, 17425.58
426.9168, 17523.84
427.3989, 17576.44
427.8810, 17598.00
428.3631, 17597.79
428.8452, 17561.20
429.3274, 17551.78
429.8095, 17591.00
430.2916, 17669.80
430.7737, 17737.14
431.2558, 17791.88
431.7379, 17839.71
432.2201, 17876.80
432.7022, 17905.40
433.1843, 17959.92
433.6664, 18054.31
434.1486, 18156.14
434.6307, 18209.18
435.1128, 18218.59
435.5949, 18217.72
436.0770, 18218.77
436.5591, 18223.27
437.0413, 18235.63
437.5234, 18256.68
438.0055, 18278.28
438.4876, 18298.40
438.9697, 18313.62
439.4518, 18318.10
439.9340, 18299.60
440.4161, 18278.08
440.8982, 18260.07
441.3803, 18247.61
441.8624, 18252.56
442.3445, 18292.51
442.8267, 18344.18
443.3088, 18391.12
443.7909, 18425.70
444.2730, 18463.26
444.7551, 18514.79
445.2372, 18571.16
445.7194, 18614.50
446.2015, 18630.64
446.6836, 18645.25
447.1657, 18664.12
447.6478, 18686.65
448.1299, 18718.21
448.6121, 18769.72
449.0942, 18820.21
449.5763, 18847.54
450.0584, 18845.35
450.5405, 18836.86
451.0226, 18822.46
451.5048, 18805.16
451.9869, 18798.52
452.4690, 18804.59
452.9511, 18812.69
453.4332, 18810.11
453.9153, 18799.01
454.3975, 18814.04
454.8796, 18863.40
455.3617, 18922.43
455.8438, 18958.43
456.3259, 18973.83
456.8080, 18982.66
457.2902, 18985.60
457.7723, 18987.79
458.2544, 18993.80
458.7365, 19004.05
459.2186, 19026.97
459.7007, 19087.51
460.1829, 19158.37
460.6650, 19203.37
461.1471, 19200.17
461.6292, 19188.96
462.1113, 19187.09
462.5934, 19194.48
463.0756, 19210.67
463.5577, 19244.19
464.0398, 19279.69
464.5219, 19305.80
465.0040, 19314.43
465.4861, 19341.81
465.9683, 19414.31
466.4504, 19498.85
466.9325, 19560.96
467.4146, 19577.74
467.8967, 19601.28
468.3788, 19639.94
468.8610, 19691.95
469.3431, 19747.09
469.8252, 19814.73
470.3073, 19868.84
470.7894, 19882.20
471.2715, 19840.97
471.7537, 19855.49
472.2358, 19950.76
472.7179, 20067.77
473.2000, 20090.11
473.6821, 20018.98
474.1642, 19981.50
474.6464, 20054.31
475.1285, 20191.24
475.6106, 20259.31
476.0927, 20258.47
476.5748, 20246.24
477.0569, 20269.44
477.5391, 20314.72
478.0212, 20358.27
478.5033, 20393.14
478.9854, 20427.92
479.4675, 20469.59
479.9496, 20516.62
480.4318, 20565.15
480.9139, 20613.94
481.3960, 20662.64
481.8781, 20711.07
482.3602, 20759.42
482.8423, 20806.99
483.3245, 20848.97
483.8066, 20892.75
484.2887, 20945.23
484.7708, 21021.90
485.2529, 21089.07
485.7350, 21130.81
486.2172, 21158.47
486.6993, 21222.62
487.1814, 21354.69
487.6635, 21475.22
488.1456, 21543.41
488.6277, 21544.58
489.1099, 21569.36
489.5920, 21623.63
490.0741, 21691.00
490.5562, 21763.93
491.0383, 21844.16
491.5204, 21880.22
492.0026, 21844.71
492.4847, 21765.36
492.9668, 21706.79
493.4489, 21668.73
493.9310, 21644.21
494.4131, 21623.30
494.8953, 21614.15
495.3774, 21639.48
495.8595, 21710.81
496.3416, 21778.84
496.8238, 21793.05
497.3059, 21778.55
497.7880, 21778.16
498.2701, 21822.26
498.7522, 21873.65
499.2343, 21907.15
499.7165, 21925.20
500.1986, 21961.32
500.6807, 22049.89
501.1628, 22141.77
501.6449, 22207.98
502.1270, 22223.13
502.6092, 22247.66
503.0913, 22289.27
503.5734, 22338.82
504.0555, 22380.34
504.5376, 22404.52
505.0197, 22439.27
505.5019, 22498.94
505.9840, 22580.17
506.4661, 22628.83
506.9482, 22638.15
507.4303, 22638.68
507.9124, 22654.71
508.3946, 22685.34
508.8767, 22717.07
509.3588, 22749.22
509.8409, 22779.89
510.3230, 22795.70
510.8051, 22804.26
511.2873, 22836.10
511.7694, 22927.24
512.2515, 23038.01
512.7336, 23132.25
513.2157, 23208.19
513.6978, 23251.43
514.1799, 23223.68
514.6620, 23173.75
515.1442, 23147.07
515.6263, 23160.41
516.1084, 23186.64
516.5905, 23228.35
517.0726, 23276.01
517.5547, 23310.25
518.0369, 23321.78
518.5190, 23326.01
519.0011, 23320.01
519.4832, 23301.85
519.9653, 23310.36
520.4474, 23353.85
520.9296, 23413.10
521.4117, 23477.28
521.8938, 23548.60
522.3759, 23615.16
522.8580, 23677.47
523.3401, 23732.64
523.8223, 23775.10
524.3044, 23804.60
524.7865, 23829.60
525.2686, 23857.65
525.7507, 23882.47
526.2328, 23880.62
526.7150, 23853.01
527.1971, 23832.08
527.6793, 23833.05
528.1614, 23860.33
528.6435, 23927.08
529.1256, 24052.95
529.6077, 24174.94
530.0898, 24257.26
530.5720, 24307.54
531.0541, 24341.38
531.5362, 24347.99
532.0183, 24353.73
532.5004, 24366.61
532.9825, 24387.12
533.4647, 24415.15
533.9468, 24456.08
534.4289, 24500.19
534.9110, 24540.61
535.3931, 24563.06
535.8752, 24616.38
536.3574, 24715.33
536.8395, 24831.30
537.3216, 24926.22
537.8037, 25002.84
538.2858, 25031.78
538.7679, 24980.56
539.2501, 24881.49
539.7322, 24850.45
540.2143, 24887.33
540.6964, 24948.66
541.1785, 25005.03
541.6606, 25062.42
542.1428, 25135.38
542.6249, 25229.99
543.1070, 25320.61
543.5891, 25382.77
544.0712, 25427.40
544.5533, 25471.66
545.0355, 25518.18
545.5176, 25569.38
545.9997, 25631.16
546.4818, 25701.12
546.9639, 25761.67
547.4460, 25811.19
547.9282, 25848.33
548.4103, 25868.86
548.8924, 25859.74
549.3745, 25875.27
549.8566, 25929.63
550.3387, 25994.88
550.8209, 26036.97
551.3030, 26048.63
551.7851, 26069.00
552.2672, 26107.15
552.7493, 26157.24
553.2314, 26203.07
553.7136, 26244.69
554.1957, 26289.88
554.6778, 26356.45
555.1599, 26427.81
555.6420, 26456.95
556.1241, 26441.12
556.6063, 26425.13
557.0884, 26449.11
557.5705, 26494.23
558.0526, 26534.04
558.5347, 26543.72
559.0168, 26574.75
559.4990, 26686.23
559.9811, 26835.45
560.4632, 26930.67
560.9453, 26885.96
561.4274, 26845.03
561.9095, 26859.85
562.3917, 26933.17
562.8738, 27003.14
563.3559, 27076.76
563.8380, 27136.38
564.3201, 27160.45
564.8022, 27132.63
565.2844, 27149.99
565.7665, 27229.36
566.2486, 27335.10
566.7307, 27417.91
567.2128, 27477.78
567.6949, 27520.72
568.1771, 27541.07
568.6592, 27552.10
569.1413, 27576.41
569.6234, 27613.06
570.1055, 27657.67
570.5876, 27718.64
571.0698, 27779.44
571.5519, 27818.54
572.0340, 27828.77
572.5161, 27848.38
572.9982, 27899.23
573.4803, 27966.51
573.9625, 28034.12
574.4446, 28102.17
574.9267, 28167.70
575.4088, 28236.47
575.8909, 28303.03
576.3730, 28345.43
576.8552, 28338.90
577.3373, 28356.41
577.8194, 28437.98
578.3015, 28579.85
578.7836, 28658.91
579.2657, 28662.30
579.7479, 28655.36
580.2300, 28702.75
580.7121, 28790.85
581.1942, 28849.72
581.6763, 28862.12
582.1584, 28869.07
582.6406, 28933.58
583.1227, 29027.71
583.6048, 29090.77
584.0869, 29039.39
584.5690, 28998.60
585.0511, 29069.90
585.5333, 29230.38
586.0154, 29361.93
586.4975, 29397.88
586.9796, 29417.71
587.4617, 29463.88
587.9438, 29553.51
588.4260, 29617.95
588.9081, 29638.85
589.3902, 29650.71
589.8723, 29686.54
590.3544, 29753.75
590.8365, 29815.88
591.3187, 29864.77
591.8008, 29911.82
592.2829, 29996.40
592.7650, 30115.29
593.2471, 30196.39
593.7292, 30167.79
594.2114, 30096.75
594.6935, 30128.31
595.1756, 30251.52
595.6577, 30357.48
596.1398, 30357.58
596.6219, 30312.39
597.1041, 30273.38
597.5862, 30243.16
598.0683, 30243.00
598.5504, 30302.68
599.0325, 30388.34
599.5146, 30461.17
599.9968, 30499.66
600.4789, 30546.32
600.9610, 30610.16
601.4431, 30684.01
601.9252, 30746.07
602.4073, 30793.03
602.8895, 30834.34
603.3716, 30874.40
603.8537, 30912.06
604.3358, 30936.46
604.8179, 30945.87
605.3000, 30958.94
605.7822, 30990.71
606.2643, 31037.75
606.7464, 31093.59
607.2285, 31156.60
607.7106, 31229.20
608.1927, 31327.99
608.6749, 31433.79
609.1570, 31516.08
609.6391, 31548.32
610.1212, 31572.90
610.6033, 31607.99
611.0854, 31649.04
611.5676, 31677.19
612.0497, 31650.01
612.5318, 31654.24
613.0139, 31729.39
613.4960, 31883.03
613.9781, 31982.75
614.4603, 32008.92
614.9424, 32029.71
615.4245, 32116.75
615.9066, 32263.76
616.3887, 32338.66
616.8708, 32313.58
617.3530, 32267.10
617.8351, 32305.76
618.3172, 32402.40
618.7993, 32490.16
619.2814, 32537.30
619.7635, 32574.42
620.2457, 32630.90
620.7278, 32698.03
621.2099, 32750.37
621.6920, 32747.90
622.1741, 32755.64
622.6563, 32811.06
623.1384, 32922.59
623.6205, 33011.94
624.1026, 33077.23
624.5847, 33119.87
625.0668, 33127.31
625.5490, 33073.15
626.0311, 33106.91
626.5132, 33261.72
626.9953, 33439.74
627.4774, 33489.33
627.9595, 33429.01
628.4417, 33415.41
628.9238, 33512.35
629.4059, 33641.40
629.8880, 33694.41
630.3701, 33690.09
630.8522, 33685.51
631.3344, 33696.71
631.8165, 33728.12
632.2986, 33790.43
632.7807, 33882.42
633.2628, 33970.83
633.7449, 34054.47
634.2271, 34126.24
634.7092, 34180.38
635.1913, 34206.93
635.6734, 34247.39
636.1555, 34307.86
636.6376, 34373.79
637.1198, 34427.02
637.6019, 34464.85
638.0840, 34515.29
638.5661, 34586.46
639.0482, 34665.40
639.5303, 34725.56
640.0125, 34772.22
640.4946, 34825.34
640.9767, 34911.56
641.4588, 34996.10
641.9409, 35029.66
642.4230, 35024.90
642.9052, 35040.38
643.3873, 35127.30
643.8694, 35222.21
644.3515, 35284.68
644.8336, 35298.62
645.3157, 35344.91
645.7979, 35456.31
646.2800, 35573.08
646.7621, 35648.33
647.2442, 35667.96
647.7263, 35702.11
648.2084, 35759.39
648.6906, 35823.97
649.1727, 35869.89
649.6548, 35900.02
650.1370, 35931.25
650.6191, 35963.43
651.1012, 36006.25
651.5833, 36085.81
652.0654, 36189.04
652.5475, 36274.87
653.0297, 36307.65
653.5118, 36329.05
653.9939, 36360.04
654.4760, 36402.02
654.9581, 36454.24
655.4402, 36526.81
655.9224, 36601.14
656.4045, 36670.17
656.8866, 36737.05
657.3687, 36784.33
657.8508, 36805.58
658.3329, 36818.59
658.8151, 36837.31
659.2972, 36861.97
659.7793, 36901.90
660.2614, 36960.21
660.7435, 37031.20
661.2256, 37115.80
661.7078, 37208.04
662.1899, 37292.08
662.6720, 37355.99
663.1541, 37415.00
663.6362, 37481.30
664.1183, 37552.02
664.6005, 37616.33
665.0826, 37659.29
665.5647, 37706.88
666.0468, 37772.14
666.5289, 37854.48
667.0110, 37934.38
667.4932, 38013.60
667.9753, 38087.64
668.4574, 38148.19
668.9395, 38194.43
669.4216, 38262.03
669.9037, 38354.52
670.3859, 38450.79
670.8680, 38528.88
671.3501, 38593.18
671.8322, 38651.43
672.3143, 38700.59
672.7964, 38756.65
673.2786, 38845.02
673.7607, 38946.21
674.2428, 39027.59
674.7249, 39062.46
675.2070, 39095.32
675.6891, 39141.66
676.1713, 39195.82
676.6534, 39235.79
677.1355, 39241.52
677.6176, 39270.87
678.0997, 39355.32
678.5818, 39483.68
679.0640, 39554.85
679.5461, 39563.05
680.0282, 39567.38
680.5103, 39620.55
680.9924, 39698.01
681.4745, 39734.75
681.9567, 39725.68
682.4388, 39723.22
682.9209, 39771.21
683.4030, 39843.64
683.8851, 39914.28
684.3672, 39976.59
684.8494, 40039.14
685.3315, 40105.88
685.8136, 40173.41
686.2957, 40239.21
686.7778, 40306.04
687.2599, 40362.88
687.7421, 40401.67
688.2242, 40435.65
688.7063, 40494.05
689.1884, 40577.52
689.6705, 40675.52
690.1526, 40802.32
690.6348, 40926.36
691.1169, 40977.42
691.5990, 40969.52
692.0811, 40968.23
692.5632, 41008.58
693.0453, 41071.16
693.5275, 41147.34
694.0096, 41236.15
694.4917, 41326.34
694.9738, 41425.89
695.4559, 41516.61
695.9380, 41585.33
696.4202, 41619.71
696.9023, 41685.61
697.3844, 41794.12
697.8665, 41911.34
698.3486, 42004.56
698.8307, 42075.51
699.3129, 42136.75
699.7950, 42186.47
700.2771, 42242.30
700.7592, 42336.14
701.2413, 42449.36
701.7234, 42543.84
702.2056, 42568.90
702.6877, 42622.84
703.1698, 42799.65
703.6519, 43037.34
704.1340, 43203.26
704.6161, 43195.99
705.0983, 43205.27
705.5804, 43264.78
706.0625, 43368.87
706.5446, 43490.40
707.0267, 43629.82
707.5089, 43782.91
707.9910, 43968.97
708.4731, 44166.09
708.9552, 44270.71
709.4373, 44289.50
709.9194, 44315.90
710.4016, 44409.58
710.8837, 44549.77
711.3658, 44733.67
711.8479, 44967.74
712.3300, 45166.48
712.8121, 45281.91
713.2943, 45361.61
713.7764, 45439.45
714.2585, 45522.57
714.7406, 45593.24
715.2227, 45642.35
715.7048, 45692.45
716.1870, 45785.42
716.6691, 45924.36
717.1512, 46000.73
717.6333, 45989.79
718.1154, 45932.07
718.5975, 45868.44
719.0797, 45803.61
719.5618, 45747.37
720.0439, 45693.38
720.5260, 45661.78
721.0081, 45697.86
721.4902, 45765.99
721.9724, 45780.72
722.4545, 45620.55
722.9366, 45520.27
723.4187, 45562.66
723.9008, 45714.47
724.3829, 45795.73
724.8651, 45787.34
725.3472, 45775.25
725.8293, 45802.04
726.3114, 45857.31
726.7935, 45898.04
727.2756, 45925.30
727.7578, 45959.47
728.2399, 46014.53
728.7220, 46084.20
729.2041, 46170.41
729.6862, 46275.31
730.1683, 46358.63
730.6505, 46387.08
731.1326, 46400.54
731.6147, 46425.61
732.0968, 46461.59
732.5789, 46514.40
733.0610, 46589.75
733.5432, 46673.44
734.0253, 46749.54
734.5074, 46818.54
734.9895, 46887.23
735.4716, 46956.85
735.9537, 47025.07
736.4359, 47090.79
736.9180, 47153.01
737.4001, 47206.68
737.8822, 47234.27
738.3643, 47279.20
738.8464, 47388.37
739.3286, 47525.93
739.8107, 47625.57
740.2928, 47638.05
740.7749, 47663.93
741.2570, 47721.06
741.7391, 47798.36
742.2213, 47863.95
742.7034, 47915.17
743.1855, 47978.88
743.6676, 48077.66
744.1497, 48186.66
744.6318, 48239.97
745.1140, 48248.65
745.5961, 48270.03
746.0782, 48357.25
746.5603, 48452.95
747.0424, 48503.73
747.5245, 48513.22
748.0067, 48553.70
748.4888, 48662.27
748.9709, 48787.54
749.4530, 48917.17
749.9351, 49053.29
750.4172, 49158.17
750.8994, 49226.20
751.3815, 49285.22
751.8636, 49357.62
752.3457, 49438.32
752.8278, 49512.08
753.3099, 49577.94
753.7921, 49631.45
754.2742, 49649.02
754.7563, 49663.42
755.2384, 49708.61
755.7205, 49790.93
756.2026, 49902.11
756.6848, 50089.38
757.1669, 50270.12
757.6490, 50371.48
758.1311, 50354.20
758.6132, 50358.26
759.0953, 50387.24
759.5775, 50442.66
760.0596, 50545.36
760.5417, 50684.86
761.0238, 50787.11
761.5059, 50828.05
761.9880, 50857.75
762.4702, 50924.07
762.9523, 51016.50
763.4344, 51116.90
763.9165, 51222.39
764.3986, 51330.84
764.8807, 51448.36
765.3629, 51568.48
765.8450, 51680.67
766.3271, 51789.25
766.8092, 51878.88
767.2913, 51943.01
767.7734, 51989.78
768.2556, 52024.52
768.7377, 52051.34
769.2198, 52111.75
769.7019, 52250.01
770.1840, 52406.30
770.6661, 52519.24
771.1483, 52592.41
771.6304, 52637.18
772.1125, 52604.61
772.5946, 52597.20
773.0767, 52674.10
773.5588, 52822.94
774.0410, 52942.59
774.5231, 53019.79
775.0052, 53097.11
775.4874, 53198.61
775.9695, 53314.21
776.4516, 53394.95
776.9337, 53441.41
777.4158, 53470.61
777.8979, 53465.89
778.3801, 53466.44
778.8622, 53525.11
779.3443, 53640.80
779.8264, 53767.84
780.3085, 53897.58
780.7906, 54024.24
781.2728, 54156.19
781.7549, 54301.49
782.2370, 54377.08
782.7191, 54354.74
783.2012, 54321.35
783.6833, 54333.77
784.1655, 54387.88
784.6476, 54452.70
785.1297, 54527.57
785.6118, 54617.99
786.0939, 54756.37
786.5760, 54901.07
787.0582, 54988.07
787.5403, 54998.48
788.0224, 55027.43
788.5045, 55131.90
788.9866, 55251.66
789.4688, 55340.75
789.9509, 55389.01
790.4330, 55433.59
790.9151, 55468.66
791.3972, 55513.79
791.8793, 55592.78
792.3615, 55700.70
792.8436, 55820.25
793.3257, 55951.38
793.8078, 56075.33
794.2899, 56165.70
794.7720, 56243.73
795.2542, 56345.11
795.7363, 56514.61
796.2184, 56627.11
796.7005, 56582.22
797.1826, 56510.36
797.6647, 56541.15
798.1469, 56705.68
798.6290, 56874.50
799.1111, 57044.57
799.5932, 57200.93
800.0753, 57324.77
800.5574, 57418.64
801.0396, 57488.52
801.5217, 57524.58
802.0038, 57568.69
802.4859, 57675.80
802.9680, 57804.06
803.4501, 57896.77
803.9323, 57889.36
804.4144, 57912.12
804.8965, 57989.87
805.3786, 58094.56
805.8607, 58181.38
806.3428, 58244.80
806.8250, 58324.99
807.3071, 58430.82
807.7892, 58552.78
808.2713, 58695.12
808.7534, 58841.93
809.2355, 58948.62
809.7177, 58967.07
810.1998, 58990.07
810.6819, 59065.59
811.1640, 59182.82
811.6461, 59325.50
812.1282, 59565.80
812.6104, 59712.77
813.0925, 59700.52
813.5746, 59621.28
814.0567, 59679.08
814.5388, 59871.91
815.0209, 60040.80
815.5031, 60128.82
815.9852, 60192.68
816.4673, 60320.49
816.9494, 60483.51
817.4315, 60617.50
817.9136, 60688.23
818.3958, 60735.34
818.8779, 60742.90
819.3600, 60740.63
819.8421, 60801.02
820.3242, 60966.27
820.8063, 61088.55
821.2885, 61122.79
821.7706, 61112.93
822.2527, 61153.23
822.7348, 61236.82
823.2169, 61328.78
823.6990, 61428.82
824.1812, 61513.24
824.6633, 61532.07
825.1454, 61520.50
825.6275, 61556.16
826.1096, 61686.36
826.5917, 61840.35
827.0739, 62028.84
827.5560, 62221.26
828.0381, 62323.96
828.5202, 62317.88
829.0023, 62353.14
829.4844, 62489.00
829.9666, 62662.82
830.4487, 62752.98
830.9308, 62785.56
831.4129, 62833.39
831.8950, 62948.19
832.3771, 63067.68
832.8593, 63156.33
833.3414, 63224.44
833.8235, 63297.69
834.3056, 63375.80
834.7877, 63463.16
835.2698, 63568.60
835.7520, 63678.23
836.2341, 63744.35
836.7162, 63772.43
837.1983, 63843.45
837.6804, 64017.38
838.1625, 64200.77
838.6447, 64268.41
839.1268, 64266.98
839.6089, 64295.28
840.0910, 64417.06
840.5731, 64539.74
841.0552, 64625.91
841.5374, 64701.59
842.0195, 64824.78
842.5016, 65009.61
842.9837, 65177.28
843.4658, 65304.95
843.9479, 65413.92
844.4301, 65549.13
844.9122, 65697.55
845.3943, 65818.48
845.8764, 65883.14
846.3585, 65933.21
846.8406, 65970.86
847.3228, 66014.35
847.8049, 66103.45
848.2870, 66295.27
848.7691, 66435.91
849.2512, 66477.04
849.7333, 66487.86
850.2155, 66625.16
850.6976, 66874.53
851.1797, 67047.25
851.6618, 67064.01
852.1439, 67042.68
852.6260, 67109.23
853.1082, 67226.18
853.5903, 67331.77
854.0724, 67387.32
854.5545, 67453.00
855.0366, 67546.04
855.5187, 67653.15
856.0009, 67751.99
856.4830, 67834.74
856.9651, 67965.30
857.4472, 68167.15
857.9293, 68377.54
858.4114, 68508.45
858.8936, 68578.22
859.3757, 68625.93
859.8578, 68646.78
860.3399, 68684.00
860.8220, 68782.61
861.3041, 68899.83
861.7863, 68978.32
862.2684, 68966.62
862.7505, 69021.71
863.2326, 69166.48
863.7147, 69347.09
864.1968, 69504.04
864.6790, 69637.64
865.1611, 69744.91
865.6432, 69817.44
866.1253, 69902.45
866.6074, 70069.56
867.0895, 70255.10
867.5717, 70394.06
868.0538, 70462.89
868.5359, 70502.10
869.0180, 70475.08
869.5001, 70466.96
869.9822, 70562.82
870.4644, 70771.48
870.9465, 70942.55
871.4286, 71070.13
871.9107, 71157.66
872.3928, 71165.87
872.8749, 71156.00
873.3571, 71221.72
873.8392, 71383.99
874.3213, 71552.18
874.8034, 71696.11
875.2855, 71836.50
875.7676, 71989.75
876.2498, 72160.67
876.7319, 72311.99
877.2140, 72445.89
877.6961, 72550.44
878.1782, 72581.55
878.6603, 72585.64
879.1425, 72687.03
879.6246, 72882.95
880.1067, 73059.15
880.5888, 73115.50
881.0709, 73160.65
881.5530, 73279.85
882.0352, 73477.71
882.5173, 73586.59
882.9994, 73554.07
883.4815, 73561.09
883.9636, 73722.58
884.4457, 73985.67
884.9279, 74138.55
885.4100, 74194.84
885.8921, 74254.27
886.3742, 74373.84
886.8563, 74520.34
887.3384, 74695.59
887.8206, 74884.89
888.3027, 75011.72
888.7848, 75003.41
889.2669, 75033.76
889.7490, 75161.50
890.2311, 75348.77
890.7133, 75461.06
891.1954, 75507.47
891.6775, 75586.15
892.1596, 75746.98
892.6417, 75944.57
893.1238, 76182.01
893.6060, 76413.13
894.0881, 76546.06
894.5702, 76385.05
895.0523, 76345.93
895.5344, 76550.12
896.0165, 76865.45
896.4987, 77070.78
896.9808, 77161.79
897.4630, 77221.27
897.9451, 77254.27
898.4272, 77298.59
898.9093, 77401.16
899.3914, 77545.53
899.8735, 77705.05
900.3557, 77881.47
900.8378, 78058.27
901.3199, 78253.86
901.8020, 78435.35
902.2841, 78566.28
902.7662, 78635.52
903.2484, 78726.70
903.7305, 78846.03
904.2126, 78976.18
904.6947, 79100.34
905.1768, 79219.23
905.6589, 79340.88
906.1411, 79468.51
906.6232, 79567.98
907.1053, 79597.06
907.5874, 79614.41
908.0695, 79646.45
908.5516, 79687.05
909.0338, 79825.09
909.5159, 80086.31
909.9980, 80322.01
910.4801, 80379.27
910.9622, 80350.43
911.4443, 80460.14
911.9265, 80690.58
912.4086, 80892.46
912.8907, 80988.54
913.3728, 81034.88
913.8549, 81017.20
914.3370, 80960.20
914.8192, 81026.72
915.3013, 81263.91
915.7834, 81465.14
916.2655, 81539.30
916.7476, 81546.23
917.2297, 81603.60
917.7119, 81704.14
918.1940, 81825.48
918.6761, 81969.50
919.1582, 82119.29
919.6403, 82290.84
920.1224, 82455.16
920.6046, 82549.20
921.0867, 82529.67
921.5688, 82554.41
922.0509, 82648.86
922.5330, 82785.79
923.0151, 82944.26
923.4973, 83110.82
923.9794, 83248.57
924.4615, 83342.82
924.9436, 83424.52
925.4257, 83500.77
925.9078, 83580.37
926.3900, 83668.24
926.8721, 83750.16
927.3542, 83894.24
927.8363, 84129.29
928.3184, 84350.11
928.8005, 84436.69
929.2827, 84435.12
929.7648, 84502.97
930.2469, 84647.15
930.7290, 84797.73
931.2111, 84911.77
931.6932, 85017.10
932.1754, 85122.22
932.6575, 85228.35
933.1396, 85387.63
933.6217, 85616.59
934.1038, 85856.34
934.5859, 86108.52
935.0681, 86335.40
935.5502, 86367.80
936.0323, 86261.09
936.5144, 86247.34
936.9965, 86602.95
937.4786, 86923.34
937.9608, 86886.59
938.4429, 86659.08
938.9250, 86681.22
939.4071, 87083.10
939.8892, 87418.45
940.3713, 87612.99
940.8535, 87721.16
941.3356, 87805.73
941.8177, 87879.45
942.2998, 87979.40
942.7819, 88123.74
943.2640, 88267.76
943.7462, 88409.96
944.2283, 88524.80
944.7104, 88568.63
945.1925, 88477.23
945.6746, 88533.91
946.1567, 88775.30
946.6389, 89047.20
947.1210, 89228.32
947.6031, 89338.48
948.0852, 89403.73
948.5673, 89431.41
949.0494, 89513.79
949.5316, 89758.38
950.0137, 90022.56
950.4958, 90222.62
950.9779, 90364.35
951.4600, 90514.45
951.9421, 90684.60
952.4243, 90810.33
952.9064, 90835.20
953.3885, 90829.86
953.8706, 90951.80
954.3527, 91163.95
954.8348, 91362.89
955.3170, 91482.75
955.7991, 91602.66
956.2812, 91749.34
956.7633, 91913.80
957.2454, 92089.97
957.7275, 92293.53
958.2097, 92420.89
958.6918, 92441.58
959.1739, 92457.20
959.6560, 92609.19
960.1381, 92834.59
960.6202, 93022.60
961.1024, 93146.84
961.5845, 93271.82
962.0666, 93418.59
962.5487, 93573.48
963.0308, 93725.14
963.5129, 93871.28
963.9951, 94059.38
964.4772, 94297.27
964.9593, 94498.51
965.4414, 94576.28
965.9235, 94609.53
966.4056, 94689.06
966.8878, 94813.34
967.3699, 94968.10
967.8520, 95190.40
968.3341, 95393.41
968.8162, 95566.45
969.2983, 95704.70
969.7805, 95782.38
970.2626, 95802.59
970.7447, 95855.41
971.2268, 95970.45
971.7089, 96113.23
972.1910, 96261.59
972.6732, 96410.63
973.1553, 96550.26
973.6374, 96647.85
974.1195, 96808.03
974.6016, 97071.17
975.0837, 97340.80
975.5659, 97530.82
976.0480, 97648.50
976.5301, 97732.98
977.0122, 97788.10
977.4943, 97908.29
977.9764, 98271.52
978.4586, 98633.88
978.9407, 98778.69
979.4228, 98711.07
979.9049, 98723.36
980.3870, 98845.30
980.8691, 98990.85
981.3513, 99126.15
981.8334, 99271.84
982.3155, 99520.80
982.7976, 99827.43
983.2797, 100032.1
983.7618, 100011.2
984.2440, 99976.92
984.7261, 100010.8
985.2082, 100098.9
985.6903, 100219.1
986.1724, 100376.3
986.6545, 100554.9
987.1367, 100760.8
987.6188, 100952.8
988.1009, 101069.5
988.5830, 101151.7
989.0651, 101273.6
989.5472, 101442.1
990.0294, 101599.2
990.5115, 101730.2
990.9936, 101833.6
991.4757, 101897.2
991.9578, 101932.3
992.4399, 102023.4
992.9221, 102171.0
993.4042, 102281.1
993.8863, 102250.1
994.3684, 102238.9
994.8505, 102481.8
995.3326, 102861.9
995.8148, 103151.3
996.2969, 103226.1
996.7790, 103298.9
997.2611, 103380.5
997.7432, 103469.7
998.2253, 103545.7
998.7075, 103621.4
999.1896, 103804.4
999.6717, 104114.0
1000.154, 104387.0
1000.636, 104452.0
1001.118, 104477.6
1001.600, 104606.2
1002.082, 104853.1
1002.564, 105036.1
1003.047, 105137.1
1003.529, 105237.4
1004.011, 105379.6
1004.493, 105538.7
1004.975, 105633.6
1005.457, 105699.7
1005.939, 105841.6
1006.421, 106214.0
1006.903, 106536.4
1007.386, 106678.1
1007.868, 106747.5
1008.350, 106882.9
1008.832, 107099.9
1009.314, 107229.3
1009.796, 107246.6
1010.278, 107236.6
1010.760, 107267.6
1011.242, 107325.0
1011.725, 107388.0
1012.207, 107452.9
1012.689, 107559.0
1013.171, 107727.7
1013.653, 107912.3
1014.135, 108108.8
1014.617, 108303.7
1015.099, 108424.5
1015.582, 108490.6
1016.064, 108612.6
1016.546, 108923.4
1017.028, 109190.0
1017.510, 109202.1
1017.992, 109102.5
1018.474, 109115.8
1018.956, 109282.7
1019.438, 109468.0
1019.921, 109672.0
1020.403, 109868.7
1020.885, 110025.6
1021.367, 110156.4
1021.849, 110276.9
1022.331, 110389.5
1022.813, 110515.5
1023.295, 110660.6
1023.778, 110828.0
1024.260, 111035.9
1024.742, 111262.9
1025.224, 111387.6
1025.706, 111417.1
1026.188, 111488.8
1026.670, 111680.3
1027.152, 111882.8
1027.635, 111957.6
1028.117, 111989.1
1028.599, 112104.8
1029.081, 112427.1
1029.563, 112626.5
1030.045, 112643.5
1030.527, 112669.3
1031.009, 112922.1
1031.491, 113314.3
1031.974, 113565.2
1032.456, 113676.1
1032.938, 113765.1
1033.420, 113895.8
1033.902, 114017.5
1034.384, 114090.9
1034.866, 114138.6
1035.348, 114228.0
1035.830, 114358.5
1036.313, 114517.4
1036.795, 114708.2
1037.277, 114900.9
1037.759, 115024.5
1038.241, 115141.8
1038.723, 115350.6
1039.205, 115748.6
1039.687, 116011.4
1040.170, 116078.8
1040.652, 116096.0
1041.134, 116135.2
1041.616, 116205.0
1042.098, 116367.3
1042.580, 116606.8
1043.062, 116830.5
1043.544, 116967.9
1044.026, 117097.8
1044.509, 117237.7
1044.991, 117400.9
1045.473, 117636.6
1045.955, 117968.7
1046.437, 118185.5
1046.919, 118234.8
1047.401, 118253.5
1047.883, 118397.0
1048.365, 118596.8
1048.848, 118784.6
1049.330, 118961.3
1049.812, 119031.7
1050.294, 118873.8
1050.776, 118811.2
1051.258, 119029.8
1051.740, 119430.8
1052.222, 119679.1
1052.705, 119806.1
1053.187, 119943.6
1053.669, 120164.9
1054.151, 120391.4
1054.633, 120614.2
1055.115, 120806.3
1055.597, 120909.7
1056.079, 120880.8
1056.562, 121064.7
1057.044, 121511.3
1057.526, 121903.7
1058.008, 121836.9
1058.490, 121637.5
1058.972, 121673.5
1059.454, 121948.6
1059.936, 122249.5
1060.418, 122593.3
1060.901, 122857.7
1061.383, 122973.1
1061.865, 123039.9
1062.347, 123318.5
1062.829, 123722.9
1063.311, 123970.2
1063.793, 123935.5
1064.275, 123901.6
1064.757, 123970.3
1065.240, 124132.5
1065.722, 124409.1
1066.204, 124809.0
1066.686, 125021.7
1067.168, 125040.5
1067.650, 125088.0
1068.132, 125362.4
1068.614, 125680.7
1069.097, 125881.8
1069.579, 125992.6
1070.061, 126073.4
1070.543, 126061.8
1071.025, 126188.8
1071.507, 126524.8
1071.989, 126888.1
1072.471, 127017.4
1072.953, 127022.3
1073.436, 127180.1
1073.918, 127518.8
1074.400, 127805.6
1074.882, 127873.6
1075.364, 127936.1
1075.846, 128085.1
1076.328, 128293.5
1076.810, 128443.4
1077.292, 128543.5
1077.775, 128698.9
1078.257, 128962.7
1078.739, 129242.4
1079.221, 129494.1
1079.703, 129707.2
1080.185, 129859.7
1080.667, 129926.4
1081.149, 130066.1
1081.632, 130297.2
1082.114, 130510.3
1082.596, 130567.9
1083.078, 130597.8
1083.560, 130849.4
1084.042, 131249.0
1084.524, 131554.9
1085.006, 131580.5
1085.489, 131661.5
1085.971, 131861.8
1086.453, 132105.0
1086.935, 132291.8
1087.417, 132431.8
1087.899, 132550.8
1088.381, 132650.5
1088.863, 132797.3
1089.345, 133085.6
1089.828, 133378.0
1090.310, 133610.0
1090.792, 133782.9
1091.274, 133860.7
1091.756, 133842.0
1092.238, 133944.7
1092.720, 134290.6
1093.202, 134659.5
1093.685, 134814.5
1094.167, 134873.2
1094.649, 134984.8
1095.131, 135192.7
1095.613, 135367.8
1096.095, 135501.9
1096.577, 135631.9
1097.059, 135768.5
1097.542, 135922.9
1098.024, 136123.8
1098.506, 136360.3
1098.988, 136592.8
1099.470, 136828.6
1099.952, 137029.3
1100.434, 137175.7
1100.916, 137306.2
1101.398, 137466.5
1101.880, 137655.4
1102.363, 137869.0
1102.845, 138108.4
1103.327, 138322.4
1103.809, 138484.7
1104.291, 138610.3
1104.773, 138656.5
1105.255, 138680.1
1105.737, 138899.3
1106.220, 139318.3
1106.702, 139659.3
1107.184, 139839.7
1107.666, 139978.2
1108.148, 140202.6
1108.630, 140438.5
1109.112, 140597.4
1109.594, 140646.4
1110.077, 140766.6
1110.559, 140971.9
1111.041, 141188.0
1111.523, 141371.2
1112.005, 141550.8
1112.487, 141797.6
1112.969, 142076.2
1113.451, 142312.8
1113.933, 142417.5
1114.416, 142584.5
1114.898, 142850.6
1115.380, 143131.1
1115.862, 143359.3
1116.344, 143538.9
1116.826, 143644.0
1117.308, 143689.2
1117.790, 143774.7
1118.272, 143967.5
1118.755, 144193.9
1119.237, 144445.1
1119.719, 144700.1
1120.201, 144914.1
1120.683, 145090.7
1121.165, 145307.3
1121.647, 145582.6
1122.129, 145812.6
1122.612, 145843.8
1123.094, 145863.2
1123.576, 146034.5
1124.058, 146333.8
1124.540, 146575.2
1125.022, 146755.3
1125.504, 146929.3
1125.986, 147102.0
1126.469, 147307.2
1126.951, 147632.8
1127.433, 147989.5
1127.915, 148253.7
1128.397, 148378.3
1128.879, 148518.2
1129.361, 148675.1
1129.843, 148842.9
1130.325, 149027.8
1130.807, 149216.7
1131.290, 149333.5
1131.772, 149437.8
1132.254, 149670.0
1132.736, 150308.7
1133.218, 150718.2
1133.700, 150783.8
1134.182, 150737.7
1134.664, 150783.1
1135.147, 150902.4
1135.629, 151039.2
1136.111, 151193.9
1136.593, 151387.0
1137.075, 151685.4
1137.557, 151947.1
1138.039, 152100.2
1138.521, 152220.7
1139.004, 152459.3
1139.486, 152793.9
1139.968, 153088.8
1140.450, 153320.2
1140.932, 153535.1
1141.414, 153738.3
1141.896, 153958.1
1142.378, 154219.2
1142.860, 154509.5
1143.343, 154778.3
1143.825, 155027.4
1144.307, 155175.6
1144.789, 155153.1
1145.271, 155171.8
1145.753, 155480.4
1146.235, 155886.7
1146.717, 156217.1
1147.199, 156465.3
1147.682, 156560.2
1148.164, 156472.7
1148.646, 156469.4
1149.128, 156726.9
1149.610, 157078.8
1150.092, 157352.8
1150.574, 157574.7
1151.056, 157787.0
1151.539, 158010.6
1152.021, 158184.4
1152.503, 158288.1
1152.985, 158409.3
1153.467, 158619.8
1153.949, 158886.9
1154.431, 159194.8
1154.913, 159514.6
1155.396, 159762.7
1155.878, 159823.5
1156.360, 159937.1
1156.842, 160124.3
1157.324, 160368.6
1157.806, 160691.7
1158.288, 161047.5
1158.770, 161326.9
1159.252, 161527.3
1159.734, 161711.7
1160.217, 161886.5
1160.699, 162075.5
1161.181, 162297.2
1161.663, 162518.6
1162.145, 162654.0
1162.627, 162737.7
1163.109, 162889.1
1163.591, 163133.0
1164.074, 163384.9
1164.556, 163580.7
1165.038, 163795.3
1165.520, 164069.3
1166.002, 164380.4
1166.484, 164660.9
1166.966, 164909.8
1167.448, 165132.9
1167.931, 165321.4
1168.413, 165511.3
1168.895, 165763.9
1169.377, 165986.9
1169.859, 166087.3
1170.341, 166085.5
1170.823, 166259.6
1171.305, 166592.0
1171.787, 166876.4
1172.270, 166983.5
1172.752, 167081.1
1173.234, 167300.4
1173.716, 167555.2
1174.198, 167736.6
1174.680, 167820.8
1175.162, 168043.3
1175.644, 168400.8
1176.126, 168760.6
1176.609, 169041.0
1177.091, 169283.4
1177.573, 169524.8
1178.055, 169740.9
1178.537, 169878.2
1179.019, 169899.9
1179.501, 170040.7
1179.983, 170319.5
1180.466, 170629.0
1180.948, 170916.3
1181.430, 171170.1
1181.912, 171347.9
1182.394, 171485.3
1182.876, 171707.1
1183.358, 172056.6
1183.840, 172295.8
1184.323, 172376.3
1184.805, 172461.0
1185.287, 172748.8
1185.769, 173105.6
1186.251, 173370.6
1186.733, 173552.7
1187.215, 173823.7
1187.697, 174242.2
1188.179, 174548.0
1188.661, 174666.8
1189.144, 174713.4
1189.626, 174747.8
1190.108, 174842.4
1190.590, 175133.8
1191.072, 175651.2
1191.554, 176019.1
1192.036, 176178.2
1192.518, 176336.9
1193.001, 176569.1
1193.483, 176821.6
1193.965, 176990.3
1194.447, 177143.4
1194.929, 177406.2
1195.411, 177852.8
1195.893, 178131.2
1196.375, 178163.6
1196.858, 178219.0
1197.340, 178438.5
1197.822, 178724.1
1198.304, 178889.1
1198.786, 179003.8
1199.268, 179198.3
1199.750, 179546.0
1200.232, 179874.4
1200.714, 180191.7
1201.197, 180451.2
1201.679, 180613.6
1202.161, 180708.8
1202.643, 180710.8
1203.125, 180701.0
1203.607, 180860.1
1204.089, 181444.2
1204.571, 181875.0
1205.053, 182113.6
1205.536, 182271.1
1206.018, 182379.0
1206.500, 182492.8
1206.982, 182748.5
1207.464, 183107.9
1207.946, 183435.8
1208.428, 183691.6
1208.911, 183905.7
1209.393, 184048.5
1209.875, 184230.1
1210.357, 184631.3
1210.839, 185114.3
1211.321, 185420.4
1211.803, 185560.0
1212.285, 185659.4
1212.767, 185691.7
1213.250, 185784.9
1213.732, 185959.4
1214.214, 186187.6
1214.696, 186459.9
1215.178, 186753.6
1215.660, 187029.3
1216.142, 187285.0
1216.624, 187529.0
1217.106, 187738.7
1217.589, 187985.1
1218.071, 188281.1
1218.553, 188615.9
1219.035, 189039.1
1219.517, 189467.1
1219.999, 189744.6
1220.481, 189861.3
1220.963, 189968.4
1221.446, 190049.7
1221.928, 190221.5
1222.410, 190531.3
1222.892, 190901.0
1223.374, 191279.3
1223.856, 191612.2
1224.338, 191786.3
1224.820, 191777.9
1225.302, 191773.2
1225.785, 191726.8
1226.267, 191863.1
1226.749, 192300.7
1227.231, 192844.3
1227.713, 193183.3
1228.195, 193413.9
1228.677, 193710.2
1229.159, 194122.2
1229.641, 194386.0
1230.124, 194416.3
1230.606, 194491.0
1231.088, 194717.0
1231.570, 195032.2
1232.052, 195409.1
1232.534, 195776.3
1233.016, 196014.0
1233.498, 196056.1
1233.981, 196151.5
##END=



