##NAMES=Axinite-(Mn)
##RRUFFID=R061121
##IDEAL CHEMISTRY=Ca_4_Mn^2+^_2_Al_4_[B_2_Si_8_O_30_](OH)_2_
##LOCALITY=Franklin, Sussex County, New Jersey, USA
##OWNER=RRUFF
##SOURCE=Michael Scott
##DESCRIPTION=Honey-yellow massive associated with pink rhodonite
##STATUS=The identification of this mineral has been confirmed by X-ray diffraction and chemical analysis
##URL=rruff.info/R061121
##MEASURED CHEMISTRY=(Ca_1.93_Mn_0.07_)_Σ=2_(Mn^2+^_0.87_Zn_0.08_Fe^2+^_0.05_)_Σ=1_(Al_1.95_Fe^3+^_0.05_)_Σ=2_BSi_4.00_O_15_(OH); OH and B assumed by stoichiometry
127.4148, 1045.220
127.8969, 1152.119
128.3790, 1259.902
128.8611, 1367.378
129.3432, 1469.558
129.8254, 1560.063
130.3075, 1642.389
130.7896, 1701.795
131.2717, 1725.160
131.7538, 1725.806
132.2359, 1723.289
132.7181, 1722.478
133.2002, 1720.051
133.6823, 1716.149
134.1644, 1715.315
134.6465, 1690.553
135.1286, 1615.219
135.6108, 1508.229
136.0929, 1411.797
136.5750, 1333.241
137.0571, 1278.160
137.5392, 1254.723
138.0213, 1264.554
138.5035, 1282.054
138.9856, 1290.071
139.4677, 1292.346
139.9498, 1307.247
140.4319, 1338.851
140.9140, 1388.274
141.3961, 1450.416
141.8783, 1524.715
142.3604, 1616.683
142.8425, 1734.452
143.3246, 1877.262
143.8067, 2027.857
144.2888, 2191.343
144.7710, 2354.473
145.2531, 2510.761
145.7352, 2640.035
146.2173, 2717.760
146.6994, 2734.836
147.1815, 2710.402
147.6637, 2686.815
148.1458, 2679.313
148.6279, 2672.909
149.1100, 2661.155
149.5921, 2643.457
150.0742, 2612.502
150.5564, 2555.571
151.0385, 2466.779
151.5206, 2378.268
152.0027, 2279.392
152.4848, 2192.479
152.9669, 2135.997
153.4491, 2114.980
153.9312, 2115.005
154.4133, 2115.739
154.8954, 2113.741
155.3775, 2121.427
155.8596, 2157.623
156.3418, 2193.419
156.8239, 2209.266
157.3060, 2199.111
157.7881, 2165.285
158.2702, 2108.150
158.7523, 2014.931
159.2345, 1927.790
159.7166, 1843.715
160.1987, 1771.981
160.6808, 1720.105
161.1629, 1690.511
161.6451, 1680.224
162.1272, 1683.713
162.6093, 1699.873
163.0914, 1733.552
163.5735, 1782.307
164.0556, 1845.931
164.5378, 1925.023
165.0199, 2019.443
165.5020, 2126.875
165.9841, 2242.388
166.4662, 2367.663
166.9483, 2500.636
167.4305, 2655.541
167.9126, 2810.354
168.3947, 2944.896
168.8768, 3051.648
169.3589, 3139.033
169.8410, 3227.073
170.3232, 3320.962
170.8053, 3407.452
171.2874, 3511.742
171.7695, 3598.009
172.2516, 3635.151
172.7337, 3610.320
173.2159, 3527.340
173.6980, 3392.936
174.1801, 3141.709
174.6622, 2920.983
175.1443, 2738.911
175.6264, 2589.393
176.1085, 2469.179
176.5907, 2377.401
177.0728, 2308.064
177.5549, 2249.092
178.0370, 2223.793
178.5191, 2179.380
179.0012, 2101.020
179.4834, 2008.647
179.9655, 1924.239
180.4476, 1856.032
180.9297, 1796.981
181.4118, 1730.198
181.8939, 1630.636
182.3761, 1554.472
182.8582, 1505.995
183.3403, 1479.936
183.8224, 1473.681
184.3045, 1486.136
184.7866, 1511.625
185.2688, 1538.420
185.7509, 1565.317
186.2330, 1595.379
186.7151, 1619.100
187.1972, 1649.819
187.6793, 1704.555
188.1615, 1789.483
188.6436, 1892.239
189.1257, 1987.693
189.6078, 2070.025
190.0899, 2152.654
190.5720, 2257.563
191.0542, 2353.573
191.5363, 2410.909
192.0184, 2419.519
192.5005, 2384.951
192.9826, 2314.764
193.4647, 2175.846
193.9469, 2052.933
194.4290, 1938.947
194.9111, 1845.122
195.3932, 1784.944
195.8753, 1761.681
196.3574, 1766.373
196.8396, 1785.490
197.3217, 1821.696
197.8038, 1870.729
198.2859, 1929.253
198.7680, 2002.018
199.2501, 2093.600
199.7323, 2204.711
200.2144, 2333.853
200.6965, 2478.904
201.1786, 2649.782
201.6607, 2818.453
202.1428, 2993.649
202.6250, 3162.037
203.1071, 3316.080
203.5892, 3453.670
204.0713, 3568.360
204.5534, 3650.618
205.0355, 3690.713
205.5177, 3716.145
205.9998, 3724.858
206.4819, 3720.456
206.9640, 3701.317
207.4461, 3668.623
207.9282, 3633.428
208.4104, 3610.683
208.8925, 3609.316
209.3746, 3578.399
209.8567, 3515.679
210.3388, 3426.785
210.8209, 3310.436
211.3030, 3168.473
211.7852, 3011.784
212.2673, 2845.926
212.7494, 2668.968
213.2315, 2506.349
213.7136, 2352.902
214.1957, 2217.197
214.6779, 2109.224
215.1600, 2026.983
215.6421, 1956.389
216.1242, 1887.557
216.6063, 1820.801
217.0884, 1749.890
217.5706, 1670.267
218.0527, 1590.933
218.5348, 1514.062
219.0169, 1441.139
219.4990, 1375.700
219.9811, 1320.640
220.4633, 1275.964
220.9454, 1236.149
221.4275, 1200.309
221.9096, 1168.991
222.3917, 1143.548
222.8738, 1122.914
223.3560, 1104.464
223.8381, 1086.444
224.3202, 1069.193
224.8023, 1055.439
225.2844, 1047.633
225.7665, 1039.915
226.2487, 1029.840
226.7308, 1018.751
227.2129, 1008.902
227.6950, 1001.381
228.1771, 996.3694
228.6592, 994.8444
229.1414, 997.6603
229.6235, 1002.649
230.1056, 1010.078
230.5877, 1019.325
231.0698, 1029.557
231.5519, 1040.459
232.0341, 1052.142
232.5162, 1064.957
232.9983, 1077.009
233.4804, 1092.733
233.9625, 1114.102
234.4446, 1138.581
234.9268, 1161.777
235.4089, 1182.315
235.8910, 1205.551
236.3731, 1241.488
236.8552, 1300.879
237.3373, 1356.941
237.8195, 1409.101
238.3016, 1458.190
238.7837, 1503.917
239.2658, 1546.497
239.7479, 1588.875
240.2300, 1635.577
240.7122, 1690.579
241.1943, 1739.083
241.6764, 1788.923
242.1585, 1827.618
242.6406, 1843.128
243.1227, 1836.816
243.6049, 1821.985
244.0870, 1813.074
244.5691, 1813.306
245.0512, 1802.893
245.5333, 1771.525
246.0154, 1740.649
246.4975, 1718.328
246.9797, 1705.089
247.4618, 1699.301
247.9439, 1700.547
248.4260, 1709.053
248.9081, 1714.465
249.3902, 1699.501
249.8724, 1699.161
250.3545, 1732.912
250.8366, 1788.036
251.3187, 1841.835
251.8008, 1880.061
252.2829, 1903.778
252.7651, 1920.266
253.2472, 1939.537
253.7293, 1937.264
254.2114, 1898.319
254.6935, 1839.730
255.1756, 1781.234
255.6578, 1732.386
256.1399, 1690.599
256.6220, 1648.621
257.1041, 1602.943
257.5862, 1563.755
258.0684, 1529.657
258.5505, 1502.625
259.0326, 1483.876
259.5147, 1473.931
259.9968, 1473.232
260.4789, 1484.915
260.9611, 1515.349
261.4432, 1540.039
261.9253, 1553.189
262.4074, 1562.522
262.8895, 1573.151
263.3716, 1585.617
263.8537, 1596.298
264.3358, 1598.600
264.8180, 1590.393
265.3001, 1591.738
265.7822, 1612.773
266.2643, 1636.127
266.7464, 1654.869
267.2285, 1668.633
267.7107, 1678.885
268.1928, 1682.016
268.6749, 1679.991
269.1570, 1692.379
269.6391, 1726.050
270.1212, 1765.484
270.6034, 1801.814
271.0855, 1837.131
271.5676, 1876.557
272.0497, 1926.587
272.5318, 1980.483
273.0139, 2021.931
273.4961, 2050.204
273.9782, 2068.038
274.4603, 2080.694
274.9424, 2083.015
275.4245, 2065.473
275.9066, 2020.937
276.3888, 1962.652
276.8709, 1904.188
277.3530, 1845.178
277.8351, 1788.350
278.3172, 1733.944
278.7993, 1683.087
279.2815, 1636.454
279.7636, 1592.912
280.2457, 1556.823
280.7278, 1532.865
281.2099, 1519.450
281.6920, 1509.190
282.1742, 1500.640
282.6563, 1493.935
283.1384, 1487.582
283.6205, 1480.832
284.1026, 1481.175
284.5847, 1498.296
285.0669, 1522.705
285.5490, 1536.644
286.0311, 1535.514
286.5132, 1531.416
286.9953, 1535.086
287.4774, 1546.399
287.9596, 1565.335
288.4417, 1595.164
288.9238, 1630.515
289.4059, 1666.894
289.8880, 1704.141
290.3701, 1742.441
290.8523, 1779.735
291.3344, 1818.029
291.8165, 1873.608
292.2986, 1956.913
292.7807, 2045.154
293.2628, 2124.533
293.7450, 2200.779
294.2271, 2289.553
294.7092, 2398.722
295.1913, 2524.629
295.6734, 2656.849
296.1555, 2804.471
296.6377, 2945.516
297.1198, 3083.464
297.6019, 3210.398
298.0840, 3314.639
298.5661, 3392.914
299.0482, 3453.890
299.5304, 3510.747
300.0125, 3559.122
300.4946, 3613.344
300.9767, 3678.933
301.4588, 3745.840
301.9409, 3809.739
302.4231, 3868.973
302.9052, 3922.949
303.3873, 3974.007
303.8694, 4025.772
304.3515, 4042.036
304.8336, 4031.999
305.3158, 3977.204
305.7979, 3858.631
306.2800, 3690.665
306.7621, 3497.203
307.2442, 3289.063
307.7263, 3072.226
308.2085, 2867.757
308.6906, 2672.151
309.1727, 2496.761
309.6548, 2335.082
310.1369, 2195.246
310.6190, 2089.149
311.1012, 2021.398
311.5833, 1976.407
312.0654, 1930.214
312.5475, 1880.587
313.0296, 1841.302
313.5117, 1817.505
313.9939, 1804.379
314.4760, 1802.784
314.9581, 1811.848
315.4402, 1821.685
315.9223, 1820.647
316.4044, 1811.911
316.8866, 1816.187
317.3687, 1840.403
317.8508, 1869.772
318.3329, 1899.154
318.8150, 1925.923
319.2971, 1940.388
319.7793, 1932.337
320.2614, 1912.999
320.7435, 1898.279
321.2256, 1888.813
321.7077, 1879.649
322.1898, 1870.535
322.6720, 1858.698
323.1541, 1838.465
323.6362, 1806.681
324.1183, 1770.416
324.6004, 1728.173
325.0826, 1684.015
325.5647, 1649.476
326.0468, 1628.888
326.5289, 1620.347
327.0110, 1623.399
327.4931, 1643.402
327.9753, 1657.146
328.4574, 1651.639
328.9395, 1642.270
329.4216, 1646.221
329.9037, 1666.287
330.3858, 1693.968
330.8680, 1720.004
331.3501, 1742.848
331.8322, 1775.717
332.3143, 1819.759
332.7964, 1871.002
333.2785, 1929.540
333.7606, 1993.939
334.2427, 2061.501
334.7249, 2130.739
335.2070, 2201.393
335.6891, 2270.421
336.1712, 2336.167
336.6533, 2402.667
337.1354, 2477.730
337.6176, 2550.080
338.0997, 2608.584
338.5818, 2649.282
339.0639, 2676.945
339.5460, 2698.077
340.0281, 2712.910
340.5103, 2720.322
340.9924, 2715.796
341.4745, 2707.208
341.9566, 2696.125
342.4387, 2683.881
342.9208, 2673.668
343.4030, 2667.854
343.8851, 2666.179
344.3672, 2666.522
344.8493, 2666.027
345.3314, 2673.485
345.8135, 2699.639
346.2957, 2734.752
346.7778, 2762.581
347.2599, 2771.275
347.7420, 2780.115
348.2241, 2818.168
348.7062, 2884.494
349.1884, 2942.405
349.6705, 2986.480
350.1526, 3006.286
350.6347, 2991.268
351.1168, 2939.750
351.5989, 2864.602
352.0811, 2765.746
352.5632, 2648.276
353.0453, 2517.349
353.5274, 2372.655
354.0095, 2225.498
354.4916, 2083.034
354.9738, 1945.374
355.4559, 1823.968
355.9380, 1720.909
356.4201, 1632.027
356.9022, 1555.828
357.3843, 1491.302
357.8665, 1436.263
358.3486, 1389.950
358.8307, 1350.605
359.3128, 1310.254
359.7949, 1262.462
360.2770, 1221.087
360.7592, 1186.416
361.2413, 1159.163
361.7234, 1142.776
362.2055, 1137.113
362.6876, 1134.354
363.1697, 1122.573
363.6519, 1097.115
364.1340, 1079.714
364.6161, 1076.239
365.0982, 1075.632
365.5803, 1073.690
366.0624, 1070.931
366.5446, 1069.893
367.0267, 1072.538
367.5088, 1077.934
367.9909, 1082.611
368.4730, 1085.104
368.9551, 1090.493
369.4373, 1105.420
369.9194, 1122.026
370.4015, 1131.587
370.8836, 1130.932
371.3657, 1128.380
371.8478, 1131.819
372.3300, 1140.232
372.8121, 1146.992
373.2942, 1149.736
373.7763, 1152.041
374.2584, 1157.694
374.7405, 1166.403
375.2227, 1177.069
375.7048, 1187.484
376.1869, 1200.984
376.6690, 1222.857
377.1511, 1252.661
377.6332, 1282.206
378.1154, 1304.775
378.5975, 1322.920
379.0796, 1352.889
379.5617, 1397.005
380.0438, 1447.660
380.5259, 1503.660
381.0081, 1565.084
381.4902, 1633.570
381.9723, 1709.621
382.4544, 1787.683
382.9365, 1858.893
383.4186, 1918.406
383.9008, 1984.390
384.3829, 2068.819
384.8650, 2148.070
385.3471, 2210.977
385.8292, 2258.638
386.3113, 2296.650
386.7935, 2328.359
387.2756, 2353.815
387.7577, 2373.854
388.2398, 2392.482
388.7219, 2396.848
389.2040, 2383.304
389.6862, 2354.956
390.1683, 2310.067
390.6504, 2247.363
391.1325, 2182.592
391.6146, 2136.279
392.0967, 2104.393
392.5789, 2057.201
393.0610, 1984.695
393.5431, 1905.538
394.0252, 1833.952
394.5073, 1769.542
394.9894, 1712.972
395.4716, 1664.766
395.9537, 1623.916
396.4358, 1592.406
396.9179, 1568.662
397.4000, 1543.631
397.8821, 1511.649
398.3643, 1475.693
398.8464, 1445.852
399.3285, 1422.550
399.8106, 1403.245
400.2927, 1387.521
400.7748, 1375.603
401.2570, 1366.828
401.7391, 1361.478
402.2212, 1362.072
402.7033, 1371.423
403.1854, 1389.745
403.6675, 1414.877
404.1497, 1453.006
404.6317, 1491.487
405.1139, 1521.379
405.5960, 1550.056
406.0781, 1589.671
406.5602, 1646.536
407.0423, 1715.299
407.5244, 1786.153
408.0066, 1857.678
408.4887, 1936.844
408.9708, 2024.657
409.4529, 2121.585
409.9350, 2228.547
410.4171, 2345.283
410.8993, 2470.556
411.3814, 2608.538
411.8635, 2752.930
412.3456, 2895.777
412.8277, 3038.904
413.3098, 3161.318
413.7920, 3247.510
414.2741, 3300.094
414.7562, 3341.931
415.2383, 3376.795
415.7204, 3396.244
416.2025, 3391.367
416.6847, 3369.833
417.1668, 3344.094
417.6489, 3317.807
418.1310, 3288.117
418.6131, 3249.673
419.0952, 3196.192
419.5774, 3158.272
420.0595, 3149.939
420.5416, 3141.246
421.0237, 3119.882
421.5058, 3086.904
421.9879, 3046.198
422.4701, 2999.031
422.9522, 2949.029
423.4343, 2908.168
423.9164, 2883.872
424.3985, 2850.260
424.8806, 2803.220
425.3628, 2744.896
425.8449, 2673.828
426.3270, 2590.605
426.8091, 2502.704
427.2912, 2411.360
427.7733, 2319.207
428.2555, 2234.169
428.7376, 2156.452
429.2197, 2083.816
429.7018, 2017.457
430.1839, 1954.859
430.6660, 1888.134
431.1482, 1807.076
431.6303, 1735.172
432.1124, 1688.287
432.5945, 1658.521
433.0766, 1629.965
433.5587, 1597.861
434.0409, 1568.500
434.5230, 1550.055
435.0051, 1544.609
435.4872, 1542.674
435.9693, 1545.238
436.4514, 1549.845
436.9336, 1554.422
437.4157, 1560.255
437.8978, 1569.911
438.3799, 1584.792
438.8620, 1604.256
439.3441, 1627.855
439.8263, 1659.198
440.3084, 1685.013
440.7905, 1703.375
441.2726, 1715.372
441.7547, 1721.511
442.2368, 1721.645
442.7190, 1714.941
443.2011, 1700.049
443.6832, 1678.153
444.1653, 1653.002
444.6474, 1625.484
445.1295, 1587.873
445.6117, 1531.614
446.0938, 1463.837
446.5759, 1400.990
447.0580, 1339.949
447.5401, 1291.057
448.0222, 1264.840
448.5044, 1250.524
448.9865, 1232.040
449.4686, 1206.682
449.9507, 1184.005
450.4328, 1174.336
450.9149, 1178.567
451.3971, 1179.336
451.8792, 1173.424
452.3613, 1167.891
452.8434, 1165.987
453.3255, 1165.010
453.8076, 1161.316
454.2898, 1153.554
454.7719, 1143.248
455.2540, 1132.827
455.7361, 1122.570
456.2182, 1109.232
456.7003, 1089.380
457.1825, 1070.205
457.6646, 1054.341
458.1467, 1042.348
458.6288, 1035.977
459.1109, 1038.821
459.5930, 1044.666
460.0752, 1046.863
460.5573, 1045.823
461.0394, 1043.493
461.5215, 1039.433
462.0036, 1036.736
462.4857, 1041.005
462.9679, 1053.633
463.4500, 1067.428
463.9321, 1082.650
464.4142, 1098.084
464.8963, 1112.947
465.3784, 1127.278
465.8606, 1141.239
466.3427, 1154.712
466.8248, 1168.553
467.3069, 1186.224
467.7890, 1212.105
468.2711, 1233.660
468.7533, 1247.138
469.2354, 1258.156
469.7175, 1268.463
470.1996, 1279.409
470.6817, 1294.731
471.1638, 1317.157
471.6460, 1346.086
472.1281, 1379.854
472.6102, 1418.858
473.0923, 1460.795
473.5744, 1502.903
474.0565, 1548.317
474.5387, 1600.876
475.0208, 1659.927
475.5029, 1728.267
475.9850, 1812.215
476.4671, 1903.387
476.9492, 1990.369
477.4313, 2071.792
477.9135, 2155.670
478.3956, 2250.408
478.8777, 2354.428
479.3598, 2440.497
479.8419, 2502.510
480.3240, 2552.298
480.8062, 2603.413
481.2883, 2636.276
481.7704, 2628.371
482.2525, 2575.803
482.7346, 2496.396
483.2167, 2403.080
483.6989, 2296.973
484.1810, 2186.262
484.6631, 2069.211
485.1452, 1952.414
485.6273, 1834.750
486.1094, 1720.862
486.5916, 1618.701
487.0737, 1529.578
487.5558, 1451.330
488.0379, 1382.322
488.5200, 1322.887
489.0021, 1273.276
489.4843, 1233.541
489.9664, 1204.616
490.4485, 1189.510
490.9306, 1189.286
491.4127, 1181.699
491.8948, 1157.306
492.3770, 1137.611
492.8591, 1127.378
493.3412, 1125.813
493.8233, 1133.929
494.3054, 1151.324
494.7875, 1170.740
495.2697, 1181.981
495.7518, 1184.584
496.2339, 1189.372
496.7160, 1193.836
497.1981, 1205.120
497.6802, 1230.314
498.1624, 1263.703
498.6445, 1295.570
499.1266, 1322.606
499.6087, 1349.638
500.0908, 1384.091
500.5729, 1421.204
501.0551, 1446.529
501.5372, 1455.956
502.0193, 1463.625
502.5014, 1486.453
502.9835, 1526.837
503.4656, 1549.060
503.9478, 1541.652
504.4299, 1531.899
504.9120, 1528.124
505.3941, 1527.401
505.8762, 1525.649
506.3583, 1521.424
506.8405, 1514.844
507.3226, 1503.582
507.8047, 1486.923
508.2868, 1481.967
508.7689, 1501.942
509.2510, 1513.355
509.7332, 1494.423
510.2153, 1456.655
510.6974, 1419.071
511.1795, 1387.383
511.6616, 1353.742
512.1437, 1311.996
512.6259, 1264.297
513.1080, 1213.088
513.5901, 1158.828
514.0722, 1109.646
514.5543, 1074.697
515.0364, 1054.586
515.5186, 1028.167
516.0007, 985.4821
516.4828, 949.0305
516.9649, 927.2274
517.4470, 913.2905
517.9291, 899.2817
518.4113, 883.0493
518.8934, 867.8498
519.3755, 856.6316
519.8576, 849.4047
520.3397, 848.2108
520.8218, 858.4114
521.3040, 863.3531
521.7861, 847.2532
522.2682, 822.6136
522.7503, 806.9011
523.2324, 803.4429
523.7145, 805.8855
524.1967, 814.9293
524.6788, 826.2361
525.1609, 831.7893
525.6430, 830.8959
526.1251, 831.2014
526.6072, 839.7181
527.0894, 854.9238
527.5715, 862.3585
528.0536, 849.6705
528.5357, 844.9382
529.0178, 858.1519
529.4999, 875.5347
529.9821, 884.2099
530.4642, 883.3475
530.9463, 882.4043
531.4284, 890.7323
531.9105, 904.7588
532.3926, 910.3144
532.8748, 904.7361
533.3569, 906.1904
533.8390, 926.3585
534.3211, 955.0867
534.8032, 976.2756
535.2853, 989.8239
535.7675, 996.9833
536.2496, 993.1735
536.7317, 986.7044
537.2138, 983.3380
537.6959, 984.1308
538.1780, 990.4901
538.6602, 1003.797
539.1423, 1020.897
539.6244, 1033.285
540.1065, 1039.320
540.5886, 1044.366
541.0707, 1048.013
541.5529, 1051.462
542.0350, 1056.184
542.5171, 1061.357
542.9992, 1064.488
543.4813, 1064.534
543.9634, 1061.789
544.4456, 1053.907
544.9277, 1042.389
545.4098, 1037.973
545.8919, 1045.490
546.3740, 1055.603
546.8561, 1056.103
547.3383, 1044.657
547.8204, 1040.839
548.3025, 1048.321
548.7846, 1059.228
549.2667, 1072.870
549.7488, 1086.896
550.2310, 1096.945
550.7131, 1101.869
551.1952, 1107.690
551.6773, 1123.683
552.1594, 1149.945
552.6415, 1171.919
553.1237, 1188.176
553.6058, 1202.547
554.0879, 1214.022
554.5700, 1225.922
555.0521, 1245.216
555.5342, 1277.878
556.0164, 1303.610
556.4985, 1305.671
556.9806, 1297.996
557.4627, 1301.050
557.9448, 1316.042
558.4269, 1330.782
558.9091, 1336.790
559.3912, 1334.601
559.8733, 1326.161
560.3554, 1302.711
560.8375, 1287.835
561.3196, 1289.186
561.8018, 1294.440
562.2839, 1294.252
562.7660, 1289.563
563.2481, 1288.055
563.7302, 1294.756
564.2123, 1306.703
564.6945, 1319.428
565.1766, 1332.983
565.6587, 1349.568
566.1408, 1371.308
566.6229, 1392.416
567.1050, 1403.219
567.5872, 1399.722
568.0693, 1410.348
568.5514, 1449.702
569.0335, 1487.543
569.5156, 1511.879
569.9977, 1525.551
570.4799, 1533.726
570.9620, 1538.197
571.4441, 1538.820
571.9262, 1532.587
572.4083, 1519.904
572.8904, 1516.378
573.3726, 1524.821
573.8547, 1536.527
574.3368, 1549.597
574.8189, 1562.153
575.3010, 1569.471
575.7831, 1566.698
576.2653, 1572.514
576.7474, 1599.686
577.2295, 1635.716
577.7116, 1666.541
578.1937, 1692.033
578.6758, 1719.427
579.1580, 1753.000
579.6401, 1792.286
580.1222, 1836.803
580.6042, 1890.090
581.0864, 1939.805
581.5685, 1979.370
582.0506, 2019.893
582.5327, 2073.375
583.0148, 2132.689
583.4969, 2177.964
583.9791, 2196.106
584.4612, 2204.463
584.9433, 2226.219
585.4254, 2251.443
585.9075, 2248.455
586.3896, 2209.022
586.8718, 2155.068
587.3539, 2109.307
587.8360, 2071.460
588.3181, 2013.201
588.8002, 1908.438
589.2823, 1814.667
589.7645, 1745.868
590.2466, 1688.366
590.7287, 1629.287
591.2108, 1566.824
591.6929, 1508.309
592.1750, 1459.871
592.6572, 1418.513
593.1393, 1376.353
593.6214, 1333.636
594.1035, 1297.720
594.5856, 1271.090
595.0677, 1253.515
595.5499, 1246.285
596.0320, 1252.962
596.5141, 1254.698
596.9962, 1245.947
597.4783, 1237.675
597.9604, 1234.987
598.4426, 1236.197
598.9247, 1237.475
599.4068, 1237.699
599.8889, 1240.614
600.3710, 1253.219
600.8531, 1274.069
601.3353, 1287.208
601.8174, 1289.478
602.2995, 1293.745
602.7816, 1309.076
603.2637, 1329.363
603.7458, 1341.996
604.2280, 1345.141
604.7101, 1347.001
605.1922, 1352.145
605.6743, 1354.700
606.1564, 1346.102
606.6385, 1330.579
607.1207, 1321.019
607.6028, 1324.236
608.0849, 1333.617
608.5670, 1337.341
609.0491, 1334.975
609.5313, 1330.152
610.0134, 1320.980
610.4955, 1312.730
610.9776, 1311.236
611.4597, 1312.472
611.9418, 1307.778
612.4240, 1291.319
612.9061, 1278.791
613.3882, 1281.499
613.8703, 1289.615
614.3524, 1292.115
614.8345, 1287.801
615.3167, 1279.861
615.7988, 1270.364
616.2809, 1258.905
616.7630, 1243.476
617.2451, 1221.745
617.7272, 1203.511
618.2094, 1194.307
618.6915, 1184.219
619.1736, 1167.408
619.6557, 1144.888
620.1378, 1119.748
620.6199, 1092.033
621.1021, 1062.975
621.5842, 1031.589
622.0663, 999.8749
622.5484, 971.7271
623.0305, 947.5102
623.5126, 923.6948
623.9948, 897.1122
624.4769, 868.7877
624.9590, 844.8380
625.4411, 826.1817
625.9232, 809.9737
626.4053, 796.2089
626.8875, 784.3763
627.3696, 776.1362
627.8517, 770.0944
628.3338, 760.8188
628.8159, 741.8152
629.2980, 724.0842
629.7802, 717.5584
630.2623, 719.0624
630.7444, 723.1613
631.2265, 728.2744
631.7086, 730.7148
632.1907, 726.1226
632.6729, 715.6584
633.1550, 712.0449
633.6371, 721.6048
634.1192, 726.8867
634.6013, 718.5291
635.0834, 710.0300
635.5656, 712.8605
636.0477, 725.6198
636.5298, 737.1069
637.0119, 742.3760
637.4940, 744.4218
637.9761, 743.6151
638.4583, 742.0319
638.9404, 746.1982
639.4225, 757.6418
639.9046, 770.1904
640.3867, 778.3348
640.8688, 781.8822
641.3510, 777.0039
641.8331, 754.2184
642.3152, 738.9995
642.7973, 740.5599
643.2794, 747.6525
643.7615, 755.3915
644.2437, 761.7209
644.7258, 759.6022
645.2079, 737.6116
645.6900, 712.7293
646.1721, 702.2077
646.6542, 701.4606
647.1364, 699.1110
647.6185, 692.1248
648.1006, 683.6897
648.5827, 677.1028
649.0648, 672.2418
649.5469, 665.9466
650.0291, 654.9822
650.5112, 648.4588
650.9933, 651.2177
651.4754, 656.7094
651.9575, 661.2317
652.4396, 664.2222
652.9218, 664.6578
653.4039, 660.0051
653.8860, 654.5887
654.3681, 651.7810
654.8502, 650.9943
655.3323, 649.8869
655.8145, 648.1553
656.2966, 650.1821
656.7787, 661.1905
657.2608, 679.9268
657.7429, 693.3785
658.2250, 700.2281
658.7072, 704.6795
659.1893, 705.2809
659.6714, 705.6043
660.1535, 707.4930
660.6356, 711.2386
661.1177, 717.7534
661.5999, 728.6357
662.0820, 741.0635
662.5641, 752.7087
663.0462, 764.7361
663.5283, 780.0077
664.0104, 798.7096
664.4926, 816.5370
664.9747, 828.6915
665.4568, 837.9208
665.9389, 858.6197
666.4210, 894.0981
666.9031, 930.2549
667.3853, 966.7289
667.8674, 1000.570
668.3495, 1025.202
668.8316, 1044.123
669.3137, 1073.582
669.7958, 1121.727
670.2780, 1175.176
670.7601, 1229.930
671.2422, 1285.330
671.7243, 1340.294
672.2064, 1395.381
672.6885, 1452.428
673.1707, 1513.178
673.6528, 1576.227
674.1349, 1638.466
674.6170, 1700.353
675.0991, 1755.777
675.5812, 1804.492
676.0634, 1844.397
676.5455, 1874.636
677.0276, 1894.301
677.5097, 1901.541
677.9918, 1896.642
678.4739, 1878.618
678.9561, 1845.824
679.4382, 1800.885
679.9203, 1741.304
680.4024, 1671.121
680.8845, 1600.685
681.3666, 1535.151
681.8488, 1473.064
682.3309, 1412.645
682.8130, 1353.601
683.2951, 1296.622
683.7772, 1240.777
684.2593, 1191.359
684.7415, 1152.581
685.2236, 1122.170
685.7057, 1092.787
686.1878, 1064.358
686.6699, 1037.165
687.1520, 1009.073
687.6342, 984.4207
688.1163, 966.3342
688.5984, 953.5073
689.0805, 943.6363
689.5626, 936.0533
690.0447, 929.4223
690.5269, 920.5917
691.0090, 912.2755
691.4911, 910.8500
691.9732, 916.5300
692.4553, 926.0502
692.9374, 938.1661
693.4196, 951.8920
693.9017, 965.8024
694.3838, 981.5289
694.8659, 991.3323
695.3480, 984.0565
695.8301, 984.2726
696.3123, 1003.263
696.7944, 1031.975
697.2765, 1058.774
697.7586, 1081.495
698.2407, 1109.886
698.7228, 1149.110
699.2050, 1195.984
699.6871, 1249.988
700.1692, 1308.971
700.6513, 1367.055
701.1334, 1422.617
701.6155, 1480.642
702.0977, 1544.692
702.5798, 1616.122
703.0619, 1712.739
703.5440, 1841.279
704.0261, 1973.112
704.5082, 2094.415
704.9904, 2220.247
705.4725, 2363.758
705.9546, 2524.766
706.4367, 2700.604
706.9188, 2898.326
707.4009, 3101.894
707.8831, 3297.504
708.3652, 3497.883
708.8473, 3726.339
709.3294, 3977.905
709.8115, 4219.684
710.2936, 4425.384
710.7758, 4611.197
711.2579, 4817.401
711.7400, 5038.584
712.2221, 5221.570
712.7042, 5360.385
713.1863, 5443.806
713.6685, 5462.167
714.1506, 5419.103
714.6327, 5333.366
715.1148, 5208.383
715.5969, 5031.261
716.0790, 4769.635
716.5612, 4488.545
717.0433, 4215.408
717.5254, 3950.950
718.0075, 3692.779
718.4896, 3439.345
718.9717, 3189.436
719.4539, 2928.342
719.9360, 2676.610
720.4181, 2473.225
720.9002, 2313.990
721.3823, 2164.376
721.8644, 2007.585
722.3465, 1857.697
722.8286, 1739.060
723.3107, 1654.743
723.7928, 1571.033
724.2750, 1483.644
724.7571, 1405.677
725.2392, 1344.980
725.7213, 1294.819
726.2034, 1246.909
726.6855, 1201.023
727.1677, 1157.725
727.6498, 1118.181
728.1319, 1079.515
728.6140, 1036.811
729.0961, 995.7063
729.5782, 965.3311
730.0604, 946.0782
730.5425, 929.6600
731.0246, 909.8387
731.5067, 888.5215
731.9888, 867.7716
732.4709, 848.1740
732.9531, 837.1598
733.4352, 837.5705
733.9173, 837.2546
734.3994, 824.3703
734.8815, 802.3964
735.3636, 792.7827
735.8458, 809.2236
736.3279, 813.9109
736.8100, 794.1127
737.2921, 772.8665
737.7742, 763.6215
738.2563, 761.9359
738.7385, 756.9044
739.2206, 744.3329
739.7027, 733.5184
740.1848, 721.8450
740.6669, 733.5490
741.1490, 738.9011
741.6312, 738.2422
742.1133, 713.5728
742.5954, 719.9089
743.0775, 713.8193
743.5596, 707.2206
744.0417, 717.9207
744.5239, 696.7426
745.0060, 707.1688
745.4881, 704.9792
745.9702, 708.5633
746.4523, 699.6453
746.9344, 694.5884
747.4166, 684.6500
747.8987, 685.7152
748.3808, 711.6113
748.8629, 729.3286
749.3450, 723.4296
749.8271, 711.7287
750.3093, 708.9764
750.7914, 716.1216
751.2735, 728.1876
751.7556, 745.9500
752.2377, 762.4660
752.7198, 769.2868
753.2020, 770.6132
753.6841, 774.0893
754.1662, 780.7729
754.6483, 789.1319
755.1304, 798.3783
755.6125, 808.0277
756.0947, 817.2581
756.5768, 826.1213
757.0589, 832.8971
757.5410, 834.8159
758.0231, 841.3354
758.5052, 859.1256
758.9874, 883.3187
759.4695, 904.9465
759.9516, 923.5403
760.4337, 942.8907
760.9158, 962.5640
761.3979, 983.8940
761.8801, 1010.046
762.3622, 1036.669
762.8443, 1057.887
763.3264, 1073.196
763.8085, 1087.419
764.2906, 1105.975
764.7728, 1122.878
765.2549, 1129.037
765.7370, 1127.563
766.2191, 1125.145
766.7012, 1123.671
767.1833, 1128.505
767.6655, 1146.240
768.1476, 1167.810
768.6297, 1161.165
769.1118, 1119.515
769.5939, 1087.932
770.0760, 1076.649
770.5582, 1063.632
771.0403, 1032.974
771.5224, 992.4984
772.0045, 961.3167
772.4866, 942.2328
772.9688, 922.9711
773.4509, 904.2999
773.9330, 882.8728
774.4151, 851.2295
774.8972, 818.4656
775.3793, 799.9261
775.8615, 797.2971
776.3436, 792.1069
776.8257, 765.3627
777.3078, 734.0358
777.7899, 721.3992
778.2720, 721.3638
778.7542, 716.9971
779.2363, 704.8040
779.7184, 692.4237
780.2005, 686.2886
780.6826, 684.5630
781.1647, 681.3126
781.6469, 676.3642
782.1290, 671.5094
782.6111, 667.9359
783.0932, 662.1677
783.5753, 651.0588
784.0574, 636.6174
784.5396, 623.7655
785.0217, 611.8741
785.5038, 603.1281
785.9859, 600.6777
786.4680, 597.9854
786.9501, 590.2167
787.4323, 581.4801
787.9144, 577.4442
788.3965, 578.9954
788.8786, 582.1840
789.3607, 589.0027
789.8428, 592.7266
790.3250, 582.9372
790.8071, 566.4341
791.2892, 556.3682
791.7713, 555.1142
792.2534, 558.2267
792.7355, 563.3380
793.2177, 567.9158
793.6998, 563.7159
794.1819, 551.0374
794.6640, 546.5424
795.1461, 553.8333
795.6282, 560.9095
796.1104, 560.0892
796.5925, 555.3457
797.0746, 555.5178
797.5567, 562.5617
798.0388, 568.4359
798.5209, 574.8447
799.0031, 577.9954
799.4852, 574.7603
799.9673, 569.0533
800.4494, 562.8863
800.9315, 557.1214
801.4136, 558.5258
801.8958, 575.2122
802.3779, 592.9837
802.8600, 604.0170
803.3421, 611.4968
803.8242, 618.1467
804.3063, 625.1001
804.7885, 634.0594
805.2706, 646.3325
805.7527, 659.3539
806.2348, 669.5429
806.7169, 677.6514
807.1990, 686.4805
807.6812, 696.0915
808.1633, 704.3127
808.6454, 710.1530
809.1275, 713.8328
809.6096, 716.1351
810.0917, 717.1978
810.5739, 711.3353
811.0560, 695.1778
811.5381, 681.0206
812.0202, 673.0923
812.5023, 667.4057
812.9844, 659.7816
813.4666, 650.7173
813.9487, 644.1906
814.4308, 645.7128
814.9129, 642.1629
815.3950, 625.2745
815.8771, 608.3419
816.3593, 602.7292
816.8414, 603.5753
817.3235, 598.3606
817.8056, 582.3333
818.2877, 569.0264
818.7698, 568.9044
819.2520, 574.7283
819.7341, 580.2786
820.2162, 584.7026
820.6983, 587.0594
821.1804, 587.1668
821.6625, 585.6570
822.1447, 582.5980
822.6268, 578.9352
823.1089, 576.9983
823.5910, 576.7474
824.0731, 577.9377
824.5552, 580.6321
825.0374, 583.7756
825.5195, 586.6773
826.0016, 589.4302
826.4837, 592.4603
826.9658, 596.3853
827.4479, 598.3775
827.9301, 596.3534
828.4122, 595.7498
828.8943, 601.5474
829.3764, 608.1025
829.8585, 606.1790
830.3406, 595.2637
830.8228, 592.6410
831.3049, 609.3014
831.7870, 623.2549
832.2691, 626.8577
832.7512, 624.9816
833.2333, 618.8824
833.7155, 611.5309
834.1976, 610.1208
834.6797, 618.7291
835.1618, 629.6328
835.6439, 637.7335
836.1260, 644.1624
836.6082, 650.1649
837.0903, 655.7980
837.5724, 660.8633
838.0545, 665.2853
838.5366, 668.9973
839.0187, 671.3350
839.5009, 673.2246
839.9830, 678.5199
840.4651, 686.8153
840.9472, 691.5626
841.4293, 690.7990
841.9114, 691.5063
842.3936, 698.9698
842.8757, 712.3842
843.3578, 730.8405
843.8399, 759.7314
844.3220, 773.4545
844.8041, 762.0948
845.2863, 752.1346
845.7684, 756.8520
846.2505, 769.1116
846.7326, 779.2628
847.2147, 787.7041
847.6968, 790.9983
848.1790, 782.2742
848.6611, 777.1180
849.1432, 782.1433
849.6253, 790.4745
850.1074, 796.4040
850.5895, 800.2279
851.0717, 805.1141
851.5538, 813.0004
852.0359, 819.5203
852.5180, 822.3184
853.0001, 822.5232
853.4822, 819.7031
853.9644, 815.5797
854.4465, 813.6327
854.9286, 814.8204
855.4107, 816.8662
855.8928, 817.0052
856.3749, 817.2900
856.8571, 822.9565
857.3392, 831.9911
857.8213, 836.7773
858.3034, 836.1334
858.7855, 834.8170
859.2676, 836.2229
859.7498, 838.6039
860.2319, 836.9373
860.7140, 831.0518
861.1961, 840.1249
861.6782, 847.4844
862.1603, 852.2285
862.6425, 854.4982
863.1245, 846.8800
863.6066, 852.0294
864.0887, 852.0622
864.5709, 851.8856
865.0530, 858.8318
865.5351, 852.6521
866.0172, 849.2667
866.4993, 855.6935
866.9814, 858.0344
867.4636, 857.1786
867.9457, 854.6364
868.4278, 848.4781
868.9099, 846.5252
869.3920, 854.7080
869.8741, 862.2092
870.3563, 862.0283
870.8384, 859.1994
871.3205, 860.6747
871.8026, 866.7929
872.2847, 871.9993
872.7668, 874.2287
873.2490, 874.1776
873.7311, 870.1397
874.2132, 865.5551
874.6953, 863.8306
875.1774, 865.5204
875.6595, 871.8334
876.1417, 883.3016
876.6238, 893.8134
877.1059, 895.4402
877.5880, 892.5507
878.0701, 891.7150
878.5522, 893.7672
879.0344, 902.7711
879.5165, 919.0746
879.9986, 933.9985
880.4807, 939.7506
880.9628, 941.6973
881.4449, 954.4516
881.9271, 977.4667
882.4092, 996.2929
882.8913, 1009.125
883.3734, 1023.341
883.8555, 1042.293
884.3376, 1064.252
884.8198, 1085.272
885.3019, 1105.307
885.7840, 1140.693
886.2661, 1199.739
886.7482, 1251.247
887.2303, 1284.568
887.7125, 1315.787
888.1946, 1356.168
888.6767, 1403.918
889.1588, 1452.709
889.6409, 1499.124
890.1230, 1554.093
890.6052, 1623.013
891.0873, 1693.930
891.5694, 1766.907
892.0515, 1837.031
892.5336, 1896.293
893.0157, 1945.636
893.4979, 2002.516
893.9800, 2075.317
894.4621, 2150.379
894.9442, 2234.765
895.4263, 2309.256
895.9084, 2351.048
896.3906, 2371.885
896.8727, 2398.439
897.3548, 2438.600
897.8369, 2476.368
898.3190, 2506.884
898.8011, 2525.854
899.2833, 2525.118
899.7654, 2512.205
900.2475, 2502.990
900.7296, 2495.957
901.2117, 2471.555
901.6938, 2416.266
902.1760, 2350.010
902.6581, 2299.381
903.1402, 2254.243
903.6223, 2188.923
904.1044, 2107.723
904.5865, 2034.877
905.0687, 1978.163
905.5508, 1926.589
906.0329, 1869.347
906.5150, 1809.195
906.9971, 1753.724
907.4792, 1702.752
907.9614, 1653.309
908.4435, 1604.951
908.9256, 1560.602
909.4077, 1522.075
909.8898, 1485.135
910.3719, 1441.526
910.8541, 1391.316
911.3362, 1345.041
911.8183, 1302.814
912.3004, 1263.245
912.7825, 1226.683
913.2646, 1190.915
913.7468, 1152.754
914.2289, 1114.901
914.7110, 1087.979
915.1931, 1078.983
915.6752, 1061.823
916.1573, 1030.840
916.6395, 1001.474
917.1216, 979.2257
917.6037, 961.5333
918.0858, 946.0778
918.5679, 932.8506
919.0500, 919.9020
919.5322, 902.4172
920.0143, 892.3893
920.4964, 898.5686
920.9785, 904.3672
921.4606, 900.1725
921.9427, 889.9051
922.4249, 879.4166
922.9070, 868.9376
923.3891, 862.5490
923.8712, 865.3056
924.3533, 867.0532
924.8354, 862.0665
925.3176, 855.8179
925.7997, 853.8442
926.2818, 854.9930
926.7639, 854.6992
927.2460, 851.2792
927.7281, 848.0403
928.2103, 845.0285
928.6924, 844.4008
929.1745, 848.8055
929.6566, 856.1368
930.1387, 864.8510
930.6208, 873.5767
931.1030, 878.2426
931.5851, 874.5720
932.0672, 871.4545
932.5493, 876.0042
933.0314, 885.6886
933.5135, 901.5728
933.9957, 919.0577
934.4778, 925.8730
934.9599, 919.8711
935.4420, 916.4247
935.9241, 928.7986
936.4063, 949.2465
936.8884, 969.1573
937.3705, 987.8882
937.8526, 1002.092
938.3347, 1013.246
938.8168, 1029.150
939.2990, 1053.327
939.7811, 1082.502
940.2632, 1114.919
940.7453, 1148.521
941.2274, 1175.790
941.7095, 1198.634
942.1917, 1226.536
942.6738, 1260.847
943.1559, 1296.560
943.6380, 1330.460
944.1201, 1363.235
944.6022, 1396.114
945.0844, 1429.020
945.5665, 1462.527
946.0486, 1496.517
946.5307, 1534.069
947.0128, 1576.429
947.4949, 1614.943
947.9771, 1641.767
948.4592, 1661.400
948.9413, 1686.513
949.4234, 1717.160
949.9055, 1753.159
950.3876, 1795.586
950.8698, 1835.376
951.3519, 1867.121
951.8340, 1902.190
952.3161, 1953.851
952.7982, 2019.982
953.2803, 2087.561
953.7625, 2157.097
954.2446, 2224.668
954.7267, 2286.310
955.2088, 2358.226
955.6909, 2452.067
956.1730, 2554.347
956.6552, 2646.214
957.1373, 2727.277
957.6194, 2809.800
958.1015, 2898.595
958.5836, 2977.621
959.0657, 3048.701
959.5479, 3102.189
960.0300, 3129.976
960.5121, 3138.457
960.9942, 3141.704
961.4763, 3143.125
961.9584, 3118.455
962.4406, 3053.085
962.9227, 2986.064
963.4048, 2922.844
963.8869, 2862.097
964.3690, 2802.370
964.8511, 2744.560
965.3333, 2691.537
965.8154, 2641.124
966.2975, 2602.172
966.7796, 2578.286
967.2617, 2560.750
967.7438, 2545.977
968.2260, 2538.004
968.7081, 2540.779
969.1902, 2553.355
969.6723, 2572.090
970.1544, 2597.777
970.6365, 2627.473
971.1187, 2661.319
971.6008, 2698.654
972.0829, 2746.289
972.5650, 2792.444
973.0471, 2826.698
973.5292, 2848.522
974.0114, 2858.312
974.4935, 2853.400
974.9756, 2841.296
975.4577, 2823.355
975.9398, 2798.405
976.4219, 2766.771
976.9041, 2727.258
977.3862, 2676.579
977.8683, 2615.741
978.3504, 2554.859
978.8325, 2497.876
979.3146, 2438.899
979.7968, 2363.068
980.2789, 2299.058
980.7610, 2274.042
981.2431, 2267.762
981.7252, 2249.244
982.2073, 2215.079
982.6895, 2185.281
983.1716, 2167.063
983.6537, 2152.000
984.1358, 2138.590
984.6179, 2126.095
985.1000, 2111.887
985.5822, 2099.038
986.0643, 2093.890
986.5464, 2097.508
987.0285, 2099.630
987.5106, 2092.258
987.9927, 2088.343
988.4749, 2095.317
988.9570, 2106.305
989.4391, 2110.983
989.9212, 2116.486
990.4033, 2138.927
990.8854, 2182.185
991.3676, 2229.384
991.8497, 2279.076
992.3318, 2324.499
992.8139, 2352.382
993.2960, 2383.034
993.7781, 2437.022
994.2603, 2508.844
994.7424, 2586.303
995.2245, 2667.157
995.7066, 2736.001
996.1887, 2779.301
996.6708, 2816.034
997.1530, 2857.027
997.6351, 2896.014
998.1172, 2927.996
998.5993, 2952.334
999.0814, 2970.630
999.5635, 2983.891
1000.046, 2985.830
1000.528, 2968.807
1001.010, 2945.304
1001.492, 2928.449
1001.974, 2904.553
1002.456, 2854.129
1002.938, 2783.836
1003.420, 2718.496
1003.903, 2667.188
1004.385, 2605.915
1004.867, 2518.419
1005.349, 2423.935
1005.831, 2332.660
1006.313, 2242.547
1006.795, 2152.638
1007.277, 2061.711
1007.759, 1966.385
1008.242, 1864.264
1008.724, 1767.041
1009.206, 1679.642
1009.688, 1599.195
1010.170, 1520.686
1010.652, 1450.720
1011.134, 1401.273
1011.616, 1366.789
1012.099, 1326.912
1012.581, 1273.292
1013.063, 1226.211
1013.545, 1199.007
1014.027, 1175.188
1014.509, 1143.243
1014.991, 1111.008
1015.473, 1089.400
1015.955, 1075.560
1016.438, 1056.197
1016.920, 1025.056
1017.402, 1000.745
1017.884, 991.9870
1018.366, 990.2563
1018.848, 996.0394
1019.330, 1002.586
1019.812, 1003.555
1020.294, 999.2990
1020.777, 992.5129
1021.259, 982.5588
1021.741, 975.5754
1022.223, 981.3120
1022.705, 981.0792
1023.187, 959.5472
1023.669, 932.8799
1024.151, 918.0126
1024.634, 911.8640
1025.116, 900.3636
1025.598, 878.8574
1026.080, 859.4642
1026.562, 845.2592
1027.044, 833.4333
1027.526, 824.1841
1028.008, 815.5917
1028.490, 806.2637
1028.973, 796.1748
1029.455, 786.5632
1029.937, 779.6492
1030.419, 765.3158
1030.901, 726.7029
1031.383, 700.1053
1031.865, 710.5928
1032.347, 726.6910
1032.830, 719.4062
1033.312, 697.0546
1033.794, 685.1411
1034.276, 688.8340
1034.758, 690.9960
1035.240, 685.3170
1035.722, 684.4359
1036.204, 699.0214
1036.687, 712.4566
1037.169, 712.2858
1037.651, 701.7421
1038.133, 686.1609
1038.615, 659.1378
1039.097, 653.5114
1039.579, 691.8990
1040.061, 717.1805
1040.543, 709.4750
1041.026, 697.4449
1041.508, 700.6506
1041.990, 711.7934
1042.472, 715.5457
1042.954, 710.5228
1043.436, 707.2363
1043.918, 704.4390
1044.400, 706.3156
1044.882, 716.5727
1045.365, 726.3378
1045.847, 729.0616
1046.329, 729.1298
1046.811, 733.9556
1047.293, 743.5563
1047.775, 757.8996
1048.257, 778.6981
1048.739, 799.5989
1049.222, 820.8147
1049.704, 839.1137
1050.186, 853.0687
1050.668, 862.2982
1051.150, 864.9347
1051.632, 861.7927
1052.114, 865.9035
1052.596, 878.9567
1053.078, 887.4227
1053.561, 889.3652
1054.043, 888.2375
1054.525, 885.4991
1055.007, 881.2224
1055.489, 875.9285
1055.971, 868.8305
1056.453, 854.8275
1056.935, 834.0203
1057.417, 816.8702
1057.900, 804.3740
1058.382, 783.5682
1058.864, 748.6052
1059.346, 716.1613
1059.828, 704.8964
1060.310, 705.3378
1060.792, 691.3215
1061.274, 666.0876
1061.757, 646.9083
1062.239, 634.5139
1062.721, 624.3538
1063.203, 615.0728
1063.685, 610.1894
1064.167, 613.4001
1064.649, 619.7492
1065.131, 618.1918
1065.614, 614.2357
1066.096, 627.6443
1066.578, 650.9417
1067.060, 652.9229
1067.542, 630.1706
1068.024, 612.4446
1068.506, 619.0834
1068.988, 632.4092
1069.470, 631.9937
1069.953, 626.1296
1070.435, 628.0739
1070.917, 633.2886
1071.399, 627.9892
1071.881, 614.9778
1072.363, 614.7129
1072.845, 637.6069
1073.327, 663.1017
1073.809, 674.2573
1074.292, 682.8994
1074.774, 700.4487
1075.256, 721.0345
1075.738, 739.1902
1076.220, 752.8232
1076.702, 757.2891
1077.184, 750.5912
1077.666, 746.7781
1078.148, 756.1846
1078.631, 765.0469
1079.113, 766.7892
1079.595, 764.7118
1080.077, 760.2262
1080.559, 754.7129
1081.041, 749.9467
1081.523, 746.2162
1082.005, 743.3929
1082.488, 744.4528
1082.970, 742.0062
1083.452, 735.2237
1083.934, 723.7096
1084.416, 703.0215
1084.898, 680.0453
1085.380, 663.0283
1085.862, 652.0635
1086.344, 647.6660
1086.827, 658.3372
1087.309, 658.7698
1087.791, 643.2241
1088.273, 625.9528
1088.755, 608.0912
1089.237, 596.5947
1089.719, 600.6769
1090.201, 615.2677
1090.683, 621.3217
1091.166, 617.1115
1091.648, 612.2994
1092.130, 606.6666
1092.612, 601.0976
1093.094, 595.1562
1093.576, 592.7263
1094.058, 597.1213
1094.540, 605.0691
1095.023, 610.2216
1095.505, 612.9493
1095.987, 616.8096
1096.469, 621.7997
1096.951, 628.8097
1097.433, 637.6830
1097.915, 644.1707
1098.397, 646.0439
1098.880, 644.3801
1099.362, 638.3577
1099.844, 631.8745
1100.326, 636.0035
1100.808, 645.8824
1101.290, 648.3146
1101.772, 643.8546
1102.254, 638.8904
1102.736, 636.0660
1103.219, 638.3013
1103.701, 651.6642
1104.183, 662.8328
1104.665, 654.3272
1105.147, 638.8604
1105.629, 630.8094
1106.111, 628.0867
1106.593, 625.3530
1107.075, 621.7026
1107.558, 618.5349
1108.040, 616.0862
1108.522, 615.2800
1109.004, 620.3150
1109.486, 622.7203
1109.968, 616.2939
1110.450, 605.5429
1110.932, 591.9920
1111.415, 578.7307
1111.897, 573.9258
1112.379, 580.8877
1112.861, 585.1020
1113.343, 583.9315
1113.825, 580.8901
1114.307, 575.9634
1114.789, 570.1102
1115.271, 562.9249
1115.754, 555.7585
1116.236, 549.8197
1116.718, 545.2813
1117.200, 548.8043
1117.682, 565.3668
1118.164, 571.6238
1118.646, 562.5240
1119.128, 555.4744
1119.610, 557.7767
1120.093, 562.1162
1120.575, 561.5540
1121.057, 557.2756
1121.539, 552.1508
1122.021, 546.3185
1122.503, 541.3175
1122.985, 537.1925
1123.467, 533.0448
1123.950, 528.8986
1124.432, 528.0708
1124.914, 532.8658
1125.396, 538.4244
1125.878, 538.5428
1126.360, 534.9531
1126.842, 529.3936
1127.324, 523.3803
1127.807, 519.7636
1128.289, 518.7030
1128.771, 519.5331
1129.253, 521.9053
1129.735, 524.5771
1130.217, 527.6407
1130.699, 529.3757
1131.181, 526.7300
1131.663, 523.9393
1132.146, 525.5270
1132.628, 529.1822
1133.110, 531.6177
1133.592, 532.2806
1134.074, 531.2954
1134.556, 528.8631
1135.038, 524.3788
1135.520, 512.7054
1136.002, 505.5512
1136.485, 514.3295
1136.967, 522.1029
1137.449, 512.7964
1137.931, 494.3838
1138.413, 483.6948
1138.895, 480.9019
1139.377, 485.4711
1139.859, 502.1957
1140.342, 508.7543
1140.824, 499.4339
1141.306, 490.2729
1141.788, 488.4610
1142.270, 491.6522
1142.752, 498.5970
1143.234, 505.9698
1143.716, 500.4488
1144.198, 484.5304
1144.681, 475.3796
1145.163, 473.7542
1145.645, 480.0646
1146.127, 492.8400
1146.609, 498.8538
1147.091, 488.7073
1147.573, 477.2955
1148.055, 485.5989
1148.537, 499.6996
1149.020, 499.8159
1149.502, 492.8783
1149.984, 490.9135
1150.466, 492.7596
1150.948, 491.6866
1151.430, 485.7208
1151.912, 475.4807
1152.394, 449.6271
1152.877, 435.9720
1153.359, 460.5175
1153.841, 484.9436
1154.323, 478.5298
1154.805, 461.5098
1155.287, 462.4709
1155.769, 478.5562
1156.251, 482.9463
1156.734, 469.4050
1157.216, 460.3224
1157.698, 458.0400
1158.180, 455.1063
1158.662, 449.9073
1159.144, 443.1731
1159.626, 434.0013
1160.108, 427.0221
1160.590, 431.1374
1161.073, 443.8139
1161.555, 446.3258
1162.037, 439.8869
1162.519, 444.9406
1163.001, 461.9243
1163.483, 473.4435
1163.965, 473.8691
1164.447, 471.6341
1164.929, 473.3028
1165.412, 475.0201
1165.894, 471.6281
1166.376, 465.1252
1166.858, 454.7424
1167.340, 445.4178
1167.822, 448.5561
1168.304, 460.6599
1168.786, 466.0698
1169.269, 459.5548
1169.751, 454.9867
1170.233, 464.1931
1170.715, 468.9915
1171.197, 457.6180
1171.679, 444.2834
1172.161, 436.3820
1172.643, 433.4353
1173.125, 435.9301
1173.608, 442.6809
1174.090, 446.6622
1174.572, 448.0248
1175.054, 445.2157
1175.536, 434.3661
1176.018, 432.3481
1176.500, 445.1658
1176.982, 459.9235
1177.464, 469.2279
1177.947, 472.5048
1178.429, 467.2081
1178.911, 456.3773
1179.393, 451.0474
1179.875, 450.9532
1180.357, 457.7458
1180.839, 468.9312
1181.321, 473.0301
1181.804, 467.4590
1182.286, 460.4426
1182.768, 457.0352
1183.250, 454.5586
1183.732, 450.1164
1184.214, 445.9728
1184.696, 446.2057
1185.178, 446.4587
1185.661, 437.6539
1186.143, 425.2101
1186.625, 425.2871
1187.107, 441.5776
1187.589, 451.7710
1188.071, 443.5039
1188.553, 442.0945
1189.035, 458.9905
1189.517, 471.0093
1190.000, 466.8818
1190.482, 458.5476
1190.964, 457.3461
1191.446, 460.5536
1191.928, 460.2498
1192.410, 456.3804
1192.892, 453.2658
1193.374, 450.9145
1193.856, 449.1697
1194.339, 447.9731
1194.821, 447.1460
1195.303, 446.5797
1195.785, 445.1382
1196.267, 441.3831
1196.749, 436.9188
1197.231, 432.3528
1197.713, 429.6375
1198.196, 433.6270
1198.678, 440.3961
1199.160, 443.6825
1199.642, 442.6451
1200.124, 438.0659
1200.606, 429.2789
1201.088, 422.7500
1201.570, 421.6304
1202.052, 421.5070
1202.535, 421.0439
1203.017, 421.3372
1203.499, 424.3803
1203.981, 426.9980
1204.463, 424.5228
1204.945, 418.5558
1205.427, 417.7856
1205.909, 423.2371
1206.391, 423.9475
1206.874, 419.4648
1207.356, 416.4783
1207.838, 416.4897
1208.320, 422.2766
1208.802, 435.5389
1209.284, 446.7563
1209.766, 443.8461
1210.248, 434.1418
1210.731, 427.2629
1211.213, 422.4242
1211.695, 418.1137
1212.177, 415.0531
1212.659, 415.6469
1213.141, 419.2974
1213.623, 421.6909
1214.105, 420.8217
1214.588, 421.3928
1215.070, 426.8178
1215.552, 431.1346
1216.034, 434.7764
1216.516, 433.7309
1216.998, 421.2822
1217.480, 407.9655
1217.962, 407.9541
1218.444, 418.6477
1218.927, 426.5266
1219.409, 431.6469
1219.891, 432.2065
1220.373, 428.2582
1220.855, 428.1970
1221.337, 433.4519
1221.819, 436.8655
1222.301, 434.6122
1222.783, 430.3541
1223.266, 427.8480
1223.748, 425.5071
1224.230, 418.8558
1224.712, 413.2453
1225.194, 419.5462
1225.676, 429.6977
1226.158, 426.8666
1226.640, 413.0936
1227.122, 407.0431
1227.605, 414.5532
1228.087, 423.7033
1228.569, 436.9031
1229.051, 444.6791
1229.533, 444.8814
1230.015, 440.0747
1230.497, 428.9950
1230.979, 418.5892
1231.462, 417.2664
1231.944, 422.2135
1232.426, 425.5815
1232.908, 427.0757
1233.390, 422.4589
1233.872, 413.2672
1234.354, 407.5247
1234.836, 406.5143
1235.318, 408.8052
1235.801, 413.6075
1236.283, 418.0988
1236.765, 420.5013
1237.247, 421.2512
1237.729, 419.4205
1238.211, 417.4419
1238.693, 416.1276
1239.175, 416.6496
1239.657, 422.5161
1240.140, 431.0595
1240.622, 432.6929
1241.104, 426.0834
1241.586, 422.7296
1242.068, 424.6966
1242.550, 422.3616
1243.032, 413.2122
1243.514, 408.4774
1243.997, 412.6893
1244.479, 418.4500
1244.961, 419.9493
1245.443, 418.6326
1245.925, 414.5783
1246.407, 410.8707
1246.889, 415.5293
1247.371, 424.2359
1247.854, 430.6786
1248.336, 433.3239
1248.818, 429.4969
1249.300, 419.8207
1249.782, 413.3665
1250.264, 414.6908
1250.746, 416.0404
1251.228, 413.3939
1251.710, 413.3193
1252.193, 419.8109
1252.675, 426.8987
1253.157, 432.1476
1253.639, 434.0715
1254.121, 429.4597
1254.603, 420.5915
1255.085, 417.9960
1255.567, 421.1039
1256.049, 425.5262
1256.532, 430.0396
1257.014, 428.5196
1257.496, 420.8731
1257.978, 412.9138
1258.460, 407.2550
1258.942, 406.2189
1259.424, 416.0121
1259.906, 424.8965
1260.389, 422.1721
1260.871, 418.9038
1261.353, 426.6468
1261.835, 435.7956
1262.317, 431.7700
##END=



