##NAMES=Azurite
##RRUFFID=R050638
##IDEAL CHEMISTRY=Cu^2+^_3_(CO_3_)_2_(OH)_2_
##LOCALITY=Zacatecas, Mexico
##OWNER=RRUFF
##SOURCE=University of Arizona Mineral Museum
##DESCRIPTION=Blue bladed crystals
##STATUS=The identification of this mineral has been confirmed by X-ray diffraction and chemical analysis
##URL=rruff.info/R050638
##MEASURED CHEMISTRY=Cu_3.00_(CO_3_)_2_(OH)_2_
89.78156, 0.0000000E+00
90.26367, 11.14268
90.74579, 11.96342
91.22791, 11.60109
91.71002, 10.18887
92.19214, 8.896610
92.67426, 8.829392
93.15638, 9.645917
93.63850, 10.45640
94.12061, 11.05287
94.60273, 11.43148
95.08485, 11.64341
95.56696, 11.71332
96.04908, 11.43850
96.53120, 10.14473
97.01331, 7.931092
97.49543, 6.351021
97.97755, 6.480396
98.45966, 8.196600
98.94178, 9.158022
99.42390, 9.192994
99.90602, 8.694491
100.3881, 8.337921
100.8703, 8.102214
101.3524, 8.085459
101.8345, 8.448617
102.3166, 9.355676
102.7987, 9.917718
103.2808, 10.02000
103.7630, 9.733963
104.2451, 9.330380
104.7272, 8.651226
105.2093, 8.058465
105.6914, 7.810045
106.1735, 8.179592
106.6557, 8.413773
107.1378, 8.227704
107.6199, 7.588240
108.1020, 7.668135
108.5841, 9.343457
109.0662, 11.27929
109.5484, 12.29982
110.0305, 11.48557
110.5126, 10.68199
110.9947, 10.03085
111.4768, 9.384559
111.9590, 9.574062
112.4411, 11.51756
112.9232, 14.14126
113.4053, 16.00664
113.8874, 15.73009
114.3695, 15.58756
114.8517, 16.55164
115.3338, 19.19602
115.8159, 21.76629
116.2980, 23.65027
116.7801, 25.11413
117.2622, 26.72473
117.7444, 28.44966
118.2265, 30.55255
118.7086, 33.12114
119.1907, 35.83763
119.6728, 39.58693
120.1549, 45.27952
120.6371, 52.58517
121.1192, 60.19772
121.6013, 67.94341
122.0834, 75.33702
122.5655, 81.77654
123.0476, 86.75159
123.5298, 90.98745
124.0119, 94.88733
124.4940, 98.48279
124.9761, 102.2362
125.4582, 106.6222
125.9404, 111.4016
126.4225, 116.0647
126.9046, 119.4156
127.3867, 122.8335
127.8688, 128.4526
128.3509, 136.3064
128.8331, 146.0368
129.3152, 157.5003
129.7973, 170.6657
130.2794, 185.0374
130.7615, 202.5262
131.2436, 221.3938
131.7258, 235.5036
132.2079, 244.5356
132.6900, 249.0741
133.1721, 247.8322
133.6542, 240.7225
134.1364, 235.1573
134.6185, 234.4157
135.1006, 238.5171
135.5827, 247.3083
136.0648, 261.1573
136.5469, 279.3060
137.0291, 300.8917
137.5112, 326.5190
137.9933, 352.5138
138.4754, 379.9594
138.9575, 411.0836
139.4396, 428.1996
139.9218, 428.3670
140.4039, 413.0182
140.8860, 386.5741
141.3681, 344.5475
141.8502, 299.6486
142.3323, 262.2664
142.8145, 232.5166
143.2966, 208.7108
143.7787, 191.9121
144.2608, 181.8860
144.7429, 172.6189
145.2250, 163.7065
145.7072, 155.8118
146.1893, 149.5266
146.6714, 145.0797
147.1535, 141.9038
147.6356, 139.9222
148.1178, 139.1214
148.5999, 139.5959
149.0820, 141.4290
149.5641, 144.5096
150.0462, 148.7058
150.5283, 154.5078
151.0105, 160.8811
151.4926, 165.9402
151.9747, 170.5104
152.4568, 176.2895
152.9389, 185.5542
153.4210, 195.4614
153.9032, 202.1511
154.3853, 206.7378
154.8674, 206.8558
155.3495, 201.0655
155.8316, 186.4998
156.3137, 172.7181
156.7959, 160.3691
157.2780, 149.7637
157.7601, 141.5724
158.2422, 135.9590
158.7243, 132.5821
159.2065, 131.3008
159.6886, 132.6908
160.1707, 135.0271
160.6528, 138.0131
161.1349, 141.5782
161.6170, 145.5486
162.0992, 150.6898
162.5813, 155.7170
163.0634, 159.7367
163.5455, 161.9602
164.0276, 163.9726
164.5097, 166.1679
164.9919, 168.6361
165.4740, 171.7456
165.9561, 175.4714
166.4382, 179.9913
166.9203, 185.5416
167.4024, 192.8037
167.8846, 200.4693
168.3667, 207.6884
168.8488, 214.5740
169.3309, 221.8540
169.8130, 231.4971
170.2952, 241.4020
170.7773, 248.8692
171.2594, 253.3635
171.7415, 254.9322
172.2236, 252.2225
172.7057, 245.5370
173.1879, 239.3732
173.6700, 236.0518
174.1521, 235.5989
174.6342, 238.0020
175.1163, 243.3659
175.5984, 251.5144
176.0806, 262.6200
176.5627, 276.7169
177.0448, 292.2398
177.5269, 310.2425
178.0090, 328.7484
178.4911, 343.5367
178.9733, 356.6015
179.4554, 363.6175
179.9375, 355.7854
180.4196, 332.3470
180.9017, 302.1390
181.3838, 270.5840
181.8660, 239.0958
182.3481, 211.5583
182.8302, 190.1768
183.3123, 174.1589
183.7944, 162.3641
184.2766, 154.9439
184.7587, 150.0498
185.2408, 145.4206
185.7229, 141.2327
186.2050, 138.3347
186.6871, 137.7227
187.1693, 138.8499
187.6514, 139.5677
188.1335, 139.5815
188.6156, 139.8830
189.0977, 142.1227
189.5798, 146.2179
190.0620, 150.7372
190.5441, 155.2285
191.0262, 159.6389
191.5083, 163.6092
191.9904, 167.1863
192.4725, 170.3294
192.9547, 173.2993
193.4368, 176.1592
193.9189, 177.7391
194.4010, 177.5700
194.8831, 175.6487
195.3652, 171.5607
195.8474, 164.8792
196.3295, 156.6778
196.8116, 148.9094
197.2937, 141.6223
197.7758, 134.5588
198.2579, 127.3734
198.7401, 120.0343
199.2222, 113.9396
199.7043, 109.3603
200.1864, 105.9684
200.6685, 103.1914
201.1507, 101.1486
201.6328, 99.22498
202.1149, 96.87955
202.5970, 93.99758
203.0791, 91.92287
203.5612, 90.97539
204.0434, 90.75954
204.5255, 90.20545
205.0076, 89.21780
205.4897, 88.22335
205.9718, 87.46618
206.4539, 86.95899
206.9361, 86.62811
207.4182, 86.51330
207.9003, 86.55076
208.3824, 86.60916
208.8645, 86.80913
209.3466, 86.71684
209.8288, 85.84660
210.3109, 83.84500
210.7930, 82.65510
211.2751, 82.65480
211.7572, 83.53332
212.2393, 84.17919
212.7215, 84.55019
213.2036, 84.76865
213.6857, 84.94846
214.1678, 85.18015
214.6499, 85.02424
215.1320, 84.27715
215.6142, 83.12234
216.0963, 82.38950
216.5784, 82.19392
217.0605, 82.19926
217.5426, 82.18864
218.0247, 82.10934
218.5069, 82.20072
218.9890, 82.64272
219.4711, 83.27895
219.9532, 83.25851
220.4353, 82.09876
220.9175, 81.07494
221.3996, 81.06510
221.8817, 82.51009
222.3638, 83.80602
222.8459, 84.70873
223.3280, 85.34316
223.8102, 86.24201
224.2923, 87.38433
224.7744, 88.83948
225.2565, 90.68449
225.7386, 93.07505
226.2207, 95.41370
226.7029, 97.34756
227.1850, 99.14224
227.6671, 102.0372
228.1492, 105.9898
228.6313, 111.0937
229.1134, 117.4122
229.5956, 125.1816
230.0777, 133.8359
230.5598, 143.9693
231.0419, 155.0763
231.5240, 164.8760
232.0062, 173.1147
232.4883, 180.4041
232.9704, 187.0230
233.4525, 192.6553
233.9346, 198.2756
234.4167, 203.8466
234.8989, 209.4228
235.3810, 215.3043
235.8631, 221.9920
236.3452, 228.4218
236.8273, 233.8807
237.3094, 237.3602
237.7916, 242.0590
238.2737, 248.5969
238.7558, 256.5284
239.2379, 264.0005
239.7200, 270.2807
240.2021, 277.0938
240.6843, 285.1573
241.1664, 293.5125
241.6485, 305.1876
242.1306, 320.3485
242.6127, 338.9759
243.0948, 360.4111
243.5770, 384.5011
244.0591, 411.7227
244.5412, 442.4070
245.0233, 478.5728
245.5054, 514.3276
245.9876, 550.7617
246.4697, 586.3858
246.9518, 618.9340
247.4339, 654.6887
247.9160, 678.1160
248.3981, 681.9816
248.8803, 665.5853
249.3624, 630.5287
249.8445, 570.0095
250.3266, 492.6225
250.8087, 420.4303
251.2908, 352.0430
251.7730, 292.0568
252.2551, 243.5368
252.7372, 207.9729
253.2193, 179.3514
253.7014, 159.2516
254.1835, 145.5948
254.6657, 134.0647
255.1478, 124.7109
255.6299, 117.3805
256.1120, 112.1311
256.5941, 109.5194
257.0763, 107.3598
257.5584, 105.6580
258.0405, 104.3826
258.5226, 103.4522
259.0047, 102.7334
259.4868, 102.6196
259.9690, 103.3539
260.4511, 105.1137
260.9332, 106.8615
261.4153, 108.4189
261.8974, 110.1411
262.3795, 112.7651
262.8617, 116.8486
263.3438, 120.5327
263.8259, 123.0414
264.3080, 124.1090
264.7901, 125.9179
265.2722, 128.8607
265.7544, 132.0759
266.2365, 134.2737
266.7186, 135.2794
267.2007, 135.7738
267.6828, 135.7666
268.1649, 135.2000
268.6471, 135.1977
269.1292, 135.8166
269.6113, 136.9065
270.0934, 138.2182
270.5755, 139.6608
271.0576, 141.7423
271.5398, 144.6972
272.0219, 148.5284
272.5040, 152.3736
272.9861, 156.0720
273.4682, 160.0224
273.9503, 164.7700
274.4325, 170.4134
274.9146, 176.1340
275.3967, 181.5066
275.8788, 186.7446
276.3610, 193.4381
276.8431, 201.8862
277.3252, 210.6713
277.8073, 218.6047
278.2894, 225.6814
278.7715, 231.9975
279.2537, 237.7332
279.7358, 242.7342
280.2179, 246.5463
280.7000, 249.2243
281.1821, 250.5088
281.6642, 250.4704
282.1464, 249.1179
282.6285, 245.2836
283.1106, 238.3672
283.5927, 229.1913
284.0748, 219.7300
284.5569, 209.9096
285.0391, 200.1147
285.5212, 190.5022
286.0033, 181.0614
286.4854, 171.5505
286.9675, 161.6756
287.4496, 152.1180
287.9318, 144.4306
288.4139, 138.5784
288.8960, 133.3953
289.3781, 128.0251
289.8602, 122.5995
290.3423, 117.8308
290.8245, 113.8535
291.3066, 110.3474
291.7887, 106.9583
292.2708, 103.6655
292.7529, 100.3940
293.2350, 97.16557
293.7172, 93.93517
294.1993, 90.60193
294.6814, 87.09344
295.1635, 83.70377
295.6456, 80.87158
296.1277, 78.51620
296.6099, 76.33663
297.0920, 74.05054
297.5741, 71.90610
298.0562, 70.61183
298.5383, 70.24394
299.0204, 69.99797
299.5026, 68.98542
299.9847, 67.46023
300.4668, 66.06173
300.9489, 65.16603
301.4311, 64.49879
301.9132, 63.65424
302.3953, 62.63733
302.8774, 61.75008
303.3595, 61.28260
303.8416, 61.09876
304.3238, 60.95123
304.8059, 60.77255
305.2880, 60.59216
305.7701, 60.42216
306.2522, 60.26829
306.7343, 60.17648
307.2165, 60.38708
307.6986, 60.60467
308.1807, 60.41792
308.6628, 59.50916
309.1449, 58.52016
309.6270, 57.87493
310.1092, 57.53325
310.5913, 57.38885
311.0734, 57.61232
311.5555, 57.88210
312.0376, 57.84860
312.5197, 57.28409
313.0019, 56.86269
313.4840, 56.93387
313.9661, 57.41777
314.4482, 58.14730
314.9303, 59.45446
315.4124, 60.69812
315.8946, 61.38977
316.3767, 61.35876
316.8588, 61.37517
317.3409, 61.91654
317.8230, 62.65253
318.3051, 63.14572
318.7873, 62.95750
319.2694, 62.77367
319.7515, 62.92662
320.2336, 63.46148
320.7157, 63.92918
321.1978, 64.00208
321.6800, 64.03954
322.1621, 64.36595
322.6442, 65.40511
323.1263, 66.36778
323.6084, 66.98351
324.0905, 67.28043
324.5727, 67.74942
325.0548, 68.40923
325.5369, 69.28996
326.0190, 70.40940
326.5012, 72.34033
326.9833, 73.84904
327.4654, 74.62639
327.9475, 74.84868
328.4296, 75.20714
328.9117, 75.55425
329.3939, 76.16985
329.8760, 77.25428
330.3581, 79.56717
330.8402, 80.92957
331.3223, 80.91100
331.8044, 80.06791
332.2866, 79.53474
332.7687, 79.57457
333.2508, 79.54168
333.7329, 79.20703
334.2150, 78.49223
334.6971, 77.85363
335.1793, 77.36807
335.6614, 76.87736
336.1435, 76.14346
336.6256, 75.02285
337.1077, 74.03479
337.5898, 73.38203
338.0720, 73.03352
338.5541, 72.42557
339.0362, 71.36804
339.5183, 70.46800
340.0004, 70.42905
340.4825, 71.40706
340.9647, 72.13375
341.4468, 72.32718
341.9289, 72.15938
342.4110, 72.16439
342.8931, 72.34624
343.3752, 72.66821
343.8574, 73.08482
344.3395, 73.60411
344.8216, 74.34294
345.3037, 75.36710
345.7858, 76.50236
346.2679, 77.47984
346.7501, 78.30749
347.2322, 78.99193
347.7143, 79.25610
348.1964, 79.36411
348.6785, 80.24644
349.1607, 82.01775
349.6428, 84.16158
350.1249, 86.23286
350.6070, 88.23084
351.0891, 90.19946
351.5713, 92.25282
352.0534, 94.21371
352.5355, 95.66994
353.0176, 96.63086
353.4997, 97.79145
353.9818, 99.82762
354.4640, 102.3771
354.9461, 104.9433
355.4282, 107.4867
355.9103, 109.8312
356.3924, 111.4262
356.8745, 112.5632
357.3567, 114.3472
357.8388, 117.9149
358.3209, 122.1193
358.8030, 126.0204
359.2851, 129.3585
359.7672, 132.5506
360.2494, 135.7342
360.7315, 138.9483
361.2136, 142.2128
361.6957, 145.4828
362.1778, 148.8825
362.6599, 152.6074
363.1421, 156.7529
363.6242, 160.5482
364.1063, 163.4904
364.5884, 166.0900
365.0705, 168.8439
365.5526, 171.9857
366.0348, 175.1386
366.5169, 178.3969
366.9990, 181.7184
367.4811, 184.4703
367.9632, 186.1555
368.4453, 187.5594
368.9275, 189.1128
369.4096, 190.7663
369.8917, 192.6264
370.3738, 194.6362
370.8559, 196.8657
371.3380, 199.4892
371.8202, 202.7957
372.3023, 206.1339
372.7844, 209.0880
373.2665, 211.2903
373.7487, 214.5726
374.2308, 219.1846
374.7129, 224.6265
375.1950, 230.3555
375.6771, 236.4404
376.1592, 242.6552
376.6414, 249.0219
377.1235, 255.5117
377.6056, 262.0700
378.0877, 268.7621
378.5698, 275.4965
379.0519, 282.1188
379.5341, 288.5688
380.0162, 295.8510
380.4983, 304.2599
380.9804, 313.3924
381.4625, 321.8990
381.9446, 329.9014
382.4268, 337.9740
382.9089, 346.6768
383.3910, 355.7710
383.8731, 364.8829
384.3552, 373.9950
384.8373, 382.8087
385.3195, 390.8428
385.8016, 398.2365
386.2837, 405.5637
386.7658, 413.1348
387.2479, 420.6435
387.7300, 427.5905
388.2122, 433.9832
388.6943, 440.6924
389.1764, 448.0694
389.6585, 456.1851
390.1406, 464.9315
390.6227, 473.8781
391.1049, 484.0150
391.5870, 495.6173
392.0691, 508.8052
392.5512, 523.9440
393.0333, 542.1423
393.5154, 561.6886
393.9976, 581.4727
394.4797, 601.1794
394.9618, 621.6822
395.4439, 643.5707
395.9260, 666.3287
396.4081, 689.1740
396.8903, 713.7062
397.3724, 736.8710
397.8545, 758.8927
398.3366, 779.8654
398.8188, 796.2807
399.3009, 808.6022
399.7830, 815.7828
400.2651, 817.2150
400.7472, 813.8603
401.2293, 803.1434
401.7115, 783.5256
402.1936, 756.5627
402.6757, 726.7106
403.1578, 693.3461
403.6399, 657.9625
404.1220, 620.6796
404.6042, 580.3491
405.0863, 543.5536
405.5684, 510.7844
406.0505, 481.3832
406.5326, 454.7360
407.0147, 430.7383
407.4969, 409.8018
407.9790, 392.3332
408.4611, 377.7732
408.9432, 363.8647
409.4253, 350.6419
409.9074, 338.5020
410.3896, 327.6742
410.8717, 318.1105
411.3538, 309.6822
411.8359, 302.6109
412.3180, 296.2787
412.8001, 289.8386
413.2823, 283.4826
413.7644, 277.4991
414.2465, 272.4385
414.7286, 267.7044
415.2107, 262.2472
415.6928, 256.0426
416.1750, 249.9809
416.6571, 245.2935
417.1392, 241.0498
417.6213, 235.7940
418.1034, 228.2847
418.5855, 220.5202
419.0677, 213.7712
419.5498, 207.7702
420.0319, 201.7825
420.5140, 195.2835
420.9961, 188.7825
421.4782, 182.6263
421.9604, 177.0837
422.4425, 171.3315
422.9246, 164.7331
423.4067, 158.0171
423.8889, 152.0942
424.3710, 147.8007
424.8531, 143.5963
425.3352, 139.1567
425.8173, 134.4781
426.2994, 130.1691
426.7816, 126.4164
427.2637, 122.8816
427.7458, 119.3305
428.2279, 115.5559
428.7100, 112.1634
429.1921, 109.2246
429.6743, 106.6900
430.1564, 104.6458
430.6385, 103.2261
431.1206, 101.7851
431.6027, 100.1742
432.0848, 98.36452
432.5670, 95.78345
433.0491, 92.21484
433.5312, 88.73141
434.0133, 86.57653
434.4954, 85.58065
434.9775, 84.65894
435.4597, 83.70850
435.9418, 82.48957
436.4239, 80.22242
436.9060, 77.12196
437.3881, 74.43745
437.8702, 73.30207
438.3524, 72.95439
438.8345, 72.32200
439.3166, 71.26957
439.7987, 70.08000
440.2808, 68.94840
440.7629, 67.82687
441.2451, 66.65331
441.7272, 65.18204
442.2093, 63.85049
442.6914, 63.05786
443.1735, 62.70411
443.6556, 62.11708
444.1378, 60.61722
444.6199, 59.09850
445.1020, 58.15814
445.5841, 58.17422
446.0662, 58.20134
446.5483, 58.27926
447.0305, 58.26292
447.5126, 57.88944
447.9947, 56.58369
448.4768, 55.63517
448.9590, 55.52112
449.4411, 56.27002
449.9232, 56.36777
450.4053, 55.45628
450.8874, 54.40909
451.3695, 53.91921
451.8517, 54.13794
452.3338, 54.24807
452.8159, 54.21421
453.2980, 53.99195
453.7801, 53.29427
454.2622, 52.06880
454.7444, 51.23021
455.2265, 51.44867
455.7086, 52.42856
456.1907, 52.86657
456.6728, 52.73801
457.1549, 52.44667
457.6371, 52.41523
458.1192, 52.50985
458.6013, 52.35127
459.0834, 51.69184
459.5655, 51.03962
460.0476, 51.03429
460.5298, 51.50885
461.0119, 51.96688
461.4940, 52.12505
461.9761, 52.18908
462.4582, 52.35475
462.9403, 52.65444
463.4225, 52.83381
463.9046, 52.76994
464.3867, 52.53405
464.8688, 52.19566
465.3509, 51.64501
465.8330, 51.13392
466.3152, 50.62753
466.7973, 50.18414
467.2794, 50.01617
467.7615, 50.41922
468.2436, 50.81899
468.7257, 51.02056
469.2079, 50.97859
469.6900, 50.95281
470.1721, 51.02350
470.6542, 51.02149
471.1363, 50.73719
471.6184, 50.09509
472.1006, 49.43687
472.5827, 48.72184
473.0648, 48.09052
473.5469, 48.13972
474.0291, 48.93954
474.5112, 49.59690
474.9933, 49.56717
475.4754, 48.95840
475.9575, 48.10469
476.4396, 46.96460
476.9218, 45.99154
477.4039, 45.74550
477.8860, 46.04070
478.3681, 46.48101
478.8502, 47.10508
479.3323, 47.61879
479.8145, 47.56664
480.2966, 47.10883
480.7787, 46.83805
481.2608, 47.30849
481.7429, 47.89639
482.2250, 48.18967
482.7072, 48.12705
483.1893, 47.84933
483.6714, 47.17004
484.1535, 46.40233
484.6356, 45.86156
485.1177, 45.77444
485.5999, 45.71006
486.0820, 45.60127
486.5641, 45.46661
487.0462, 45.37330
487.5283, 45.34069
488.0104, 45.32566
488.4926, 45.32119
488.9747, 45.33688
489.4568, 45.25452
489.9389, 44.95263
490.4210, 44.77299
490.9031, 45.40189
491.3853, 46.94773
491.8674, 47.42296
492.3495, 46.06850
492.8316, 43.83609
493.3137, 42.72055
493.7958, 42.66387
494.2780, 43.11009
494.7601, 44.26337
495.2422, 45.56376
495.7243, 45.68001
496.2064, 44.50729
496.6885, 43.38095
497.1707, 43.63458
497.6528, 44.50277
498.1349, 44.91973
498.6170, 44.33586
499.0992, 43.60370
499.5813, 43.15773
500.0634, 42.91372
500.5455, 42.65886
501.0276, 42.13451
501.5097, 41.75536
501.9919, 41.82312
502.4740, 42.47680
502.9561, 42.70166
503.4382, 41.92998
503.9203, 41.05857
504.4024, 40.74322
504.8846, 41.48024
505.3667, 41.72400
505.8488, 41.15546
506.3309, 40.18791
506.8130, 39.73187
507.2951, 39.87084
507.7773, 40.14130
508.2594, 40.31636
508.7415, 40.46937
509.2236, 41.19892
509.7057, 42.56173
510.1878, 43.78123
510.6700, 44.17984
511.1521, 43.92559
511.6342, 43.45506
512.1163, 42.76936
512.5984, 42.13858
513.0806, 41.98727
513.5627, 42.09962
514.0448, 42.02459
514.5269, 41.24237
515.0090, 40.47057
515.4911, 40.30584
515.9733, 40.65301
516.4554, 40.84963
516.9375, 40.17466
517.4196, 39.61027
517.9017, 39.82948
518.3839, 41.36791
518.8660, 42.56190
519.3481, 42.99346
519.8302, 43.10137
520.3123, 43.30782
520.7944, 43.50135
521.2766, 44.01125
521.7587, 44.98753
522.2408, 46.30131
522.7229, 47.51069
523.2050, 48.62530
523.6871, 49.60424
524.1693, 50.32741
524.6514, 50.82227
525.1335, 51.58937
525.6156, 52.63768
526.0977, 53.92815
526.5798, 55.60021
527.0620, 57.51472
527.5441, 59.19509
528.0262, 60.41856
528.5083, 61.59528
528.9904, 63.12503
529.4725, 64.93504
529.9547, 66.84372
530.4368, 68.74023
530.9189, 70.70595
531.4010, 72.80193
531.8831, 75.05098
532.3652, 77.24431
532.8474, 79.26260
533.3295, 81.27589
533.8116, 83.43120
534.2937, 85.88881
534.7758, 88.20094
535.2579, 90.17110
535.7401, 92.08190
536.2222, 94.30108
536.7043, 97.05384
537.1864, 99.71544
537.6685, 102.3208
538.1506, 104.7286
538.6328, 106.0160
539.1149, 106.0571
539.5970, 105.8467
540.0791, 106.1505
540.5612, 106.7606
541.0433, 106.7369
541.5255, 106.0523
542.0076, 104.6681
542.4897, 102.2931
542.9718, 99.20525
543.4539, 95.89521
543.9360, 92.40566
544.4182, 88.96879
544.9003, 85.83428
545.3824, 82.92833
545.8645, 80.08778
546.3466, 77.37641
546.8287, 74.59764
547.3109, 71.56440
547.7930, 68.29026
548.2751, 65.31795
548.7572, 62.60799
549.2393, 60.32792
549.7214, 58.57473
550.2036, 57.44769
550.6857, 56.71917
551.1678, 56.81641
551.6499, 56.87407
552.1320, 55.39730
552.6141, 52.03072
553.0963, 49.48890
553.5784, 48.69862
554.0605, 48.87860
554.5426, 47.81051
555.0247, 45.57122
555.5068, 43.54527
555.9890, 42.56050
556.4711, 42.34800
556.9532, 42.62635
557.4353, 43.37861
557.9174, 44.08314
558.3995, 44.66150
558.8817, 44.83595
559.3638, 44.19739
559.8459, 42.21681
560.3281, 40.31583
560.8102, 39.04517
561.2923, 38.23139
561.7744, 37.61397
562.2565, 37.25753
562.7386, 36.97561
563.2208, 36.79155
563.7029, 36.67406
564.1850, 36.35271
564.6671, 35.65916
565.1492, 35.06734
565.6313, 34.84350
566.1135, 35.01974
566.5956, 35.22486
567.0777, 35.53196
567.5598, 35.60298
568.0419, 34.83605
568.5240, 33.43734
569.0062, 32.45515
569.4883, 32.16728
569.9704, 32.21700
570.4525, 32.34744
570.9346, 32.47377
571.4167, 32.37497
571.8989, 31.61728
572.3810, 30.87425
572.8631, 30.65582
573.3452, 30.90472
573.8273, 31.17565
574.3094, 31.27145
574.7916, 31.36844
575.2737, 31.58924
575.7558, 32.03175
576.2379, 32.31385
576.7200, 32.39590
577.2021, 32.33997
577.6843, 32.18286
578.1664, 31.88516
578.6485, 31.60170
579.1306, 31.33517
579.6127, 31.10134
580.0948, 30.96702
580.5770, 30.93326
581.0591, 30.79922
581.5412, 30.45429
582.0233, 29.97564
582.5054, 29.39350
582.9875, 28.76178
583.4697, 28.44205
583.9518, 28.86393
584.4339, 29.63615
584.9160, 30.47334
585.3981, 31.39292
585.8802, 31.88315
586.3624, 31.22269
586.8445, 30.24833
587.3266, 29.73663
587.8087, 30.63390
588.2908, 30.99002
588.7729, 29.96398
589.2551, 28.42972
589.7372, 27.94777
590.2193, 29.24926
590.7014, 30.15707
591.1835, 30.07410
591.6656, 29.17562
592.1478, 28.18857
592.6299, 27.04647
593.1120, 26.36541
593.5941, 26.84787
594.0762, 28.12526
594.5583, 28.77004
595.0405, 28.71260
595.5226, 28.57239
596.0047, 29.10009
596.4868, 29.82120
596.9689, 30.03952
597.4510, 29.52014
597.9332, 28.68718
598.4153, 27.36057
598.8974, 25.98998
599.3795, 25.20334
599.8616, 25.64969
600.3438, 26.16399
600.8259, 26.48023
601.3080, 26.64364
601.7901, 26.85179
602.2722, 27.23492
602.7543, 27.43667
603.2365, 27.27038
603.7186, 26.74556
604.2007, 26.33321
604.6828, 26.04043
605.1649, 25.83998
605.6470, 25.70267
606.1292, 25.63836
606.6113, 25.74949
607.0934, 26.08853
607.5755, 26.34274
608.0576, 26.11736
608.5398, 25.59822
609.0219, 25.08585
609.5040, 24.51593
609.9861, 24.19306
610.4683, 24.49335
610.9504, 25.15011
611.4325, 25.59306
611.9146, 25.38960
612.3967, 25.24505
612.8788, 25.51111
613.3610, 26.12262
613.8431, 26.23458
614.3252, 25.52935
614.8073, 24.86036
615.2894, 24.73255
615.7715, 25.19356
616.2537, 25.23102
616.7358, 24.75672
617.2179, 24.27698
617.7000, 24.51356
618.1821, 25.19975
618.6642, 25.28422
619.1464, 24.43080
619.6285, 23.53044
620.1106, 23.61294
620.5927, 24.25187
621.0748, 24.71173
621.5569, 24.43688
622.0391, 24.20486
622.5212, 24.39638
623.0033, 24.90643
623.4854, 25.41065
623.9675, 26.04349
624.4496, 26.45612
624.9318, 26.51596
625.4139, 26.22931
625.8960, 25.85606
626.3781, 25.28817
626.8602, 24.89157
627.3423, 24.96210
627.8245, 25.48483
628.3066, 25.98251
628.7887, 26.46487
629.2708, 26.78189
629.7529, 26.73382
630.2350, 26.40465
630.7172, 25.93744
631.1993, 25.27396
631.6814, 24.72857
632.1635, 24.58493
632.6456, 24.72455
633.1277, 24.95509
633.6099, 25.63486
634.0920, 25.94103
634.5741, 25.19809
635.0562, 23.80073
635.5383, 23.27416
636.0204, 24.39607
636.5026, 25.31418
636.9847, 25.38909
637.4668, 24.68522
637.9489, 24.21277
638.4310, 23.96823
638.9131, 23.95313
639.3953, 24.31208
639.8774, 24.93118
640.3595, 25.24853
640.8416, 25.22727
641.3237, 25.12203
641.8058, 25.12313
642.2880, 25.20586
642.7701, 25.36279
643.2522, 25.65661
643.7343, 25.84919
644.2164, 25.77323
644.6985, 25.54061
645.1807, 25.30118
645.6628, 24.99139
646.1449, 24.79723
646.6270, 24.80788
647.1091, 24.93355
647.5912, 24.95107
648.0734, 24.84756
648.5555, 24.66320
649.0376, 24.35703
649.5197, 23.98710
650.0018, 23.84992
650.4839, 23.94143
650.9661, 24.04149
651.4482, 23.84988
651.9303, 23.62927
652.4124, 23.97018
652.8945, 24.88144
653.3766, 25.67103
653.8588, 25.96511
654.3409, 25.88809
654.8230, 25.46897
655.3051, 24.52685
655.7872, 23.79009
656.2693, 23.43967
656.7515, 23.35988
657.2336, 23.44668
657.7158, 23.78144
658.1979, 24.13382
658.6800, 24.58011
659.1621, 24.93137
659.6442, 24.70063
660.1263, 23.87856
660.6085, 23.39420
661.0906, 23.69844
661.5727, 24.29892
662.0548, 24.24732
662.5369, 23.70614
663.0190, 23.29527
663.5012, 23.51034
663.9833, 23.85672
664.4654, 24.00011
664.9475, 23.93482
665.4296, 23.72587
665.9117, 22.99191
666.3939, 22.46366
666.8760, 22.67547
667.3581, 23.82056
667.8402, 24.31902
668.3223, 23.80746
668.8044, 23.23057
669.2866, 23.44862
669.7687, 24.51891
670.2508, 24.81726
670.7329, 24.10110
671.2150, 23.30880
671.6971, 23.74237
672.1793, 24.92814
672.6614, 25.59182
673.1435, 25.30400
673.6256, 24.79843
674.1077, 24.51716
674.5898, 24.43802
675.0720, 24.52835
675.5541, 25.03206
676.0362, 25.41902
676.5183, 25.53201
677.0004, 25.41985
677.4825, 25.19872
677.9647, 24.72210
678.4468, 24.44068
678.9289, 24.57502
679.4110, 24.99389
679.8931, 24.96494
680.3752, 24.45172
680.8574, 24.10389
681.3395, 24.49389
681.8216, 25.25626
682.3037, 25.69080
682.7858, 25.79020
683.2679, 25.54367
683.7501, 24.39241
684.2322, 23.25905
684.7143, 22.93909
685.1964, 23.62701
685.6785, 24.53913
686.1606, 26.04588
686.6428, 27.29111
687.1249, 27.63345
687.6070, 26.50410
688.0891, 25.77737
688.5712, 25.56012
689.0533, 25.57604
689.5355, 25.51658
690.0176, 25.38447
690.4997, 25.23127
690.9818, 25.03948
691.4639, 24.90770
691.9460, 24.99872
692.4282, 25.25305
692.9103, 25.54802
693.3924, 25.98403
693.8745, 26.27411
694.3566, 26.02188
694.8387, 25.50061
695.3209, 25.35297
695.8030, 26.18545
696.2851, 26.89091
696.7672, 27.22493
697.2493, 27.23186
697.7314, 27.07380
698.2136, 26.65953
698.6957, 26.38077
699.1778, 26.42205
699.6599, 26.73787
700.1420, 27.24140
700.6241, 27.91520
701.1063, 28.36987
701.5884, 28.22799
702.0705, 27.76844
702.5526, 27.21886
703.0347, 26.60178
703.5168, 26.24647
703.9990, 26.55313
704.4811, 27.01612
704.9632, 27.25104
705.4453, 27.03524
705.9274, 27.17085
706.4095, 28.06229
706.8917, 28.85279
707.3738, 28.57022
707.8560, 27.01136
708.3381, 26.45733
708.8202, 27.26037
709.3023, 28.44780
709.7844, 28.73223
710.2665, 28.40486
710.7487, 28.32180
711.2308, 28.79065
711.7129, 29.31202
712.1950, 29.67351
712.6771, 29.78587
713.1592, 29.51275
713.6414, 28.01630
714.1235, 27.05457
714.6056, 27.23275
715.0877, 28.17257
715.5698, 29.28358
716.0519, 30.89514
716.5341, 31.75297
717.0162, 31.32228
717.4983, 30.09829
717.9804, 29.39705
718.4625, 29.20473
718.9446, 29.41286
719.4268, 30.32654
719.9089, 31.36527
720.3910, 31.64687
720.8731, 31.33883
721.3552, 31.16481
721.8373, 31.67658
722.3195, 32.25133
722.8016, 32.56117
723.2837, 32.58118
723.7658, 32.55000
724.2479, 32.37386
724.7300, 32.29249
725.2122, 32.40731
725.6943, 32.71888
726.1764, 33.22114
726.6585, 33.94555
727.1406, 34.70219
727.6227, 35.38580
728.1049, 35.99310
728.5870, 36.50751
729.0691, 36.92849
729.5512, 37.23280
730.0333, 37.23713
730.5154, 37.21496
730.9976, 37.42332
731.4797, 37.94746
731.9618, 38.56799
732.4439, 39.13918
732.9260, 39.87059
733.4081, 41.06357
733.8903, 43.09346
734.3724, 44.15082
734.8545, 43.83596
735.3366, 43.26497
735.8187, 44.10649
736.3008, 46.00821
736.7830, 47.25432
737.2651, 47.31820
737.7472, 47.21865
738.2293, 47.91693
738.7114, 49.12127
739.1935, 50.40667
739.6757, 51.94814
740.1578, 53.15449
740.6399, 53.40873
741.1220, 53.35227
741.6041, 54.12055
742.0862, 56.11391
742.5684, 58.07685
743.0505, 59.88163
743.5326, 61.48644
744.0147, 62.78832
744.4968, 63.78429
744.9789, 64.52985
745.4611, 64.76230
745.9432, 65.10441
746.4253, 66.59657
746.9074, 68.86635
747.3895, 70.93728
747.8716, 71.91463
748.3538, 73.06944
748.8359, 75.13771
749.3180, 77.93740
749.8001, 80.42875
750.2822, 82.49467
750.7643, 84.35072
751.2465, 85.78307
751.7286, 87.07944
752.2107, 89.84229
752.6928, 94.11336
753.1749, 98.21609
753.6570, 100.9232
754.1392, 102.9643
754.6213, 105.3827
755.1034, 108.2037
755.5855, 111.4153
756.0676, 115.6071
756.5498, 119.7081
757.0319, 123.0188
757.5140, 125.4585
757.9962, 128.1571
758.4783, 131.3495
758.9604, 134.5456
759.4425, 137.5498
759.9246, 140.3421
760.4067, 143.3830
760.8889, 146.7573
761.3710, 149.4379
761.8531, 150.4219
762.3352, 150.2623
762.8173, 150.0740
763.2994, 149.9007
763.7816, 149.0857
764.2637, 147.0030
764.7458, 144.2798
765.2279, 141.4601
765.7100, 138.6784
766.1921, 135.1613
766.6743, 130.6174
767.1564, 125.6842
767.6385, 120.6292
768.1206, 115.3313
768.6027, 110.7630
769.0848, 107.0076
769.5670, 103.4205
770.0491, 99.30862
770.5312, 94.91333
771.0133, 90.59891
771.4954, 86.37459
771.9775, 82.66172
772.4597, 80.02357
772.9418, 77.83340
773.4239, 75.50970
773.9060, 72.78812
774.3881, 70.42826
774.8702, 68.58775
775.3524, 66.96030
775.8345, 65.30222
776.3166, 63.60721
776.7987, 61.93612
777.2808, 60.28777
777.7629, 58.76678
778.2451, 57.56442
778.7272, 56.56257
779.2093, 55.57164
779.6914, 54.61357
780.1735, 53.43689
780.6556, 51.37861
781.1378, 49.31594
781.6199, 48.12608
782.1020, 48.62503
782.5841, 48.92601
783.0662, 49.05645
783.5483, 48.95503
784.0305, 48.43160
784.5126, 47.45770
784.9947, 46.85099
785.4768, 46.75106
785.9589, 46.83160
786.4410, 46.84040
786.9232, 46.73236
787.4053, 46.36249
787.8874, 45.52529
788.3695, 44.89562
788.8516, 45.00803
789.3337, 45.39571
789.8159, 45.52276
790.2980, 45.16201
790.7801, 44.85744
791.2622, 44.59301
791.7443, 44.43037
792.2264, 44.54272
792.7086, 44.90497
793.1907, 45.02919
793.6728, 44.79906
794.1549, 44.46593
794.6370, 44.03840
795.1191, 43.77523
795.6013, 44.20859
796.0834, 46.14096
796.5655, 47.44745
797.0476, 46.72399
797.5297, 45.27367
798.0118, 44.73234
798.4940, 45.62026
798.9761, 46.20740
799.4582, 46.24387
799.9403, 46.18096
800.4224, 46.80799
800.9045, 47.96283
801.3867, 48.60351
801.8688, 48.38580
802.3509, 48.11094
802.8330, 48.59597
803.3151, 49.50774
803.7972, 50.38372
804.2794, 51.12204
804.7615, 51.79072
805.2436, 52.47710
805.7258, 53.06199
806.2079, 53.26279
806.6900, 52.73119
807.1721, 53.32384
807.6542, 55.45977
808.1364, 58.10165
808.6185, 59.92723
809.1006, 61.12105
809.5827, 62.17798
810.0648, 63.13840
810.5469, 64.22392
811.0291, 65.70576
811.5112, 67.35382
811.9933, 68.91357
812.4754, 70.12312
812.9575, 71.57749
813.4396, 73.35830
813.9218, 75.33815
814.4039, 77.29023
814.8860, 79.20382
815.3681, 81.63712
815.8502, 84.77457
816.3323, 87.95164
816.8145, 90.19987
817.2966, 91.97959
817.7787, 94.09617
818.2608, 96.67928
818.7429, 99.81646
819.2250, 103.9792
819.7072, 108.4714
820.1893, 112.5888
820.6714, 115.9574
821.1535, 119.5793
821.6356, 123.4040
822.1177, 127.5915
822.5999, 132.4807
823.0820, 137.9363
823.5641, 142.9072
824.0462, 147.2171
824.5283, 151.7307
825.0104, 157.1890
825.4926, 163.2897
825.9747, 169.7216
826.4568, 176.6198
826.9389, 183.1603
827.4210, 188.8654
827.9031, 194.4187
828.3853, 200.4634
828.8674, 207.2322
829.3495, 213.2838
829.8316, 218.6850
830.3137, 222.8347
830.7958, 224.7804
831.2780, 225.0338
831.7601, 224.5174
832.2422, 223.3166
832.7243, 221.7725
833.2064, 220.5728
833.6885, 218.7930
834.1707, 215.6749
834.6528, 210.8870
835.1349, 205.5272
835.6170, 199.1833
836.0991, 192.9895
836.5812, 188.1148
837.0634, 184.3915
837.5455, 179.0313
838.0276, 171.9301
838.5097, 164.8037
838.9918, 159.0630
839.4739, 153.8212
839.9561, 148.0852
840.4382, 141.7477
840.9203, 135.5976
841.4024, 129.4379
841.8845, 124.0143
842.3666, 119.9256
842.8488, 117.1262
843.3309, 112.8780
843.8130, 106.8784
844.2951, 101.1333
844.7772, 97.14463
845.2593, 94.13460
845.7415, 90.22421
846.2236, 85.60358
846.7057, 81.37846
847.1878, 78.31248
847.6699, 75.67845
848.1520, 73.01112
848.6342, 70.37160
849.1163, 68.36875
849.5984, 67.51594
850.0805, 66.28447
850.5626, 64.00992
851.0447, 61.10794
851.5269, 58.98333
852.0090, 57.57061
852.4911, 56.32937
852.9732, 55.00430
853.4553, 53.74562
853.9374, 52.72549
854.4196, 51.87012
854.9017, 50.99418
855.3839, 50.11872
855.8660, 49.11770
856.3481, 47.77186
856.8302, 46.38617
857.3123, 45.77839
857.7944, 46.02885
858.2766, 45.89603
858.7587, 44.97792
859.2408, 43.72782
859.7229, 42.73149
860.2050, 41.91385
860.6871, 41.13234
861.1693, 40.21681
861.6514, 39.52491
862.1335, 39.40917
862.6156, 39.50407
863.0977, 39.32777
863.5798, 38.82447
864.0620, 38.15725
864.5441, 37.24022
865.0262, 36.38320
865.5083, 35.96829
865.9904, 35.92073
866.4725, 36.07840
866.9547, 36.47752
867.4368, 36.70542
867.9189, 36.33516
868.4010, 35.73751
868.8831, 35.21709
869.3652, 34.69720
869.8474, 34.63477
870.3295, 35.28444
870.8116, 35.98010
871.2937, 36.18913
871.7758, 35.94774
872.2579, 35.62717
872.7401, 35.23497
873.2222, 34.88911
873.7043, 34.75585
874.1864, 34.66576
874.6685, 34.35931
875.1506, 33.81249
875.6328, 33.58962
876.1149, 34.34267
876.5970, 34.87897
877.0791, 34.62066
877.5612, 33.68547
878.0433, 33.34211
878.5255, 33.61166
879.0076, 33.92561
879.4897, 33.79450
879.9718, 33.61653
880.4539, 34.25697
880.9360, 35.39207
881.4182, 35.90274
881.9003, 34.40322
882.3824, 33.22430
882.8645, 33.53108
883.3466, 34.68589
883.8287, 34.99884
884.3109, 34.28022
884.7930, 33.80701
885.2751, 33.98211
885.7572, 34.43947
886.2393, 34.67572
886.7214, 34.70191
887.2036, 34.52181
887.6857, 33.94612
888.1678, 33.48656
888.6499, 33.37691
889.1320, 33.51424
889.6141, 33.77414
890.0963, 34.23635
890.5784, 34.56812
891.0605, 34.71298
891.5426, 34.81799
892.0247, 35.08862
892.5068, 35.46292
892.9890, 35.77988
893.4711, 36.02179
893.9532, 36.12952
894.4353, 35.97802
894.9174, 35.73187
895.3995, 35.53145
895.8817, 35.42212
896.3638, 35.15272
896.8459, 34.50408
897.3280, 34.15922
897.8101, 34.85999
898.2922, 36.30443
898.7744, 36.65061
899.2565, 35.98895
899.7386, 35.30185
900.2207, 35.18288
900.7028, 35.30415
901.1849, 35.58741
901.6671, 35.95272
902.1492, 35.87876
902.6313, 34.68129
903.1134, 34.19307
903.5955, 35.17029
904.0776, 36.97511
904.5598, 37.82716
905.0419, 37.81551
905.5240, 37.66011
906.0062, 37.50156
906.4883, 37.51144
906.9704, 37.90586
907.4525, 38.55434
907.9346, 39.25317
908.4167, 40.37197
908.8989, 40.88843
909.3810, 40.46064
909.8631, 39.74168
910.3452, 39.37777
910.8273, 39.39329
911.3094, 40.37983
911.7916, 42.53053
912.2737, 44.63163
912.7558, 45.53213
913.2379, 45.79319
913.7200, 45.84296
914.2021, 45.58624
914.6843, 46.07829
915.1664, 48.07380
915.6485, 50.08169
916.1306, 51.22953
916.6127, 51.58830
917.0948, 52.37426
917.5770, 53.59108
918.0591, 54.99590
918.5412, 56.49383
919.0233, 58.06975
919.5054, 59.62774
919.9875, 61.22226
920.4697, 63.13421
920.9518, 65.82615
921.4339, 68.36646
921.9160, 70.48000
922.3981, 72.37107
922.8802, 74.51625
923.3624, 76.89814
923.8445, 79.55820
924.3266, 82.56585
924.8087, 85.72502
925.2908, 88.86916
925.7729, 92.03948
926.2551, 95.34859
926.7372, 98.88744
927.2193, 102.4661
927.7014, 106.0943
928.1835, 109.7697
928.6656, 113.4071
929.1478, 116.9928
929.6299, 120.9780
930.1120, 125.3716
930.5941, 129.8284
931.0762, 134.1302
931.5583, 138.2691
932.0405, 142.2998
932.5226, 146.1612
933.0047, 149.9966
933.4868, 154.3124
933.9689, 157.9833
934.4510, 160.6821
934.9332, 162.3886
935.4153, 162.6009
935.8974, 161.3799
936.3795, 160.0802
936.8616, 159.5491
937.3438, 158.9617
937.8259, 157.5222
938.3080, 155.3929
938.7901, 152.9335
939.2722, 150.2412
939.7543, 147.1469
940.2365, 143.7342
940.7186, 139.8737
941.2007, 135.3085
941.6828, 130.1035
942.1649, 125.0220
942.6470, 120.1271
943.1292, 115.3281
943.6113, 110.4466
944.0934, 105.6859
944.5755, 101.1322
945.0576, 96.83723
945.5397, 92.72765
946.0219, 88.78384
946.5040, 85.03383
946.9861, 81.62305
947.4682, 78.40206
947.9503, 74.50835
948.4324, 70.05626
948.9146, 66.16580
949.3967, 63.87823
949.8788, 62.03796
950.3609, 59.61465
950.8430, 58.01984
951.3251, 56.66742
951.8073, 54.87452
952.2894, 54.29701
952.7715, 53.06035
953.2536, 51.51878
953.7357, 50.15127
954.2179, 48.97304
954.7000, 48.13404
955.1821, 47.77398
955.6642, 47.24671
956.1464, 45.78697
956.6285, 44.15919
957.1106, 43.05296
957.5927, 42.59851
958.0748, 42.36859
958.5569, 42.54203
959.0391, 42.45061
959.5212, 41.42390
960.0033, 39.83234
960.4854, 38.74833
960.9675, 38.12362
961.4496, 37.69777
961.9318, 37.34138
962.4139, 37.12765
962.8960, 37.28540
963.3781, 37.59642
963.8602, 37.48650
964.3423, 36.91404
964.8245, 36.00581
965.3066, 34.60166
965.7887, 33.34681
966.2708, 33.58320
966.7529, 34.53784
967.2350, 34.62864
967.7172, 33.21667
968.1993, 31.95772
968.6814, 31.55610
969.1635, 31.46241
969.6456, 31.25905
970.1277, 30.91218
970.6099, 31.04641
971.0920, 31.71260
971.5741, 32.17091
972.0562, 31.61106
972.5383, 30.74276
973.0204, 30.50760
973.5026, 30.78291
973.9847, 30.98689
974.4668, 30.98683
974.9489, 30.81663
975.4310, 30.47494
975.9131, 29.98187
976.3953, 29.19974
976.8774, 28.17663
977.3595, 27.89116
977.8416, 28.76694
978.3237, 29.52838
978.8058, 28.57343
979.2880, 27.11353
979.7701, 26.56083
980.2522, 27.58559
980.7343, 27.97106
981.2164, 27.43076
981.6985, 26.65173
982.1807, 25.87521
982.6628, 25.20787
983.1449, 25.36240
983.6270, 26.18737
984.1091, 26.73681
984.5912, 26.09913
985.0734, 25.41282
985.5555, 25.38980
986.0376, 25.79419
986.5197, 25.96974
987.0018, 25.91480
987.4839, 25.57980
987.9661, 24.87562
988.4482, 24.12201
988.9303, 23.74982
989.4124, 23.65027
989.8945, 23.66814
990.3766, 23.80760
990.8588, 23.84308
991.3409, 23.74933
991.8230, 23.43957
992.3051, 22.69653
992.7872, 21.57435
993.2693, 21.44696
993.7515, 22.35224
994.2336, 23.14733
994.7157, 23.07540
995.1978, 22.68065
995.6799, 22.51754
996.1620, 22.53130
996.6442, 22.59607
997.1263, 22.83317
997.6084, 22.87250
998.0905, 22.55754
998.5726, 22.19411
999.0547, 22.28518
999.5369, 22.72136
1000.019, 22.76642
1000.501, 22.31872
1000.983, 21.80132
1001.465, 21.25470
1001.947, 20.96771
1002.430, 21.41352
1002.912, 22.60670
1003.394, 22.88281
1003.876, 21.89660
1004.358, 21.13956
1004.840, 21.29886
1005.322, 21.88289
1005.804, 22.01907
1006.287, 21.79100
1006.769, 21.38553
1007.251, 20.56063
1007.733, 20.05193
1008.215, 20.25968
1008.697, 20.76058
1009.179, 21.27186
1009.661, 21.82174
1010.143, 21.95057
1010.626, 21.62043
1011.108, 21.21993
1011.590, 20.91599
1012.072, 20.80424
1012.554, 21.04207
1013.036, 21.59632
1013.518, 22.18133
1014.000, 22.84321
1014.483, 23.39615
1014.965, 23.87810
1015.447, 24.11998
1015.929, 23.64374
1016.411, 22.61798
1016.893, 21.57154
1017.375, 20.48415
1017.857, 19.92471
1018.339, 20.81048
1018.822, 21.97449
1019.304, 22.33468
1019.786, 21.74212
1020.268, 21.50539
1020.750, 21.69143
1021.232, 21.80399
1021.714, 21.40750
1022.196, 20.81770
1022.679, 20.54907
1023.161, 20.50368
1023.643, 20.40440
1024.125, 19.88584
1024.607, 19.69042
1025.089, 20.02484
1025.571, 20.61599
1026.053, 21.18557
1026.535, 21.69506
1027.018, 21.81639
1027.500, 21.48583
1027.982, 21.22009
1028.464, 21.54398
1028.946, 21.99149
1029.428, 22.23704
1029.910, 22.25131
1030.392, 22.05289
1030.875, 21.56294
1031.357, 21.13086
1031.839, 20.85205
1032.321, 20.73585
1032.803, 20.91997
1033.285, 21.26137
1033.767, 21.44415
1034.249, 21.26018
1034.731, 21.13546
1035.214, 21.26578
1035.696, 21.40012
1036.178, 21.31335
1036.660, 21.01008
1037.142, 20.90110
1037.624, 20.98387
1038.106, 21.10126
1038.588, 21.29963
1039.071, 21.35505
1039.553, 20.96132
1040.035, 20.27743
1040.517, 19.83549
1040.999, 19.65441
1041.481, 19.75422
1041.963, 20.22680
1042.445, 20.73345
1042.927, 20.65214
1043.410, 20.33600
1043.892, 20.50732
1044.374, 21.30931
1044.856, 22.19262
1045.338, 23.43483
1045.820, 24.14830
1046.302, 23.67645
1046.784, 22.37327
1047.266, 22.25316
1047.749, 23.20267
1048.231, 23.90809
1048.713, 23.80117
1049.195, 23.33619
1049.677, 22.62268
1050.159, 21.87380
1050.641, 21.40211
1051.123, 21.35095
1051.606, 21.18860
1052.088, 20.85785
1052.570, 20.62512
1053.052, 20.84447
1053.534, 21.23432
1054.016, 21.14631
1054.498, 20.70227
1054.980, 20.52496
1055.463, 21.26526
1055.945, 21.76824
1056.427, 21.67779
1056.909, 21.30859
1057.391, 21.06786
1057.873, 20.98247
1058.355, 21.41536
1058.837, 22.48483
1059.319, 23.36170
1059.802, 22.93238
1060.284, 22.42658
1060.766, 23.12487
1061.248, 24.92177
1061.730, 25.28339
1062.212, 23.93970
1062.694, 22.48235
1063.176, 21.26258
1063.658, 20.64183
1064.141, 21.75413
1064.623, 23.64617
1065.105, 24.63425
1065.587, 23.61050
1066.069, 23.15813
1066.551, 23.70677
1067.033, 24.58050
1067.515, 25.52689
1067.998, 26.41848
1068.480, 26.34194
1068.962, 25.45718
1069.444, 24.65468
1069.926, 24.39215
1070.408, 24.36546
1070.890, 24.44253
1071.372, 24.67687
1071.854, 25.21916
1072.337, 26.11270
1072.819, 26.71763
1073.301, 26.89708
1073.783, 27.43221
1074.265, 29.86166
1074.747, 32.42057
1075.229, 33.03496
1075.711, 31.73721
1076.193, 31.17008
1076.676, 31.75280
1077.158, 32.46791
1077.640, 33.08430
1078.122, 33.62768
1078.604, 33.85836
1079.086, 34.11265
1079.568, 35.14321
1080.051, 37.24328
1080.533, 39.61444
1081.015, 42.26417
1081.497, 44.82284
1081.979, 46.95983
1082.461, 48.80308
1082.943, 51.22706
1083.425, 54.24422
1083.907, 57.80516
1084.390, 62.05056
1084.872, 66.61103
1085.354, 71.45251
1085.836, 76.34737
1086.318, 81.07872
1086.800, 85.45744
1087.282, 90.32026
1087.764, 95.68349
1088.246, 101.5035
1088.729, 107.6501
1089.211, 114.2977
1089.693, 121.9245
1090.175, 130.3344
1090.657, 138.7128
1091.139, 146.0821
1091.621, 155.0813
1092.103, 166.4035
1092.586, 178.7377
1093.068, 191.1639
1093.550, 203.0113
1094.032, 213.5327
1094.514, 222.6259
1094.996, 228.2005
1095.478, 228.7719
1095.960, 225.9516
1096.443, 220.5797
1096.925, 212.3986
1097.407, 199.4851
1097.889, 182.3880
1098.371, 165.5222
1098.853, 149.8828
1099.335, 135.0008
1099.817, 119.6984
1100.299, 105.6413
1100.781, 94.38076
1101.264, 85.80533
1101.746, 78.53426
1102.228, 72.56688
1102.710, 67.45644
1103.192, 63.32109
1103.674, 59.56784
1104.156, 55.31324
1104.638, 51.11718
1105.121, 47.89476
1105.603, 46.48323
1106.085, 44.70683
1106.567, 42.38453
1107.049, 40.20143
1107.531, 38.78791
1108.013, 37.84426
1108.495, 36.71107
1108.978, 35.44563
1109.460, 34.31400
1109.942, 33.65803
1110.424, 32.77874
1110.906, 31.45970
1111.388, 29.99189
1111.870, 28.55277
1112.352, 27.27363
1112.834, 26.99822
1113.317, 27.74856
1113.799, 28.10099
1114.281, 26.58497
1114.763, 25.15916
1115.245, 25.01417
1115.727, 25.57264
1116.209, 25.23611
1116.691, 24.04398
1117.173, 23.49292
1117.656, 24.02578
1118.138, 24.54580
1118.620, 23.97560
1119.102, 23.08604
1119.584, 22.58543
1120.066, 22.48704
1120.548, 22.10617
1121.030, 21.40125
1121.513, 20.66305
1121.995, 19.87004
1122.477, 19.35139
1122.959, 19.88473
1123.441, 20.77477
1123.923, 21.02163
1124.405, 20.20134
1124.887, 19.28342
1125.370, 18.06124
1125.852, 17.37533
1126.334, 18.08573
1126.816, 19.40588
1127.298, 19.70024
1127.780, 19.26338
1128.262, 18.79117
1128.744, 18.42128
1129.226, 18.20152
1129.709, 18.20022
1130.191, 18.22957
1130.673, 18.04388
1131.155, 17.75384
1131.637, 17.99609
1132.119, 18.63063
1132.601, 18.79972
1133.083, 17.04947
1133.566, 16.06476
1134.048, 17.41942
1134.530, 19.38674
1135.012, 19.38633
1135.494, 17.66386
1135.976, 17.04740
1136.458, 17.76902
1136.940, 18.44207
1137.422, 17.83148
1137.905, 17.15869
1138.387, 17.44169
1138.869, 16.82619
1139.351, 16.32070
1139.833, 16.36233
1140.315, 15.42615
1140.797, 15.32414
1141.279, 15.65672
1141.761, 16.57851
1142.244, 17.37817
1142.726, 17.27360
1143.208, 16.30741
1143.690, 15.73321
1144.172, 15.60431
1144.654, 15.59073
1145.136, 15.61585
1145.618, 15.66257
1146.101, 15.66023
1146.583, 15.69365
1147.065, 15.96283
1147.547, 16.62503
1148.029, 16.59978
1148.511, 15.57930
1148.993, 14.88060
1149.475, 15.28098
1149.958, 16.03566
1150.440, 15.77425
1150.922, 15.00713
1151.404, 14.67906
1151.886, 15.24356
1152.368, 15.76704
1152.850, 16.30346
1153.332, 16.52033
1153.814, 15.99845
1154.297, 15.12361
1154.779, 14.95840
1155.261, 15.26681
1155.743, 15.39493
1156.225, 14.73455
1156.707, 14.43925
1157.189, 14.77372
1157.671, 15.27889
1158.153, 15.66129
1158.636, 15.88580
1159.118, 15.70262
1159.600, 15.19094
1160.082, 14.75029
1160.564, 14.35893
1161.046, 14.38629
1161.528, 15.33588
1162.010, 16.30335
1162.493, 15.97108
1162.975, 14.61920
1163.457, 14.22303
1163.939, 14.82439
1164.421, 15.56216
1164.903, 16.20691
1165.385, 16.55510
1165.867, 16.40155
1166.349, 15.97375
1166.832, 15.59703
1167.314, 15.26640
1167.796, 14.95643
1168.278, 14.66258
1168.760, 14.39526
1169.242, 14.06729
1169.724, 13.86161
1170.206, 13.85865
1170.688, 14.07055
1171.171, 14.67581
1171.653, 15.66745
1172.135, 16.39269
1172.617, 16.74029
1173.099, 16.69292
1173.581, 15.78352
1174.063, 14.85361
1174.545, 14.71698
1175.028, 15.16265
1175.510, 15.18050
1175.992, 14.75590
1176.474, 14.21105
1176.956, 13.57540
1177.438, 13.04785
1177.920, 12.67856
1178.402, 12.60101
1178.885, 13.06512
1179.367, 14.03736
1179.849, 14.92837
1180.331, 15.78683
1180.813, 16.05367
1181.295, 15.37240
1181.777, 14.45473
1182.259, 13.67838
1182.741, 13.29992
1183.224, 13.82501
1183.706, 15.40508
1184.188, 16.29783
1184.670, 16.47218
1185.152, 16.18064
1185.634, 15.31283
1186.116, 14.42960
1186.598, 14.06721
1187.081, 14.14113
1187.563, 14.69962
1188.045, 16.05164
1188.527, 16.27296
1189.009, 15.13159
1189.491, 14.25547
1189.973, 14.83233
1190.455, 15.77978
1190.938, 15.65585
1191.420, 15.01433
1191.902, 14.80754
1192.384, 15.55747
1192.866, 15.50614
1193.348, 14.44626
1193.830, 13.58824
1194.312, 13.94274
1194.794, 14.75589
1195.276, 15.15625
1195.759, 15.25155
1196.241, 15.23324
1196.723, 14.95859
1197.205, 15.04924
1197.687, 15.60920
1198.169, 16.10626
1198.651, 16.08040
1199.133, 15.78005
1199.616, 15.49280
1200.098, 15.20368
1200.580, 14.83484
1201.062, 14.08517
1201.544, 14.07258
1202.026, 15.04063
1202.508, 15.93178
1202.990, 15.65435
1203.473, 14.87356
1203.955, 14.24831
1204.437, 13.87245
1204.919, 14.00598
1205.401, 15.07603
1205.883, 15.64796
1206.365, 15.57022
1206.847, 15.17710
1207.329, 14.47257
1207.812, 13.86499
1208.294, 14.07933
1208.776, 14.90021
1209.258, 15.30347
1209.740, 14.97116
1210.222, 14.78191
1210.704, 14.83572
1211.186, 15.02809
1211.668, 15.46060
1212.151, 15.82814
1212.633, 15.63075
1213.115, 14.96310
1213.597, 14.45110
1214.079, 14.03781
1214.561, 14.19868
1215.043, 15.14598
1215.525, 16.04127
1216.008, 15.80818
1216.490, 15.13825
1216.972, 14.88256
1217.454, 15.01810
1217.936, 14.95709
1218.418, 14.58176
1218.900, 14.25024
1219.382, 13.97450
1219.865, 13.95475
1220.347, 14.82114
1220.829, 15.77771
1221.311, 15.84394
1221.793, 15.03659
1222.275, 14.25051
1222.757, 13.42024
1223.239, 13.09571
1223.721, 13.45428
1224.203, 14.00264
1224.686, 14.26169
1225.168, 14.38636
1225.650, 14.53675
1226.132, 14.71637
1226.614, 14.91561
1227.096, 15.24898
1227.578, 14.81326
1228.061, 13.21785
1228.543, 11.77547
1229.025, 12.14978
1229.507, 13.15614
1229.989, 13.79291
1230.471, 13.97209
1230.953, 13.71675
1231.435, 12.93298
1231.917, 12.56706
1232.400, 12.88854
1232.882, 13.41145
1233.364, 13.84220
1233.846, 14.12521
1234.328, 14.10457
1234.810, 14.35139
1235.292, 13.95939
1235.774, 14.41696
1236.256, 14.64359
1236.739, 14.48373
1237.221, 14.12979
1237.703, 13.22975
1238.185, 12.64494
1238.667, 13.56317
1239.149, 15.44405
1239.631, 15.67877
1240.113, 14.34067
1240.596, 13.58588
1241.078, 14.04295
1241.560, 14.58146
1242.042, 14.28137
1242.524, 13.83809
1243.006, 13.68288
1243.488, 13.78374
1243.970, 14.14376
1244.453, 14.69769
1244.935, 14.82968
1245.417, 14.31900
1245.899, 13.83030
1246.381, 13.77088
1246.863, 13.85997
1247.345, 13.96081
1247.827, 14.05799
1248.309, 14.07278
1248.792, 14.03085
1249.274, 14.02956
1249.756, 14.08082
1250.238, 14.24872
1250.720, 14.71325
1251.202, 15.13226
1251.684, 15.38157
1252.166, 15.47366
1252.648, 15.35563
1253.131, 15.11425
1253.613, 15.05186
1254.095, 15.28312
1254.577, 15.32275
1255.059, 14.75022
1255.541, 14.37742
1256.023, 14.57800
1256.505, 15.02872
1256.988, 15.08370
1257.470, 14.86716
1257.952, 14.57699
1258.434, 14.20810
1258.916, 14.16559
1259.398, 14.70853
1259.880, 15.08970
1260.362, 15.03847
1260.844, 14.74495
1261.327, 14.44658
1261.809, 14.15240
1262.291, 13.74561
1262.773, 13.16387
1263.255, 13.43331
1263.737, 14.90695
1264.219, 16.10234
1264.701, 16.54836
1265.183, 16.51710
1265.666, 16.29090
1266.148, 15.82718
1266.630, 14.90798
1267.112, 13.51411
1267.594, 12.74907
1268.076, 12.64943
1268.558, 12.93612
1269.040, 13.64843
1269.523, 14.25641
1270.005, 14.13938
1270.487, 13.76139
1270.969, 13.46932
1271.451, 13.29972
1271.933, 13.52659
1272.415, 14.13783
1272.897, 14.27681
1273.380, 13.62162
1273.862, 13.14439
1274.344, 13.81662
1274.826, 14.65759
1275.308, 15.07890
1275.790, 15.15622
1276.272, 15.07291
1276.754, 14.87126
1277.236, 14.82493
1277.719, 15.02168
1278.201, 15.07345
1278.683, 14.50360
1279.165, 14.07401
1279.647, 14.06899
1280.129, 14.39773
1280.611, 15.07686
1281.093, 15.89699
1281.576, 16.30674
1282.058, 16.21660
1282.540, 15.80340
1283.022, 14.87406
1283.504, 14.00494
1283.986, 13.25079
1284.468, 12.81556
1284.950, 13.30735
1285.432, 14.19226
1285.915, 14.56682
1286.397, 14.34214
1286.879, 14.18907
1287.361, 14.11851
1287.843, 14.36331
1288.325, 15.08422
1288.807, 15.69589
1289.289, 15.19533
1289.771, 14.47342
1290.254, 14.61694
1290.736, 15.51997
1291.218, 15.90086
1291.700, 15.70097
1292.182, 15.58770
1292.664, 15.70131
1293.146, 15.61293
1293.628, 14.55392
1294.111, 13.55599
1294.593, 13.38818
1295.075, 13.79992
1295.557, 14.46936
1296.039, 15.34611
1296.521, 15.91285
1297.003, 16.10691
1297.485, 15.92812
1297.968, 14.63011
1298.450, 13.95824
1298.932, 14.78618
1299.414, 16.13422
1299.896, 16.52590
1300.378, 16.20417
1300.860, 15.75523
1301.342, 15.28178
1301.824, 15.09139
##END=



