##NAMES=Azurite
##RRUFFID=R050638
##IDEAL CHEMISTRY=Cu^2+^_3_(CO_3_)_2_(OH)_2_
##LOCALITY=Zacatecas, Mexico
##OWNER=RRUFF
##SOURCE=University of Arizona Mineral Museum
##DESCRIPTION=Blue bladed crystals
##STATUS=The identification of this mineral has been confirmed by X-ray diffraction and chemical analysis
##URL=rruff.info/R050638
##MEASURED CHEMISTRY=Cu_3.00_(CO_3_)_2_(OH)_2_
92.02539, 179.1732
92.50751, 183.9834
92.98962, 187.5564
93.47174, 185.7116
93.95386, 181.8174
94.43597, 177.6807
94.91809, 174.3434
95.40021, 171.6561
95.88232, 168.3575
96.36444, 163.3581
96.84656, 159.2971
97.32867, 157.8369
97.81078, 157.7609
98.29290, 156.9461
98.77502, 153.3826
99.25713, 146.3252
99.73925, 141.3902
100.2214, 139.3192
100.7035, 138.0761
101.1856, 137.0110
101.6677, 135.9223
102.1498, 134.7283
102.6320, 133.2562
103.1141, 131.0257
103.5962, 129.8412
104.0783, 130.3996
104.5604, 131.6833
105.0425, 132.7929
105.5247, 133.5890
106.0068, 133.6705
106.4889, 131.9276
106.9710, 128.0885
107.4531, 124.5509
107.9352, 122.3720
108.4173, 121.4043
108.8995, 120.8344
109.3816, 120.3377
109.8637, 120.2112
110.3458, 120.9957
110.8279, 123.0227
111.3100, 124.9400
111.7922, 124.9070
112.2743, 122.2848
112.7564, 119.7397
113.2385, 117.8773
113.7206, 116.4947
114.2027, 115.5469
114.6849, 115.0671
115.1670, 114.8618
115.6491, 114.2313
116.1312, 112.2911
116.6133, 110.9653
117.0954, 110.9293
117.5776, 111.6531
118.0597, 112.3421
118.5418, 112.4476
119.0239, 111.9599
119.5060, 111.4352
119.9881, 110.5725
120.4703, 109.9457
120.9524, 109.7937
121.4345, 110.1061
121.9166, 110.7999
122.3987, 111.9867
122.8808, 113.7799
123.3630, 114.4284
123.8451, 112.9867
124.3272, 110.8823
124.8093, 109.3995
125.2914, 108.7252
125.7735, 108.6991
126.2557, 109.4112
126.7378, 110.7108
127.2199, 112.1355
127.7020, 113.8454
128.1841, 115.5995
128.6662, 116.5468
129.1483, 116.2239
129.6305, 115.3941
130.1126, 114.7480
130.5947, 114.2571
131.0768, 113.5923
131.5589, 112.2496
132.0410, 110.0718
132.5232, 108.5137
133.0053, 108.6152
133.4874, 108.8056
133.9695, 108.1250
134.4516, 106.4438
134.9337, 104.5002
135.4159, 103.4819
135.8980, 104.1228
136.3801, 104.3252
136.8622, 103.7055
137.3443, 102.8236
137.8264, 102.1002
138.3086, 101.7026
138.7907, 101.5791
139.2728, 101.6018
139.7549, 102.1032
140.2370, 102.3692
140.7191, 102.5251
141.2013, 102.3878
141.6834, 101.5325
142.1655, 99.61600
142.6476, 97.01335
143.1297, 95.43800
143.6118, 96.10081
144.0939, 96.32192
144.5761, 94.18929
145.0582, 90.31642
145.5403, 87.66418
146.0224, 88.73577
146.5045, 92.16286
146.9866, 93.56084
147.4688, 91.31509
147.9509, 88.18190
148.4330, 86.99889
148.9151, 88.08662
149.3972, 89.10900
149.8793, 87.81582
150.3615, 85.75040
150.8436, 84.98745
151.3257, 87.09305
151.8078, 90.55412
152.2899, 91.80912
152.7720, 89.93167
153.2542, 87.31131
153.7363, 84.22127
154.2184, 81.26235
154.7005, 79.41863
155.1826, 79.60337
155.6647, 81.55999
156.1469, 82.62367
156.6290, 81.80206
157.1111, 80.97241
157.5932, 80.42319
158.0753, 80.24355
158.5574, 80.57442
159.0396, 81.67637
159.5217, 83.75748
160.0038, 84.62694
160.4859, 83.20744
160.9680, 81.72533
161.4501, 81.17384
161.9323, 81.51157
162.4144, 82.04093
162.8965, 82.00289
163.3786, 81.13744
163.8607, 80.92283
164.3428, 81.96015
164.8250, 83.17500
165.3071, 83.78059
165.7892, 83.66026
166.2713, 83.21380
166.7534, 82.83971
167.2355, 82.52650
167.7177, 82.42937
168.1998, 82.66427
168.6819, 83.09074
169.1640, 83.59847
169.6461, 84.21648
170.1282, 84.72031
170.6104, 84.63515
171.0925, 84.03515
171.5746, 83.71856
172.0567, 84.59634
172.5388, 86.06652
173.0209, 86.17400
173.5031, 83.77847
173.9852, 81.01149
174.4673, 79.58422
174.9494, 79.43361
175.4315, 80.02029
175.9136, 81.52878
176.3958, 83.89690
176.8779, 85.03891
177.3600, 83.20658
177.8421, 81.25862
178.3242, 80.85275
178.8063, 82.02536
179.2885, 83.82249
179.7706, 85.35551
180.2527, 86.60162
180.7348, 87.67977
181.2169, 88.80165
181.6990, 89.61913
182.1812, 89.80547
182.6633, 89.36780
183.1454, 88.66495
183.6275, 88.14916
184.1096, 87.72256
184.5917, 87.75187
185.0738, 88.72649
185.5560, 89.74549
186.0381, 90.15453
186.5202, 89.79903
187.0023, 88.99700
187.4844, 88.26347
187.9665, 87.36366
188.4487, 86.97530
188.9308, 88.01694
189.4129, 89.10439
189.8950, 88.59075
190.3771, 85.96521
190.8592, 82.56714
191.3414, 81.08089
191.8235, 82.72573
192.3056, 83.99021
192.7877, 84.61788
193.2698, 84.63548
193.7519, 83.96964
194.2341, 82.52383
194.7162, 80.62963
195.1983, 78.88155
195.6804, 77.20290
196.1625, 75.78933
196.6446, 74.78159
197.1268, 74.07939
197.6089, 73.50906
198.0910, 73.12161
198.5731, 72.66309
199.0552, 71.69795
199.5373, 70.14912
200.0195, 68.58950
200.5016, 67.08305
200.9837, 65.72606
201.4658, 65.08620
201.9479, 65.67465
202.4300, 66.75365
202.9122, 67.59361
203.3943, 68.20141
203.8764, 68.36086
204.3585, 67.59270
204.8406, 65.90388
205.3227, 64.73455
205.8048, 64.96345
206.2870, 65.45683
206.7691, 65.29575
207.2512, 64.38950
207.7333, 63.48680
208.2154, 63.47682
208.6975, 64.53152
209.1797, 65.45853
209.6618, 66.03466
210.1439, 66.44014
210.6260, 66.81581
211.1081, 67.16501
211.5902, 67.29971
212.0724, 66.77629
212.5545, 65.08962
213.0366, 64.32858
213.5187, 65.45012
214.0008, 66.87679
214.4829, 67.71200
214.9651, 67.75709
215.4472, 67.35286
215.9293, 66.94309
216.4114, 66.41147
216.8935, 66.14156
217.3756, 65.94262
217.8578, 66.06865
218.3399, 66.98367
218.8220, 68.65871
219.3041, 70.37383
219.7862, 70.94467
220.2683, 69.32640
220.7505, 68.58152
221.2326, 69.50388
221.7147, 70.70473
222.1968, 70.85511
222.6789, 69.73219
223.1610, 68.42257
223.6432, 68.58733
224.1253, 71.32222
224.6074, 73.37120
225.0895, 73.92702
225.5716, 74.25352
226.0537, 75.57028
226.5358, 78.15005
227.0180, 81.28317
227.5001, 84.07166
227.9822, 86.53834
228.4643, 88.42793
228.9464, 89.59901
229.4285, 90.23673
229.9107, 90.20220
230.3928, 89.42663
230.8749, 88.84593
231.3570, 89.89007
231.8391, 92.71767
232.3212, 95.27441
232.8034, 97.12228
233.2855, 98.57291
233.7676, 99.98958
234.2497, 101.4327
234.7318, 102.8652
235.2139, 104.2574
235.6961, 105.6121
236.1782, 106.9216
236.6603, 107.7762
237.1424, 108.7044
237.6245, 110.7605
238.1066, 114.3939
238.5888, 118.1147
239.0709, 120.4170
239.5530, 121.6584
240.0351, 122.8245
240.5172, 124.2953
240.9993, 125.8968
241.4815, 127.1911
241.9636, 127.9685
242.4457, 128.9446
242.9278, 131.2339
243.4099, 134.1382
243.8920, 136.1042
244.3742, 136.2727
244.8563, 135.0868
245.3384, 133.5883
245.8205, 131.9486
246.3026, 129.5612
246.7847, 125.8924
247.2668, 121.3717
247.7490, 116.6224
248.2311, 111.9259
248.7132, 107.1978
249.1953, 102.0237
249.6774, 96.03683
250.1595, 90.39436
250.6417, 85.36770
251.1238, 80.97994
251.6059, 77.34232
252.0880, 74.55673
252.5701, 72.48640
253.0522, 70.85262
253.5344, 69.98682
254.0165, 68.92021
254.4986, 66.96373
254.9807, 64.83070
255.4628, 63.34214
255.9449, 62.91029
256.4271, 63.12682
256.9092, 62.96250
257.3913, 61.88015
257.8734, 61.48899
258.3555, 62.40093
258.8376, 63.87223
259.3198, 65.31670
259.8019, 66.50635
260.2840, 67.40424
260.7661, 67.90125
261.2482, 67.80820
261.7303, 67.64306
262.2125, 67.42175
262.6946, 67.19533
263.1767, 66.95199
263.6588, 66.70017
264.1409, 66.55702
264.6230, 66.85163
265.1052, 68.33633
265.5873, 68.70856
266.0694, 66.73148
266.5515, 64.53968
267.0336, 63.85742
267.5157, 64.99682
267.9979, 66.88094
268.4800, 67.88967
268.9621, 67.42946
269.4442, 67.35511
269.9263, 67.72620
270.4084, 68.35441
270.8906, 69.32908
271.3727, 70.54757
271.8548, 71.58353
272.3369, 71.85484
272.8190, 70.99817
273.3011, 70.58141
273.7833, 70.92403
274.2654, 71.34985
274.7475, 71.64519
275.2296, 71.70376
275.7117, 71.33275
276.1938, 70.24677
276.6760, 68.21021
277.1581, 66.94032
277.6402, 66.76587
278.1223, 66.85445
278.6044, 66.98310
279.0865, 67.05742
279.5686, 66.95494
280.0508, 66.56351
280.5329, 65.87827
281.0150, 65.17693
281.4971, 64.95796
281.9792, 64.23172
282.4613, 61.91714
282.9435, 58.74925
283.4256, 56.54266
283.9077, 56.60311
284.3898, 58.58584
284.8719, 59.38014
285.3540, 58.03123
285.8362, 56.77283
286.3183, 56.40358
286.8004, 56.50614
287.2825, 56.25381
287.7646, 55.18914
288.2467, 53.57560
288.7289, 52.32011
289.2110, 51.50786
289.6931, 50.91354
290.1752, 50.59341
290.6573, 50.45539
291.1394, 50.40266
291.6216, 50.40378
292.1037, 50.41216
292.5858, 50.30823
293.0679, 49.87953
293.5500, 49.75360
294.0321, 50.30439
294.5143, 51.05408
294.9964, 51.52090
295.4785, 51.57488
295.9606, 51.25963
296.4427, 50.56993
296.9248, 49.28729
297.4070, 48.30099
297.8891, 47.69436
298.3712, 47.36397
298.8533, 47.20332
299.3354, 47.20165
299.8175, 47.48510
300.2997, 48.32804
300.7818, 49.89159
301.2639, 50.55696
301.7460, 49.38453
302.2281, 48.06472
302.7102, 47.94535
303.1924, 48.94060
303.6745, 49.81742
304.1566, 49.56962
304.6387, 48.25541
305.1208, 47.41882
305.6029, 47.25377
306.0851, 47.31704
306.5672, 47.45070
307.0493, 47.63917
307.5314, 47.84480
308.0135, 48.01354
308.4956, 48.21223
308.9778, 48.74964
309.4599, 50.53186
309.9420, 51.50361
310.4241, 50.43164
310.9062, 48.13586
311.3883, 46.09810
311.8705, 44.86727
312.3526, 44.40012
312.8347, 44.85559
313.3168, 46.93544
313.7989, 48.16442
314.2810, 47.41798
314.7632, 45.76954
315.2453, 44.47443
315.7274, 43.85585
316.2095, 43.96609
316.6916, 45.17845
317.1737, 48.00457
317.6559, 49.57347
318.1380, 48.58506
318.6201, 46.87945
319.1022, 46.25287
319.5843, 46.90174
320.0664, 47.71375
320.5485, 47.57886
321.0306, 46.40020
321.5128, 45.84809
321.9949, 46.56892
322.4770, 47.35004
322.9591, 47.35430
323.4412, 46.66845
323.9233, 45.93512
324.4055, 45.62147
324.8876, 45.61681
325.3697, 45.16022
325.8518, 43.50745
326.3339, 42.27050
326.8160, 42.15903
327.2982, 42.90171
327.7803, 44.06002
328.2624, 45.56740
328.7445, 47.03773
329.2266, 47.32276
329.7087, 45.76165
330.1909, 44.40051
330.6730, 43.43016
331.1551, 42.93206
331.6372, 43.28507
332.1193, 44.61637
332.6014, 46.03631
333.0836, 46.16862
333.5657, 44.33924
334.0478, 43.19989
334.5299, 43.33986
335.0120, 43.87266
335.4941, 44.12621
335.9763, 44.00510
336.4584, 43.71354
336.9405, 43.41933
337.4226, 43.11885
337.9047, 42.88295
338.3868, 42.77875
338.8690, 42.66610
339.3511, 42.50590
339.8332, 42.28041
340.3153, 41.88416
340.7974, 41.17321
341.2795, 40.29253
341.7617, 40.23990
342.2438, 41.83466
342.7259, 43.15999
343.2080, 43.75267
343.6901, 43.82106
344.1722, 43.59426
344.6544, 43.15724
345.1365, 42.66825
345.6186, 42.45538
346.1007, 42.62828
346.5828, 42.95693
347.0649, 43.64359
347.5471, 44.36596
348.0292, 45.01796
348.5113, 45.50236
348.9934, 45.43840
349.4755, 44.20164
349.9576, 41.16749
350.4398, 39.63929
350.9219, 40.36584
351.4040, 41.65345
351.8861, 42.70864
352.3682, 43.54094
352.8503, 44.63719
353.3325, 46.49711
353.8146, 48.97936
354.2967, 49.80051
354.7788, 47.05388
355.2609, 44.83238
355.7430, 43.98565
356.2252, 44.18525
356.7073, 45.09868
357.1894, 46.58689
357.6715, 48.24840
358.1536, 49.05993
358.6357, 48.31386
359.1179, 47.74250
359.5999, 47.32054
360.0821, 47.13676
360.5642, 47.45770
361.0463, 48.23897
361.5284, 48.94548
362.0105, 48.80269
362.4926, 47.41312
362.9748, 46.72755
363.4569, 47.49205
363.9390, 48.21693
364.4211, 48.20222
364.9032, 47.58266
365.3853, 46.82988
365.8675, 46.22215
366.3496, 45.80510
366.8317, 46.03058
367.3138, 47.20012
367.7959, 48.70031
368.2780, 51.16210
368.7602, 53.59066
369.2423, 54.54445
369.7244, 53.34362
370.2065, 51.17347
370.6886, 50.41682
371.1707, 51.62132
371.6529, 52.90173
372.1350, 54.21534
372.6171, 55.35549
373.0992, 56.18869
373.5813, 56.69246
374.0634, 56.95148
374.5456, 56.95253
375.0277, 56.67541
375.5098, 56.55177
375.9919, 56.26913
376.4740, 56.56531
376.9561, 58.21942
377.4383, 60.68685
377.9204, 62.71915
378.4025, 63.53662
378.8846, 63.47848
379.3667, 63.38593
379.8488, 63.08667
380.3310, 63.21375
380.8131, 64.48210
381.2952, 66.09356
381.7773, 67.10725
382.2594, 67.14450
382.7415, 67.21189
383.2237, 68.67233
383.7058, 71.51668
384.1879, 73.81088
384.6700, 74.80639
385.1521, 75.36919
385.6342, 76.38526
386.1164, 77.81116
386.5985, 79.02993
387.0806, 79.49947
387.5627, 79.52603
388.0448, 79.84828
388.5269, 80.56107
389.0091, 81.44768
389.4912, 82.73499
389.9733, 84.07700
390.4554, 84.58435
390.9375, 83.27481
391.4196, 81.80276
391.9018, 81.66085
392.3839, 82.76244
392.8660, 84.39956
393.3481, 86.52283
393.8302, 88.76572
394.3123, 90.48716
394.7945, 91.73933
395.2766, 92.42817
395.7587, 92.44531
396.2408, 91.88905
396.7229, 90.80479
397.2050, 89.15052
397.6872, 87.36021
398.1693, 85.92313
398.6514, 84.88357
399.1335, 83.66492
399.6156, 82.26598
400.0977, 80.64830
400.5798, 78.73368
401.0620, 76.55661
401.5441, 74.26899
402.0262, 71.98161
402.5083, 69.64444
402.9904, 67.03729
403.4725, 63.41285
403.9547, 60.47306
404.4368, 58.96832
404.9189, 58.15853
405.4010, 57.12695
405.8831, 55.59558
406.3652, 53.87407
406.8474, 52.36028
407.3295, 50.89017
407.8116, 50.23578
408.2937, 50.86392
408.7758, 51.78745
409.2579, 52.80484
409.7401, 53.66673
410.2222, 53.87832
410.7043, 53.00508
411.1864, 51.18783
411.6685, 49.63430
412.1506, 48.04827
412.6328, 47.16432
413.1149, 47.61147
413.5970, 48.56726
414.0791, 49.23630
414.5612, 49.32811
415.0433, 48.90333
415.5255, 47.96749
416.0076, 46.33954
416.4897, 44.80852
416.9718, 43.10781
417.4539, 41.79642
417.9360, 41.25127
418.4182, 41.37115
418.9003, 41.78124
419.3824, 42.30351
419.8645, 42.88731
420.3466, 43.33720
420.8287, 43.70361
421.3109, 43.81247
421.7930, 43.47689
422.2751, 42.91442
422.7572, 42.44121
423.2393, 42.22124
423.7214, 41.74309
424.2036, 39.97876
424.6857, 37.02295
425.1678, 35.32086
425.6499, 35.84367
426.1320, 37.29626
426.6141, 38.77960
427.0963, 40.21636
427.5784, 40.92281
428.0605, 40.09194
428.5426, 38.56626
429.0247, 37.55739
429.5068, 37.12277
429.9890, 37.16604
430.4711, 37.81733
430.9532, 38.88086
431.4353, 39.67781
431.9174, 40.14765
432.3995, 40.43873
432.8817, 40.68420
433.3638, 40.79755
433.8459, 40.43765
434.3280, 39.42213
434.8101, 38.41483
435.2922, 38.44198
435.7744, 39.87793
436.2565, 40.84007
436.7386, 41.47055
437.2207, 41.44651
437.7028, 39.87833
438.1849, 37.26351
438.6671, 35.49566
439.1492, 35.97909
439.6313, 38.22663
440.1134, 39.36625
440.5955, 38.13720
441.0776, 37.34496
441.5598, 37.86662
442.0418, 38.67669
442.5240, 38.52534
443.0061, 37.17844
443.4882, 35.61006
443.9703, 35.16929
444.4524, 36.19161
444.9345, 36.76127
445.4167, 36.54088
445.8988, 36.19215
446.3809, 35.66755
446.8630, 35.21545
447.3451, 35.32781
447.8272, 36.39264
448.3094, 37.92860
448.7915, 38.69643
449.2736, 38.48468
449.7557, 38.10174
450.2378, 37.73768
450.7199, 37.27305
451.2021, 36.42266
451.6842, 35.21534
452.1663, 34.33628
452.6484, 34.58527
453.1305, 35.67734
453.6126, 36.42453
454.0948, 36.85434
454.5769, 36.68654
455.0590, 34.88283
455.5411, 32.44814
456.0232, 31.27726
456.5053, 32.36136
456.9875, 34.03370
457.4696, 35.09076
457.9517, 35.57860
458.4338, 35.68383
458.9159, 35.39300
459.3980, 34.88589
459.8802, 34.30664
460.3623, 33.58224
460.8444, 33.33423
461.3265, 34.14326
461.8086, 35.15623
462.2907, 35.47046
462.7729, 35.15022
463.2550, 35.02722
463.7371, 35.74564
464.2192, 37.08417
464.7013, 37.77342
465.1834, 37.64099
465.6656, 37.13332
466.1477, 35.88698
466.6298, 34.50420
467.1119, 33.55193
467.5940, 33.19048
468.0761, 33.38045
468.5583, 34.15670
469.0404, 35.66721
469.5225, 36.84640
470.0046, 37.81730
470.4867, 38.31307
470.9688, 38.10855
471.4510, 37.39141
471.9331, 36.33596
472.4152, 34.96893
472.8973, 33.66517
473.3794, 33.19537
473.8615, 33.72223
474.3437, 34.39874
474.8258, 35.48767
475.3079, 36.33117
475.7900, 36.45598
476.2721, 35.91574
476.7542, 35.13895
477.2364, 34.17336
477.7185, 33.19859
478.2006, 32.53239
478.6827, 32.13326
479.1648, 32.38052
479.6469, 34.19344
480.1291, 36.43866
480.6112, 36.90391
481.0933, 34.71527
481.5754, 32.94255
482.0575, 33.62048
482.5396, 35.65779
483.0217, 37.08413
483.5038, 37.50745
483.9860, 37.42554
484.4681, 37.29836
484.9502, 37.11683
485.4323, 36.55999
485.9144, 35.08149
486.3965, 33.83138
486.8787, 33.48890
487.3608, 33.67859
487.8429, 33.68036
488.3250, 33.20525
488.8071, 32.51780
489.2892, 32.05045
489.7714, 31.65490
490.2535, 31.88359
490.7356, 32.97598
491.2177, 34.35629
491.6998, 36.39576
492.1819, 38.48158
492.6641, 39.17995
493.1462, 37.37245
493.6283, 34.02780
494.1104, 31.89372
494.5925, 31.05790
495.0746, 31.21256
495.5568, 33.74689
496.0389, 36.23500
496.5210, 36.49689
497.0031, 34.58133
497.4852, 32.98287
497.9673, 34.09584
498.4495, 36.81608
498.9316, 37.97272
499.4137, 37.21208
499.8958, 36.04543
500.3779, 35.19454
500.8600, 34.54575
501.3422, 33.80368
501.8243, 32.73502
502.3064, 32.04553
502.7885, 32.59370
503.2706, 33.62790
503.7527, 33.59427
504.2349, 32.14237
504.7170, 30.53522
505.1991, 30.04423
505.6812, 30.74463
506.1633, 31.18234
506.6454, 31.19394
507.1276, 31.15665
507.6097, 30.94220
508.0918, 30.84455
508.5739, 31.41407
509.0560, 32.83155
509.5381, 34.58014
510.0203, 35.85464
510.5024, 36.59653
510.9845, 37.06652
511.4666, 37.35213
511.9487, 37.27466
512.4308, 36.58016
512.9130, 35.48630
513.3951, 34.39714
513.8772, 33.51200
514.3593, 32.74067
514.8414, 31.77860
515.3235, 30.51301
515.8057, 29.94358
516.2878, 30.87960
516.7699, 32.01161
517.2520, 31.95037
517.7341, 30.91333
518.2162, 30.51088
518.6984, 32.27089
519.1805, 34.54731
519.6626, 35.02834
520.1447, 33.80040
520.6268, 32.51353
521.1089, 31.84007
521.5911, 31.70769
522.0732, 32.11671
522.5553, 33.40204
523.0374, 34.17430
523.5195, 33.84755
524.0016, 33.16012
524.4838, 32.65073
524.9659, 32.40218
525.4480, 32.35536
525.9301, 32.47196
526.4122, 32.75079
526.8943, 33.21345
527.3765, 34.21767
527.8586, 34.87455
528.3407, 35.02400
528.8228, 34.88186
529.3049, 34.53949
529.7870, 34.05896
530.2692, 33.55745
530.7513, 33.01453
531.2334, 32.52325
531.7155, 32.78045
532.1976, 34.24117
532.6797, 35.38505
533.1619, 35.32497
533.6440, 34.73767
534.1261, 34.23857
534.6082, 33.91690
535.0903, 33.68036
535.5724, 33.39955
536.0546, 33.17321
536.5367, 33.13347
537.0188, 33.27670
537.5009, 33.98001
537.9830, 35.99269
538.4651, 38.79199
538.9473, 39.56374
539.4294, 36.43490
539.9115, 33.83477
540.3936, 33.33482
540.8757, 33.87160
541.3578, 34.34820
541.8400, 34.45471
542.3221, 34.09463
542.8042, 33.06059
543.2863, 31.33121
543.7684, 30.25644
544.2505, 30.25837
544.7326, 30.46004
545.2147, 30.91689
545.6968, 31.38074
546.1790, 31.57376
546.6611, 31.43378
547.1432, 31.14670
547.6253, 30.90447
548.1074, 30.69762
548.5895, 30.35074
549.0717, 29.63062
549.5538, 29.25863
550.0359, 29.94387
550.5180, 31.18748
551.0001, 32.37203
551.4822, 33.59569
551.9644, 34.25698
552.4465, 33.38389
552.9286, 31.79507
553.4107, 31.44898
553.8928, 32.75496
554.3749, 33.97581
554.8571, 33.41036
555.3392, 31.12420
555.8213, 29.78669
556.3034, 29.26385
556.7855, 29.68580
557.2676, 32.25556
557.7498, 35.22984
558.2319, 36.29992
558.7140, 35.07398
559.1961, 33.21175
559.6782, 32.59705
560.1603, 33.25479
560.6425, 33.18410
561.1246, 31.67323
561.6067, 30.47651
562.0888, 30.12955
562.5709, 30.34142
563.0530, 30.95633
563.5352, 31.96083
564.0173, 32.72304
564.4994, 32.42897
564.9815, 31.44728
565.4636, 31.00348
565.9457, 31.25772
566.4279, 31.85955
566.9100, 32.95757
567.3921, 34.14180
567.8742, 34.06698
568.3563, 31.83811
568.8384, 29.85374
569.3206, 28.93043
569.8027, 28.69263
570.2848, 28.84256
570.7669, 29.25183
571.2490, 29.61085
571.7311, 29.60652
572.2133, 29.30332
572.6954, 29.42695
573.1775, 30.64041
573.6596, 31.36162
574.1417, 30.78948
574.6238, 30.06754
575.1060, 30.37533
575.5881, 31.72887
576.0702, 33.03246
576.5523, 33.36137
577.0344, 32.91491
577.5165, 32.36139
577.9987, 31.64876
578.4808, 31.06162
578.9629, 30.76066
579.4450, 30.63713
579.9271, 30.49225
580.4092, 30.29175
580.8914, 30.29582
581.3735, 30.97959
581.8556, 31.68197
582.3377, 31.45210
582.8198, 30.41700
583.3019, 29.56182
583.7841, 29.42724
584.2662, 29.92587
584.7483, 30.85662
585.2304, 33.09601
585.7125, 34.28901
586.1946, 33.49602
586.6768, 32.55923
587.1589, 33.00764
587.6410, 34.30285
588.1231, 34.64745
588.6052, 32.79043
589.0873, 30.04717
589.5695, 29.40748
590.0516, 31.22036
590.5337, 32.66510
591.0158, 33.53158
591.4979, 33.44809
591.9800, 31.32791
592.4622, 27.86532
592.9443, 25.97469
593.4264, 27.73382
593.9085, 30.31639
594.3906, 31.49598
594.8727, 31.63714
595.3549, 31.73375
595.8370, 32.09605
596.3191, 32.49572
596.8012, 32.69411
597.2833, 32.72346
597.7654, 32.28606
598.2476, 30.81030
598.7297, 29.60020
599.2118, 28.80439
599.6939, 28.61225
600.1760, 29.60882
600.6581, 31.82329
601.1403, 33.89671
601.6224, 34.01277
602.1045, 32.27932
602.5866, 31.29288
603.0687, 31.40101
603.5508, 31.50012
604.0330, 30.85737
604.5151, 29.97842
604.9972, 29.50896
605.4793, 29.56090
605.9614, 29.79617
606.4435, 30.26478
606.9257, 30.70970
607.4078, 30.79590
607.8899, 30.49281
608.3720, 29.74784
608.8541, 28.37474
609.3362, 26.79963
609.8184, 26.39843
610.3005, 28.45005
610.7826, 29.78888
611.2647, 29.71168
611.7468, 29.56366
612.2289, 30.66580
612.7111, 32.44807
613.1932, 33.12195
613.6753, 31.46722
614.1574, 28.82125
614.6395, 27.72125
615.1216, 28.26779
615.6038, 29.02243
616.0859, 29.98494
616.5680, 30.71577
617.0501, 30.78904
617.5322, 30.33132
618.0143, 29.70534
618.4965, 28.61350
618.9786, 27.78604
619.4607, 27.91196
619.9428, 28.54819
620.4249, 28.79289
620.9070, 28.45064
621.3892, 28.10126
621.8713, 28.31595
622.3534, 29.09161
622.8355, 30.12690
623.3176, 32.20530
623.7997, 33.50491
624.2819, 33.38860
624.7640, 32.63574
625.2461, 31.68532
625.7282, 30.73816
626.2103, 30.21222
626.6924, 30.62381
627.1745, 31.61721
627.6566, 32.39275
628.1387, 32.95934
628.6208, 33.18636
629.1030, 33.01030
629.5851, 32.49099
630.0672, 31.51792
630.5493, 30.03735
631.0314, 29.03121
631.5135, 28.62326
631.9957, 28.74437
632.4778, 30.09965
632.9599, 31.82309
633.4420, 31.82530
633.9241, 29.39437
634.4063, 26.54961
634.8884, 26.37001
635.3705, 29.30458
635.8526, 31.14724
636.3347, 31.43245
636.8168, 31.21270
637.2990, 30.47026
637.7811, 29.66606
638.2632, 29.36727
638.7453, 29.70141
639.2274, 30.30682
639.7095, 31.21730
640.1917, 32.12752
640.6738, 32.32112
641.1559, 31.79429
641.6380, 31.49857
642.1201, 32.02197
642.6022, 32.96357
643.0844, 33.42346
643.5665, 33.23943
644.0486, 32.85374
644.5307, 31.95418
645.0128, 31.15650
645.4949, 30.81259
645.9771, 30.82647
646.4592, 31.02143
646.9413, 31.32869
647.4234, 31.56313
647.9055, 31.40180
648.3876, 30.85376
648.8698, 30.37305
649.3519, 29.98760
649.8340, 29.67859
650.3161, 29.11661
650.7982, 28.72337
651.2803, 29.50341
651.7625, 32.13319
652.2446, 34.35303
652.7267, 35.45620
653.2088, 35.59050
653.6909, 34.38725
654.1730, 32.21699
654.6552, 30.48187
655.1373, 30.03327
655.6194, 30.58765
656.1015, 31.53792
656.5836, 33.27263
657.0657, 34.38968
657.5479, 34.72165
658.0300, 34.47854
658.5121, 33.18615
658.9942, 31.46165
659.4763, 30.57046
659.9584, 31.11305
660.4406, 31.96119
660.9227, 32.13426
661.4048, 31.82650
661.8869, 31.51822
662.3690, 31.27933
662.8511, 31.04453
663.3333, 30.74746
663.8154, 30.42856
664.2975, 30.25970
664.7796, 29.93319
665.2617, 30.21015
665.7438, 32.20096
666.2260, 33.85778
666.7081, 33.17967
667.1902, 30.99410
667.6723, 29.78354
668.1544, 30.98722
668.6365, 33.02523
669.1187, 33.06986
669.6008, 31.25461
670.0829, 30.90340
670.5650, 33.06884
671.0471, 35.15840
671.5292, 35.02787
672.0114, 33.28415
672.4935, 32.22147
672.9756, 32.00007
673.4577, 32.23735
673.9398, 33.39312
674.4219, 34.56701
674.9041, 34.81610
675.3862, 34.20024
675.8683, 33.32142
676.3504, 32.51488
676.8325, 31.84942
677.3146, 31.55607
677.7968, 31.75703
678.2789, 31.69621
678.7610, 30.84672
679.2431, 30.31199
679.7252, 31.08381
680.2073, 32.55547
680.6895, 33.57108
681.1716, 34.06109
681.6537, 33.67101
682.1358, 31.06563
682.6179, 27.99598
683.1000, 27.17813
683.5822, 28.69163
684.0643, 30.88694
684.5464, 32.83641
685.0285, 34.31078
685.5106, 34.55737
685.9927, 32.87611
686.4749, 31.61249
686.9570, 30.99604
687.4391, 30.67838
687.9212, 30.67861
688.4033, 30.83720
688.8854, 30.87666
689.3676, 30.68606
689.8497, 30.46755
690.3318, 30.26784
690.8139, 30.19445
691.2960, 30.62646
691.7781, 31.57609
692.2603, 32.29239
692.7424, 32.22346
693.2245, 31.79922
693.7066, 32.19154
694.1887, 34.11755
694.6708, 35.41593
695.1530, 36.40466
695.6351, 36.49034
696.1172, 34.41625
696.5993, 31.51616
697.0814, 30.13970
697.5635, 31.15075
698.0457, 32.92043
698.5278, 34.14272
699.0099, 34.79420
699.4920, 34.61866
699.9741, 33.54674
700.4562, 32.56487
700.9384, 32.17750
701.4205, 32.21217
701.9026, 32.34565
702.3847, 32.67343
702.8668, 32.83426
703.3489, 32.14710
703.8311, 31.99424
704.3132, 34.03337
704.7953, 36.72146
705.2774, 37.29522
705.7595, 35.00022
706.2416, 32.29537
706.7238, 32.02208
707.2059, 33.60886
707.6880, 34.52230
708.1701, 34.65239
708.6522, 34.64853
709.1343, 34.74404
709.6164, 34.89157
710.0985, 35.14211
710.5806, 35.61216
711.0627, 35.35723
711.5449, 33.23320
712.0270, 31.54177
712.5091, 31.41434
712.9912, 32.37970
713.4733, 34.17848
713.9554, 36.51369
714.4376, 38.15699
714.9197, 37.68892
715.4018, 35.67461
715.8839, 34.15014
716.3660, 33.06969
716.8481, 32.98921
717.3303, 34.68317
717.8124, 36.62672
718.2945, 36.77743
718.7766, 35.30462
719.2587, 34.68143
719.7408, 35.90037
720.2230, 37.07673
720.7051, 37.77622
721.1872, 37.86145
721.6693, 36.79420
722.1514, 34.80678
722.6335, 33.17207
723.1157, 32.90442
723.5978, 33.57345
724.0799, 34.05235
724.5620, 34.31596
725.0441, 34.67894
725.5262, 35.21346
726.0084, 35.84465
726.4905, 36.80064
726.9726, 37.82831
727.4547, 37.88078
727.9368, 35.95793
728.4189, 34.54216
728.9011, 34.67080
729.3832, 35.40891
729.8653, 35.96404
730.3474, 36.29372
730.8295, 36.71877
731.3116, 37.44120
731.7938, 38.13699
732.2759, 38.06056
732.7580, 37.19292
733.2401, 37.08207
733.7222, 38.32103
734.2043, 39.03694
734.6865, 37.51170
735.1686, 35.01348
735.6507, 34.42105
736.1328, 36.36583
736.6149, 38.01307
737.0970, 39.13546
737.5792, 39.45909
738.0613, 38.05774
738.5434, 35.89534
739.0255, 34.73808
739.5076, 35.19404
739.9897, 36.62371
740.4719, 38.68036
740.9540, 41.15221
741.4361, 42.51450
741.9182, 42.67743
742.4003, 42.03401
742.8824, 40.09068
743.3646, 38.13159
743.8467, 38.26779
744.3288, 40.53002
744.8109, 41.74518
745.2930, 40.50764
745.7751, 39.52131
746.2573, 40.31822
746.7394, 41.71870
747.2215, 42.30973
747.7036, 41.91247
748.1857, 41.11169
748.6678, 40.07838
749.1500, 39.34808
749.6321, 40.66573
750.1142, 44.03050
750.5963, 45.96159
751.0784, 45.48401
751.5605, 44.26434
752.0427, 43.27068
752.5248, 42.64450
753.0069, 43.15142
753.4890, 46.63860
753.9711, 48.29810
754.4532, 45.80662
754.9354, 42.81386
755.4175, 41.88043
755.8996, 42.60941
756.3817, 43.51630
756.8638, 43.97559
757.3459, 45.33099
757.8281, 45.94515
758.3102, 47.99119
758.7923, 49.76231
759.2744, 51.23549
759.7565, 51.65834
760.2386, 50.32313
760.7208, 48.37133
761.2029, 47.84232
761.6850, 49.23069
762.1671, 50.03069
762.6492, 50.29187
763.1313, 49.95310
763.6135, 48.62037
764.0956, 46.90406
764.5777, 45.17375
765.0598, 43.64101
765.5419, 42.93131
766.0240, 44.09233
766.5062, 45.73162
766.9883, 45.86273
767.4704, 44.72155
767.9525, 43.02318
768.4346, 40.89712
768.9167, 39.33876
769.3989, 39.37644
769.8810, 40.68043
770.3631, 41.19033
770.8452, 40.08655
771.3273, 39.68659
771.8094, 40.78885
772.2916, 41.97889
772.7737, 42.58222
773.2558, 42.69426
773.7379, 42.52789
774.2200, 42.04427
774.7021, 41.70769
775.1843, 42.22061
775.6664, 42.82976
776.1485, 42.35751
776.6306, 40.95446
777.1127, 39.49169
777.5948, 38.34253
778.0770, 37.57379
778.5591, 37.34919
779.0412, 37.69827
779.5233, 37.95015
780.0054, 38.09207
780.4875, 38.15657
780.9697, 37.92740
781.4518, 37.80285
781.9339, 38.40045
782.4160, 39.62270
782.8981, 40.25148
783.3802, 39.56419
783.8624, 38.71095
784.3445, 37.96858
784.8266, 37.56749
785.3087, 38.03831
785.7908, 39.23031
786.2729, 40.27364
786.7551, 40.59226
787.2372, 40.42553
787.7193, 40.19545
788.2014, 39.90353
788.6835, 39.60962
789.1656, 39.31068
789.6478, 39.06099
790.1299, 38.99439
790.6120, 38.93666
791.0941, 38.28334
791.5762, 36.30256
792.0583, 35.93686
792.5404, 39.36008
793.0225, 42.22644
793.5046, 41.96910
793.9868, 40.19396
794.4689, 39.15672
794.9510, 39.31716
795.4331, 39.60559
795.9152, 39.11200
796.3973, 38.32485
796.8795, 38.05072
797.3616, 38.21943
797.8437, 38.54063
798.3258, 38.95117
798.8079, 39.31749
799.2900, 39.50565
799.7722, 39.55908
800.2543, 39.73518
800.7364, 40.23440
801.2185, 40.44685
801.7006, 40.07731
802.1827, 39.65691
802.6649, 39.29117
803.1470, 39.08567
803.6291, 39.27644
804.1112, 39.98655
804.5933, 40.66988
805.0754, 41.19709
805.5576, 41.45000
806.0397, 41.03071
806.5218, 40.27554
807.0039, 40.03402
807.4860, 40.57381
807.9681, 41.36456
808.4503, 41.88366
808.9324, 42.12952
809.4145, 41.98426
809.8966, 41.34315
810.3787, 40.98248
810.8608, 41.20278
811.3430, 41.56211
811.8251, 41.70995
812.3072, 41.65336
812.7893, 41.48122
813.2714, 41.17780
813.7535, 40.78604
814.2357, 39.66318
814.7178, 39.05016
815.1999, 40.38964
815.6820, 42.77880
816.1641, 44.27883
816.6462, 44.20296
817.1284, 43.69982
817.6105, 43.67733
818.0926, 43.99836
818.5747, 44.80701
819.0568, 45.85868
819.5389, 45.37789
820.0211, 42.63810
820.5032, 39.81847
820.9853, 39.49615
821.4674, 41.50049
821.9495, 43.24893
822.4316, 44.98935
822.9138, 45.94687
823.3959, 45.42906
823.8780, 44.62878
824.3601, 44.13274
824.8422, 43.98038
825.3243, 44.31614
825.8065, 45.43819
826.2886, 46.37194
826.7707, 46.81308
827.2528, 46.85514
827.7349, 46.33308
828.2170, 45.52592
828.6992, 45.10189
829.1813, 45.25718
829.6634, 45.31346
830.1455, 44.33027
830.6276, 42.70802
831.1097, 41.65169
831.5919, 41.16916
832.0740, 41.81761
832.5561, 44.06788
833.0382, 46.18516
833.5203, 46.40879
834.0024, 45.01567
834.4846, 44.11506
834.9667, 43.94849
835.4488, 43.90064
835.9309, 44.18082
836.4130, 44.31979
836.8951, 43.84687
837.3773, 43.13588
837.8594, 43.00566
838.3415, 43.75235
838.8236, 44.05139
839.3057, 42.29773
839.7878, 40.56227
840.2700, 41.53432
840.7521, 43.95604
841.2342, 44.87887
841.7163, 43.60632
842.1984, 41.65326
842.6805, 40.30405
843.1627, 39.46767
843.6448, 38.82066
844.1269, 38.35228
844.6090, 38.70870
845.0911, 40.32270
845.5732, 41.58987
846.0554, 41.17274
846.5375, 39.74334
847.0196, 39.24689
847.5017, 40.19289
847.9838, 40.92872
848.4659, 41.61107
848.9481, 41.91314
849.4302, 41.42375
849.9123, 40.65135
850.3944, 40.20015
850.8765, 40.13718
851.3586, 40.12056
851.8408, 39.81254
852.3229, 39.64594
852.8050, 40.28017
853.2871, 41.18984
853.7692, 41.36423
854.2513, 40.78213
854.7335, 40.26861
855.2156, 40.37342
855.6977, 40.62708
856.1798, 39.92125
856.6619, 38.31202
857.1440, 37.85429
857.6262, 38.96756
858.1083, 39.46098
858.5904, 38.06642
859.0725, 36.10751
859.5546, 35.47278
860.0367, 36.30321
860.5189, 36.82625
861.0010, 36.63366
861.4831, 36.70106
861.9652, 37.75975
862.4473, 38.63379
862.9294, 38.27205
863.4116, 36.98388
863.8937, 35.66698
864.3758, 34.36029
864.8579, 33.85252
865.3400, 35.30493
865.8221, 37.32419
866.3043, 38.37222
866.7864, 38.60148
867.2685, 38.74414
867.7506, 39.03455
868.2327, 39.06029
868.7148, 38.25227
869.1970, 36.93434
869.6791, 36.10345
870.1612, 35.76264
870.6433, 36.18751
871.1254, 37.67843
871.6075, 38.75640
872.0897, 38.08385
872.5718, 36.31903
873.0539, 35.64775
873.5360, 36.85011
874.0181, 37.35656
874.5002, 36.00706
874.9823, 35.30330
875.4644, 37.16183
875.9465, 39.42089
876.4286, 39.10778
876.9108, 36.17652
877.3929, 34.31013
877.8750, 36.12580
878.3571, 37.73934
878.8392, 36.30131
879.3214, 33.91338
879.8035, 33.12856
880.2856, 33.89939
880.7677, 34.91476
881.2498, 35.55929
881.7319, 35.77100
882.2141, 35.22215
882.6962, 34.21708
883.1783, 33.64262
883.6604, 33.52333
884.1425, 33.81450
884.6246, 34.54820
885.1068, 35.17665
885.5889, 34.99346
886.0710, 35.55987
886.5531, 36.01521
887.0352, 35.82440
887.5173, 36.77916
887.9995, 36.58395
888.4816, 36.21397
888.9637, 36.36623
889.4458, 36.72712
889.9279, 36.67041
890.4100, 36.13476
890.8922, 35.38493
891.3743, 33.68615
891.8564, 32.67369
892.3385, 34.03079
892.8206, 35.87564
893.3027, 35.85324
893.7849, 34.02804
894.2670, 32.24232
894.7491, 31.28540
895.2312, 30.96929
895.7133, 31.64131
896.1954, 32.58134
896.6776, 32.32290
897.1597, 31.11497
897.6418, 30.51213
898.1239, 31.17330
898.6060, 32.21904
899.0881, 32.62078
899.5703, 32.44681
900.0524, 31.86954
900.5345, 30.83836
901.0166, 30.52218
901.4987, 31.33630
901.9808, 32.40226
902.4630, 33.16641
902.9451, 33.52456
903.4272, 33.00922
903.9093, 30.70923
904.3914, 29.65749
904.8735, 30.68876
905.3557, 31.94376
905.8378, 32.84716
906.3199, 33.59532
906.8020, 34.69580
907.2841, 36.06243
907.7662, 36.24905
908.2484, 33.13154
908.7305, 31.04030
909.2126, 32.82331
909.6947, 35.52200
910.1768, 36.50822
910.6589, 35.98814
911.1411, 35.11511
911.6232, 34.30407
912.1053, 33.76748
912.5874, 33.81723
913.0695, 34.17199
913.5516, 34.38984
914.0338, 34.53447
914.5159, 34.85564
914.9980, 35.40203
915.4801, 36.12148
915.9622, 37.09893
916.4443, 37.81492
916.9265, 36.53167
917.4086, 33.25944
917.8907, 31.89403
918.3728, 32.98782
918.8549, 34.39452
919.3370, 35.28056
919.8192, 35.74146
920.3013, 35.81005
920.7834, 35.46593
921.2655, 35.65392
921.7476, 37.10177
922.2297, 37.82122
922.7119, 36.74358
923.1940, 35.65319
923.6761, 35.48424
924.1582, 36.05426
924.6403, 37.10612
925.1224, 38.82999
925.6046, 40.01697
926.0867, 40.09896
926.5688, 39.87188
927.0509, 39.36053
927.5330, 39.02440
928.0151, 39.83623
928.4973, 41.43957
928.9794, 41.91444
929.4615, 39.88776
929.9436, 37.69078
930.4257, 37.43817
930.9078, 38.22895
931.3900, 39.13916
931.8721, 39.84009
932.3542, 39.46510
932.8363, 37.83125
933.3184, 36.29520
933.8005, 36.29574
934.2827, 37.29091
934.7648, 37.98954
935.2469, 38.37754
935.7290, 38.17741
936.2111, 37.31250
936.6932, 36.58452
937.1754, 36.46778
937.6575, 36.75447
938.1396, 37.11493
938.6217, 37.57692
939.1038, 37.75597
939.5859, 37.59817
940.0681, 37.30333
940.5502, 36.92001
941.0323, 36.40648
941.5144, 35.63610
941.9965, 34.70304
942.4786, 34.01472
942.9608, 33.73187
943.4429, 33.34584
943.9250, 32.21288
944.4071, 31.70568
944.8892, 32.99680
945.3713, 34.80559
945.8535, 35.79790
946.3356, 35.85801
946.8177, 35.33519
947.2998, 33.61329
947.7819, 32.44645
948.2640, 33.59282
948.7462, 34.91425
949.2283, 34.10299
949.7104, 31.93231
950.1925, 30.21320
950.6746, 29.51693
951.1567, 29.52874
951.6389, 30.65886
952.1210, 31.78077
952.6031, 31.19933
953.0852, 29.56878
953.5673, 28.07058
954.0494, 27.00344
954.5316, 26.68212
955.0137, 27.28831
955.4958, 28.42310
955.9779, 29.86269
956.4600, 31.36407
956.9421, 31.58065
957.4242, 30.54681
957.9063, 29.11821
958.3884, 27.43027
958.8705, 26.36881
959.3527, 26.77913
959.8348, 28.08547
960.3169, 28.57123
960.7990, 28.07033
961.2811, 27.59385
961.7632, 27.01137
962.2454, 26.87097
962.7275, 27.45389
963.2096, 28.48469
963.6917, 29.97187
964.1738, 31.76874
964.6559, 32.21523
965.1381, 30.03703
965.6202, 28.56816
966.1023, 28.00965
966.5844, 28.03904
967.0665, 29.12241
967.5486, 30.38183
968.0308, 30.56881
968.5129, 29.61594
968.9950, 28.69665
969.4771, 27.42228
969.9592, 27.05912
970.4413, 29.44302
970.9235, 31.64139
971.4056, 30.52798
971.8877, 27.59865
972.3698, 26.36749
972.8519, 27.77868
973.3340, 28.97737
973.8162, 27.89308
974.2983, 26.42171
974.7804, 25.81947
975.2625, 25.98055
975.7446, 27.20751
976.2267, 29.02604
976.7089, 29.86442
977.1910, 28.93077
977.6731, 27.84760
978.1552, 28.63977
978.6373, 30.19498
979.1194, 30.61991
979.6016, 30.10996
980.0837, 29.21924
980.5658, 28.17069
981.0479, 27.50446
981.5300, 27.61522
982.0121, 28.11864
982.4943, 28.42470
982.9764, 28.52968
983.4585, 28.44610
983.9406, 28.16820
984.4227, 27.30715
984.9048, 25.65531
985.3870, 24.58731
985.8691, 25.52948
986.3512, 27.70271
986.8333, 28.39553
987.3154, 27.33470
987.7975, 27.12395
988.2797, 28.11081
988.7618, 29.12967
989.2439, 29.86697
989.7260, 30.11155
990.2081, 29.43670
990.6902, 28.00480
991.1724, 27.38517
991.6545, 28.03086
992.1366, 28.44128
992.6187, 28.49477
993.1008, 28.33620
993.5829, 27.72958
994.0651, 27.15555
994.5472, 27.55090
995.0293, 28.94700
995.5114, 29.33533
995.9935, 27.33423
996.4756, 26.30440
996.9578, 27.64783
997.4399, 29.04368
997.9220, 29.19486
998.4041, 28.55093
998.8862, 27.69901
999.3683, 26.70140
999.8505, 26.22280
1000.333, 26.65594
1000.815, 27.33756
1001.297, 28.33563
1001.779, 29.20624
1002.261, 29.66940
1002.743, 29.69434
1003.225, 29.12983
1003.707, 27.92976
1004.190, 27.00115
1004.672, 26.56668
1005.154, 26.81133
1005.636, 28.60683
1006.118, 30.63115
1006.600, 31.34601
1007.082, 30.84959
1007.564, 29.81048
1008.046, 28.45879
1008.529, 27.36025
1009.011, 26.91736
1009.493, 26.99231
1009.975, 27.89043
1010.457, 28.99443
1010.939, 28.93786
1011.421, 27.90616
1011.903, 27.51940
1012.385, 28.59296
1012.868, 29.70955
1013.350, 29.08698
1013.832, 27.58216
1014.314, 26.75762
1014.796, 26.43781
1015.278, 25.93119
1015.760, 25.19491
1016.242, 24.85912
1016.725, 25.29932
1017.207, 26.24617
1017.689, 27.69587
1018.171, 29.28293
1018.653, 29.33359
1019.135, 28.11682
1019.617, 27.60017
1020.099, 28.20844
1020.581, 29.23429
1021.064, 30.28832
1021.546, 30.93906
1022.028, 30.03787
1022.510, 27.78941
1022.992, 26.62919
1023.474, 26.58117
1023.956, 27.00642
1024.438, 27.79902
1024.921, 28.50192
1025.403, 28.78829
1025.885, 28.71100
1026.367, 28.28708
1026.849, 27.46902
1027.331, 27.14311
1027.813, 27.39215
1028.295, 27.69801
1028.777, 27.99023
1029.260, 28.06209
1029.742, 27.72659
1030.224, 27.07194
1030.706, 26.30655
1031.188, 25.34114
1031.670, 24.74185
1032.152, 24.57033
1032.634, 24.58233
1033.116, 24.71959
1033.599, 24.99946
1034.081, 25.41094
1034.563, 25.98983
1035.045, 26.86643
1035.527, 28.10977
1036.009, 29.49226
1036.491, 31.66728
1036.973, 32.66060
1037.456, 31.01374
1037.938, 29.16212
1038.420, 29.42243
1038.902, 31.04420
1039.384, 31.46052
1039.866, 30.24972
1040.348, 28.99585
1040.830, 27.21876
1041.313, 26.09539
1041.795, 26.28408
1042.277, 26.91844
1042.759, 27.55657
1043.241, 28.07111
1043.723, 27.99540
1044.205, 27.01777
1044.687, 26.30912
1045.169, 25.64647
1045.651, 25.61254
1046.134, 27.22056
1046.616, 28.77857
1047.098, 28.76215
1047.580, 27.58062
1048.062, 26.42052
1048.544, 25.10547
1049.026, 24.77278
1049.508, 26.66837
1049.991, 28.15196
1050.473, 28.16002
1050.955, 27.57055
1051.437, 26.92579
1051.919, 26.33616
1052.401, 25.98281
1052.883, 25.98382
1053.365, 25.80842
1053.848, 24.40060
1054.330, 24.00697
1054.812, 26.89750
1055.294, 29.93096
1055.776, 29.84369
1056.258, 27.80429
1056.740, 27.14098
1057.222, 28.66184
1057.704, 30.07032
1058.187, 31.35808
1058.669, 31.59632
1059.151, 29.40684
1059.633, 26.85307
1060.115, 25.77258
1060.597, 25.75942
1061.079, 25.55556
1061.561, 24.86787
1062.043, 24.49824
1062.526, 24.74034
1063.008, 25.33126
1063.490, 26.39678
1063.972, 27.54583
1064.454, 28.66093
1064.936, 29.51961
1065.418, 29.59868
1065.900, 28.78230
1066.383, 28.22111
1066.865, 28.66269
1067.347, 29.06881
1067.829, 29.14750
1068.311, 28.81214
1068.793, 27.35817
1069.275, 25.68147
1069.757, 25.63552
1070.240, 27.49417
1070.722, 29.04136
1071.204, 29.35156
1071.686, 29.15590
1072.168, 28.43223
1072.650, 27.68970
1073.132, 27.27575
1073.614, 27.17481
1074.096, 27.23575
1074.578, 27.46305
1075.061, 28.17291
1075.543, 30.12654
1076.025, 31.58884
1076.507, 31.41939
1076.989, 30.73523
1077.471, 29.96236
1077.953, 29.51087
1078.435, 30.00226
1078.918, 31.39907
1079.400, 32.95958
1079.882, 34.81228
1080.364, 35.92385
1080.846, 34.74583
1081.328, 33.76029
1081.810, 35.28989
1082.292, 37.82746
1082.774, 39.16872
1083.257, 39.29668
1083.739, 39.72738
1084.221, 41.11044
1084.703, 42.42899
1085.185, 42.91856
1085.667, 43.51835
1086.149, 45.22041
1086.631, 47.11321
1087.114, 47.84132
1087.596, 47.73670
1088.078, 48.52814
1088.560, 51.08264
1089.042, 52.70756
1089.524, 51.10112
1090.006, 49.67994
1090.488, 50.45533
1090.970, 52.32756
1091.453, 54.52215
1091.935, 56.72161
1092.417, 58.63783
1092.899, 60.29350
1093.381, 60.77209
1093.863, 58.72810
1094.345, 56.73069
1094.827, 56.47717
1095.309, 56.30764
1095.792, 54.50685
1096.274, 51.81021
1096.756, 49.92427
1097.238, 49.13990
1097.720, 47.87527
1098.202, 44.90844
1098.684, 42.40355
1099.166, 41.80342
1099.649, 41.15806
1100.131, 38.91166
1100.613, 35.84427
1101.095, 32.68895
1101.577, 29.74128
1102.059, 28.72979
1102.541, 32.16322
1103.023, 34.14193
1103.505, 31.68484
1103.988, 29.26861
1104.470, 29.96083
1104.952, 31.52798
1105.434, 30.89416
1105.916, 28.50210
1106.398, 27.63080
1106.880, 29.76240
1107.362, 31.04912
1107.844, 30.28807
1108.327, 29.36348
1108.809, 28.98229
1109.291, 28.72800
1109.773, 28.24303
1110.255, 27.56331
1110.737, 26.70886
1111.219, 25.35812
1111.701, 25.08928
1112.184, 27.38737
1112.666, 28.85843
1113.148, 28.71816
1113.630, 27.58447
1114.112, 24.63787
1114.594, 21.46197
1115.076, 21.32816
1115.558, 24.64959
1116.041, 26.87119
1116.523, 27.70593
1117.005, 27.89675
1117.487, 27.11427
1117.969, 26.26132
1118.451, 25.73141
1118.933, 25.37969
1119.415, 24.91334
1119.897, 24.40296
1120.380, 24.73409
1120.862, 26.78667
1121.344, 27.33458
1121.826, 25.06240
1122.308, 24.02712
1122.790, 26.51853
1123.272, 29.20076
1123.754, 28.64639
1124.236, 25.95237
1124.719, 24.91506
1125.201, 25.91968
1125.683, 26.54752
1126.165, 26.73326
1126.647, 26.84099
1127.129, 27.06530
1127.611, 26.77999
1128.093, 25.36596
1128.576, 23.60934
1129.058, 22.99759
1129.540, 23.48710
1130.022, 24.21244
1130.504, 25.22603
1130.986, 25.80377
1131.468, 25.82602
1131.950, 25.46572
1132.432, 24.75819
1132.915, 24.00035
1133.397, 23.50839
1133.879, 23.32114
1134.361, 23.68494
1134.843, 24.54646
1135.325, 25.40999
1135.807, 26.19234
1136.289, 25.92105
1136.771, 24.31650
1137.254, 23.22130
1137.736, 24.25618
1138.218, 23.56399
1138.700, 23.85196
1139.182, 24.50703
1139.664, 24.51298
1140.146, 25.62070
1140.628, 26.30558
1141.111, 26.29236
1141.593, 25.95321
1142.075, 25.47516
1142.557, 25.15762
1143.039, 25.65941
1143.521, 26.28083
1144.003, 25.30259
1144.485, 26.08940
1144.968, 24.29647
1145.450, 26.35007
1145.932, 27.57821
1146.414, 27.25387
1146.896, 26.31039
1147.378, 25.15322
1147.860, 24.16556
1148.342, 23.38763
1148.824, 23.25968
1149.307, 25.22659
1149.789, 27.79253
1150.271, 27.92460
1150.753, 25.76464
1151.235, 24.16784
1151.717, 24.30184
1152.199, 25.10323
1152.681, 26.71455
1153.163, 27.91483
1153.646, 27.61865
1154.128, 26.72024
1154.610, 26.13396
1155.092, 25.75812
1155.574, 25.07710
1156.056, 23.97907
1156.538, 23.06694
1157.020, 22.55549
1157.503, 22.19353
1157.985, 21.38532
1158.467, 21.28244
1158.949, 23.31897
1159.431, 25.98079
1159.913, 27.47760
1160.395, 27.76008
1160.877, 27.08741
1161.359, 24.31257
1161.842, 22.94692
1162.324, 24.24099
1162.806, 25.08121
1163.288, 24.59083
1163.770, 23.41317
1164.252, 21.64206
1164.734, 19.79419
1165.216, 19.00779
1165.698, 19.31443
1166.181, 20.42014
1166.663, 22.65902
1167.145, 24.50330
1167.627, 25.86602
1168.109, 26.31798
1168.591, 25.50043
1169.073, 24.14619
1169.555, 22.93126
1170.037, 22.10261
1170.520, 22.90989
1171.002, 25.28882
1171.484, 26.84571
1171.966, 27.46314
1172.448, 26.83145
1172.930, 24.89659
1173.412, 23.33749
1173.894, 23.29706
1174.377, 24.04378
1174.859, 24.85324
1175.341, 25.43462
1175.823, 24.40077
1176.305, 25.19308
1176.787, 22.84248
1177.269, 24.94176
1177.751, 25.85578
1178.234, 24.63467
1178.716, 23.48573
1179.198, 24.39449
1179.680, 25.50383
1180.162, 24.26886
1180.644, 22.46438
1181.126, 22.31581
1181.608, 23.30511
1182.090, 24.64155
1182.573, 25.91629
1183.055, 26.29484
1183.537, 25.26594
1184.019, 24.78140
1184.501, 26.67571
1184.983, 28.37196
1185.465, 28.31479
1185.947, 27.55344
1186.429, 26.74680
1186.912, 26.04085
1187.394, 25.41480
1187.876, 24.90126
1188.358, 25.10917
1188.840, 27.32102
1189.322, 28.36493
1189.804, 26.88211
1190.286, 25.53812
1190.769, 25.12734
1191.251, 25.36805
1191.733, 26.38076
1192.215, 27.69937
1192.697, 28.11013
1193.179, 27.55429
1193.661, 26.38913
1194.143, 24.04806
1194.625, 23.50357
1195.108, 25.74085
1195.590, 27.41778
1196.072, 26.79486
1196.554, 25.49784
1197.036, 25.36150
1197.518, 26.07069
1198.000, 26.84278
1198.482, 27.60584
1198.964, 27.54598
1199.447, 26.77052
1199.929, 26.43818
1200.411, 26.79527
1200.893, 27.50603
1201.375, 28.39764
1201.857, 28.96081
1202.339, 28.36868
1202.821, 27.29008
1203.304, 26.91206
1203.786, 26.78658
1204.268, 25.87317
1204.750, 24.55398
1205.232, 23.98719
1205.714, 24.40263
1206.196, 25.28245
1206.678, 26.63551
1207.161, 27.52291
1207.643, 27.18795
1208.125, 26.37474
1208.607, 25.13165
1209.089, 24.07001
1209.571, 23.85251
1210.053, 24.30140
1210.535, 24.90981
1211.017, 25.60563
1211.500, 26.46055
1211.982, 28.29150
1212.464, 29.03933
1212.946, 28.03709
1213.428, 26.36521
1213.910, 23.55963
1214.392, 21.29007
1214.874, 21.37061
1215.356, 23.11372
1215.839, 24.57063
1216.321, 25.84089
1216.803, 25.56079
1217.285, 23.32074
1217.767, 22.41133
1218.249, 23.51145
1218.731, 24.77390
1219.213, 25.34537
1219.696, 25.40714
1220.178, 25.03531
1220.660, 24.58823
1221.142, 25.15126
1221.624, 26.29052
1222.106, 26.62797
1222.588, 26.18132
1223.070, 24.78586
1223.552, 22.85138
1224.035, 22.52475
1224.517, 24.81820
1224.999, 26.94952
1225.481, 25.94113
1225.963, 24.43789
1226.445, 25.13466
1226.927, 26.33300
1227.409, 26.21238
1227.891, 25.28192
1228.374, 24.24744
1228.856, 23.45460
1229.338, 23.90911
1229.820, 26.61612
1230.302, 28.06122
1230.784, 26.17596
1231.266, 24.66439
1231.748, 24.91755
1232.231, 25.64744
1232.713, 26.48609
1233.195, 26.93054
1233.677, 26.02380
1234.159, 23.99631
1234.641, 22.87843
1235.123, 22.69989
1235.605, 23.42799
1236.088, 25.25702
1236.570, 26.82660
1237.052, 27.80195
1237.534, 28.31221
1238.016, 28.40724
1238.498, 28.34017
1238.980, 28.54090
1239.462, 28.77909
1239.944, 28.20568
1240.427, 27.20631
1240.909, 27.02460
1241.391, 27.49294
1241.873, 27.78074
1242.355, 27.66778
1242.837, 27.18702
1243.319, 26.24488
1243.801, 25.73841
1244.283, 27.04894
1244.766, 28.22311
1245.248, 27.50194
1245.730, 26.15306
1246.212, 25.32025
1246.694, 24.87914
1247.176, 24.07807
1247.658, 23.04948
1248.140, 23.79403
1248.622, 28.48335
1249.105, 30.93617
1249.587, 29.38083
1250.069, 27.89768
1250.551, 27.56119
1251.033, 27.19794
1251.515, 25.92685
1251.997, 24.47040
1252.479, 23.90375
1252.962, 24.11958
1253.444, 24.61514
1253.926, 25.38208
1254.408, 25.92430
1254.890, 26.21008
1255.372, 26.08843
1255.854, 25.58534
1256.336, 25.48675
1256.818, 26.26545
1257.301, 26.81553
1257.783, 25.38076
1258.265, 23.65352
1258.747, 24.08605
1259.229, 25.57825
1259.711, 27.10970
1260.193, 28.25477
1260.675, 28.32952
1261.157, 27.48415
1261.640, 26.82185
1262.122, 26.77591
1262.604, 26.43275
1263.086, 24.74413
1263.568, 23.78995
1264.050, 24.59338
1264.532, 25.92862
1265.014, 27.49801
1265.497, 28.82851
1265.979, 29.47948
1266.461, 29.38713
1266.943, 28.05481
1267.425, 25.15173
1267.907, 23.56869
1268.389, 23.37988
1268.871, 23.82194
1269.354, 24.77039
1269.836, 25.79486
1270.318, 26.71111
1270.800, 27.15150
1271.282, 26.57612
1271.764, 25.88479
1272.246, 26.88531
1272.728, 28.52979
1273.210, 28.90104
1273.693, 28.53111
1274.175, 28.55985
1274.657, 28.96031
1275.139, 29.10097
1275.621, 28.81376
1276.103, 28.44126
1276.585, 28.22491
1277.067, 27.77892
1277.549, 26.48034
1278.032, 25.54351
1278.514, 25.56589
1278.996, 26.21172
1279.478, 27.56690
1279.960, 29.05937
1280.442, 29.58790
1280.924, 29.16881
1281.406, 28.00373
1281.889, 28.42308
1282.371, 25.69970
1282.853, 28.16597
1283.335, 29.74909
1283.817, 29.49373
1284.299, 28.52102
1284.781, 27.49659
1285.263, 26.92781
1285.745, 27.33341
1286.228, 28.71713
##END=



