##NAMES=Babingtonite
##RRUFFID=R060093
##IDEAL CHEMISTRY=Ca_2_Fe^2+^Fe^3+^Si_5_O_14_(OH)
##LOCALITY=Iron Cap mine, Aravaipa District, Graham County, Arizona, USA
##OWNER=RRUFF
##SOURCE=University of Arizona Mineral Museum
##DESCRIPTION=Dark prismatic striated crystals
##STATUS=The identification of this mineral has been confirmed by X-ray diffraction and chemical analysis
##URL=rruff.info/R060093
##MEASURED CHEMISTRY=Ca_2.00_(Fe^2+^_0.54_Mn_0.46_)(Fe^3+^_0.96_Al_0.04_)Si_5.00_O_14_(OH)
93.74609, 4.610464
94.22821, 4.519830
94.71033, 4.544441
95.19244, 4.676396
95.67456, 4.888166
96.15668, 5.202508
96.63879, 5.591481
97.12091, 5.956847
97.60303, 6.291280
98.08514, 6.639154
98.56726, 7.052636
99.04938, 7.533591
99.53149, 8.069214
100.0136, 8.666072
100.4957, 9.322484
100.9778, 9.967850
101.4600, 10.58018
101.9421, 11.19326
102.4242, 11.88280
102.9063, 12.68052
103.3884, 13.48263
103.8705, 14.19442
104.3527, 14.75655
104.8348, 15.44168
105.3169, 16.32453
105.7990, 17.36635
106.2811, 18.34375
106.7632, 19.17899
107.2454, 20.02174
107.7275, 20.97536
108.2096, 22.13268
108.6917, 23.28992
109.1738, 24.44246
109.6559, 25.60931
110.1381, 26.68619
110.6202, 27.84200
111.1023, 28.84465
111.5844, 29.47285
112.0665, 29.39159
112.5486, 29.25585
113.0308, 29.10406
113.5129, 28.80094
113.9950, 29.00470
114.4771, 30.11299
114.9592, 31.71800
115.4413, 33.24846
115.9235, 34.50533
116.4056, 35.70311
116.8877, 36.97787
117.3698, 38.55308
117.8519, 39.79004
118.3340, 40.05152
118.8162, 39.57963
119.2983, 39.59515
119.7804, 39.71619
120.2625, 39.94832
120.7446, 39.99828
121.2267, 40.76233
121.7089, 41.53315
122.1910, 42.50452
122.6731, 43.96669
123.1552, 45.11854
123.6373, 47.44036
124.1194, 49.51086
124.6016, 51.26201
125.0837, 52.73273
125.5658, 53.71133
126.0479, 53.91609
126.5300, 53.35860
127.0121, 52.30119
127.4943, 50.67850
127.9764, 48.70669
128.4585, 46.84383
128.9406, 45.24308
129.4227, 43.88875
129.9048, 42.77744
130.3869, 41.91263
130.8691, 41.26348
131.3512, 40.86216
131.8333, 40.54960
132.3154, 40.07703
132.7975, 39.47627
133.2796, 38.85256
133.7618, 38.44336
134.2439, 38.24369
134.7260, 38.25732
135.2081, 38.55559
135.6902, 39.14446
136.1723, 39.77049
136.6545, 40.19910
137.1366, 40.42877
137.6187, 41.06215
138.1008, 42.16348
138.5829, 43.64009
139.0650, 45.39741
139.5472, 47.52972
140.0293, 49.61657
140.5114, 51.29499
140.9935, 52.37947
141.4756, 54.03420
141.9577, 56.60155
142.4399, 59.82496
142.9220, 62.57002
143.4041, 65.19756
143.8862, 66.82659
144.3683, 66.78024
144.8504, 64.66169
145.3326, 61.76594
145.8147, 57.97902
146.2968, 53.33160
146.7789, 49.51670
147.2610, 46.67051
147.7431, 44.47994
148.2253, 42.65236
148.7074, 41.22817
149.1895, 40.11955
149.6716, 39.37169
150.1537, 39.00570
150.6358, 38.74791
151.1180, 38.70760
151.6001, 38.72664
152.0822, 38.64109
152.5643, 38.29502
153.0464, 37.99823
153.5285, 37.77277
154.0107, 37.57599
154.4928, 37.62762
154.9749, 38.06116
155.4570, 38.71202
155.9391, 39.36977
156.4212, 39.92712
156.9034, 40.56603
157.3855, 41.36221
157.8676, 42.35400
158.3497, 43.37928
158.8318, 44.41822
159.3139, 45.47753
159.7961, 46.57538
160.2782, 47.76686
160.7603, 48.96227
161.2424, 50.12144
161.7245, 51.23672
162.2066, 52.32285
162.6888, 53.41977
163.1709, 54.49349
163.6530, 55.46808
164.1351, 56.20164
164.6172, 56.89467
165.0993, 57.66436
165.5815, 58.50079
166.0636, 59.47486
166.5457, 60.58063
167.0278, 61.84377
167.5099, 63.34837
167.9921, 65.20765
168.4742, 67.29042
168.9563, 69.47868
169.4384, 71.73147
169.9205, 74.10924
170.4026, 76.68406
170.8848, 79.43814
171.3669, 82.25344
171.8490, 85.02999
172.3311, 87.83858
172.8132, 90.76908
173.2953, 93.91593
173.7775, 97.14091
174.2596, 100.6124
174.7417, 104.2439
175.2238, 107.2679
175.7059, 109.3065
176.1880, 110.3326
176.6702, 110.2697
177.1523, 109.0427
177.6344, 106.7449
178.1165, 103.3265
178.5986, 98.78487
179.0807, 93.66749
179.5629, 87.94914
180.0450, 81.90666
180.5271, 76.28550
181.0092, 71.25634
181.4913, 66.76582
181.9734, 62.80658
182.4556, 59.37907
182.9377, 56.42146
183.4198, 53.86954
183.9019, 51.70944
184.3840, 49.94576
184.8661, 48.63140
185.3483, 47.69178
185.8304, 46.93629
186.3125, 46.37095
186.7946, 45.97560
187.2767, 45.75184
187.7588, 45.68824
188.2409, 45.72980
188.7231, 45.83745
189.2052, 46.03131
189.6873, 46.38947
190.1694, 46.92250
190.6515, 47.58695
191.1336, 48.40364
191.6158, 49.35778
192.0979, 50.22675
192.5800, 50.98524
193.0621, 51.60765
193.5442, 51.94001
194.0263, 51.97363
194.5085, 51.75491
194.9906, 51.27197
195.4727, 50.52405
195.9548, 49.79161
196.4369, 49.14688
196.9190, 48.59717
197.4012, 48.27750
197.8833, 48.18966
198.3654, 48.32464
198.8475, 48.71692
199.3296, 49.38501
199.8117, 50.11262
200.2939, 50.76898
200.7760, 51.34701
201.2581, 52.11936
201.7402, 53.10753
202.2223, 54.25143
202.7044, 55.50191
203.1866, 56.88014
203.6687, 58.18472
204.1508, 59.24097
204.6329, 60.00260
205.1150, 61.07327
205.5971, 62.54872
206.0793, 64.22601
206.5614, 65.65449
207.0435, 66.71005
207.5256, 67.94938
208.0077, 69.61560
208.4898, 71.73441
208.9720, 74.14314
209.4541, 76.90865
209.9362, 79.89846
210.4183, 82.87496
210.9004, 85.84204
211.3825, 88.71819
211.8647, 91.58668
212.3468, 94.58772
212.8289, 97.01258
213.3110, 99.07049
213.7931, 100.3952
214.2752, 100.0769
214.7574, 97.84612
215.2395, 94.62617
215.7216, 90.62989
216.2037, 85.65317
216.6858, 80.77496
217.1679, 75.89952
217.6501, 71.16775
218.1322, 66.97282
218.6143, 63.29144
219.0964, 60.10636
219.5785, 57.50022
220.0606, 55.51978
220.5428, 53.87429
221.0249, 52.66944
221.5070, 51.75353
221.9891, 50.79449
222.4712, 49.72310
222.9533, 48.71709
223.4355, 47.84743
223.9176, 47.04507
224.3997, 46.53985
224.8818, 46.36223
225.3639, 46.46294
225.8460, 46.67433
226.3282, 46.76597
226.8103, 47.36783
227.2924, 48.96527
227.7745, 52.46136
228.2566, 54.48282
228.7387, 54.36016
229.2209, 53.04648
229.7030, 52.77088
230.1851, 53.93584
230.6672, 55.48605
231.1493, 57.06098
231.6314, 58.78351
232.1136, 60.23430
232.5957, 61.56727
233.0778, 62.56790
233.5599, 62.70866
234.0420, 61.75581
234.5241, 60.32439
235.0063, 58.61278
235.4884, 56.57982
235.9705, 54.42124
236.4526, 51.99010
236.9347, 49.47888
237.4168, 47.26738
237.8990, 45.43823
238.3811, 43.77894
238.8632, 42.22340
239.3453, 40.74503
239.8274, 39.43531
240.3095, 38.26843
240.7917, 37.27385
241.2738, 36.52118
241.7559, 36.09291
242.2380, 35.77315
242.7201, 35.49342
243.2022, 35.24471
243.6844, 35.07227
244.1665, 35.01190
244.6486, 35.00610
245.1307, 34.94232
245.6128, 34.73798
246.0949, 34.61471
246.5771, 34.65232
247.0592, 34.88383
247.5413, 35.15155
248.0234, 35.48176
248.5055, 35.82813
248.9876, 36.09797
249.4697, 36.21285
249.9519, 36.39961
250.4340, 36.76419
250.9161, 37.37335
251.3982, 37.77131
251.8803, 37.72899
252.3624, 37.65995
252.8446, 38.21289
253.3267, 39.82236
253.8088, 41.19331
254.2909, 41.89754
254.7730, 41.82603
255.2551, 41.96980
255.7373, 42.38873
256.2194, 42.96178
256.7015, 43.51556
257.1836, 43.96276
257.6657, 44.59132
258.1479, 45.50652
258.6300, 46.71589
259.1121, 47.92390
259.5942, 49.10208
260.0763, 50.31162
260.5584, 51.64727
261.0406, 53.08646
261.5227, 54.67432
262.0048, 56.44990
262.4869, 58.39489
262.9690, 60.39751
263.4511, 62.50254
263.9333, 64.57932
264.4154, 66.53138
264.8975, 68.43111
265.3796, 70.04449
265.8617, 71.34594
266.3438, 72.33062
266.8260, 73.08200
267.3081, 73.68053
267.7902, 73.89005
268.2723, 73.47371
268.7544, 72.34206
269.2365, 70.89125
269.7187, 69.10820
270.2008, 67.04137
270.6829, 65.00196
271.1650, 62.92151
271.6471, 61.03277
272.1292, 59.58588
272.6114, 58.63322
273.0935, 57.78192
273.5756, 56.94743
274.0577, 56.20214
274.5398, 55.81823
275.0219, 55.85346
275.5041, 56.07526
275.9862, 56.32203
276.4683, 56.57430
276.9504, 57.03482
277.4325, 57.77884
277.9146, 58.69012
278.3968, 59.47691
278.8788, 60.11950
279.3610, 60.72923
279.8431, 61.41087
280.3252, 62.16902
280.8073, 62.72555
281.2894, 63.04012
281.7715, 63.18952
282.2537, 63.37150
282.7358, 63.61423
283.2179, 63.62075
283.7000, 63.21383
284.1821, 62.40113
284.6642, 61.42454
285.1464, 60.27082
285.6285, 58.98787
286.1106, 57.65376
286.5927, 56.26754
287.0748, 54.77110
287.5569, 53.06681
288.0391, 51.19105
288.5212, 49.43842
289.0033, 47.79401
289.4854, 46.29220
289.9675, 44.97078
290.4496, 43.82500
290.9318, 42.86219
291.4139, 42.13324
291.8960, 41.57570
292.3781, 40.96560
292.8602, 40.28363
293.3423, 39.69300
293.8245, 39.36176
294.3066, 39.26310
294.7887, 39.27979
295.2708, 39.42423
295.7529, 39.63187
296.2350, 39.75063
296.7172, 39.78077
297.1993, 39.82455
297.6814, 39.95547
298.1635, 40.16756
298.6456, 40.44212
299.1277, 40.78310
299.6099, 41.18023
300.0920, 41.61141
300.5741, 42.08142
301.0562, 42.58030
301.5383, 43.08607
302.0204, 43.62563
302.5026, 44.23385
302.9847, 44.91356
303.4668, 45.68493
303.9489, 46.63857
304.4310, 47.72046
304.9131, 48.80147
305.3953, 49.67897
305.8774, 50.54518
306.3595, 51.66800
306.8416, 53.12329
307.3237, 54.66048
307.8058, 56.03949
308.2880, 57.31855
308.7701, 58.62395
309.2522, 60.09179
309.7343, 61.58632
310.2164, 63.03646
310.6985, 64.46775
311.1807, 65.68540
311.6628, 66.44644
312.1449, 66.93880
312.6270, 67.42410
313.1091, 68.03886
313.5912, 68.66547
314.0734, 69.23302
314.5555, 69.73721
315.0376, 70.23310
315.5197, 70.66441
316.0018, 71.13774
316.4839, 71.75204
316.9661, 72.68407
317.4482, 73.63280
317.9303, 74.41243
318.4124, 75.05907
318.8945, 75.83903
319.3766, 76.94014
319.8588, 78.15880
320.3409, 79.33951
320.8230, 80.49934
321.3051, 81.56470
321.7872, 82.42339
322.2693, 83.15588
322.7515, 84.00888
323.2336, 85.19868
323.7157, 86.40427
324.1978, 87.46425
324.6799, 88.25292
325.1620, 89.08438
325.6442, 89.99699
326.1263, 90.97884
326.6084, 92.00867
327.0905, 93.09544
327.5726, 94.22015
328.0547, 95.44855
328.5369, 96.91232
329.0190, 98.01225
329.5011, 98.58452
329.9832, 98.85660
330.4653, 99.08945
330.9474, 99.59608
331.4296, 99.67606
331.9117, 99.12399
332.3938, 97.91606
332.8759, 96.63182
333.3580, 95.28688
333.8401, 93.83597
334.3223, 92.24277
334.8044, 90.39693
335.2865, 88.59563
335.7686, 86.85345
336.2507, 85.17770
336.7328, 83.70285
337.2150, 82.42060
337.6971, 81.32655
338.1792, 80.45792
338.6613, 79.91617
339.1434, 79.21025
339.6255, 78.26140
340.1077, 77.17410
340.5898, 76.14413
341.0719, 75.19054
341.5540, 74.29086
342.0361, 73.46119
342.5182, 72.70096
343.0004, 71.87995
343.4825, 70.92127
343.9646, 70.10157
344.4467, 69.88850
344.9288, 70.28638
345.4109, 70.81725
345.8931, 71.27628
346.3752, 71.73543
346.8573, 72.46671
347.3394, 73.48170
347.8215, 74.72530
348.3036, 76.27131
348.7858, 78.04524
349.2679, 79.70715
349.7500, 81.21995
350.2321, 82.52023
350.7142, 83.46627
351.1964, 84.06067
351.6785, 84.35693
352.1606, 84.49302
352.6427, 84.33677
353.1248, 83.58413
353.6069, 82.09240
354.0891, 80.24220
354.5712, 78.40443
355.0533, 76.54652
355.5354, 74.53365
356.0175, 71.99939
356.4996, 69.44946
356.9818, 67.38168
357.4639, 65.85143
357.9460, 64.66718
358.4281, 63.78476
358.9102, 63.13909
359.3923, 62.65110
359.8745, 62.28270
360.3566, 62.06383
360.8387, 62.03222
361.3208, 62.18112
361.8029, 62.44002
362.2850, 62.87550
362.7672, 63.35571
363.2493, 63.77086
363.7314, 64.04916
364.2135, 64.31368
364.6956, 64.67955
365.1777, 65.07493
365.6599, 65.27000
366.1420, 65.00101
366.6241, 64.67827
367.1062, 64.51674
367.5883, 64.65347
368.0704, 64.68774
368.5526, 64.45672
369.0347, 64.12481
369.5168, 63.94383
369.9989, 64.28118
370.4810, 64.39486
370.9631, 64.04361
371.4453, 63.14637
371.9274, 62.41857
372.4095, 62.00517
372.8916, 61.64621
373.3737, 61.09713
373.8558, 60.19896
374.3380, 59.42891
374.8201, 58.87215
375.3022, 58.49196
375.7843, 58.09666
376.2664, 57.66989
376.7485, 57.25604
377.2307, 56.88235
377.7128, 56.55070
378.1949, 56.22858
378.6770, 55.89342
379.1591, 55.60122
379.6412, 55.48495
380.1234, 55.55879
380.6055, 55.67080
381.0876, 55.75328
381.5697, 55.81554
382.0518, 55.93293
382.5339, 56.11209
383.0161, 56.30314
383.4982, 56.43886
383.9803, 56.53153
384.4624, 56.65604
384.9445, 56.89742
385.4266, 57.12151
385.9088, 57.10331
386.3909, 56.84697
386.8730, 56.41542
387.3551, 55.76760
387.8372, 54.98877
388.3193, 54.22892
388.8015, 53.52774
389.2836, 52.80619
389.7657, 51.94945
390.2478, 51.00982
390.7299, 50.12903
391.2120, 49.35498
391.6942, 48.68086
392.1763, 48.10213
392.6584, 47.62264
393.1405, 47.26459
393.6226, 47.10332
394.1047, 47.04589
394.5869, 46.99551
395.0690, 46.94007
395.5511, 46.86873
396.0332, 46.74272
396.5153, 46.58275
396.9974, 46.49898
397.4796, 46.54995
397.9617, 46.66288
398.4438, 46.81129
398.9259, 47.07599
399.4080, 47.22724
399.8901, 47.23122
400.3723, 47.10988
400.8544, 46.90945
401.3365, 46.65161
401.8186, 46.29131
402.3007, 45.83180
402.7828, 45.28230
403.2649, 44.54295
403.7470, 43.54634
404.2292, 42.42703
404.7113, 41.30077
405.1934, 40.13536
405.6755, 39.03017
406.1576, 38.00297
406.6397, 37.05169
407.1219, 36.20064
407.6040, 35.46712
408.0861, 34.76495
408.5682, 34.01515
409.0503, 33.23207
409.5324, 32.56297
410.0146, 32.02164
410.4967, 31.57291
410.9788, 31.15830
411.4609, 30.78652
411.9430, 30.50737
412.4251, 30.36134
412.9073, 30.31497
413.3894, 30.28485
413.8715, 30.27192
414.3536, 30.30797
414.8357, 30.40096
415.3178, 30.56450
415.8000, 30.83582
416.2821, 31.26759
416.7642, 31.72752
417.2463, 32.02164
417.7284, 32.23646
418.2105, 32.59273
418.6927, 33.30666
419.1748, 34.13891
419.6569, 34.93288
420.1390, 35.68034
420.6211, 36.37500
421.1032, 36.80872
421.5854, 37.28343
422.0675, 38.12299
422.5496, 40.01231
423.0317, 41.66516
423.5138, 42.49416
423.9959, 42.65527
424.4781, 43.21483
424.9602, 44.62149
425.4423, 46.23515
425.9244, 47.76110
426.4065, 49.07135
426.8886, 50.49449
427.3708, 52.00561
427.8529, 53.65089
428.3350, 55.53406
428.8171, 57.79411
429.2992, 60.03653
429.7813, 62.15672
430.2635, 64.14951
430.7456, 66.17764
431.2277, 68.28178
431.7098, 70.30369
432.1919, 72.14320
432.6740, 73.80639
433.1562, 75.23848
433.6383, 76.47939
434.1204, 77.41893
434.6025, 77.86382
435.0846, 77.81429
435.5667, 77.26015
436.0489, 76.12282
436.5310, 74.46449
437.0131, 72.47794
437.4952, 70.15688
437.9773, 67.56236
438.4594, 64.64553
438.9416, 61.50605
439.4237, 58.33192
439.9058, 55.03990
440.3879, 51.90987
440.8700, 49.16409
441.3521, 46.77135
441.8343, 44.62238
442.3164, 42.69317
442.7985, 40.96072
443.2806, 39.39269
443.7627, 37.98803
444.2448, 36.79747
444.7270, 35.95333
445.2091, 35.30885
445.6912, 34.69570
446.1733, 34.05001
446.6554, 33.45180
447.1375, 32.94439
447.6197, 32.51817
448.1018, 32.08748
448.5839, 31.56324
449.0660, 31.10622
449.5481, 30.80599
450.0302, 30.75612
450.5124, 30.66561
450.9945, 30.52444
451.4766, 30.35129
451.9587, 30.16479
452.4408, 29.93775
452.9229, 29.77426
453.4051, 29.71213
453.8872, 29.74105
454.3693, 29.78069
454.8514, 29.83753
455.3335, 29.87784
455.8156, 29.85707
456.2978, 29.78422
456.7799, 29.75690
457.2620, 29.80500
457.7441, 29.85691
458.2262, 29.78038
458.7083, 29.60324
459.1905, 29.44997
459.6726, 29.38047
460.1547, 29.37311
460.6368, 29.41326
461.1189, 29.49882
461.6010, 29.58659
462.0832, 29.61254
462.5653, 29.63726
463.0474, 29.72759
463.5295, 29.90060
464.0116, 30.14505
464.4937, 30.49510
464.9759, 30.91137
465.4580, 31.30239
465.9401, 31.56383
466.4222, 31.86273
466.9043, 32.26995
467.3864, 32.79969
467.8686, 33.36682
468.3507, 33.94926
468.8328, 34.57489
469.3149, 35.26459
469.7970, 36.04921
470.2791, 36.84367
470.7613, 37.63298
471.2434, 38.42606
471.7255, 39.25293
472.2076, 40.13295
472.6897, 40.99722
473.1718, 41.82105
473.6540, 42.60082
474.1361, 43.46372
474.6182, 44.44466
475.1003, 45.38267
475.5824, 46.07927
476.0645, 46.56248
476.5467, 47.07723
477.0288, 47.73360
477.5109, 48.34796
477.9930, 48.54889
478.4751, 48.41007
478.9572, 48.28108
479.4394, 48.45316
479.9215, 48.70326
480.4036, 48.77393
480.8857, 48.65211
481.3678, 48.34591
481.8499, 47.69171
482.3321, 46.91962
482.8142, 46.29815
483.2963, 45.98530
483.7784, 45.71448
484.2605, 45.40503
484.7426, 45.06254
485.2248, 44.70223
485.7069, 44.25869
486.1890, 43.86601
486.6711, 43.54771
487.1532, 43.28418
487.6353, 43.22076
488.1175, 43.40873
488.5996, 43.75269
489.0817, 44.18604
489.5638, 44.71679
490.0459, 45.29370
490.5280, 45.86507
491.0102, 46.50689
491.4923, 47.47509
491.9744, 48.83777
492.4565, 50.21515
492.9386, 51.44851
493.4207, 52.57092
493.9029, 53.75834
494.3850, 55.02240
494.8671, 56.33177
495.3492, 57.78006
495.8313, 59.26903
496.3134, 60.54972
496.7956, 61.58358
497.2777, 62.36010
497.7598, 62.87590
498.2419, 63.11886
498.7240, 63.04335
499.2061, 62.53238
499.6883, 61.76723
500.1704, 60.89837
500.6525, 59.92834
501.1346, 58.70602
501.6167, 57.08534
502.0988, 55.22731
502.5810, 53.23890
503.0631, 50.95957
503.5452, 48.77909
504.0273, 46.73307
504.5094, 44.82348
504.9915, 43.12071
505.4737, 41.74932
505.9558, 40.39445
506.4379, 38.92760
506.9200, 37.37173
507.4021, 36.18535
507.8842, 35.44763
508.3664, 34.86408
508.8485, 34.22719
509.3306, 33.53474
509.8127, 32.88884
510.2948, 32.29204
510.7769, 31.76000
511.2591, 31.32903
511.7412, 30.99268
512.2233, 30.72817
512.7054, 30.55466
513.1875, 30.42185
513.6696, 30.22850
514.1517, 29.99508
514.6339, 29.83416
515.1160, 29.85402
515.5981, 29.95931
516.0802, 30.06834
516.5623, 30.17238
517.0444, 30.26876
517.5266, 30.31991
518.0087, 30.37760
518.4908, 30.49829
518.9729, 30.64446
519.4550, 30.91215
519.9371, 31.37925
520.4193, 32.00185
520.9014, 32.56948
521.3835, 33.07879
521.8656, 33.54088
522.3477, 33.93094
522.8298, 34.22369
523.3120, 34.67101
523.7941, 35.31158
524.2762, 36.00813
524.7583, 36.62818
525.2404, 37.17162
525.7225, 37.70475
526.2047, 38.23836
526.6868, 38.77233
527.1689, 39.28112
527.6510, 39.77633
528.1331, 40.34142
528.6152, 41.09106
529.0974, 41.90215
529.5795, 42.58600
530.0616, 43.15666
530.5437, 43.75283
531.0258, 44.52235
531.5079, 45.33633
531.9901, 46.09600
532.4722, 46.78725
532.9543, 47.41423
533.4364, 47.93509
533.9185, 48.41051
534.4006, 48.93279
534.8828, 49.60825
535.3649, 50.23086
535.8470, 50.77557
536.3291, 51.24014
536.8112, 51.56879
537.2933, 51.78404
537.7755, 51.82566
538.2576, 51.61326
538.7397, 51.09542
539.2218, 50.74375
539.7039, 50.61067
540.1860, 50.51030
540.6682, 50.22709
541.1503, 49.77873
541.6324, 49.34040
542.1145, 48.94657
542.5966, 48.58655
543.0787, 48.28297
543.5609, 48.00989
544.0430, 47.66980
544.5251, 47.21189
545.0072, 46.66344
545.4893, 46.05398
545.9714, 45.38407
546.4536, 44.64904
546.9357, 43.83800
547.4178, 42.96589
547.8999, 42.02546
548.3820, 40.94678
548.8641, 39.96009
549.3463, 39.12292
549.8284, 38.39973
550.3105, 37.73873
550.7926, 37.08606
551.2747, 36.57587
551.7568, 36.24801
552.2390, 36.07193
552.7211, 35.93382
553.2032, 35.86805
553.6853, 35.73376
554.1674, 35.40681
554.6495, 34.90980
555.1317, 34.61336
555.6138, 34.54194
556.0959, 34.52224
556.5780, 34.35952
557.0601, 34.11942
557.5422, 33.98272
558.0244, 33.99575
558.5065, 34.09269
558.9886, 34.22168
559.4707, 34.38485
559.9528, 34.58311
560.4349, 34.75866
560.9171, 35.02326
561.3992, 35.49092
561.8813, 36.13159
562.3634, 36.71813
562.8455, 37.08546
563.3276, 37.47541
563.8098, 38.00754
564.2919, 38.68709
564.7740, 39.48024
565.2561, 40.44526
565.7382, 41.46482
566.2203, 42.42651
566.7025, 43.30448
567.1846, 44.26410
567.6667, 45.36249
568.1488, 46.52985
568.6309, 47.55767
569.1130, 48.46555
569.5952, 49.49466
570.0773, 50.79422
570.5594, 52.26707
571.0415, 53.84404
571.5236, 55.51469
572.0057, 57.10753
572.4879, 58.52951
572.9700, 59.82499
573.4521, 61.01946
573.9342, 62.11045
574.4163, 63.20349
574.8984, 64.51939
575.3806, 65.78111
575.8627, 66.72136
576.3448, 67.26688
576.8269, 67.49220
577.3090, 67.38752
577.7911, 66.97937
578.2733, 66.29813
578.7554, 65.31673
579.2375, 64.13343
579.7196, 62.76934
580.2017, 61.21910
580.6838, 59.54698
581.1660, 57.76358
581.6481, 55.83561
582.1302, 53.67828
582.6123, 51.34959
583.0944, 49.12154
583.5765, 47.00512
584.0587, 45.02440
584.5408, 43.29660
585.0229, 41.72868
585.5050, 40.15136
585.9871, 38.43286
586.4692, 36.81872
586.9514, 35.46734
587.4335, 34.30762
587.9156, 33.22197
588.3977, 32.12786
588.8798, 31.14539
589.3619, 30.35532
589.8441, 29.75631
590.3262, 29.11610
590.8083, 28.38922
591.2904, 27.68902
591.7725, 27.07880
592.2546, 26.57360
592.7368, 26.06277
593.2189, 25.53368
593.7010, 25.03152
594.1831, 24.61018
594.6652, 24.26944
595.1473, 23.95559
595.6295, 23.66578
596.1116, 23.38308
596.5937, 23.07675
597.0758, 22.75851
597.5579, 22.45695
598.0400, 22.20992
598.5222, 21.97172
599.0043, 21.69702
599.4864, 21.39817
599.9685, 21.13615
600.4506, 20.95635
600.9327, 20.80297
601.4149, 20.64960
601.8970, 20.49298
602.3791, 20.34657
602.8612, 20.20274
603.3433, 20.07525
603.8254, 19.98600
604.3076, 19.95659
604.7897, 19.87059
605.2718, 19.70188
605.7539, 19.50626
606.2360, 19.38549
606.7181, 19.33113
607.2003, 19.26194
607.6824, 19.12905
608.1645, 18.99597
608.6466, 18.97998
609.1287, 19.05725
609.6108, 19.13787
610.0930, 19.18846
610.5751, 19.21013
611.0572, 19.19399
611.5393, 19.14108
612.0214, 19.09110
612.5035, 19.05266
612.9857, 19.02463
613.4678, 19.00331
613.9499, 18.97639
614.4320, 18.98970
614.9141, 19.07852
615.3962, 19.17525
615.8784, 19.19468
616.3605, 19.10756
616.8426, 19.08443
617.3247, 19.16693
617.8068, 19.29837
618.2889, 19.37449
618.7711, 19.39832
619.2532, 19.38707
619.7353, 19.31682
620.2174, 19.23887
620.6995, 19.24809
621.1816, 19.32604
621.6638, 19.38113
622.1459, 19.32252
622.6280, 19.25201
623.1101, 19.25319
623.5922, 19.34003
624.0743, 19.40745
624.5565, 19.43711
625.0386, 19.43068
625.5207, 19.38652
626.0028, 19.27847
626.4849, 19.18415
626.9670, 19.08078
627.4492, 19.01464
627.9313, 19.06552
628.4134, 19.24924
628.8955, 19.40307
629.3776, 19.48708
629.8597, 19.53379
630.3419, 19.59360
630.8240, 19.66712
631.3061, 19.75772
631.7882, 19.87278
632.2703, 20.00187
632.7524, 20.14501
633.2346, 20.29586
633.7167, 20.42883
634.1988, 20.47673
634.6809, 20.54531
635.1630, 20.71243
635.6451, 21.00544
636.1273, 21.26093
636.6094, 21.39210
637.0915, 21.53924
637.5736, 21.79869
638.0557, 22.22792
638.5378, 22.59387
639.0200, 22.87422
639.5021, 23.12827
639.9842, 23.42017
640.4663, 23.74878
640.9484, 24.14473
641.4305, 24.62670
641.9127, 25.14734
642.3948, 25.61646
642.8769, 26.06831
643.3590, 26.61059
643.8411, 27.33089
644.3232, 28.12595
644.8054, 28.95337
645.2875, 29.79759
645.7696, 30.66398
646.2517, 31.53864
646.7338, 32.43951
647.2159, 33.35098
647.6981, 34.27180
648.1802, 35.29515
648.6623, 36.48739
649.1444, 37.69992
649.6265, 38.82997
650.1086, 39.87794
650.5908, 40.99551
651.0729, 42.20708
651.5550, 43.45557
652.0371, 44.70662
652.5192, 45.95860
653.0013, 47.11475
653.4835, 48.09459
653.9656, 49.15577
654.4477, 50.52917
654.9298, 52.12568
655.4119, 53.81854
655.8940, 55.58979
656.3762, 57.40944
656.8583, 59.27343
657.3404, 61.16352
657.8225, 63.03886
658.3046, 64.92439
658.7867, 66.73475
659.2689, 68.45257
659.7510, 70.07417
660.2331, 71.60384
660.7152, 73.06418
661.1973, 74.30404
661.6794, 75.25093
662.1616, 75.90049
662.6437, 76.27877
663.1258, 76.38943
663.6079, 76.07806
664.0900, 75.17717
664.5721, 73.80140
665.0543, 72.03371
665.5364, 69.82885
666.0185, 67.47773
666.5006, 65.13244
666.9827, 62.69554
667.4648, 60.06544
667.9470, 56.86497
668.4291, 53.95304
668.9112, 51.39996
669.3933, 49.09747
669.8754, 46.88057
670.3575, 44.71469
670.8397, 42.75299
671.3218, 41.04987
671.8039, 39.55666
672.2860, 38.16851
672.7681, 36.90444
673.2502, 35.73367
673.7324, 34.63633
674.2145, 33.62886
674.6966, 32.78694
675.1787, 32.07975
675.6608, 31.35340
676.1429, 30.46794
676.6251, 29.60690
677.1072, 28.87282
677.5893, 28.28856
678.0714, 27.73037
678.5535, 27.22198
679.0356, 26.69733
679.5178, 26.10047
679.9999, 25.38627
680.4820, 24.81536
680.9641, 24.40800
681.4462, 24.05715
681.9283, 23.62116
682.4105, 23.13160
682.8926, 22.73798
683.3747, 22.48268
683.8568, 22.25777
684.3389, 21.95019
684.8210, 21.59859
685.3032, 21.25666
685.7853, 20.93122
686.2674, 20.63767
686.7495, 20.38944
687.2316, 20.17435
687.7137, 19.96017
688.1959, 19.71511
688.6780, 19.51753
689.1601, 19.39267
689.6422, 19.32404
690.1243, 19.25448
690.6064, 19.18714
691.0886, 19.08513
691.5707, 18.89073
692.0528, 18.66409
692.5349, 18.58110
693.0170, 18.62482
693.4991, 18.64340
693.9813, 18.48810
694.4634, 18.29445
694.9455, 18.19691
695.4276, 18.21048
695.9097, 18.21218
696.3918, 18.13873
696.8740, 18.05806
697.3561, 18.01410
697.8382, 18.02197
698.3203, 18.01876
698.8024, 17.99741
699.2845, 17.97511
699.7667, 17.97009
700.2488, 17.98192
700.7309, 17.99304
701.2130, 18.00281
701.6951, 18.00579
702.1772, 17.98928
702.6594, 17.96163
703.1415, 17.94147
703.6236, 17.93549
704.1057, 17.93580
704.5878, 17.93276
705.0699, 17.93409
705.5521, 17.95208
706.0342, 17.98496
706.5163, 18.04274
706.9984, 18.14853
707.4805, 18.27476
707.9626, 18.34553
708.4448, 18.33652
708.9269, 18.35074
709.4090, 18.40621
709.8911, 18.51523
710.3732, 18.76573
710.8553, 19.14013
711.3374, 19.44593
711.8195, 19.48852
712.3016, 19.45756
712.7838, 19.57978
713.2659, 19.83924
713.7480, 20.09626
714.2301, 20.28024
714.7122, 20.44852
715.1943, 20.62416
715.6765, 20.80541
716.1586, 21.04502
716.6407, 21.39153
717.1228, 21.73117
717.6049, 21.97781
718.0870, 22.11600
718.5692, 22.35195
719.0513, 22.68789
719.5334, 23.10583
720.0155, 23.64511
720.4976, 24.24633
720.9797, 24.78163
721.4619, 25.21835
721.9440, 25.65645
722.4261, 26.12549
722.9082, 26.64299
723.3903, 27.24076
723.8724, 28.01406
724.3546, 28.70441
724.8367, 29.21210
725.3188, 29.65116
725.8009, 30.17194
726.2830, 30.84309
726.7651, 31.35383
727.2473, 31.66234
727.7294, 31.81620
728.2115, 31.90950
728.6936, 31.92934
729.1757, 31.79730
729.6578, 31.46555
730.1400, 31.00668
730.6221, 30.49525
731.1042, 29.90937
731.5863, 29.21348
732.0684, 28.32633
732.5505, 27.39880
733.0327, 26.46045
733.5148, 25.51738
733.9969, 24.59892
734.4790, 23.65134
734.9611, 22.85807
735.4432, 22.30436
735.9254, 21.93798
736.4075, 21.53169
736.8896, 21.08554
737.3717, 20.70382
737.8538, 20.48528
738.3359, 20.35057
738.8181, 20.21065
739.3002, 20.05634
739.7823, 19.83915
740.2644, 19.38109
740.7465, 18.97865
741.2286, 18.87344
741.7108, 19.10220
742.1929, 19.15123
742.6750, 18.82844
743.1571, 18.53728
743.6392, 18.49505
744.1213, 18.71320
744.6035, 18.83349
745.0856, 18.84492
745.5677, 18.83258
746.0498, 18.86469
746.5319, 18.92464
747.0140, 18.98487
747.4962, 19.04431
747.9783, 19.07662
748.4604, 19.00415
748.9425, 18.93381
749.4246, 18.97639
749.9067, 19.20403
750.3889, 19.36820
750.8710, 19.37815
751.3531, 19.36732
751.8352, 19.44388
752.3173, 19.63596
752.7994, 19.78144
753.2816, 19.86399
753.7637, 19.93190
754.2458, 20.05639
754.7279, 20.21417
755.2100, 20.32364
755.6921, 20.35021
756.1743, 20.40390
756.6564, 20.60559
757.1385, 20.87364
757.6206, 21.11050
758.1027, 21.32093
758.5848, 21.45898
759.0670, 21.48154
759.5491, 21.45071
760.0312, 21.43480
760.5133, 21.43464
760.9954, 21.45657
761.4775, 21.51777
761.9597, 21.56985
762.4418, 21.52818
762.9239, 21.40660
763.4060, 21.26221
763.8881, 21.10953
764.3702, 20.94509
764.8524, 20.76842
765.3345, 20.57994
765.8166, 20.38248
766.2987, 20.14223
766.7808, 19.93035
767.2629, 19.78870
767.7451, 19.67872
768.2272, 19.51845
768.7093, 19.29278
769.1914, 19.07621
769.6735, 18.89068
770.1556, 18.71937
770.6378, 18.49655
771.1199, 18.24366
771.6020, 18.07319
772.0841, 18.10773
772.5662, 18.16905
773.0483, 18.08359
773.5305, 17.89705
774.0126, 17.72635
774.4947, 17.59502
774.9768, 17.50228
775.4589, 17.46703
775.9410, 17.46990
776.4232, 17.44639
776.9053, 17.39413
777.3874, 17.31951
777.8695, 17.20933
778.3516, 17.08838
778.8337, 17.04250
779.3159, 17.05754
779.7980, 17.04973
780.2801, 16.92866
780.7622, 16.80044
781.2443, 16.77765
781.7264, 16.83372
782.2086, 16.85568
782.6907, 16.78974
783.1728, 16.70359
783.6549, 16.60701
784.1370, 16.50739
784.6191, 16.45010
785.1013, 16.44161
785.5834, 16.45049
786.0655, 16.46729
786.5476, 16.48966
787.0297, 16.52488
787.5118, 16.56639
787.9940, 16.56820
788.4761, 16.47980
788.9582, 16.36029
789.4403, 16.22692
789.9224, 16.09064
790.4045, 16.02969
790.8867, 16.15236
791.3688, 16.25625
791.8509, 16.26147
792.3330, 16.17991
792.8151, 16.14311
793.2972, 16.15621
793.7794, 16.18017
794.2615, 16.21198
794.7436, 16.23357
795.2257, 16.16433
795.7078, 16.02534
796.1899, 15.95224
796.6721, 16.10205
797.1542, 16.28058
797.6363, 16.35017
798.1184, 16.30979
798.6005, 16.28867
799.0826, 16.33583
799.5648, 16.35768
800.0469, 16.30729
800.5290, 16.19491
801.0111, 16.12407
801.4932, 16.09608
801.9753, 16.09789
802.4575, 16.14817
802.9396, 16.21088
803.4217, 16.19710
803.9038, 16.12324
804.3859, 16.10777
804.8680, 16.30480
805.3502, 16.49489
805.8323, 16.54377
806.3144, 16.44047
806.7965, 16.37279
807.2786, 16.34955
807.7607, 16.34816
808.2429, 16.36281
808.7250, 16.39140
809.2071, 16.42719
809.6892, 16.46952
810.1713, 16.49798
810.6534, 16.50051
811.1356, 16.48155
811.6177, 16.42167
812.0998, 16.33298
812.5819, 16.29708
813.0640, 16.38454
813.5461, 16.49486
814.0283, 16.58853
814.5104, 16.66645
814.9925, 16.74131
815.4746, 16.81662
815.9567, 16.87836
816.4388, 16.90703
816.9210, 16.92066
817.4031, 16.98979
817.8852, 17.10641
818.3673, 17.21133
818.8494, 17.25831
819.3315, 17.28745
819.8137, 17.33132
820.2958, 17.38693
820.7779, 17.42439
821.2600, 17.41600
821.7421, 17.41318
822.2242, 17.43085
822.7064, 17.46638
823.1885, 17.50518
823.6706, 17.54717
824.1527, 17.59228
824.6348, 17.65747
825.1169, 17.71521
825.5991, 17.68032
826.0812, 17.58737
826.5633, 17.56557
827.0454, 17.72762
827.5275, 17.92790
828.0096, 18.13857
828.4918, 18.33641
828.9739, 18.41686
829.4560, 18.28767
829.9381, 18.24604
830.4202, 18.42557
830.9023, 18.72310
831.3845, 18.79336
831.8666, 18.67010
832.3487, 18.61485
832.8308, 18.81293
833.3129, 19.07881
833.7950, 19.25060
834.2772, 19.35069
834.7593, 19.43641
835.2414, 19.47927
835.7235, 19.56739
836.2056, 19.72659
836.6877, 19.94007
837.1699, 20.16961
837.6520, 20.41783
838.1341, 20.63970
838.6162, 20.80397
839.0983, 20.96787
839.5804, 21.27331
840.0626, 21.66006
840.5447, 21.96701
841.0268, 21.99892
841.5089, 22.09421
841.9910, 22.47685
842.4731, 23.01933
842.9553, 23.47274
843.4374, 23.74045
843.9195, 24.09875
844.4016, 24.61329
844.8837, 25.19440
845.3658, 25.66294
845.8480, 26.04267
846.3301, 26.45516
846.8122, 26.91227
847.2943, 27.46533
847.7764, 28.22903
848.2585, 29.10076
848.7407, 29.92667
849.2228, 30.65345
849.7049, 31.35957
850.1870, 31.98810
850.6691, 32.65450
851.1512, 33.49377
851.6334, 34.52128
852.1155, 35.59724
852.5976, 36.69904
853.0797, 37.85167
853.5618, 39.12438
854.0439, 40.46720
854.5261, 41.79182
855.0082, 43.05971
855.4903, 44.34422
855.9724, 45.63772
856.4545, 46.99147
856.9366, 48.45728
857.4188, 50.06744
857.9009, 51.70974
858.3830, 53.38296
858.8651, 55.05449
859.3472, 56.70280
859.8293, 58.32198
860.3115, 59.88749
860.7936, 61.41145
861.2757, 62.96298
861.7578, 64.65139
862.2399, 66.36645
862.7220, 68.06693
863.2042, 69.74355
863.6863, 71.29510
864.1684, 72.63620
864.6505, 73.93443
865.1326, 75.24146
865.6147, 76.56729
866.0969, 77.99450
866.5790, 79.53303
867.0611, 80.79783
867.5432, 81.42824
868.0253, 81.73180
868.5074, 82.09206
868.9896, 82.48425
869.4717, 82.67970
869.9538, 82.66640
870.4359, 82.35683
870.9180, 81.69706
871.4001, 80.73422
871.8823, 79.66425
872.3644, 78.47814
872.8465, 77.25038
873.3286, 75.94608
873.8107, 74.66818
874.2928, 73.67178
874.7750, 72.85020
875.2571, 71.92432
875.7392, 70.58996
876.2213, 69.30151
876.7034, 68.25837
877.1855, 67.38902
877.6677, 66.52366
878.1498, 65.65012
878.6319, 64.81705
879.1140, 64.02617
879.5961, 63.30107
880.0782, 62.76444
880.5604, 62.32292
881.0425, 61.64688
881.5246, 60.58231
882.0067, 59.45429
882.4888, 58.46792
882.9709, 57.55412
883.4531, 56.62259
883.9352, 55.67051
884.4173, 54.67333
884.8994, 53.60070
885.3815, 52.52787
885.8636, 51.57035
886.3458, 50.70077
886.8279, 49.69315
887.3100, 48.52429
887.7921, 47.47472
888.2742, 46.82958
888.7563, 46.38545
889.2385, 45.95715
889.7206, 45.51176
890.2027, 45.14475
890.6848, 44.85055
891.1669, 44.66056
891.6490, 44.60826
892.1312, 44.68537
892.6133, 44.77495
893.0954, 44.87625
893.5775, 45.05223
894.0596, 45.42167
894.5417, 45.83355
895.0239, 46.11290
895.5060, 46.28333
895.9881, 46.47113
896.4702, 46.81786
896.9523, 47.07196
897.4344, 47.16944
897.9166, 47.12722
898.3987, 46.99179
898.8808, 46.75874
899.3629, 46.48159
899.8450, 46.16145
900.3271, 45.82996
900.8093, 45.55155
901.2914, 45.28813
901.7735, 44.95962
902.2556, 44.51704
902.7377, 44.03410
903.2198, 43.51516
903.7020, 42.97857
904.1841, 42.44730
904.6662, 41.93718
905.1483, 41.36132
905.6304, 40.70178
906.1125, 39.98043
906.5947, 39.19744
907.0768, 38.36351
907.5589, 37.52803
908.0410, 36.71425
908.5231, 35.80268
909.0052, 34.58338
909.4874, 33.38295
909.9695, 32.43711
910.4516, 31.78857
910.9337, 31.05034
911.4158, 30.21298
911.8979, 29.34433
912.3801, 28.42435
912.8622, 27.52491
913.3443, 26.85257
913.8264, 26.37213
914.3085, 25.91531
914.7906, 25.33703
915.2728, 24.81623
915.7549, 24.46243
916.2370, 24.24597
916.7191, 24.04761
917.2012, 23.88332
917.6833, 23.67730
918.1655, 23.38193
918.6476, 23.07084
919.1297, 22.90856
919.6118, 22.84702
920.0939, 22.74875
920.5760, 22.49626
921.0582, 22.30101
921.5403, 22.30740
922.0224, 22.40842
922.5045, 22.45176
922.9866, 22.40153
923.4688, 22.37609
923.9509, 22.36539
924.4330, 22.42762
924.9151, 22.66826
925.3972, 23.02424
925.8793, 23.27335
926.3615, 23.06247
926.8436, 23.31361
927.3257, 23.52253
927.8078, 23.69481
928.2899, 23.53720
928.7720, 23.94592
929.2542, 24.21361
929.7363, 24.53418
930.2184, 25.19778
930.7005, 25.40339
931.1826, 26.13992
931.6647, 26.53831
932.1469, 26.91576
932.6290, 27.31494
933.1111, 27.70540
933.5932, 28.18143
934.0753, 28.87133
934.5574, 29.68111
935.0396, 30.31175
935.5217, 30.66683
936.0038, 31.20329
936.4859, 32.07352
936.9680, 33.02708
937.4501, 33.67393
937.9323, 34.10557
938.4144, 34.50608
938.8965, 34.90261
939.3786, 35.35102
939.8607, 35.99586
940.3428, 36.62065
940.8250, 37.02739
941.3071, 37.18530
941.7892, 37.23238
942.2713, 37.14305
942.7534, 37.04593
943.2355, 37.05247
943.7177, 37.12067
944.1998, 37.06174
944.6819, 36.92008
945.1640, 37.09508
945.6461, 38.10194
946.1282, 39.16101
946.6104, 40.00540
947.0925, 40.60479
947.5746, 40.62198
948.0567, 39.83990
948.5388, 39.85548
949.0209, 41.47664
949.5031, 43.62002
949.9852, 44.73179
950.4673, 45.02760
950.9494, 44.90687
951.4315, 44.04902
951.9136, 43.55577
952.3958, 43.56106
952.8779, 44.23275
953.3600, 46.00471
953.8421, 49.16334
954.3242, 51.42999
954.8063, 52.67914
955.2885, 53.04492
955.7706, 52.08205
956.2527, 50.59943
956.7348, 49.71275
957.2169, 49.50662
957.6990, 49.34061
958.1811, 49.13649
958.6632, 48.76995
959.1453, 48.12471
959.6274, 47.27818
960.1096, 46.68190
960.5917, 46.33250
961.0738, 45.90948
961.5559, 45.18420
962.0380, 44.44349
962.5201, 43.97185
963.0023, 43.71633
963.4844, 43.57035
963.9665, 43.48671
964.4486, 43.55198
964.9307, 43.79634
965.4128, 44.15422
965.8950, 44.55718
966.3771, 45.00295
966.8592, 45.47955
967.3413, 45.97923
967.8234, 46.55493
968.3055, 47.06045
968.7877, 47.79068
969.2698, 49.23107
969.7519, 51.49532
970.2340, 52.93454
970.7161, 53.13923
971.1982, 53.24131
971.6804, 53.72026
972.1625, 54.43165
972.6446, 55.03719
973.1267, 55.49730
973.6088, 55.64551
974.0909, 55.31359
974.5731, 54.76093
975.0552, 54.09930
975.5373, 53.31446
976.0194, 52.36880
976.5015, 51.24475
976.9836, 50.01346
977.4658, 48.67027
977.9479, 47.29670
978.4300, 45.94030
978.9121, 44.66340
979.3942, 43.58997
979.8763, 42.74279
980.3585, 42.01547
980.8406, 41.35884
981.3227, 40.82155
981.8048, 40.42283
982.2869, 40.15896
982.7690, 40.00386
983.2512, 39.96227
983.7333, 39.97436
984.2154, 39.97156
984.6975, 40.06111
985.1796, 40.48606
985.6617, 41.10514
986.1439, 41.62236
986.6260, 41.75739
987.1081, 42.03810
987.5902, 42.59787
988.0723, 43.26509
988.5544, 43.87129
989.0366, 44.41773
989.5187, 44.79116
990.0008, 44.96788
990.4829, 45.25216
990.9650, 46.03025
991.4471, 46.93839
991.9293, 47.61213
992.4114, 48.01628
992.8935, 48.59235
993.3756, 49.34077
993.8577, 50.31551
994.3398, 51.58151
994.8220, 53.03034
995.3041, 54.31559
995.7862, 55.51099
996.2683, 56.94232
996.7504, 58.79941
997.2325, 60.77648
997.7147, 62.62892
998.1968, 64.55880
998.6789, 66.86757
999.1610, 69.73373
999.6431, 72.34774
1000.125, 74.60390
1000.607, 76.82211
1001.089, 79.36557
1001.572, 81.97984
1002.054, 84.32161
1002.536, 86.33491
1003.018, 87.94449
1003.500, 89.12801
1003.982, 89.80392
1004.464, 89.93505
1004.946, 89.57035
1005.429, 88.85495
1005.911, 87.78146
1006.393, 86.29285
1006.875, 84.25111
1007.357, 82.06525
1007.839, 80.03809
1008.321, 78.09456
1008.803, 76.07555
1009.285, 73.76467
1009.768, 71.94081
1010.250, 70.76261
1010.732, 69.72192
1011.214, 68.43129
1011.696, 66.97315
1012.178, 65.74623
1012.660, 64.72133
1013.142, 63.65564
1013.625, 62.32696
1014.107, 61.02370
1014.589, 59.97187
1015.071, 59.03824
1015.553, 57.95370
1016.035, 56.69572
1016.517, 55.39864
1016.999, 54.06214
1017.481, 52.80060
1017.964, 51.82077
1018.446, 51.00013
1018.928, 50.13766
1019.410, 49.17970
1019.892, 48.31459
1020.374, 47.61097
1020.856, 46.96465
1021.338, 46.31301
1021.820, 45.67633
1022.303, 45.23494
1022.785, 44.95602
1023.267, 44.62090
1023.749, 44.07468
1024.231, 43.48557
1024.713, 42.96309
1025.195, 42.47296
1025.677, 41.94835
1026.160, 41.36732
1026.642, 40.81847
1027.124, 40.30561
1027.606, 39.83205
1028.088, 39.40191
1028.570, 39.01479
1029.052, 38.63985
1029.534, 38.28361
1030.016, 38.03499
1030.499, 38.01190
1030.981, 38.01576
1031.463, 37.96745
1031.945, 37.89054
1032.427, 37.82158
1032.909, 37.77023
1033.391, 37.93077
1033.873, 38.42308
1034.356, 38.98265
1034.838, 39.38697
1035.320, 39.71955
1035.802, 40.07796
1036.284, 40.50610
1036.766, 40.87836
1037.248, 41.18209
1037.730, 41.46532
1038.213, 41.82481
1038.695, 42.16933
1039.177, 42.20917
1039.659, 42.00220
1040.141, 41.78889
1040.623, 41.96592
1041.105, 41.80210
1041.587, 40.91409
1042.069, 39.65703
1042.552, 38.49096
1043.034, 37.42001
1043.516, 36.50344
1043.998, 35.75108
1044.480, 35.04168
1044.962, 34.25181
1045.444, 33.43591
1045.926, 32.62572
1046.408, 31.81820
1046.891, 31.09885
1047.373, 30.45474
1047.855, 29.94253
1048.337, 29.62410
1048.819, 29.40089
1049.301, 29.04864
1049.783, 28.62527
1050.265, 28.26902
1050.748, 28.04976
1051.230, 27.86404
1051.712, 27.63862
1052.194, 27.46750
1052.676, 27.42793
1053.158, 27.52418
1053.640, 27.69654
1054.122, 27.94293
1054.604, 28.08916
1055.087, 27.96887
1055.569, 27.73929
1056.051, 27.52403
1056.533, 27.30501
1057.015, 27.00849
1057.497, 26.60804
1057.979, 26.19625
1058.461, 25.78319
1058.943, 25.37196
1059.426, 24.97416
1059.908, 24.58013
1060.390, 24.14594
1060.872, 23.66138
1061.354, 23.23305
1061.836, 22.96509
1062.318, 22.69595
1062.800, 22.33041
1063.283, 21.92228
1063.765, 21.71199
1064.247, 21.67674
1064.729, 21.62210
1065.211, 21.46992
1065.693, 21.29406
1066.175, 21.16654
1066.657, 21.03705
1067.140, 20.82404
1067.622, 20.47425
1068.104, 20.26900
1068.586, 20.23420
1069.068, 20.22031
1069.550, 20.11514
1070.032, 19.96913
1070.514, 19.85296
1070.996, 19.76379
1071.479, 19.68661
1071.961, 19.61719
1072.443, 19.56241
1072.925, 19.53178
1073.407, 19.50303
1073.889, 19.46273
1074.371, 19.39984
1074.853, 19.22467
1075.335, 18.92780
1075.818, 18.71320
1076.300, 18.81181
1076.782, 18.93206
1077.264, 18.89307
1077.746, 18.73050
1078.228, 18.59188
1078.710, 18.47611
1079.192, 18.40686
1079.675, 18.40480
1080.157, 18.41584
1080.639, 18.36967
1081.121, 18.30853
1081.603, 18.29156
1082.085, 18.35277
1082.567, 18.35626
1083.049, 18.26501
1083.531, 18.09978
1084.014, 18.24971
1084.496, 18.30734
1084.978, 18.27800
1085.460, 17.86849
1085.942, 17.97503
1086.424, 17.89013
1086.906, 17.80788
1087.388, 18.01843
1087.870, 17.72063
1088.353, 17.94868
1088.835, 17.98215
1089.317, 18.12067
1089.799, 18.06646
1090.281, 18.08614
1090.763, 18.32051
1091.245, 18.45306
1091.727, 18.41929
1092.209, 18.20423
1092.692, 18.19005
1093.174, 18.20142
1093.656, 18.26632
1094.138, 18.39148
1094.620, 18.56266
1095.102, 18.79040
1095.584, 19.03969
1096.066, 19.28114
1096.549, 19.51007
1097.031, 19.68506
1097.513, 19.76938
1097.995, 19.88499
1098.477, 20.07792
1098.959, 20.32837
1099.441, 20.59884
1099.923, 20.89265
1100.406, 21.22943
1100.888, 21.62039
1101.370, 22.04351
1101.852, 22.51085
1102.334, 22.98327
1102.816, 23.43321
1103.298, 23.86236
1103.780, 24.29742
1104.262, 24.74473
1104.745, 25.25749
1105.227, 25.91672
1105.709, 26.59533
1106.191, 27.20749
1106.673, 27.82118
1107.155, 28.52932
1107.637, 29.34339
1108.119, 30.15565
1108.601, 30.96647
1109.084, 31.77703
1109.566, 32.59024
1110.048, 33.41367
1110.530, 34.34841
1111.012, 35.32496
1111.494, 36.00835
1111.976, 36.26327
1112.458, 36.64607
1112.941, 37.33580
1113.423, 37.94504
1113.905, 37.92814
1114.387, 37.51598
1114.869, 37.06496
1115.351, 36.61884
1115.833, 36.10579
1116.315, 35.56378
1116.797, 34.86538
1117.280, 33.92413
1117.762, 32.83277
1118.244, 31.77286
1118.726, 30.75541
1119.208, 29.75591
1119.690, 28.75179
1120.172, 27.84369
1120.654, 27.12694
1121.136, 26.47555
1121.619, 25.83064
1122.101, 25.18777
1122.583, 24.48628
1123.065, 23.73490
1123.547, 23.01063
1124.029, 22.32429
1124.511, 21.71212
1124.993, 21.21040
1125.476, 20.79161
1125.958, 20.41875
1126.440, 20.09298
1126.922, 19.80590
1127.404, 19.56153
1127.886, 19.28808
1128.368, 18.90048
1128.850, 18.48684
1129.333, 18.11146
1129.815, 17.78295
1130.297, 17.49725
1130.779, 17.24560
1131.261, 17.06226
1131.743, 16.96517
1132.225, 16.87984
1132.707, 16.70225
1133.189, 16.50113
1133.672, 16.38004
1134.154, 16.33704
1134.636, 16.27773
1135.118, 16.21111
1135.600, 16.07124
1136.082, 15.81826
1136.564, 15.53109
1137.046, 15.32021
1137.528, 15.17539
1138.011, 15.08346
1138.493, 15.04640
1138.975, 15.00058
1139.457, 14.89546
1139.939, 14.81104
1140.421, 14.78131
1140.903, 14.78969
1141.385, 14.80945
1141.868, 14.82541
1142.350, 14.76895
1142.832, 14.59419
1143.314, 14.42571
1143.796, 14.31505
1144.278, 14.24736
1144.760, 14.21809
1145.242, 14.22324
1145.724, 14.22535
1146.207, 14.22286
1146.689, 14.19602
1147.171, 14.09640
1147.653, 14.03089
1148.135, 14.13472
1148.617, 14.27211
1149.099, 14.28295
1149.581, 14.14452
1150.063, 14.00760
1150.546, 13.87118
1151.028, 13.79007
1151.510, 13.84987
1151.992, 13.93719
1152.474, 13.96671
1152.956, 13.95207
1153.438, 13.92107
1153.920, 13.86821
1154.403, 13.82923
1154.885, 13.80765
1155.367, 13.78902
1155.849, 13.76042
1156.331, 13.72835
1156.813, 13.69061
1157.295, 13.65394
1157.777, 13.65428
1158.260, 13.72637
1158.742, 13.74005
1159.224, 13.66289
1159.706, 13.57226
1160.188, 13.58702
1160.670, 13.63142
1161.152, 13.57015
1161.634, 13.26299
1162.116, 13.47751
1162.599, 13.59445
1163.081, 13.61914
1163.563, 13.27283
1164.045, 13.40740
1164.527, 13.35037
1165.009, 13.28623
1165.491, 13.49076
1165.973, 13.20247
1166.455, 13.40433
1166.938, 13.41163
1167.420, 13.50914
1167.902, 13.41384
1168.384, 13.37913
1168.866, 13.53886
1169.348, 13.59216
1169.830, 13.47774
1170.312, 13.58568
1170.795, 13.29855
1171.277, 13.35958
1171.759, 13.26079
1172.241, 13.24410
1172.723, 13.27878
1173.205, 13.29507
1173.687, 13.29359
1174.169, 13.27466
1174.651, 13.22428
1175.134, 13.18808
1175.616, 13.16996
1176.098, 13.18903
1176.580, 13.28319
1177.062, 13.43260
1177.544, 13.47087
1178.026, 13.41373
1178.508, 13.34808
1178.990, 13.31223
1179.473, 13.28209
1179.955, 13.27067
1180.437, 13.24040
1180.919, 13.12510
1181.401, 12.92930
1181.883, 12.91268
1182.365, 13.05947
1182.847, 13.19477
1183.330, 13.20379
1183.812, 13.18885
1184.294, 13.21525
1184.776, 13.23833
1185.258, 13.18317
1185.740, 13.04658
1186.222, 13.01739
1186.704, 13.10021
1187.187, 13.16990
1187.669, 13.09213
1188.151, 13.02636
1188.633, 13.12046
1189.115, 13.27382
1189.597, 13.29162
1190.079, 13.16529
1190.561, 13.11255
1191.043, 13.15436
1191.526, 13.19837
1192.008, 13.15720
1192.490, 13.10616
1192.972, 13.10830
1193.454, 13.13949
1193.936, 13.13687
1194.418, 13.09991
1194.900, 13.02258
1195.382, 12.89914
1195.865, 12.79865
1196.347, 12.78808
1196.829, 12.81697
1197.311, 12.84591
1197.793, 12.88101
1198.275, 12.96594
1198.757, 13.10804
1199.239, 13.20477
1199.722, 13.23524
1200.204, 13.21826
1200.686, 13.12571
1201.168, 13.02997
1201.650, 12.99476
1202.132, 13.01622
1202.614, 13.05985
1203.096, 13.12893
1203.578, 13.16420
1204.061, 13.14252
1204.543, 13.11379
1205.025, 13.14907
1205.507, 13.18222
1205.989, 13.12091
1206.471, 12.97448
1206.953, 12.94546
1207.435, 13.04066
1207.917, 13.13071
1208.400, 13.17890
1208.882, 13.19055
1209.364, 13.13900
1209.846, 13.07411
1210.328, 13.05862
1210.810, 13.09192
1211.292, 13.08778
1211.774, 13.04545
1212.257, 12.98079
1212.739, 12.88989
1213.221, 12.80150
1213.703, 12.70712
1214.185, 12.65233
1214.667, 12.70657
1215.149, 12.87310
1215.631, 13.00113
1216.114, 13.09118
1216.596, 13.11667
1217.078, 13.03376
1217.560, 12.93916
1218.042, 12.91970
1218.524, 12.93245
1219.006, 12.91598
1219.488, 12.85931
1219.970, 12.92137
1220.453, 13.10566
1220.935, 13.22406
1221.417, 13.13884
1221.899, 13.01589
1222.381, 12.98228
1222.863, 12.98749
1223.345, 12.96470
1223.827, 12.90617
1224.309, 12.88956
1224.792, 12.91474
1225.274, 12.93785
1225.756, 12.92136
1226.238, 12.91137
1226.720, 12.99721
1227.202, 13.07057
1227.684, 12.97127
1228.166, 12.66185
1228.649, 12.59370
1229.131, 12.75599
1229.613, 12.91858
1230.095, 12.93886
1230.577, 12.92293
1231.059, 12.91262
1231.541, 12.91607
1232.023, 12.95901
1232.505, 13.04775
1232.988, 13.00529
1233.470, 12.84109
1233.952, 12.71274
1234.434, 12.75542
1234.916, 12.81400
1235.398, 12.78083
1235.880, 12.73662
1236.362, 12.79111
1236.844, 12.94032
1237.327, 12.97850
1237.809, 12.91390
1238.291, 12.87450
1238.773, 12.98775
1239.255, 13.08150
1239.737, 13.06215
1240.219, 12.99758
1240.701, 12.94501
1241.184, 12.90637
1241.666, 12.90055
1242.148, 12.92542
1242.630, 12.95832
1243.112, 12.99498
1243.594, 13.02823
1244.076, 13.07406
1244.558, 13.09648
1245.041, 13.02260
1245.523, 12.88691
1246.005, 12.86097
1246.487, 12.93910
1246.969, 13.02338
1247.451, 13.13059
1247.933, 13.13865
1248.415, 12.96408
1248.897, 12.77974
1249.380, 12.82091
1249.862, 13.00595
1250.344, 13.08085
1250.826, 13.05119
1251.308, 13.02146
1251.790, 13.00910
1252.272, 13.04395
1252.754, 13.15319
1253.236, 13.26010
1253.719, 13.26886
1254.201, 13.21470
1254.683, 13.15196
1255.165, 13.09132
1255.647, 13.06497
1256.129, 13.11432
1256.611, 13.13770
1257.093, 13.11141
1257.576, 13.09727
1258.058, 13.20528
1258.540, 13.33971
1259.022, 13.33441
1259.504, 13.21805
1259.986, 13.15928
1260.468, 13.20531
1260.950, 13.22718
1261.432, 13.20268
1261.915, 13.19473
1262.397, 13.32542
1262.879, 13.45822
1263.361, 13.39794
1263.843, 13.20306
1264.325, 13.12309
1264.807, 13.19841
1265.289, 13.24828
1265.771, 13.09822
1266.254, 13.31535
1266.736, 13.43414
1267.218, 13.45987
1267.700, 13.11381
1268.182, 13.24784
1268.664, 13.18947
1269.146, 13.12321
1269.628, 13.32481
1270.111, 13.03281
1270.593, 13.23017
1271.075, 13.23219
1271.557, 13.32361
1272.039, 13.22144
1272.521, 13.17906
1273.003, 13.33034
1273.485, 13.37439
1273.968, 13.24992
1274.450, 13.34702
1274.932, 13.04827
1275.414, 13.09688
1275.896, 13.29537
1276.378, 13.18065
1276.860, 13.28130
1277.342, 13.29992
1277.824, 12.94578
1278.307, 13.23989
1278.789, 13.25366
1279.271, 12.97958
1279.753, 13.25149
1280.235, 13.01709
1280.717, 12.96341
1281.199, 13.04574
1281.681, 12.98628
1282.163, 13.15036
1282.646, 13.09908
1283.128, 13.02857
1283.610, 12.92863
1284.092, 13.20620
1284.574, 13.36645
1285.056, 13.34723
1285.538, 13.25915
1286.020, 13.16840
1286.503, 13.10692
1286.985, 12.93085
1287.467, 13.16682
1287.949, 13.30443
1288.431, 13.34898
1288.913, 13.02174
1289.395, 13.17459
1289.877, 13.13504
1290.359, 13.08761
1290.842, 13.30805
1291.324, 13.03488
1291.806, 13.25106
1292.288, 13.27190
1292.770, 13.38214
1293.252, 13.29879
1293.734, 13.27524
1294.216, 13.44533
1294.698, 13.50820
1295.181, 13.40259
1295.663, 13.51852
1296.145, 13.23858
1296.627, 13.30602
1297.109, 13.52333
1297.591, 13.42743
1298.073, 13.54689
1298.555, 13.58433
1299.038, 13.24904
1299.520, 13.56199
1300.002, 13.59458
1300.484, 13.49970
1300.966, 13.48681
1301.448, 13.42512
1301.930, 13.47163
1302.412, 13.59145
1302.895, 13.64767
1303.377, 13.51469
1303.859, 13.44785
1304.341, 13.46740
1304.823, 13.50491
1305.305, 13.49619
##END=



