##NAMES=Babingtonite
##RRUFFID=R060093
##IDEAL CHEMISTRY=Ca_2_Fe^2+^Fe^3+^Si_5_O_14_(OH)
##LOCALITY=Iron Cap mine, Aravaipa District, Graham County, Arizona, USA
##OWNER=RRUFF
##SOURCE=University of Arizona Mineral Museum
##DESCRIPTION=Dark prismatic striated crystals
##STATUS=The identification of this mineral has been confirmed by X-ray diffraction and chemical analysis
##URL=rruff.info/R060093
##MEASURED CHEMISTRY=Ca_2.00_(Fe^2+^_0.54_Mn_0.46_)(Fe^3+^_0.96_Al_0.04_)Si_5.00_O_14_(OH)
93.46680, 43.21366
93.94891, 43.38700
94.43103, 43.40181
94.91315, 42.79694
95.39526, 42.10315
95.87738, 41.61308
96.35950, 41.38185
96.84161, 41.35657
97.32373, 41.58874
97.80585, 42.00187
98.28796, 42.60603
98.77008, 43.50664
99.25220, 44.38935
99.73431, 44.77138
100.2164, 44.47209
100.6985, 44.09066
101.1807, 43.89232
101.6628, 43.84877
102.1449, 43.93002
102.6270, 44.12315
103.1091, 44.40827
103.5912, 44.68998
104.0734, 44.86726
104.5555, 45.14279
105.0376, 45.63702
105.5197, 46.26430
106.0018, 46.85462
106.4839, 47.26556
106.9661, 47.47963
107.4482, 47.61046
107.9303, 47.68202
108.4124, 47.66076
108.8945, 47.59121
109.3766, 47.46138
109.8588, 47.12301
110.3409, 46.35370
110.8230, 45.10636
111.3051, 43.73419
111.7872, 42.03571
112.2693, 40.29080
112.7515, 38.89491
113.2336, 37.93862
113.7157, 37.42580
114.1978, 37.40334
114.6799, 37.85591
115.1620, 38.39946
115.6442, 38.96631
116.1263, 39.53901
116.6084, 39.64798
117.0905, 38.94432
117.5726, 37.84631
118.0547, 36.47868
118.5369, 34.86378
119.0190, 33.29383
119.5011, 32.12672
119.9832, 31.34633
120.4653, 31.09306
120.9474, 31.45687
121.4296, 32.20398
121.9117, 33.26314
122.3938, 34.60484
122.8759, 36.05944
123.3580, 37.08332
123.8401, 37.51066
124.3223, 37.59093
124.8044, 37.26490
125.2865, 36.61128
125.7686, 35.71048
126.2507, 34.58103
126.7328, 33.24546
127.2150, 32.03411
127.6971, 30.95020
128.1792, 29.94640
128.6613, 28.99705
129.1434, 28.10453
129.6255, 27.30119
130.1077, 26.62161
130.5898, 26.06805
131.0719, 25.53991
131.5540, 25.03341
132.0361, 24.54667
132.5182, 24.06785
133.0004, 23.59012
133.4825, 23.14960
133.9646, 22.70935
134.4467, 22.31088
134.9288, 22.10951
135.4109, 22.22518
135.8931, 22.59810
136.3752, 23.02560
136.8573, 23.50810
137.3394, 24.04288
137.8215, 24.63464
138.3036, 25.27220
138.7858, 25.91781
139.2679, 26.47701
139.7500, 26.90313
140.2321, 27.62470
140.7142, 29.00979
141.1963, 30.40683
141.6785, 31.71543
142.1606, 32.83540
142.6427, 33.60160
143.1248, 33.79842
143.6069, 33.32347
144.0890, 32.39740
144.5712, 30.77661
145.0533, 28.96255
145.5354, 27.18965
146.0175, 25.56045
146.4996, 24.13574
146.9817, 23.03550
147.4639, 22.42430
147.9460, 21.91579
148.4281, 21.48506
148.9102, 21.15152
149.3923, 20.96829
149.8744, 20.97438
150.3566, 21.07690
150.8387, 21.06282
151.3208, 20.93772
151.8029, 20.73888
152.2850, 20.39986
152.7671, 19.97851
153.2493, 19.68054
153.7314, 19.63993
154.2135, 19.73128
154.6956, 19.70410
155.1777, 19.50875
155.6598, 19.30997
156.1420, 19.23707
156.6241, 19.29300
157.1062, 19.40856
157.5883, 19.59255
158.0704, 19.80889
158.5525, 20.01992
159.0347, 20.20681
159.5168, 20.26269
159.9989, 20.49178
160.4810, 20.66538
160.9631, 20.78785
161.4452, 20.62951
161.9274, 20.89237
162.4095, 21.02221
162.8916, 21.17111
163.3737, 21.56629
163.8558, 21.58029
164.3379, 22.02308
164.8201, 22.33051
165.3022, 22.73712
165.7843, 23.00976
166.2664, 23.35723
166.7485, 23.88983
167.2306, 24.35962
167.7128, 24.85668
168.1949, 25.47022
168.6770, 26.09787
169.1591, 26.79828
169.6412, 27.52865
170.1233, 28.20829
170.6055, 28.78020
171.0876, 29.24723
171.5697, 29.64847
172.0518, 29.95260
172.5339, 30.23539
173.0160, 30.50927
173.4982, 30.78403
173.9803, 31.11232
174.4624, 31.59316
174.9445, 32.18476
175.4266, 32.46700
175.9087, 32.41648
176.3909, 32.07988
176.8730, 31.44463
177.3551, 30.50493
177.8372, 29.41897
178.3193, 28.25017
178.8014, 27.02245
179.2836, 25.84459
179.7657, 24.70255
180.2478, 23.63248
180.7299, 22.67263
181.2120, 21.82465
181.6941, 21.10477
182.1763, 20.54047
182.6584, 20.10077
183.1405, 19.75785
183.6226, 19.51408
184.1047, 19.35768
184.5868, 19.25398
185.0690, 19.22687
185.5511, 19.22212
186.0332, 19.21511
186.5153, 19.20775
186.9974, 19.20371
187.4795, 19.20282
187.9617, 19.20598
188.4438, 19.22608
188.9259, 19.26864
189.4080, 19.32537
189.8901, 19.39687
190.3722, 19.48040
190.8544, 19.57673
191.3365, 19.69958
191.8186, 19.85867
192.3007, 19.90535
192.7828, 19.81405
193.2649, 19.63761
193.7471, 19.34788
194.2292, 18.97808
194.7113, 18.59494
195.1934, 18.25593
195.6755, 17.95411
196.1576, 17.74416
196.6398, 17.64872
197.1219, 17.60021
197.6040, 17.54703
198.0861, 17.49965
198.5682, 17.52620
199.0503, 17.71220
199.5325, 18.10394
200.0146, 18.36573
200.4967, 18.37142
200.9788, 18.35298
201.4609, 18.47358
201.9430, 18.74614
202.4252, 19.06813
202.9073, 19.34808
203.3894, 19.58022
203.8715, 19.80689
204.3536, 20.01486
204.8357, 20.22631
205.3179, 20.44732
205.8000, 20.67755
206.2821, 20.95719
206.7642, 21.33469
207.2463, 21.80298
207.7284, 22.32836
208.2106, 22.87445
208.6927, 23.48577
209.1748, 24.23201
209.6569, 25.13647
210.1390, 26.12812
210.6211, 27.26748
211.1033, 28.46943
211.5854, 29.48409
212.0675, 30.26289
212.5496, 30.79036
213.0317, 31.02208
213.5138, 30.91694
213.9960, 30.57215
214.4781, 29.97440
214.9602, 29.20956
215.4423, 28.44991
215.9244, 27.90221
216.4065, 27.44299
216.8886, 26.53974
217.3708, 24.79310
217.8529, 23.20311
218.3350, 22.22155
218.8171, 21.69712
219.2992, 21.34423
219.7813, 21.01676
220.2635, 20.71473
220.7456, 20.44455
221.2277, 20.22937
221.7098, 20.02271
222.1919, 19.80972
222.6740, 19.59433
223.1562, 19.37744
223.6383, 19.15035
224.1204, 18.92034
224.6025, 18.77836
225.0846, 18.78956
225.5667, 18.83292
226.0489, 18.86153
226.5310, 18.90375
227.0131, 19.00818
227.4952, 19.20734
227.9773, 19.49894
228.4594, 19.87771
228.9416, 20.40792
229.4237, 20.96020
229.9058, 21.53931
230.3879, 22.11799
230.8700, 22.66360
231.3521, 23.16596
231.8343, 23.61720
232.3164, 23.86926
232.7985, 23.90057
233.2806, 23.77788
233.7627, 23.46222
234.2448, 23.00314
234.7270, 22.48035
235.2091, 21.93697
235.6912, 21.37826
236.1733, 20.85797
236.6554, 20.41295
237.1375, 19.95544
237.6197, 19.41852
238.1018, 18.84702
238.5839, 18.34010
239.0660, 17.96212
239.5481, 17.69160
240.0302, 17.40519
240.5124, 17.02654
240.9945, 16.71631
241.4766, 16.57007
241.9587, 16.54080
242.4408, 16.50947
242.9229, 16.41161
243.4051, 16.27155
243.8872, 16.17257
244.3693, 16.13950
244.8514, 16.10501
245.3335, 16.02645
245.8156, 15.92112
246.2978, 15.84357
246.7799, 15.82207
247.2620, 15.83893
247.7441, 15.85358
248.2262, 15.86832
248.7083, 15.87650
249.1905, 15.87920
249.6726, 15.87377
250.1547, 15.84574
250.6368, 15.77518
251.1189, 15.69651
251.6010, 15.65009
252.0832, 15.62675
252.5653, 15.66532
253.0474, 15.83799
253.5295, 16.10750
254.0116, 16.30370
254.4937, 16.34168
254.9759, 16.33224
255.4580, 16.40235
255.9401, 16.55298
256.4222, 16.73084
256.9043, 16.89349
257.3864, 17.05113
257.8686, 17.25526
258.3507, 17.51100
258.8328, 17.82908
259.3149, 18.23346
259.7970, 18.71252
260.2791, 19.16851
260.7613, 19.48754
261.2434, 19.70799
261.7255, 20.07033
262.2076, 20.70324
262.6897, 21.34793
263.1718, 21.82961
263.6540, 22.17887
264.1361, 22.50652
264.6182, 22.91531
265.1003, 23.37594
265.5824, 23.73157
266.0645, 24.01813
266.5467, 24.11785
267.0288, 23.94382
267.5109, 23.56722
267.9930, 23.14200
268.4751, 22.75948
268.9572, 22.40405
269.4394, 21.98382
269.9215, 21.39611
270.4036, 20.90469
270.8857, 20.65104
271.3678, 20.53761
271.8499, 20.40499
272.3321, 20.14713
272.8142, 19.82598
273.2963, 19.66552
273.7784, 19.73655
274.2605, 19.86471
274.7426, 19.97724
275.2248, 20.11366
275.7069, 20.32401
276.1890, 20.63555
276.6711, 21.02254
277.1532, 21.39062
277.6353, 21.60025
278.1175, 22.07566
278.5996, 22.83755
279.0817, 23.68050
279.5638, 24.33273
280.0459, 24.79901
280.5280, 24.82421
281.0102, 25.18828
281.4923, 25.27545
281.9744, 25.25467
282.4565, 25.37845
282.9386, 24.94960
283.4207, 24.86808
283.9029, 24.50691
284.3850, 24.09761
284.8671, 23.73298
285.3492, 23.34521
285.8313, 22.92811
286.3134, 22.49071
286.7956, 22.02174
287.2777, 21.48730
287.7598, 20.89947
288.2419, 20.31933
288.7240, 19.81727
289.2061, 19.41326
289.6883, 19.02981
290.1704, 18.66465
290.6525, 18.32094
291.1346, 17.99063
291.6167, 17.68048
292.0988, 17.41241
292.5810, 17.20845
293.0631, 17.07253
293.5452, 16.96307
294.0273, 16.90721
294.5094, 16.85023
294.9915, 16.77137
295.4737, 16.67652
295.9558, 16.57723
296.4379, 16.47705
296.9200, 16.37932
297.4021, 16.34473
297.8842, 16.40455
298.3664, 16.49917
298.8485, 16.67299
299.3306, 16.86449
299.8127, 16.96817
300.2948, 16.91832
300.7769, 16.76721
301.2591, 16.72914
301.7412, 16.95667
302.2233, 17.11965
302.7054, 17.11123
303.1875, 17.05354
303.6696, 17.09231
304.1518, 17.28539
304.6339, 17.39981
305.1160, 17.78773
305.5981, 18.08562
306.0802, 18.29829
306.5623, 18.17054
307.0445, 18.48242
307.5266, 18.61809
308.0087, 18.74654
308.4908, 19.12024
308.9729, 19.04201
309.4550, 19.41181
309.9372, 19.60282
310.4193, 19.87564
310.9014, 19.97120
311.3835, 20.12152
311.8656, 20.44913
312.3477, 20.67857
312.8299, 20.75377
313.3120, 21.03179
313.7941, 20.94737
314.2762, 21.18100
314.7583, 21.55183
315.2404, 21.63590
315.7226, 21.78252
316.2047, 21.95010
316.6868, 21.99203
317.1689, 21.92294
317.6510, 21.97727
318.1331, 22.24802
318.6153, 22.53989
319.0974, 22.82669
319.5795, 23.10532
320.0616, 23.37711
320.5437, 23.64274
321.0258, 23.90128
321.5080, 24.15397
321.9901, 24.45118
322.4722, 24.66911
322.9543, 24.69847
323.4364, 24.69549
323.9185, 24.82726
324.4007, 25.14535
324.8828, 25.56458
325.3649, 25.93615
325.8470, 26.23937
326.3291, 26.53209
326.8112, 26.80013
327.2934, 27.07151
327.7755, 27.38687
328.2576, 27.73919
328.7397, 28.07388
329.2218, 28.33529
329.7039, 28.52277
330.1861, 28.63358
330.6682, 28.66984
331.1503, 28.64030
331.6324, 28.55545
332.1145, 28.40789
332.5966, 28.16589
333.0788, 27.78882
333.5609, 27.29070
334.0430, 26.91519
334.5251, 26.80381
335.0072, 26.66492
335.4893, 26.41149
335.9715, 26.10384
336.4536, 25.83594
336.9357, 25.65813
337.4178, 25.53782
337.8999, 25.38192
338.3820, 25.16065
338.8642, 24.94476
339.3463, 24.78853
339.8284, 24.61244
340.3105, 24.32462
340.7926, 23.90668
341.2747, 23.44557
341.7568, 23.07827
342.2390, 22.85968
342.7211, 22.60108
343.2032, 22.23430
343.6853, 21.89017
344.1674, 21.63201
344.6495, 21.46657
345.1317, 21.37146
345.6138, 21.32312
346.0959, 21.31911
346.5780, 21.40277
347.0601, 21.65684
347.5422, 21.92490
348.0244, 22.13925
348.5065, 22.34094
348.9886, 22.62716
349.4707, 23.07475
349.9528, 23.61668
350.4349, 23.97320
350.9171, 24.08818
351.3992, 24.08772
351.8813, 24.00838
352.3634, 23.83845
352.8455, 23.54663
353.3276, 23.12296
353.8098, 22.62911
354.2919, 22.16401
354.7740, 21.73063
355.2561, 21.31816
355.7382, 20.89623
356.2203, 20.51544
356.7025, 20.22933
357.1846, 20.03010
357.6667, 19.84854
358.1488, 19.59100
358.6309, 19.25154
359.1130, 19.03416
359.5952, 18.98924
360.0773, 19.02544
360.5594, 19.12167
361.0415, 19.26488
361.5236, 19.43908
362.0057, 19.65074
362.4879, 19.87582
362.9700, 20.04480
363.4521, 20.15236
363.9342, 20.21011
364.4163, 20.18244
364.8984, 20.12935
365.3806, 20.11927
365.8627, 20.17775
366.3448, 20.25043
366.8269, 20.25459
367.3090, 20.17881
367.7911, 20.14085
368.2733, 20.18981
368.7554, 20.26965
369.2375, 20.35528
369.7196, 20.44141
370.2017, 20.49792
370.6838, 20.48921
371.1660, 20.42844
371.6481, 20.37547
372.1302, 20.33011
372.6123, 20.30263
373.0944, 20.29743
373.5765, 20.31327
374.0587, 20.35128
374.5408, 20.42674
375.0229, 20.51465
375.5050, 20.58474
375.9871, 20.63837
376.4692, 20.65864
376.9514, 20.61541
377.4335, 20.54252
377.9156, 20.48367
378.3977, 20.43397
378.8798, 20.42178
379.3619, 20.48371
379.8441, 20.60522
380.3262, 20.72547
380.8083, 20.83226
381.2904, 20.92566
381.7725, 20.99700
382.2546, 21.04643
382.7368, 21.11506
383.2189, 21.25066
383.7010, 21.39932
384.1831, 21.49840
384.6652, 21.54276
385.1473, 21.51111
385.6295, 21.37812
386.1116, 21.14374
386.5937, 20.86165
387.0758, 20.53899
387.5579, 20.16513
388.0400, 19.69358
388.5222, 19.15800
389.0043, 18.66232
389.4864, 18.25704
389.9685, 17.92125
390.4506, 17.60905
390.9327, 17.31325
391.4149, 17.04536
391.8970, 16.83432
392.3791, 16.64064
392.8612, 16.39490
393.3433, 16.08664
393.8254, 15.80287
394.3076, 15.64898
394.7897, 15.65274
395.2718, 15.65922
395.7539, 15.68462
396.2360, 15.69791
396.7181, 15.66732
397.2003, 15.60781
397.6824, 15.56776
398.1645, 15.58165
398.6466, 15.63292
399.1287, 15.63678
399.6108, 15.56638
400.0930, 15.47908
400.5751, 15.38581
401.0572, 15.27586
401.5393, 15.14292
402.0214, 14.98339
402.5035, 14.78372
402.9857, 14.50923
403.4678, 14.09545
403.9499, 13.79814
404.4320, 13.73036
404.9141, 13.65839
405.3962, 13.45738
405.8784, 13.14781
406.3605, 12.81252
406.8426, 12.50218
407.3247, 12.22459
407.8068, 12.05916
408.2889, 12.11233
408.7711, 12.12768
409.2532, 12.03105
409.7353, 11.87910
410.2174, 11.71549
410.6995, 11.55558
411.1816, 11.43542
411.6638, 11.43126
412.1459, 11.57481
412.6280, 11.66157
413.1101, 11.62385
413.5922, 11.55377
414.0743, 11.47654
414.5565, 11.40547
415.0386, 11.37490
415.5207, 11.44616
416.0028, 11.57821
416.4849, 11.60910
416.9670, 11.49790
417.4492, 11.38769
417.9313, 11.34169
418.4134, 11.34462
418.8955, 11.38962
419.3776, 11.48945
419.8597, 11.59738
420.3419, 11.65975
420.8240, 11.68310
421.3061, 11.72609
421.7882, 11.79748
422.2703, 11.90658
422.7524, 12.06948
423.2346, 12.28503
423.7167, 12.50793
424.1988, 12.73658
424.6809, 12.95653
425.1630, 13.11822
425.6451, 13.21531
426.1273, 13.38242
426.6094, 13.74766
427.0915, 14.27077
427.5736, 14.70029
428.0557, 14.92659
428.5378, 15.17925
429.0200, 15.58654
429.5021, 16.08951
429.9842, 16.56261
430.4663, 16.96048
430.9484, 17.32556
431.4305, 17.73075
431.9127, 18.21363
432.3948, 18.64266
432.8769, 19.06108
433.3590, 19.38956
433.8411, 19.57334
434.3232, 19.61074
434.8054, 19.52484
435.2875, 19.32875
435.7696, 19.02676
436.2517, 18.65510
436.7338, 18.15222
437.2159, 17.64730
437.6981, 17.15518
438.1802, 16.67277
438.6623, 16.18406
439.1444, 15.68781
439.6265, 15.20917
440.1086, 14.79307
440.5908, 14.46360
441.0729, 14.11875
441.5550, 13.69341
442.0371, 13.30997
442.5192, 13.03693
443.0013, 12.85213
443.4835, 12.69402
443.9656, 12.52740
444.4477, 12.35681
444.9298, 12.19739
445.4119, 12.03988
445.8940, 11.91643
446.3762, 11.84121
446.8583, 11.80182
447.3404, 11.81014
447.8225, 11.87003
448.3046, 11.90860
448.7867, 11.81289
449.2689, 11.62301
449.7510, 11.58525
450.2331, 11.80913
450.7152, 12.03157
451.1973, 11.98955
451.6794, 11.77609
452.1616, 11.62805
452.6437, 11.65566
453.1258, 11.73627
453.6079, 11.75093
454.0900, 11.71012
454.5721, 11.68670
455.0543, 11.72228
455.5364, 11.77808
456.0185, 11.76154
456.5006, 11.64534
456.9827, 11.57649
457.4648, 11.65109
457.9470, 11.75407
458.4291, 11.73828
458.9112, 11.59796
459.3933, 11.46697
459.8754, 11.46120
460.3575, 11.57642
460.8397, 11.65366
461.3218, 11.71060
461.8039, 11.71666
462.2860, 11.60365
462.7681, 11.45599
463.2502, 11.38911
463.7324, 11.44236
464.2145, 11.56572
464.6966, 11.68575
465.1787, 11.80637
465.6608, 11.90908
466.1429, 11.97320
466.6251, 12.04003
467.1072, 12.12886
467.5893, 12.23563
468.0714, 12.33771
468.5535, 12.40860
469.0356, 12.48848
469.5178, 12.71300
469.9999, 13.14911
470.4820, 13.55397
470.9641, 13.87253
471.4462, 14.13302
471.9283, 14.32024
472.4105, 14.44104
472.8926, 14.59462
473.3747, 14.88956
473.8568, 15.28359
474.3389, 15.61017
474.8210, 15.84401
475.3032, 16.05624
475.7853, 16.32660
476.2674, 16.60293
476.7495, 16.77109
477.2316, 16.77316
477.7137, 16.72460
478.1959, 16.70969
478.6780, 16.70794
479.1601, 16.65249
479.6422, 16.51732
480.1243, 16.35009
480.6064, 16.22428
481.0886, 16.15553
481.5707, 16.00494
482.0528, 15.70483
482.5349, 15.37306
483.0170, 15.06964
483.4991, 14.80082
483.9813, 14.56944
484.4634, 14.37856
484.9455, 14.21544
485.4276, 14.03967
485.9097, 13.80547
486.3918, 13.62919
486.8740, 13.54762
487.3561, 13.49462
487.8382, 13.40485
488.3203, 13.28676
488.8024, 13.21052
489.2845, 13.24033
489.7667, 13.36712
490.2488, 13.49502
490.7309, 13.60854
491.2130, 13.75113
491.6951, 13.92014
492.1772, 14.12676
492.6594, 14.39295
493.1415, 14.72376
493.6236, 15.07282
494.1057, 15.39708
494.5878, 15.69886
495.0699, 15.98759
495.5521, 16.26580
496.0342, 16.52721
496.5163, 16.76696
496.9984, 16.98653
497.4805, 17.18752
497.9626, 17.43425
498.4448, 17.58930
498.9269, 17.51053
499.4090, 17.23942
499.8911, 16.91557
500.3732, 16.58065
500.8553, 16.22721
501.3375, 15.83166
501.8196, 15.37761
502.3017, 14.96837
502.7838, 14.63671
503.2659, 14.32927
503.7480, 14.01729
504.2302, 13.69830
504.7123, 13.36261
505.1944, 12.99991
505.6765, 12.63761
506.1586, 12.35679
506.6407, 12.21070
507.1228, 12.06319
507.6049, 11.89988
508.0871, 11.74164
508.5692, 11.59248
509.0513, 11.45982
509.5334, 11.36635
510.0155, 11.34769
510.4977, 11.37537
510.9798, 11.28990
511.4619, 11.00152
511.9440, 10.80373
512.4261, 10.87096
512.9083, 11.02189
513.3904, 11.11141
513.8725, 11.11595
514.3546, 11.06819
514.8367, 10.96868
515.3188, 10.83641
515.8010, 10.71091
516.2831, 10.58537
516.7652, 10.52008
517.2473, 10.58319
517.7294, 10.73864
518.2115, 10.85860
518.6937, 10.93524
519.1758, 10.98145
519.6579, 10.97413
520.1400, 10.94862
520.6221, 10.96126
521.1042, 11.02567
521.5864, 11.12541
522.0685, 11.24801
522.5506, 11.39781
523.0327, 11.52552
523.5148, 11.64128
523.9969, 11.72918
524.4791, 11.75682
524.9612, 11.76289
525.4433, 11.79511
525.9254, 11.87115
526.4075, 11.98517
526.8896, 12.14874
527.3718, 12.38889
527.8539, 12.53193
528.3360, 12.45602
528.8181, 12.41330
529.3002, 12.53224
529.7823, 12.75352
530.2645, 12.96687
530.7466, 13.13312
531.2287, 13.26297
531.7108, 13.33514
532.1929, 13.35832
532.6750, 13.48086
533.1572, 13.78380
533.6393, 14.11891
534.1214, 14.31514
534.6035, 14.39448
535.0856, 14.49372
535.5677, 14.69502
536.0499, 14.87811
536.5320, 14.94172
537.0141, 14.91096
537.4962, 14.86023
537.9783, 14.81641
538.4604, 14.79410
538.9426, 14.81997
539.4247, 14.90834
539.9068, 15.01462
540.3889, 15.16967
540.8710, 15.31159
541.3531, 15.41643
541.8353, 15.48164
542.3174, 15.50804
542.7995, 15.49473
543.2816, 15.45221
543.7637, 15.40584
544.2458, 15.36188
544.7280, 15.29224
545.2101, 15.20665
545.6922, 15.08000
546.1743, 14.87878
546.6564, 14.61982
547.1385, 14.36446
547.6207, 14.14147
548.1028, 13.93834
548.5849, 13.73458
549.0670, 13.53062
549.5491, 13.35064
550.0313, 13.21197
550.5134, 13.09015
550.9955, 12.94589
551.4776, 12.77793
551.9597, 12.62647
552.4418, 12.53505
552.9240, 12.43471
553.4061, 12.24281
553.8882, 11.99089
554.3703, 11.78520
554.8524, 11.68015
555.3345, 11.64442
555.8167, 11.60586
556.2988, 11.55080
556.7809, 11.52089
557.2630, 11.54429
557.7451, 11.56313
558.2272, 11.52482
558.7094, 11.45546
559.1915, 11.42711
559.6736, 11.48691
560.1557, 11.59141
560.6378, 11.65663
561.1199, 11.68202
561.6021, 11.66475
562.0842, 11.55318
562.5663, 11.45312
563.0484, 11.45134
563.5305, 11.53677
564.0126, 11.64675
564.4948, 11.74306
564.9769, 11.86473
565.4590, 12.08125
565.9411, 12.36781
566.4232, 12.60680
566.9053, 12.74963
567.3875, 12.83725
567.8696, 12.91800
568.3517, 12.95839
568.8338, 13.12784
569.3159, 13.54481
569.7980, 13.97219
570.2802, 14.27525
570.7623, 14.49604
571.2444, 14.74251
571.7265, 15.06302
572.2086, 15.41519
572.6907, 15.71577
573.1729, 15.95135
573.6550, 16.19390
574.1371, 16.14841
574.6192, 16.68451
575.1013, 17.07294
575.5834, 17.31852
576.0656, 17.16612
576.5477, 17.39561
577.0298, 17.39132
577.5119, 17.32219
577.9940, 17.44069
578.4761, 17.04965
578.9583, 17.04895
579.4404, 16.81182
579.9225, 16.41207
580.4046, 16.03182
580.8867, 15.63594
581.3688, 15.19165
581.8510, 14.76908
582.3331, 14.42827
582.8152, 14.11754
583.2973, 13.72560
583.7794, 13.23487
584.2615, 12.76851
584.7437, 12.49182
585.2258, 12.42162
585.7079, 12.23822
586.1900, 11.79689
586.6721, 11.42114
587.1542, 11.22970
587.6363, 11.12038
588.1184, 10.97780
588.6005, 10.77509
589.0826, 10.57274
589.5648, 10.43333
590.0469, 10.33954
590.5290, 10.22360
591.0111, 10.07539
591.4932, 9.933036
591.9753, 9.807694
592.4575, 9.708032
592.9396, 9.655433
593.4217, 9.675437
593.9038, 9.673544
594.3859, 9.609797
594.8680, 9.516369
595.3502, 9.411722
595.8323, 9.307283
596.3144, 9.234656
596.7965, 9.220883
597.2786, 9.244740
597.7607, 9.227847
598.2429, 9.148467
598.7250, 9.066341
599.2071, 8.969871
599.6892, 8.885716
600.1713, 8.832355
600.6534, 8.806611
601.1356, 8.794995
601.6177, 8.794946
602.0998, 8.797410
602.5819, 8.790218
603.0640, 8.773366
603.5461, 8.729096
604.0283, 8.625797
604.5104, 8.536185
604.9925, 8.568353
605.4746, 8.705404
605.9567, 8.800661
606.4388, 8.814158
606.9210, 8.801115
607.4031, 8.788665
607.8852, 8.774195
608.3673, 8.746368
608.8494, 8.702761
609.3315, 8.660517
609.8137, 8.644220
610.2958, 8.657748
610.7779, 8.655634
611.2600, 8.591143
611.7421, 8.569747
612.2242, 8.660406
612.7064, 8.784226
613.1885, 8.849253
613.6706, 8.836226
614.1527, 8.799984
614.6348, 8.780042
615.1169, 8.774425
615.5991, 8.779310
616.0812, 8.795847
616.5633, 8.812104
617.0454, 8.820844
617.5275, 8.826253
618.0096, 8.834588
618.4918, 8.838184
618.9739, 8.867387
619.4560, 8.957122
619.9381, 9.052286
620.4202, 9.109106
620.9023, 9.130075
621.3845, 9.135745
621.8666, 9.137081
622.3487, 9.132218
622.8308, 9.111043
623.3129, 9.056204
623.7950, 9.041144
624.2772, 9.143263
624.7593, 9.210202
625.2414, 9.120372
625.7235, 8.954601
626.2056, 8.883830
626.6877, 8.992126
627.1699, 9.137114
627.6520, 9.172925
628.1341, 9.133122
628.6162, 9.127843
629.0983, 9.178516
629.5804, 9.239457
630.0626, 9.279905
630.5447, 9.299455
631.0268, 9.295599
631.5089, 9.223138
631.9910, 9.191133
632.4731, 9.248755
632.9553, 9.332103
633.4374, 9.374405
633.9195, 9.379781
634.4016, 9.404913
634.8837, 9.494311
635.3658, 9.626510
635.8480, 9.736892
636.3301, 9.823068
636.8122, 9.897996
637.2943, 9.965466
637.7764, 10.02005
638.2585, 10.03476
638.7407, 10.02686
639.2228, 10.07475
639.7049, 10.25454
640.1870, 10.44709
640.6691, 10.54719
641.1512, 10.59119
641.6334, 10.65436
642.1155, 10.75685
642.5976, 10.90313
643.0797, 11.10552
643.5618, 11.36394
644.0439, 11.58611
644.5261, 11.73656
645.0082, 11.89344
645.4903, 12.04904
645.9724, 12.22710
646.4545, 12.45998
646.9366, 12.74276
647.4188, 13.03017
647.9009, 13.28159
648.3830, 13.51575
648.8651, 13.76785
649.3472, 14.03668
649.8293, 14.34086
650.3115, 14.69855
650.7936, 15.07508
651.2757, 15.41193
651.7578, 15.70688
652.2399, 16.05802
652.7220, 16.49757
653.2042, 16.97086
653.6863, 17.44372
654.1684, 17.93355
654.6505, 18.46054
655.1326, 19.03256
655.6147, 19.66868
656.0969, 20.40361
656.5790, 21.22916
657.0611, 21.98905
657.5432, 22.62624
658.0253, 23.31702
658.5074, 24.17897
658.9896, 25.08348
659.4717, 25.94702
659.9538, 26.76064
660.4359, 27.48888
660.9180, 28.13059
661.4001, 28.66828
661.8823, 29.11929
662.3644, 29.45700
662.8465, 29.61144
663.3286, 29.55849
663.8107, 29.26907
664.2928, 28.67888
664.7750, 27.73638
665.2571, 26.82551
665.7392, 26.00083
666.2213, 25.13675
666.7034, 24.21256
667.1855, 23.22900
667.6677, 22.13476
668.1498, 20.93893
668.6319, 19.84022
669.1140, 19.05640
669.5961, 18.46720
670.0782, 17.76579
670.5604, 16.95079
671.0425, 16.21739
671.5246, 15.65645
672.0067, 15.20260
672.4888, 14.76903
672.9709, 14.35297
673.4531, 13.97205
673.9352, 13.62460
674.4173, 13.31606
674.8994, 13.08467
675.3815, 12.88119
675.8636, 12.62585
676.3458, 12.30326
676.8279, 11.97639
677.3100, 11.70639
677.7921, 11.48991
678.2742, 11.30482
678.7563, 11.14849
679.2385, 11.03309
679.7206, 10.98668
680.2027, 10.96441
680.6848, 10.91503
681.1669, 10.83877
681.6490, 10.73855
682.1312, 10.60513
682.6133, 10.45818
683.0954, 10.29078
683.5775, 10.12431
684.0596, 10.00243
684.5417, 9.937284
685.0239, 9.897189
685.5060, 9.845588
685.9881, 9.783481
686.4702, 9.742822
686.9523, 9.757141
687.4344, 9.728028
687.9166, 9.567529
688.3987, 9.393457
688.8808, 9.304168
689.3629, 9.301973
689.8450, 9.323547
690.3271, 9.357093
690.8093, 9.389720
691.2914, 9.414939
691.7735, 9.428699
692.2556, 9.411856
692.7377, 9.358721
693.2198, 9.307807
693.7020, 9.306438
694.1841, 9.353961
694.6662, 9.359034
695.1483, 9.280493
695.6304, 9.219382
696.1125, 9.221912
696.5947, 9.225132
697.0768, 9.152907
697.5589, 9.021318
698.0410, 8.939631
698.5231, 8.988544
699.0052, 9.092411
699.4874, 9.185673
699.9695, 9.256977
700.4516, 9.237555
700.9337, 9.101742
701.4158, 8.971760
701.8979, 8.977978
702.3801, 9.108544
702.8622, 9.164247
703.3443, 9.045322
703.8264, 8.982541
704.3085, 9.033540
704.7906, 8.964639
705.2728, 9.165060
705.7549, 9.285977
706.2370, 9.331754
706.7191, 9.072703
707.2012, 9.210805
707.6833, 9.191909
708.1655, 9.168060
708.6476, 9.366470
709.1297, 9.159695
709.6118, 9.357693
710.0939, 9.396267
710.5760, 9.510056
711.0582, 9.465876
711.5403, 9.472495
712.0224, 9.640236
712.5045, 9.721162
712.9866, 9.664773
713.4688, 9.792513
713.9509, 9.595592
714.4330, 9.686446
714.9151, 9.902349
715.3972, 9.861700
715.8793, 10.00005
716.3615, 10.07238
716.8436, 9.839073
717.3257, 10.14149
717.8078, 10.21444
718.2899, 10.05172
718.7720, 10.22802
719.2542, 10.29914
719.7363, 10.33613
720.2184, 10.37160
720.7005, 10.37860
721.1826, 10.41343
721.6647, 10.50885
722.1469, 10.65681
722.6290, 10.84889
723.1111, 11.08037
723.5932, 11.31610
724.0753, 11.51043
724.5574, 11.67333
725.0396, 11.85739
725.5217, 12.07023
726.0038, 12.26250
726.4859, 12.41542
726.9680, 12.53224
727.4501, 12.61340
727.9323, 12.65791
728.4144, 12.67681
728.8965, 12.72507
729.3786, 12.68774
729.8607, 12.46800
730.3428, 12.15404
730.8250, 11.84881
731.3071, 11.58218
731.7892, 11.34479
732.2713, 11.12430
732.7534, 10.93125
733.2355, 10.81396
733.7177, 10.77736
734.1998, 10.70919
734.6819, 10.56578
735.1640, 10.40619
735.6461, 10.29637
736.1282, 10.23383
736.6104, 10.14252
737.0925, 9.979075
737.5746, 9.843272
738.0567, 9.750529
738.5388, 9.702982
739.0209, 9.732934
739.5031, 9.813600
739.9852, 9.853220
740.4673, 9.788808
740.9494, 9.682190
741.4315, 9.645085
741.9136, 9.669625
742.3958, 9.654031
742.8779, 9.567600
743.3600, 9.513897
743.8421, 9.588755
744.3242, 9.739944
744.8063, 9.782608
745.2885, 9.644049
745.7706, 9.558024
746.2527, 9.573118
746.7348, 9.616606
747.2169, 9.659987
747.6990, 9.695361
748.1812, 9.709915
748.6633, 9.699733
749.1454, 9.698651
749.6275, 9.759580
750.1096, 9.858135
750.5917, 9.905839
751.0739, 9.898636
751.5560, 9.886354
752.0381, 9.884380
752.5202, 9.898177
753.0023, 9.937632
753.4844, 10.00636
753.9666, 10.07884
754.4487, 10.19003
754.9308, 10.26207
755.4129, 10.22607
755.8950, 10.17102
756.3771, 10.18061
756.8593, 10.26569
757.3414, 10.40471
757.8235, 10.63602
758.3056, 10.84896
758.7877, 10.82047
759.2698, 10.61276
759.7520, 10.53494
760.2341, 10.66133
760.7162, 10.80486
761.1983, 10.81004
761.6804, 10.70857
762.1625, 10.65743
762.6447, 10.70651
763.1268, 10.72464
763.6089, 10.70970
764.0910, 10.66411
764.5731, 10.57647
765.0552, 10.46213
765.5374, 10.34004
766.0195, 10.21081
766.5016, 10.11247
766.9837, 10.08979
767.4658, 10.10888
767.9479, 10.12166
768.4301, 10.12304
768.9122, 10.10618
769.3943, 10.06696
769.8764, 10.01945
770.3585, 9.985784
770.8406, 9.967451
771.3228, 9.946610
771.8049, 9.931654
772.2870, 9.900427
772.7691, 9.823940
773.2512, 9.746424
773.7333, 9.717733
774.2155, 9.731938
774.6976, 9.725662
775.1797, 9.641972
775.6618, 9.565492
776.1439, 9.575322
776.6260, 9.624070
777.1082, 9.630259
777.5903, 9.586112
778.0724, 9.540737
778.5545, 9.528118
779.0366, 9.543427
779.5187, 9.585848
780.0009, 9.668712
780.4830, 9.689230
780.9651, 9.598798
781.4472, 9.515082
781.9293, 9.529482
782.4114, 9.589905
782.8936, 9.591397
783.3757, 9.509344
783.8578, 9.449095
784.3399, 9.443221
784.8220, 9.460118
785.3041, 9.487609
785.7863, 9.519833
786.2684, 9.550323
786.7505, 9.577272
787.2326, 9.603393
787.7147, 9.639636
788.1968, 9.673789
788.6790, 9.649419
789.1611, 9.564862
789.6432, 9.531969
790.1253, 9.596007
790.6074, 9.678124
791.0895, 9.699702
791.5717, 9.667153
792.0538, 9.654688
792.5359, 9.666352
793.0180, 9.691398
793.5001, 9.768991
793.9822, 9.823281
794.4644, 9.782088
794.9465, 9.680143
795.4286, 9.603456
795.9107, 9.585962
796.3928, 9.583776
796.8749, 9.540621
797.3571, 9.492707
797.8392, 9.521823
798.3213, 9.622259
798.8034, 9.729233
799.2855, 9.818462
799.7676, 9.868595
800.2498, 9.839520
800.7319, 9.725146
801.2140, 9.650278
801.6961, 9.627370
802.1782, 9.621067
802.6603, 9.626123
803.1425, 9.642062
803.6246, 9.676821
804.1067, 9.724806
804.5888, 9.758376
805.0709, 9.752385
805.5530, 9.755716
806.0352, 9.819287
806.5173, 9.890063
806.9994, 9.888906
807.4815, 9.830321
807.9636, 9.797073
808.4457, 9.834962
808.9279, 9.904654
809.4100, 9.947993
809.8921, 9.966124
810.3742, 9.966467
810.8563, 9.943561
811.3384, 9.935089
811.8206, 9.967697
812.3027, 10.00913
812.7848, 10.00920
813.2669, 9.960706
813.7490, 9.918947
814.2311, 9.870761
814.7133, 9.845989
815.1954, 9.860749
815.6775, 9.896926
816.1596, 9.949010
816.6417, 10.00753
817.1238, 10.04876
817.6060, 10.05788
818.0881, 10.05216
818.5702, 10.05094
819.0523, 10.04782
819.5344, 10.02518
820.0165, 9.983180
820.4987, 9.931464
820.9808, 9.870451
821.4629, 9.836659
821.9450, 9.914351
822.4271, 10.13143
822.9092, 10.25738
823.3914, 10.26158
823.8735, 10.23327
824.3556, 10.17462
824.8377, 10.11867
825.3198, 10.11170
825.8019, 10.14899
826.2841, 10.15750
826.7662, 10.06400
827.2483, 10.01101
827.7304, 10.09591
828.2125, 10.22689
828.6946, 10.31261
829.1768, 10.34693
829.6589, 10.35737
830.1410, 10.35528
830.6231, 10.35752
831.1052, 10.39324
831.5873, 10.45343
832.0695, 10.50506
832.5516, 10.54581
833.0337, 10.56613
833.5158, 10.55885
833.9979, 10.53650
834.4800, 10.51219
834.9622, 10.48146
835.4443, 10.49802
835.9264, 10.60688
836.4085, 10.69598
836.8906, 10.72563
837.3727, 10.74463
837.8549, 10.78241
838.3370, 10.84190
838.8191, 10.92841
839.3012, 11.07119
839.7833, 11.18605
840.2654, 11.21471
840.7476, 11.20033
841.2297, 11.17076
841.7118, 11.14286
842.1939, 11.14320
842.6760, 11.18335
843.1581, 11.26332
843.6403, 11.41574
844.1224, 11.61181
844.6045, 11.66957
845.0866, 11.57634
845.5687, 11.55751
846.0508, 11.69264
846.5330, 11.89287
847.0151, 12.08169
847.4972, 12.25692
847.9793, 12.39100
848.4614, 12.44711
848.9435, 12.51712
849.4257, 12.58003
849.9078, 12.68353
850.3899, 12.90519
850.8720, 13.17090
851.3541, 13.32267
851.8362, 13.30739
852.3184, 13.34754
852.8005, 13.63082
853.2826, 13.96698
853.7647, 14.15912
854.2468, 14.26430
854.7289, 14.41354
855.2111, 14.63993
855.6932, 14.90192
856.1753, 15.16517
856.6574, 15.43252
857.1395, 15.69527
857.6216, 15.95440
858.1038, 16.31837
858.5859, 16.83737
859.0680, 17.29094
859.5501, 17.50664
860.0322, 17.59645
860.5143, 17.83433
860.9965, 18.29667
861.4786, 18.67170
861.9607, 18.86840
862.4428, 19.09555
862.9249, 19.46822
863.4070, 19.86287
863.8892, 20.12606
864.3713, 20.27198
864.8534, 20.47680
865.3355, 20.88498
865.8176, 21.26725
866.2997, 21.44278
866.7819, 21.52353
867.2640, 21.66840
867.7461, 21.86102
868.2282, 21.96371
868.7103, 21.90862
869.1924, 21.80104
869.6746, 21.81913
870.1567, 21.91501
870.6388, 21.81915
871.1209, 21.52363
871.6030, 21.22135
872.0851, 20.83403
872.5673, 20.90997
873.0494, 20.90031
873.5315, 20.80936
874.0136, 20.40744
874.4957, 20.39654
874.9778, 20.22252
875.4600, 20.03735
875.9421, 20.06837
876.4242, 19.68803
876.9063, 19.70634
877.3884, 19.55908
877.8705, 19.48092
878.3527, 19.23859
878.8348, 19.04099
879.3169, 18.99834
879.7990, 18.86275
880.2811, 18.58371
880.7632, 18.48266
881.2454, 18.05076
881.7275, 17.90057
882.2096, 17.86927
882.6917, 17.57527
883.1738, 17.45414
883.6559, 17.26086
884.1381, 16.75574
884.6202, 16.78029
885.1023, 16.56920
885.5844, 16.11631
886.0665, 16.10875
886.5486, 15.74566
887.0308, 15.64681
887.5129, 15.53581
887.9950, 15.41868
888.4771, 15.26642
888.9592, 15.01599
889.4413, 14.79427
889.9235, 14.72604
890.4056, 14.77788
890.8877, 14.81639
891.3698, 14.82307
891.8519, 14.84666
892.3340, 14.89843
892.8162, 14.96466
893.2983, 15.03710
893.7804, 15.11940
894.2625, 15.22231
894.7446, 15.34545
895.2267, 15.46330
895.7089, 15.57096
896.1910, 15.65667
896.6731, 15.70832
897.1552, 15.72907
897.6373, 15.72807
898.1194, 15.70319
898.6016, 15.63594
899.0837, 15.51470
899.5658, 15.35912
900.0479, 15.19426
900.5300, 15.02222
901.0121, 14.85824
901.4943, 14.70248
901.9764, 14.55064
902.4585, 14.39887
902.9406, 14.26048
903.4227, 14.15811
903.9048, 14.08251
904.3870, 13.95586
904.8691, 13.76729
905.3512, 13.54926
905.8333, 13.28929
906.3154, 13.01632
906.7975, 12.71948
907.2797, 12.43178
907.7618, 12.21726
908.2439, 12.09154
908.7260, 11.93547
909.2081, 11.66462
909.6902, 11.42422
910.1724, 11.32891
910.6545, 11.27097
911.1366, 11.12706
911.6187, 10.90283
912.1008, 10.66970
912.5829, 10.45108
913.0651, 10.27937
913.5472, 10.20775
914.0293, 10.18892
914.5114, 10.15771
914.9935, 10.10595
915.4756, 10.02154
915.9578, 9.902114
916.4398, 9.762673
916.9219, 9.607640
917.4041, 9.459500
917.8862, 9.406971
918.3683, 9.451411
918.8504, 9.450208
919.3325, 9.372861
919.8146, 9.305691
920.2968, 9.294714
920.7789, 9.331068
921.2610, 9.409637
921.7431, 9.550675
922.2252, 9.602384
922.7073, 9.491114
923.1895, 9.409896
923.6716, 9.418530
924.1537, 9.458414
924.6358, 9.496838
925.1179, 9.531970
925.6000, 9.561747
926.0822, 9.591330
926.5643, 9.602887
927.0464, 9.557499
927.5285, 9.529037
928.0106, 9.562169
928.4927, 9.641320
928.9749, 9.765407
929.4570, 9.918385
929.9391, 10.01756
930.4212, 9.975055
930.9033, 9.924584
931.3854, 10.02030
931.8676, 10.17468
932.3497, 10.23336
932.8318, 10.21107
933.3139, 10.21379
933.7960, 10.28899
934.2781, 10.43548
934.7603, 10.70384
935.2424, 11.02458
935.7245, 11.13462
936.2066, 11.05315
936.6887, 11.01499
937.1708, 11.07078
937.6530, 11.17531
938.1351, 11.29929
938.6172, 11.44426
939.0993, 11.62845
939.5814, 11.87905
940.0635, 12.01112
940.5457, 11.97474
941.0278, 11.94666
941.5099, 11.99744
941.9920, 12.06628
942.4741, 12.09115
942.9562, 12.07609
943.4384, 12.06086
943.9205, 11.98872
944.4026, 12.00297
944.8847, 12.20010
945.3668, 12.38618
945.8489, 12.44022
946.3311, 12.43893
946.8132, 12.48760
947.2953, 12.59885
947.7774, 12.73141
948.2595, 12.89011
948.7416, 13.04363
949.2238, 13.15664
949.7059, 13.27054
950.1880, 13.42997
950.6701, 13.62800
951.1522, 13.82807
951.6343, 14.01768
952.1165, 14.24472
952.5986, 14.57959
953.0807, 14.95561
953.5628, 15.29934
954.0449, 15.60776
954.5270, 15.89416
955.0092, 16.14939
955.4913, 16.31897
955.9734, 16.36745
956.4555, 16.31008
956.9376, 16.13952
957.4197, 15.88034
957.9019, 15.66431
958.3840, 15.49418
958.8661, 15.29703
959.3482, 15.04329
959.8303, 14.81729
960.3124, 14.70527
960.7946, 14.67730
961.2767, 14.61607
961.7588, 14.51379
962.2409, 14.40625
962.7230, 14.26083
963.2051, 14.20699
963.6873, 14.33904
964.1694, 14.54157
964.6515, 14.65079
965.1336, 14.66737
965.6157, 14.79052
966.0978, 15.04850
966.5800, 15.37009
967.0621, 15.81214
967.5442, 16.24701
968.0263, 16.58543
968.5084, 16.88459
968.9905, 17.24397
969.4727, 17.67759
969.9548, 18.07973
970.4369, 18.43543
970.9190, 18.74210
971.4011, 19.02916
971.8832, 19.23943
972.3654, 19.32832
972.8475, 19.29672
973.3296, 19.14874
973.8117, 18.88015
974.2938, 18.56246
974.7759, 18.22605
975.2581, 17.86666
975.7402, 17.46265
976.2223, 17.04192
976.7044, 16.63859
977.1865, 16.26047
977.6686, 15.91199
978.1508, 15.59501
978.6329, 15.30872
979.1150, 15.05346
979.5971, 14.82619
980.0792, 14.61073
980.5613, 14.41531
981.0435, 14.26888
981.5256, 14.17790
982.0077, 14.13552
982.4898, 14.14031
982.9719, 14.17580
983.4540, 14.19201
983.9362, 14.20537
984.4183, 14.33750
984.9004, 14.59104
985.3825, 14.82450
985.8646, 14.98798
986.3467, 15.11254
986.8289, 15.22295
987.3110, 15.32995
987.7931, 15.49325
988.2752, 15.72983
988.7573, 15.87689
989.2394, 15.89787
989.7216, 15.92214
990.2037, 15.99922
990.6858, 16.11925
991.1679, 16.26771
991.6500, 16.44587
992.1321, 16.68338
992.6143, 17.01593
993.0964, 17.31321
993.5785, 17.41229
994.0606, 17.69302
994.5427, 18.24185
995.0248, 19.14710
995.5070, 20.81120
995.9891, 23.34400
996.4712, 24.91455
996.9533, 24.84748
997.4354, 24.73272
997.9175, 24.65268
998.3997, 24.74689
998.8818, 25.10395
999.3639, 25.68812
999.8460, 26.49249
1000.328, 27.53057
1000.810, 28.46820
1001.292, 29.25891
1001.774, 29.88926
1002.257, 30.38411
1002.739, 30.68669
1003.221, 30.74948
1003.703, 30.57800
1004.185, 30.16834
1004.667, 29.51399
1005.149, 28.75060
1005.631, 27.88381
1006.114, 27.00240
1006.596, 26.12734
1007.078, 25.30135
1007.560, 24.59475
1008.042, 23.97624
1008.524, 23.31698
1009.006, 22.56419
1009.488, 21.84718
1009.970, 21.46674
1010.453, 21.02670
1010.935, 20.53376
1011.417, 19.75703
1011.899, 19.39851
1012.381, 18.90404
1012.863, 18.42565
1013.345, 18.19058
1013.827, 17.57131
1014.310, 17.37721
1014.792, 17.04549
1015.274, 16.81003
1015.756, 16.43764
1016.238, 16.13710
1016.720, 16.01873
1017.202, 15.83457
1017.684, 15.53417
1018.166, 15.43893
1018.649, 15.03979
1019.131, 14.94982
1019.613, 15.00594
1020.095, 14.64508
1020.577, 14.48361
1021.059, 14.24560
1021.541, 14.01836
1022.023, 13.86222
1022.505, 13.74679
1022.988, 13.61493
1023.470, 13.46831
1023.952, 13.32992
1024.434, 13.19952
1024.916, 13.07219
1025.398, 12.94407
1025.880, 12.84033
1026.362, 12.78293
1026.845, 12.75446
1027.327, 12.70777
1027.809, 12.63791
1028.291, 12.63209
1028.773, 12.70530
1029.255, 12.75593
1029.737, 12.75302
1030.219, 12.72910
1030.702, 12.70198
1031.184, 12.68461
1031.666, 12.71443
1032.148, 12.79641
1032.630, 12.89668
1033.112, 13.00961
1033.594, 13.16261
1034.076, 13.38766
1034.558, 13.60693
1035.041, 13.74164
1035.523, 13.83241
1036.005, 14.02438
1036.487, 14.41123
1036.969, 14.55089
1037.451, 14.29449
1037.933, 14.07628
1038.415, 14.04166
1038.897, 14.04568
1039.380, 13.98934
1039.862, 13.87494
1040.344, 13.71043
1040.826, 13.49641
1041.308, 13.23099
1041.790, 12.86773
1042.272, 12.52147
1042.754, 12.21745
1043.237, 11.94618
1043.719, 11.70566
1044.201, 11.49282
1044.683, 11.29685
1045.165, 11.10634
1045.647, 10.96898
1046.129, 11.00194
1046.611, 10.93511
1047.094, 10.55865
1047.576, 10.18068
1048.058, 10.08150
1048.540, 10.16847
1049.022, 10.16541
1049.504, 10.01074
1049.986, 9.924658
1050.468, 9.992208
1050.950, 10.05807
1051.432, 10.07211
1051.915, 10.06662
1052.397, 10.06146
1052.879, 10.05981
1053.361, 10.07374
1053.843, 10.11682
1054.325, 10.10642
1054.807, 9.973070
1055.289, 9.850623
1055.772, 9.807088
1056.254, 9.776355
1056.736, 9.706156
1057.218, 9.604568
1057.700, 9.500237
1058.182, 9.399948
1058.664, 9.277475
1059.146, 9.112390
1059.629, 8.940087
1060.111, 8.718173
1060.593, 8.546185
1061.075, 8.545135
1061.557, 8.642574
1062.039, 8.691164
1062.521, 8.662718
1063.003, 8.605714
1063.485, 8.510417
1063.968, 8.423826
1064.450, 8.373823
1064.932, 8.333861
1065.414, 8.275022
1065.896, 8.212535
1066.378, 8.185237
1066.860, 8.198528
1067.342, 8.191340
1067.824, 8.112229
1068.307, 8.045194
1068.789, 8.046855
1069.271, 8.056211
1069.753, 8.012046
1070.235, 7.944797
1070.717, 7.914934
1071.199, 7.929260
1071.681, 7.938812
1072.164, 7.926162
1072.646, 7.901783
1073.128, 7.858615
1073.610, 7.816995
1074.092, 7.785690
1074.574, 7.770353
1075.056, 7.786003
1075.538, 7.828058
1076.021, 7.858928
1076.503, 7.871336
1076.985, 7.855313
1077.467, 7.771819
1077.949, 7.693495
1078.431, 7.684871
1078.913, 7.710314
1079.395, 7.723063
1079.877, 7.715764
1080.359, 7.694421
1080.842, 7.656795
1081.324, 7.617936
1081.806, 7.569640
1082.288, 7.539049
1082.770, 7.560369
1083.252, 7.598991
1083.734, 7.614072
1084.216, 7.604920
1084.698, 7.588861
1085.181, 7.567939
1085.663, 7.555093
1086.145, 7.587141
1086.627, 7.592939
1087.109, 7.475116
1087.591, 7.350490
1088.073, 7.366737
1088.555, 7.483935
1089.038, 7.559555
1089.520, 7.552527
1090.002, 7.551956
1090.484, 7.597718
1090.966, 7.655466
1091.448, 7.749759
1091.930, 7.810788
1092.412, 7.730046
1092.895, 7.580802
1093.377, 7.530016
1093.859, 7.610489
1094.341, 7.675566
1094.823, 7.640189
1095.305, 7.622306
1095.787, 7.689933
1096.269, 7.774222
1096.751, 7.829562
1097.234, 7.861534
1097.716, 7.870992
1098.198, 7.864501
1098.680, 7.899923
1099.162, 8.021382
1099.644, 8.143971
1100.126, 8.238568
1100.608, 8.329629
1101.090, 8.449781
1101.573, 8.563168
1102.055, 8.591177
1102.537, 8.559296
1103.019, 8.642918
1103.501, 8.979938
1103.983, 9.192966
1104.465, 9.040853
1104.947, 8.935358
1105.430, 9.103699
1105.912, 9.377064
1106.394, 9.598135
1106.876, 9.776620
1107.358, 9.980067
1107.840, 10.23325
1108.322, 10.45039
1108.804, 10.55330
1109.286, 10.70727
1109.769, 11.04105
1110.251, 11.36754
1110.733, 11.53421
1111.215, 11.59546
1111.697, 11.67826
1112.179, 11.80150
1112.661, 11.84319
1113.143, 11.77063
1113.625, 11.65140
1114.108, 11.44106
1114.590, 11.24508
1115.072, 11.17842
1115.554, 11.12389
1116.036, 10.89813
1116.518, 10.50611
1117.000, 10.16087
1117.482, 9.852813
1117.965, 9.609622
1118.447, 9.446430
1118.929, 9.327398
1119.411, 9.270008
1119.893, 9.217198
1120.375, 9.118738
1120.857, 8.975666
1121.339, 8.784274
1121.822, 8.500385
1122.304, 8.313089
1122.786, 8.274582
1123.268, 8.205931
1123.750, 8.025434
1124.232, 7.879606
1124.714, 7.911450
1125.196, 8.012560
1125.678, 7.932023
1126.161, 7.650858
1126.643, 7.478514
1127.125, 7.433647
1127.607, 7.434512
1128.089, 7.497011
1128.571, 7.484620
1129.053, 7.295313
1129.535, 7.080031
1130.017, 7.058900
1130.500, 7.193178
1130.982, 7.229023
1131.464, 7.159372
1131.946, 7.079751
1132.428, 6.992815
1132.910, 6.974307
1133.392, 7.061510
1133.874, 7.144711
1134.357, 7.118076
1134.839, 7.025620
1135.321, 6.976104
1135.803, 6.963706
1136.285, 6.916220
1136.767, 6.838622
1137.249, 6.842687
1137.731, 6.949328
1138.214, 7.018877
1138.696, 6.962649
1139.178, 6.856923
1139.660, 6.807450
1140.142, 6.796619
1140.624, 6.771079
1141.106, 6.738687
1141.588, 6.743746
1142.070, 6.777283
1142.552, 6.753543
1143.035, 6.643113
1143.517, 6.539584
1143.999, 6.525309
1144.481, 6.567812
1144.963, 6.655741
1145.445, 6.746146
1145.927, 6.735743
1146.409, 6.663564
1146.892, 6.654426
1147.374, 6.721711
1147.856, 6.764363
1148.338, 6.724377
1148.820, 6.653823
1149.302, 6.534434
1149.784, 6.468643
1150.266, 6.642301
1150.749, 6.890853
1151.231, 6.976761
1151.713, 6.907239
1152.195, 6.778463
1152.677, 6.619763
1153.159, 6.519184
1153.641, 6.550468
1154.123, 6.618899
1154.605, 6.715986
1155.088, 6.784544
1155.570, 6.757237
1156.052, 6.677835
1156.534, 6.606372
1157.016, 6.555301
1157.498, 6.536987
1157.980, 6.567862
1158.462, 6.603877
1158.944, 6.656599
1159.427, 6.684828
1159.909, 6.636640
1160.391, 6.584247
1160.873, 6.600718
1161.355, 6.667780
1161.837, 6.734055
1162.319, 6.811166
1162.801, 6.823822
1163.284, 6.700388
1163.766, 6.632748
1164.248, 6.699211
1164.730, 6.749401
1165.212, 6.692584
1165.694, 6.589261
1166.176, 6.510592
1166.658, 6.460628
1167.141, 6.488182
1167.623, 6.626465
1168.105, 6.701463
1168.587, 6.693785
1169.069, 6.665169
1169.551, 6.627718
1170.033, 6.608927
1170.515, 6.639023
1170.997, 6.679290
1171.479, 6.637934
1171.962, 6.523862
1172.444, 6.438525
1172.926, 6.383342
1173.408, 6.404521
1173.890, 6.505872
1174.372, 6.614145
1174.854, 6.695504
1175.336, 6.737578
1175.819, 6.716767
1176.301, 6.667615
1176.783, 6.673501
1177.265, 6.703108
1177.747, 6.662769
1178.229, 6.569905
1178.711, 6.510747
1179.193, 6.495614
1179.676, 6.454800
1180.158, 6.346562
1180.640, 6.226746
1181.122, 6.096084
1181.604, 6.032767
1182.086, 6.185428
1182.568, 6.416852
1183.050, 6.527639
1183.532, 6.546793
1184.015, 6.619073
1184.497, 6.770919
1184.979, 6.844995
1185.461, 6.713997
1185.943, 6.581278
1186.425, 6.517291
1186.907, 6.506981
1187.389, 6.582657
1187.871, 6.676149
1188.354, 6.709505
1188.836, 6.689471
1189.318, 6.659775
1189.800, 6.618246
1190.282, 6.596581
1190.764, 6.610228
1191.246, 6.625951
1191.728, 6.629549
1192.211, 6.645051
1192.693, 6.701858
1193.175, 6.761841
1193.657, 6.773221
1194.139, 6.738924
1194.621, 6.544166
1195.103, 6.727065
1195.585, 6.828924
1196.068, 6.854092
1196.550, 6.572895
1197.032, 6.687311
1197.514, 6.643183
1197.996, 6.592555
1198.478, 6.762651
1198.960, 6.526015
1199.442, 6.692612
1199.924, 6.698245
1200.406, 6.777547
1200.889, 6.697322
1201.371, 6.666373
1201.853, 6.794998
1202.335, 6.835266
1202.817, 6.736681
1203.299, 6.644073
1203.781, 6.670778
1204.263, 6.681424
1204.746, 6.672330
1205.228, 6.611181
1205.710, 6.539145
1206.192, 6.536463
1206.674, 6.598789
1207.156, 6.683191
1207.638, 6.774428
1208.120, 6.821122
1208.603, 6.774768
1209.085, 6.701064
1209.567, 6.602612
1210.049, 6.523907
1210.531, 6.520482
1211.013, 6.544774
1211.495, 6.509310
1211.977, 6.434104
1212.459, 6.453373
1212.942, 6.634331
1213.424, 6.762888
1213.906, 6.822227
1214.388, 6.825118
1214.870, 6.727316
1215.352, 6.642941
1215.834, 6.649486
1216.316, 6.689095
1216.798, 6.678499
1217.281, 6.626033
1217.763, 6.595761
1218.245, 6.591526
1218.727, 6.565480
1219.209, 6.509615
1219.691, 6.518504
1220.173, 6.620814
1220.655, 6.734697
1221.138, 6.809027
1221.620, 6.834896
1222.102, 6.777902
1222.584, 6.679415
1223.066, 6.637083
1223.548, 6.647387
1224.030, 6.738739
1224.512, 6.871170
1224.995, 6.905679
1225.477, 6.819207
1225.959, 6.728037
1226.441, 6.700972
1226.923, 6.675412
1227.405, 6.551208
1227.887, 6.462147
1228.369, 6.590578
1228.851, 6.757968
1229.333, 6.739494
1229.816, 6.603330
1230.298, 6.521283
1230.780, 6.521617
1231.262, 6.563502
1231.744, 6.694848
1232.226, 6.776636
1232.708, 6.766521
1233.190, 6.735060
1233.673, 6.691813
1234.155, 6.653593
1234.637, 6.631190
1235.119, 6.624964
1235.601, 6.638230
1236.083, 6.671048
1236.565, 6.696499
1237.047, 6.715462
1237.530, 6.719216
1238.012, 6.706380
1238.494, 6.682820
1238.976, 6.649925
1239.458, 6.621288
1239.940, 6.606706
1240.422, 6.608052
1240.904, 6.640990
1241.386, 6.685949
1241.869, 6.680697
1242.351, 6.653326
1242.833, 6.684613
1243.315, 6.760468
1243.797, 6.802361
1244.279, 6.790277
1244.761, 6.769927
1245.243, 6.753398
1245.725, 6.770734
1246.208, 6.891200
1246.690, 6.994895
1247.172, 6.996753
1247.654, 6.939006
1248.136, 6.839868
1248.618, 6.727935
1249.100, 6.648781
1249.582, 6.605799
1250.065, 6.615569
1250.547, 6.734010
1251.029, 6.798139
1251.511, 6.769866
1251.993, 6.753683
1252.475, 6.791268
1252.957, 6.831278
1253.439, 6.835285
1253.922, 6.813017
1254.404, 6.779537
1254.886, 6.737237
1255.368, 6.697995
1255.850, 6.663878
1256.332, 6.653274
1256.814, 6.667432
1257.296, 6.705176
1257.778, 6.763546
1258.260, 6.827324
1258.743, 6.888758
1259.225, 6.935356
1259.707, 6.966245
1260.189, 6.962456
1260.671, 6.856615
1261.153, 6.739946
1261.635, 6.746816
1262.117, 6.827247
1262.600, 6.865990
1263.082, 6.848666
1263.564, 6.831805
1264.046, 6.834743
1264.528, 6.826547
1265.010, 6.772129
1265.492, 6.747749
1265.974, 6.813845
1266.457, 6.863861
1266.939, 6.823005
1267.421, 6.747118
1267.903, 6.709007
1268.385, 6.706589
1268.867, 6.729722
1269.349, 6.778979
1269.831, 6.860454
1270.313, 6.972498
1270.796, 7.007644
1271.278, 6.946361
1271.760, 6.850332
1272.242, 6.751739
1272.724, 6.726333
1273.206, 6.904416
1273.688, 7.095386
1274.170, 6.966678
1274.652, 6.741583
1275.135, 6.730627
1275.617, 6.847621
1276.099, 6.934227
1276.581, 6.969707
1277.063, 6.978888
1277.545, 6.966632
1278.027, 6.960996
1278.509, 6.997423
1278.992, 7.000504
1279.474, 6.895564
1279.956, 6.829831
1280.438, 6.897848
1280.920, 6.987988
1281.402, 7.007463
1281.884, 6.980529
1282.366, 6.953330
1282.849, 6.927748
1283.331, 6.973345
1283.813, 7.091673
1284.295, 7.126866
1284.777, 7.069105
1285.259, 7.007829
1285.741, 6.973282
1286.223, 6.970048
1286.705, 7.001631
1287.188, 7.068377
##END=



