##NAMES=Babingtonite
##RRUFFID=R060084
##IDEAL CHEMISTRY=Ca_2_Fe^2+^Fe^3+^Si_5_O_14_(OH)
##LOCALITY=Winchester Highlands, Massachusetts, USA
##OWNER=RRUFF
##SOURCE=University of Arizona Mineral Museum
##DESCRIPTION=Black stubby prismatic crystals
##STATUS=The identification of this mineral has been confirmed by X-ray diffraction and chemical analysis
##URL=rruff.info/R060084
##MEASURED CHEMISTRY=Ca_2.00_(Fe^2+^_0.89_Mg_0.07_Mn_0.04_)(Fe^3+^_0.96_Al_0.04_)Si_5.00_O_14_(OH)
93.74609, 1.799626
94.22821, 1.752906
94.71033, 1.772331
95.19244, 1.849103
95.67456, 1.951262
96.15668, 2.054289
96.63879, 2.172553
97.12091, 2.374439
97.60303, 2.678199
98.08514, 3.000525
98.56726, 3.210204
99.04938, 3.305660
99.53149, 3.390338
100.0136, 3.500245
100.4957, 3.634325
100.9778, 3.816799
101.4600, 4.050874
101.9421, 4.330276
102.4242, 4.644972
102.9063, 5.014340
103.3884, 5.372903
103.8705, 5.670465
104.3527, 5.885247
104.8348, 6.111051
105.3169, 6.339405
105.7990, 6.579963
106.2811, 6.934961
106.7632, 7.494576
107.2454, 8.071988
107.7275, 8.521177
108.2096, 8.826328
108.6917, 9.027098
109.1738, 9.045426
109.6559, 8.833172
110.1381, 8.891913
110.6202, 9.382646
111.1023, 10.08189
111.5844, 10.77122
112.0665, 11.55326
112.5486, 12.23324
113.0308, 12.72666
113.5129, 12.95929
113.9950, 13.29579
114.4771, 13.78076
114.9592, 14.39647
115.4413, 15.12597
115.9235, 16.05957
116.4056, 17.03469
116.8877, 18.02283
117.3698, 19.19155
117.8519, 20.02065
118.3340, 20.29851
118.8162, 20.10090
119.2983, 19.61122
119.7804, 18.50704
120.2625, 17.34009
120.7446, 16.54351
121.2267, 16.24992
121.7089, 16.28596
122.1910, 16.62478
122.6731, 17.23533
123.1552, 17.97259
123.6373, 18.80051
124.1194, 19.68610
124.6016, 20.60155
125.0837, 21.47761
125.5658, 22.40470
126.0479, 23.64359
126.5300, 25.16934
127.0121, 26.42153
127.4943, 26.93521
127.9764, 26.81446
128.4585, 26.31313
128.9406, 25.32325
129.4227, 24.06637
129.9048, 22.88185
130.3869, 21.75313
130.8691, 20.82900
131.3512, 20.36202
131.8333, 20.23322
132.3154, 20.07072
132.7975, 19.79205
133.2796, 19.45809
133.7618, 19.21111
134.2439, 19.04121
134.7260, 18.98056
135.2081, 19.09631
135.6902, 19.38838
136.1723, 19.76835
136.6545, 20.19084
137.1366, 20.65377
137.6187, 21.20098
138.1008, 21.85168
138.5829, 22.57198
139.0650, 23.27890
139.5472, 23.94608
140.0293, 24.69907
140.5114, 25.59884
140.9935, 26.63912
141.4756, 27.90133
141.9577, 29.49186
142.4399, 31.31973
142.9220, 33.00605
143.4041, 34.81330
143.8862, 36.08686
144.3683, 36.33616
144.8504, 35.30689
145.3326, 33.82483
145.8147, 31.82211
146.2968, 29.32024
146.7789, 27.32320
147.2610, 25.86707
147.7431, 24.85079
148.2253, 24.18701
148.7074, 24.03337
149.1895, 24.01556
149.6716, 24.10587
150.1537, 24.31656
150.6358, 24.51791
151.1180, 24.88274
151.6001, 25.16305
152.0822, 25.09487
152.5643, 24.23833
153.0464, 23.47486
153.5285, 22.98446
154.0107, 22.81944
154.4928, 22.74354
154.9749, 22.74048
155.4570, 22.81785
155.9391, 22.98394
156.4212, 23.28656
156.9034, 23.63768
157.3855, 24.02365
157.8676, 24.46296
158.3497, 24.86550
158.8318, 25.27981
159.3139, 25.64376
159.7961, 25.85475
160.2782, 25.88168
160.7603, 25.75677
161.2424, 25.43550
161.7245, 24.72939
162.2066, 24.24224
162.6888, 24.34604
163.1709, 24.82012
163.6530, 25.17770
164.1351, 25.14462
164.6172, 24.98691
165.0993, 24.87761
165.5815, 24.87443
166.0636, 24.88111
166.5457, 24.88952
167.0278, 24.87838
167.5099, 24.78222
167.9921, 24.36718
168.4742, 23.94530
168.9563, 23.81488
169.4384, 24.21009
169.9205, 24.70189
170.4026, 25.04661
170.8848, 25.25381
171.3669, 25.35168
171.8490, 25.27752
172.3311, 25.13001
172.8132, 25.02190
173.2953, 24.96053
173.7775, 24.97704
174.2596, 25.12188
174.7417, 25.38431
175.2238, 25.68640
175.7059, 26.12071
176.1880, 26.53464
176.6702, 26.67325
177.1523, 26.36383
177.6344, 25.80221
178.1165, 25.20288
178.5986, 24.56011
179.0807, 23.87044
179.5629, 23.04325
180.0450, 22.15253
180.5271, 21.38486
181.0092, 20.79888
181.4913, 20.36671
181.9734, 20.07349
182.4556, 19.92103
182.9377, 19.83658
183.4198, 19.70315
183.9019, 19.56550
184.3840, 19.58429
184.8661, 19.87534
185.3483, 20.35324
185.8304, 20.85383
186.3125, 21.38015
186.7946, 21.88214
187.2767, 22.23207
187.7588, 22.47424
188.2409, 22.84741
188.7231, 23.49200
189.2052, 24.35040
189.6873, 25.24082
190.1694, 26.18067
190.6515, 27.11204
191.1336, 27.98389
191.6158, 28.79561
192.0979, 29.52684
192.5800, 30.27593
193.0621, 30.98442
193.5442, 31.24938
194.0263, 31.02229
194.5085, 30.50961
194.9906, 29.99882
195.4727, 29.49116
195.9548, 28.88257
196.4369, 28.05794
196.9190, 27.03815
197.4012, 26.18437
197.8833, 25.51656
198.3654, 24.96958
198.8475, 24.42994
199.3296, 23.87903
199.8117, 23.49796
200.2939, 23.43162
200.7760, 23.68472
201.2581, 23.85129
201.7402, 23.89783
202.2223, 23.90481
202.7044, 24.01703
203.1866, 24.24619
203.6687, 24.50874
204.1508, 24.79812
204.6329, 25.12710
205.1150, 25.33316
205.5971, 25.38670
206.0793, 25.35215
206.5614, 25.34664
207.0435, 25.37325
207.5256, 25.41725
208.0077, 25.47437
208.4898, 25.54598
208.9720, 25.58862
209.4541, 25.51567
209.9362, 25.49283
210.4183, 25.91300
210.9004, 26.88498
211.3825, 27.97338
211.8647, 28.97735
212.3468, 29.84706
212.8289, 30.90658
213.3110, 32.31818
213.7931, 33.81229
214.2752, 34.76501
214.7574, 35.12625
215.2395, 35.08979
215.7216, 34.72960
216.2037, 34.04118
216.6858, 33.04227
217.1679, 31.64654
217.6501, 29.98508
218.1322, 28.35072
218.6143, 26.65479
219.0964, 25.13525
219.5785, 23.93419
220.0606, 23.08351
220.5428, 22.40412
221.0249, 21.93959
221.5070, 21.62712
221.9891, 21.32718
222.4712, 21.00928
222.9533, 20.75447
223.4355, 20.60922
223.9176, 20.60171
224.3997, 20.61145
224.8818, 20.61668
225.3639, 20.64842
225.8460, 20.79882
226.3282, 21.15124
226.8103, 21.47761
227.2924, 21.64109
227.7745, 21.50090
228.2566, 21.58938
228.7387, 21.95050
229.2209, 22.52200
229.7030, 23.14439
230.1851, 23.78842
230.6672, 24.54351
231.1493, 25.46906
231.6314, 26.65128
232.1136, 27.77675
232.5957, 28.85476
233.0778, 29.87558
233.5599, 30.80924
234.0420, 31.72161
234.5241, 32.44072
235.0063, 32.90391
235.4884, 33.11964
235.9705, 33.03319
236.4526, 32.56407
236.9347, 31.82557
237.4168, 31.04931
237.8990, 30.27242
238.3811, 29.39902
238.8632, 28.37757
239.3453, 27.13064
239.8274, 25.95392
240.3095, 24.82322
240.7917, 23.76718
241.2738, 22.84141
241.7559, 22.06742
242.2380, 21.39047
242.7201, 20.79738
243.2022, 20.28309
243.6844, 19.86723
244.1665, 19.55333
244.6486, 19.33244
245.1307, 19.19367
245.6128, 19.15737
246.0949, 19.16925
246.5771, 19.21353
247.0592, 19.28971
247.5413, 19.40279
248.0234, 19.56482
248.5055, 19.75467
248.9876, 19.93405
249.4697, 20.08764
249.9519, 20.26056
250.4340, 20.46989
250.9161, 20.72331
251.3982, 20.97930
251.8803, 21.26007
252.3624, 21.52366
252.8446, 21.70650
253.3267, 21.79522
253.8088, 21.83116
254.2909, 21.80491
254.7730, 21.69995
255.2551, 21.67642
255.7373, 21.79097
256.2194, 21.92965
256.7015, 21.93752
257.1836, 21.73589
257.6657, 21.57515
258.1479, 21.50638
258.6300, 21.52982
259.1121, 21.64676
259.5942, 21.88093
260.0763, 22.18112
260.5584, 22.49893
261.0406, 22.81954
261.5227, 23.18642
262.0048, 23.61260
262.4869, 24.09389
262.9690, 24.61146
263.4511, 25.15762
263.9333, 25.74670
264.4154, 26.40386
264.8975, 27.16954
265.3796, 27.89927
265.8617, 28.57214
266.3438, 29.18657
266.8260, 29.82146
267.3081, 30.56127
267.7902, 31.16045
268.2723, 31.38428
268.7544, 31.18413
269.2365, 30.80331
269.7187, 30.24367
270.2008, 29.52856
270.6829, 28.81831
271.1650, 28.12675
271.6471, 27.40695
272.1292, 26.59678
272.6114, 25.64790
273.0935, 24.87134
273.5756, 24.33595
274.0577, 23.99477
274.5398, 23.66431
275.0219, 23.31917
275.5041, 23.07098
275.9862, 23.01706
276.4683, 23.17874
276.9504, 23.34994
277.4325, 23.51273
277.9146, 23.67338
278.3968, 23.85179
278.8788, 24.05155
279.3610, 24.24873
279.8431, 24.41927
280.3252, 24.56020
280.8073, 24.74331
281.2894, 24.99308
281.7715, 25.25692
282.2537, 25.42004
282.7358, 25.47326
283.2179, 25.52287
283.7000, 25.68159
284.1821, 25.93590
284.6642, 25.95303
285.1464, 25.69399
285.6285, 25.27544
286.1106, 24.85765
286.5927, 24.44021
287.0748, 24.00112
287.5569, 23.51940
288.0391, 23.00014
288.5212, 22.49883
289.0033, 22.01484
289.4854, 21.53908
289.9675, 21.02892
290.4496, 20.49256
290.9318, 20.05127
291.4139, 19.77805
291.8960, 19.62750
292.3781, 19.42492
292.8602, 19.15589
293.3423, 18.96207
293.8245, 18.97599
294.3066, 19.18491
294.7887, 19.55555
295.2708, 20.22805
295.7529, 20.96338
296.2350, 21.19535
296.7172, 20.92536
297.1993, 20.53108
297.6814, 20.26589
298.1635, 20.11776
298.6456, 20.06787
299.1277, 20.15258
299.6099, 20.28234
300.0920, 20.30946
300.5741, 20.24668
301.0562, 20.17857
301.5383, 20.13266
302.0204, 20.12712
302.5026, 20.19600
302.9847, 20.34890
303.4668, 20.57219
303.9489, 20.87641
304.4310, 21.24387
304.9131, 21.63181
305.3953, 21.98693
305.8774, 22.35399
306.3595, 22.79322
306.8416, 23.32107
307.3237, 23.88095
307.8058, 24.42997
308.2880, 24.96856
308.7701, 25.49583
309.2522, 25.98367
309.7343, 26.48150
310.2164, 27.05005
310.6985, 27.70736
311.1807, 28.35909
311.6628, 29.01238
312.1449, 29.61320
312.6270, 30.05946
313.1091, 30.15551
313.5912, 30.21050
314.0734, 30.44176
314.5555, 30.85494
315.0376, 31.26258
315.5197, 31.58460
316.0018, 31.84689
316.4839, 32.06821
316.9661, 32.10249
317.4482, 32.24119
317.9303, 32.67181
318.4124, 33.34857
318.8945, 33.99718
319.3766, 34.59483
319.8588, 35.07367
320.3409, 35.37174
320.8230, 35.34789
321.3051, 35.31548
321.7872, 35.40839
322.2693, 35.56572
322.7515, 35.60136
323.2336, 35.46212
323.7157, 35.19764
324.1978, 34.81215
324.6799, 34.22187
325.1620, 33.68679
325.6442, 33.30426
326.1263, 32.99106
326.6084, 32.59956
327.0905, 31.99191
327.5726, 31.41699
328.0547, 30.94276
328.5369, 30.58440
329.0190, 30.30081
329.5011, 30.10863
329.9832, 29.98444
330.4653, 29.90641
330.9474, 29.94355
331.4296, 29.94201
331.9117, 29.87042
332.3938, 29.72696
332.8759, 29.55848
333.3580, 29.33911
333.8401, 29.11741
334.3223, 28.94381
334.8044, 28.87806
335.2865, 28.73512
335.7686, 28.47836
336.2507, 28.12260
336.7328, 27.76248
337.2150, 27.39211
337.6971, 27.02106
338.1792, 26.66623
338.6613, 26.35953
339.1434, 25.94104
339.6255, 25.35645
340.1077, 24.69147
340.5898, 24.12176
341.0719, 23.66805
341.5540, 23.26497
342.0361, 22.91929
342.5182, 22.63524
343.0004, 22.24343
343.4825, 21.71715
343.9646, 21.15463
344.4467, 20.68860
344.9288, 20.32454
345.4109, 20.03438
345.8931, 19.83109
346.3752, 19.69593
346.8573, 19.55564
347.3394, 19.40572
347.8215, 19.27761
348.3036, 19.18956
348.7858, 19.14526
349.2679, 19.16805
349.7500, 19.28050
350.2321, 19.44492
350.7142, 19.60186
351.1964, 19.75016
351.6785, 19.88648
352.1606, 19.98966
352.6427, 20.07995
353.1248, 20.21167
353.6069, 20.41554
354.0891, 20.60427
354.5712, 20.67706
355.0533, 20.65687
355.5354, 20.60896
356.0175, 20.55441
356.4996, 20.49801
356.9818, 20.43017
357.4639, 20.34464
357.9460, 20.30241
358.4281, 20.40188
358.9102, 20.56095
359.3923, 20.65848
359.8745, 20.50951
360.3566, 20.39383
360.8387, 20.50396
361.3208, 20.82913
361.8029, 21.19330
362.2850, 21.57377
362.7672, 21.92864
363.2493, 22.22107
363.7314, 22.38252
364.2135, 22.55288
364.6956, 22.77148
365.1777, 23.03143
365.6599, 23.30914
366.1420, 23.62703
366.6241, 23.94105
367.1062, 24.22580
367.5883, 24.47019
368.0704, 24.70949
368.5526, 24.98514
369.0347, 25.24850
369.5168, 25.42884
369.9989, 25.42608
370.4810, 25.44036
370.9631, 25.51991
371.4453, 25.67342
371.9274, 25.82518
372.4095, 25.99388
372.8916, 26.14280
373.3737, 26.22596
373.8558, 26.15202
374.3380, 26.20315
374.8201, 26.46756
375.3022, 26.89589
375.7843, 27.19626
376.2664, 27.33203
376.7485, 27.42459
377.2307, 27.54313
377.7128, 27.69322
378.1949, 27.84698
378.6770, 28.01349
379.1591, 28.16857
379.6412, 28.21820
380.1234, 28.14050
380.6055, 28.17600
381.0876, 28.47087
381.5697, 28.98436
382.0518, 29.44116
382.5339, 29.82380
383.0161, 30.22777
383.4982, 30.75408
383.9803, 31.39363
384.4624, 32.08719
384.9445, 32.88382
385.4266, 33.66082
385.9088, 34.13125
386.3909, 34.32492
386.8730, 34.57113
387.3551, 35.20131
387.8372, 36.02416
388.3193, 36.71073
388.8015, 37.18904
389.2836, 37.57046
389.7657, 37.92036
390.2478, 38.25321
390.7299, 38.59424
391.2120, 38.98624
391.6942, 39.37378
392.1763, 39.71755
392.6584, 40.01276
393.1405, 40.24968
393.6226, 40.44169
394.1047, 40.56606
394.5869, 40.59552
395.0690, 40.43864
395.5511, 40.26838
396.0332, 40.09571
396.5153, 39.94220
396.9974, 39.91940
397.4796, 40.08194
397.9617, 40.36399
398.4438, 40.73832
398.9259, 41.25330
399.4080, 41.76887
399.8901, 42.31184
400.3723, 42.84374
400.8544, 43.29131
401.3365, 43.71552
401.8186, 43.98951
402.3007, 44.07855
402.7828, 43.97695
403.2649, 43.75198
403.7470, 43.46813
404.2292, 42.98808
404.7113, 42.18719
405.1934, 41.01808
405.6755, 39.63055
406.1576, 37.98620
406.6397, 36.16634
407.1219, 34.46954
407.6040, 32.89559
408.0861, 31.44426
408.5682, 30.11765
409.0503, 28.93638
409.5324, 27.82286
410.0146, 26.76819
410.4967, 25.79856
410.9788, 24.95803
411.4609, 24.24809
411.9430, 23.60941
412.4251, 22.98900
412.9073, 22.44141
413.3894, 22.09098
413.8715, 21.93380
414.3536, 21.83457
414.8357, 21.68190
415.3178, 21.50726
415.8000, 21.37148
416.2821, 21.28895
416.7642, 21.24478
417.2463, 21.25134
417.7284, 21.28793
418.2105, 21.29910
418.6927, 21.20320
419.1748, 21.10699
419.6569, 21.13363
420.1390, 21.31861
420.6211, 21.39952
421.1032, 21.19415
421.5854, 20.84577
422.0675, 20.51068
422.5496, 20.19939
423.0317, 19.93613
423.5138, 19.71458
423.9959, 19.54133
424.4781, 19.44236
424.9602, 19.49673
425.4423, 19.57111
425.9244, 19.58653
426.4065, 19.39886
426.8886, 19.42642
427.3708, 19.80510
427.8529, 20.34196
428.3350, 20.72907
428.8171, 20.86303
429.2992, 21.03780
429.7813, 21.34700
430.2635, 21.78355
430.7456, 22.15377
431.2277, 22.43532
431.7098, 22.69394
432.1919, 23.00891
432.6740, 23.39388
433.1562, 23.66221
433.6383, 23.78194
434.1204, 23.78765
434.6025, 23.75748
435.0846, 23.69007
435.5667, 23.52454
436.0489, 23.23911
436.5310, 22.82811
437.0131, 22.24544
437.4952, 21.47932
437.9773, 20.67337
438.4594, 19.95619
438.9416, 19.30282
439.4237, 18.65780
439.9058, 17.98166
440.3879, 17.33488
440.8700, 16.76393
441.3521, 16.26357
441.8343, 15.81533
442.3164, 15.41868
442.7985, 15.06401
443.2806, 14.74232
443.7627, 14.45431
444.2448, 14.20341
444.7270, 13.98745
445.2091, 13.81291
445.6912, 13.68894
446.1733, 13.68267
446.6554, 13.65937
447.1375, 13.56683
447.6197, 13.41231
448.1018, 13.29121
448.5839, 13.21676
449.0660, 13.17231
449.5481, 13.15372
450.0302, 13.17788
450.5124, 13.19198
450.9945, 13.18748
451.4766, 13.17888
451.9587, 13.19336
452.4408, 13.24348
452.9229, 13.28027
453.4051, 13.27642
453.8872, 13.24312
454.3693, 13.28777
454.8514, 13.42847
455.3335, 13.56960
455.8156, 13.62701
456.2978, 13.60870
456.7799, 13.59597
457.2620, 13.60221
457.7441, 13.60950
458.2262, 13.56171
458.7083, 13.48015
459.1905, 13.46048
459.6726, 13.59364
460.1547, 13.79755
460.6368, 13.96342
461.1189, 14.09157
461.6010, 14.20271
462.0832, 14.30686
462.5653, 14.40492
463.0474, 14.49409
463.5295, 14.56461
464.0116, 14.64502
464.4937, 14.75268
464.9759, 14.88115
465.4580, 15.01404
465.9401, 15.13925
466.4222, 15.27465
466.9043, 15.42756
467.3864, 15.59979
467.8686, 15.78035
468.3507, 15.92926
468.8328, 16.11117
469.3149, 16.37661
469.7970, 16.80104
470.2791, 17.18331
470.7613, 17.50021
471.2434, 17.76704
471.7255, 18.01754
472.2076, 18.23589
472.6897, 18.47667
473.1718, 18.75915
473.6540, 19.08231
474.1361, 19.49168
474.6182, 20.01724
475.1003, 20.52049
475.5824, 20.83220
476.0645, 20.97452
476.5467, 21.14791
477.0288, 21.42928
477.5109, 21.69994
477.9930, 21.73660
478.4751, 21.57693
478.9572, 21.39971
479.4394, 21.31379
479.9215, 21.26353
480.4036, 21.20398
480.8857, 21.13347
481.3678, 20.98220
481.8499, 20.62203
482.3321, 20.18557
482.8142, 19.82922
483.2963, 19.67114
483.7784, 19.49605
484.2605, 19.19080
484.7426, 18.80543
485.2248, 18.46552
485.7069, 18.21196
486.1890, 18.00283
486.6711, 17.82305
487.1532, 17.66977
487.6353, 17.56276
488.1175, 17.51898
488.5996, 17.50924
489.0817, 17.51117
489.5638, 17.52071
490.0459, 17.55328
490.5280, 17.61656
491.0102, 17.69974
491.4923, 17.76418
491.9744, 17.79655
492.4565, 17.88304
492.9386, 18.08809
493.4207, 18.39025
493.9029, 18.63478
494.3850, 18.81998
494.8671, 18.98496
495.3492, 19.14434
495.8313, 19.31364
496.3134, 19.54596
496.7956, 19.86856
497.2777, 20.21859
497.7598, 20.57713
498.2419, 20.91169
498.7240, 21.13016
499.2061, 21.11576
499.6883, 21.02631
500.1704, 20.99943
500.6525, 21.03682
501.1346, 20.97841
501.6167, 20.72037
502.0988, 20.36529
502.5810, 19.98337
503.0631, 19.52756
503.5452, 19.12664
504.0273, 18.85352
504.5094, 18.63431
504.9915, 18.34546
505.4737, 17.91203
505.9558, 17.52088
506.4379, 17.22512
506.9200, 17.02027
507.4021, 16.82302
507.8842, 16.61960
508.3664, 16.45053
508.8485, 16.36067
509.3306, 16.35242
509.8127, 16.28971
510.2948, 16.14477
510.7769, 15.99800
511.2591, 15.99438
511.7412, 16.10759
512.2233, 16.18568
512.7054, 16.13729
513.1875, 16.05488
513.6696, 16.08238
514.1517, 16.20465
514.6339, 16.33798
515.1160, 16.39269
515.5981, 16.45440
516.0802, 16.61946
516.5623, 16.91945
517.0444, 17.21913
517.5266, 17.44788
518.0087, 17.64662
518.4908, 17.85996
518.9729, 18.04208
519.4550, 18.30340
519.9371, 18.69489
520.4193, 19.19344
520.9014, 19.68132
521.3835, 20.18941
521.8656, 20.64984
522.3477, 21.01134
522.8298, 21.24721
523.3120, 21.61455
523.7941, 22.13742
524.2762, 22.72614
524.7583, 23.30005
525.2404, 23.86100
525.7225, 24.41069
526.2047, 24.93817
526.6868, 25.48350
527.1689, 26.13748
527.6510, 26.88378
528.1331, 27.63273
528.6152, 28.29732
529.0974, 28.96334
529.5795, 29.80942
530.0616, 30.82257
530.5437, 31.79590
531.0258, 32.56335
531.5079, 33.24883
531.9901, 33.99339
532.4722, 34.84985
532.9543, 35.69551
533.4364, 36.53233
533.9185, 37.32039
534.4006, 38.02155
534.8828, 38.67059
535.3649, 39.17682
535.8470, 39.48714
536.3291, 39.62782
536.8112, 39.72132
537.2933, 39.84492
537.7755, 39.80097
538.2576, 39.49223
538.7397, 38.89876
539.2218, 38.15306
539.7039, 37.24370
540.1860, 36.23989
540.6682, 35.21721
541.1503, 34.18082
541.6324, 33.10720
542.1145, 31.94585
542.5966, 30.85010
543.0787, 30.14943
543.5609, 29.74762
544.0430, 29.28544
544.5251, 28.51232
545.0072, 27.63153
545.4893, 26.82445
545.9714, 26.09731
546.4536, 25.45665
546.9357, 24.97791
547.4178, 24.54152
547.8999, 24.05332
548.3820, 23.46888
548.8641, 22.89870
549.3463, 22.32980
549.8284, 21.80023
550.3105, 21.35663
550.7926, 20.98749
551.2747, 20.72773
551.7568, 20.63340
552.2390, 20.64941
552.7211, 20.52320
553.2032, 20.20938
553.6853, 19.89421
554.1674, 19.65242
554.6495, 19.48436
555.1317, 19.42208
555.6138, 19.48092
556.0959, 19.53649
556.5780, 19.43106
557.0601, 19.22838
557.5422, 19.09626
558.0244, 19.06449
558.5065, 19.12199
558.9886, 19.29491
559.4707, 19.54694
559.9528, 19.80111
560.4349, 20.01603
560.9171, 20.23475
561.3992, 20.45436
561.8813, 20.68699
562.3634, 21.00022
562.8455, 21.50531
563.3276, 22.02009
563.8098, 22.45006
564.2919, 22.74910
564.7740, 23.09964
565.2561, 23.49582
565.7382, 23.94900
566.2203, 24.48728
566.7025, 25.13868
567.1846, 25.77101
567.6667, 26.36350
568.1488, 26.95019
568.6309, 27.57475
569.1130, 28.24391
569.5952, 28.98828
570.0773, 29.85814
570.5594, 30.79767
571.0415, 31.74347
571.5236, 32.69970
572.0057, 33.65834
572.4879, 34.63534
572.9700, 35.61488
573.4521, 36.57846
573.9342, 37.52940
574.4163, 38.48501
574.8984, 39.50376
575.3806, 40.50615
575.8627, 41.42341
576.3448, 42.27156
576.8269, 42.98252
577.3090, 43.61053
577.7911, 44.09315
578.2733, 44.28175
578.7554, 44.09747
579.2375, 43.77050
579.7196, 43.38718
580.2017, 42.92667
580.6838, 42.21132
581.1660, 41.22679
581.6481, 40.09764
582.1302, 38.91626
582.6123, 37.66872
583.0944, 36.30513
583.5765, 34.81156
584.0587, 33.28709
584.5408, 31.76650
585.0229, 30.31425
585.5050, 29.05472
585.9871, 28.11756
586.4692, 27.23235
586.9514, 26.17981
587.4335, 25.05102
587.9156, 24.05741
588.3977, 23.31210
588.8798, 22.66228
589.3619, 22.08382
589.8441, 21.57378
590.3262, 21.04658
590.8083, 20.47374
591.2904, 19.92769
591.7725, 19.44026
592.2546, 19.00971
592.7368, 18.65615
593.2189, 18.39419
593.7010, 18.17105
594.1831, 17.92879
594.6652, 17.67436
595.1473, 17.43169
595.6295, 17.21075
596.1116, 16.99110
596.5937, 16.72094
597.0758, 16.42784
597.5579, 16.18305
598.0400, 16.07233
598.5222, 15.98429
599.0043, 15.84773
599.4864, 15.66697
599.9685, 15.46714
600.4506, 15.19801
600.9327, 14.96388
601.4149, 14.82961
601.8970, 14.83144
602.3791, 14.80444
602.8612, 14.73866
603.3433, 14.65154
603.8254, 14.54969
604.3076, 14.41899
604.7897, 14.32910
605.2718, 14.29162
605.7539, 14.28215
606.2360, 14.27342
606.7181, 14.26340
607.2003, 14.22735
607.6824, 14.15039
608.1645, 14.05193
608.6466, 13.96012
609.1287, 13.87310
609.6108, 13.78691
610.0930, 13.67623
610.5751, 13.58267
611.0572, 13.54856
611.5393, 13.57386
612.0214, 13.59276
612.5035, 13.56845
612.9857, 13.54043
613.4678, 13.53338
613.9499, 13.55859
614.4320, 13.58348
614.9141, 13.60921
615.3962, 13.63370
615.8784, 13.65884
616.3605, 13.69073
616.8426, 13.69321
617.3247, 13.65352
617.8068, 13.59398
618.2889, 13.55949
618.7711, 13.54749
619.2532, 13.53659
619.7353, 13.50333
620.2174, 13.47720
620.6995, 13.52400
621.1816, 13.62650
621.6638, 13.69837
622.1459, 13.66166
622.6280, 13.59963
623.1101, 13.55688
623.5922, 13.53472
624.0743, 13.57415
624.5565, 13.77779
625.0386, 13.98300
625.5207, 14.07431
626.0028, 13.98511
626.4849, 13.92286
626.9670, 13.89073
627.4492, 13.88125
627.9313, 13.88434
628.4134, 13.89931
628.8955, 13.93447
629.3776, 13.99597
629.8597, 14.07038
630.3419, 14.14200
630.8240, 14.20792
631.3061, 14.25473
631.7882, 14.24100
632.2703, 14.22793
632.7524, 14.30536
633.2346, 14.45295
633.7167, 14.56876
634.1988, 14.52287
634.6809, 14.49325
635.1630, 14.61241
635.6451, 14.92755
636.1273, 15.15351
636.6094, 15.18607
637.0915, 15.18303
637.5736, 15.24109
638.0557, 15.38057
638.5378, 15.52081
639.0200, 15.65953
639.5021, 15.80161
639.9842, 15.95065
640.4663, 16.10602
640.9484, 16.27879
641.4305, 16.46810
641.9127, 16.67871
642.3948, 16.91837
642.8769, 17.18534
643.3590, 17.48142
643.8411, 17.83845
644.3232, 18.19739
644.8054, 18.51940
645.2875, 18.80630
645.7696, 19.09918
646.2517, 19.32468
646.7338, 19.63280
647.2159, 20.10439
647.6981, 20.75243
648.1802, 21.42720
648.6623, 22.17441
649.1444, 22.89049
649.6265, 23.50258
650.1086, 24.00904
650.5908, 24.49409
651.0729, 24.94270
651.5550, 25.46839
652.0371, 26.25122
652.5192, 27.22752
653.0013, 28.16784
653.4835, 29.01675
653.9656, 29.84309
654.4477, 30.64470
654.9298, 31.46524
655.4119, 32.39056
655.8940, 33.43637
656.3762, 34.60424
656.8583, 35.97877
657.3404, 37.48037
657.8225, 38.83007
658.3046, 39.87257
658.7867, 40.95333
659.2689, 42.15462
659.7510, 43.47486
660.2331, 44.93364
660.7152, 46.55523
661.1973, 48.18233
661.6794, 49.80404
662.1616, 51.35655
662.6437, 52.61636
663.1258, 53.57666
663.6079, 54.24830
664.0900, 54.67745
664.5721, 54.80641
665.0543, 54.54069
665.5364, 53.81065
666.0185, 52.89521
666.5006, 52.00244
666.9827, 50.94766
667.4648, 49.53879
667.9470, 47.46940
668.4291, 45.40059
668.9112, 43.34060
669.3933, 41.28062
669.8754, 39.20931
670.3575, 37.08528
670.8397, 35.11033
671.3218, 33.34947
671.8039, 31.75289
672.2860, 30.16845
672.7681, 28.63978
673.2502, 27.27402
673.7324, 26.20075
674.2145, 25.27648
674.6966, 24.33374
675.1787, 23.39090
675.6608, 22.58143
676.1429, 22.05935
676.6251, 21.62601
677.1072, 21.17765
677.5893, 20.70144
678.0714, 20.22802
678.5535, 19.71605
679.0356, 19.24905
679.5178, 18.90564
679.9999, 18.72445
680.4820, 18.43012
680.9641, 17.98810
681.4462, 17.52856
681.9283, 17.19874
682.4105, 16.96918
682.8926, 16.72359
683.3747, 16.42978
683.8568, 16.14420
684.3389, 15.91117
684.8210, 15.71965
685.3032, 15.54808
685.7853, 15.41726
686.2674, 15.27478
686.7495, 15.08603
687.2316, 14.87337
687.7137, 14.68674
688.1959, 14.53824
688.6780, 14.40069
689.1601, 14.27164
689.6422, 14.14777
690.1243, 14.00490
690.6064, 13.83506
691.0886, 13.69822
691.5707, 13.62504
692.0528, 13.60452
692.5349, 13.63843
693.0170, 13.71564
693.4991, 13.74112
693.9813, 13.58351
694.4634, 13.39132
694.9455, 13.30526
695.4276, 13.34039
695.9097, 13.39389
696.3918, 13.48215
696.8740, 13.53955
697.3561, 13.50992
697.8382, 13.33972
698.3203, 13.26309
698.8024, 13.32108
699.2845, 13.40889
699.7667, 13.41651
700.2488, 13.34483
700.7309, 13.31628
701.2130, 13.35545
701.6951, 13.39325
702.1772, 13.31028
702.6594, 13.16520
703.1415, 13.09228
703.6236, 13.15496
704.1057, 13.24712
704.5878, 13.33498
705.0699, 13.40028
705.5521, 13.41339
706.0342, 13.29466
706.5163, 13.21067
706.9984, 13.20707
707.4805, 13.25273
707.9626, 13.26256
708.4448, 13.21613
708.9269, 13.20454
709.4090, 13.26439
709.8911, 13.37354
710.3732, 13.48335
710.8553, 13.59047
711.3374, 13.65787
711.8195, 13.62216
712.3016, 13.56234
712.7838, 13.56049
713.2659, 13.61641
713.7480, 13.71287
714.2301, 13.90206
714.7122, 14.07890
715.1943, 14.19378
715.6765, 14.23915
716.1586, 14.23065
716.6407, 14.13016
717.1228, 14.02950
717.6049, 13.96889
718.0870, 13.94456
718.5692, 14.02411
719.0513, 14.22069
719.5334, 14.44122
720.0155, 14.62512
720.4976, 14.76426
720.9797, 14.82909
721.4619, 14.80377
721.9440, 14.78020
722.4261, 14.80488
722.9082, 14.87638
723.3903, 14.99855
723.8724, 15.21344
724.3546, 15.40630
724.8367, 15.54967
725.3188, 15.66859
725.8009, 15.78605
726.2830, 15.89252
726.7651, 16.03358
727.2473, 16.22880
727.7294, 16.44046
728.2115, 16.61730
728.6936, 16.75853
729.1757, 16.85150
729.6578, 16.89043
730.1400, 16.88234
730.6221, 16.82537
731.1042, 16.72817
731.5863, 16.60972
732.0684, 16.47802
732.5505, 16.32592
733.0327, 16.14277
733.5148, 15.93493
733.9969, 15.73628
734.4790, 15.57065
734.9611, 15.36684
735.4432, 15.07498
735.9254, 14.73671
736.4075, 14.54046
736.8896, 14.48591
737.3717, 14.45926
737.8538, 14.40301
738.3359, 14.33264
738.8181, 14.27423
739.3002, 14.22495
739.7823, 14.16819
740.2644, 14.07384
740.7465, 13.98651
741.2286, 13.92142
741.7108, 13.87930
742.1929, 13.90474
742.6750, 14.05936
743.1571, 14.20090
743.6392, 14.24572
744.1213, 14.18825
744.6035, 14.22690
745.0856, 14.37948
745.5677, 14.51360
746.0498, 14.46675
746.5319, 14.33176
747.0140, 14.33134
747.4962, 14.48860
747.9783, 14.63696
748.4604, 14.63423
748.9425, 14.58956
749.4246, 14.59567
749.9067, 14.67120
750.3889, 14.78566
750.8710, 14.97864
751.3531, 15.17068
751.8352, 15.29611
752.3173, 15.33346
752.7994, 15.40272
753.2816, 15.51242
753.7637, 15.64597
754.2458, 15.81227
754.7279, 15.98939
755.2100, 16.09937
755.6921, 16.10644
756.1743, 16.12986
756.6564, 16.31385
757.1385, 16.55155
757.6206, 16.71015
758.1027, 16.68837
758.5848, 16.69289
759.0670, 16.77603
759.5491, 16.89147
760.0312, 16.99234
760.5133, 17.08463
760.9954, 17.13822
761.4775, 17.14576
761.9597, 17.12026
762.4418, 17.08777
762.9239, 17.04177
763.4060, 16.94658
763.8881, 16.75525
764.3702, 16.57921
764.8524, 16.55785
765.3345, 16.61812
765.8166, 16.63420
766.2987, 16.54896
766.7808, 16.43568
767.2629, 16.29964
767.7451, 16.14947
768.2272, 15.98354
768.7093, 15.77249
769.1914, 15.66432
769.6735, 15.72892
770.1556, 15.87379
770.6378, 15.88896
771.1199, 15.79646
771.6020, 15.70969
772.0841, 15.70835
772.5662, 15.70222
773.0483, 15.59366
773.5305, 15.41536
774.0126, 15.25085
774.4947, 15.12358
774.9768, 15.01902
775.4589, 14.94637
775.9410, 14.89278
776.4232, 14.80630
776.9053, 14.66533
777.3874, 14.56803
777.8695, 14.56707
778.3516, 14.61798
778.8337, 14.58765
779.3159, 14.49016
779.7980, 14.40883
780.2801, 14.44499
780.7622, 14.47339
781.2443, 14.34015
781.7264, 14.09276
782.2086, 13.93261
782.6907, 14.02096
783.1728, 14.09892
783.6549, 14.06976
784.1370, 13.95441
784.6191, 13.87676
785.1013, 13.84109
785.5834, 13.82873
786.0655, 13.84079
786.5476, 13.86674
787.0297, 13.88333
787.5118, 13.88846
787.9940, 13.86734
788.4761, 13.75536
788.9582, 13.65859
789.4403, 13.69347
789.9224, 13.84074
790.4045, 13.92516
790.8867, 13.83627
791.3688, 13.75313
791.8509, 13.75005
792.3330, 13.81431
792.8151, 13.79332
793.2972, 13.66918
793.7794, 13.56656
794.2615, 13.57957
794.7436, 13.65694
795.2257, 13.67269
795.7078, 13.63364
796.1899, 13.57920
796.6721, 13.48050
797.1542, 13.41786
797.6363, 13.47577
798.1184, 13.65015
798.6005, 13.76193
799.0826, 13.76301
799.5648, 13.73985
800.0469, 13.72351
800.5290, 13.71189
801.0111, 13.67235
801.4932, 13.60234
801.9753, 13.54331
802.4575, 13.51373
802.9396, 13.51509
803.4217, 13.56598
803.9038, 13.65814
804.3859, 13.73694
804.8680, 13.78138
805.3502, 13.79717
805.8323, 13.77187
806.3144, 13.70506
806.7965, 13.68036
807.2786, 13.72840
807.7607, 13.76031
808.2429, 13.72782
808.7250, 13.64453
809.2071, 13.59099
809.6892, 13.56700
810.1713, 13.56464
810.6534, 13.60144
811.1356, 13.64283
811.6177, 13.63935
812.0998, 13.59789
812.5819, 13.57505
813.0640, 13.60096
813.5461, 13.64333
814.0283, 13.70614
814.5104, 13.78347
814.9925, 13.78235
815.4746, 13.67126
815.9567, 13.58910
816.4388, 13.62070
816.9210, 13.72673
817.4031, 13.77782
817.8852, 13.78047
818.3673, 13.78250
818.8494, 13.80243
819.3315, 13.84121
819.8137, 13.93899
820.2958, 14.07552
820.7779, 14.10764
821.2600, 13.85649
821.7421, 13.67009
822.2242, 13.67506
822.7064, 13.83245
823.1885, 13.91193
823.6706, 13.90663
824.1527, 13.91193
824.6348, 14.00097
825.1169, 14.11465
825.5991, 14.14229
826.0812, 14.10202
826.5633, 14.06497
827.0454, 14.07441
827.5275, 14.08705
828.0096, 14.07693
828.4918, 14.04969
828.9739, 14.04419
829.4560, 14.08115
829.9381, 14.09119
830.4202, 14.03246
830.9023, 13.94653
831.3845, 13.97429
831.8666, 14.10123
832.3487, 14.22066
832.8308, 14.28375
833.3129, 14.31299
833.7950, 14.32815
834.2772, 14.32643
834.7593, 14.30063
835.2414, 14.16573
835.7235, 14.10990
836.2056, 14.21414
836.6877, 14.40943
837.1699, 14.51088
837.6520, 14.50665
838.1341, 14.48570
838.6162, 14.45935
839.0983, 14.45092
839.5804, 14.53810
840.0626, 14.67616
840.5447, 14.74618
841.0268, 14.60771
841.5089, 14.49993
841.9910, 14.56293
842.4731, 14.72732
842.9553, 14.86249
843.4374, 14.95879
843.9195, 15.03213
844.4016, 15.08330
844.8837, 15.11479
845.3658, 15.10641
845.8480, 15.07242
846.3301, 15.10977
846.8122, 15.26341
847.2943, 15.43816
847.7764, 15.55338
848.2585, 15.62903
848.7407, 15.69023
849.2228, 15.71561
849.7049, 15.77122
850.1870, 15.86954
850.6691, 15.99665
851.1512, 16.13570
851.6334, 16.28360
852.1155, 16.47343
852.5976, 16.71414
853.0797, 16.96763
853.5618, 17.19723
854.0439, 17.40873
854.5261, 17.60485
855.0082, 17.77325
855.4903, 17.97509
855.9724, 18.25608
856.4545, 18.57320
856.9366, 18.89208
857.4188, 19.21721
857.9009, 19.52482
858.3830, 19.79918
858.8651, 20.08929
859.3472, 20.45888
859.8293, 20.88208
860.3115, 21.24514
860.7936, 21.54415
861.2757, 21.86097
861.7578, 22.21930
862.2399, 22.65084
862.7220, 23.22925
863.2042, 23.98432
863.6863, 24.61636
864.1684, 25.01194
864.6505, 25.40221
865.1326, 25.89420
865.6147, 26.48391
866.0969, 27.09690
866.5790, 27.73759
867.0611, 28.31011
867.5432, 28.72726
868.0253, 29.06489
868.5074, 29.43425
868.9896, 29.82341
869.4717, 30.12850
869.9538, 30.26324
870.4359, 30.36558
870.9180, 30.50345
871.4001, 30.65318
871.8823, 30.70736
872.3644, 30.66754
872.8465, 30.51248
873.3286, 30.17488
873.8107, 29.77954
874.2928, 29.57249
874.7750, 29.49500
875.2571, 29.38463
875.7392, 29.09530
876.2213, 28.83807
876.7034, 28.74172
877.1855, 28.72920
877.6677, 28.62744
878.1498, 28.39879
878.6319, 28.19072
879.1140, 28.03566
879.5961, 27.89880
880.0782, 27.73618
880.5604, 27.54220
881.0425, 27.28503
881.5246, 26.92331
882.0067, 26.58951
882.4888, 26.41578
882.9709, 26.30207
883.4531, 26.13519
883.9352, 25.95453
884.4173, 25.59973
884.8994, 24.99655
885.3815, 24.33623
885.8636, 23.83133
886.3458, 23.45463
886.8279, 23.01207
887.3100, 22.48723
887.7921, 21.97930
888.2742, 21.55627
888.7563, 21.19949
889.2385, 20.91390
889.7206, 20.70977
890.2027, 20.46912
890.6848, 20.12292
891.1669, 19.80820
891.6490, 19.60318
892.1312, 19.49906
892.6133, 19.37387
893.0954, 19.22861
893.5775, 19.13607
894.0596, 19.21215
894.5417, 19.31971
895.0239, 19.26974
895.5060, 19.09896
895.9881, 19.00205
896.4702, 19.05673
896.9523, 19.18253
897.4344, 19.37156
897.9166, 19.60894
898.3987, 19.84406
898.8808, 20.08162
899.3629, 20.28356
899.8450, 20.42098
900.3271, 20.54948
900.8093, 20.74518
901.2914, 20.99398
901.7735, 21.26901
902.2556, 21.59823
902.7377, 21.90311
903.2198, 22.10063
903.7020, 22.29413
904.1841, 22.62648
904.6662, 23.13591
905.1483, 23.57269
905.6304, 23.91522
906.1125, 24.18878
906.5947, 24.38096
907.0768, 24.54484
907.5589, 24.81461
908.0410, 25.24508
908.5231, 25.53062
909.0052, 25.49083
909.4874, 25.27691
909.9695, 24.99473
910.4516, 24.64973
910.9337, 24.22806
911.4158, 23.72723
911.8979, 23.16960
912.3801, 22.54327
912.8622, 21.87774
913.3443, 21.23369
913.8264, 20.60978
914.3085, 20.03849
914.7906, 19.55268
915.2728, 19.10659
915.7549, 18.69600
916.2370, 18.30924
916.7191, 17.89109
917.2012, 17.42093
917.6833, 17.00809
918.1655, 16.68062
918.6476, 16.43484
919.1297, 16.30859
919.6118, 16.25907
920.0939, 16.16800
920.5760, 15.97392
921.0582, 15.75643
921.5403, 15.48754
922.0224, 15.24670
922.5045, 15.14565
922.9866, 15.25810
923.4688, 15.28991
923.9509, 15.20439
924.4330, 15.09331
924.9151, 15.06175
925.3972, 15.08651
925.8793, 15.11444
926.3615, 15.13860
926.8436, 15.17489
927.3257, 15.27441
927.8078, 15.35732
928.2899, 15.34424
928.7720, 15.22771
929.2542, 15.18271
929.7363, 15.22495
930.2184, 15.28676
930.7005, 15.32997
931.1826, 15.36789
931.6647, 15.46554
932.1469, 15.59753
932.6290, 15.65489
933.1111, 15.46829
933.5932, 15.31459
934.0753, 15.33908
934.5574, 15.49668
935.0396, 15.65244
935.5217, 15.82019
936.0038, 15.93878
936.4859, 15.98330
936.9680, 16.01024
937.4501, 16.11176
937.9323, 16.26463
938.4144, 16.41004
938.8965, 16.52929
939.3786, 16.65914
939.8607, 16.82317
940.3428, 17.00181
940.8250, 17.18279
941.3071, 17.38059
941.7892, 17.50547
942.2713, 17.54121
942.7534, 17.56701
943.2355, 17.68335
943.7177, 17.82215
944.1998, 17.81685
944.6819, 17.68110
945.1640, 17.57312
945.6461, 17.61755
946.1282, 17.66402
946.6104, 17.62218
947.0925, 17.52173
947.5746, 17.49391
948.0567, 17.56086
948.5388, 17.55370
949.0209, 17.37004
949.5031, 17.17076
949.9852, 17.26014
950.4673, 17.52303
950.9494, 17.71114
951.4315, 17.68167
951.9136, 17.67518
952.3958, 17.77980
952.8779, 17.92924
953.3600, 18.06584
953.8421, 18.18811
954.3242, 18.31155
954.8063, 18.43719
955.2885, 18.55478
955.7706, 18.68557
956.2527, 18.78582
956.7348, 18.75523
957.2169, 18.59175
957.6990, 18.51035
958.1811, 18.71601
958.6632, 18.86870
959.1453, 18.80939
959.6274, 18.59326
960.1096, 18.51945
960.5917, 18.58758
961.0738, 18.67931
961.5559, 18.74621
962.0380, 18.81291
962.5201, 18.93778
963.0023, 19.07639
963.4844, 19.14985
963.9665, 19.01212
964.4486, 18.98869
964.9307, 19.14579
965.4128, 19.37327
965.8950, 19.55019
966.3771, 19.67922
966.8592, 19.77938
967.3413, 19.84843
967.8234, 19.94304
968.3055, 20.10087
968.7877, 20.31135
969.2698, 20.58867
969.7519, 20.94026
970.2340, 21.21445
970.7161, 21.37075
971.1982, 21.52522
971.6804, 21.73594
972.1625, 21.97551
972.6446, 22.14656
973.1267, 22.26716
973.6088, 22.42560
974.0909, 22.75913
974.5731, 23.02372
975.0552, 23.05216
975.5373, 22.93349
976.0194, 22.82794
976.5015, 22.78474
976.9836, 22.62713
977.4658, 22.32132
977.9479, 21.97036
978.4300, 21.70924
978.9121, 21.49213
979.3942, 21.19979
979.8763, 20.81679
980.3585, 20.46920
980.8406, 20.25094
981.3227, 20.06096
981.8048, 19.81656
982.2869, 19.53489
982.7690, 19.43277
983.2512, 19.53176
983.7333, 19.58701
984.2154, 19.44987
984.6975, 19.26334
985.1796, 19.22806
985.6617, 19.29353
986.1439, 19.35781
986.6260, 19.36056
987.1081, 19.39572
987.5902, 19.46237
988.0723, 19.57854
988.5544, 19.78914
989.0366, 20.08859
989.5187, 20.31757
990.0008, 20.46075
990.4829, 20.58989
990.9650, 20.78422
991.4471, 20.97991
991.9293, 21.09785
992.4114, 21.13146
992.8935, 21.24262
993.3756, 21.46525
993.8577, 21.71384
994.3398, 21.96669
994.8220, 22.21465
995.3041, 22.39399
995.7862, 22.53835
996.2683, 22.78510
996.7504, 23.24948
997.2325, 23.71602
997.7147, 24.06542
998.1968, 24.35559
998.6789, 24.65313
999.1610, 24.92706
999.6431, 25.34778
1000.125, 25.94083
1000.607, 26.54349
1001.089, 26.98515
1001.572, 27.34085
1002.054, 27.74593
1002.536, 28.19346
1003.018, 28.57329
1003.500, 28.79062
1003.982, 28.97867
1004.464, 29.17973
1004.946, 29.38259
1005.429, 29.54479
1005.911, 29.66854
1006.393, 29.78234
1006.875, 29.90472
1007.357, 29.99640
1007.839, 30.00269
1008.321, 29.96727
1008.803, 29.94985
1009.285, 30.00448
1009.768, 29.96140
1010.250, 29.79010
1010.732, 29.57839
1011.214, 29.34111
1011.696, 29.11744
1012.178, 29.09994
1012.660, 29.26233
1013.142, 29.43272
1013.625, 29.47552
1014.107, 29.54222
1014.589, 29.71608
1015.071, 29.96798
1015.553, 30.21731
1016.035, 30.44865
1016.517, 30.79936
1016.999, 31.33005
1017.481, 31.84487
1017.964, 32.11744
1018.446, 32.20570
1018.928, 32.19971
1019.410, 32.12187
1019.892, 31.89999
1020.374, 31.53346
1020.856, 30.99678
1021.338, 30.20758
1021.820, 29.23180
1022.303, 28.50399
1022.785, 27.98402
1023.267, 27.40816
1023.749, 26.56096
1024.231, 25.70702
1024.713, 25.01246
1025.195, 24.43319
1025.677, 23.88834
1026.160, 23.36792
1026.642, 22.90214
1027.124, 22.49338
1027.606, 22.13854
1028.088, 21.85868
1028.570, 21.62243
1029.052, 21.33193
1029.534, 20.99154
1030.016, 20.76705
1030.499, 20.79404
1030.981, 20.88278
1031.463, 20.99342
1031.945, 21.09919
1032.427, 21.07338
1032.909, 20.92699
1033.391, 20.86486
1033.873, 20.97642
1034.356, 21.12186
1034.838, 21.17454
1035.320, 21.19021
1035.802, 21.23710
1036.284, 21.34439
1036.766, 21.43023
1037.248, 21.50051
1037.730, 21.53388
1038.213, 21.47410
1038.695, 21.37803
1039.177, 21.42815
1039.659, 21.58478
1040.141, 21.67761
1040.623, 21.63787
1041.105, 21.50744
1041.587, 21.26333
1042.069, 20.96188
1042.552, 20.66229
1043.034, 20.36484
1043.516, 20.15439
1043.998, 20.04804
1044.480, 19.95585
1044.962, 19.79968
1045.444, 19.61179
1045.926, 19.42670
1046.408, 19.24654
1046.891, 19.01992
1047.373, 18.70544
1047.855, 18.45307
1048.337, 18.34572
1048.819, 18.30035
1049.301, 18.10628
1049.783, 17.83512
1050.265, 17.66607
1050.748, 17.70933
1051.230, 17.76705
1051.712, 17.75342
1052.194, 17.74346
1052.676, 17.79531
1053.158, 17.91184
1053.640, 18.04139
1054.122, 18.18352
1054.604, 18.32338
1055.087, 18.46358
1055.569, 18.58535
1056.051, 18.67023
1056.533, 18.72451
1057.015, 18.77318
1057.497, 18.83504
1057.979, 18.84697
1058.461, 18.79229
1058.943, 18.70770
1059.426, 18.66253
1059.908, 18.61572
1060.390, 18.46984
1060.872, 18.20637
1061.354, 17.95567
1061.836, 17.77468
1062.318, 17.61385
1062.800, 17.45622
1063.283, 17.30284
1063.765, 17.14362
1064.247, 16.98203
1064.729, 16.85984
1065.211, 16.80539
1065.693, 16.76182
1066.175, 16.68019
1066.657, 16.58916
1067.140, 16.52976
1067.622, 16.53076
1068.104, 16.42817
1068.586, 16.19378
1069.068, 16.00626
1069.550, 16.06223
1070.032, 16.20391
1070.514, 16.15348
1070.996, 15.97240
1071.479, 15.86787
1071.961, 15.98960
1072.443, 16.07592
1072.925, 16.07308
1073.407, 16.04690
1073.889, 16.10344
1074.371, 16.21534
1074.853, 16.26757
1075.335, 16.24674
1075.818, 16.21437
1076.300, 16.20684
1076.782, 16.20012
1077.264, 16.18016
1077.746, 16.14907
1078.228, 16.10559
1078.710, 16.04685
1079.192, 16.04837
1079.675, 16.15683
1080.157, 16.26599
1080.639, 16.24464
1081.121, 16.16663
1081.603, 16.10901
1082.085, 16.05773
1082.567, 16.16128
1083.049, 16.48874
1083.531, 16.77901
1084.014, 16.84016
1084.496, 16.78927
1084.978, 16.91635
1085.460, 17.16384
1085.942, 17.37080
1086.424, 17.49588
1086.906, 17.54356
1087.388, 17.50125
1087.870, 17.40422
1088.353, 17.28843
1088.835, 17.15060
1089.317, 16.95397
1089.799, 16.69865
1090.281, 16.43868
1090.763, 16.15853
1091.245, 15.93511
1091.727, 15.85655
1092.209, 15.86890
1092.692, 15.79226
1093.174, 15.59483
1093.656, 15.57999
1094.138, 15.83917
1094.620, 16.11852
1095.102, 16.12299
1095.584, 16.00611
1096.066, 15.93251
1096.549, 15.92622
1097.031, 15.93644
1097.513, 15.97328
1097.995, 15.98560
1098.477, 15.93086
1098.959, 15.87109
1099.441, 15.96044
1099.923, 16.14116
1100.406, 16.28501
1100.888, 16.34026
1101.370, 16.39276
1101.852, 16.46690
1102.334, 16.54161
1102.816, 16.59396
1103.298, 16.63150
1103.780, 16.72733
1104.262, 16.87488
1104.745, 17.02890
1105.227, 17.16587
1105.709, 17.30333
1106.191, 17.46852
1106.673, 17.63128
1107.155, 17.73562
1107.637, 17.76581
1108.119, 17.87305
1108.601, 18.07041
1109.084, 18.28280
1109.566, 18.50134
1110.048, 18.66613
1110.530, 18.69043
1111.012, 18.60270
1111.494, 18.57155
1111.976, 18.65358
1112.458, 18.64499
1112.941, 18.49482
1113.423, 18.29002
1113.905, 18.17637
1114.387, 18.06692
1114.869, 17.77833
1115.351, 17.27003
1115.833, 16.90280
1116.315, 16.82500
1116.797, 16.78125
1117.280, 16.70598
1117.762, 16.59288
1118.244, 16.40077
1118.726, 16.15959
1119.208, 15.94347
1119.690, 15.76792
1120.172, 15.64311
1120.654, 15.61329
1121.136, 15.59905
1121.619, 15.54491
1122.101, 15.45953
1122.583, 15.44944
1123.065, 15.50351
1123.547, 15.52275
1124.029, 15.42109
1124.511, 15.32023
1124.993, 15.31579
1125.476, 15.34400
1125.958, 15.31398
1126.440, 15.20389
1126.922, 15.16142
1127.404, 15.19113
1127.886, 15.24102
1128.368, 15.33497
1128.850, 15.37849
1129.333, 15.20020
1129.815, 14.90211
1130.297, 14.79066
1130.779, 14.95788
1131.261, 15.08053
1131.743, 15.12230
1132.225, 15.13192
1132.707, 15.16973
1133.189, 15.20333
1133.672, 15.16979
1134.154, 15.07539
1134.636, 15.02274
1135.118, 15.06969
1135.600, 15.09215
1136.082, 15.06277
1136.564, 14.99963
1137.046, 14.89711
1137.528, 14.79121
1138.011, 14.77938
1138.493, 14.88669
1138.975, 14.97066
1139.457, 14.96210
1139.939, 14.93544
1140.421, 14.90423
1140.903, 14.88177
1141.385, 14.93103
1141.868, 15.02659
1142.350, 15.06028
1142.832, 14.97145
1143.314, 14.90492
1143.796, 14.99324
1144.278, 15.07247
1144.760, 15.00794
1145.242, 14.82114
1145.724, 14.78515
1146.207, 14.88638
1146.689, 14.99981
1147.171, 15.09720
1147.653, 15.14277
1148.135, 15.05468
1148.617, 14.93622
1149.099, 14.91841
1149.581, 15.03114
1150.063, 15.03529
1150.546, 14.92803
1151.028, 14.83305
1151.510, 14.85107
1151.992, 14.90174
1152.474, 14.93516
1152.956, 14.94794
1153.438, 14.93011
1153.920, 14.86554
1154.403, 14.83275
1154.885, 14.83796
1155.367, 14.86125
1155.849, 14.89956
1156.331, 14.93505
1156.813, 14.94537
1157.295, 14.93375
1157.777, 14.91987
1158.260, 14.91509
1158.742, 14.87600
1159.224, 14.78179
1159.706, 14.70334
1160.188, 14.76895
1160.670, 14.87970
1161.152, 14.87003
1161.634, 14.73612
1162.116, 14.65647
1162.599, 14.69702
1163.081, 14.72274
1163.563, 14.69460
1164.045, 14.65560
1164.527, 14.67968
1165.009, 14.74219
1165.491, 14.79964
1165.973, 14.84601
1166.455, 14.87735
1166.938, 14.89748
1167.420, 14.89159
1167.902, 14.83582
1168.384, 14.77194
1168.866, 14.83154
1169.348, 14.95914
1169.830, 14.99354
1170.312, 14.86409
1170.795, 14.77180
1171.277, 14.84307
1171.759, 14.89762
1172.241, 14.83882
1172.723, 14.70584
1173.205, 14.63034
1173.687, 14.60962
1174.169, 14.63560
1174.651, 14.74262
1175.134, 14.81462
1175.616, 14.75715
1176.098, 14.69572
1176.580, 14.70958
1177.062, 14.79102
1177.544, 14.90895
1178.026, 15.04628
1178.508, 15.10849
1178.990, 14.97377
1179.473, 14.85673
1179.955, 14.88762
1180.437, 14.94916
1180.919, 14.92149
1181.401, 14.80710
1181.883, 14.78466
1182.365, 14.84653
1182.847, 14.90599
1183.330, 14.90594
1183.812, 14.89756
1184.294, 14.89463
1184.776, 14.90667
1185.258, 14.96136
1185.740, 15.06114
1186.222, 15.06657
1186.704, 14.97529
1187.187, 14.90504
1187.669, 14.94874
1188.151, 15.02470
1188.633, 15.10956
1189.115, 15.17995
1189.597, 15.17817
1190.079, 15.09786
1190.561, 15.12410
1191.043, 15.27817
1191.526, 15.37357
1192.008, 15.16634
1192.490, 14.94140
1192.972, 14.92027
1193.454, 15.03482
1193.936, 15.10122
1194.418, 15.11826
1194.900, 15.08996
1195.382, 15.01130
1195.865, 14.95396
1196.347, 15.02790
1196.829, 15.10452
1197.311, 15.05388
1197.793, 14.91789
1198.275, 14.88486
1198.757, 14.96458
1199.239, 15.01134
1199.722, 14.99018
1200.204, 14.97025
1200.686, 15.02117
1201.168, 15.09440
1201.650, 15.16502
1202.132, 15.22373
1202.614, 15.20497
1203.096, 15.09981
1203.578, 15.05738
1204.061, 15.13057
1204.543, 15.21671
1205.025, 15.23218
1205.507, 15.20347
1205.989, 15.13293
1206.471, 15.02850
1206.953, 14.98941
1207.435, 15.01576
1207.917, 15.10159
1208.400, 15.27068
1208.882, 15.41529
1209.364, 15.42212
1209.846, 15.35561
1210.328, 15.26070
1210.810, 15.14277
1211.292, 15.08889
1211.774, 15.10165
1212.257, 15.13075
1212.739, 15.15998
1213.221, 15.19312
1213.703, 15.25665
1214.185, 15.31195
1214.667, 15.30753
1215.149, 15.24124
1215.631, 15.18789
1216.114, 15.14613
1216.596, 15.16423
1217.078, 15.30960
1217.560, 15.43817
1218.042, 15.39407
1218.524, 15.28345
1219.006, 15.22971
1219.488, 15.24067
1219.970, 15.24936
1220.453, 15.25566
1220.935, 15.25255
1221.417, 15.20827
1221.899, 15.19530
1222.381, 15.33270
1222.863, 15.49623
1223.345, 15.52689
1223.827, 15.40692
1224.309, 15.31863
1224.792, 15.26188
1225.274, 15.23575
1225.756, 15.27282
1226.238, 15.29806
1226.720, 15.21020
1227.202, 15.11170
1227.684, 15.14233
1228.166, 15.32503
1228.649, 15.40387
1229.131, 15.38290
1229.613, 15.33721
1230.095, 15.28758
1230.577, 15.25387
1231.059, 15.24977
1231.541, 15.26850
1232.023, 15.30722
1232.505, 15.36810
1232.988, 15.38334
1233.470, 15.35678
1233.952, 15.35216
1234.434, 15.46651
1234.916, 15.54651
1235.398, 15.45462
1235.880, 15.32068
1236.362, 15.29434
1236.844, 15.37284
1237.327, 15.43948
1237.809, 15.48977
1238.291, 15.50702
1238.773, 15.44298
1239.255, 15.38934
1239.737, 15.39033
1240.219, 15.42028
1240.701, 15.47374
1241.184, 15.54065
1241.666, 15.51065
1242.148, 15.39471
1242.630, 15.31659
1243.112, 15.37685
1243.594, 15.44523
1244.076, 15.48616
1244.558, 15.50963
1245.041, 15.52037
1245.523, 15.52305
1246.005, 15.56168
1246.487, 15.62425
1246.969, 15.62304
1247.451, 15.36934
1247.933, 15.26475
1248.415, 15.46318
1248.897, 15.72558
1249.380, 15.75213
1249.862, 15.62539
1250.344, 15.61390
1250.826, 15.70288
1251.308, 15.73700
1251.790, 15.55354
1252.272, 15.46131
1252.754, 15.52230
1253.236, 15.64860
1253.719, 15.73817
1254.201, 15.82122
1254.683, 16.01407
1255.165, 16.27577
1255.647, 16.38850
1256.129, 16.13232
1256.611, 16.01339
1257.093, 16.12370
1257.576, 16.26175
1258.058, 16.17832
1258.540, 16.00749
1259.022, 15.97250
1259.504, 16.04012
1259.986, 15.99189
1260.468, 15.69932
1260.950, 15.60235
1261.432, 15.78331
1261.915, 15.99079
1262.397, 15.95661
1262.879, 15.83686
1263.361, 15.78875
1263.843, 15.80846
1264.325, 15.84643
1264.807, 15.90385
1265.289, 15.96341
1265.771, 16.02621
1266.254, 16.06423
1266.736, 16.02293
1267.218, 15.97292
1267.700, 15.99909
1268.182, 16.05718
1268.664, 16.00568
1269.146, 15.83064
1269.628, 15.76841
1270.111, 15.84289
1270.593, 15.95222
1271.075, 16.03626
1271.557, 16.11686
1272.039, 16.25916
1272.521, 16.37795
1273.003, 16.28128
1273.485, 15.99756
1273.968, 15.91467
1274.450, 16.05301
1274.932, 16.15892
1275.414, 16.03831
1275.896, 15.90535
1276.378, 15.82234
1276.860, 15.78641
1277.342, 15.80711
1277.824, 15.87098
1278.307, 15.93120
1278.789, 15.98328
1279.271, 16.02442
1279.753, 16.03771
1280.235, 16.06535
1280.717, 16.12733
1281.199, 16.18318
1281.681, 16.15819
1282.163, 16.10278
1282.646, 16.15976
1283.128, 16.30241
1283.610, 16.34541
1284.092, 16.14048
1284.574, 16.03991
1285.056, 16.10697
1285.538, 16.18943
1286.020, 16.08059
1286.503, 15.93233
1286.985, 15.98129
1287.467, 16.17007
1287.949, 16.26406
1288.431, 16.23696
1288.913, 16.13236
1289.395, 15.93857
1289.877, 15.80113
1290.359, 15.89022
1290.842, 16.04694
1291.324, 16.16269
1291.806, 16.23607
1292.288, 16.28424
1292.770, 16.30964
1293.252, 16.25090
1293.734, 16.10789
1294.216, 16.01539
1294.698, 16.12138
1295.181, 16.23841
1295.663, 16.26084
1296.145, 16.24029
1296.627, 16.22606
1297.109, 16.21853
1297.591, 16.22551
1298.073, 16.24492
1298.555, 16.26049
1299.038, 16.24542
1299.520, 16.25654
1300.002, 16.33011
1300.484, 16.39935
1300.966, 16.36042
1301.448, 16.26589
1301.930, 16.28643
1302.412, 16.39008
1302.895, 16.44840
1303.377, 16.38187
1303.859, 16.31482
1304.341, 16.23304
1304.823, 16.19504
1305.305, 16.21083
##END=



