##NAMES=Baddeleyite
##RRUFFID=R060016
##IDEAL CHEMISTRY=Zr^4+^O_2_
##LOCALITY=Wet Loo, Myanmar
##OWNER=RRUFF
##SOURCE=American Museum of Natural History
##DESCRIPTION=Brown crystal fragment
##STATUS=The identification of this mineral has been confirmed by X-ray diffraction and chemical analysis
##URL=rruff.info/R060016
##MEASURED CHEMISTRY=(Zr_0.99_Ti_0.01_)_Î£=1_O_2_
94.51007, 0.0000000E+00
94.99219, 440.6603
95.47430, 436.5674
95.95642, 438.9657
96.43854, 447.0342
96.92065, 458.6191
97.40277, 469.9331
97.88489, 481.5150
98.36700, 493.9838
98.84912, 507.0555
99.33124, 520.8725
99.81335, 536.0216
100.2955, 552.7017
100.7776, 569.9869
101.2597, 587.1506
101.7418, 606.6812
102.2239, 617.5321
102.7061, 618.5558
103.1882, 609.6614
103.6703, 588.9033
104.1524, 552.5233
104.6345, 505.9713
105.1166, 459.7013
105.5988, 412.1915
106.0809, 367.6282
106.5630, 329.4273
107.0451, 297.4613
107.5272, 270.6341
108.0093, 249.6912
108.4915, 232.8142
108.9736, 219.1327
109.4557, 208.4914
109.9378, 200.4062
110.4199, 193.6219
110.9020, 188.6707
111.3842, 184.3813
111.8663, 180.4658
112.3484, 176.9266
112.8305, 173.8170
113.3126, 171.1903
113.7947, 169.0341
114.2769, 167.1807
114.7590, 165.7439
115.2411, 164.4541
115.7232, 163.1956
116.2053, 161.9844
116.6874, 160.9479
117.1696, 160.2452
117.6517, 160.0178
118.1338, 159.5059
118.6159, 158.2697
119.0980, 157.0154
119.5801, 156.4625
120.0623, 156.7985
120.5444, 157.3721
121.0265, 157.2045
121.5086, 156.2931
121.9907, 155.4848
122.4728, 155.1587
122.9550, 155.1241
123.4371, 154.8405
123.9192, 153.9437
124.4013, 153.0557
124.8834, 152.8924
125.3655, 153.4836
125.8476, 154.2060
126.3298, 154.6145
126.8119, 154.6980
127.2940, 154.5838
127.7761, 153.8799
128.2582, 153.2280
128.7404, 153.1175
129.2225, 153.6805
129.7046, 154.5053
130.1867, 154.8682
130.6688, 154.4480
131.1509, 154.1531
131.6331, 154.1426
132.1152, 154.2783
132.5973, 154.4084
133.0794, 154.4561
133.5615, 154.4872
134.0436, 154.7800
134.5258, 155.6230
135.0079, 156.4343
135.4900, 157.1398
135.9721, 157.7629
136.4542, 158.3660
136.9363, 158.9969
137.4185, 159.6453
137.9006, 160.1514
138.3827, 160.4773
138.8648, 160.7372
139.3469, 160.8747
139.8290, 160.9370
140.3112, 161.1941
140.7933, 161.9710
141.2754, 163.1938
141.7575, 164.1054
142.2396, 164.2947
142.7217, 164.3377
143.2039, 164.9398
143.6860, 166.2631
144.1681, 167.6086
144.6502, 168.2059
145.1323, 168.3549
145.6144, 168.7247
146.0966, 169.8202
146.5787, 171.3678
147.0608, 172.4483
147.5429, 172.6086
148.0250, 172.8705
148.5071, 173.6314
148.9893, 174.9005
149.4714, 176.6923
149.9535, 179.1641
150.4356, 182.3718
150.9177, 185.5097
151.3998, 188.4477
151.8820, 191.3954
152.3641, 194.0552
152.8462, 196.6482
153.3283, 199.8855
153.8104, 204.5692
154.2925, 210.7372
154.7747, 218.4204
155.2568, 227.2130
155.7389, 237.4294
156.2210, 249.6655
156.7031, 263.8365
157.1852, 279.0435
157.6673, 294.0013
158.1495, 309.7705
158.6316, 322.9342
159.1137, 333.4990
159.5958, 341.6071
160.0779, 346.7909
160.5600, 348.8205
161.0422, 349.2364
161.5243, 351.1183
162.0064, 354.4627
162.4885, 358.8853
162.9706, 364.0469
163.4527, 370.2479
163.9349, 378.1068
164.4170, 387.9446
164.8991, 399.5828
165.3812, 412.5382
165.8633, 426.8485
166.3454, 442.1709
166.8276, 458.1172
167.3097, 474.7594
167.7918, 493.1866
168.2739, 513.7281
168.7560, 536.5106
169.2381, 561.5821
169.7203, 589.2608
170.2024, 618.0404
170.6845, 647.1105
171.1666, 676.6422
171.6487, 704.7627
172.1308, 729.2852
172.6130, 752.7639
173.0951, 776.3906
173.5772, 800.2308
174.0593, 825.8310
174.5414, 856.4929
175.0235, 894.1071
175.5057, 933.0304
175.9878, 979.5819
176.4699, 1023.379
176.9520, 1057.479
177.4341, 1078.994
177.9162, 1085.202
178.3984, 1067.153
178.8805, 1007.586
179.3626, 942.6884
179.8447, 868.6318
180.3268, 794.3392
180.8089, 728.5201
181.2911, 676.2032
181.7732, 637.0378
182.2553, 609.4484
182.7374, 598.1849
183.2195, 593.0936
183.7016, 593.6813
184.1838, 599.1398
184.6659, 608.2858
185.1480, 620.3544
185.6301, 635.5805
186.1122, 656.2686
186.5943, 682.4664
187.0765, 712.3636
187.5586, 746.9412
188.0407, 785.0101
188.5228, 825.1280
189.0049, 870.4463
189.4870, 915.4257
189.9692, 935.3065
190.4513, 930.8160
190.9334, 902.9216
191.4155, 844.0148
191.8976, 756.0589
192.3797, 662.4982
192.8619, 573.8957
193.3440, 492.7224
193.8261, 424.0833
194.3082, 370.9929
194.7903, 329.3631
195.2724, 296.7641
195.7546, 273.8556
196.2367, 255.8887
196.7188, 241.7254
197.2009, 230.4801
197.6830, 221.6437
198.1651, 215.6521
198.6473, 211.5952
199.1294, 207.9306
199.6115, 204.5780
200.0936, 201.8996
200.5757, 200.0923
201.0578, 198.9547
201.5400, 198.3501
202.0221, 198.3858
202.5042, 198.7998
202.9863, 198.8230
203.4684, 198.3090
203.9505, 197.5968
204.4327, 196.5476
204.9148, 195.4535
205.3969, 194.7423
205.8790, 194.7114
206.3611, 195.2062
206.8432, 195.4116
207.3254, 194.7205
207.8075, 194.4872
208.2896, 195.1662
208.7717, 196.4437
209.2538, 197.8827
209.7359, 199.2133
210.2181, 200.4513
210.7002, 201.6865
211.1823, 202.6433
211.6644, 203.8972
212.1465, 205.7128
212.6286, 207.8979
213.1108, 210.0951
213.5929, 212.0473
214.0750, 213.8006
214.5571, 215.9754
215.0392, 218.6851
215.5213, 221.6576
216.0035, 224.8252
216.4856, 228.1959
216.9677, 231.8003
217.4498, 235.7196
217.9319, 239.8928
218.4140, 243.8298
218.8962, 247.3656
219.3783, 250.8561
219.8604, 255.2463
220.3425, 259.8836
220.8246, 263.0901
221.3067, 264.0760
221.7889, 262.4700
222.2710, 257.3011
222.7531, 246.6771
223.2352, 234.8234
223.7173, 223.0767
224.1994, 211.6404
224.6816, 201.0513
225.1637, 191.4216
225.6458, 183.1488
226.1279, 176.7653
226.6100, 173.1668
227.0921, 170.5124
227.5743, 167.7090
228.0564, 164.7971
228.5385, 162.0457
229.0206, 159.4856
229.5027, 157.2926
229.9848, 155.8034
230.4670, 155.3697
230.9491, 155.1894
231.4312, 154.4450
231.9133, 153.1285
232.3954, 152.1938
232.8775, 152.5254
233.3597, 153.2952
233.8418, 153.3588
234.3239, 152.3349
234.8060, 151.0646
235.2881, 150.4848
235.7702, 150.6730
236.2524, 150.8237
236.7345, 150.5709
237.2166, 150.1653
237.6987, 149.7614
238.1808, 149.3547
238.6629, 149.1157
239.1451, 149.3968
239.6272, 150.3537
240.1093, 151.0007
240.5914, 150.7707
241.0735, 150.2627
241.5556, 149.8365
242.0378, 149.5748
242.5199, 149.4226
243.0020, 149.2960
243.4841, 149.1700
243.9662, 149.1684
244.4483, 149.5845
244.9305, 149.9531
245.4126, 149.9023
245.8947, 149.3667
246.3768, 148.6683
246.8589, 148.1767
247.3410, 147.8261
247.8232, 147.9171
248.3053, 149.1113
248.7874, 150.2754
249.2695, 150.5911
249.7516, 149.9760
250.2337, 149.0679
250.7159, 148.7314
251.1980, 149.2146
251.6801, 149.6151
252.1622, 149.9513
252.6443, 150.1897
253.1264, 150.2480
253.6086, 150.1509
254.0907, 150.0446
254.5728, 150.0984
255.0549, 150.3147
255.5370, 150.7073
256.0191, 151.4119
256.5013, 152.1502
256.9834, 152.8794
257.4655, 153.5284
257.9476, 153.9163
258.4297, 153.7792
258.9118, 152.8674
259.3940, 152.4632
259.8761, 152.8127
260.3582, 153.3376
260.8403, 153.8232
261.3224, 154.2161
261.8045, 154.5013
262.2867, 154.6372
262.7688, 154.5681
263.2509, 154.7497
263.7330, 155.3795
264.2151, 156.0178
264.6972, 156.5096
265.1794, 156.8326
265.6615, 156.9819
266.1436, 156.9049
266.6257, 156.5774
267.1078, 156.6767
267.5899, 157.4989
268.0721, 158.3594
268.5542, 159.1016
269.0363, 159.6550
269.5184, 159.8317
270.0005, 159.3985
270.4826, 158.4448
270.9648, 158.3215
271.4469, 159.5610
271.9290, 160.8724
272.4111, 161.8768
272.8932, 162.5852
273.3753, 163.0620
273.8575, 163.3090
274.3396, 163.3764
274.8217, 163.5273
275.3038, 163.5269
275.7859, 163.8385
276.2680, 164.8196
276.7502, 166.2092
277.2323, 167.4400
277.7144, 168.2061
278.1965, 168.7265
278.6786, 169.6817
279.1607, 171.1488
279.6429, 172.7649
280.1250, 174.7468
280.6071, 176.7798
281.0892, 178.0878
281.5713, 178.2293
282.0534, 178.0418
282.5356, 179.3676
283.0177, 182.5727
283.4998, 185.6006
283.9819, 187.6456
284.4640, 189.2773
284.9461, 191.3731
285.4283, 194.1853
285.9104, 197.4074
286.3925, 200.7518
286.8746, 204.2593
287.3567, 207.5328
287.8388, 210.3619
288.3210, 212.9802
288.8031, 215.6481
289.2852, 218.4286
289.7673, 221.2797
290.2494, 224.1643
290.7315, 227.0941
291.2137, 230.0057
291.6958, 232.9698
292.1779, 235.8860
292.6600, 238.3858
293.1421, 240.4055
293.6242, 242.9345
294.1064, 247.0919
294.5885, 252.5692
295.0706, 257.4878
295.5527, 261.2401
296.0348, 264.6624
296.5169, 268.3420
296.9991, 272.2915
297.4812, 276.6357
297.9633, 281.5890
298.4454, 286.9740
298.9275, 292.1519
299.4096, 296.8926
299.8918, 301.6550
300.3739, 306.8460
300.8560, 312.4097
301.3381, 317.8832
301.8202, 323.1412
302.3023, 328.1133
302.7845, 332.8628
303.2666, 337.3905
303.7487, 341.6338
304.2308, 345.7309
304.7129, 349.5367
305.1950, 352.7796
305.6772, 355.8931
306.1593, 357.5307
306.6414, 355.6976
307.1235, 350.3135
307.6056, 343.7926
308.0877, 336.8114
308.5699, 329.4499
309.0520, 321.6341
309.5341, 313.0222
310.0162, 304.7675
310.4983, 298.6011
310.9804, 294.1595
311.4626, 289.6330
311.9447, 283.4244
312.4268, 277.1300
312.9089, 273.3105
313.3910, 272.4285
313.8731, 272.8762
314.3553, 273.9191
314.8374, 275.3090
315.3195, 276.2278
315.8016, 275.8950
316.2837, 275.3785
316.7658, 275.8060
317.2480, 277.2081
317.7301, 279.1397
318.2122, 281.4767
318.6943, 284.1693
319.1764, 286.9823
319.6585, 289.6316
320.1407, 292.7408
320.6228, 296.8432
321.1049, 301.8644
321.5870, 307.3658
322.0691, 313.2174
322.5512, 319.4167
323.0334, 325.8330
323.5155, 332.3171
323.9976, 339.3276
324.4797, 347.0199
324.9618, 355.4142
325.4439, 364.5138
325.9261, 374.4170
326.4082, 384.9281
326.8903, 396.0139
327.3724, 407.5652
327.8545, 419.4889
328.3366, 431.9604
328.8188, 444.6592
329.3009, 457.4919
329.7830, 470.7188
330.2651, 482.8484
330.7472, 492.7451
331.2293, 500.4220
331.7115, 505.1405
332.1936, 506.7724
332.6757, 505.3466
333.1578, 500.4757
333.6399, 492.1392
334.1220, 481.7737
334.6042, 469.4607
335.0863, 455.8027
335.5684, 443.3484
336.0505, 431.6613
336.5326, 421.7119
337.0147, 414.0805
337.4969, 408.6833
337.9790, 405.1749
338.4611, 403.4765
338.9432, 403.6142
339.4253, 405.4902
339.9074, 409.1778
340.3896, 413.9785
340.8717, 419.7331
341.3538, 426.4018
341.8359, 434.0058
342.3180, 442.6663
342.8001, 451.9706
343.2823, 461.6753
343.7644, 471.8756
344.2465, 481.4688
344.7286, 491.3368
345.2107, 499.9447
345.6928, 506.0124
346.1750, 509.3610
346.6571, 509.2499
347.1392, 504.9147
347.6213, 495.8363
348.1034, 484.0874
348.5855, 469.5974
349.0677, 452.4420
349.5498, 431.1133
350.0319, 406.4977
350.5140, 382.5228
350.9961, 361.2557
351.4782, 342.4872
351.9604, 325.2839
352.4425, 308.8272
352.9246, 294.4716
353.4067, 283.0904
353.8888, 273.9495
354.3709, 265.7867
354.8531, 258.0980
355.3352, 251.2687
355.8173, 246.1241
356.2994, 242.9505
356.7815, 240.7661
357.2636, 239.5790
357.7458, 239.3010
358.2279, 239.8765
358.7100, 241.2819
359.1921, 243.5279
359.6742, 246.7234
360.1563, 251.1074
360.6385, 255.0760
361.1206, 257.7621
361.6027, 260.8495
362.0848, 265.4551
362.5669, 271.2993
363.0490, 277.3741
363.5312, 282.9302
364.0133, 288.1068
364.4954, 293.9936
364.9775, 301.1636
365.4596, 308.2951
365.9417, 314.9809
366.4239, 321.5000
366.9060, 328.1891
367.3881, 335.2178
367.8702, 342.5639
368.3523, 350.2169
368.8344, 358.3167
369.3166, 366.5155
369.7987, 374.3936
370.2808, 382.6753
370.7629, 391.8609
371.2450, 402.0379
371.7271, 413.1138
372.2093, 425.0455
372.6914, 438.1503
373.1735, 450.5553
373.6556, 461.4250
374.1377, 472.4464
374.6198, 484.2885
375.1020, 496.7601
375.5841, 509.3117
376.0662, 521.7135
376.5483, 533.7518
377.0304, 544.2426
377.5125, 553.8147
377.9947, 560.5664
378.4768, 564.4326
378.9589, 565.4587
379.4410, 563.3199
379.9231, 557.9822
380.4052, 550.5269
380.8874, 542.5991
381.3695, 534.5305
381.8516, 524.8990
382.3337, 513.4964
382.8158, 500.5747
383.2979, 485.9634
383.7801, 469.8084
384.2622, 452.5945
384.7443, 434.5514
385.2264, 415.7809
385.7085, 396.5320
386.1906, 376.0214
386.6728, 356.1795
387.1549, 337.6601
387.6370, 320.2569
388.1191, 303.7798
388.6012, 288.0023
389.0833, 273.2031
389.5655, 259.9764
390.0476, 248.3969
390.5297, 238.0723
391.0118, 229.4709
391.4939, 221.7395
391.9760, 214.2605
392.4582, 206.9427
392.9403, 200.1861
393.4224, 194.3996
393.9045, 189.4965
394.3866, 184.9440
394.8687, 180.6379
395.3509, 176.7543
395.8330, 173.5211
396.3151, 170.8052
396.7972, 168.2125
397.2793, 165.6124
397.7614, 163.0471
398.2436, 160.4398
398.7257, 157.7732
399.2078, 155.5269
399.6899, 154.1861
400.1720, 153.4184
400.6541, 152.4482
401.1363, 151.2046
401.6184, 149.8449
402.1005, 148.2927
402.5826, 146.6913
403.0647, 145.4805
403.5468, 144.8642
404.0290, 144.5030
404.5111, 143.9079
404.9932, 143.0585
405.4753, 142.2714
405.9574, 141.7045
406.4395, 141.1639
406.9217, 140.4704
407.4038, 139.6066
407.8859, 138.6126
408.3680, 137.4435
408.8501, 136.1497
409.3322, 135.3567
409.8144, 135.5114
410.2965, 135.5837
410.7786, 135.0844
411.2607, 134.2787
411.7428, 133.6611
412.2249, 133.4442
412.7071, 133.4159
413.1892, 133.1554
413.6713, 132.4403
414.1534, 131.8908
414.6355, 131.7298
415.1176, 131.5643
415.5998, 130.9394
416.0819, 129.9445
416.5640, 129.2031
417.0461, 129.3781
417.5282, 130.4917
418.0103, 130.8174
418.4925, 129.2571
418.9746, 128.0854
419.4567, 128.0530
419.9388, 128.6324
420.4209, 129.1092
420.9030, 129.1608
421.3852, 128.9066
421.8673, 128.5266
422.3494, 127.8495
422.8315, 127.4933
423.3136, 127.8020
423.7957, 128.2045
424.2779, 128.2378
424.7600, 127.9632
425.2421, 127.8988
425.7242, 128.6888
426.2063, 130.1965
426.6884, 131.0280
427.1706, 130.8966
427.6527, 130.5401
428.1348, 130.1628
428.6169, 129.8248
429.0990, 129.6289
429.5811, 129.6402
430.0633, 129.7304
430.5454, 129.6242
431.0275, 129.3092
431.5096, 129.4375
431.9917, 130.4413
432.4738, 131.7323
432.9560, 132.7254
433.4381, 133.4222
433.9202, 133.9147
434.4023, 134.1187
434.8844, 134.1826
435.3665, 134.3581
435.8487, 134.6710
436.3308, 135.0531
436.8129, 135.3677
437.2950, 135.7246
437.7771, 136.4991
438.2592, 138.1966
438.7414, 139.7833
439.2235, 140.5974
439.7056, 140.8722
440.1877, 141.1096
440.6698, 141.4580
441.1519, 141.9984
441.6341, 142.9051
442.1162, 144.3179
442.5983, 145.7020
443.0804, 146.9229
443.5625, 148.1869
444.0446, 149.6262
444.5268, 151.2583
445.0089, 153.1352
445.4910, 155.3474
445.9731, 157.8265
446.4552, 159.9310
446.9373, 160.8596
447.4195, 162.4074
447.9016, 165.1589
448.3837, 168.5168
448.8658, 171.7321
449.3479, 174.5992
449.8300, 177.5830
450.3122, 181.3885
450.7943, 186.2545
451.2764, 191.0470
451.7585, 194.8724
452.2406, 199.4883
452.7227, 205.7321
453.2049, 213.3174
453.6870, 221.5060
454.1691, 229.8860
454.6512, 238.5443
455.1333, 247.9698
455.6154, 258.3875
456.0976, 268.8653
456.5797, 278.9467
457.0618, 289.1058
457.5439, 300.0125
458.0260, 311.6791
458.5081, 323.2969
458.9903, 334.0180
459.4724, 344.1010
459.9545, 354.6737
460.4366, 366.0812
460.9187, 377.3904
461.4008, 387.4865
461.8830, 396.9514
462.3651, 407.2014
462.8472, 418.5843
463.3293, 430.7782
463.8114, 443.6335
464.2935, 457.1258
464.7756, 471.1950
465.2578, 485.8276
465.7399, 500.9918
466.2220, 516.4037
466.7041, 532.0291
467.1862, 548.2035
467.6683, 565.1788
468.1505, 582.5967
468.6326, 600.5309
469.1147, 618.7535
469.5968, 636.1746
470.0789, 652.1141
470.5610, 666.6830
471.0432, 680.3847
471.5253, 694.9672
472.0074, 706.5120
472.4895, 715.2762
472.9716, 720.4424
473.4537, 721.7617
473.9359, 718.9152
474.4180, 710.6066
474.9001, 694.7646
475.3822, 670.8888
475.8643, 644.5336
476.3464, 614.9517
476.8286, 583.5382
477.3107, 549.6201
477.7928, 514.4631
478.2749, 479.5925
478.7570, 445.3492
479.2391, 412.8695
479.7213, 384.3207
480.2034, 359.7729
480.6855, 337.6815
481.1676, 317.6640
481.6497, 300.0313
482.1318, 284.9558
482.6140, 272.2672
483.0961, 261.1930
483.5782, 251.5558
484.0603, 243.1794
484.5424, 235.8193
485.0245, 229.4965
485.5067, 223.8031
485.9888, 218.4581
486.4709, 213.6763
486.9530, 209.9403
487.4351, 207.4526
487.9172, 205.4604
488.3994, 203.8352
488.8815, 202.4897
489.3636, 201.4086
489.8457, 200.5649
490.3278, 199.6927
490.8099, 198.4672
491.2921, 196.8585
491.7742, 195.8096
492.2563, 195.3005
492.7384, 195.2686
493.2205, 195.9809
493.7026, 197.0657
494.1848, 197.9133
494.6669, 198.3179
495.1490, 198.7795
495.6311, 200.2678
496.1132, 203.3653
496.5953, 205.5807
497.0775, 206.2997
497.5596, 206.7042
498.0417, 207.1616
498.5238, 207.6694
499.0059, 208.2327
499.4880, 209.0382
499.9702, 209.5480
500.4523, 208.7223
500.9344, 206.5102
501.4165, 203.2427
501.8986, 198.4762
502.3807, 193.1141
502.8629, 188.0005
503.3450, 183.1660
503.8271, 178.2962
504.3092, 173.0536
504.7913, 167.7607
505.2734, 162.9232
505.7556, 158.5679
506.2377, 154.5431
506.7198, 150.7080
507.2019, 147.1637
507.6840, 144.2322
508.1661, 142.0956
508.6483, 140.1275
509.1304, 138.0660
509.6125, 136.1362
510.0946, 134.6327
510.5767, 133.5882
511.0588, 132.8200
511.5410, 132.1720
512.0231, 131.6438
512.5052, 131.2456
512.9873, 130.9750
513.4694, 130.8380
513.9515, 130.9245
514.4337, 131.1053
514.9158, 131.2424
515.3979, 131.2948
515.8800, 131.3070
516.3621, 131.2814
516.8442, 131.1912
517.3264, 131.3493
517.8085, 131.7882
518.2906, 132.4660
518.7727, 133.4241
519.2548, 134.5655
519.7369, 135.7427
520.2191, 136.9347
520.7012, 138.0880
521.1833, 139.0329
521.6654, 139.8278
522.1475, 141.0015
522.6296, 142.8432
523.1118, 144.7631
523.5939, 146.0784
524.0760, 146.8622
524.5581, 147.5522
525.0402, 147.8916
525.5223, 148.4473
526.0045, 149.6818
526.4866, 151.4723
526.9687, 153.4680
527.4508, 155.5129
527.9329, 157.6548
528.4150, 159.9953
528.8972, 162.6614
529.3793, 165.2126
529.8614, 167.4312
530.3435, 169.7264
530.8256, 172.5734
531.3077, 175.6939
531.7899, 178.3007
532.2720, 179.8499
532.7541, 180.9420
533.2362, 183.2174
533.7183, 187.1253
534.2004, 190.9704
534.6826, 194.9375
535.1647, 198.3937
535.6468, 200.8775
536.1289, 202.4549
536.6110, 203.4829
537.0931, 204.1314
537.5753, 204.3814
538.0574, 204.2538
538.5395, 203.7625
539.0216, 202.5476
539.5037, 200.0670
539.9858, 197.1295
540.4680, 195.0889
540.9501, 194.0046
541.4322, 193.1538
541.9143, 192.4766
542.3964, 191.8425
542.8785, 190.8872
543.3607, 189.7528
543.8428, 189.2353
544.3249, 189.9106
544.8070, 191.4678
545.2891, 192.7493
545.7712, 192.9641
546.2534, 194.0279
546.7355, 196.7149
547.2176, 199.6918
547.6997, 201.7809
548.1818, 203.0980
548.6639, 204.6915
549.1461, 207.3422
549.6282, 210.9107
550.1103, 214.8456
550.5924, 219.3397
551.0745, 223.7231
551.5566, 228.0422
552.0388, 232.0445
552.5209, 235.4167
553.0030, 238.1544
553.4851, 240.7614
553.9672, 243.8521
554.4493, 246.9112
554.9315, 249.2736
555.4136, 250.9078
555.8957, 251.0707
556.3778, 249.0756
556.8599, 245.5517
557.3420, 242.2131
557.8242, 239.3653
558.3063, 235.9727
558.7884, 232.1574
559.2705, 227.5114
559.7526, 221.3252
560.2347, 213.8478
560.7169, 206.0977
561.1990, 198.7967
561.6811, 191.9368
562.1632, 185.5471
562.6453, 179.6856
563.1274, 174.2787
563.6096, 169.2121
564.0917, 164.6373
564.5738, 160.7085
565.0559, 157.3811
565.5380, 154.4342
566.0201, 151.7209
566.5023, 149.2662
566.9844, 147.2357
567.4665, 145.7044
567.9486, 144.0551
568.4307, 141.9854
568.9128, 139.7502
569.3950, 137.5902
569.8771, 135.4550
570.3592, 133.8289
570.8413, 133.1235
571.3234, 132.8219
571.8055, 132.4980
572.2877, 132.1004
572.7698, 131.5855
573.2519, 130.9211
573.7340, 130.1541
574.2161, 129.4025
574.6982, 128.5219
575.1804, 127.9210
575.6625, 127.7058
576.1446, 127.6596
576.6267, 127.7983
577.1088, 127.9919
577.5909, 127.9186
578.0731, 127.3195
578.5552, 126.5595
579.0373, 126.5547
579.5194, 127.4845
580.0015, 128.1639
580.4836, 128.2533
580.9658, 128.1264
581.4479, 127.9564
581.9300, 127.7998
582.4121, 127.8877
582.8942, 128.3918
583.3763, 129.1059
583.8585, 129.8964
584.3406, 130.7355
584.8227, 131.5399
585.3048, 132.2904
585.7869, 132.9455
586.2690, 133.4134
586.7512, 133.6202
587.2333, 134.0185
587.7154, 134.5282
588.1975, 135.2990
588.6796, 136.5971
589.1617, 138.1412
589.6439, 139.4064
590.1260, 140.2134
590.6081, 141.0474
591.0902, 142.6091
591.5723, 144.9573
592.0544, 147.4809
592.5366, 150.2782
593.0187, 153.0749
593.5008, 155.8129
593.9829, 158.4325
594.4650, 160.7616
594.9471, 162.5922
595.4293, 164.7167
595.9114, 167.7473
596.3935, 171.4999
596.8756, 175.6121
597.3577, 180.0341
597.8398, 184.5133
598.3220, 188.8829
598.8041, 193.1389
599.2862, 197.2973
599.7683, 201.0130
600.2504, 205.1022
600.7325, 209.8757
601.2147, 214.9789
601.6968, 220.1631
602.1789, 225.3576
602.6610, 230.5369
603.1431, 235.6327
603.6252, 240.7033
604.1074, 245.8402
604.5895, 250.9747
605.0716, 256.3702
605.5537, 262.0496
606.0358, 268.0863
606.5179, 274.8247
607.0001, 282.1104
607.4822, 289.0129
607.9643, 294.5284
608.4464, 299.7582
608.9285, 306.2784
609.4106, 313.8543
609.8928, 320.9294
610.3749, 326.9321
610.8570, 332.1098
611.3391, 336.8484
611.8212, 341.1323
612.3033, 344.8587
612.7855, 348.0896
613.2676, 350.7245
613.7497, 353.0918
614.2318, 354.7345
614.7139, 354.8743
615.1960, 353.2544
615.6782, 350.4352
616.1603, 347.0172
616.6424, 342.9748
617.1245, 338.7204
617.6066, 334.1000
618.0887, 329.5301
618.5709, 325.1618
619.0530, 320.9447
619.5351, 316.6966
620.0172, 312.2248
620.4993, 308.3468
620.9814, 305.4803
621.4636, 303.5020
621.9457, 302.4181
622.4278, 302.1509
622.9099, 301.9408
623.3920, 301.1427
623.8741, 300.2423
624.3563, 300.9665
624.8384, 304.5812
625.3205, 308.0582
625.8026, 311.0440
626.2847, 314.1841
626.7668, 317.8210
627.2490, 321.9848
627.7311, 326.6117
628.2132, 331.7340
628.6953, 337.1563
629.1774, 342.6503
629.6595, 348.1852
630.1417, 353.8136
630.6238, 359.6877
631.1059, 365.3750
631.5880, 370.6013
632.0701, 375.3819
632.5522, 379.5987
633.0344, 383.4061
633.5165, 386.4388
633.9986, 388.6235
634.4807, 389.8884
634.9628, 390.2689
635.4449, 389.7140
635.9271, 387.8220
636.4092, 384.2363
636.8913, 378.9792
637.3734, 372.4852
637.8555, 364.9411
638.3376, 355.7282
638.8198, 344.0141
639.3019, 331.3564
639.7840, 318.6192
640.2661, 306.0607
640.7482, 293.8331
641.2303, 281.9064
641.7125, 270.5463
642.1946, 260.4595
642.6767, 251.5547
643.1588, 242.4790
643.6409, 232.6765
644.1230, 222.9163
644.6052, 214.0409
645.0873, 206.1330
645.5694, 199.2232
646.0515, 193.7920
646.5336, 188.8132
647.0157, 183.8510
647.4979, 179.1140
647.9800, 175.0688
648.4621, 171.7400
648.9442, 168.4577
649.4263, 164.2873
649.9084, 159.4179
650.3906, 156.0567
650.8727, 154.8371
651.3548, 153.3968
651.8369, 150.5121
652.3190, 147.2609
652.8011, 144.7586
653.2833, 143.0464
653.7654, 141.5361
654.2475, 139.9947
654.7296, 138.5552
655.2117, 137.4080
655.6938, 136.4723
656.1760, 135.4928
656.6581, 134.3664
657.1402, 133.2255
657.6223, 132.3172
658.1044, 131.7668
658.5865, 130.6945
659.0687, 128.2756
659.5508, 126.2652
660.0329, 125.2847
660.5150, 124.8542
660.9971, 124.5187
661.4792, 124.1586
661.9614, 123.6393
662.4435, 122.6829
662.9256, 121.5357
663.4077, 120.8681
663.8898, 120.6992
664.3719, 120.3617
664.8541, 119.4836
665.3362, 118.3927
665.8183, 117.6656
666.3004, 117.4159
666.7825, 117.1486
667.2646, 116.7673
667.7468, 116.4562
668.2289, 116.3610
668.7110, 116.3807
669.1931, 116.3798
669.6752, 116.3054
670.1573, 116.1247
670.6395, 115.7635
671.1216, 115.2369
671.6037, 114.7358
672.0858, 114.2422
672.5679, 113.8402
673.0500, 113.6096
673.5322, 113.4726
674.0143, 113.3358
674.4964, 113.2133
674.9785, 112.9749
675.4606, 112.4149
675.9427, 111.8666
676.4249, 111.7056
676.9070, 111.7767
677.3891, 111.5753
677.8712, 110.9056
678.3533, 110.2456
678.8354, 110.3537
679.3176, 111.3316
679.7997, 112.1181
680.2818, 112.9303
680.7639, 113.2015
681.2460, 112.4743
681.7281, 111.3001
682.2103, 110.0921
682.6924, 108.8968
683.1745, 108.2832
683.6566, 109.0724
684.1387, 110.2778
684.6208, 110.5927
685.1030, 110.1438
685.5851, 109.7686
686.0672, 109.8241
686.5493, 110.0473
687.0314, 110.0180
687.5135, 109.6457
687.9957, 109.5112
688.4778, 109.9151
688.9599, 110.2090
689.4420, 110.1808
689.9241, 109.9851
690.4063, 109.8540
690.8884, 109.8107
691.3705, 109.5640
691.8526, 108.5447
692.3347, 107.3177
692.8168, 107.0703
693.2990, 107.7577
693.7811, 108.4660
694.2632, 108.8764
694.7453, 109.0892
695.2274, 109.2276
695.7095, 109.2798
696.1917, 109.3237
696.6738, 109.6110
697.1559, 109.5946
697.6380, 108.7170
698.1201, 107.6563
698.6022, 107.2437
699.0844, 107.5813
699.5665, 108.0874
700.0486, 108.2944
700.5307, 108.3117
701.0128, 108.5047
701.4949, 108.8900
701.9771, 108.8837
702.4592, 108.1276
702.9413, 107.2567
703.4234, 107.0889
703.9055, 107.6735
704.3876, 107.9637
704.8698, 107.5596
705.3519, 107.3233
705.8340, 107.7994
706.3161, 108.4606
706.7982, 108.6781
707.2803, 108.3921
707.7625, 107.9793
708.2446, 107.7594
708.7267, 107.6055
709.2088, 107.0387
709.6909, 105.9812
710.1730, 105.4039
710.6552, 105.7060
711.1373, 106.2604
711.6194, 106.5505
712.1015, 106.5972
712.5836, 106.5158
713.0657, 106.1456
713.5479, 105.8564
714.0300, 105.9068
714.5121, 106.0146
714.9942, 105.8725
715.4763, 105.4696
715.9584, 104.9751
716.4406, 104.4938
716.9227, 104.0139
717.4048, 103.4745
717.8869, 102.8498
718.3690, 102.3996
718.8511, 102.1730
719.3333, 102.1089
719.8154, 102.3115
720.2975, 102.6305
720.7796, 102.6756
721.2617, 102.2916
721.7438, 101.8967
722.2260, 101.4508
722.7081, 101.1907
723.1902, 101.5576
723.6723, 102.3359
724.1544, 102.7671
724.6365, 102.4403
725.1187, 101.8392
725.6008, 101.8799
726.0829, 102.6288
726.5650, 103.0681
727.0471, 103.1014
727.5292, 102.9281
728.0114, 102.4756
728.4935, 101.9546
728.9756, 101.7073
729.4577, 101.7939
729.9398, 101.9193
730.4219, 102.1009
730.9041, 102.2004
731.3862, 101.9965
731.8683, 101.6455
732.3504, 101.4722
732.8325, 101.5933
733.3146, 101.9197
733.7968, 102.4133
734.2789, 103.0486
734.7610, 103.3605
735.2431, 103.1879
735.7252, 103.1858
736.2073, 103.6703
736.6895, 104.3564
737.1716, 104.9894
737.6537, 105.5645
738.1358, 105.9052
738.6179, 105.7920
739.1000, 105.6340
739.5822, 105.6683
740.0643, 105.7889
740.5464, 105.8086
741.0285, 105.7132
741.5106, 105.6656
741.9927, 105.7971
742.4749, 106.0843
742.9570, 106.4760
743.4391, 107.0000
743.9212, 107.4833
744.4033, 107.9863
744.8854, 108.2967
745.3676, 108.0637
745.8497, 107.4822
746.3318, 107.2090
746.8139, 107.5196
747.2960, 107.7791
747.7781, 107.7770
748.2603, 107.6472
748.7424, 107.3304
749.2245, 106.9969
749.7066, 107.1567
750.1887, 108.1050
750.6708, 109.2810
751.1530, 109.8012
751.6351, 109.6769
752.1172, 109.4078
752.5993, 108.9735
753.0814, 108.5654
753.5635, 108.2713
754.0457, 108.0731
754.5278, 108.0012
755.0099, 108.1599
755.4920, 107.9627
755.9741, 106.8865
756.4562, 105.9051
756.9384, 105.5998
757.4205, 105.7157
757.9026, 105.9434
758.3847, 106.1501
758.8668, 106.1261
759.3489, 105.6062
759.8311, 104.7378
760.3132, 103.8674
760.7953, 102.9924
761.2774, 102.5206
761.7595, 102.7470
762.2416, 102.9706
762.7238, 102.3820
763.2059, 101.0102
763.6880, 100.0418
764.1701, 99.61005
764.6522, 99.36216
765.1343, 99.49682
765.6165, 99.58902
766.0986, 99.20373
766.5807, 98.46215
767.0628, 97.82585
767.5449, 97.54494
768.0270, 97.37595
768.5092, 97.03403
768.9913, 96.56239
769.4734, 96.04762
769.9555, 95.49948
770.4376, 95.17121
770.9197, 95.24093
771.4019, 95.57116
771.8840, 95.88763
772.3661, 96.34423
772.8482, 96.34020
773.3303, 95.42909
773.8124, 94.59245
774.2946, 94.18435
774.7767, 94.01965
775.2588, 93.86016
775.7409, 93.66484
776.2230, 93.54898
776.7051, 93.65504
777.1873, 93.82381
777.6694, 93.91235
778.1515, 93.90041
778.6336, 93.64077
779.1157, 93.10718
779.5978, 92.73698
780.0800, 93.02859
780.5621, 93.82095
781.0442, 93.98347
781.5263, 93.12637
782.0084, 92.56958
782.4905, 92.82689
782.9727, 93.10265
783.4548, 92.76917
783.9369, 92.09525
784.4190, 91.78188
784.9011, 92.10236
785.3832, 92.45553
785.8654, 92.68935
786.3475, 92.72131
786.8296, 92.29337
787.3117, 91.58253
787.7938, 91.09925
788.2759, 91.06909
788.7581, 91.30436
789.2402, 91.65087
789.7223, 92.08836
790.2044, 92.09197
790.6865, 91.54330
791.1686, 91.04081
791.6508, 90.76418
792.1329, 90.68486
792.6150, 90.84375
793.0971, 91.24274
793.5792, 91.48257
794.0613, 91.44289
794.5435, 91.36269
795.0256, 91.47372
795.5077, 91.47006
795.9898, 90.79750
796.4719, 89.67139
796.9540, 89.02917
797.4362, 89.49059
797.9183, 90.37666
798.4004, 90.83713
798.8825, 90.92647
799.3646, 90.80145
799.8467, 90.47548
800.3289, 90.17400
800.8110, 90.02161
801.2931, 89.97893
801.7752, 89.95859
802.2573, 89.94032
802.7394, 90.00983
803.2216, 90.48702
803.7037, 90.67093
804.1858, 90.11907
804.6679, 89.32647
805.1500, 88.77239
805.6321, 88.52081
806.1143, 88.52766
806.5964, 89.04324
807.0785, 89.54866
807.5606, 89.45324
808.0427, 89.07897
808.5248, 89.11034
809.0070, 89.61870
809.4891, 90.08116
809.9712, 90.08720
810.4533, 89.84341
810.9354, 90.01125
811.4175, 90.71758
811.8997, 90.74561
812.3818, 89.59473
812.8639, 88.59701
813.3460, 88.63259
813.8281, 89.27093
814.3102, 89.60905
814.7924, 89.60831
815.2745, 89.48827
815.7566, 89.10703
816.2387, 88.79860
816.7208, 88.81153
817.2029, 88.96384
817.6851, 89.00199
818.1672, 88.88438
818.6493, 88.74137
819.1314, 88.61975
819.6135, 88.58434
820.0956, 88.82656
820.5778, 89.26771
821.0599, 89.56789
821.5420, 89.65917
822.0241, 89.54002
822.5062, 89.15410
822.9883, 88.64308
823.4705, 88.48913
823.9526, 88.88133
824.4347, 89.17237
824.9168, 89.41727
825.3989, 89.47424
825.8810, 89.14523
826.3632, 88.67303
826.8453, 88.39400
827.3274, 88.35598
827.8095, 88.30904
828.2916, 88.20776
828.7737, 88.01838
829.2559, 87.46786
829.7380, 86.91538
830.2201, 87.10813
830.7022, 88.04613
831.1843, 88.85551
831.6664, 88.83282
832.1486, 88.35116
832.6307, 88.18972
833.1128, 88.33912
833.5949, 88.67002
834.0770, 89.24049
834.5591, 89.58358
835.0413, 89.34028
835.5233, 88.74596
836.0054, 88.35751
836.4875, 88.22282
836.9697, 88.15519
837.4518, 88.13369
837.9339, 88.19658
838.4160, 88.49461
838.8981, 88.79685
839.3802, 88.82251
839.8624, 88.57020
840.3445, 88.30135
840.8266, 88.03457
841.3087, 87.92236
841.7908, 88.32648
842.2729, 88.87699
842.7551, 88.83988
843.2372, 88.22427
843.7193, 87.65576
844.2014, 87.51522
844.6835, 87.67285
845.1656, 87.94453
845.6478, 88.33330
846.1299, 88.60841
846.6120, 88.77083
847.0941, 88.76163
847.5762, 88.46217
848.0583, 88.09554
848.5405, 87.98762
849.0226, 88.16621
849.5047, 88.35137
849.9868, 88.57109
850.4689, 88.75770
850.9510, 89.00034
851.4332, 89.11815
851.9153, 88.84387
852.3974, 88.31299
852.8795, 87.94898
853.3616, 87.94259
853.8438, 88.05339
854.3259, 88.15218
854.8080, 88.21812
855.2901, 88.23708
855.7722, 88.19612
856.2543, 88.03391
856.7365, 87.72865
857.2186, 87.39528
857.7007, 87.12350
858.1828, 86.94821
858.6649, 87.21755
859.1470, 88.04032
859.6292, 88.63842
860.1113, 88.81908
860.5934, 88.72082
861.0755, 88.30795
861.5576, 87.70784
862.0397, 87.60107
862.5219, 88.66338
863.0040, 89.07295
863.4861, 88.18656
863.9682, 87.23687
864.4503, 86.76000
864.9324, 86.66549
865.4146, 86.82719
865.8967, 87.20645
866.3788, 87.57592
866.8609, 87.89781
867.3430, 88.06477
867.8251, 87.84171
868.3073, 87.42561
868.7894, 87.19165
869.2715, 87.20407
869.7536, 87.35130
870.2357, 87.57270
870.7178, 87.80481
871.2000, 87.91663
871.6821, 87.90984
872.1642, 87.87308
872.6463, 87.82642
873.1284, 87.64332
873.6105, 87.17136
874.0927, 86.68908
874.5748, 86.65453
875.0569, 87.12980
875.5390, 87.50568
876.0211, 87.85007
876.5032, 87.99952
876.9854, 87.82130
877.4675, 87.53407
877.9496, 87.29129
878.4317, 87.07869
878.9138, 86.80737
879.3959, 86.40786
879.8781, 86.08170
880.3602, 85.89149
880.8423, 85.86112
881.3244, 86.11286
881.8065, 86.52068
882.2886, 86.81950
882.7708, 86.93204
883.2529, 87.00199
883.7350, 87.22119
884.2171, 87.43905
884.6992, 87.19497
885.1813, 86.56618
885.6635, 86.20975
886.1456, 86.26109
886.6277, 86.36571
887.1098, 86.25843
887.5919, 86.07620
888.0740, 86.23397
888.5562, 86.95946
889.0383, 87.11701
889.5204, 86.25872
890.0025, 85.58229
890.4846, 85.64645
890.9667, 86.01299
891.4489, 86.23185
891.9310, 86.31379
892.4131, 86.46447
892.8952, 86.92444
893.3773, 87.17588
893.8594, 86.84785
894.3416, 86.43497
894.8237, 86.37749
895.3058, 86.57029
895.7879, 86.65098
896.2700, 86.48765
896.7521, 86.40730
897.2343, 86.85062
897.7164, 87.41462
898.1985, 87.44032
898.6806, 87.10307
899.1627, 87.01517
899.6448, 87.29211
900.1270, 87.44767
900.6091, 87.04040
901.0912, 86.34656
901.5733, 86.15895
902.0554, 86.48990
902.5375, 86.53995
903.0197, 86.16254
903.5018, 85.85939
903.9839, 85.88996
904.4660, 86.11147
904.9481, 86.32043
905.4302, 86.52576
905.9124, 86.63107
906.3945, 86.65775
906.8766, 86.54853
907.3587, 86.14757
907.8408, 85.74549
908.3229, 85.46339
908.8051, 85.34849
909.2872, 85.53457
909.7693, 86.17167
910.2514, 86.70045
910.7335, 87.01518
911.2156, 87.04703
911.6978, 86.43645
912.1799, 85.64429
912.6620, 85.48736
913.1441, 86.02688
913.6262, 86.48043
914.1083, 86.22305
914.5905, 86.60799
915.0726, 86.01498
915.5547, 86.58569
916.0368, 86.66470
916.5189, 86.24316
917.0010, 85.96195
917.4832, 86.14651
917.9653, 86.50681
918.4474, 86.60778
918.9295, 86.48276
919.4116, 86.47775
919.8937, 86.59104
920.3759, 86.88806
920.8580, 87.50005
921.3401, 87.96664
921.8222, 87.86165
922.3043, 87.33173
922.7864, 86.93372
923.2686, 86.71340
923.7507, 86.52328
924.2328, 86.26341
924.7149, 86.15503
925.1970, 86.33548
925.6791, 86.66042
926.1613, 87.03801
926.6434, 87.44141
927.1255, 87.68003
927.6076, 87.60561
928.0897, 87.49798
928.5718, 87.55444
929.0540, 87.54118
929.5361, 87.07598
930.0182, 86.41831
930.5003, 86.25407
930.9824, 86.78525
931.4645, 87.14864
931.9467, 86.25561
932.4288, 85.15406
932.9109, 85.36246
933.3930, 86.35877
933.8751, 86.91182
934.3572, 86.83883
934.8394, 86.64987
935.3215, 86.66731
935.8036, 86.78333
936.2857, 86.75698
936.7678, 86.63905
937.2499, 86.97301
937.7321, 87.80221
938.2142, 87.92808
938.6963, 86.79990
939.1784, 85.56457
939.6605, 85.46372
940.1426, 86.31129
940.6248, 87.03574
941.1069, 87.77182
941.5890, 87.92080
942.0711, 87.00679
942.5532, 86.23767
943.0353, 86.36316
943.5175, 86.89811
943.9996, 87.04197
944.4817, 86.75223
944.9638, 86.62394
945.4459, 86.86817
945.9280, 87.01623
946.4102, 86.80837
946.8923, 86.60999
947.3744, 86.78400
947.8565, 87.16027
948.3386, 87.29251
948.8207, 87.02619
949.3029, 86.85062
949.7850, 87.18653
950.2671, 87.48775
950.7492, 87.26674
951.2313, 86.80358
951.7134, 86.40488
952.1956, 86.18950
952.6777, 86.33754
953.1598, 87.02793
953.6419, 87.78532
954.1240, 88.10415
954.6061, 88.12704
955.0883, 88.01156
955.5704, 87.83858
956.0525, 87.86304
956.5346, 88.15075
957.0167, 88.46004
957.4988, 88.57441
957.9810, 88.53872
958.4631, 88.43694
958.9452, 88.27784
959.4273, 88.20883
959.9094, 88.25821
960.3915, 88.16325
960.8737, 87.77100
961.3558, 87.26571
961.8379, 86.86694
962.3200, 86.58396
962.8021, 86.77984
963.2842, 87.70248
963.7664, 88.30825
964.2485, 88.34666
964.7306, 88.17553
965.2127, 87.95656
965.6948, 87.71987
966.1769, 87.51540
966.6591, 87.29311
967.1412, 87.30271
967.6233, 87.84077
968.1054, 88.20454
968.5875, 88.12113
969.0696, 87.91028
969.5518, 87.87151
970.0339, 87.91075
970.5160, 87.64651
970.9981, 86.77275
971.4802, 86.37312
971.9623, 87.25492
972.4445, 88.15064
972.9266, 88.25291
973.4087, 88.00050
973.8908, 87.97373
974.3729, 88.19938
974.8550, 88.34300
975.3372, 88.20683
975.8193, 88.09068
976.3014, 88.22587
976.7835, 88.48511
977.2656, 88.91750
977.7477, 89.30628
978.2299, 89.09718
978.7120, 88.24416
979.1941, 87.45007
979.6762, 87.22244
980.1583, 87.34688
980.6404, 87.64007
981.1226, 88.00682
981.6047, 88.20440
982.0868, 88.23246
982.5689, 88.20689
983.0510, 88.17608
983.5331, 88.14688
984.0153, 88.12292
984.4974, 88.10979
984.9795, 88.15610
985.4616, 88.24970
985.9437, 88.15999
986.4258, 87.83849
986.9080, 87.79417
987.3901, 88.36256
987.8722, 89.05054
988.3543, 89.03484
988.8364, 88.35622
989.3185, 88.07718
989.8007, 88.28113
990.2828, 88.48632
990.7649, 88.57837
991.2470, 88.74981
991.7291, 89.23366
992.2112, 89.76536
992.6934, 89.70077
993.1755, 88.84551
993.6576, 88.51064
994.1397, 89.10969
994.6218, 89.48702
995.1039, 89.15224
995.5861, 88.77451
996.0682, 88.99483
996.5503, 89.54137
997.0324, 89.62703
997.5145, 89.00117
997.9966, 88.65586
998.4788, 88.80306
998.9609, 89.04642
999.4430, 89.33450
999.9251, 89.60256
1000.407, 89.87959
1000.889, 90.09061
1001.371, 89.93385
1001.854, 89.07471
1002.336, 88.68184
1002.818, 89.55373
1003.300, 90.49537
1003.782, 91.00260
1004.264, 91.07531
1004.746, 90.48931
1005.228, 89.46992
1005.711, 88.91438
1006.193, 89.33118
1006.675, 89.74512
1007.157, 89.11223
1007.639, 88.64328
1008.121, 90.11619
1008.603, 92.24043
1009.085, 92.53648
1009.567, 90.89323
1010.050, 89.35022
1010.532, 89.03011
1011.014, 89.24326
1011.496, 89.49207
1011.978, 89.76081
1012.460, 90.10072
1012.942, 90.42565
1013.424, 90.48627
1013.906, 90.25432
1014.389, 89.99367
1014.871, 89.87663
1015.353, 89.89184
1015.835, 90.14140
1016.317, 90.47210
1016.799, 90.37489
1017.281, 89.97121
1017.763, 89.99775
1018.246, 90.65926
1018.728, 91.37643
1019.210, 91.64304
1019.692, 91.57500
1020.174, 91.27406
1020.656, 90.83766
1021.138, 90.83444
1021.620, 91.26882
1022.102, 91.62085
1022.585, 91.69373
1023.067, 91.52383
1023.549, 91.08694
1024.031, 90.53667
1024.513, 90.42702
1024.995, 90.74611
1025.477, 90.93829
1025.959, 90.94701
1026.442, 90.94971
1026.924, 91.01846
1027.406, 91.11408
1027.888, 91.17603
1028.370, 91.23733
1028.852, 91.55585
1029.334, 92.22667
1029.816, 92.36508
1030.298, 91.73894
1030.781, 91.23952
1031.263, 91.24772
1031.745, 91.61598
1032.227, 92.25781
1032.709, 93.09399
1033.191, 93.43083
1033.673, 93.13129
1034.155, 92.76163
1034.638, 92.25985
1035.120, 91.93919
1035.602, 91.94762
1036.084, 92.20554
1036.566, 92.70028
1037.048, 93.39538
1037.530, 93.67917
1038.012, 93.32264
1038.495, 93.07689
1038.977, 93.11917
1039.459, 93.07079
1039.941, 92.72765
1040.423, 92.23739
1040.905, 91.68992
1041.387, 91.10607
1041.869, 90.96146
1042.351, 91.47159
1042.833, 92.06192
1043.316, 92.98225
1043.798, 93.64904
1044.280, 93.66970
1044.762, 93.40561
1045.244, 93.24500
1045.726, 93.18793
1046.208, 93.16454
1046.690, 93.31164
1047.173, 93.27719
1047.655, 92.63545
1048.137, 92.26978
1048.619, 93.06770
1049.101, 94.03630
1049.583, 93.73458
1050.065, 92.29539
1050.547, 91.62691
1051.030, 92.63204
1051.512, 93.32977
1051.994, 93.01797
1052.476, 92.82066
1052.958, 93.63386
1053.440, 94.64192
1053.922, 94.70905
1054.404, 93.94016
1054.886, 93.55639
1055.369, 94.17852
1055.851, 94.46764
1056.333, 93.66948
1056.815, 92.97476
1057.297, 93.24912
1057.779, 93.81956
1058.261, 93.78195
1058.743, 93.21452
1059.225, 92.95736
1059.708, 93.41209
1060.190, 93.72839
1060.672, 93.26380
1061.154, 93.03528
1061.636, 94.07351
1062.118, 95.33688
1062.600, 95.46534
1063.082, 94.62700
1063.565, 94.05869
1064.047, 94.13943
1064.529, 94.33753
1065.011, 94.57988
1065.493, 94.74659
1065.975, 94.74014
1066.457, 94.64095
1066.939, 94.43870
1067.422, 94.22970
1067.904, 94.32731
1068.386, 94.92081
1068.868, 95.37410
1069.350, 95.25715
1069.832, 95.12272
1070.314, 95.32323
1070.796, 95.65199
1071.278, 95.96821
1071.760, 96.19031
1072.243, 96.12465
1072.725, 95.65933
1073.207, 95.34699
1073.689, 95.59748
1074.171, 95.86610
1074.653, 95.69107
1075.135, 95.49989
1075.617, 95.94796
1076.100, 96.71342
1076.582, 96.83230
1077.064, 96.01728
1077.546, 95.40526
1078.028, 95.66033
1078.510, 96.05360
1078.992, 96.35119
1079.474, 96.45837
1079.957, 96.11768
1080.439, 95.58039
1080.921, 95.39046
1081.403, 95.65846
1081.885, 95.88109
1082.367, 95.65995
1082.849, 95.57125
1083.331, 96.10426
1083.813, 96.70773
1084.296, 96.91171
1084.778, 96.83672
1085.260, 96.70674
1085.742, 96.58233
1086.224, 96.55900
1086.706, 96.74950
1087.188, 96.93256
1087.670, 96.99960
1088.152, 97.03038
1088.635, 97.01030
1089.117, 97.03732
1089.599, 97.29454
1090.081, 97.75882
1090.563, 98.16038
1091.045, 98.45340
1091.527, 98.56348
1092.009, 98.45998
1092.491, 98.16276
1092.974, 97.36675
1093.456, 96.59801
1093.938, 96.67725
1094.420, 97.41872
1094.902, 97.76001
1095.384, 97.28658
1095.866, 96.80944
1096.348, 96.40513
1096.831, 96.33837
1097.313, 97.01832
1097.795, 97.89310
1098.277, 98.56402
1098.759, 98.91553
1099.241, 98.67262
1099.723, 97.60747
1100.205, 97.02070
1100.688, 97.80103
1101.170, 98.49883
1101.652, 98.50220
1102.134, 98.20280
1102.616, 97.73945
1103.098, 97.29573
1103.580, 97.19270
1104.062, 97.48895
1104.544, 97.81921
1105.026, 98.12955
1105.509, 98.41945
1105.991, 98.70815
1106.473, 98.95458
1106.955, 99.13721
1107.437, 99.25764
1107.919, 99.35937
1108.401, 99.43199
1108.883, 99.28358
1109.366, 98.54942
1109.848, 98.10767
1110.330, 98.29707
1110.812, 98.54353
1111.294, 98.59090
1111.776, 98.55730
1112.258, 98.57307
1112.740, 98.63345
1113.223, 98.68436
1113.705, 98.75279
1114.187, 98.74712
1114.669, 98.54224
1115.151, 98.42335
1115.633, 98.48465
1116.115, 98.65290
1116.597, 98.92508
1117.079, 99.24796
1117.562, 99.49673
1118.044, 99.70620
1118.526, 99.68559
1119.008, 99.25076
1119.490, 98.89448
1119.972, 98.57539
1120.454, 98.54070
1120.936, 99.06419
1121.418, 99.86839
1121.901, 100.5585
1122.383, 101.1426
1122.865, 101.1890
1123.347, 100.3645
1123.829, 99.86459
1124.311, 99.85111
1124.793, 100.0863
1125.275, 100.5895
1125.758, 101.0788
1126.240, 101.2417
1126.722, 101.0971
1127.204, 100.6501
1127.686, 100.8207
1128.168, 100.9937
1128.650, 100.7267
1129.132, 101.4955
1129.615, 101.3287
1130.097, 100.9841
1130.579, 101.0301
1131.061, 101.4448
1131.543, 102.3683
1132.025, 102.2688
1132.507, 102.1723
1132.989, 102.4986
1133.471, 101.5425
1133.953, 101.4285
1134.436, 101.6529
1134.918, 101.9532
1135.400, 102.2673
1135.882, 102.5175
1136.364, 102.6985
1136.846, 102.7664
1137.328, 102.7349
1137.810, 102.6933
1138.293, 102.6611
1138.775, 102.7368
1139.257, 102.9583
1139.739, 103.3142
1140.221, 103.8427
1140.703, 104.3669
1141.185, 104.5798
1141.667, 104.4931
1142.150, 103.8948
1142.632, 103.0185
1143.114, 102.8724
1143.596, 103.5840
1144.078, 104.3383
1144.560, 104.6733
1145.042, 104.7026
1145.524, 104.3784
1146.006, 103.9752
1146.489, 104.0070
1146.971, 103.8252
1147.453, 103.7254
1147.935, 103.8913
1148.417, 103.7894
1148.899, 104.0387
1149.381, 104.4495
1149.863, 105.0319
1150.345, 105.5079
1150.828, 105.4635
1151.310, 105.3076
1151.792, 105.6341
1152.274, 106.1539
1152.756, 106.2410
1153.238, 105.8528
1153.720, 105.4465
1154.202, 105.1741
1154.685, 105.0215
1155.167, 104.9765
1155.649, 105.0524
1156.131, 105.3783
1156.613, 105.7342
1157.095, 105.7576
1157.577, 105.6311
1158.059, 105.9842
1158.542, 107.0308
1159.024, 107.6676
1159.506, 107.3830
1159.988, 107.0119
1160.470, 106.6414
1160.952, 106.4124
1161.434, 106.5107
1161.916, 106.7461
1162.398, 106.8341
1162.880, 106.7776
1163.363, 106.7945
1163.845, 106.9729
1164.327, 107.0592
1164.809, 106.9298
1165.291, 106.9261
1165.773, 107.2405
1166.255, 107.5909
1166.737, 107.7561
1167.220, 107.7712
1167.702, 107.6760
1168.184, 107.4212
1168.666, 107.6814
1169.148, 108.6617
1169.630, 109.1308
1170.112, 108.7912
1170.594, 108.3732
1171.077, 108.2209
1171.559, 108.2876
1172.041, 108.5379
1172.523, 108.9283
1173.005, 109.3803
1173.487, 109.8592
1173.969, 109.8293
1174.451, 109.3046
1174.933, 108.9016
1175.416, 108.7996
1175.898, 108.9922
1176.380, 109.5057
1176.862, 110.0461
1177.344, 110.1134
1177.826, 109.9232
1178.308, 109.9599
1178.790, 110.1529
1179.272, 110.3640
1179.755, 110.5332
1180.237, 110.5050
1180.719, 110.2469
1181.201, 110.0747
1181.683, 110.2373
1182.165, 110.5578
1182.647, 111.0231
1183.129, 111.4158
1183.612, 111.4204
1184.094, 111.2101
1184.576, 111.0873
1185.058, 111.0713
1185.540, 110.9686
1186.022, 110.6575
1186.504, 110.5512
1186.986, 110.9308
1187.469, 111.4304
1187.951, 111.9885
1188.433, 112.4798
1188.915, 112.7240
1189.397, 112.8713
1189.879, 113.3555
1190.361, 113.1579
1190.843, 112.8171
1191.325, 112.8536
1191.807, 111.9010
1192.290, 111.6665
1192.772, 111.7824
1193.254, 112.3421
1193.736, 112.9233
1194.218, 113.1119
1194.700, 113.5133
1195.182, 113.7921
1195.664, 113.8858
1196.147, 114.1671
1196.629, 114.1240
1197.111, 114.0711
1197.593, 114.0677
1198.075, 113.9471
1198.557, 113.5991
1199.039, 113.3031
1199.521, 113.3776
1200.004, 113.7120
1200.486, 114.1082
1200.968, 114.4982
1201.450, 114.2979
1201.932, 113.6851
1202.414, 113.9036
1202.896, 115.0556
1203.378, 115.8329
1203.860, 115.5089
1204.343, 115.0011
1204.825, 115.4153
1205.307, 115.1293
1205.789, 115.8940
1206.271, 115.4787
1206.753, 115.8516
1207.235, 116.7094
1207.717, 117.2145
1208.199, 117.2211
1208.682, 117.1669
1209.164, 117.2726
1209.646, 117.2533
1210.128, 116.7633
1210.610, 116.3534
1211.092, 116.4110
1211.574, 116.6454
1212.056, 116.8065
1212.539, 116.9126
1213.021, 117.0720
1213.503, 117.3055
1213.985, 117.4033
1214.467, 117.0300
1214.949, 117.0767
1215.431, 117.9330
1215.913, 118.6248
1216.396, 118.7175
1216.878, 118.6699
1217.360, 118.9488
1217.842, 119.3219
1218.324, 119.1041
1218.806, 118.2723
1219.288, 117.9864
1219.770, 118.2766
1220.252, 118.6510
1220.734, 119.0377
1221.217, 119.2597
1221.699, 119.2360
1222.181, 119.1843
1222.663, 119.3299
1223.145, 119.5436
1223.627, 119.6709
1224.109, 119.6409
1224.591, 119.0352
1225.074, 118.1921
1225.556, 118.1226
1226.038, 118.7871
1226.520, 119.2870
1227.002, 119.2690
1227.484, 119.2903
1227.966, 119.9346
1228.448, 120.5117
1228.931, 120.3599
1229.413, 120.1008
1229.895, 120.2772
1230.377, 120.7070
1230.859, 121.1892
1231.341, 121.6346
1231.823, 121.7940
1232.305, 121.4543
1232.787, 121.4627
1233.270, 122.2972
1233.752, 122.9378
1234.234, 123.2565
1234.716, 123.2481
1235.198, 122.8031
1235.680, 122.1436
1236.162, 121.4419
1236.644, 120.8167
1237.126, 120.8934
1237.609, 121.7435
1238.091, 122.6501
1238.573, 123.6226
1239.055, 123.9830
1239.537, 123.5788
1240.019, 123.5811
1240.501, 124.6592
1240.983, 125.6038
1241.466, 124.8037
1241.948, 123.2717
1242.430, 122.9033
1242.912, 123.2839
1243.394, 123.7011
1243.876, 124.0837
1244.358, 124.5160
1244.840, 124.9349
1245.323, 124.9738
1245.805, 124.4372
1246.287, 124.0476
1246.769, 124.3207
1247.251, 124.7415
1247.733, 125.1646
1248.215, 125.4712
1248.697, 125.4668
1249.179, 125.3602
1249.661, 125.4592
1250.144, 125.7456
1250.626, 126.0001
1251.108, 126.3159
1251.590, 126.2449
1252.072, 125.4724
1252.554, 125.0411
1253.036, 125.2038
1253.518, 125.5901
1254.001, 126.0714
1254.483, 126.4951
1254.965, 126.6544
1255.447, 126.6578
1255.929, 126.8127
1256.411, 127.1231
1256.893, 127.7942
1257.375, 128.6793
1257.858, 128.7699
1258.340, 128.0717
1258.822, 127.8886
1259.304, 128.7727
1259.786, 129.5502
1260.268, 129.0850
1260.750, 128.3455
1261.232, 128.2800
1261.714, 128.4528
1262.197, 128.4081
1262.679, 128.2983
1263.161, 128.3702
1263.643, 128.6194
1264.125, 128.9450
1264.607, 129.3436
1265.089, 129.6692
1265.571, 129.8384
1266.053, 130.0231
1266.536, 130.3308
1267.018, 130.5285
1267.500, 130.4697
1267.982, 130.3513
1268.464, 130.3351
1268.946, 130.4135
1269.428, 130.5771
1269.910, 130.8228
1270.393, 131.1942
1270.875, 131.6673
1271.357, 131.2836
1271.839, 130.0711
1272.321, 129.7043
1272.803, 130.7026
1273.285, 132.0368
1273.767, 133.0188
1274.250, 133.6906
1274.732, 134.0937
1275.214, 134.2246
1275.696, 133.9104
1276.178, 133.4535
1276.660, 133.3111
1277.142, 133.3353
1277.624, 133.0499
1278.106, 132.4491
1278.589, 132.1777
1279.071, 132.5605
1279.553, 132.9056
1280.035, 132.8615
1280.517, 133.1145
1280.999, 134.2605
1281.481, 135.1110
1281.963, 134.7786
1282.445, 134.0769
1282.928, 134.1235
1283.410, 134.7362
1283.892, 135.0814
1284.374, 135.1645
1284.856, 135.3693
1285.338, 135.6904
1285.820, 135.9157
1286.302, 136.0123
1286.785, 136.0618
1287.267, 136.1052
1287.749, 136.1882
1288.231, 136.3421
##END=



