##NAMES=Bahianite
##RRUFFID=R050627
##IDEAL CHEMISTRY=Al_5_Sb^5+^_3_O_14_(OH)_2_
##LOCALITY=Paramirim Region, Bahia, Brazil
##OWNER=RRUFF
##SOURCE=Gemological Center
##DESCRIPTION=Brown water worn pebble
##STATUS=The identification of this mineral has been confirmed by X-ray diffraction and chemical analysis
##URL=rruff.info/R050627
##MEASURED CHEMISTRY=Al_5.00_Sb^5+^_3.00_O_14_(OH)_2_
92.06543, 1501.467
92.54755, 1494.465
93.02966, 1499.994
93.51178, 1514.784
93.99390, 1517.516
94.47601, 1506.559
94.95813, 1486.140
95.44025, 1462.291
95.92236, 1439.808
96.40448, 1418.503
96.88660, 1394.544
97.36871, 1366.841
97.85082, 1339.118
98.33294, 1313.877
98.81506, 1290.653
99.29717, 1266.184
99.77929, 1242.785
100.2614, 1220.698
100.7435, 1199.080
101.2256, 1176.390
101.7078, 1153.632
102.1899, 1133.658
102.6720, 1117.277
103.1541, 1103.383
103.6362, 1090.572
104.1183, 1078.769
104.6005, 1067.426
105.0826, 1055.941
105.5647, 1044.055
106.0468, 1033.246
106.5289, 1024.836
107.0110, 1016.573
107.4931, 1007.213
107.9753, 996.3350
108.4574, 984.3052
108.9395, 971.5342
109.4216, 955.9286
109.9037, 942.9915
110.3858, 935.1367
110.8680, 929.2162
111.3501, 921.6981
111.8322, 910.5274
112.3143, 896.6303
112.7964, 885.8074
113.2785, 879.9844
113.7607, 874.8099
114.2428, 870.1782
114.7249, 865.4979
115.2070, 859.2531
115.6891, 849.9452
116.1712, 837.6493
116.6534, 827.6558
117.1355, 821.2745
117.6176, 816.0829
118.0997, 810.5516
118.5818, 804.5613
119.0639, 797.9288
119.5461, 789.5505
120.0282, 780.1564
120.5103, 772.2574
120.9924, 767.5961
121.4745, 764.9212
121.9566, 761.3369
122.4388, 756.4978
122.9209, 750.7718
123.4030, 743.9449
123.8851, 736.4172
124.3672, 729.5182
124.8493, 724.7502
125.3315, 722.2924
125.8136, 719.1121
126.2957, 714.6088
126.7778, 709.6077
127.2599, 704.0958
127.7420, 698.2426
128.2242, 692.4447
128.7063, 687.3055
129.1884, 683.0922
129.6705, 679.0134
130.1526, 675.7302
130.6347, 672.1531
131.1169, 667.2158
131.5990, 660.6290
132.0811, 653.2263
132.5632, 646.8565
133.0453, 642.3922
133.5274, 637.9302
134.0096, 633.4354
134.4917, 628.8900
134.9738, 624.0656
135.4559, 618.6727
135.9380, 613.3015
136.4201, 610.1488
136.9023, 610.8812
137.3844, 611.1602
137.8665, 608.9498
138.3486, 604.6355
138.8307, 599.8124
139.3128, 594.9575
139.7950, 590.4145
140.2771, 586.8343
140.7592, 584.5419
141.2413, 582.9094
141.7234, 581.4029
142.2055, 580.0504
142.6877, 578.7028
143.1698, 577.4118
143.6519, 576.0500
144.1340, 574.3929
144.6161, 572.1823
145.0982, 569.7133
145.5803, 567.7850
146.0625, 566.6963
146.5446, 565.7084
147.0267, 564.4926
147.5088, 563.1832
147.9909, 561.9584
148.4730, 560.8840
148.9552, 559.9742
149.4373, 559.5463
149.9194, 560.8378
150.4015, 561.4711
150.8836, 560.1791
151.3657, 557.6111
151.8479, 555.3665
152.3300, 554.9863
152.8121, 556.9177
153.2942, 557.9211
153.7763, 557.1785
154.2584, 556.4266
154.7406, 556.5862
155.2227, 557.6840
155.7048, 559.0911
156.1869, 560.0426
156.6690, 560.1835
157.1511, 561.4345
157.6333, 564.4501
158.1154, 568.1755
158.5975, 571.5345
159.0796, 574.2816
159.5617, 577.2020
160.0438, 581.3552
160.5260, 586.6813
161.0081, 592.7969
161.4902, 600.4020
161.9723, 608.6332
162.4544, 616.1349
162.9365, 622.8543
163.4187, 628.0682
163.9008, 631.7010
164.3829, 633.9024
164.8650, 632.9178
165.3471, 626.9152
165.8292, 616.4250
166.3113, 604.9096
166.7935, 592.6603
167.2756, 579.8010
167.7577, 566.1191
168.2398, 551.6458
168.7219, 537.4841
169.2040, 524.4095
169.6862, 512.3085
170.1683, 502.2126
170.6504, 495.0456
171.1325, 489.5514
171.6146, 485.5936
172.0967, 483.0255
172.5789, 481.0548
173.0610, 478.5869
173.5431, 475.4989
174.0252, 472.1358
174.5073, 467.9093
174.9894, 463.8102
175.4716, 460.4834
175.9537, 458.1671
176.4358, 456.7289
176.9179, 455.9327
177.4000, 456.0592
177.8821, 456.5652
178.3643, 457.5744
178.8464, 458.8729
179.3285, 460.1527
179.8106, 461.2928
180.2927, 462.5465
180.7748, 464.6248
181.2570, 468.7859
181.7391, 472.2177
182.2212, 474.4478
182.7033, 475.7920
183.1854, 476.5661
183.6675, 476.8202
184.1497, 476.8094
184.6318, 477.3806
185.1139, 478.6736
185.5960, 480.1447
186.0781, 482.0879
186.5602, 484.1463
187.0423, 485.0955
187.5245, 483.8359
188.0066, 481.5716
188.4887, 481.0840
188.9708, 482.6938
189.4529, 485.3680
189.9350, 488.6976
190.4172, 492.6361
190.8993, 496.8636
191.3814, 501.3675
191.8635, 506.0218
192.3456, 510.5463
192.8277, 514.6233
193.3099, 519.1179
193.7920, 525.0160
194.2741, 532.4578
194.7562, 540.3640
195.2383, 548.6536
195.7204, 557.0726
196.2026, 565.7123
196.6847, 574.9426
197.1668, 583.4735
197.6489, 589.3509
198.1310, 592.2079
198.6131, 593.2921
199.0953, 592.7640
199.5774, 590.9416
200.0595, 588.1014
200.5416, 584.3801
201.0237, 579.4752
201.5058, 572.6229
201.9880, 562.9068
202.4701, 552.6705
202.9522, 541.1913
203.4343, 530.0123
203.9164, 520.5450
204.3985, 513.4132
204.8807, 508.5508
205.3628, 505.9259
205.8449, 507.3481
206.3270, 508.8970
206.8091, 509.9784
207.2912, 510.9897
207.7733, 512.4029
208.2555, 514.4496
208.7376, 517.0507
209.2197, 519.9207
209.7018, 522.8001
210.1839, 526.2916
210.6660, 530.6407
211.1482, 535.5989
211.6303, 540.7523
212.1124, 545.8708
212.5945, 551.1248
213.0766, 557.4541
213.5587, 566.1437
214.0409, 574.2911
214.5230, 581.1031
215.0051, 587.0099
215.4872, 592.8253
215.9693, 598.9358
216.4514, 605.2650
216.9336, 611.4987
217.4157, 618.3857
217.8978, 624.3304
218.3799, 628.9442
218.8620, 632.2429
219.3441, 634.4389
219.8263, 635.8258
220.3084, 635.8015
220.7905, 633.2201
221.2726, 628.5437
221.7547, 621.1357
222.2368, 610.0820
222.7190, 595.8309
223.2011, 579.9057
223.6832, 561.9832
224.1653, 543.5809
224.6474, 527.1087
225.1295, 512.2930
225.6117, 499.8808
226.0938, 491.1049
226.5759, 485.6405
227.0580, 480.9201
227.5401, 475.8667
228.0222, 471.3505
228.5043, 468.4066
228.9865, 467.3574
229.4686, 466.8612
229.9507, 465.6983
230.4328, 463.8799
230.9149, 462.7007
231.3970, 463.0995
231.8792, 463.9425
232.3613, 464.1030
232.8434, 463.3932
233.3255, 462.8429
233.8076, 463.4649
234.2897, 465.3213
234.7719, 467.6234
235.2540, 470.0120
235.7361, 473.0055
236.2182, 476.9146
236.7003, 481.8031
237.1824, 487.5968
237.6646, 494.5650
238.1467, 503.0581
238.6288, 510.9693
239.1109, 518.3054
239.5930, 524.7576
240.0751, 529.9321
240.5573, 533.8622
241.0394, 537.1405
241.5215, 540.1887
242.0036, 542.7554
242.4857, 546.1891
242.9678, 551.4828
243.4500, 556.9131
243.9321, 561.5330
244.4142, 565.3109
244.8963, 568.9274
245.3784, 572.9841
245.8605, 577.2488
246.3427, 582.8666
246.8248, 590.5767
247.3069, 598.8987
247.7890, 607.0782
248.2711, 615.1482
248.7532, 623.5876
249.2354, 633.0081
249.7175, 643.4951
250.1996, 654.6255
250.6817, 666.0484
251.1638, 678.2637
251.6459, 690.8387
252.1281, 704.2507
252.6102, 719.7835
253.0923, 738.9866
253.5744, 762.3325
254.0565, 786.0785
254.5386, 811.2263
255.0208, 835.8096
255.5029, 861.0051
255.9850, 885.3932
256.4671, 906.0386
256.9492, 921.3172
257.4313, 931.9348
257.9135, 926.3799
258.3956, 901.7969
258.8777, 868.0995
259.3598, 824.9809
259.8419, 775.4752
260.3240, 725.6288
260.8062, 679.4590
261.2883, 636.9569
261.7704, 601.2396
262.2525, 572.5707
262.7346, 548.2058
263.2167, 527.5856
263.6989, 510.4311
264.1810, 496.8305
264.6631, 487.0925
265.1452, 480.8482
265.6273, 474.7118
266.1094, 468.0035
266.5916, 462.0991
267.0737, 457.7751
267.5558, 454.6751
268.0379, 451.9237
268.5200, 449.0428
269.0021, 446.1700
269.4843, 443.8746
269.9664, 441.9940
270.4485, 440.7136
270.9306, 440.3390
271.4127, 440.6094
271.8948, 440.9321
272.3770, 440.9937
272.8591, 441.0509
273.3412, 441.9328
273.8233, 444.1731
274.3054, 445.9515
274.7875, 446.1355
275.2697, 445.5343
275.7518, 445.7428
276.2339, 447.4154
276.7160, 449.8610
277.1981, 451.8548
277.6802, 453.4368
278.1623, 454.7369
278.6444, 455.3327
279.1266, 455.7739
279.6087, 457.2528
280.0908, 460.3127
280.5729, 463.5620
281.0550, 464.6087
281.5371, 463.4254
282.0193, 463.1949
282.5014, 465.0760
282.9835, 468.2621
283.4656, 471.8222
283.9477, 475.6982
284.4298, 479.3858
284.9120, 482.0760
285.3941, 483.9283
285.8762, 486.0442
286.3583, 488.6197
286.8404, 491.5874
287.3225, 494.8336
287.8047, 498.3403
288.2868, 502.2643
288.7689, 506.9531
289.2510, 512.2092
289.7331, 517.4493
290.2152, 522.8647
290.6974, 528.0203
291.1795, 532.6245
291.6616, 536.6857
292.1437, 539.7607
292.6258, 541.8867
293.1079, 542.6287
293.5901, 541.2579
294.0722, 537.4438
294.5543, 531.7695
295.0364, 524.2210
295.5185, 514.8542
296.0006, 505.1928
296.4828, 495.7108
296.9649, 486.4881
297.4470, 477.3385
297.9291, 467.6699
298.4112, 459.4532
298.8933, 454.8709
299.3755, 453.3693
299.8576, 451.4037
300.3397, 447.5775
300.8218, 443.0225
301.3039, 439.0622
301.7860, 435.6333
302.2682, 433.2179
302.7503, 432.3447
303.2324, 432.7408
303.7145, 433.5931
304.1966, 435.1310
304.6787, 436.3926
305.1609, 436.0172
305.6430, 434.2192
306.1251, 432.9053
306.6072, 433.4513
307.0893, 434.9939
307.5714, 435.4124
308.0536, 434.0065
308.5357, 432.7958
309.0178, 433.8565
309.4999, 436.5146
309.9820, 439.1368
310.4641, 441.1203
310.9463, 442.7895
311.4284, 444.6103
311.9105, 446.6159
312.3926, 448.5884
312.8747, 450.0815
313.3568, 451.4946
313.8390, 453.5887
314.3211, 456.7989
314.8032, 460.4437
315.2853, 464.0433
315.7674, 467.5975
316.2495, 470.5871
316.7317, 472.0351
317.2138, 473.2228
317.6959, 476.4522
318.1780, 482.9663
318.6601, 488.6903
319.1422, 490.0852
319.6243, 487.6820
320.1064, 485.1656
320.5886, 483.8767
321.0707, 482.6367
321.5528, 480.2797
322.0349, 476.8530
322.5170, 472.0685
322.9991, 464.9860
323.4813, 456.3946
323.9634, 448.2880
324.4455, 440.8683
324.9276, 434.4539
325.4097, 429.8343
325.8918, 426.6690
326.3740, 423.5940
326.8561, 419.5870
327.3382, 415.5518
327.8203, 413.0970
328.3024, 412.5575
328.7845, 412.4585
329.2667, 411.4318
329.7488, 410.0070
330.2309, 409.5667
330.7130, 411.1961
331.1951, 413.3316
331.6772, 414.1398
332.1594, 413.6488
332.6415, 413.7599
333.1236, 415.8632
333.6057, 419.0718
334.0878, 421.3658
334.5699, 422.2248
335.0521, 422.9865
335.5342, 424.5511
336.0163, 426.7574
336.4984, 429.0448
336.9805, 431.4161
337.4626, 433.4762
337.9448, 434.4567
338.4269, 434.2251
338.9090, 434.1562
339.3911, 434.6967
339.8732, 435.7891
340.3553, 437.4366
340.8375, 439.7303
341.3196, 442.1904
341.8017, 444.1979
342.2838, 445.8066
342.7659, 447.7065
343.2480, 449.7923
343.7302, 452.3656
344.2123, 456.1166
344.6944, 461.0522
345.1765, 465.6979
345.6586, 468.7892
346.1407, 470.5660
346.6229, 472.9900
347.1050, 476.3498
347.5871, 480.0860
348.0692, 483.8148
348.5513, 487.5984
349.0334, 492.0377
349.5156, 497.8199
349.9977, 503.9265
350.4798, 507.4937
350.9619, 508.1595
351.4440, 507.6841
351.9261, 506.3599
352.4083, 504.3016
352.8904, 501.8836
353.3725, 499.3068
353.8546, 495.7852
354.3367, 489.7571
354.8188, 480.4250
355.3010, 472.0541
355.7831, 465.2392
356.2652, 459.4178
356.7473, 454.2155
357.2294, 449.5419
357.7115, 445.1738
358.1937, 440.8430
358.6758, 436.5590
359.1579, 432.9865
359.6400, 429.5370
360.1221, 427.2599
360.6042, 427.6253
361.0863, 429.6793
361.5685, 430.7307
362.0506, 429.0469
362.5327, 425.6231
363.0148, 424.6210
363.4969, 428.1035
363.9790, 431.2432
364.4612, 432.9272
364.9433, 434.0829
365.4254, 435.7139
365.9075, 438.1647
366.3896, 441.3453
366.8717, 445.1813
367.3539, 450.1771
367.8360, 454.6774
368.3181, 457.8131
368.8002, 461.1349
369.2823, 465.7028
369.7644, 471.5332
370.2466, 478.0750
370.7287, 484.9362
371.2108, 492.1514
371.6929, 499.0215
372.1750, 505.5123
372.6571, 511.7413
373.1393, 517.7996
373.6214, 523.6353
374.1035, 529.4321
374.5856, 535.3294
375.0677, 540.8455
375.5498, 544.3384
376.0320, 543.8982
376.5141, 544.1877
376.9962, 546.1956
377.4783, 548.7037
377.9604, 550.6529
378.4425, 551.7864
378.9247, 552.5279
379.4068, 553.2488
379.8889, 553.5941
380.3710, 555.1991
380.8531, 559.0624
381.3352, 563.2957
381.8174, 566.8367
382.2995, 569.9943
382.7816, 573.9247
383.2637, 579.7508
383.7458, 587.0930
384.2279, 593.2618
384.7101, 597.9520
385.1922, 601.8078
385.6743, 605.3317
386.1564, 608.1756
386.6385, 609.8287
387.1206, 609.9871
387.6028, 609.3314
388.0849, 609.0027
388.5670, 609.1836
389.0491, 608.8082
389.5312, 606.8536
390.0133, 604.8017
390.4955, 603.4930
390.9776, 603.0230
391.4597, 603.2512
391.9418, 603.8409
392.4239, 604.9465
392.9060, 607.6008
393.3882, 612.3889
393.8703, 617.8700
394.3524, 623.1887
394.8345, 628.4485
395.3166, 633.8859
395.7987, 639.4393
396.2809, 645.3109
396.7630, 651.8469
397.2451, 659.1425
397.7272, 666.3969
398.2093, 673.0140
398.6914, 679.6093
399.1736, 687.1166
399.6557, 695.8148
400.1378, 704.8323
400.6199, 713.4634
401.1020, 722.0242
401.5841, 731.4769
402.0662, 742.1688
402.5483, 753.3661
403.0305, 764.0748
403.5126, 774.3395
403.9947, 785.0635
404.4768, 796.4844
404.9589, 808.3857
405.4410, 820.6261
405.9232, 833.1179
406.4053, 845.7838
406.8874, 858.7924
407.3695, 871.8008
407.8516, 883.5810
408.3337, 893.9896
408.8159, 903.4934
409.2980, 913.6751
409.7801, 922.7498
410.2622, 928.0923
410.7443, 928.8564
411.2264, 925.2902
411.7086, 917.8470
412.1907, 906.3630
412.6728, 890.3336
413.1549, 868.3615
413.6370, 843.1344
414.1191, 815.6615
414.6013, 786.4679
415.0834, 756.0808
415.5655, 724.6183
416.0476, 692.2081
416.5297, 663.2281
417.0118, 639.7122
417.4940, 617.6109
417.9761, 596.4252
418.4582, 576.1887
418.9403, 557.0157
419.4224, 538.8702
419.9045, 522.4456
420.3867, 509.0087
420.8688, 499.5977
421.3509, 490.6649
421.8330, 482.0810
422.3151, 473.9511
422.7972, 466.1791
423.2794, 458.9242
423.7615, 452.6162
424.2436, 447.7712
424.7257, 444.2025
425.2078, 440.6070
425.6899, 436.9876
426.1721, 433.3404
426.6542, 429.1944
427.1363, 425.1837
427.6184, 422.2065
428.1005, 420.6677
428.5826, 419.5755
429.0648, 417.6877
429.5469, 414.9800
430.0290, 412.4646
430.5111, 410.3340
430.9932, 408.5302
431.4753, 406.9795
431.9575, 405.6732
432.4396, 404.5332
432.9217, 403.5112
433.4038, 402.6436
433.8859, 401.9167
434.3680, 401.3046
434.8502, 401.1385
435.3323, 401.8951
435.8144, 403.2117
436.2965, 404.0790
436.7786, 404.5594
437.2607, 404.4449
437.7429, 402.9056
438.2250, 400.7188
438.7071, 399.9807
439.1892, 401.5334
439.6713, 403.6227
440.1534, 403.6674
440.6356, 401.0659
441.1177, 399.0984
441.5998, 397.5685
442.0819, 397.0153
442.5640, 398.4329
443.0461, 401.3741
443.5282, 404.1472
444.0103, 405.6052
444.4925, 405.9520
444.9746, 406.2918
445.4567, 406.0901
445.9388, 406.5582
446.4209, 408.4216
446.9030, 410.7020
447.3852, 412.3660
447.8673, 413.1719
448.3494, 413.7162
448.8315, 414.7151
449.3136, 416.1822
449.7957, 418.0309
450.2779, 420.7039
450.7600, 423.3380
451.2421, 425.5661
451.7242, 427.5460
452.2063, 429.5925
452.6884, 431.8427
453.1706, 434.3079
453.6527, 436.7682
454.1348, 438.7565
454.6169, 442.1881
455.0990, 449.3702
455.5811, 456.9852
456.0633, 462.2695
456.5454, 465.1280
457.0275, 468.5563
457.5096, 474.9395
457.9917, 483.6817
458.4738, 492.9565
458.9560, 502.9575
459.4381, 512.6833
459.9202, 520.9949
460.4023, 528.6204
460.8844, 537.0108
461.3665, 546.7917
461.8487, 556.7981
462.3308, 566.2762
462.8129, 575.2729
463.2950, 584.0641
463.7771, 592.9398
464.2592, 601.2098
464.7414, 607.5896
465.2235, 611.7302
465.7056, 616.6921
466.1877, 622.5268
466.6698, 629.5807
467.1519, 638.2386
467.6341, 648.4260
468.1162, 659.6805
468.5983, 671.7418
469.0804, 684.5923
469.5625, 697.6807
470.0446, 710.0106
470.5268, 723.9169
471.0089, 739.5101
471.4910, 756.7771
471.9731, 776.1028
472.4552, 797.3000
472.9373, 819.1364
473.4195, 840.3228
473.9016, 860.7862
474.3837, 881.1747
474.8658, 904.8290
475.3479, 924.3052
475.8300, 938.7970
476.3122, 947.4498
476.7943, 949.8202
477.2764, 945.8107
477.7585, 934.2928
478.2406, 912.6224
478.7227, 880.2813
479.2049, 842.9053
479.6870, 797.3469
480.1691, 751.0284
480.6512, 708.4650
481.1333, 669.8168
481.6154, 634.7571
482.0976, 602.5295
482.5797, 574.0999
483.0618, 551.2305
483.5439, 533.9878
484.0260, 520.3685
484.5081, 509.8609
484.9902, 502.1904
485.4724, 496.5016
485.9545, 493.2162
486.4366, 490.4733
486.9187, 487.1753
487.4008, 484.2393
487.8829, 482.9522
488.3651, 483.4818
488.8472, 485.1630
489.3293, 487.5219
489.8114, 490.5653
490.2935, 493.6302
490.7756, 496.3989
491.2578, 499.5399
491.7399, 503.3446
492.2220, 507.5792
492.7041, 511.9228
493.1862, 516.2601
493.6683, 520.7408
494.1505, 525.7158
494.6326, 531.5163
495.1147, 536.4470
495.5968, 540.3284
496.0789, 543.4450
496.5610, 545.4687
497.0432, 546.8358
497.5253, 548.6763
498.0074, 551.9672
498.4895, 554.7986
498.9716, 552.8554
499.4537, 545.2178
499.9359, 538.6146
500.4180, 535.0919
500.9001, 532.7054
501.3822, 530.2029
501.8643, 527.4659
502.3464, 524.0099
502.8286, 518.8015
503.3107, 513.0748
503.7928, 508.6649
504.2749, 505.6430
504.7570, 503.1939
505.2391, 500.9920
505.7213, 499.0168
506.2034, 497.1752
506.6855, 495.1540
507.1676, 493.9293
507.6497, 494.6272
508.1318, 495.7891
508.6140, 495.2661
509.0961, 493.0273
509.5782, 491.4273
510.0603, 492.6928
510.5424, 496.6339
511.0245, 499.3854
511.5067, 499.2266
511.9888, 499.9538
512.4709, 502.2199
512.9530, 505.6772
513.4351, 510.1277
513.9172, 515.4396
514.3994, 521.1521
514.8815, 526.5595
515.3636, 531.5828
515.8457, 537.7535
516.3278, 546.1595
516.8099, 554.3220
517.2921, 560.7243
517.7742, 566.3735
518.2563, 572.9390
518.7384, 581.2265
519.2205, 589.8090
519.7026, 596.8881
520.1848, 602.7042
520.6669, 609.1182
521.1490, 616.4922
521.6311, 624.5972
522.1132, 633.4909
522.5953, 643.0062
523.0775, 652.0897
523.5596, 659.5991
524.0417, 667.4296
524.5238, 677.3295
525.0059, 688.6075
525.4880, 699.1389
525.9702, 707.8922
526.4523, 716.3762
526.9344, 727.4798
527.4165, 742.7624
527.8986, 756.4578
528.3807, 767.6055
528.8629, 778.2675
529.3450, 789.6204
529.8271, 801.3832
530.3092, 813.1746
530.7913, 825.0042
531.2734, 835.4433
531.7556, 840.8698
532.2377, 840.3256
532.7198, 837.3992
533.2019, 832.7449
533.6840, 825.5640
534.1661, 815.2470
534.6483, 801.8088
535.1304, 785.5948
535.6125, 766.2227
536.0946, 744.4952
536.5767, 721.0814
537.0588, 695.8687
537.5410, 671.1751
538.0231, 647.6797
538.5052, 625.5622
538.9873, 605.1898
539.4694, 586.4521
539.9515, 569.1200
540.4337, 553.2621
540.9158, 538.5938
541.3979, 524.6179
541.8800, 511.4708
542.3621, 499.8454
542.8442, 490.2830
543.3264, 482.4747
543.8085, 475.3616
544.2906, 469.0744
544.7726, 463.4440
545.2548, 458.6883
545.7369, 454.4193
546.2190, 450.3061
546.7011, 446.4026
547.1832, 443.0164
547.6653, 440.4108
548.1475, 438.5285
548.6296, 437.3358
549.1117, 437.2449
549.5938, 436.7603
550.0759, 434.6382
550.5580, 432.4944
551.0402, 431.9074
551.5223, 432.8839
552.0044, 433.3976
552.4865, 431.4611
552.9686, 428.5956
553.4507, 427.7456
553.9329, 429.0389
554.4150, 430.3284
554.8971, 430.3670
555.3792, 429.7628
555.8613, 430.1146
556.3434, 431.7124
556.8256, 433.3190
557.3077, 434.5085
557.7898, 435.7442
558.2719, 437.7056
558.7540, 440.2153
559.2361, 442.2381
559.7183, 442.9852
560.2004, 442.8398
560.6825, 443.5350
561.1646, 446.2013
561.6467, 447.7316
562.1288, 446.8682
562.6110, 445.6779
563.0931, 445.9440
563.5752, 447.4538
564.0573, 448.4012
564.5394, 447.1053
565.0215, 444.5823
565.5037, 443.7325
565.9858, 444.9064
566.4679, 445.5015
566.9500, 444.9083
567.4321, 442.8921
567.9142, 438.9825
568.3964, 433.0363
568.8785, 427.3520
569.3606, 423.1192
569.8427, 419.2257
570.3248, 414.6088
570.8069, 409.2626
571.2891, 403.1908
571.7712, 396.2619
572.2533, 389.1964
572.7354, 383.9253
573.2175, 381.9619
573.6996, 379.1364
574.1818, 375.3348
574.6639, 370.8187
575.1460, 365.1274
575.6281, 358.8436
576.1102, 353.2912
576.5923, 349.2390
577.0745, 346.3731
577.5566, 344.3193
578.0387, 343.3896
578.5208, 341.5440
579.0029, 337.7471
579.4850, 333.5992
579.9672, 330.1518
580.4493, 327.3759
580.9314, 325.0942
581.4135, 323.5605
581.8956, 322.2309
582.3777, 320.2880
582.8599, 318.0298
583.3420, 316.7508
583.8241, 317.0358
584.3062, 317.7575
584.7883, 317.3534
585.2704, 315.5047
585.7526, 314.0486
586.2347, 313.1778
586.7168, 312.4577
587.1989, 311.6959
587.6810, 310.9612
588.1631, 310.5590
588.6453, 310.5645
589.1274, 310.3509
589.6095, 308.8155
590.0916, 305.7518
590.5737, 303.2631
591.0558, 301.5014
591.5380, 300.1421
592.0201, 299.2394
592.5022, 298.5427
592.9843, 297.6906
593.4664, 296.6057
593.9485, 295.3456
594.4307, 293.6477
594.9128, 291.8634
595.3949, 290.9009
595.8770, 290.9268
596.3591, 291.3041
596.8412, 291.7116
597.3234, 292.0598
597.8055, 291.6541
598.2876, 290.0490
598.7697, 288.4095
599.2518, 286.5839
599.7339, 285.0207
600.2161, 284.3738
600.6982, 284.5260
601.1803, 284.5314
601.6624, 283.4655
602.1445, 281.7715
602.6266, 281.7180
603.1088, 284.1268
603.5909, 286.0291
604.0730, 286.6449
604.5551, 286.4541
605.0372, 285.5420
605.5193, 284.0026
606.0015, 282.4357
606.4836, 280.7264
606.9657, 279.3866
607.4478, 279.4343
607.9299, 280.6088
608.4120, 281.1716
608.8942, 280.2438
609.3763, 279.0673
609.8584, 279.7867
610.3405, 283.4498
610.8226, 285.0194
611.3047, 283.0111
611.7869, 280.5627
612.2690, 278.6562
612.7511, 277.4363
613.2332, 277.0858
613.7153, 277.6491
614.1974, 278.5620
614.6796, 278.9956
615.1617, 278.9124
615.6438, 279.2370
616.1259, 280.3263
616.6080, 281.2479
617.0901, 281.3750
617.5723, 281.0941
618.0544, 280.9131
618.5365, 280.8987
619.0186, 281.0353
619.5007, 281.4670
619.9828, 281.9808
620.4650, 282.1214
620.9471, 281.8851
621.4292, 281.8180
621.9113, 282.2800
622.3934, 283.2014
622.8755, 284.3173
623.3577, 286.0456
623.8398, 287.3581
624.3219, 287.8351
624.8040, 288.2453
625.2861, 289.0719
625.7682, 290.2824
626.2504, 291.6476
626.7325, 293.0615
627.2145, 294.4692
627.6967, 295.7647
628.1788, 296.9491
628.6609, 298.0596
629.1430, 299.0797
629.6251, 300.0742
630.1072, 301.0367
630.5894, 302.0089
631.0715, 303.1898
631.5536, 303.9924
632.0357, 305.6847
632.5178, 309.8493
632.9999, 315.0031
633.4821, 318.5038
633.9642, 319.9100
634.4463, 321.1999
634.9284, 324.2941
635.4105, 329.0698
635.8926, 333.5376
636.3748, 337.3525
636.8569, 341.3771
637.3390, 346.5936
637.8211, 351.4517
638.3032, 354.9912
638.7853, 356.9951
639.2675, 357.3313
639.7496, 355.7842
640.2317, 352.6012
640.7138, 347.5865
641.1959, 340.9134
641.6780, 334.4684
642.1602, 328.6648
642.6423, 323.9417
643.1244, 320.9525
643.6065, 319.9729
644.0886, 319.5069
644.5707, 320.6202
645.0529, 321.0654
645.5350, 319.0162
646.0171, 316.0894
646.4992, 314.6696
646.9813, 315.3522
647.4634, 316.7930
647.9456, 317.5617
648.4277, 317.7300
648.9098, 318.1048
649.3919, 318.5713
649.8740, 319.5601
650.3561, 321.9055
650.8383, 324.4350
651.3204, 325.6742
651.8025, 325.4835
652.2846, 325.3898
652.7667, 326.0307
653.2488, 326.9853
653.7310, 327.8613
654.2131, 328.6870
654.6952, 329.7281
655.1773, 331.1170
655.6594, 332.4047
656.1415, 332.7129
656.6237, 331.5186
657.1058, 331.7956
657.5879, 335.2361
658.0700, 338.3311
658.5521, 339.5609
659.0342, 340.1982
659.5164, 342.0214
659.9985, 345.4401
660.4806, 348.9426
660.9627, 351.2143
661.4448, 352.6853
661.9269, 354.0037
662.4091, 355.1947
662.8912, 357.8112
663.3733, 363.0317
663.8554, 369.5060
664.3375, 374.5476
664.8196, 377.6541
665.3018, 380.7150
665.7839, 383.6669
666.2660, 386.7052
666.7481, 390.0234
667.2302, 393.4818
667.7123, 396.7958
668.1945, 399.8868
668.6766, 402.9661
669.1587, 406.4631
669.6408, 410.3233
670.1229, 413.6961
670.6050, 416.5242
671.0872, 418.9103
671.5693, 420.6445
672.0514, 422.0634
672.5335, 423.7057
673.0156, 425.5783
673.4977, 427.6302
673.9799, 430.1440
674.4620, 432.5628
674.9441, 434.0584
675.4262, 435.0612
675.9083, 436.9439
676.3904, 440.3273
676.8726, 444.1774
677.3547, 446.6969
677.8368, 447.5728
678.3189, 449.2543
678.8010, 452.5920
679.2831, 455.5146
679.7653, 457.4460
680.2474, 458.4421
680.7295, 458.6488
681.2116, 458.1298
681.6937, 456.3188
682.1758, 451.7184
682.6580, 446.3602
683.1401, 443.3738
683.6222, 442.3391
684.1043, 440.2183
684.5864, 435.5316
685.0685, 429.5319
685.5507, 424.4338
686.0328, 420.7183
686.5149, 416.0246
686.9970, 409.3838
687.4791, 402.8669
687.9612, 397.3416
688.4434, 392.1574
688.9255, 386.3213
689.4076, 379.6396
689.8897, 373.0727
690.3718, 367.0555
690.8539, 361.8001
691.3361, 358.0909
691.8182, 355.8395
692.3003, 353.6324
692.7824, 350.9883
693.2645, 347.7002
693.7466, 343.3123
694.2288, 337.4828
694.7109, 331.9448
695.1930, 325.8297
695.6751, 321.0037
696.1572, 319.2338
696.6393, 318.5683
697.1215, 316.2750
697.6036, 311.8760
698.0857, 307.5906
698.5678, 305.4196
699.0499, 304.8642
699.5320, 304.9159
700.0142, 305.6576
700.4963, 304.8327
700.9784, 300.9876
701.4605, 296.3296
701.9426, 294.0868
702.4247, 294.7266
702.9069, 294.1817
703.3890, 291.1246
703.8711, 288.3483
704.3532, 287.0866
704.8353, 286.6301
705.3174, 286.1885
705.7996, 285.5367
706.2817, 284.6466
706.7638, 283.3486
707.2459, 281.8900
707.7280, 281.2266
708.2101, 281.4896
708.6923, 281.2257
709.1743, 279.5779
709.6564, 277.9448
710.1385, 278.3289
710.6207, 280.4795
711.1028, 281.1704
711.5849, 278.9553
712.0670, 276.7082
712.5491, 275.4207
713.0313, 274.7329
713.5134, 274.3164
713.9955, 274.0572
714.4776, 273.8742
714.9597, 273.7133
715.4418, 273.5662
715.9240, 273.5160
716.4061, 273.6357
716.8882, 273.0821
717.3703, 271.0497
717.8524, 269.3568
718.3345, 269.9611
718.8167, 272.1894
719.2988, 273.7365
719.7809, 274.2385
720.2630, 274.3172
720.7451, 273.8769
721.2272, 273.3261
721.7094, 272.8776
722.1915, 272.6969
722.6736, 273.2124
723.1557, 274.7435
723.6378, 276.7131
724.1199, 277.9001
724.6021, 278.2396
725.0842, 278.6979
725.5663, 279.3936
726.0484, 280.1444
726.5305, 280.8125
727.0126, 281.4664
727.4948, 282.3066
727.9769, 283.5648
728.4590, 284.3315
728.9411, 283.8193
729.4232, 283.1409
729.9053, 282.9390
730.3875, 283.3888
730.8696, 284.9288
731.3517, 287.7194
731.8338, 290.6972
732.3159, 292.1906
732.7980, 292.2011
733.2802, 292.9442
733.7623, 294.7672
734.2444, 296.3255
734.7265, 296.7860
735.2086, 296.8764
735.6907, 297.7426
736.1729, 299.4644
736.6550, 300.7710
737.1371, 301.4708
737.6192, 301.6220
738.1013, 300.8609
738.5834, 299.7261
739.0656, 299.1193
739.5477, 299.2064
740.0298, 299.3429
740.5119, 298.7485
740.9940, 297.7819
741.4761, 298.0331
741.9583, 299.6490
742.4404, 301.7192
742.9225, 304.4752
743.4046, 306.9557
743.8867, 307.4936
744.3688, 306.6408
744.8510, 307.7023
745.3331, 313.6408
745.8152, 318.1451
746.2973, 317.8345
746.7794, 315.9907
747.2615, 315.5241
747.7437, 316.8511
748.2258, 319.6633
748.7079, 323.9888
749.1900, 328.6459
749.6721, 331.1725
750.1542, 331.6167
750.6364, 332.6372
751.1185, 334.5127
751.6006, 337.0431
752.0827, 340.1820
752.5648, 343.8887
753.0469, 348.1678
753.5291, 353.3678
754.0112, 358.1418
754.4933, 362.1984
754.9754, 365.9198
755.4575, 369.1791
755.9396, 372.3808
756.4218, 376.3574
756.9039, 381.3456
757.3860, 386.3592
757.8681, 389.9532
758.3502, 394.8198
758.8323, 397.0975
759.3145, 403.1606
759.7966, 408.5292
760.2787, 412.0979
760.7608, 415.1468
761.2429, 419.3824
761.7250, 424.9693
762.2072, 429.9143
762.6893, 434.3911
763.1714, 438.0435
763.6535, 440.5620
764.1356, 442.3795
764.6177, 443.5297
765.0999, 444.3008
765.5820, 445.5934
766.0641, 448.1666
766.5462, 451.0273
767.0283, 452.9102
767.5104, 453.9731
767.9926, 455.0326
768.4747, 456.2534
768.9568, 456.1217
769.4389, 453.2927
769.9210, 448.6740
770.4031, 445.4084
770.8853, 444.8355
771.3674, 442.9635
771.8495, 438.6667
772.3316, 434.3452
772.8137, 431.2935
773.2958, 428.7832
773.7780, 425.4796
774.2601, 421.0331
774.7422, 416.9124
775.2243, 414.4544
775.7064, 412.5946
776.1885, 409.7518
776.6707, 406.2565
777.1528, 403.4843
777.6349, 401.9066
778.1170, 400.9745
778.5991, 400.0329
779.0812, 399.1007
779.5634, 398.7881
780.0455, 399.8054
780.5276, 399.7793
781.0097, 396.2188
781.4918, 393.1943
781.9739, 394.4992
782.4561, 399.1631
782.9382, 402.9658
783.4203, 404.4116
783.9024, 405.6324
784.3845, 407.8027
784.8666, 410.2061
785.3488, 411.3412
785.8309, 411.7740
786.3130, 414.1385
786.7951, 419.9840
787.2772, 427.1762
787.7593, 431.6040
788.2415, 433.3614
788.7236, 437.3979
789.2057, 444.5323
789.6878, 451.6395
790.1699, 456.5172
790.6520, 461.0793
791.1342, 469.0103
791.6162, 481.1061
792.0983, 491.6271
792.5804, 498.4048
793.0626, 505.7276
793.5447, 515.0804
794.0268, 526.0330
794.5089, 538.2892
794.9910, 551.6331
795.4731, 565.6642
795.9553, 580.1810
796.4374, 595.1328
796.9195, 610.1565
797.4016, 625.4752
797.8837, 641.4363
798.3658, 658.1182
798.8480, 676.2752
799.3301, 696.3782
799.8122, 718.5027
800.2943, 742.3312
800.7764, 767.3336
801.2585, 795.3390
801.7407, 828.6303
802.2228, 862.4613
802.7049, 893.7396
803.1870, 924.8616
803.6691, 959.0576
804.1512, 996.8054
804.6334, 1036.501
805.1155, 1077.582
805.5976, 1119.678
806.0797, 1162.648
806.5618, 1206.170
807.0439, 1250.282
807.5261, 1294.743
808.0082, 1339.454
808.4903, 1383.753
808.9724, 1428.474
809.4545, 1476.703
809.9366, 1529.027
810.4188, 1582.467
810.9009, 1637.096
811.3830, 1691.127
811.8651, 1743.377
812.3472, 1793.838
812.8293, 1842.958
813.3115, 1891.035
813.7936, 1936.775
814.2757, 1979.875
814.7578, 2020.516
815.2399, 2060.223
815.7220, 2096.630
816.2042, 2126.693
816.6863, 2149.302
817.1684, 2163.594
817.6505, 2169.400
818.1326, 2165.815
818.6147, 2149.850
819.0969, 2122.509
819.5790, 2089.202
820.0611, 2051.462
820.5432, 2007.598
821.0253, 1955.419
821.5074, 1895.815
821.9896, 1835.716
822.4717, 1775.590
822.9538, 1712.748
823.4359, 1644.094
823.9180, 1575.932
824.4001, 1511.308
824.8823, 1449.995
825.3644, 1391.556
825.8465, 1335.962
826.3286, 1283.858
826.8107, 1235.300
827.2928, 1190.192
827.7750, 1149.193
828.2571, 1111.566
828.7392, 1076.292
829.2213, 1042.812
829.7034, 1010.791
830.1855, 979.7238
830.6677, 949.9150
831.1498, 922.2032
831.6319, 896.7137
832.1140, 872.9164
832.5961, 850.7390
833.0782, 830.4115
833.5604, 812.4493
834.0425, 796.2653
834.5246, 778.7324
835.0067, 757.6091
835.4888, 739.1982
835.9709, 724.5663
836.4531, 711.4199
836.9352, 698.7031
837.4173, 686.7510
837.8994, 676.4152
838.3815, 667.8766
838.8636, 659.0287
839.3458, 648.1585
839.8279, 637.0482
840.3100, 627.0442
840.7921, 618.0917
841.2742, 610.1556
841.7563, 603.1348
842.2385, 596.5162
842.7206, 590.0197
843.2027, 583.5334
843.6848, 576.5027
844.1669, 568.9293
844.6490, 562.6691
845.1312, 558.1672
845.6133, 554.4485
846.0954, 551.4297
846.5775, 548.4056
847.0596, 543.6379
847.5417, 536.0511
848.0239, 530.1315
848.5060, 526.5099
848.9881, 523.6945
849.4702, 521.9519
849.9523, 520.2611
850.4344, 517.4138
850.9166, 513.4654
851.3987, 509.6126
851.8808, 506.2678
852.3629, 503.3883
852.8450, 501.4920
853.3271, 499.7584
853.8093, 496.5614
854.2914, 492.0629
854.7735, 487.7981
855.2556, 484.6530
855.7377, 482.0922
856.2198, 479.5055
856.7020, 476.8574
857.1841, 473.1610
857.6662, 468.2370
858.1483, 463.3060
858.6304, 459.0793
859.1125, 454.5905
859.5947, 448.4943
860.0768, 440.7876
860.5589, 433.5388
861.0410, 426.3712
861.5231, 420.1707
862.0052, 415.4645
862.4874, 411.3260
862.9695, 407.4419
863.4516, 403.5609
863.9337, 399.1415
864.4158, 393.8143
864.8979, 389.0502
865.3801, 386.3791
865.8622, 384.2477
866.3443, 381.0069
866.8264, 376.9078
867.3085, 372.7173
867.7906, 368.7152
868.2728, 364.9890
868.7549, 361.6285
869.2370, 358.6427
869.7191, 356.0624
870.2012, 353.8916
870.6833, 351.9761
871.1655, 350.3059
871.6476, 348.8031
872.1297, 347.4916
872.6118, 346.2436
873.0939, 344.6891
873.5760, 342.4872
874.0581, 340.9875
874.5402, 341.2708
875.0223, 340.9632
875.5045, 339.1932
875.9866, 336.6827
876.4687, 333.7463
876.9508, 330.6149
877.4329, 328.3902
877.9150, 328.1180
878.3972, 327.9660
878.8793, 327.3359
879.3614, 326.0570
879.8435, 323.3406
880.3256, 319.8124
880.8077, 317.3088
881.2899, 316.6643
881.7720, 316.6510
882.2541, 315.9068
882.7362, 314.6336
883.2183, 313.3808
883.7004, 312.1629
884.1826, 311.0874
884.6647, 310.2275
885.1468, 309.0392
885.6289, 306.8797
886.1110, 304.0256
886.5931, 302.0889
887.0753, 301.5877
887.5574, 300.4293
888.0395, 298.2402
888.5216, 295.6381
889.0037, 292.2470
889.4858, 288.9396
889.9680, 287.4730
890.4501, 288.3308
890.9322, 288.1487
891.4143, 286.0101
891.8964, 283.2738
892.3785, 279.6250
892.8607, 276.2689
893.3428, 275.1081
893.8249, 275.5421
894.3070, 274.6256
894.7891, 270.3841
895.2712, 266.2443
895.7534, 266.0665
896.2355, 267.5550
896.7176, 266.7003
897.1997, 264.0052
897.6818, 262.7932
898.1639, 264.2678
898.6461, 265.9542
899.1282, 264.8382
899.6103, 261.6845
900.0924, 259.8051
900.5745, 259.2542
901.0566, 258.9977
901.5388, 259.0004
902.0209, 258.5077
902.5030, 256.7455
902.9851, 254.3108
903.4672, 252.9575
903.9493, 253.2706
904.4315, 252.9820
904.9136, 251.2688
905.3957, 250.0132
905.8778, 249.8076
906.3599, 250.2901
906.8420, 251.5869
907.3242, 253.4535
907.8063, 254.1914
908.2884, 252.3386
908.7705, 250.7388
909.2526, 250.7938
909.7347, 251.2912
910.2169, 251.0457
910.6990, 250.3861
911.1811, 250.3428
911.6632, 251.2522
912.1453, 252.2083
912.6274, 252.4967
913.1096, 252.3486
913.5917, 252.0247
914.0738, 251.5660
914.5559, 250.8518
915.0380, 249.9641
915.5201, 249.9300
916.0023, 251.6955
916.4844, 253.8633
916.9665, 252.6901
917.4486, 248.2251
917.9307, 247.0288
918.4128, 250.0648
918.8950, 252.3821
919.3771, 251.8668
919.8592, 250.0407
920.3413, 248.7405
920.8234, 247.9393
921.3055, 246.7720
921.7877, 244.2590
922.2698, 243.1207
922.7519, 245.1402
923.2340, 247.0645
923.7161, 247.1494
924.1982, 246.0161
924.6804, 244.5454
925.1625, 242.6105
925.6446, 241.7409
926.1267, 242.7072
926.6088, 244.3738
927.0909, 246.7236
927.5731, 249.0917
928.0552, 250.9730
928.5373, 252.1964
929.0194, 252.4519
929.5015, 251.3464
929.9836, 250.1646
930.4658, 249.9450
930.9479, 250.3554
931.4300, 251.0688
931.9121, 251.9674
932.3942, 252.8654
932.8763, 253.6895
933.3585, 254.4140
933.8406, 255.0956
934.3227, 255.5274
934.8048, 254.9070
935.2869, 253.4084
935.7690, 252.6690
936.2512, 252.9365
936.7333, 253.4547
937.2154, 253.8464
937.6975, 254.1404
938.1796, 254.3469
938.6617, 254.4496
939.1439, 254.9575
939.6260, 256.3602
940.1081, 256.7379
940.5902, 254.8744
941.0723, 253.0027
941.5544, 253.0318
942.0366, 254.4161
942.5187, 255.3082
943.0008, 255.6627
943.4829, 255.6714
943.9650, 255.2787
944.4471, 254.6192
944.9293, 253.3534
945.4114, 252.1158
945.8935, 251.5527
946.3756, 251.6765
946.8577, 252.1634
947.3398, 253.0589
947.8220, 254.0407
948.3041, 255.2934
948.7862, 256.2642
949.2683, 256.2112
949.7504, 255.5585
950.2325, 255.2080
950.7147, 255.3806
951.1968, 255.5396
951.6789, 255.2363
952.1610, 254.7654
952.6431, 254.3576
953.1252, 254.1058
953.6074, 254.4302
954.0895, 255.1909
954.5716, 255.4768
955.0537, 254.8230
955.5358, 253.7648
956.0179, 252.9962
956.5000, 252.4518
956.9821, 251.9641
957.4642, 251.5058
957.9464, 250.2258
958.4285, 247.7885
958.9106, 246.1824
959.3927, 247.1220
959.8748, 249.5063
960.3569, 250.3520
960.8391, 249.3378
961.3212, 248.5716
961.8033, 248.1079
962.2854, 247.7841
962.7675, 247.7443
963.2496, 247.5200
963.7318, 246.4079
964.2139, 244.6169
964.6960, 243.7368
965.1781, 245.0425
965.6602, 245.1625
966.1423, 242.5934
966.6245, 240.5684
967.1066, 241.2307
967.5887, 242.6591
968.0708, 241.9475
968.5529, 239.1101
969.0350, 237.9711
969.5172, 241.1151
969.9993, 243.6494
970.4814, 243.8002
970.9635, 242.9551
971.4456, 241.8363
971.9277, 240.6674
972.4099, 239.5634
972.8920, 238.5664
973.3741, 237.9554
973.8562, 238.6086
974.3383, 238.9492
974.8204, 236.9291
975.3026, 234.2936
975.7847, 233.7394
976.2668, 234.9562
976.7489, 235.8611
977.2310, 235.5308
977.7131, 234.6653
978.1953, 233.6148
978.6774, 232.7078
979.1595, 232.6973
979.6416, 233.2938
980.1237, 233.5652
980.6058, 233.3716
981.0880, 233.2567
981.5701, 233.5832
982.0522, 234.0677
982.5343, 234.3322
983.0164, 234.3414
983.4985, 233.6590
983.9807, 232.3288
984.4628, 231.8081
984.9449, 232.6063
985.4270, 233.1978
985.9091, 232.1594
986.3912, 230.1448
986.8734, 228.9936
987.3555, 228.6919
987.8376, 229.6209
988.3197, 232.1622
988.8018, 234.4333
989.2839, 235.6200
989.7661, 236.5403
990.2482, 238.2371
990.7303, 240.4762
991.2124, 241.5072
991.6945, 240.6792
992.1766, 240.1459
992.6588, 239.7953
993.1409, 240.0928
993.6230, 241.7729
994.1051, 243.8170
994.5872, 244.8023
995.0693, 244.7450
995.5515, 244.9819
996.0336, 246.3757
996.5157, 246.8146
996.9978, 244.9754
997.4799, 243.2901
997.9620, 243.8635
998.4442, 245.0137
998.9263, 243.7497
999.4084, 239.7996
999.8905, 237.1496
1000.373, 237.6709
1000.855, 238.4681
1001.337, 239.1824
1001.819, 239.1837
1002.301, 237.7923
1002.783, 235.3782
1003.265, 232.3122
1003.747, 228.7153
1004.230, 226.1935
1004.712, 226.5170
1005.194, 227.0506
1005.676, 226.2313
1006.158, 224.5466
1006.640, 222.4703
1007.122, 220.0869
1007.604, 217.1103
1008.086, 213.4407
1008.569, 210.5478
1009.051, 210.3353
1009.533, 210.7834
1010.015, 209.3034
1010.497, 207.0915
1010.979, 206.6305
1011.461, 207.6732
1011.943, 207.7711
1012.426, 205.7791
1012.908, 203.6627
1013.390, 204.1254
1013.872, 205.5338
1014.354, 204.6338
1014.836, 202.1379
1015.318, 199.9467
1015.800, 198.4664
1016.282, 197.8539
1016.765, 198.2441
1017.247, 198.7014
1017.729, 197.7125
1018.211, 195.7236
1018.693, 194.2675
1019.175, 193.3127
1019.657, 192.7211
1020.139, 192.4292
1020.622, 191.7353
1021.104, 190.1205
1021.586, 188.1979
1022.068, 186.9971
1022.550, 186.4937
1023.032, 186.4671
1023.514, 186.9258
1023.996, 187.4812
1024.478, 188.0833
1024.961, 188.2624
1025.443, 187.5771
1025.925, 186.5521
1026.407, 186.5053
1026.889, 187.5214
1027.371, 187.6378
1027.853, 186.6810
1028.335, 185.7285
1028.818, 184.8888
1029.300, 184.7427
1029.782, 185.8664
1030.264, 187.8315
1030.746, 189.5815
1031.228, 191.2133
1031.710, 191.9355
1032.192, 191.2613
1032.674, 191.2119
1033.156, 192.8002
1033.639, 194.2022
1034.121, 193.7760
1034.603, 192.1723
1035.085, 191.1937
1035.567, 190.6766
1036.049, 191.5215
1036.531, 194.7536
1037.013, 197.3529
1037.496, 198.2072
1037.978, 198.5747
1038.460, 199.4910
1038.942, 200.7007
1039.424, 201.4594
1039.906, 201.9060
1040.388, 201.4375
1040.870, 198.9407
1041.353, 197.1474
1041.835, 197.8174
1042.317, 198.4106
1042.799, 196.3069
1043.281, 192.6215
1043.763, 190.7612
1044.245, 191.5203
1044.727, 191.8021
1045.209, 191.5462
1045.692, 190.7172
1046.174, 188.3712
1046.656, 186.2856
1047.138, 186.6079
1047.620, 188.2171
1048.102, 187.6885
1048.584, 183.7275
1049.066, 181.5626
1049.548, 183.9454
1050.031, 185.5107
1050.513, 183.3736
1050.995, 180.7917
1051.477, 180.6856
1051.959, 182.2320
1052.441, 183.0870
1052.923, 182.9267
1053.405, 182.0864
1053.888, 179.6780
1054.370, 177.8319
1054.852, 177.7873
1055.334, 178.2318
1055.816, 178.1889
1056.298, 177.7112
1056.780, 176.8871
1057.262, 175.5350
1057.745, 175.3834
1058.227, 178.5500
1058.709, 180.9115
1059.191, 179.8149
1059.673, 178.0495
1060.155, 178.3980
1060.637, 179.8884
1061.119, 179.8405
1061.601, 177.6059
1062.083, 175.9700
1062.566, 176.6373
1063.048, 177.1214
1063.530, 175.8512
1064.012, 174.3573
1064.494, 174.0611
1064.976, 174.5510
1065.458, 174.7874
1065.940, 174.5630
1066.423, 174.4711
1066.905, 175.3879
1067.387, 175.6456
1067.869, 173.4821
1068.351, 171.2604
1068.833, 171.2290
1069.315, 172.5527
1069.797, 173.4311
1070.280, 173.5514
1070.762, 173.9141
1071.244, 175.6022
1071.726, 176.7369
1072.208, 176.1339
1072.690, 174.9466
1073.172, 173.8977
1073.654, 173.0312
1074.136, 172.2780
1074.619, 171.6229
1075.101, 171.0523
1075.583, 170.4777
1076.065, 170.1260
1076.547, 170.4209
1077.029, 170.6660
1077.511, 170.1400
1077.993, 169.2988
1078.475, 168.8484
1078.958, 168.8589
1079.440, 169.0115
1079.922, 169.2955
1080.404, 169.4588
1080.886, 168.7254
1081.368, 168.5200
1081.850, 170.8311
1082.332, 173.6925
1082.814, 173.9993
1083.297, 172.1197
1083.779, 171.3676
1084.261, 173.1296
1084.743, 175.1430
1085.225, 176.9007
1085.707, 177.9815
1086.189, 177.7491
1086.671, 176.9518
1087.154, 176.2773
1087.636, 175.8526
1088.118, 175.7305
1088.600, 175.9870
1089.082, 176.2061
1089.564, 176.0335
1090.046, 175.9962
1090.528, 177.0764
1091.010, 177.8724
1091.493, 176.0236
1091.975, 172.9161
1092.457, 172.4269
1092.939, 175.6560
1093.421, 178.3329
1093.903, 178.7242
1094.385, 178.4259
1094.867, 177.3613
1095.349, 176.6237
1095.832, 177.6243
1096.314, 179.4187
1096.796, 179.9834
1097.278, 179.0173
1097.760, 178.6900
1098.242, 180.5395
1098.724, 181.9189
1099.206, 181.3728
1099.689, 180.6848
1100.171, 181.1009
1100.653, 182.1456
1101.135, 182.9405
1101.617, 183.4742
1102.099, 184.5990
1102.581, 186.9323
1103.063, 189.1454
1103.546, 191.3054
1104.028, 192.8434
1104.510, 192.6273
1104.992, 192.2199
1105.474, 193.3697
1105.956, 195.9615
1106.438, 198.9029
1106.920, 202.1224
1107.402, 205.4583
1107.885, 209.1505
1108.367, 212.6200
1108.849, 215.8503
1109.331, 218.6237
1109.813, 220.7498
1110.295, 222.2698
1110.777, 223.1568
1111.259, 223.1003
1111.741, 223.7245
1112.224, 226.5768
1112.706, 228.1005
1113.188, 226.9795
1113.670, 224.9258
1114.152, 222.8596
1114.634, 220.6645
1115.116, 217.9197
1115.598, 214.5212
1116.081, 211.9859
1116.563, 211.3994
1117.045, 209.7948
1117.527, 206.2322
1118.009, 202.5585
1118.491, 199.5393
1118.973, 196.9326
1119.455, 194.5844
1119.938, 192.4295
1120.420, 189.7041
1120.902, 186.1270
1121.384, 182.5346
1121.866, 178.0606
1122.348, 175.6257
1122.830, 177.1299
1123.312, 179.4158
1123.794, 179.6467
1124.276, 178.3420
1124.759, 177.0704
1125.241, 175.7659
1125.723, 174.8430
1126.205, 174.2886
1126.687, 174.2815
1127.169, 175.0948
1127.651, 175.6604
1128.133, 175.2400
1128.616, 174.1965
1129.098, 173.1229
1129.580, 172.0349
1130.062, 171.1137
1130.544, 170.3689
1131.026, 169.7179
1131.508, 169.1414
1131.990, 168.7895
1132.473, 168.7540
1132.955, 168.8653
1133.437, 169.0290
1133.919, 169.0234
1134.401, 167.6743
1134.883, 165.2018
1135.365, 164.5126
1135.847, 165.6968
1136.329, 166.7897
1136.812, 167.1768
1137.294, 167.3947
1137.776, 167.8985
1138.258, 168.3140
1138.740, 167.5223
1139.222, 168.4197
1139.704, 166.9261
1140.186, 169.1974
1140.668, 170.5561
1141.151, 170.6189
1141.633, 170.2263
1142.115, 169.8049
1142.597, 169.3172
1143.079, 168.5853
1143.561, 167.8790
1144.043, 167.9179
1144.525, 168.2017
1145.008, 167.2963
1145.490, 165.6958
1145.972, 165.5406
1146.454, 167.2894
1146.936, 168.8452
1147.418, 168.7866
1147.900, 167.9313
1148.382, 166.7325
1148.865, 165.4474
1149.347, 164.3332
1149.829, 163.3752
1150.311, 162.2168
1150.793, 161.1089
1151.275, 161.3843
1151.757, 163.9660
1152.239, 165.8452
1152.721, 164.6790
1153.203, 163.0080
1153.686, 162.2192
1154.168, 161.9838
1154.650, 162.2976
1155.132, 162.7097
1155.614, 162.0511
1156.096, 160.0889
1156.578, 159.3214
1157.060, 161.9355
1157.543, 163.6977
1158.025, 162.6207
1158.507, 161.2915
1158.989, 161.1879
1159.471, 161.7092
1159.953, 162.2662
1160.435, 162.7416
1160.917, 162.5398
1161.400, 160.7337
1161.882, 160.2083
1162.364, 162.6300
1162.846, 163.7349
1163.328, 161.1392
1163.810, 158.6688
1164.292, 159.5722
1164.774, 162.0811
1165.256, 162.3157
1165.739, 160.0703
1166.221, 159.2495
1166.703, 160.2327
1167.185, 161.3385
1167.667, 162.5789
1168.149, 162.9871
1168.631, 161.8574
1169.113, 160.6613
1169.595, 161.1320
1170.078, 162.7226
1170.560, 163.4725
1171.042, 163.4092
1171.524, 163.7312
1172.006, 164.4601
1172.488, 164.5377
1172.970, 163.7143
1173.452, 163.0695
1173.934, 163.2715
1174.417, 164.3374
1174.899, 166.8723
1175.381, 169.9845
1175.863, 170.9387
1176.345, 170.5165
1176.827, 171.0595
1177.309, 172.6200
1177.791, 174.0731
1178.274, 175.0324
1178.756, 175.7477
1179.238, 176.0563
1179.720, 177.0732
1180.202, 181.1355
1180.684, 185.6606
1181.166, 187.1510
1181.648, 186.8687
1182.130, 186.8270
1182.613, 187.5198
1183.095, 189.3441
1183.577, 192.6717
1184.059, 194.9751
1184.541, 194.2878
1185.023, 193.0417
1185.505, 192.2156
1185.987, 191.7135
1186.469, 191.8918
1186.952, 192.0839
1187.434, 191.0703
1187.916, 188.8187
1188.398, 186.7437
1188.880, 184.8404
1189.362, 183.5049
1189.844, 183.7675
1190.326, 183.2860
1190.809, 180.9380
1191.291, 177.9737
1191.773, 175.2356
1192.255, 172.7218
1192.737, 170.3435
1193.219, 168.0412
1193.701, 166.8155
1194.183, 167.2904
1194.666, 166.2832
1195.148, 162.9530
1195.630, 159.8361
1196.112, 158.0501
1196.594, 157.1835
1197.076, 156.9247
1197.558, 156.9733
1198.040, 156.3725
1198.522, 155.2236
1199.005, 154.2764
1199.487, 153.5977
1199.969, 153.4797
1200.451, 153.9580
1200.933, 154.9527
1201.415, 156.4382
1201.897, 157.3150
1202.379, 155.7720
1202.861, 153.4847
1203.344, 152.8830
1203.826, 153.5925
1204.308, 155.6002
1204.790, 158.1625
1205.272, 159.6145
1205.754, 159.7499
1206.236, 159.8351
1206.718, 160.5159
1207.201, 161.1314
1207.683, 161.1293
1208.165, 161.0918
1208.647, 161.1028
1209.129, 161.5425
1209.611, 163.2054
1210.093, 165.4402
1210.575, 166.8601
1211.057, 167.2640
1211.540, 167.3901
1212.022, 166.5241
1212.504, 166.6963
1212.986, 169.1056
1213.468, 171.3012
1213.950, 172.4487
1214.432, 173.0399
1214.914, 173.5031
1215.396, 173.7297
1215.879, 173.2540
1216.361, 173.8267
1216.843, 174.3787
1217.325, 174.3644
1217.807, 175.8586
1218.289, 176.1920
1218.771, 176.4780
1219.253, 177.2192
1219.736, 178.0429
1220.218, 178.5310
1220.700, 179.4482
1221.182, 179.8315
1221.664, 181.0708
1222.146, 182.0410
1222.628, 182.7740
1223.110, 183.5803
1223.593, 184.4056
1224.075, 184.5290
1224.557, 183.6564
1225.039, 183.2377
1225.521, 184.8217
1226.003, 186.8779
1226.485, 188.2113
1226.967, 189.1413
1227.449, 190.4510
1227.932, 191.3193
1228.414, 189.9588
1228.896, 186.7937
1229.378, 184.4706
1229.860, 183.6810
1230.342, 183.5576
1230.824, 184.6180
1231.306, 185.3101
1231.788, 185.3429
1232.271, 184.6623
1232.753, 182.4501
1233.235, 180.2682
1233.717, 180.5673
1234.199, 182.7888
1234.681, 183.0862
1235.163, 180.8636
1235.645, 179.6432
1236.128, 179.6182
1236.610, 179.8650
1237.092, 180.2316
1237.574, 180.0448
1238.056, 178.8236
1238.538, 177.5598
1239.020, 177.6525
1239.502, 178.5301
1239.984, 178.7042
1240.467, 178.4732
1240.949, 178.9630
1241.431, 179.8251
1241.913, 179.6193
1242.395, 178.2238
1242.877, 176.7113
1243.359, 175.5373
1243.841, 175.1063
1244.323, 176.3483
1244.806, 177.6747
1245.288, 178.1287
1245.770, 177.9118
1246.252, 176.4761
1246.734, 174.9426
1247.216, 175.2969
1247.698, 177.4295
1248.180, 179.1112
1248.662, 180.1765
1249.145, 180.4349
1249.627, 179.6896
1250.109, 178.3833
1250.591, 175.8506
1251.073, 174.1629
1251.555, 174.7307
1252.037, 176.4006
1252.519, 177.7587
1253.002, 178.7180
1253.484, 178.7177
1253.966, 177.7850
1254.448, 177.2735
1254.930, 177.1831
1255.412, 176.4015
1255.894, 174.8401
1256.376, 174.4939
1256.859, 176.4312
1257.341, 178.1075
1257.823, 176.4626
1258.305, 173.7391
1258.787, 172.6592
1259.269, 172.5406
1259.751, 172.8381
1260.233, 173.1949
1260.715, 173.1661
1261.198, 172.7240
1261.680, 172.0166
1262.162, 171.0190
1262.644, 170.2349
1263.126, 169.6507
1263.608, 169.5443
1264.090, 171.0056
1264.572, 171.7420
1265.054, 169.6210
1265.537, 167.1084
1266.019, 166.9580
1266.501, 168.4314
1266.983, 169.0767
1267.465, 168.8463
1267.947, 168.1419
1268.429, 166.8753
1268.911, 166.3491
1269.394, 166.7752
1269.876, 166.5552
1270.358, 165.0230
1270.840, 163.5383
1271.322, 163.2809
1271.804, 163.8672
1272.286, 165.1983
1272.768, 166.6262
1273.250, 166.8542
1273.733, 166.4571
1274.215, 166.2706
1274.697, 166.5199
1275.179, 167.6221
1275.661, 169.5447
1276.143, 170.7740
1276.625, 170.5723
1277.107, 169.8936
1277.589, 168.3523
1278.072, 167.3026
1278.554, 167.6504
1279.036, 168.4225
1279.518, 168.9834
1280.000, 169.3506
1280.482, 169.4895
1280.964, 169.4520
1281.446, 169.8408
1281.929, 170.7019
1282.411, 171.4619
1282.893, 172.0897
1283.375, 173.0561
1283.857, 174.4558
1284.339, 174.3741
1284.821, 171.6513
1285.303, 169.1266
1285.786, 169.5181
1286.268, 172.8111
##END=



