##NAMES=Bakerite
##RRUFFID=R050423
##IDEAL CHEMISTRY=Ca_4_B_5_(SiO_4_)_3_(O_3_(OH)_5_)
##LOCALITY=Corkscrew Canyon, Death Valley, California, USA
##OWNER=RRUFF
##SOURCE=Marcus Origlieri
##DESCRIPTION=White fine-grained aggregate
##STATUS=The identification of this mineral has been confirmed by X-ray diffraction and chemical analysis
##URL=rruff.info/R050423
##MEASURED CHEMISTRY=Ca_4.00_(B_4.99_S_0.01_)_Σ=5_(Si_2.97_Al_0.03_)_Σ=3_O_15_(OH)_5_
93.30109, 0.0000000E+00
93.78320, 135.3685
94.26532, 138.1989
94.74744, 138.5352
95.22955, 136.0111
95.71167, 132.6053
96.19379, 130.7948
96.67590, 131.4412
97.15802, 131.6324
97.64014, 131.5505
98.12225, 130.7266
98.60437, 128.1720
99.08649, 123.3243
99.56860, 117.0509
100.0507, 110.5485
100.5328, 103.2960
101.0150, 96.83865
101.4971, 92.66633
101.9792, 90.81218
102.4613, 89.10619
102.9434, 85.87253
103.4255, 82.82032
103.9077, 81.63597
104.3898, 83.16872
104.8719, 85.73965
105.3540, 85.79072
105.8361, 81.60242
106.3182, 77.73341
106.8004, 75.17924
107.2825, 73.46950
107.7646, 72.05905
108.2467, 70.63425
108.7288, 69.19491
109.2109, 67.77778
109.6931, 66.45876
110.1752, 65.07006
110.6573, 63.56514
111.1394, 61.94761
111.6215, 60.21129
112.1036, 58.32035
112.5858, 56.21151
113.0679, 54.51806
113.5500, 53.34007
114.0321, 52.46012
114.5142, 51.76302
114.9964, 51.22920
115.4785, 50.82691
115.9606, 50.59288
116.4427, 50.51662
116.9248, 50.35305
117.4069, 49.83579
117.8891, 49.20593
118.3712, 49.00584
118.8533, 49.50672
119.3354, 50.22024
119.8175, 50.66395
120.2996, 50.86192
120.7818, 51.03172
121.2639, 51.25887
121.7460, 51.53619
122.2281, 52.06889
122.7102, 53.49634
123.1923, 54.78384
123.6745, 55.34105
124.1566, 55.07548
124.6387, 54.32869
125.1208, 53.55902
125.6029, 52.76170
126.0850, 51.94799
126.5672, 51.01217
127.0493, 50.11632
127.5314, 49.44114
128.0135, 49.04834
128.4956, 48.81456
128.9777, 48.38064
129.4599, 47.42654
129.9420, 46.62318
130.4241, 46.04058
130.9062, 45.63335
131.3883, 45.37459
131.8704, 45.28200
132.3526, 45.28236
132.8347, 44.95585
133.3168, 44.11366
133.7989, 43.21729
134.2810, 42.44422
134.7632, 41.78001
135.2453, 41.11549
135.7274, 40.28699
136.2095, 39.43193
136.6916, 38.95649
137.1737, 39.12465
137.6559, 39.53251
138.1380, 39.83618
138.6201, 40.05823
139.1022, 40.06273
139.5843, 39.53965
140.0664, 38.76906
140.5486, 38.15965
141.0307, 37.98223
141.5128, 38.06860
141.9949, 37.90384
142.4770, 37.29873
142.9591, 36.71282
143.4413, 36.27998
143.9234, 36.00489
144.4055, 35.90263
144.8876, 36.05107
145.3697, 36.45312
145.8518, 36.62299
146.3340, 36.45481
146.8161, 36.12353
147.2982, 35.47020
147.7803, 34.64492
148.2624, 34.01782
148.7445, 34.00891
149.2267, 34.86217
149.7088, 35.31261
150.1909, 35.15429
150.6730, 34.85752
151.1551, 34.63406
151.6372, 34.53359
152.1194, 34.53228
152.6015, 34.60046
153.0836, 34.74442
153.5657, 34.98053
154.0478, 35.49647
154.5299, 36.01650
155.0121, 36.24928
155.4942, 36.11475
155.9763, 35.76823
156.4584, 35.38144
156.9405, 34.93940
157.4226, 34.57359
157.9048, 34.27471
158.3869, 34.07842
158.8690, 34.08468
159.3511, 34.37972
159.8332, 34.80074
160.3153, 35.18283
160.7975, 35.53395
161.2796, 35.77240
161.7617, 35.79687
162.2438, 35.62420
162.7259, 35.47837
163.2081, 35.46143
163.6902, 35.44535
164.1723, 35.31757
164.6544, 35.06756
165.1365, 34.80238
165.6186, 34.66169
166.1008, 34.69389
166.5829, 34.63321
167.0650, 34.18440
167.5471, 33.79159
168.0292, 33.81476
168.5113, 34.32504
168.9935, 35.01741
169.4756, 35.38030
169.9577, 35.24608
170.4398, 35.07662
170.9219, 34.83288
171.4040, 34.61580
171.8862, 34.53744
172.3683, 34.63367
172.8504, 34.81631
173.3325, 34.87689
173.8146, 34.75170
174.2967, 34.55806
174.7789, 34.20448
175.2610, 33.81468
175.7431, 33.54869
176.2252, 33.48065
176.7073, 33.54478
177.1894, 33.52468
177.6716, 33.35105
178.1537, 33.18879
178.6358, 33.06190
179.1179, 32.96720
179.6000, 32.90705
180.0821, 32.89633
180.5643, 32.90304
181.0464, 32.82351
181.5285, 32.57978
182.0106, 32.37620
182.4927, 32.37747
182.9748, 32.52900
183.4570, 32.57212
183.9391, 32.32846
184.4212, 31.92576
184.9033, 31.65875
185.3854, 31.58405
185.8675, 31.55837
186.3497, 31.45906
186.8318, 31.28336
187.3139, 31.13223
187.7960, 31.09534
188.2781, 31.08656
188.7602, 30.99161
189.2424, 30.74877
189.7245, 30.50326
190.2066, 30.48093
190.6887, 30.75983
191.1708, 30.97707
191.6530, 30.95394
192.1351, 30.83667
192.6172, 30.74350
193.0993, 30.71832
193.5814, 30.72681
194.0635, 30.69581
194.5457, 30.59152
195.0278, 30.51624
195.5099, 30.50214
195.9920, 30.51750
196.4741, 30.53463
196.9562, 30.54161
197.4384, 30.53971
197.9205, 30.53567
198.4026, 30.56793
198.8847, 30.53819
199.3668, 30.36606
199.8489, 30.15309
200.3311, 30.01868
200.8132, 30.02466
201.2953, 30.13501
201.7774, 30.20696
202.2595, 30.20826
202.7416, 30.20391
203.2238, 30.22206
203.7059, 30.23378
204.1880, 30.17337
204.6701, 29.99628
205.1522, 29.75714
205.6343, 29.71049
206.1165, 30.07460
206.5986, 30.35932
207.0807, 30.46057
207.5628, 30.41084
208.0449, 30.24725
208.5270, 29.96382
209.0092, 29.61657
209.4913, 29.44646
209.9734, 29.58753
210.4555, 29.70436
210.9376, 29.64881
211.4197, 29.47207
211.9019, 29.28898
212.3840, 29.10600
212.8661, 29.01338
213.3482, 29.25372
213.8303, 30.10395
214.3124, 30.82400
214.7946, 30.89577
215.2767, 30.42451
215.7588, 29.97498
216.2409, 29.78646
216.7230, 29.77910
217.2052, 29.76008
217.6873, 29.70681
218.1694, 29.68750
218.6515, 29.78058
219.1336, 29.98142
219.6157, 30.15955
220.0979, 30.29357
220.5800, 30.35620
221.0621, 30.30893
221.5442, 30.12979
222.0263, 29.91200
222.5084, 29.74335
222.9906, 29.62704
223.4727, 29.51551
223.9548, 29.35417
224.4369, 29.21958
224.9190, 29.18311
225.4011, 29.26082
225.8833, 29.38243
226.3654, 29.49789
226.8475, 29.63242
227.3296, 29.63338
227.8117, 29.31054
228.2938, 28.94352
228.7760, 28.68329
229.2581, 28.56453
229.7402, 28.56619
230.2223, 28.68806
230.7044, 28.98561
231.1865, 29.22705
231.6687, 29.38891
232.1508, 29.49227
232.6329, 29.55421
233.1150, 29.57533
233.5971, 29.53450
234.0792, 29.39223
234.5614, 29.10541
235.0435, 28.81953
235.5256, 28.35238
236.0077, 28.01595
236.4898, 28.11250
236.9719, 28.63948
237.4541, 29.26729
237.9362, 29.52941
238.4183, 29.21265
238.9004, 29.03566
239.3825, 29.08631
239.8646, 29.18413
240.3468, 29.25620
240.8289, 29.27154
241.3110, 29.19238
241.7931, 28.95371
242.2752, 28.46015
242.7573, 28.08756
243.2395, 27.70610
243.7216, 27.51772
244.2037, 27.79745
244.6858, 28.50296
245.1679, 29.22541
245.6501, 29.50007
246.1322, 29.19060
246.6143, 28.92159
247.0964, 28.69916
247.5785, 28.50648
248.0606, 28.32693
248.5428, 28.16228
249.0249, 28.02846
249.5070, 27.93658
249.9891, 27.88942
250.4712, 27.92237
250.9533, 28.19011
251.4355, 28.41494
251.9176, 28.33907
252.3997, 27.98324
252.8818, 27.65634
253.3639, 27.65465
253.8460, 27.98129
254.3282, 28.07589
254.8103, 27.72174
255.2924, 27.31315
255.7745, 27.13685
256.2566, 27.18568
256.7387, 27.26334
257.2209, 27.23290
257.7030, 27.10862
258.1851, 27.02070
258.6672, 26.95557
259.1493, 26.93753
259.6314, 27.02606
260.1136, 27.20526
260.5957, 27.33668
261.0778, 27.34630
261.5599, 27.23419
262.0420, 27.04267
262.5241, 26.62642
263.0063, 26.30261
263.4884, 26.37927
263.9705, 26.80857
264.4526, 27.17512
264.9347, 27.29042
265.4168, 27.20802
265.8990, 27.05879
266.3811, 26.80084
266.8632, 26.56875
267.3453, 26.45988
267.8274, 26.46538
268.3095, 26.51834
268.7917, 26.60899
269.2738, 26.72888
269.7559, 26.85755
270.2380, 26.99249
270.7201, 27.14905
271.2022, 27.38887
271.6844, 27.68585
272.1665, 27.85641
272.6486, 27.81380
273.1307, 27.65984
273.6128, 27.49996
274.0949, 27.33390
274.5771, 27.16772
275.0592, 26.96139
275.5413, 26.73916
276.0234, 26.66135
276.5055, 26.84368
276.9876, 27.05721
277.4698, 27.11243
277.9519, 27.03523
278.4340, 26.95810
278.9161, 26.95566
279.3982, 27.01794
279.8803, 27.10537
280.3625, 27.23293
280.8446, 27.35851
281.3267, 27.51769
281.8088, 27.66168
282.2909, 27.66520
282.7730, 27.34501
283.2552, 26.83710
283.7373, 26.61710
284.2194, 26.82049
284.7015, 27.06765
285.1836, 27.21210
285.6658, 27.27463
286.1479, 27.27341
286.6300, 27.19015
287.1121, 27.07396
287.5942, 27.03584
288.0764, 27.08909
288.5585, 27.19412
289.0406, 27.43207
289.5227, 27.67176
290.0048, 27.75614
290.4869, 27.61430
290.9691, 27.35547
291.4512, 27.15187
291.9333, 27.00259
292.4154, 26.91556
292.8975, 26.93140
293.3796, 26.98616
293.8618, 27.05087
294.3439, 27.11784
294.8260, 27.15281
295.3081, 27.09440
295.7902, 26.91719
296.2723, 26.76823
296.7545, 26.75047
297.2366, 26.71072
297.7187, 26.49970
298.2008, 26.13134
298.6829, 25.81138
299.1650, 25.79740
299.6472, 26.12978
300.1293, 26.38334
300.6114, 26.51781
301.0935, 26.57520
301.5756, 26.52252
302.0577, 26.39552
302.5399, 26.29574
303.0220, 26.32494
303.5041, 26.47497
303.9862, 26.56119
304.4683, 26.56586
304.9504, 26.51831
305.4326, 26.38634
305.9147, 26.21689
306.3968, 26.09017
306.8789, 26.05464
307.3610, 26.09931
307.8431, 26.19164
308.3253, 26.42113
308.8074, 26.55013
309.2895, 26.52454
309.7716, 26.37511
310.2537, 26.09308
310.7358, 25.65001
311.2180, 25.18630
311.7001, 25.04839
312.1822, 25.41571
312.6643, 25.71420
313.1464, 25.81062
313.6285, 25.81683
314.1107, 25.79493
314.5928, 25.76632
315.0749, 25.76826
315.5570, 25.87458
316.0391, 26.13051
316.5212, 26.32422
317.0034, 26.41919
317.4855, 26.45916
317.9676, 26.43316
318.4497, 26.35751
318.9318, 26.29729
319.4139, 26.33910
319.8961, 26.50021
320.3782, 26.59322
320.8603, 26.59332
321.3424, 26.53980
321.8245, 26.40250
322.3066, 26.22013
322.7888, 26.07766
323.2709, 26.04682
323.7530, 26.11175
324.2351, 26.15499
324.7172, 26.15717
325.1993, 26.16424
325.6815, 26.15949
326.1636, 26.17542
326.6457, 26.27643
327.1278, 26.51403
327.6099, 26.80091
328.0920, 26.91413
328.5742, 26.77466
329.0563, 26.62591
329.5384, 26.47651
330.0205, 26.36942
330.5026, 26.38360
330.9847, 26.53995
331.4669, 26.69580
331.9490, 26.61963
332.4311, 26.24128
332.9132, 25.94000
333.3953, 25.82163
333.8774, 25.75964
334.3596, 25.67852
334.8417, 25.58047
335.3238, 25.53377
335.8059, 25.66923
336.2880, 25.99281
336.7701, 26.09545
337.2523, 25.73716
337.7344, 25.41114
338.2165, 25.35457
338.6986, 25.50307
339.1807, 25.69350
339.6628, 25.84932
340.1450, 25.96503
340.6271, 26.01161
341.1092, 25.94821
341.5913, 25.89333
342.0735, 25.88476
342.5556, 25.91156
343.0377, 25.97489
343.5198, 26.08915
344.0019, 26.19768
344.4840, 26.19430
344.9662, 26.05083
345.4483, 25.91986
345.9304, 25.85183
346.4125, 25.81135
346.8946, 25.78387
347.3767, 25.76632
347.8589, 25.74372
348.3410, 25.69005
348.8231, 25.60666
349.3052, 25.56072
349.7873, 25.59489
350.2694, 25.63083
350.7516, 25.57084
351.2337, 25.45014
351.7158, 25.41825
352.1979, 25.64417
352.6800, 26.03361
353.1621, 26.26193
353.6443, 26.27128
354.1264, 26.23835
354.6085, 26.25614
355.0906, 26.30391
355.5727, 26.35336
356.0548, 26.40318
356.5370, 26.44137
357.0191, 26.44067
357.5012, 26.39605
357.9833, 26.37090
358.4654, 26.41337
358.9475, 26.47631
359.4297, 26.50606
359.9118, 26.49692
360.3939, 26.46068
360.8760, 26.37689
361.3581, 26.26299
361.8402, 26.21364
362.3224, 26.27444
362.8045, 26.36974
363.2866, 26.41061
363.7687, 26.40393
364.2508, 26.42337
364.7329, 26.51986
365.2151, 26.65396
365.6972, 26.76059
366.1793, 26.83285
366.6614, 26.88938
367.1435, 26.94618
367.6256, 26.99778
368.1078, 27.02762
368.5899, 27.06330
369.0720, 27.05186
369.5541, 26.88676
370.0362, 26.60146
370.5183, 26.43334
371.0005, 26.53142
371.4826, 26.78320
371.9647, 26.92976
372.4468, 26.94542
372.9289, 26.93610
373.4110, 26.92728
373.8932, 26.92358
374.3753, 26.95314
374.8574, 27.03318
375.3395, 27.08313
375.8216, 26.96936
376.3037, 26.66383
376.7859, 26.45332
377.2680, 26.34879
377.7501, 26.36084
378.2322, 26.53856
378.7143, 26.86571
379.1964, 27.23549
379.6786, 27.60260
380.1607, 27.94593
380.6428, 28.08011
381.1249, 27.84653
381.6070, 27.61170
382.0891, 27.49839
382.5713, 27.47529
383.0534, 27.49181
383.5355, 27.53109
384.0176, 27.56254
384.4997, 27.51492
384.9818, 27.26559
385.4640, 27.14190
385.9461, 27.22403
386.4282, 27.38953
386.9103, 27.55927
387.3924, 27.70871
387.8745, 27.82345
388.3567, 27.88492
388.8388, 27.88873
389.3209, 27.86795
389.8030, 27.72540
390.2851, 27.65994
390.7672, 27.78123
391.2494, 28.03573
391.7315, 28.31688
392.2136, 28.56409
392.6957, 28.78228
393.1778, 28.99453
393.6599, 29.33858
394.1421, 29.46150
394.6242, 29.17379
395.1063, 28.75855
395.5884, 28.44669
396.0706, 28.30358
396.5527, 28.28283
397.0348, 28.35361
397.5169, 28.56431
397.9990, 28.67079
398.4811, 28.56805
398.9633, 28.45262
399.4454, 28.42772
399.9275, 28.45706
400.4096, 28.43806
400.8917, 28.30375
401.3738, 28.06510
401.8560, 27.75290
402.3381, 27.29874
402.8202, 26.90429
403.3023, 26.59555
403.7844, 26.38309
404.2665, 26.30566
404.7487, 26.38202
405.2308, 26.50515
405.7129, 26.56094
406.1950, 26.54998
406.6771, 26.46151
407.1592, 26.19069
407.6414, 25.95010
408.1235, 25.97496
408.6056, 26.20307
409.0877, 26.29066
409.5698, 25.90439
410.0519, 25.25833
410.5341, 24.86624
411.0162, 24.78356
411.4983, 24.79395
411.9804, 24.84330
412.4625, 24.88226
412.9446, 24.80631
413.4268, 24.51446
413.9089, 24.24740
414.3910, 24.24468
414.8731, 24.45176
415.3552, 24.60580
415.8373, 24.61915
416.3195, 24.55105
416.8016, 24.48975
417.2837, 24.44175
417.7658, 24.34293
418.2479, 24.11526
418.7300, 23.86032
419.2122, 23.69432
419.6943, 23.62860
420.1764, 23.60570
420.6585, 23.57049
421.1406, 23.53676
421.6227, 23.62104
422.1049, 24.05326
422.5870, 24.34311
423.0691, 24.17969
423.5512, 23.75989
424.0333, 23.42887
424.5154, 23.32398
424.9976, 23.38384
425.4797, 23.50690
425.9618, 23.78132
426.4439, 23.93411
426.9260, 23.92723
427.4081, 23.83470
427.8903, 23.64929
428.3724, 23.41138
428.8545, 23.24182
429.3366, 23.24998
429.8187, 23.42612
430.3008, 23.54713
430.7830, 23.56793
431.2651, 23.58007
431.7472, 23.60751
432.2293, 23.62989
432.7114, 23.60186
433.1935, 23.50957
433.6757, 23.42058
434.1578, 23.47106
434.6399, 23.72819
435.1220, 23.88495
435.6041, 23.81319
436.0862, 23.72294
436.5684, 23.74381
437.0505, 23.84103
437.5326, 23.87815
438.0147, 23.74525
438.4968, 23.48540
438.9789, 23.23020
439.4611, 22.94023
439.9432, 22.75705
440.4253, 22.83490
440.9074, 23.00542
441.3895, 23.08643
441.8716, 23.02667
442.3538, 22.95699
442.8359, 23.02533
443.3180, 23.20076
443.8001, 23.28119
444.2822, 23.18814
444.7643, 23.06610
445.2465, 23.09139
445.7286, 23.22442
446.2107, 23.27718
446.6928, 23.12264
447.1749, 22.91577
447.6570, 22.80317
448.1392, 22.78483
448.6213, 22.83147
449.1034, 22.95930
449.5855, 23.11423
450.0677, 23.13481
450.5498, 22.96502
451.0319, 22.80781
451.5140, 22.75359
451.9961, 22.72157
452.4782, 22.56686
452.9604, 22.27660
453.4425, 22.04611
453.9246, 22.10418
454.4067, 22.49749
454.8888, 22.67906
455.3709, 22.48557
455.8531, 22.29728
456.3352, 22.24340
456.8173, 22.29031
457.2994, 22.38564
457.7815, 22.50590
458.2636, 22.61411
458.7458, 22.62147
459.2279, 22.44587
459.7100, 22.34162
460.1921, 22.34798
460.6742, 22.39067
461.1563, 22.41543
461.6385, 22.43293
462.1206, 22.50833
462.6027, 22.73621
463.0848, 23.05476
463.5669, 23.11711
464.0490, 22.79070
464.5312, 22.47373
465.0133, 22.32043
465.4954, 22.23317
465.9775, 22.11491
466.4596, 21.94127
466.9417, 21.75867
467.4239, 21.56827
467.9060, 21.38898
468.3881, 21.36495
468.8702, 21.57595
469.3523, 21.83078
469.8344, 22.01830
470.3166, 22.12992
470.7987, 22.10592
471.2808, 21.75836
471.7629, 21.40446
472.2450, 21.40606
472.7271, 21.68678
473.2093, 21.83410
473.6914, 21.63929
474.1735, 21.28901
474.6556, 21.16220
475.1377, 21.33474
475.6198, 21.43443
476.1020, 21.32134
476.5841, 21.17027
477.0662, 21.14764
477.5483, 21.25348
478.0304, 21.37824
478.5125, 21.44253
478.9947, 21.44973
479.4768, 21.42821
479.9589, 21.29132
480.4410, 21.23216
480.9231, 21.35678
481.4052, 21.52874
481.8874, 21.60190
482.3695, 21.54445
482.8516, 21.43445
483.3337, 21.36859
483.8158, 21.35626
484.2979, 21.30818
484.7801, 21.20873
485.2622, 21.08818
485.7443, 20.85926
486.2264, 20.63999
486.7085, 20.65545
487.1906, 21.04822
487.6728, 21.53325
488.1549, 21.66780
488.6370, 21.42801
489.1191, 21.21849
489.6012, 21.12890
490.0833, 21.09762
490.5655, 21.07483
491.0476, 21.05899
491.5297, 21.03946
492.0118, 21.00478
492.4939, 20.96823
492.9760, 20.94642
493.4582, 20.93946
493.9403, 20.94803
494.4224, 20.98982
494.9045, 21.03164
495.3866, 20.98140
495.8687, 20.81113
496.3509, 20.63893
496.8330, 20.42794
497.3151, 20.26439
497.7972, 20.28896
498.2793, 20.49048
498.7614, 20.68877
499.2436, 20.73035
499.7257, 20.62207
500.2078, 20.48997
500.6899, 20.20196
501.1720, 20.05121
501.6541, 20.25272
502.1363, 20.53200
502.6184, 20.52046
503.1005, 20.15439
503.5826, 19.77914
504.0647, 19.90441
504.5468, 20.61416
505.0290, 20.96875
505.5111, 20.70043
505.9932, 20.39634
506.4753, 20.28784
506.9575, 20.29757
507.4396, 20.28978
507.9217, 20.20477
508.4038, 20.12133
508.8859, 20.18198
509.3680, 20.37276
509.8502, 20.42846
510.3323, 20.24297
510.8144, 19.98378
511.2965, 19.79137
511.7786, 19.66174
512.2607, 19.59037
512.7429, 19.57716
513.2250, 19.62091
513.7071, 19.74880
514.1892, 19.94061
514.6713, 20.12675
515.1534, 20.28704
515.6356, 20.39567
516.1177, 20.38848
516.5998, 20.15716
517.0819, 20.05770
517.5640, 20.29811
518.0461, 20.51046
518.5283, 20.37499
519.0104, 19.96963
519.4925, 19.60697
519.9746, 19.49677
520.4567, 19.57218
520.9388, 19.58315
521.4210, 19.48014
521.9031, 19.40458
522.3852, 19.35399
522.8673, 19.34632
523.3494, 19.42619
523.8315, 19.57480
524.3137, 19.69755
524.7958, 19.70084
525.2779, 19.62309
525.7600, 19.62152
526.2421, 19.73764
526.7242, 19.76847
527.2064, 19.48975
527.6885, 19.15143
528.1706, 19.10939
528.6527, 19.44875
529.1348, 19.74476
529.6169, 19.72471
530.0991, 19.54255
530.5812, 19.45083
531.0633, 19.47992
531.5454, 19.53024
532.0275, 19.51972
532.5096, 19.46753
532.9918, 19.50882
533.4739, 19.79300
533.9560, 19.96468
534.4381, 19.83681
534.9202, 19.62131
535.4023, 19.57892
535.8845, 19.73907
536.3666, 19.90245
536.8487, 19.84553
537.3308, 19.56924
537.8129, 19.48090
538.2950, 19.80857
538.7772, 20.02659
539.2593, 19.95264
539.7414, 19.74776
540.2235, 19.56395
540.7056, 19.44391
541.1877, 19.38232
541.6699, 19.36141
542.1520, 19.38850
542.6341, 19.54994
543.1162, 19.92916
543.5983, 20.25174
544.0804, 20.25803
544.5626, 20.09945
545.0447, 20.05824
545.5268, 20.21084
546.0089, 20.40888
546.4910, 20.62830
546.9731, 20.82035
547.4553, 20.84974
547.9374, 20.68664
548.4195, 20.52336
548.9016, 20.56238
549.3837, 20.81074
549.8658, 20.92773
550.3480, 20.78691
550.8301, 20.69039
551.3122, 20.74134
551.7943, 20.87344
552.2764, 21.04833
552.7585, 21.23545
553.2407, 21.32972
553.7228, 21.15959
554.2049, 20.70181
554.6870, 20.40639
555.1691, 20.30986
555.6512, 20.33678
556.1334, 20.59112
556.6155, 20.88463
557.0976, 20.94290
557.5797, 20.66845
558.0618, 20.34847
558.5439, 20.25539
559.0261, 20.33394
559.5082, 20.39137
559.9903, 20.41181
560.4724, 20.36233
560.9545, 20.17381
561.4366, 19.88693
561.9188, 19.70887
562.4009, 19.76673
562.8830, 19.77703
563.3651, 19.51189
563.8472, 19.18621
564.3293, 19.13645
564.8115, 19.41514
565.2936, 19.78409
565.7757, 20.02236
566.2578, 20.13073
566.7399, 20.09721
567.2220, 19.76040
567.7042, 19.47098
568.1863, 19.26165
568.6684, 19.14178
569.1505, 19.14472
569.6326, 19.26687
570.1147, 19.42409
570.5969, 19.57512
571.0790, 19.70327
571.5611, 19.66656
572.0432, 19.38964
572.5253, 19.16220
573.0074, 19.18901
573.4896, 19.33179
573.9717, 19.37400
574.4538, 19.26558
574.9359, 19.17993
575.4180, 19.21335
575.9001, 19.31180
576.3823, 19.40914
576.8644, 19.49574
577.3465, 19.57256
577.8286, 19.64212
578.3107, 19.70132
578.7928, 19.73439
579.2750, 19.71868
579.7571, 19.70562
580.2392, 19.69133
580.7213, 19.68517
581.2034, 19.68337
581.6855, 19.69410
582.1677, 19.75632
582.6498, 19.93255
583.1319, 20.14770
583.6140, 20.07790
584.0961, 19.57852
584.5782, 19.29406
585.0604, 19.57100
585.5425, 20.00423
586.0246, 20.30253
586.5067, 20.45199
586.9889, 20.44956
587.4710, 20.12294
587.9531, 19.75651
588.4352, 19.72508
588.9174, 19.98293
589.3995, 20.24262
589.8816, 20.39530
590.3637, 20.44075
590.8458, 20.35815
591.3279, 20.04775
591.8101, 19.90225
592.2922, 20.05602
592.7743, 20.23866
593.2564, 20.27438
593.7385, 20.23694
594.2206, 20.31845
594.7028, 20.60800
595.1849, 20.93132
595.6670, 20.96111
596.1491, 20.64667
596.6312, 20.41651
597.1133, 20.32476
597.5955, 20.28769
598.0776, 20.21556
598.5597, 20.16672
599.0418, 20.28238
599.5239, 20.69255
600.0060, 21.06256
600.4882, 21.10354
600.9703, 20.90481
601.4524, 20.65172
601.9345, 20.37523
602.4166, 20.15104
602.8987, 20.05594
603.3809, 20.08087
603.8630, 20.09989
604.3451, 20.09130
604.8272, 20.10513
605.3093, 20.22012
605.7914, 20.31869
606.2736, 20.23508
606.7557, 19.98512
607.2378, 19.77804
607.7199, 19.81030
608.2020, 20.02518
608.6841, 20.14400
609.1663, 20.15180
609.6484, 20.10543
610.1305, 19.95852
610.6126, 19.80958
611.0947, 19.77620
611.5768, 19.85250
612.0590, 19.85718
612.5411, 19.61787
613.0232, 19.33302
613.5053, 19.24009
613.9874, 19.31222
614.4695, 19.39811
614.9517, 19.43971
615.4338, 19.44772
615.9159, 19.42938
616.3980, 19.34751
616.8801, 19.37451
617.3622, 19.65942
617.8444, 19.88273
618.3265, 19.85600
618.8086, 19.69471
619.2907, 19.59183
619.7728, 19.61679
620.2549, 19.67831
620.7371, 19.64706
621.2192, 19.52833
621.7013, 19.47714
622.1834, 19.55238
622.6655, 19.57772
623.1476, 19.40020
623.6298, 19.12224
624.1119, 18.89878
624.5940, 18.73027
625.0761, 18.65478
625.5582, 18.72904
626.0403, 18.88591
626.5225, 19.08199
627.0046, 19.29153
627.4867, 19.41400
627.9688, 19.37449
628.4509, 19.22898
628.9330, 19.15723
629.4152, 19.16513
629.8973, 19.24228
630.3794, 19.50820
630.8615, 19.72394
631.3436, 19.72779
631.8257, 19.57140
632.3079, 19.39869
632.7900, 19.26802
633.2721, 19.17883
633.7542, 19.13353
634.2363, 19.13057
634.7184, 19.15663
635.2006, 19.20791
635.6827, 19.29493
636.1648, 19.46373
636.6469, 19.68844
637.1290, 19.78570
637.6111, 19.60545
638.0933, 19.47780
638.5754, 19.61630
639.0575, 19.80423
639.5396, 19.74524
640.0217, 19.43408
640.5038, 19.13595
640.9860, 19.07658
641.4681, 19.20049
641.9502, 19.20786
642.4323, 18.98744
642.9144, 18.92967
643.3965, 19.27432
643.8787, 19.68822
644.3608, 20.00436
644.8429, 20.20183
645.3250, 20.24511
645.8071, 19.98349
646.2892, 19.68503
646.7714, 19.64612
647.2535, 19.80059
647.7356, 19.95017
648.2177, 20.04029
648.6998, 20.06685
649.1819, 20.00545
649.6641, 19.84670
650.1462, 19.79769
650.6283, 19.97373
651.1104, 20.11024
651.5925, 20.11136
652.0746, 20.07424
652.5568, 20.07736
653.0389, 20.14271
653.5210, 20.28492
654.0031, 20.58941
654.4852, 20.94643
654.9673, 21.00066
655.4495, 20.72157
655.9316, 20.48199
656.4137, 20.40906
656.8958, 20.42748
657.3779, 20.44360
657.8600, 20.45623
658.3422, 20.51495
658.8243, 20.65300
659.3064, 20.81124
659.7885, 21.00399
660.2706, 21.18011
660.7527, 21.23556
661.2349, 21.15109
661.7170, 21.04883
662.1991, 21.07325
662.6812, 21.21792
663.1633, 21.32720
663.6454, 21.38760
664.1276, 21.44067
664.6097, 21.45993
665.0918, 21.50366
665.5739, 21.68517
666.0560, 21.99715
666.5381, 22.15955
667.0203, 21.86074
667.5024, 21.48887
667.9845, 21.50005
668.4666, 21.80570
668.9487, 22.06667
669.4308, 22.15799
669.9130, 22.18155
670.3951, 22.27717
670.8772, 22.46041
671.3593, 22.58938
671.8414, 22.52611
672.3235, 22.57406
672.8057, 22.95186
673.2878, 23.38306
673.7699, 23.54591
674.2520, 23.40577
674.7341, 23.23538
675.2162, 23.22214
675.6984, 23.32577
676.1805, 23.44542
676.6626, 23.58534
677.1447, 23.88622
677.6268, 24.45679
678.1089, 25.07690
678.5911, 25.41305
679.0732, 25.38619
679.5553, 25.53736
680.0374, 26.08808
680.5195, 26.55843
681.0016, 26.68388
681.4838, 26.66590
681.9659, 26.75699
682.4480, 27.01484
682.9301, 27.33340
683.4122, 27.61777
683.8943, 27.88096
684.3765, 28.18519
684.8586, 28.53273
685.3407, 28.89822
685.8228, 29.25978
686.3049, 29.64947
686.7870, 30.11346
687.2692, 30.64714
687.7513, 31.21055
688.2334, 31.87677
688.7155, 32.48750
689.1976, 32.94392
689.6797, 33.29106
690.1619, 33.57204
690.6440, 33.81396
691.1261, 34.09787
691.6082, 34.52623
692.0903, 35.06673
692.5724, 35.49479
693.0546, 35.80965
693.5367, 36.00348
694.0188, 35.93673
694.5009, 35.86619
694.9830, 36.05639
695.4651, 36.47498
695.9473, 36.84459
696.4294, 37.08284
696.9116, 37.24931
697.3937, 37.37350
697.8758, 37.45852
698.3579, 37.49078
698.8400, 37.47461
699.3221, 37.48124
699.8043, 37.60175
700.2864, 37.79686
700.7685, 37.75628
701.2506, 37.38344
701.7327, 36.97874
702.2148, 36.52085
702.6970, 36.11553
703.1791, 35.92054
703.6612, 35.85872
704.1433, 35.61777
704.6254, 35.00519
705.1075, 34.28223
705.5897, 33.62084
706.0718, 33.01684
706.5539, 32.51453
707.0360, 32.10592
707.5181, 31.59727
708.0002, 30.78337
708.4824, 29.78024
708.9645, 29.19891
709.4466, 29.40829
709.9287, 29.32888
710.4108, 28.62608
710.8929, 27.84740
711.3751, 27.27996
711.8572, 26.88187
712.3393, 26.50867
712.8214, 26.10280
713.3035, 25.71697
713.7856, 25.43286
714.2678, 25.19445
714.7499, 24.86776
715.2320, 24.44044
715.7141, 23.98198
716.1962, 23.52894
716.6783, 23.10129
717.1605, 22.76256
717.6426, 22.54187
718.1247, 22.35830
718.6068, 22.25094
719.0889, 22.13832
719.5710, 21.93007
720.0532, 21.70675
720.5353, 21.64672
721.0174, 21.82912
721.4995, 21.94898
721.9816, 21.66268
722.4637, 21.17482
722.9459, 20.89583
723.4280, 20.84139
723.9101, 20.83021
724.3922, 20.77784
724.8743, 20.70018
725.3564, 20.63148
725.8386, 20.59074
726.3207, 20.48849
726.8028, 20.24687
727.2849, 20.03431
727.7670, 19.88581
728.2491, 19.80216
728.7313, 19.79554
729.2134, 19.86348
729.6955, 19.94662
730.1776, 20.02808
730.6597, 20.08582
731.1418, 20.05969
731.6240, 19.96794
732.1061, 19.92842
732.5882, 19.98950
733.0703, 20.05740
733.5524, 20.00485
734.0345, 19.82261
734.5167, 19.74501
734.9988, 19.89767
735.4809, 19.99252
735.9630, 19.96983
736.4451, 19.88600
736.9272, 19.74871
737.4094, 19.58660
737.8915, 19.49350
738.3736, 19.55793
738.8557, 19.65904
739.3378, 19.67302
739.8199, 19.61267
740.3021, 19.51218
740.7842, 19.37867
741.2663, 19.20994
741.7484, 18.97889
742.2305, 18.73113
742.7126, 18.70293
743.1948, 19.08114
743.6769, 19.33899
744.1590, 19.36667
744.6411, 19.35456
745.1232, 19.39788
745.6053, 19.47540
746.0875, 19.54081
746.5696, 19.58974
747.0517, 19.57876
747.5338, 19.42794
748.0159, 19.21464
748.4980, 19.07441
748.9802, 19.00964
749.4623, 18.94051
749.9444, 18.81843
750.4265, 18.71429
750.9086, 18.78419
751.3907, 19.10449
751.8729, 19.23102
752.3550, 18.98484
752.8371, 18.78065
753.3192, 18.76860
753.8013, 18.85109
754.2834, 18.93235
754.7656, 18.99973
755.2477, 19.05799
755.7298, 19.12346
756.2119, 19.16927
756.6940, 19.14389
757.1761, 19.08166
757.6583, 19.08944
758.1404, 19.18889
758.6225, 19.25079
759.1046, 19.12951
759.5867, 18.86531
760.0688, 18.73835
760.5510, 18.80098
761.0331, 18.86530
761.5152, 18.90497
761.9973, 18.92797
762.4794, 18.93700
762.9615, 18.93470
763.4437, 18.93328
763.9258, 18.96828
764.4079, 18.94561
764.8900, 18.67926
765.3721, 18.42113
765.8542, 18.57320
766.3364, 19.03736
766.8185, 19.32733
767.3006, 19.17193
767.7827, 18.79719
768.2648, 18.57572
768.7469, 18.51085
769.2291, 18.56007
769.7112, 18.81128
770.1933, 18.92952
770.6754, 18.62510
771.1575, 18.17639
771.6396, 18.09528
772.1218, 18.44622
772.6039, 18.66347
773.0860, 18.52401
773.5681, 18.37278
774.0502, 18.40551
774.5323, 18.53439
775.0145, 18.63529
775.4966, 18.67765
775.9787, 18.68888
776.4608, 18.67862
776.9429, 18.66567
777.4250, 18.71848
777.9072, 18.83381
778.3893, 18.86288
778.8714, 18.74958
779.3535, 18.62561
779.8356, 18.60804
780.3177, 18.68090
780.7999, 18.73486
781.2820, 18.73228
781.7641, 18.76583
782.2462, 18.90644
782.7283, 19.02207
783.2104, 19.01056
783.6926, 18.91345
784.1747, 18.81985
784.6568, 18.75790
785.1389, 18.72468
785.6210, 18.73848
786.1031, 18.77073
786.5853, 18.76562
787.0674, 18.72276
787.5495, 18.64918
788.0316, 18.54024
788.5137, 18.46913
788.9958, 18.56260
789.4780, 18.84228
789.9601, 18.97413
790.4422, 18.88258
790.9243, 18.76298
791.4064, 18.59781
791.8885, 18.47308
792.3707, 18.48665
792.8528, 18.61557
793.3349, 18.71596
793.8170, 18.75032
794.2991, 18.73337
794.7813, 18.61023
795.2634, 18.47477
795.7455, 18.48348
796.2276, 18.62563
796.7097, 18.75906
797.1918, 18.79765
797.6740, 18.78088
798.1561, 18.78316
798.6382, 18.80530
799.1203, 18.82323
799.6024, 18.83786
800.0845, 18.83942
800.5667, 18.80751
801.0488, 18.77020
801.5309, 18.78536
802.0130, 18.86156
802.4951, 18.92431
802.9772, 19.00325
803.4594, 19.02599
803.9415, 18.94965
804.4236, 18.80707
804.9057, 18.56525
805.3878, 18.27212
805.8699, 18.15855
806.3521, 18.45884
806.8342, 18.90847
807.3163, 19.12825
807.7985, 19.14544
808.2806, 19.02298
808.7627, 18.76893
809.2448, 18.60021
809.7269, 18.69634
810.2090, 18.94990
810.6912, 19.02300
811.1733, 18.82171
811.6554, 18.66369
812.1375, 18.52099
812.6196, 18.45789
813.1017, 18.52691
813.5839, 18.67461
814.0660, 18.87458
814.5481, 19.12875
815.0302, 19.23685
815.5123, 18.95776
815.9944, 18.64738
816.4766, 18.57167
816.9587, 18.67672
817.4408, 18.92186
817.9229, 19.25499
818.4050, 19.46292
818.8871, 19.33506
819.3693, 19.01817
819.8514, 18.93277
820.3335, 19.09213
820.8156, 19.15898
821.2977, 19.05626
821.7798, 18.92640
822.2620, 18.81959
822.7441, 18.77581
823.2262, 18.94049
823.7083, 19.53871
824.1904, 19.82116
824.6725, 19.51502
825.1547, 19.17001
825.6368, 18.98185
826.1189, 18.93126
826.6010, 19.00670
827.0831, 19.19073
827.5652, 19.36375
828.0474, 19.43474
828.5295, 19.46471
829.0116, 19.53352
829.4937, 19.61965
829.9758, 19.65760
830.4579, 19.63758
830.9401, 19.61602
831.4222, 19.63313
831.9043, 19.68972
832.3864, 19.80683
832.8685, 20.01217
833.3506, 20.13653
833.8328, 20.16687
834.3149, 20.11045
834.7970, 19.85902
835.2791, 19.57647
835.7612, 19.60389
836.2433, 20.03000
836.7255, 20.26335
837.2076, 20.09514
837.6897, 19.84265
838.1718, 19.55792
838.6539, 19.33395
839.1360, 19.31279
839.6182, 19.47874
840.1003, 19.64035
840.5824, 19.67333
841.0645, 19.64465
841.5466, 19.66299
842.0287, 19.69564
842.5109, 19.58180
842.9930, 19.31417
843.4751, 19.19602
843.9572, 19.43953
844.4393, 19.83788
844.9214, 19.92582
845.4036, 19.61765
845.8857, 19.44064
846.3678, 19.46263
846.8499, 19.49413
847.3320, 19.44442
847.8141, 19.38763
848.2963, 19.42354
848.7784, 19.54557
849.2605, 19.60714
849.7426, 19.49310
850.2247, 19.42292
850.7068, 19.58047
851.1890, 19.75295
851.6711, 19.66162
852.1532, 19.37952
852.6353, 19.22342
853.1174, 19.36181
853.5995, 19.55888
854.0817, 19.51073
854.5638, 19.31896
855.0459, 19.27607
855.5280, 19.38005
856.0101, 19.40986
856.4922, 19.26490
856.9744, 19.13320
857.4565, 19.29679
857.9386, 19.73471
858.4207, 19.80056
858.9028, 19.24658
859.3849, 18.92700
859.8671, 19.19288
860.3492, 19.53490
860.8313, 19.57259
861.3134, 19.39403
861.7955, 19.23166
862.2776, 19.10707
862.7598, 18.99916
863.2419, 18.82039
863.7240, 18.73780
864.2061, 19.02255
864.6882, 19.42376
865.1703, 19.47677
865.6525, 19.09115
866.1346, 18.67317
866.6167, 18.52744
867.0988, 18.54985
867.5809, 18.62584
868.0630, 18.73092
868.5452, 18.77634
869.0273, 18.74592
869.5094, 18.67498
869.9915, 18.57932
870.4736, 18.49238
870.9557, 18.52154
871.4379, 18.70279
871.9200, 18.78754
872.4021, 18.72365
872.8842, 18.65942
873.3663, 18.65193
873.8484, 18.68459
874.3306, 18.77709
874.8127, 18.94032
875.2948, 18.92601
875.7769, 18.54612
876.2590, 18.21006
876.7411, 17.99350
877.2233, 17.90354
877.7054, 17.98690
878.1875, 18.19774
878.6696, 18.45232
879.1517, 18.75498
879.6339, 18.91603
880.1160, 18.66364
880.5981, 18.25405
881.0802, 18.01497
881.5623, 17.94779
882.0444, 18.01095
882.5266, 18.17579
883.0087, 18.27201
883.4908, 18.08694
883.9729, 17.71577
884.4550, 17.54831
884.9371, 17.59532
885.4193, 17.66799
885.9014, 17.73194
886.3835, 17.83231
886.8656, 18.05466
887.3477, 18.29221
887.8298, 18.23246
888.3120, 17.70525
888.7941, 17.33735
889.2762, 17.11061
889.7583, 17.06414
890.2404, 17.35959
890.7225, 17.73978
891.2047, 17.94822
891.6868, 17.97791
892.1689, 17.97049
892.6510, 17.98457
893.1331, 17.95408
893.6152, 17.78224
894.0974, 17.59476
894.5795, 17.58203
895.0616, 17.67323
895.5437, 17.59954
896.0258, 17.24996
896.5079, 16.92122
896.9901, 17.01553
897.4722, 17.33624
897.9543, 17.40190
898.4364, 17.25195
898.9185, 17.15915
899.4006, 17.19964
899.8828, 17.28260
900.3649, 17.34271
900.8470, 17.35860
901.3291, 17.22264
901.8112, 16.87822
902.2933, 16.67187
902.7755, 16.67180
903.2576, 16.71881
903.7397, 16.76301
904.2218, 16.78589
904.7039, 16.73140
905.1860, 16.57378
905.6682, 16.54302
906.1503, 16.73493
906.6324, 16.93260
907.1145, 17.15767
907.5966, 17.30698
908.0787, 17.20291
908.5609, 16.95875
909.0430, 16.92087
909.5251, 17.25937
910.0072, 17.55702
910.4893, 17.54184
910.9714, 17.39484
911.4536, 17.18884
911.9357, 17.02559
912.4178, 17.13732
912.8999, 17.54347
913.3820, 17.95284
913.8641, 18.15981
914.3463, 18.17183
914.8284, 17.87523
915.3105, 17.37683
915.7926, 17.20213
916.2748, 17.41462
916.7569, 17.68069
917.2390, 17.82506
917.7211, 17.88946
918.2032, 17.93550
918.6854, 17.96110
919.1675, 18.03816
919.6496, 18.21932
920.1317, 18.27902
920.6138, 18.09286
921.0959, 17.86727
921.5781, 17.80029
922.0602, 17.84775
922.5423, 17.78449
923.0244, 17.44318
923.5065, 17.30633
923.9886, 17.53760
924.4708, 17.81230
924.9529, 18.06769
925.4350, 18.23928
925.9171, 18.20107
926.3992, 17.96625
926.8813, 17.80832
927.3635, 17.98687
927.8456, 18.08864
928.3277, 17.72510
928.8098, 17.26888
929.2919, 17.18795
929.7740, 17.39276
930.2562, 17.50381
930.7383, 17.36688
931.2204, 17.17444
931.7025, 17.10914
932.1846, 17.12046
932.6667, 17.12122
933.1489, 17.11526
933.6310, 17.11002
934.1131, 17.11148
934.5952, 17.18438
935.0773, 17.39682
935.5594, 17.63304
936.0416, 17.58683
936.5237, 17.25538
937.0058, 16.99511
937.4879, 16.82153
937.9700, 16.73154
938.4521, 16.75033
938.9343, 16.78832
939.4164, 16.72764
939.8985, 16.57815
940.3806, 16.51598
940.8627, 16.58850
941.3448, 16.65829
941.8270, 16.78839
942.3091, 16.68236
942.7912, 16.91307
943.2733, 17.03548
943.7554, 17.05543
944.2375, 16.66599
944.7197, 16.80518
945.2018, 16.73252
945.6839, 16.65118
946.1660, 16.86478
946.6481, 16.53488
947.1302, 16.74381
947.6124, 16.73764
948.0945, 16.82992
948.5766, 16.57963
949.0587, 16.48408
949.5408, 16.51649
950.0229, 16.57735
950.5051, 16.58774
950.9872, 16.54385
951.4693, 16.41000
951.9514, 16.20861
952.4335, 16.10089
952.9156, 16.23823
953.3978, 16.40502
953.8799, 16.18613
954.3620, 15.77096
954.8441, 15.73934
955.3262, 16.07016
955.8083, 16.27753
956.2905, 16.16848
956.7726, 15.98603
957.2547, 16.01343
957.7368, 16.19267
958.2189, 16.27125
958.7010, 16.24611
959.1832, 16.16104
959.6653, 15.99772
960.1474, 15.90972
960.6295, 16.01517
961.1116, 16.18931
961.5938, 16.17976
962.0759, 15.94648
962.5580, 15.93299
963.0401, 16.28092
963.5222, 16.55155
964.0043, 16.64248
964.4865, 16.63885
964.9686, 16.55487
965.4507, 16.43019
965.9328, 16.40811
966.4149, 16.37199
966.8970, 16.65925
967.3792, 16.83824
967.8613, 16.91474
968.3434, 16.58185
968.8255, 16.77761
969.3076, 16.76151
969.7897, 16.82873
970.2719, 16.78344
970.7540, 16.72069
971.2361, 16.72082
971.7182, 16.92476
972.2003, 17.10067
972.6824, 16.99053
973.1646, 16.76011
973.6467, 16.71041
974.1288, 16.87767
974.6109, 17.02518
975.0930, 17.00234
975.5751, 16.92542
976.0573, 16.86849
976.5394, 16.84631
977.0215, 16.89719
977.5036, 17.00312
977.9857, 17.11845
978.4678, 17.22241
978.9500, 17.27295
979.4321, 17.19470
979.9142, 17.06907
980.3963, 17.08517
980.8784, 17.19629
981.3605, 17.20908
981.8427, 17.10970
982.3248, 17.07225
982.8069, 17.19358
983.2890, 17.36375
983.7711, 17.41076
984.2532, 17.35901
984.7354, 17.42190
985.2175, 17.60624
985.6996, 17.64743
986.1817, 17.47354
986.6638, 17.24053
987.1459, 17.04156
987.6281, 16.89532
988.1102, 16.86218
988.5923, 16.96842
989.0744, 16.97141
989.5565, 16.80124
990.0386, 16.74618
990.5208, 16.94740
991.0029, 17.18252
991.4850, 17.27170
991.9671, 17.23275
992.4492, 17.12711
992.9313, 16.90129
993.4135, 16.73998
993.8956, 16.74745
994.3777, 16.67967
994.8598, 16.30752
995.3419, 15.94396
995.8240, 15.94617
996.3062, 16.24249
996.7883, 16.39046
997.2704, 16.26029
997.7525, 16.15088
998.2346, 16.09584
998.7167, 16.07740
999.1989, 16.11820
999.6810, 16.17070
1000.163, 16.15997
1000.645, 16.09347
1001.127, 16.08252
1001.609, 16.23365
1002.092, 16.32686
1002.574, 16.15031
1003.056, 16.00065
1003.538, 16.18422
1004.020, 16.52940
1004.502, 16.75494
1004.984, 16.79932
1005.466, 16.71965
1005.948, 16.44175
1006.431, 16.19831
1006.913, 16.23654
1007.395, 16.34701
1007.877, 16.23773
1008.359, 15.99496
1008.841, 15.90337
1009.323, 16.03566
1009.805, 16.16589
1010.288, 16.09587
1010.770, 15.96121
1011.252, 15.91641
1011.734, 15.93000
1012.216, 15.93914
1012.698, 15.94860
1013.180, 16.03417
1013.662, 16.21968
1014.144, 16.35088
1014.627, 16.22981
1015.109, 15.98323
1015.591, 15.88018
1016.073, 15.86933
1016.555, 15.75665
1017.037, 15.53797
1017.519, 15.38020
1018.001, 15.36768
1018.484, 15.45415
1018.966, 15.60734
1019.448, 15.79720
1019.930, 15.90720
1020.412, 15.94514
1020.894, 15.98164
1021.376, 16.02919
1021.858, 16.12446
1022.340, 16.30166
1022.823, 16.44420
1023.305, 16.33114
1023.787, 16.00121
1024.269, 15.83310
1024.751, 15.83039
1025.233, 15.94278
1025.715, 16.18579
1026.197, 16.35707
1026.680, 16.31930
1027.162, 16.15808
1027.644, 16.02122
1028.126, 15.90775
1028.608, 15.87815
1029.090, 15.95740
1029.572, 15.99219
1030.054, 15.92443
1030.536, 15.88408
1031.019, 15.96684
1031.501, 16.12650
1031.983, 16.26737
1032.465, 16.38568
1032.947, 16.52266
1033.429, 16.74144
1033.911, 16.79499
1034.393, 16.50783
1034.875, 16.26502
1035.358, 16.39076
1035.840, 16.72080
1036.322, 16.85849
1036.804, 16.75716
1037.286, 16.68873
1037.768, 16.66839
1038.250, 16.65443
1038.732, 16.65225
1039.215, 16.63563
1039.697, 16.55538
1040.179, 16.45558
1040.661, 16.45336
1041.143, 16.57592
1041.625, 16.69493
1042.107, 16.86489
1042.589, 16.95605
1043.072, 16.86219
1043.554, 16.75899
1044.036, 16.82493
1044.518, 16.96272
1045.000, 16.89326
1045.482, 16.49151
1045.964, 16.35617
1046.446, 16.83507
1046.928, 17.16937
1047.411, 17.01680
1047.893, 16.79347
1048.375, 16.83642
1048.857, 17.04114
1049.339, 17.13364
1049.821, 17.07055
1050.303, 16.98797
1050.785, 16.87011
1051.267, 16.78344
1051.750, 16.77332
1052.232, 16.78044
1052.714, 16.76289
1053.196, 16.72474
1053.678, 16.66173
1054.160, 16.55398
1054.642, 16.55865
1055.124, 16.77819
1055.607, 17.02957
1056.089, 17.38011
1056.571, 17.61328
1057.053, 17.42082
1057.535, 17.01323
1058.017, 16.88212
1058.499, 17.14646
1058.981, 17.32186
1059.464, 17.10916
1059.946, 16.61572
1060.428, 17.32526
1060.910, 17.76361
1061.392, 17.94532
1061.874, 17.10180
1062.356, 17.58216
1062.838, 17.53198
1063.320, 17.46002
1063.802, 18.12674
1064.285, 17.43252
1064.767, 18.08750
1065.249, 18.20385
1065.731, 17.75643
1066.213, 18.00939
1066.695, 18.07235
1067.177, 17.82019
1067.659, 17.71218
1068.142, 18.15937
1068.624, 18.49332
1069.106, 18.24706
1069.588, 17.90146
1070.070, 17.82764
1070.552, 17.96933
1071.034, 18.22785
1071.516, 18.56072
1071.999, 18.72530
1072.481, 18.43823
1072.963, 18.20157
1073.445, 18.27426
1073.927, 18.46599
1074.409, 18.69815
1074.891, 18.90044
1075.373, 18.95271
1075.855, 18.85615
1076.338, 18.80686
1076.820, 18.94515
1077.302, 19.04399
1077.784, 18.89882
1078.266, 18.76624
1078.748, 18.93004
1079.230, 19.19732
1079.712, 19.25858
1080.194, 19.09007
1080.677, 18.86786
1081.159, 18.57905
1081.641, 18.41963
1082.123, 18.61651
1082.605, 18.83846
1083.087, 18.82965
1083.569, 18.70490
1084.052, 18.63895
1084.534, 18.63414
1085.016, 18.57326
1085.498, 18.39636
1085.980, 18.22050
1086.462, 18.07053
1086.944, 17.96688
1087.426, 17.98031
1087.908, 18.00721
1088.391, 17.89404
1088.873, 17.67844
1089.355, 17.54263
1089.837, 17.55557
1090.319, 17.57452
1090.801, 17.51349
1091.283, 17.47687
1091.765, 17.61699
1092.247, 17.73562
1092.730, 17.54644
1093.212, 17.17422
1093.694, 16.99679
1094.176, 17.12265
1094.658, 17.26665
1095.140, 17.44021
1095.622, 17.46730
1096.104, 17.07934
1096.587, 16.68021
1097.069, 16.66502
1097.551, 16.89578
1098.033, 17.05124
1098.515, 17.07410
1098.997, 17.06426
1099.479, 17.03386
1099.961, 16.99798
1100.443, 16.91572
1100.926, 16.87609
1101.408, 16.51172
1101.890, 17.13402
1102.372, 17.48512
1102.854, 17.57959
1103.336, 16.64881
1103.818, 17.04192
1104.300, 16.90448
1104.782, 16.74528
1105.265, 17.32474
1105.747, 16.54308
1106.229, 17.11082
1106.711, 17.37115
1107.193, 17.39901
1107.675, 17.33504
1108.157, 17.11896
1108.639, 16.98041
1109.122, 17.01400
1109.604, 17.04787
1110.086, 17.01151
1110.568, 16.94748
1111.050, 16.87398
1111.532, 16.80799
1112.014, 16.82136
1112.496, 17.00118
1112.979, 17.02903
1113.461, 16.64499
1113.943, 16.44732
1114.425, 16.74121
1114.907, 17.10291
1115.389, 17.24108
1115.871, 17.23046
1116.353, 17.25383
1116.835, 17.34520
1117.318, 17.25747
1117.800, 16.77008
1118.282, 16.51000
1118.764, 16.59832
1119.246, 16.40748
1119.728, 17.06916
1120.210, 17.45964
1120.692, 17.59350
1121.174, 16.70209
1121.657, 17.13469
1122.139, 17.03663
1122.621, 16.91681
1123.103, 17.53565
1123.585, 16.79337
1124.067, 17.40049
1124.549, 17.46895
1125.031, 17.78395
1125.514, 17.09792
1125.996, 16.97798
1126.478, 17.07500
1126.960, 17.29162
1127.442, 17.71041
1127.924, 17.79364
1128.406, 17.27176
1128.888, 16.82790
1129.370, 17.05320
1129.853, 17.62529
1130.335, 17.75925
1130.817, 17.45700
1131.299, 17.42627
1131.781, 17.68800
1132.263, 17.71878
1132.745, 17.39685
1133.227, 17.13797
1133.709, 17.18642
1134.192, 17.38925
1134.674, 17.55833
1135.156, 17.67511
1135.638, 17.62211
1136.120, 17.42863
1136.602, 17.32100
1137.084, 17.32148
1137.566, 17.36147
1138.049, 17.41356
1138.531, 17.49936
1139.013, 17.66592
1139.495, 17.81333
1139.977, 17.63446
1140.459, 17.30743
1140.941, 17.44339
1141.423, 17.91818
1141.906, 18.10253
1142.388, 17.87597
1142.870, 17.61979
1143.352, 17.56867
1143.834, 17.60287
1144.316, 17.56220
1144.798, 17.52922
1145.280, 17.69357
1145.762, 17.93582
1146.245, 18.00377
1146.727, 17.90177
1147.209, 17.75361
1147.691, 17.61001
1148.173, 17.60531
1148.655, 18.00321
1149.137, 18.40218
1149.619, 18.41528
1150.101, 18.26297
1150.584, 18.16522
1151.066, 18.11993
1151.548, 18.05622
1152.030, 17.96843
1152.512, 17.94025
1152.994, 18.05536
1153.476, 18.13948
1153.958, 18.00959
1154.441, 17.92794
1154.923, 18.14353
1155.405, 18.45684
1155.887, 18.64389
1156.369, 18.69793
1156.851, 18.68298
1157.333, 18.58314
1157.815, 18.52655
1158.297, 18.55477
1158.780, 18.61123
1159.262, 18.72906
1159.744, 18.81847
1160.226, 18.77045
1160.708, 18.66826
1161.190, 18.67296
1161.672, 18.79334
1162.154, 18.91836
1162.636, 19.06929
1163.119, 19.18505
1163.601, 19.25696
1164.083, 19.30191
1164.565, 19.33406
1165.047, 19.32590
1165.529, 19.21556
1166.011, 19.05680
1166.493, 19.09486
1166.976, 19.40328
1167.458, 18.94954
1167.940, 19.60101
1168.422, 19.98129
1168.904, 20.10493
1169.386, 19.20333
1169.868, 19.62562
1170.350, 19.51735
1170.833, 19.38740
1171.315, 19.99603
1171.797, 19.24354
1172.279, 19.84046
1172.761, 19.89871
1173.243, 20.20350
1173.725, 19.97445
1174.207, 19.91029
1174.689, 20.38013
1175.172, 20.55436
1175.654, 20.26386
1176.136, 20.58431
1176.618, 19.81318
1177.100, 19.99993
1177.582, 20.59997
1178.064, 20.33631
1178.546, 20.50852
1179.028, 20.76990
1179.511, 20.92982
1179.993, 20.98242
1180.475, 20.81802
1180.957, 20.65479
1181.439, 20.80018
1181.921, 21.00457
1182.403, 20.86632
1182.885, 20.55045
1183.368, 20.47990
1183.850, 20.73036
1184.332, 21.02398
1184.814, 21.32252
1185.296, 21.50459
1185.778, 21.47495
1186.260, 21.36503
1186.742, 21.19087
1187.224, 21.02742
1187.707, 20.95101
1188.189, 20.95164
1188.671, 20.99065
1189.153, 21.09903
1189.635, 21.10999
1190.117, 20.88138
1190.599, 20.75841
1191.081, 20.89273
1191.564, 20.99901
1192.046, 20.90039
1192.528, 20.71881
1193.010, 20.62063
1193.492, 20.59423
1193.974, 20.51867
1194.456, 20.34916
1194.938, 20.40561
1195.421, 20.76176
1195.903, 20.98385
1196.385, 20.92598
1196.867, 20.81814
1197.349, 20.82871
1197.831, 20.90528
1198.313, 20.96097
1198.795, 20.99699
1199.277, 21.03009
1199.760, 21.05034
1200.242, 20.95886
1200.724, 20.78075
1201.206, 20.78694
1201.688, 21.05644
1202.170, 21.22896
1202.652, 20.96467
1203.134, 20.56870
1203.616, 20.37587
1204.099, 20.33225
1204.581, 20.43911
1205.063, 20.59991
1205.545, 20.61766
1206.027, 20.51972
1206.509, 20.54056
1206.991, 20.78049
1207.473, 20.92756
1207.956, 20.68723
1208.438, 20.48067
1208.920, 20.57577
1209.402, 20.74027
1209.884, 20.78449
1210.366, 20.77573
1210.848, 20.86609
1211.330, 21.04322
1211.813, 21.07828
1212.295, 20.83299
1212.777, 20.67653
1213.259, 20.64475
1213.741, 20.65946
1214.223, 20.71945
1214.705, 20.79379
1215.187, 20.87235
1215.669, 20.93764
1216.151, 20.95452
1216.634, 20.92555
1217.116, 20.86996
1217.598, 20.77449
1218.080, 20.84559
1218.562, 21.11284
1219.044, 21.38059
1219.526, 21.58600
1220.008, 21.58339
1220.491, 21.21888
1220.973, 20.76462
1221.455, 20.74832
1221.937, 20.98416
1222.419, 20.98111
1222.901, 20.82740
1223.383, 20.74606
1223.865, 20.77924
1224.348, 20.99224
1224.830, 21.37777
1225.312, 21.57747
1225.794, 21.22443
1226.276, 20.83806
1226.758, 20.82750
1227.240, 20.94611
1227.722, 21.05094
1228.204, 21.09771
1228.687, 20.99254
1229.169, 20.79901
1229.651, 20.74382
1230.133, 20.90214
1230.615, 20.99974
1231.097, 20.89806
1231.579, 20.86633
1232.061, 21.01611
1232.543, 21.17517
1233.026, 21.31393
1233.508, 21.36230
1233.990, 21.18773
1234.472, 20.87956
1234.954, 20.84124
1235.436, 21.13249
1235.918, 21.27373
1236.400, 21.25227
1236.883, 21.19856
1237.365, 21.13449
1237.847, 21.17814
1238.329, 21.40094
1238.811, 21.57937
1239.293, 21.41030
1239.775, 21.10369
1240.257, 21.12873
1240.740, 21.34306
1241.222, 21.45855
1241.704, 21.45473
1242.186, 21.28681
1242.668, 21.00683
1243.150, 20.83428
1243.632, 20.86512
1244.114, 20.99753
1244.596, 21.28173
1245.078, 21.49648
1245.561, 21.45871
1246.043, 21.33408
1246.525, 21.21062
1247.007, 21.12714
1247.489, 21.14395
1247.971, 21.24652
1248.453, 21.31026
1248.935, 21.27934
1249.418, 21.32504
1249.900, 21.55997
1250.382, 21.64626
1250.864, 21.44837
1251.346, 21.22452
1251.828, 21.08332
1252.310, 21.08701
1252.792, 21.36839
1253.275, 21.81134
1253.757, 21.88169
1254.239, 21.62032
1254.721, 21.56040
1255.203, 21.69919
1255.685, 21.81311
1256.167, 21.84491
1256.649, 21.77060
1257.131, 21.57610
1257.614, 21.41543
1258.096, 21.43728
1258.578, 21.57651
1259.060, 21.90084
1259.542, 22.17742
1260.024, 21.96077
1260.506, 21.56069
1260.988, 21.62631
1261.470, 22.08888
1261.953, 22.24574
1262.435, 21.82866
1262.917, 21.50150
1263.399, 21.49874
1263.881, 21.50756
1264.363, 21.35661
1264.845, 21.31369
1265.327, 21.63007
1265.810, 21.98507
1266.292, 21.99128
1266.774, 21.74279
1267.256, 21.59409
1267.738, 21.53762
1268.220, 21.73841
1268.702, 22.21197
1269.184, 22.34977
1269.667, 22.05445
1270.149, 21.87213
1270.631, 22.05237
1271.113, 22.35415
1271.595, 22.58218
1272.077, 22.71662
1272.559, 22.68274
1273.041, 22.57192
1273.523, 22.55552
1274.005, 22.54581
1274.488, 22.27950
1274.970, 21.87406
1275.452, 21.76884
1275.934, 22.08209
1276.416, 22.40368
1276.898, 22.66545
1277.380, 22.78608
1277.862, 22.52855
1278.345, 22.39141
1278.827, 22.90458
1279.309, 23.33017
1279.791, 22.91847
1280.273, 22.10413
1280.755, 21.88161
1281.237, 22.24219
1281.719, 22.41030
1282.202, 22.36598
1282.684, 22.41538
1283.166, 22.58810
1283.648, 22.82817
1284.130, 23.11038
1284.612, 23.26894
1285.094, 23.18211
1285.576, 22.99895
1286.058, 22.91846
1286.541, 22.84436
1287.023, 22.67250
##END=



