##NAMES=Bakhchisaraitsevite
##RRUFFID=R060607
##IDEAL CHEMISTRY=Na_2_Mg_5_(PO_4_)_4_&#183;7H_2_O
##LOCALITY=Kovdor Massif,  Kola Peninsula,  Murmanskaja Oblast', Northern Region, Russia
##OWNER=RRUFF
##SOURCE=Michael Scott
##DESCRIPTION=Colorless to brown radial aggregate of bladed crystals
##STATUS=The identification of this mineral is confirmed by single-crystal X-ray diffraction and chemical analysis.
##URL=rruff.info/R060607
##MEASURED CHEMISTRY=(Na_1.94_Ca_0.03_[box]_0.03_)_Σ=2_(Mg_4.65_Fe_0.20_Mn_0.15_)_Σ=5_(P_1.00_O_4_)_4_·7H_2_O; H_2_O estimated by difference
133.575, 3587.414
134.057, 3643.230
134.539, 3688.363
135.021, 3720.831
135.503, 3750.132
135.985, 3785.413
136.467, 3827.027
136.949, 3873.912
137.432, 3927.089
137.914, 3986.826
138.396, 4046.932
138.878, 4110.812
139.360, 4169.622
139.842, 4207.171
140.324, 4219.494
140.806, 4221.230
141.288, 4214.293
141.771, 4191.320
142.253, 4186.390
142.735, 4204.334
143.217, 4239.423
143.699, 4271.238
144.181, 4285.579
144.663, 4317.222
145.145, 4323.801
145.628, 4348.556
146.110, 4368.898
146.592, 4385.067
147.074, 4384.560
147.556, 4405.586
148.038, 4419.971
148.520, 4411.939
149.002, 4402.387
149.484, 4378.451
149.967, 4367.865
150.449, 4382.139
150.931, 4425.739
151.413, 4449.465
151.895, 4421.344
152.377, 4387.104
152.859, 4389.646
153.342, 4368.925
153.824, 4362.182
154.306, 4352.044
154.788, 4338.697
155.270, 4312.525
155.752, 4302.911
156.234, 4286.662
156.716, 4270.143
157.198, 4262.862
157.680, 4238.555
158.163, 4231.128
158.645, 4216.960
159.127, 4205.879
159.609, 4188.120
160.091, 4172.248
160.573, 4184.215
161.055, 4172.132
161.538, 4154.889
162.020, 4143.912
162.502, 4146.092
162.984, 4147.361
163.466, 4137.353
163.948, 4119.998
164.430, 4110.130
164.912, 4098.553
165.394, 4109.039
165.876, 4114.169
166.359, 4114.232
166.841, 4094.049
167.323, 4100.008
167.805, 4095.492
168.287, 4090.545
168.769, 4100.185
169.251, 4082.946
169.733, 4092.355
170.216, 4091.126
170.698, 4094.765
171.180, 4087.864
171.662, 4084.217
172.144, 4082.194
172.626, 4082.841
173.108, 4097.417
173.590, 4112.793
174.072, 4124.514
174.555, 4133.588
175.037, 4140.065
175.519, 4143.444
176.001, 4148.161
176.483, 4159.125
176.965, 4174.865
177.447, 4191.181
177.929, 4208.835
178.412, 4224.947
178.894, 4232.928
179.376, 4230.162
179.858, 4226.476
180.340, 4235.804
180.822, 4255.458
181.304, 4273.290
181.786, 4274.167
182.268, 4267.777
182.751, 4278.021
183.233, 4311.135
183.715, 4355.204
184.197, 4395.796
184.679, 4432.871
185.161, 4461.955
185.643, 4476.889
186.125, 4480.501
186.607, 4485.562
187.090, 4496.598
187.572, 4507.244
188.054, 4502.379
188.536, 4481.771
189.018, 4458.965
189.500, 4443.713
189.982, 4435.778
190.464, 4433.259
190.947, 4439.020
191.429, 4448.400
191.911, 4446.115
192.393, 4431.088
192.875, 4413.107
193.357, 4399.423
193.839, 4390.144
194.321, 4386.761
194.803, 4392.421
195.286, 4404.364
195.768, 4409.149
196.250, 4406.206
196.732, 4398.687
197.214, 4385.067
197.696, 4364.224
198.178, 4356.960
198.661, 4374.600
199.143, 4414.015
199.625, 4442.848
200.107, 4459.891
200.589, 4470.131
201.071, 4477.194
201.553, 4479.550
202.035, 4489.345
202.517, 4515.858
202.999, 4559.379
203.482, 4582.697
203.964, 4577.841
204.446, 4565.413
204.928, 4579.887
205.410, 4627.488
205.892, 4675.612
206.374, 4710.144
206.857, 4729.409
207.339, 4751.625
207.821, 4779.730
208.303, 4807.371
208.785, 4821.980
209.267, 4820.860
209.749, 4814.823
210.231, 4806.493
210.713, 4794.065
211.195, 4789.476
211.678, 4794.364
212.160, 4806.444
212.642, 4820.662
213.124, 4837.685
213.606, 4855.988
214.088, 4875.848
214.570, 4898.818
215.052, 4917.186
215.535, 4928.723
216.017, 4936.518
216.499, 4948.119
216.981, 4961.735
217.463, 4982.383
217.945, 5016.219
218.427, 5072.563
218.909, 5111.181
219.391, 5118.929
219.874, 5109.025
220.356, 5133.536
220.838, 5211.158
221.320, 5291.454
221.802, 5342.964
222.284, 5354.727
222.766, 5366.743
223.248, 5380.701
223.731, 5397.289
224.213, 5419.933
224.695, 5454.646
225.177, 5487.346
225.659, 5508.717
226.141, 5513.098
226.623, 5519.472
227.105, 5532.076
227.587, 5548.738
228.070, 5555.844
228.552, 5549.842
229.034, 5538.658
229.516, 5526.375
229.998, 5508.777
230.480, 5499.178
230.962, 5502.010
231.444, 5515.275
231.926, 5523.347
232.409, 5524.156
232.891, 5487.220
233.373, 5471.807
233.855, 5455.977
234.337, 5439.958
234.819, 5411.674
235.301, 5408.034
235.783, 5399.905
236.266, 5395.277
236.748, 5406.100
237.230, 5399.380
237.712, 5417.707
238.194, 5431.417
238.676, 5452.843
239.158, 5469.724
239.640, 5493.041
240.122, 5528.592
240.605, 5563.342
241.087, 5594.643
241.569, 5639.378
242.051, 5674.691
242.533, 5719.531
243.015, 5799.014
243.497, 5856.466
243.980, 5880.191
244.462, 5894.407
244.944, 5919.749
245.426, 5961.885
245.908, 6003.838
246.390, 6043.706
246.872, 6081.437
247.354, 6114.861
247.836, 6144.388
248.318, 6168.555
248.801, 6185.808
249.283, 6195.085
249.765, 6199.174
250.247, 6197.899
250.729, 6191.323
251.211, 6182.572
251.693, 6171.232
252.176, 6158.772
252.658, 6147.092
253.140, 6138.679
253.622, 6126.206
254.104, 6106.405
254.586, 6079.717
255.068, 6061.983
255.550, 6060.549
256.032, 6059.102
256.514, 6032.545
256.997, 5942.501
257.479, 5923.676
257.961, 5898.388
258.443, 5900.338
258.925, 5895.677
259.407, 5884.761
259.889, 5848.851
260.371, 5844.775
260.854, 5810.679
261.336, 5778.589
261.818, 5725.856
262.300, 5654.996
262.782, 5602.859
263.264, 5579.905
263.746, 5560.492
264.228, 5519.889
264.711, 5448.825
265.193, 5384.261
265.675, 5333.526
266.157, 5295.711
266.639, 5256.654
267.121, 5216.125
267.603, 5175.389
268.085, 5135.025
268.567, 5096.188
269.050, 5054.821
269.532, 5009.776
270.014, 4961.965
270.496, 4916.836
270.978, 4876.979
271.460, 4834.896
271.942, 4785.432
272.424, 4752.732
272.906, 4715.967
273.389, 4675.350
273.871, 4619.355
274.353, 4583.218
274.835, 4539.116
275.317, 4494.694
275.799, 4461.354
276.281, 4407.594
276.763, 4374.079
277.246, 4332.480
277.728, 4289.004
278.210, 4251.141
278.692, 4218.321
279.174, 4193.555
279.656, 4183.182
280.138, 4187.837
280.620, 4186.521
281.103, 4172.849
281.585, 4152.936
282.067, 4149.039
282.549, 4163.984
283.031, 4176.027
283.513, 4163.674
283.995, 4128.359
284.477, 4104.256
284.959, 4098.878
285.441, 4104.775
285.924, 4102.322
286.406, 4090.740
286.888, 4083.847
287.370, 4095.807
287.852, 4123.647
288.334, 4143.760
288.816, 4150.682
289.298, 4152.172
289.781, 4166.854
290.263, 4194.314
290.745, 4215.744
291.227, 4214.429
291.709, 4195.431
292.191, 4179.723
292.673, 4168.937
293.155, 4163.440
293.638, 4168.046
294.120, 4181.217
294.602, 4190.003
295.084, 4184.012
295.566, 4167.500
296.048, 4150.993
296.530, 4133.913
297.012, 4121.835
297.494, 4106.255
297.977, 4084.685
298.459, 4086.920
298.941, 4083.378
299.423, 4074.368
299.905, 4043.516
300.387, 4040.869
300.869, 4026.916
301.351, 4012.502
301.833, 4013.825
302.316, 3986.149
302.798, 3987.222
303.280, 3976.820
303.762, 3971.667
304.244, 3955.143
304.726, 3941.833
305.208, 3952.951
305.690, 3966.584
306.172, 3974.514
306.655, 3968.976
307.137, 3957.918
307.619, 3947.894
308.101, 3939.098
308.583, 3933.423
309.065, 3937.244
309.547, 3944.294
310.030, 3945.373
310.512, 3925.544
310.994, 3906.907
311.476, 3908.413
311.958, 3929.512
312.440, 3951.247
312.922, 3965.093
313.404, 3973.484
313.886, 3979.193
314.369, 3987.941
314.851, 3990.064
315.333, 3973.143
315.815, 3940.642
316.297, 3919.581
316.779, 3934.389
317.261, 3958.543
317.743, 3971.275
318.225, 3962.648
318.708, 3946.525
319.190, 3920.080
319.672, 3887.395
320.154, 3865.977
320.636, 3844.139
321.118, 3846.125
321.600, 3821.941
322.082, 3840.151
322.565, 3848.070
323.047, 3846.251
323.529, 3805.530
324.011, 3815.044
324.493, 3804.425
324.975, 3792.982
325.457, 3798.481
325.939, 3776.170
326.422, 3758.884
326.904, 3741.529
327.386, 3724.489
327.868, 3708.994
328.350, 3682.653
328.832, 3669.623
329.314, 3683.120
329.796, 3744.851
330.278, 3772.314
330.760, 3743.689
331.243, 3690.466
331.725, 3657.930
332.207, 3658.525
332.689, 3661.850
333.171, 3658.117
333.653, 3644.616
334.135, 3647.723
334.617, 3682.106
335.100, 3718.235
335.582, 3718.483
336.064, 3664.302
336.546, 3623.196
337.028, 3614.006
337.510, 3634.414
337.992, 3645.207
338.474, 3644.626
338.957, 3637.757
339.439, 3627.970
339.921, 3614.895
340.403, 3602.027
340.885, 3590.826
341.367, 3579.932
341.849, 3560.810
342.331, 3529.991
342.813, 3508.103
343.296, 3519.344
343.778, 3561.960
344.260, 3583.098
344.742, 3572.407
345.224, 3543.034
345.706, 3517.449
346.188, 3495.576
346.670, 3481.412
347.152, 3483.391
347.635, 3496.290
348.117, 3498.990
348.599, 3488.648
349.081, 3471.983
349.563, 3453.130
350.045, 3434.031
350.527, 3423.123
351.009, 3431.872
351.491, 3449.752
351.974, 3459.141
352.456, 3459.308
352.938, 3452.356
353.420, 3436.461
353.902, 3415.074
354.384, 3394.861
354.866, 3381.583
355.349, 3369.181
355.831, 3349.786
356.313, 3323.961
356.795, 3301.716
357.277, 3292.151
357.759, 3289.029
358.241, 3285.344
358.723, 3278.981
359.205, 3271.546
359.688, 3264.656
360.170, 3257.814
360.652, 3248.428
361.134, 3234.311
361.616, 3217.824
362.098, 3200.354
362.580, 3180.687
363.062, 3162.467
363.544, 3144.458
364.027, 3128.648
364.509, 3119.273
364.991, 3120.189
365.473, 3125.398
365.955, 3133.925
366.437, 3149.816
366.919, 3157.975
367.401, 3142.925
367.884, 3122.921
368.366, 3123.719
368.848, 3117.017
369.330, 3140.094
369.812, 3155.943
370.294, 3164.951
370.776, 3146.632
371.258, 3163.602
371.741, 3166.429
372.223, 3168.676
372.705, 3190.612
373.187, 3189.392
373.669, 3194.733
374.151, 3201.880
374.633, 3210.963
375.115, 3221.738
375.597, 3234.899
376.079, 3252.698
376.562, 3277.537
377.044, 3292.797
377.526, 3293.348
378.008, 3286.535
378.490, 3290.234
378.972, 3305.360
379.454, 3324.748
379.936, 3345.969
380.419, 3368.558
380.901, 3391.486
381.383, 3414.870
381.865, 3437.772
382.347, 3456.917
382.829, 3473.352
383.311, 3492.804
383.793, 3521.854
384.276, 3554.671
384.758, 3579.370
385.240, 3595.681
385.722, 3608.124
386.204, 3619.441
386.686, 3629.906
387.168, 3639.618
387.650, 3644.290
388.132, 3652.827
388.615, 3680.382
389.097, 3722.860
389.579, 3758.733
390.061, 3768.652
390.543, 3768.236
391.025, 3774.661
391.507, 3798.063
391.989, 3813.448
392.471, 3802.566
392.954, 3774.176
393.436, 3746.324
393.918, 3719.542
394.400, 3700.407
394.882, 3695.700
395.364, 3709.988
395.846, 3718.618
396.328, 3713.995
396.810, 3701.502
397.293, 3687.055
397.775, 3663.407
398.257, 3646.305
398.739, 3643.792
399.221, 3656.219
399.703, 3657.301
400.185, 3636.840
400.668, 3613.040
401.150, 3598.395
401.632, 3606.826
402.114, 3598.056
402.596, 3557.922
403.078, 3500.723
403.560, 3473.855
404.042, 3488.741
404.524, 3510.714
405.007, 3527.731
405.489, 3541.613
405.971, 3536.736
406.453, 3507.681
406.935, 3469.320
407.417, 3442.443
407.899, 3427.675
408.381, 3418.126
408.863, 3414.618
409.346, 3414.276
409.828, 3400.706
410.310, 3372.295
410.792, 3349.469
411.274, 3356.984
411.756, 3387.131
412.238, 3411.876
412.720, 3423.731
413.203, 3429.690
413.685, 3441.173
414.167, 3456.389
414.649, 3466.321
415.131, 3457.697
415.613, 3443.803
416.095, 3442.450
416.577, 3457.603
417.060, 3476.528
417.542, 3487.379
418.024, 3496.303
418.506, 3513.664
418.988, 3554.457
419.470, 3595.885
419.952, 3621.346
420.434, 3630.926
420.916, 3646.714
421.398, 3682.662
421.881, 3724.394
422.363, 3761.325
422.845, 3782.779
423.327, 3808.893
423.809, 3843.075
424.291, 3884.130
424.773, 3929.309
425.255, 3982.960
425.738, 4035.997
426.220, 4084.731
426.702, 4124.919
427.184, 4171.900
427.666, 4229.229
428.148, 4291.215
428.630, 4351.474
429.112, 4409.891
429.595, 4466.348
430.077, 4520.549
430.559, 4572.378
431.041, 4620.463
431.523, 4664.774
432.005, 4707.085
432.487, 4752.318
432.969, 4799.956
433.451, 4836.728
433.934, 4860.025
434.416, 4872.319
434.898, 4873.907
435.380, 4866.035
435.862, 4860.456
436.344, 4865.901
436.826, 4878.081
437.308, 4893.630
437.790, 4914.267
438.273, 4921.210
438.755, 4887.399
439.237, 4828.506
439.719, 4773.772
440.201, 4736.833
440.683, 4705.788
441.165, 4672.597
441.647, 4637.697
442.129, 4604.023
442.612, 4586.686
443.094, 4563.139
443.576, 4513.894
444.058, 4417.639
444.540, 4329.171
445.022, 4270.349
445.504, 4227.776
445.987, 4176.433
446.469, 4090.742
446.951, 4016.569
447.433, 3970.458
447.915, 3957.541
448.397, 3941.710
448.879, 3921.771
449.361, 3899.974
449.843, 3877.338
450.326, 3849.688
450.808, 3831.671
451.290, 3828.826
451.772, 3836.055
452.254, 3833.396
452.736, 3817.937
453.218, 3804.285
453.700, 3800.271
454.182, 3805.708
454.665, 3817.112
455.147, 3835.553
455.629, 3855.388
456.111, 3865.568
456.593, 3868.773
457.075, 3880.201
457.557, 3911.908
458.039, 3951.156
458.522, 3975.410
459.004, 3985.957
459.486, 3993.042
459.968, 4003.556
460.450, 4015.331
460.932, 4024.715
461.414, 4029.050
461.896, 4036.030
462.379, 4054.766
462.861, 4079.462
463.343, 4098.650
463.825, 4111.772
464.307, 4115.089
464.789, 4103.554
465.271, 4075.756
465.753, 4050.025
466.235, 4024.814
466.717, 4006.159
467.200, 3998.732
467.682, 4020.102
468.164, 4030.415
468.646, 4026.384
469.128, 4009.817
469.610, 3984.566
470.092, 3940.886
470.574, 3905.830
471.057, 3894.817
471.539, 3912.463
472.021, 3908.121
472.503, 3870.355
472.985, 3835.457
473.467, 3800.585
473.949, 3782.111
474.431, 3759.660
474.914, 3733.442
475.396, 3692.183
475.878, 3670.348
476.360, 3642.517
476.842, 3621.134
477.324, 3606.553
477.806, 3595.366
478.288, 3580.218
478.770, 3559.208
479.253, 3540.728
479.735, 3535.969
480.217, 3538.268
480.699, 3536.734
481.181, 3524.031
481.663, 3508.841
482.145, 3491.952
482.627, 3474.679
483.109, 3466.794
483.592, 3482.278
484.074, 3500.838
484.556, 3510.056
485.038, 3505.386
485.520, 3496.500
486.002, 3475.545
486.484, 3453.042
486.966, 3445.603
487.448, 3465.483
487.931, 3481.313
488.413, 3485.667
488.895, 3478.965
489.377, 3467.446
489.859, 3448.477
490.341, 3431.505
490.823, 3425.819
491.306, 3432.188
491.788, 3433.979
492.270, 3428.476
492.752, 3420.302
493.234, 3420.104
493.716, 3426.198
494.198, 3425.178
494.680, 3402.843
495.162, 3371.850
495.645, 3355.785
496.127, 3354.073
496.609, 3354.867
497.091, 3351.183
497.573, 3344.003
498.055, 3334.709
498.537, 3324.746
499.019, 3310.632
499.501, 3281.464
499.984, 3247.462
500.466, 3228.770
500.948, 3249.243
501.430, 3270.666
501.912, 3280.797
502.394, 3278.772
502.876, 3265.069
503.358, 3221.981
503.841, 3180.366
504.323, 3162.777
504.805, 3190.137
505.287, 3198.271
505.769, 3173.698
506.251, 3132.854
506.733, 3116.162
507.215, 3129.628
507.698, 3142.630
508.180, 3141.876
508.662, 3129.421
509.144, 3119.937
509.626, 3113.309
510.108, 3110.928
510.590, 3119.707
511.072, 3134.618
511.554, 3137.659
512.036, 3121.277
512.519, 3100.858
513.001, 3094.806
513.483, 3098.834
513.965, 3101.522
514.447, 3095.071
514.929, 3086.724
515.411, 3083.247
515.893, 3084.921
516.375, 3081.856
516.858, 3062.242
517.340, 3040.815
517.822, 3028.802
518.304, 3033.390
518.786, 3040.409
519.268, 3051.941
519.750, 3064.374
520.232, 3070.302
520.715, 3063.971
521.197, 3060.557
521.679, 3067.448
522.161, 3084.573
522.643, 3085.247
523.125, 3064.741
523.607, 3041.234
524.089, 3030.185
524.571, 3031.255
525.054, 3033.091
525.536, 3034.925
526.018, 3035.553
526.500, 3031.165
526.982, 3023.290
527.464, 3018.208
527.946, 3020.030
528.429, 3025.583
528.911, 3008.583
529.393, 2990.006
529.875, 3021.870
530.357, 3041.490
530.839, 3049.524
531.321, 3011.268
531.803, 3032.785
532.286, 3030.349
532.768, 3026.929
533.250, 3056.859
533.732, 3047.568
534.214, 3079.653
534.696, 3103.251
535.178, 3097.881
535.660, 3067.967
536.142, 3063.610
536.625, 3098.231
537.107, 3135.889
537.589, 3154.158
538.071, 3148.515
538.553, 3156.299
539.035, 3180.870
539.517, 3212.772
539.999, 3243.784
540.481, 3273.035
540.964, 3288.914
541.446, 3278.488
541.928, 3262.693
542.410, 3283.171
542.892, 3332.869
543.374, 3376.396
543.856, 3380.897
544.338, 3375.311
544.820, 3389.270
545.303, 3427.646
545.785, 3470.084
546.267, 3510.578
546.749, 3548.693
547.231, 3584.701
547.713, 3619.389
548.195, 3651.106
548.677, 3676.035
549.159, 3697.647
549.642, 3725.375
550.124, 3756.948
550.606, 3798.212
551.088, 3853.741
551.570, 3923.837
552.052, 3995.129
552.534, 4070.913
553.016, 4138.934
553.499, 4188.670
553.981, 4220.180
554.463, 4237.317
554.945, 4236.522
555.427, 4231.905
555.909, 4242.512
556.391, 4266.043
556.873, 4294.870
557.356, 4324.745
557.838, 4358.959
558.320, 4403.688
558.802, 4457.127
559.284, 4508.007
559.766, 4548.915
560.248, 4586.279
560.730, 4626.350
561.213, 4675.061
561.695, 4711.624
562.177, 4722.315
562.659, 4722.722
563.141, 4732.343
563.623, 4764.765
564.105, 4784.312
564.587, 4784.118
565.069, 4767.545
565.552, 4744.778
566.034, 4713.453
566.516, 4684.979
566.998, 4664.171
567.480, 4650.913
567.962, 4644.560
568.444, 4645.830
568.926, 4647.617
569.408, 4642.660
569.891, 4633.158
570.373, 4622.813
570.855, 4609.871
571.337, 4602.423
571.819, 4612.796
572.301, 4633.148
572.783, 4648.430
573.265, 4647.763
573.747, 4644.818
574.230, 4640.505
574.712, 4636.024
575.194, 4647.783
575.676, 4703.314
576.158, 4754.877
576.640, 4777.515
577.122, 4757.754
577.604, 4749.791
578.086, 4760.125
578.569, 4774.298
579.051, 4774.037
579.533, 4757.660
580.015, 4742.746
580.497, 4732.544
580.979, 4726.230
581.461, 4728.420
581.943, 4736.677
582.426, 4731.467
582.908, 4683.332
583.390, 4624.256
583.872, 4606.338
584.354, 4629.037
584.836, 4645.075
585.318, 4617.411
585.800, 4573.607
586.282, 4536.833
586.765, 4514.137
587.247, 4494.022
587.729, 4471.868
588.211, 4451.064
588.693, 4437.239
589.175, 4442.953
589.657, 4437.132
590.140, 4410.211
590.622, 4367.828
591.104, 4336.628
591.586, 4319.446
592.068, 4303.749
592.550, 4280.782
593.032, 4252.018
593.514, 4234.285
593.996, 4228.247
594.479, 4226.526
594.961, 4223.961
595.443, 4220.505
595.925, 4215.618
596.407, 4208.271
596.889, 4201.875
597.371, 4203.041
597.853, 4206.402
598.335, 4202.813
598.818, 4175.897
599.300, 4154.531
599.782, 4152.207
600.264, 4166.961
600.746, 4178.306
601.228, 4180.724
601.710, 4183.924
602.192, 4191.709
602.674, 4204.580
603.157, 4220.316
603.639, 4241.645
604.121, 4259.567
604.603, 4259.947
605.085, 4244.003
605.567, 4242.722
606.049, 4265.308
606.531, 4292.919
607.013, 4293.154
607.496, 4275.023
607.978, 4265.157
608.460, 4288.899
608.942, 4315.898
609.424, 4317.895
609.906, 4299.692
610.388, 4284.398
610.870, 4284.815
611.353, 4288.219
611.835, 4288.387
612.317, 4284.587
612.799, 4278.243
613.281, 4272.610
613.763, 4261.969
614.245, 4240.594
614.727, 4204.706
615.209, 4171.504
615.692, 4142.509
616.174, 4117.232
616.656, 4099.111
617.138, 4087.339
617.620, 4062.736
618.102, 4012.395
618.584, 3950.529
619.067, 3898.690
619.549, 3856.788
620.031, 3824.419
620.513, 3811.567
620.995, 3801.123
621.477, 3775.476
621.959, 3731.610
622.441, 3695.967
622.923, 3688.126
623.406, 3685.362
623.888, 3669.908
624.370, 3618.687
624.852, 3590.927
625.334, 3594.582
625.816, 3570.242
626.298, 3584.537
626.780, 3589.454
627.263, 3585.494
627.745, 3546.083
628.227, 3552.454
628.709, 3540.474
629.191, 3527.746
629.673, 3540.559
630.155, 3506.304
630.637, 3518.712
631.119, 3509.083
631.602, 3509.110
632.084, 3509.453
632.566, 3506.658
633.048, 3502.092
633.530, 3496.561
634.012, 3489.686
634.494, 3483.378
634.976, 3475.750
635.458, 3470.116
635.941, 3470.664
636.423, 3484.397
636.905, 3489.185
637.387, 3480.231
637.869, 3462.997
638.351, 3450.365
638.833, 3442.794
639.315, 3431.885
639.797, 3409.292
640.280, 3383.840
640.762, 3380.533
641.244, 3396.202
641.726, 3407.147
642.208, 3390.997
642.690, 3367.009
643.172, 3354.638
643.654, 3356.787
644.137, 3358.786
644.619, 3358.073
645.101, 3352.756
645.583, 3340.944
646.065, 3311.980
646.547, 3292.753
647.029, 3285.861
647.511, 3287.025
647.994, 3291.528
648.476, 3300.471
648.958, 3306.514
649.440, 3307.254
649.922, 3304.655
650.404, 3303.459
650.886, 3303.355
651.368, 3302.399
651.851, 3299.313
652.333, 3294.861
652.815, 3290.386
653.297, 3285.703
653.779, 3278.895
654.261, 3266.234
654.743, 3253.103
655.225, 3245.933
655.707, 3250.698
656.190, 3241.254
656.672, 3197.598
657.154, 3150.907
657.636, 3126.750
658.118, 3136.179
658.600, 3134.091
659.082, 3112.377
659.564, 3085.914
660.046, 3086.894
660.529, 3112.295
661.011, 3119.273
661.493, 3087.795
661.975, 3040.330
662.457, 3005.830
662.939, 2983.180
663.421, 2968.520
663.903, 2966.019
664.385, 2966.055
664.868, 2963.456
665.350, 2958.018
665.832, 2950.115
666.314, 2935.479
666.796, 2921.479
667.278, 2900.081
667.760, 2905.456
668.242, 2904.333
668.724, 2897.060
669.207, 2865.216
669.689, 2865.100
670.171, 2852.270
670.653, 2838.918
671.135, 2843.267
671.617, 2814.999
672.099, 2819.064
672.581, 2810.225
673.064, 2807.292
673.546, 2791.567
674.028, 2779.794
674.510, 2780.817
674.992, 2774.751
675.474, 2751.052
675.956, 2731.142
676.438, 2709.195
676.920, 2705.618
677.403, 2718.403
677.885, 2732.803
678.367, 2755.819
678.849, 2765.554
679.331, 2742.895
679.813, 2690.750
680.295, 2665.382
680.778, 2667.965
681.260, 2680.755
681.742, 2691.789
682.224, 2700.987
682.706, 2708.377
683.188, 2714.137
683.670, 2716.476
684.152, 2709.739
684.634, 2700.766
685.117, 2697.331
685.599, 2714.535
686.081, 2720.303
686.563, 2702.119
687.045, 2672.202
687.527, 2646.983
688.009, 2623.501
688.491, 2610.367
688.973, 2603.507
689.456, 2591.292
689.938, 2617.247
690.420, 2633.937
690.902, 2641.858
691.384, 2614.750
691.866, 2632.876
692.348, 2632.875
692.830, 2641.848
693.312, 2635.167
693.795, 2621.990
694.277, 2610.379
694.759, 2604.739
695.241, 2604.939
695.723, 2614.258
696.205, 2611.534
696.687, 2598.177
697.169, 2622.945
697.652, 2638.460
698.134, 2645.216
698.616, 2616.985
699.098, 2633.933
699.580, 2636.951
700.062, 2631.649
700.544, 2633.795
701.026, 2630.218
701.508, 2623.868
701.991, 2615.541
702.473, 2607.158
702.955, 2602.071
703.437, 2607.750
703.919, 2610.416
704.401, 2600.485
704.883, 2583.024
705.365, 2573.585
705.847, 2575.600
706.330, 2582.134
706.812, 2594.655
707.294, 2610.621
707.776, 2612.885
708.258, 2599.555
708.740, 2586.083
709.222, 2583.951
709.705, 2587.951
710.187, 2580.463
710.669, 2562.327
711.151, 2547.962
711.633, 2553.592
712.115, 2564.150
712.597, 2564.212
713.079, 2549.409
713.561, 2538.825
714.044, 2544.758
714.526, 2552.344
715.008, 2549.822
715.490, 2529.220
715.972, 2516.956
716.454, 2514.882
716.936, 2518.147
717.418, 2522.972
717.901, 2528.952
718.383, 2526.582
718.865, 2509.857
719.347, 2495.414
719.829, 2509.337
720.311, 2540.918
720.793, 2568.014
721.275, 2585.765
721.757, 2592.248
722.240, 2578.583
722.722, 2552.959
723.204, 2537.327
723.686, 2544.874
724.168, 2550.260
724.650, 2548.792
725.132, 2540.928
725.614, 2526.167
726.096, 2502.122
726.579, 2485.805
727.061, 2489.567
727.543, 2506.633
728.025, 2520.200
728.507, 2530.207
728.989, 2536.800
729.471, 2540.144
729.953, 2540.054
730.435, 2535.277
730.918, 2525.371
731.400, 2516.011
731.882, 2508.755
732.364, 2502.667
732.846, 2496.173
733.328, 2486.388
733.810, 2487.080
734.292, 2501.586
734.775, 2519.301
735.257, 2531.532
735.739, 2538.031
736.221, 2534.481
736.703, 2517.799
737.185, 2502.279
737.667, 2507.929
738.149, 2523.258
738.631, 2529.839
739.114, 2516.414
739.596, 2503.253
740.078, 2499.264
740.560, 2500.275
741.042, 2499.426
741.524, 2495.923
742.006, 2490.868
742.489, 2481.458
742.971, 2472.775
743.453, 2478.643
743.935, 2499.363
744.417, 2521.030
744.899, 2541.780
745.381, 2556.856
745.863, 2550.689
746.345, 2530.433
746.828, 2521.552
747.310, 2558.389
747.792, 2590.739
748.274, 2580.916
748.756, 2534.163
749.238, 2504.980
749.720, 2510.311
750.202, 2521.801
750.684, 2534.707
751.167, 2548.142
751.649, 2536.969
752.131, 2496.733
752.613, 2459.520
753.095, 2452.420
753.577, 2463.382
754.059, 2457.097
754.541, 2433.217
755.023, 2424.537
755.506, 2476.097
755.988, 2538.739
756.470, 2565.021
756.952, 2538.209
757.434, 2526.384
757.916, 2558.132
758.398, 2593.356
758.880, 2605.497
759.362, 2588.046
759.845, 2573.398
760.327, 2561.758
760.809, 2553.991
761.291, 2554.713
761.773, 2560.289
762.255, 2556.283
762.737, 2537.288
763.219, 2521.761
763.702, 2531.411
764.184, 2551.529
764.666, 2563.529
765.148, 2552.519
765.630, 2548.126
766.112, 2563.307
766.594, 2583.590
767.076, 2588.441
767.558, 2570.989
768.041, 2558.404
768.523, 2547.021
769.005, 2555.723
769.487, 2547.254
769.969, 2565.477
770.451, 2577.220
770.933, 2582.833
771.416, 2563.953
771.898, 2576.700
772.380, 2576.772
772.862, 2576.324
773.344, 2586.544
773.826, 2587.560
774.308, 2589.569
774.790, 2592.742
775.272, 2598.874
775.755, 2609.504
776.237, 2617.437
776.719, 2620.329
777.201, 2619.007
777.683, 2609.202
778.165, 2594.177
778.647, 2593.726
779.129, 2592.934
779.612, 2613.858
780.094, 2629.510
780.576, 2640.172
781.058, 2630.911
781.540, 2647.379
782.022, 2653.534
782.504, 2664.798
782.986, 2682.636
783.468, 2689.443
783.951, 2682.924
784.433, 2674.007
784.915, 2666.837
785.397, 2662.080
785.879, 2664.245
786.361, 2672.672
786.843, 2678.403
787.325, 2668.774
787.807, 2658.503
788.290, 2663.968
788.772, 2687.030
789.254, 2701.286
789.736, 2692.720
790.218, 2681.026
790.700, 2676.417
791.182, 2680.202
791.664, 2675.448
792.146, 2659.914
792.629, 2644.898
793.111, 2637.050
793.593, 2636.747
794.075, 2649.151
794.557, 2674.783
795.039, 2696.705
795.521, 2702.373
796.003, 2699.503
796.485, 2692.726
796.968, 2679.416
797.450, 2675.667
797.932, 2692.808
798.414, 2710.022
798.896, 2710.726
799.378, 2691.937
799.860, 2682.103
800.343, 2683.025
800.825, 2687.687
801.307, 2677.470
801.789, 2668.220
802.271, 2659.043
802.753, 2677.928
803.235, 2690.000
803.717, 2695.627
804.199, 2675.505
804.682, 2688.633
805.164, 2691.508
805.646, 2693.693
806.128, 2672.166
806.610, 2647.439
807.092, 2640.298
807.574, 2650.718
808.056, 2663.540
808.539, 2678.749
809.021, 2688.038
809.503, 2672.741
809.985, 2648.517
810.467, 2642.438
810.949, 2668.232
811.431, 2689.817
811.913, 2685.680
812.395, 2673.293
812.878, 2672.021
813.360, 2692.495
813.842, 2700.467
814.324, 2690.068
814.806, 2674.972
815.288, 2672.123
815.770, 2680.003
816.252, 2691.344
816.734, 2707.141
817.217, 2716.923
817.699, 2705.439
818.181, 2683.909
818.663, 2666.070
819.145, 2649.570
819.627, 2647.362
820.109, 2681.945
820.591, 2720.420
821.073, 2723.426
821.556, 2679.319
822.038, 2654.345
822.520, 2658.335
823.002, 2675.754
823.484, 2689.285
823.966, 2699.198
824.448, 2707.059
824.930, 2714.252
825.413, 2716.299
825.895, 2697.388
826.377, 2676.923
826.859, 2678.141
827.341, 2735.353
827.823, 2772.320
828.305, 2780.774
828.787, 2774.725
829.269, 2772.384
829.752, 2773.673
830.234, 2766.417
830.716, 2745.398
831.198, 2727.472
831.680, 2741.978
832.162, 2771.060
832.644, 2783.691
833.127, 2757.962
833.609, 2741.024
834.091, 2757.377
834.573, 2787.287
835.055, 2806.087
835.537, 2808.787
836.019, 2815.208
836.501, 2829.211
836.983, 2842.262
837.466, 2839.040
837.948, 2824.627
838.430, 2820.880
838.912, 2835.748
839.394, 2849.088
839.876, 2840.303
840.358, 2822.642
840.840, 2812.609
841.322, 2822.369
841.805, 2825.185
842.287, 2814.536
842.769, 2801.284
843.251, 2796.633
843.733, 2800.725
844.215, 2812.678
844.697, 2834.055
845.179, 2855.080
845.661, 2863.659
846.144, 2864.434
846.626, 2864.980
847.108, 2867.234
847.590, 2868.512
848.072, 2865.626
848.554, 2862.481
849.036, 2862.967
849.518, 2869.055
850.000, 2873.863
850.483, 2877.415
850.965, 2879.505
851.447, 2881.195
851.929, 2881.407
852.411, 2872.534
852.893, 2851.550
853.375, 2838.129
853.857, 2859.233
854.340, 2889.055
854.822, 2901.474
855.304, 2883.295
855.786, 2871.320
856.268, 2871.107
856.750, 2873.545
857.232, 2870.128
857.714, 2860.622
858.196, 2858.263
858.679, 2863.846
859.161, 2873.604
859.643, 2885.899
860.125, 2899.099
860.607, 2911.812
861.089, 2924.023
861.571, 2932.277
862.054, 2933.642
862.536, 2931.534
863.018, 2927.144
863.500, 2919.411
863.982, 2918.238
864.464, 2925.287
864.946, 2932.036
865.428, 2929.226
865.910, 2921.770
866.393, 2921.566
866.875, 2929.131
867.357, 2940.945
867.839, 2962.439
868.321, 2981.584
868.803, 2990.988
869.285, 2989.525
869.767, 2978.462
870.250, 2946.181
870.732, 2928.243
871.214, 2953.533
871.696, 3009.277
872.178, 3024.694
872.660, 3002.236
873.142, 2977.266
873.624, 2965.573
874.106, 2966.988
874.589, 2991.299
875.071, 3033.383
875.553, 3057.640
876.035, 3037.780
876.517, 3019.534
876.999, 3014.667
877.481, 3021.294
877.963, 3033.311
878.445, 3051.013
878.928, 3062.915
879.410, 3059.010
879.892, 3050.541
880.374, 3053.968
880.856, 3065.732
881.338, 3075.360
881.820, 3071.893
882.302, 3073.574
882.784, 3094.309
883.267, 3122.643
883.749, 3127.422
884.231, 3102.440
884.713, 3085.663
885.195, 3087.217
885.677, 3101.224
886.159, 3127.614
886.641, 3158.038
887.123, 3170.604
887.606, 3137.121
888.088, 3112.234
888.570, 3130.028
889.052, 3168.160
889.534, 3190.326
890.016, 3190.212
890.498, 3186.458
890.981, 3177.489
891.463, 3172.591
891.945, 3192.327
892.427, 3227.877
892.909, 3247.642
893.391, 3240.850
893.873, 3232.464
894.355, 3239.582
894.837, 3254.069
895.320, 3267.885
895.802, 3280.019
896.284, 3290.348
896.766, 3298.170
897.248, 3305.208
897.730, 3314.068
898.212, 3323.935
898.694, 3328.576
899.177, 3327.409
899.659, 3326.523
900.141, 3332.321
900.623, 3339.873
901.105, 3343.699
901.587, 3342.287
902.069, 3345.813
902.551, 3357.785
903.033, 3371.229
903.516, 3382.249
903.998, 3391.266
904.480, 3403.580
904.962, 3419.156
905.444, 3435.882
905.926, 3456.507
906.408, 3474.932
906.890, 3480.674
907.372, 3476.781
907.855, 3480.955
908.337, 3513.229
908.819, 3535.901
909.301, 3533.108
909.783, 3514.803
910.265, 3518.308
910.747, 3543.767
911.229, 3580.260
911.711, 3633.036
912.194, 3682.146
912.676, 3693.523
913.158, 3682.861
913.640, 3683.542
914.122, 3718.145
914.604, 3750.556
915.086, 3753.013
915.568, 3761.666
916.050, 3789.078
916.533, 3815.215
917.015, 3839.742
917.497, 3875.426
917.979, 3908.402
918.461, 3938.815
918.943, 3958.989
919.425, 3992.392
919.907, 4020.487
920.390, 4048.368
920.872, 4080.706
921.354, 4086.931
921.836, 4127.583
922.318, 4211.957
922.800, 4276.374
923.282, 4318.602
923.764, 4351.875
924.247, 4381.574
924.729, 4412.607
925.211, 4449.260
925.693, 4491.886
926.175, 4551.410
926.657, 4659.364
927.139, 4758.623
927.621, 4813.404
928.104, 4829.072
928.586, 4874.691
929.068, 4951.518
929.550, 5046.150
930.032, 5163.599
930.514, 5286.059
930.996, 5377.179
931.478, 5447.459
931.960, 5535.727
932.443, 5675.042
932.925, 5814.860
933.407, 5927.425
933.889, 6032.554
934.371, 6168.621
934.853, 6340.793
935.335, 6520.513
935.817, 6703.994
936.299, 6894.423
936.782, 7092.653
937.264, 7304.054
937.746, 7544.489
938.228, 7824.991
938.710, 8116.238
939.192, 8399.019
939.674, 8696.035
940.156, 9027.590
940.638, 9402.632
941.121, 9782.784
941.603, 10168.580
942.085, 10544.260
942.567, 10847.730
943.049, 11144.310
943.531, 11546.530
944.013, 12065.280
944.495, 12568.670
944.978, 12991.390
945.460, 13400.030
945.942, 13813.920
946.424, 14240.790
946.906, 14716.460
947.388, 15246.990
947.870, 15769.680
948.352, 16246.460
948.834, 16703.480
949.317, 17202.820
949.799, 17715.971
950.281, 18155.029
950.763, 18477.619
951.245, 18739.740
951.727, 18970.539
952.209, 19144.410
952.692, 19223.311
953.174, 19207.949
953.656, 19061.641
954.138, 18762.480
954.620, 18379.539
955.102, 17937.381
955.584, 17478.420
956.066, 17076.750
956.548, 16805.961
957.031, 16420.211
957.513, 15811.080
957.995, 15149.820
958.477, 14525.170
958.959, 13936.870
959.441, 13434.890
959.923, 13023.940
960.405, 12669.180
960.888, 12386.690
961.370, 12118.210
961.852, 11783.660
962.334, 11392.230
962.816, 11069.670
963.298, 10843.480
963.780, 10688.590
964.262, 10619.950
964.744, 10606.730
965.227, 10538.790
965.709, 10428.410
966.191, 10368.470
966.673, 10411.370
967.155, 10487.620
967.637, 10521.830
968.119, 10559.060
968.601, 10673.730
969.083, 10936.100
969.566, 11164.600
970.048, 11338.340
970.530, 11501.930
971.012, 11690.510
971.494, 11909.530
971.976, 12183.520
972.458, 12520.870
972.940, 12860.070
973.422, 13153.550
973.905, 13443.280
974.387, 13754.360
974.869, 14087.720
975.351, 14451.080
975.833, 14861.220
976.315, 15242.520
976.797, 15555.000
977.279, 15815.210
977.761, 16085.040
978.244, 16339.400
978.726, 16498.260
979.208, 16508.641
979.690, 16428.811
980.172, 16270.230
980.654, 16036.500
981.136, 15727.170
981.619, 15334.690
982.101, 14901.230
982.583, 14424.420
983.065, 13940.910
983.547, 13478.770
984.029, 13047.170
984.511, 12660.240
984.993, 12325.800
985.475, 11993.370
985.958, 11609.900
986.440, 11261.790
986.922, 11003.580
987.404, 10832.750
987.886, 10652.430
988.368, 10461.240
988.850, 10302.150
989.332, 10221.420
989.815, 10168.030
990.297, 10092.280
990.779, 10000.870
991.261, 9920.806
991.743, 9858.481
992.225, 9808.439
992.707, 9770.595
993.189, 9744.031
993.671, 9729.664
994.154, 9725.336
994.636, 9719.950
995.118, 9710.125
995.600, 9702.425
996.082, 9714.614
996.564, 9723.186
997.046, 9702.601
997.528, 9646.098
998.010, 9584.279
998.493, 9516.384
998.975, 9446.867
999.457, 9381.294
999.939, 9316.546
1000.421, 9248.021
1000.903, 9173.685
1001.385, 9085.710
1001.867, 8976.215
1002.349, 8854.896
1002.832, 8721.569
1003.314, 8580.773
1003.796, 8437.564
1004.278, 8292.299
1004.760, 8153.501
1005.242, 8024.612
1005.724, 7902.602
1006.206, 7787.565
1006.689, 7677.654
1007.171, 7571.203
1007.653, 7468.538
1008.135, 7364.608
1008.617, 7258.440
1009.099, 7151.539
1009.581, 7040.903
1010.063, 6928.862
1010.545, 6847.259
1011.028, 6793.628
1011.510, 6736.062
1011.992, 6636.003
1012.474, 6540.490
1012.956, 6492.656
1013.438, 6454.080
1013.920, 6448.734
1014.402, 6435.323
1014.885, 6414.228
1015.367, 6362.691
1015.849, 6350.529
1016.331, 6322.588
1016.813, 6293.999
1017.295, 6287.379
1017.777, 6240.278
1018.259, 6233.310
1018.741, 6210.318
1019.224, 6194.613
1019.706, 6163.079
1020.188, 6136.450
1020.670, 6125.702
1021.152, 6106.161
1021.634, 6072.799
1022.116, 6057.605
1022.598, 6009.949
1023.081, 5990.734
1023.563, 5983.859
1024.045, 5951.292
1024.527, 5936.396
1025.009, 5914.765
1025.491, 5862.569
1025.973, 5863.535
1026.455, 5841.513
1026.938, 5803.179
1027.420, 5783.803
1027.902, 5786.514
1028.384, 5784.087
1028.866, 5746.326
1029.348, 5706.542
1029.830, 5693.747
1030.312, 5710.123
1030.794, 5715.506
1031.276, 5708.534
1031.759, 5699.922
1032.241, 5689.968
1032.723, 5686.542
1033.205, 5698.115
1033.687, 5726.037
1034.169, 5724.513
1034.651, 5760.012
1035.133, 5786.524
1035.616, 5804.561
1036.098, 5788.598
1036.580, 5815.904
1037.062, 5868.615
1037.544, 5912.190
1038.026, 5935.990
1038.508, 5960.581
1038.990, 6008.111
1039.473, 6057.280
1039.955, 6087.550
1040.437, 6097.481
1040.919, 6116.267
1041.401, 6143.580
1041.883, 6182.993
1042.365, 6242.074
1042.847, 6307.319
1043.329, 6350.232
1043.812, 6379.244
1044.294, 6414.750
1044.776, 6479.326
1045.258, 6528.581
1045.740, 6552.348
1046.222, 6561.763
1046.704, 6562.775
1047.186, 6556.267
1047.668, 6564.340
1048.151, 6588.060
1048.633, 6611.556
1049.115, 6631.430
1049.597, 6639.479
1050.079, 6621.397
1050.561, 6581.224
1051.043, 6559.230
1051.525, 6561.291
1052.008, 6565.291
1052.490, 6567.864
1052.972, 6564.421
1053.454, 6541.295
1053.936, 6507.758
1054.418, 6482.808
1054.900, 6475.839
1055.382, 6465.855
1055.865, 6443.986
1056.347, 6420.374
1056.829, 6400.952
1057.311, 6385.448
1057.793, 6373.622
1058.275, 6364.682
1058.757, 6347.826
1059.239, 6307.906
1059.721, 6265.714
1060.203, 6242.509
1060.686, 6227.902
1061.168, 6190.781
1061.650, 6121.282
1062.132, 6060.882
1062.614, 6017.344
1063.096, 5979.814
1063.578, 5939.255
1064.060, 5894.615
1064.543, 5842.747
1065.025, 5782.262
1065.507, 5724.204
1065.989, 5675.347
1066.471, 5623.491
1066.953, 5556.232
1067.435, 5484.312
1067.917, 5458.759
1068.400, 5471.726
1068.882, 5474.065
1069.364, 5438.663
1069.846, 5397.383
1070.328, 5359.795
1070.810, 5332.360
1071.292, 5325.518
1071.774, 5348.560
1072.256, 5346.013
1072.739, 5308.889
1073.221, 5302.802
1073.703, 5339.243
1074.185, 5365.362
1074.667, 5381.709
1075.149, 5359.037
1075.631, 5386.752
1076.113, 5398.934
1076.596, 5409.050
1077.078, 5422.351
1077.560, 5439.201
1078.042, 5460.882
1078.524, 5487.245
1079.006, 5520.256
1079.488, 5563.501
1079.970, 5598.079
1080.453, 5604.333
1080.935, 5607.026
1081.417, 5621.125
1081.899, 5646.538
1082.381, 5682.391
1082.863, 5729.015
1083.345, 5777.198
1083.827, 5826.547
1084.309, 5870.527
1084.792, 5893.459
1085.274, 5908.714
1085.756, 5941.319
1086.238, 6012.958
1086.720, 6056.364
1087.202, 6061.419
1087.684, 6061.734
1088.166, 6098.312
1088.648, 6149.638
1089.131, 6173.772
1089.613, 6171.029
1090.095, 6165.938
1090.577, 6163.973
1091.059, 6166.669
1091.541, 6178.409
1092.023, 6191.701
1092.505, 6189.942
1092.988, 6174.628
1093.470, 6149.676
1093.952, 6111.923
1094.434, 6084.697
1094.916, 6040.387
1095.398, 6036.044
1095.880, 6021.995
1096.362, 5998.766
1096.844, 5938.872
1097.327, 5926.271
1097.809, 5894.754
1098.291, 5862.451
1098.773, 5856.576
1099.255, 5802.009
1099.737, 5795.708
1100.219, 5770.147
1100.701, 5740.112
1101.183, 5717.932
1101.666, 5674.093
1102.148, 5622.778
1102.630, 5569.336
1103.112, 5520.151
1103.594, 5496.335
1104.076, 5493.540
1104.558, 5477.981
1105.040, 5414.324
1105.523, 5363.462
1106.005, 5346.652
1106.487, 5346.586
1106.969, 5325.970
1107.451, 5290.242
1107.933, 5276.833
1108.415, 5297.008
1108.897, 5306.278
1109.380, 5256.707
1109.862, 5201.162
1110.344, 5178.355
1110.826, 5186.304
1111.308, 5197.150
1111.790, 5211.531
1112.272, 5218.227
1112.754, 5209.527
1113.236, 5196.665
1113.719, 5182.442
1114.201, 5175.418
1114.683, 5191.167
1115.165, 5254.207
1115.647, 5274.957
1116.129, 5239.548
1116.611, 5208.964
1117.093, 5242.070
1117.575, 5305.221
1118.058, 5344.302
1118.540, 5360.077
1119.022, 5357.730
1119.504, 5322.677
1119.986, 5289.650
1120.468, 5255.868
1120.950, 5237.913
1121.432, 5272.613
1121.915, 5342.144
1122.397, 5382.676
1122.879, 5387.426
1123.361, 5390.926
1123.843, 5385.471
1124.325, 5371.448
1124.807, 5430.395
1125.289, 5471.626
1125.771, 5496.101
1126.254, 5453.657
1126.736, 5497.632
1127.218, 5506.962
1127.700, 5514.866
1128.182, 5571.015
1128.664, 5570.426
1129.146, 5584.534
1129.628, 5641.639
1130.110, 5668.116
1130.593, 5659.114
1131.075, 5668.955
1131.557, 5734.741
1132.039, 5823.529
1132.521, 5911.933
1133.003, 5992.158
1133.485, 6047.449
1133.967, 6049.595
1134.450, 6081.313
1134.932, 6146.404
1135.414, 6234.268
1135.896, 6344.367
1136.378, 6398.012
1136.860, 6451.645
1137.342, 6505.291
1137.824, 6558.923
1138.307, 6612.678
1138.789, 6666.310
1139.271, 6719.957
1139.753, 6732.640
1140.235, 6730.148
1140.717, 6712.023
1141.199, 6671.792
1141.681, 6608.476
1142.163, 6547.683
1142.646, 6517.485
1143.128, 6473.468
1143.610, 6396.950
1144.092, 6296.299
1144.574, 6188.039
1145.056, 6074.490
1145.538, 5963.786
1146.020, 5861.152
1146.502, 5755.414
1146.985, 5630.355
1147.467, 5506.564
1147.949, 5395.584
1148.431, 5296.934
1148.913, 5221.832
1149.395, 5169.862
1149.877, 5118.229
1150.359, 5052.912
1150.842, 4988.386
1151.324, 4939.182
1151.806, 4895.200
1152.288, 4840.073
1152.770, 4762.943
1153.252, 4719.940
1153.734, 4687.988
1154.216, 4670.124
1154.698, 4648.835
1155.181, 4624.260
1155.663, 4586.822
1156.145, 4566.063
1156.627, 4538.625
1157.109, 4510.904
1157.591, 4492.500
1158.073, 4456.936
1158.555, 4438.377
1159.037, 4413.037
1159.520, 4390.745
1160.002, 4361.784
1160.484, 4334.894
1160.966, 4314.741
1161.448, 4290.854
1161.930, 4261.112
1162.412, 4232.022
1162.894, 4220.248
1163.377, 4195.260
1163.859, 4165.479
1164.341, 4149.176
1164.823, 4151.138
1165.305, 4152.233
1165.787, 4153.732
1166.269, 4143.170
1166.751, 4108.727
1167.234, 4065.047
1167.716, 4058.209
1168.198, 4075.854
1168.680, 4078.573
1169.162, 4042.236
1169.644, 4021.730
1170.126, 4056.245
1170.608, 4089.466
1171.090, 4085.190
1171.573, 4050.562
1172.055, 4026.739
1172.537, 4012.459
1173.019, 4000.840
1173.501, 3984.094
1173.983, 3974.900
1174.465, 3979.884
1174.947, 3993.918
1175.430, 4018.029
1175.912, 4051.196
1176.394, 4059.729
1176.876, 4044.643
1177.358, 4031.496
1177.840, 4040.909
1178.322, 4051.879
1178.804, 4050.846
1179.286, 4045.382
1179.769, 4049.253
1180.251, 4062.933
1180.733, 4069.621
1181.215, 4067.808
1181.697, 4062.231
1182.179, 4047.836
1182.661, 4039.033
1183.143, 4053.831
1183.625, 4082.270
1184.108, 4089.097
1184.590, 4072.367
1185.072, 4067.117
1185.554, 4081.574
1186.036, 4097.633
1186.518, 4093.291
1187.000, 4087.462
1187.482, 4086.604
1187.965, 4072.775
1188.447, 4090.843
1188.929, 4101.167
1189.411, 4104.166
1189.893, 4077.893
1190.375, 4089.417
1190.857, 4085.795
1191.339, 4081.551
1191.822, 4098.396
1192.304, 4076.380
1192.786, 4092.890
1193.268, 4094.021
1193.750, 4102.191
1194.232, 4095.120
1194.714, 4092.756
1195.196, 4105.638
1195.678, 4110.079
1196.161, 4101.254
1196.643, 4109.871
1197.125, 4087.323
1197.607, 4092.123
1198.089, 4108.722
1198.571, 4100.663
1199.053, 4109.559
1199.535, 4111.997
1200.017, 4085.088
1200.500, 4109.218
1200.982, 4111.274
1201.464, 4090.668
1201.946, 4113.048
1202.428, 4095.566
1202.910, 4098.873
1203.392, 4096.534
1203.874, 4080.390
1204.357, 4100.438
1204.839, 4111.701
1205.321, 4114.650
1205.803, 4084.386
1206.285, 4097.010
1206.767, 4092.447
1207.249, 4087.179
1207.731, 4105.839
1208.214, 4080.406
1208.696, 4098.687
1209.178, 4099.518
1209.660, 4108.335
1210.142, 4099.859
1210.624, 4096.269
1211.106, 4127.238
1211.588, 4120.262
1212.070, 4132.836
1212.552, 4103.782
1213.035, 4143.975
1213.517, 4167.356
1213.999, 4174.833
1214.481, 4118.765
1214.963, 4144.751
1215.445, 4145.437
1215.927, 4150.405
1216.409, 4175.166
1216.892, 4170.110
1217.374, 4124.848
1217.856, 4123.547
1218.338, 4196.081
1218.820, 4235.709
1219.302, 4192.329
1219.784, 4126.324
1220.266, 4135.744
1220.749, 4183.180
1221.231, 4211.875
1221.713, 4206.853
1222.195, 4211.382
1222.677, 4234.433
1223.159, 4243.814
1223.641, 4217.541
1224.123, 4181.507
1224.605, 4175.104
1225.088, 4187.257
1225.570, 4201.694
1226.052, 4218.002
1226.534, 4226.142
1227.016, 4224.365
1227.498, 4219.607
1227.980, 4208.722
1228.462, 4204.678
1228.944, 4244.311
1229.427, 4299.937
1229.909, 4319.542
1230.391, 4271.830
1230.873, 4235.112
1231.355, 4208.424
1231.837, 4198.113
1232.319, 4221.610
1232.801, 4253.524
1233.284, 4252.681
1233.766, 4235.609
1234.248, 4239.570
1234.730, 4287.348
1235.212, 4308.689
1235.694, 4298.219
1236.176, 4284.122
1236.658, 4287.844
1237.141, 4300.066
1237.623, 4315.740
1238.105, 4330.378
1238.587, 4330.341
1239.069, 4307.248
1239.551, 4299.266
1240.033, 4310.759
1240.515, 4322.930
1240.997, 4308.435
1241.479, 4296.298
1241.962, 4274.396
1242.444, 4309.554
1242.926, 4330.860
1243.408, 4339.057
1243.890, 4294.884
1244.372, 4318.336
1244.854, 4314.688
1245.336, 4309.928
1245.819, 4342.905
1246.301, 4306.350
1246.783, 4338.721
1247.265, 4343.578
1247.747, 4361.028
1248.229, 4351.209
1248.711, 4349.814
1249.193, 4375.694
1249.676, 4386.479
1250.158, 4373.521
1250.640, 4391.772
1251.122, 4354.264
1251.604, 4365.685
1252.086, 4398.217
1252.568, 4377.254
1253.050, 4422.360
1253.532, 4462.595
1254.015, 4462.124
1254.497, 4447.850
1254.979, 4431.866
1255.461, 4418.111
1255.943, 4420.017
1256.425, 4436.168
1256.907, 4447.376
1257.389, 4449.062
1257.871, 4451.577
1258.354, 4461.511
1258.836, 4474.587
1259.318, 4489.936
1259.800, 4505.329
1260.282, 4515.199
1260.764, 4519.155
1261.246, 4513.197
1261.728, 4494.060
1262.211, 4480.869
1262.693, 4492.124
1263.175, 4502.296
1263.657, 4499.111
1264.139, 4487.396
1264.621, 4477.676
1265.103, 4471.798
1265.585, 4477.808
1266.068, 4501.517
1266.550, 4517.798
1267.032, 4510.552
1267.514, 4504.539
1267.996, 4511.426
1268.478, 4523.954
1268.960, 4518.117
1269.442, 4505.057
1269.924, 4515.702
1270.407, 4570.735
1270.889, 4590.697
1271.371, 4544.694
1271.853, 4509.240
1272.335, 4524.956
1272.817, 4562.363
1273.299, 4563.259
1273.781, 4546.292
1274.264, 4544.960
1274.746, 4571.343
1275.228, 4590.996
1275.710, 4604.273
1276.192, 4592.098
1276.674, 4612.791
1277.156, 4620.312
1277.638, 4634.354
1278.120, 4633.986
1278.603, 4634.469
1279.085, 4625.842
1279.567, 4615.099
1280.049, 4600.559
1280.531, 4601.333
1281.013, 4639.862
1281.495, 4676.128
1281.977, 4656.327
1282.459, 4618.521
1282.942, 4613.816
1283.424, 4647.019
1283.906, 4650.907
1284.388, 4626.271
1284.870, 4609.777
1285.352, 4621.506
1285.834, 4643.418
1286.316, 4673.060
1286.799, 4699.254
1287.281, 4711.876
1287.763, 4711.357
1288.245, 4705.998
1288.727, 4697.167
1289.209, 4694.243
1289.691, 4707.306
1290.173, 4717.338
##END=



