##NAMES=Bannisterite
##RRUFFID=R060817
##IDEAL CHEMISTRY=(Ca,K,Na)(Mn^2+^,Fe^2+^)_10_(Si,Al)_16_O_38_(OH)_8_&#183;nH_2_O
##LOCALITY=Broken Hill, New South Wales, Australia
##OWNER=RRUFF
##SOURCE=Bob Jenkins
##DESCRIPTION=Dark brown fragment with prominent cleavage
##STATUS=The identification of this mineral has been confirmed by X-ray diffraction and chemical analysis
##URL=rruff.info/R060817
##MEASURED CHEMISTRY=(K_0.65_Ca_0.32_Na_0.03_)_Σ=1_(Mn^2+^_5.37_Fe^2+^_4.48_Mg_0.15_)_Σ=10_(Si_14.68_Al_1.32_)_Σ=16_O_38_(OH)_8_·8.77H_2_O
169.7394, 1704.025
170.2215, 1697.889
170.7036, 1674.161
171.1857, 1656.076
171.6679, 1651.720
172.1500, 1644.937
172.6321, 1620.960
173.1142, 1584.982
173.5963, 1560.788
174.0784, 1566.691
174.5606, 1593.608
175.0427, 1602.804
175.5248, 1582.180
176.0069, 1556.701
176.4890, 1538.415
176.9711, 1526.781
177.4533, 1519.351
177.9354, 1515.812
178.4175, 1515.355
178.8996, 1514.415
179.3817, 1512.384
179.8638, 1510.486
180.3460, 1510.870
180.8281, 1512.841
181.3102, 1510.851
181.7923, 1497.857
182.2744, 1480.942
182.7565, 1478.762
183.2387, 1502.845
183.7208, 1527.756
184.2029, 1533.756
184.6850, 1523.199
185.1671, 1514.411
185.6492, 1519.051
186.1314, 1529.809
186.6135, 1529.582
187.0956, 1511.983
187.5777, 1492.477
188.0598, 1480.064
188.5419, 1474.673
189.0241, 1477.364
189.5062, 1495.238
189.9883, 1517.438
190.4704, 1523.883
190.9525, 1508.131
191.4346, 1487.128
191.9168, 1470.178
192.3989, 1457.397
192.8810, 1450.869
193.3631, 1455.108
193.8452, 1463.921
194.3273, 1466.682
194.8095, 1461.592
195.2916, 1454.292
195.7737, 1443.395
196.2558, 1430.736
196.7379, 1433.614
197.2200, 1470.192
197.7022, 1516.114
198.1843, 1535.481
198.6664, 1522.269
199.1485, 1500.091
199.6306, 1481.594
200.1127, 1466.840
200.5949, 1456.526
201.0770, 1450.466
201.5591, 1450.123
202.0412, 1457.114
202.5233, 1472.989
203.0054, 1488.705
203.4876, 1441.880
203.9697, 1472.154
204.4518, 1487.962
204.9339, 1490.080
205.4160, 1437.510
205.8981, 1455.559
206.3803, 1445.306
206.8624, 1433.893
207.3445, 1461.881
207.8266, 1417.265
208.3087, 1444.628
208.7908, 1443.259
209.2730, 1444.737
209.7551, 1447.544
210.2372, 1447.445
210.7193, 1445.299
211.2014, 1440.375
211.6835, 1433.602
212.1657, 1428.382
212.6478, 1426.870
213.1299, 1424.466
213.6120, 1414.194
214.0941, 1397.052
214.5762, 1384.539
215.0584, 1386.361
215.5405, 1396.734
216.0226, 1399.555
216.5047, 1389.228
216.9868, 1378.493
217.4689, 1382.083
217.9511, 1396.783
218.4332, 1406.992
218.9153, 1400.619
219.3974, 1386.830
219.8795, 1385.484
220.3616, 1402.280
220.8438, 1420.156
221.3259, 1424.163
221.8080, 1417.639
222.2901, 1408.185
222.7722, 1391.330
223.2543, 1375.329
223.7365, 1376.853
224.2186, 1400.735
224.7007, 1422.941
225.1828, 1419.924
225.6649, 1400.857
226.1470, 1388.039
226.6292, 1392.095
227.1113, 1401.921
227.5934, 1403.335
228.0755, 1395.333
228.5576, 1388.404
229.0397, 1391.479
229.5219, 1400.375
230.0040, 1404.637
230.4861, 1397.010
230.9682, 1389.026
231.4503, 1393.058
231.9324, 1408.803
232.4146, 1424.235
232.8967, 1433.556
233.3788, 1437.625
233.8609, 1439.814
234.3430, 1440.361
234.8251, 1438.877
235.3073, 1433.124
235.7894, 1424.118
236.2715, 1418.717
236.7536, 1422.622
237.2357, 1429.889
237.7178, 1427.363
238.2000, 1410.219
238.6821, 1393.977
239.1642, 1385.029
239.6463, 1383.145
240.1284, 1389.046
240.6105, 1405.815
241.0927, 1426.115
241.5748, 1436.848
242.0569, 1437.452
242.5390, 1433.789
243.0211, 1424.746
243.5033, 1413.326
243.9854, 1405.451
244.4675, 1403.050
244.9496, 1403.410
245.4317, 1402.159
245.9138, 1398.487
246.3960, 1398.321
246.8781, 1405.485
247.3602, 1415.812
247.8423, 1425.773
248.3244, 1434.912
248.8065, 1439.125
249.2887, 1432.234
249.7708, 1412.452
250.2529, 1394.852
250.7350, 1376.476
251.2171, 1363.157
251.6992, 1362.131
252.1814, 1373.310
252.6635, 1388.216
253.1456, 1400.535
253.6277, 1409.925
254.1098, 1414.794
254.5919, 1413.602
255.0741, 1409.513
255.5562, 1403.865
256.0383, 1396.862
256.5204, 1388.092
257.0025, 1376.388
257.4846, 1362.584
257.9668, 1356.215
258.4489, 1357.856
258.9310, 1364.645
259.4131, 1381.389
259.8952, 1402.349
260.3773, 1415.934
260.8595, 1415.744
261.3416, 1404.798
261.8237, 1394.310
262.3058, 1383.061
262.7879, 1373.692
263.2701, 1362.676
263.7522, 1354.978
264.2343, 1359.820
264.7164, 1380.561
265.1985, 1407.692
265.6806, 1421.974
266.1628, 1416.106
266.6449, 1406.671
267.1270, 1386.008
267.6091, 1366.512
268.0912, 1360.629
268.5733, 1369.969
269.0555, 1384.687
269.5376, 1391.408
270.0197, 1385.933
270.5018, 1384.651
270.9839, 1394.673
271.4660, 1402.155
271.9482, 1395.002
272.4303, 1376.200
272.9124, 1360.397
273.3945, 1363.024
273.8766, 1386.438
274.3587, 1398.244
274.8409, 1386.137
275.3230, 1374.213
275.8051, 1368.399
276.2872, 1368.257
276.7693, 1372.145
277.2514, 1379.785
277.7336, 1389.953
278.2157, 1395.714
278.6978, 1394.857
279.1799, 1392.212
279.6620, 1387.859
280.1441, 1382.887
280.6263, 1377.620
281.1084, 1371.798
281.5905, 1368.041
282.0726, 1373.837
282.5547, 1395.894
283.0368, 1409.821
283.5190, 1402.968
284.0011, 1391.106
284.4832, 1385.520
284.9653, 1388.865
285.4474, 1397.111
285.9295, 1410.817
286.4117, 1431.819
286.8938, 1434.443
287.3759, 1391.701
287.8580, 1349.937
288.3401, 1343.345
288.8222, 1369.448
289.3044, 1396.190
289.7865, 1398.271
290.2686, 1381.219
290.7507, 1371.438
291.2328, 1372.363
291.7149, 1377.900
292.1971, 1384.922
292.6792, 1393.073
293.1613, 1401.430
293.6434, 1412.674
294.1255, 1422.774
294.6076, 1422.572
295.0898, 1410.057
295.5719, 1400.831
296.0540, 1407.140
296.5361, 1422.696
297.0182, 1434.966
297.5003, 1444.029
297.9825, 1447.425
298.4646, 1439.110
298.9467, 1421.439
299.4288, 1408.168
299.9109, 1406.002
300.3930, 1410.557
300.8752, 1412.484
301.3573, 1410.150
301.8394, 1409.694
302.3215, 1415.221
302.8036, 1423.681
303.2857, 1430.700
303.7679, 1435.430
304.2500, 1436.383
304.7321, 1430.162
305.2142, 1413.943
305.6963, 1402.874
306.1784, 1397.792
306.6606, 1398.344
307.1427, 1407.689
307.6248, 1424.478
308.1069, 1439.907
308.5890, 1447.232
309.0711, 1446.378
309.5533, 1435.438
310.0354, 1400.891
310.5175, 1372.107
310.9996, 1362.784
311.4817, 1367.863
311.9638, 1376.818
312.4460, 1384.190
312.9281, 1389.201
313.4102, 1388.693
313.8923, 1375.141
314.3744, 1365.198
314.8565, 1364.086
315.3387, 1365.253
315.8208, 1359.679
316.3029, 1345.237
316.7850, 1330.936
317.2671, 1332.364
317.7492, 1357.132
318.2314, 1377.545
318.7135, 1399.271
319.1956, 1411.661
319.6777, 1401.621
320.1598, 1373.609
320.6419, 1348.225
321.1241, 1346.194
321.6062, 1366.161
322.0883, 1375.781
322.5704, 1366.873
323.0525, 1357.824
323.5346, 1356.411
324.0168, 1359.959
324.4989, 1363.689
324.9810, 1365.498
325.4631, 1366.056
325.9452, 1364.864
326.4273, 1359.991
326.9095, 1362.190
327.3916, 1388.690
327.8737, 1417.975
328.3558, 1423.364
328.8379, 1394.757
329.3200, 1367.794
329.8022, 1377.506
330.2843, 1415.841
330.7664, 1440.309
331.2485, 1436.687
331.7306, 1422.571
332.2127, 1418.608
332.6949, 1424.250
333.1770, 1429.167
333.6591, 1428.112
334.1412, 1425.624
334.6233, 1428.822
335.1054, 1438.409
335.5876, 1446.960
336.0697, 1448.271
336.5518, 1442.489
337.0339, 1437.650
337.5160, 1434.828
337.9981, 1431.880
338.4803, 1423.901
338.9624, 1414.862
339.4445, 1415.541
339.9266, 1432.184
340.4087, 1458.651
340.8908, 1477.881
341.3730, 1483.535
341.8551, 1489.660
342.3372, 1503.097
342.8193, 1513.664
343.3014, 1507.549
343.7835, 1483.754
344.2657, 1457.899
344.7478, 1449.906
345.2299, 1464.029
345.7120, 1478.086
346.1941, 1498.106
346.6762, 1512.478
347.1584, 1511.166
347.6405, 1500.068
348.1226, 1493.415
348.6047, 1501.596
349.0868, 1520.807
349.5689, 1534.609
350.0511, 1540.867
350.5332, 1545.390
351.0153, 1546.954
351.4974, 1549.168
351.9795, 1557.734
352.4616, 1575.134
352.9438, 1591.498
353.4259, 1590.494
353.9080, 1571.800
354.3901, 1567.153
354.8722, 1593.249
355.3543, 1624.016
355.8365, 1633.124
356.3186, 1622.980
356.8007, 1619.287
357.2828, 1644.306
357.7649, 1680.497
358.2470, 1694.577
358.7292, 1682.283
359.2113, 1665.645
359.6934, 1659.309
360.1755, 1661.578
360.6576, 1662.736
361.1397, 1660.276
361.6219, 1658.823
362.1040, 1663.061
362.5861, 1670.384
363.0682, 1672.800
363.5503, 1666.021
364.0324, 1656.460
364.5146, 1657.563
364.9967, 1677.834
365.4788, 1692.772
365.9609, 1699.101
366.4430, 1701.055
366.9251, 1701.825
367.4073, 1701.934
367.8894, 1700.272
368.3715, 1695.099
368.8536, 1685.925
369.3357, 1681.731
369.8178, 1690.174
370.3000, 1695.406
370.7821, 1688.488
371.2642, 1676.726
371.7463, 1672.633
372.2284, 1682.833
372.7105, 1699.841
373.1927, 1706.091
373.6748, 1695.920
374.1569, 1691.874
374.6390, 1707.439
375.1211, 1724.119
375.6032, 1729.000
376.0854, 1721.195
376.5675, 1710.349
377.0496, 1703.674
377.5317, 1700.209
378.0138, 1694.495
378.4959, 1683.566
378.9781, 1676.439
379.4602, 1686.551
379.9423, 1705.272
380.4244, 1713.317
380.9065, 1696.267
381.3886, 1676.180
381.8708, 1676.689
382.3529, 1692.787
382.8350, 1696.957
383.3171, 1672.448
383.7992, 1637.783
384.2813, 1636.443
384.7635, 1685.258
385.2456, 1717.363
385.7277, 1711.454
386.2098, 1689.530
386.6919, 1670.090
387.1740, 1657.110
387.6562, 1650.839
388.1383, 1652.734
388.6204, 1663.634
389.1025, 1667.690
389.5846, 1659.466
390.0667, 1650.915
390.5489, 1644.397
391.0310, 1639.918
391.5131, 1637.121
391.9952, 1635.829
392.4773, 1636.039
392.9594, 1637.985
393.4416, 1642.300
393.9237, 1646.496
394.4058, 1650.470
394.8879, 1654.082
395.3700, 1658.013
395.8521, 1661.848
396.3343, 1663.451
396.8164, 1658.834
397.2985, 1650.553
397.7806, 1648.143
398.2627, 1652.943
398.7448, 1659.810
399.2270, 1669.438
399.7091, 1678.248
400.1912, 1678.602
400.6733, 1662.597
401.1554, 1648.988
401.6375, 1657.585
402.1197, 1679.448
402.6018, 1685.115
403.0839, 1662.701
403.5660, 1633.026
404.0481, 1627.192
404.5302, 1654.568
405.0124, 1667.182
405.4945, 1647.414
405.9766, 1624.812
406.4587, 1621.937
406.9408, 1635.731
407.4229, 1649.535
407.9051, 1652.285
408.3872, 1645.562
408.8693, 1637.245
409.3514, 1621.653
409.8335, 1612.429
410.3156, 1614.098
410.7978, 1620.647
411.2799, 1627.216
411.7620, 1632.522
412.2441, 1637.243
412.7262, 1642.774
413.2083, 1649.203
413.6905, 1653.068
414.1726, 1657.479
414.6547, 1654.167
415.1368, 1632.109
415.6189, 1600.703
416.1010, 1579.899
416.5832, 1580.277
417.0653, 1589.971
417.5474, 1597.015
418.0295, 1601.360
418.5116, 1602.805
418.9937, 1601.875
419.4759, 1597.156
419.9580, 1584.328
420.4401, 1561.629
420.9222, 1543.021
421.4043, 1530.952
421.8864, 1524.987
422.3686, 1528.178
422.8507, 1538.944
423.3328, 1546.737
423.8149, 1542.672
424.2970, 1528.518
424.7791, 1522.475
425.2613, 1539.233
425.7434, 1546.133
426.2255, 1531.936
426.7076, 1508.513
427.1897, 1487.733
427.6718, 1473.176
428.1540, 1462.244
428.6361, 1450.552
429.1182, 1437.018
429.6003, 1431.664
430.0824, 1442.807
430.5645, 1452.838
431.0467, 1452.853
431.5288, 1446.023
432.0109, 1438.929
432.4930, 1433.166
432.9751, 1429.869
433.4572, 1432.589
433.9394, 1440.987
434.4215, 1445.574
434.9036, 1442.408
435.3857, 1434.943
435.8678, 1427.573
436.3499, 1420.076
436.8321, 1414.017
437.3142, 1410.337
437.7963, 1407.891
438.2784, 1404.945
438.7605, 1401.804
439.2426, 1401.852
439.7248, 1408.869
440.2069, 1420.059
440.6890, 1418.879
441.1711, 1384.586
441.6532, 1363.471
442.1353, 1367.559
442.6175, 1382.259
443.0996, 1396.393
443.5817, 1406.452
444.0638, 1411.721
444.5459, 1410.038
445.0280, 1401.237
445.5102, 1394.751
445.9923, 1392.179
446.4744, 1389.556
446.9565, 1384.448
447.4386, 1378.360
447.9207, 1373.231
448.4029, 1368.901
448.8850, 1367.492
449.3671, 1376.402
449.8492, 1392.002
450.3313, 1391.964
450.8134, 1365.290
451.2956, 1335.275
451.7777, 1331.503
452.2598, 1354.996
452.7419, 1375.416
453.2240, 1394.405
453.7061, 1405.576
454.1883, 1399.454
454.6704, 1381.718
455.1525, 1366.955
455.6346, 1362.537
456.1167, 1365.616
456.5988, 1370.040
457.0810, 1381.994
457.5631, 1383.459
458.0452, 1363.163
458.5273, 1342.755
459.0095, 1334.199
459.4916, 1338.007
459.9737, 1350.281
460.4558, 1373.763
460.9379, 1400.782
461.4200, 1404.652
461.9022, 1379.146
462.3843, 1353.323
462.8664, 1334.844
463.3485, 1324.250
463.8306, 1323.846
464.3127, 1335.596
464.7949, 1346.504
465.2770, 1347.949
465.7591, 1345.364
466.2412, 1346.773
466.7233, 1353.179
467.2054, 1363.015
467.6876, 1376.306
468.1697, 1392.215
468.6518, 1402.159
469.1339, 1405.657
469.6160, 1404.765
470.0981, 1394.964
470.5803, 1383.449
471.0624, 1377.901
471.5445, 1380.059
472.0266, 1387.101
472.5087, 1397.696
472.9908, 1412.263
473.4730, 1418.907
473.9551, 1412.748
474.4372, 1405.231
474.9193, 1399.296
475.4014, 1395.443
475.8835, 1394.432
476.3657, 1396.581
476.8478, 1401.214
477.3299, 1411.052
477.8120, 1423.543
478.2941, 1426.210
478.7762, 1414.016
479.2584, 1401.220
479.7405, 1402.807
480.2226, 1419.163
480.7047, 1430.033
481.1868, 1429.818
481.6689, 1429.528
482.1511, 1435.019
482.6332, 1443.964
483.1153, 1453.443
483.5974, 1462.245
484.0795, 1466.795
484.5616, 1459.516
485.0438, 1434.053
485.5259, 1419.075
486.0080, 1421.867
486.4901, 1428.561
486.9722, 1435.195
487.4543, 1441.936
487.9365, 1450.307
488.4186, 1461.921
488.9007, 1473.091
489.3828, 1476.116
489.8649, 1471.788
490.3470, 1475.539
490.8292, 1495.142
491.3113, 1517.305
491.7934, 1525.394
492.2755, 1520.500
492.7576, 1518.266
493.2397, 1527.180
493.7219, 1533.925
494.2040, 1524.175
494.6861, 1505.178
495.1682, 1496.911
495.6503, 1508.712
496.1324, 1529.070
496.6146, 1534.875
497.0967, 1515.039
497.5788, 1507.855
498.0609, 1520.566
498.5430, 1538.221
499.0251, 1557.604
499.5073, 1576.270
499.9894, 1591.362
500.4715, 1603.100
500.9536, 1607.325
501.4357, 1589.134
501.9178, 1548.311
502.4000, 1530.399
502.8821, 1557.971
503.3642, 1597.494
503.8463, 1606.923
504.3284, 1588.703
504.8105, 1577.970
505.2927, 1588.250
505.7748, 1602.150
506.2569, 1607.583
506.7390, 1606.272
507.2211, 1603.258
507.7032, 1600.534
508.1854, 1600.442
508.6675, 1608.818
509.1496, 1633.471
509.6317, 1647.159
510.1138, 1639.526
510.5959, 1631.549
511.0781, 1636.470
511.5602, 1648.138
512.0423, 1650.283
512.5244, 1631.168
513.0065, 1607.846
513.4886, 1608.356
513.9708, 1631.803
514.4529, 1650.774
514.9350, 1657.961
515.4171, 1660.035
515.8992, 1664.681
516.3813, 1671.591
516.8635, 1673.707
517.3456, 1660.535
517.8277, 1651.528
518.3098, 1662.095
518.7919, 1685.180
519.2740, 1706.836
519.7562, 1721.476
520.2383, 1729.430
520.7204, 1729.826
521.2025, 1718.932
521.6846, 1714.519
522.1667, 1722.214
522.6489, 1730.988
523.1310, 1737.199
523.6131, 1741.838
524.0952, 1747.612
524.5773, 1756.578
525.0594, 1763.375
525.5416, 1760.457
526.0237, 1749.693
526.5058, 1738.585
526.9879, 1726.752
527.4700, 1722.159
527.9521, 1737.273
528.4343, 1770.869
528.9164, 1785.057
529.3985, 1756.809
529.8806, 1735.704
530.3627, 1749.991
530.8448, 1778.255
531.3270, 1793.013
531.8091, 1786.395
532.2912, 1764.349
532.7733, 1727.479
533.2554, 1674.971
533.7375, 1655.075
534.2197, 1694.045
534.7018, 1723.528
535.1839, 1706.015
535.6660, 1671.141
536.1481, 1654.753
536.6302, 1665.454
537.1124, 1682.560
537.5945, 1698.458
538.0766, 1709.342
538.5587, 1703.659
539.0408, 1680.740
539.5229, 1659.843
540.0051, 1654.724
540.4872, 1662.637
540.9693, 1670.273
541.4514, 1683.581
541.9335, 1688.633
542.4156, 1680.703
542.8978, 1666.868
543.3799, 1650.280
543.8620, 1632.897
544.3441, 1618.992
544.8262, 1613.932
545.3083, 1612.802
545.7905, 1596.505
546.2726, 1559.739
546.7547, 1540.145
547.2368, 1564.048
547.7189, 1596.712
548.2010, 1592.285
548.6832, 1550.007
549.1653, 1518.702
549.6474, 1521.433
550.1295, 1531.807
550.6116, 1529.245
551.0938, 1515.954
551.5759, 1501.457
552.0580, 1489.848
552.5401, 1479.048
553.0222, 1463.705
553.5043, 1438.387
553.9865, 1425.459
554.4686, 1435.999
554.9507, 1448.460
555.4328, 1456.994
555.9149, 1461.592
556.3970, 1463.297
556.8792, 1462.789
557.3613, 1458.447
557.8434, 1443.177
558.3255, 1422.184
558.8076, 1417.387
559.2897, 1434.748
559.7719, 1450.705
560.2540, 1442.903
560.7361, 1413.936
561.2182, 1399.830
561.7003, 1412.699
562.1824, 1422.566
562.6646, 1417.375
563.1467, 1410.035
563.6288, 1416.178
564.1109, 1435.844
564.5930, 1454.794
565.0751, 1461.800
565.5573, 1457.872
566.0394, 1444.149
566.5215, 1416.247
567.0036, 1397.712
567.4857, 1402.753
567.9678, 1416.260
568.4500, 1417.464
568.9321, 1405.265
569.4142, 1398.999
569.8963, 1405.281
570.3784, 1418.615
570.8605, 1439.096
571.3427, 1462.909
571.8248, 1479.994
572.3069, 1485.876
572.7890, 1486.298
573.2711, 1491.359
573.7532, 1502.752
574.2354, 1512.400
574.7175, 1516.296
575.1996, 1523.159
575.6817, 1541.003
576.1638, 1562.759
576.6459, 1575.025
577.1281, 1571.083
577.6102, 1567.987
578.0923, 1586.735
578.5744, 1615.049
579.0565, 1620.586
579.5386, 1598.949
580.0208, 1578.655
580.5029, 1581.234
580.9850, 1602.734
581.4671, 1621.339
581.9492, 1642.029
582.4313, 1652.583
582.9135, 1637.310
583.3956, 1623.307
583.8777, 1638.195
584.3598, 1675.280
584.8419, 1701.890
585.3240, 1692.655
585.8062, 1666.474
586.2883, 1657.286
586.7704, 1664.781
587.2525, 1672.287
587.7346, 1663.033
588.2167, 1655.198
588.6989, 1696.305
589.1810, 1723.778
589.6631, 1738.351
590.1452, 1701.395
590.6273, 1730.981
591.1094, 1733.898
591.5916, 1735.726
592.0737, 1774.677
592.5558, 1745.214
593.0379, 1783.577
593.5200, 1787.261
594.0021, 1819.808
594.4843, 1839.809
594.9664, 1844.619
595.4485, 1844.549
595.9306, 1838.245
596.4127, 1832.762
596.8948, 1809.961
597.3770, 1854.186
597.8591, 1885.074
598.3412, 1903.350
598.8233, 1871.228
599.3054, 1904.183
599.7875, 1911.057
600.2697, 1916.867
600.7518, 1958.980
601.2339, 1934.188
601.7160, 1975.727
602.1981, 2005.087
602.6802, 2026.486
603.1624, 2024.451
603.6445, 2022.916
604.1266, 2028.667
604.6087, 2043.121
605.0908, 2072.072
605.5729, 2122.625
606.0551, 2165.737
606.5372, 2179.997
607.0193, 2179.823
607.5014, 2181.861
607.9835, 2188.920
608.4656, 2204.308
608.9478, 2231.111
609.4299, 2264.338
609.9120, 2289.369
610.3941, 2300.928
610.8762, 2316.006
611.3583, 2336.489
611.8405, 2359.697
612.3226, 2384.028
612.8047, 2410.125
613.2868, 2439.698
613.7689, 2473.063
614.2510, 2510.489
614.7332, 2558.458
615.2153, 2609.518
615.6974, 2645.109
616.1795, 2662.258
616.6616, 2674.798
617.1437, 2692.125
617.6259, 2715.076
618.1080, 2749.148
618.5901, 2806.677
619.0722, 2856.443
619.5543, 2893.513
620.0364, 2924.751
620.5186, 2951.980
621.0007, 2977.181
621.4828, 3004.735
621.9649, 3036.021
622.4470, 3071.997
622.9291, 3115.913
623.4113, 3165.981
623.8934, 3215.479
624.3755, 3263.161
624.8576, 3306.451
625.3397, 3341.274
625.8218, 3368.444
626.3040, 3402.084
626.7861, 3447.667
627.2682, 3493.003
627.7503, 3533.951
628.2324, 3576.463
628.7145, 3626.363
629.1967, 3683.117
629.6788, 3740.355
630.1609, 3796.883
630.6430, 3849.627
631.1251, 3890.224
631.6072, 3921.090
632.0894, 3959.352
632.5715, 4011.898
633.0536, 4061.066
633.5357, 4083.568
634.0178, 4077.435
634.4999, 4100.747
634.9821, 4179.773
635.4642, 4253.436
635.9463, 4314.121
636.4284, 4362.205
636.9105, 4394.647
637.3926, 4413.602
637.8748, 4431.344
638.3569, 4457.205
638.8390, 4486.350
639.3211, 4509.702
639.8032, 4528.062
640.2853, 4549.853
640.7675, 4579.098
641.2496, 4606.685
641.7317, 4620.872
642.2138, 4620.386
642.6959, 4623.553
643.1780, 4638.061
643.6602, 4646.399
644.1423, 4643.763
644.6244, 4633.768
645.1065, 4618.092
645.5886, 4598.194
646.0707, 4578.669
646.5529, 4564.864
647.0350, 4552.473
647.5171, 4535.759
647.9992, 4514.367
648.4813, 4485.266
648.9634, 4447.698
649.4456, 4400.671
649.9277, 4339.589
650.4098, 4262.263
650.8919, 4203.337
651.3740, 4185.456
651.8561, 4157.043
652.3383, 4100.466
652.8204, 4033.283
653.3025, 3974.397
653.7846, 3924.681
654.2667, 3866.748
654.7488, 3781.061
655.2310, 3685.641
655.7131, 3611.297
656.1952, 3553.262
656.6773, 3484.195
657.1594, 3393.812
657.6415, 3305.008
658.1237, 3248.295
658.6058, 3226.013
659.0879, 3171.932
659.5700, 3048.140
660.0521, 2941.292
660.5342, 2874.900
661.0164, 2824.148
661.4985, 2770.996
661.9806, 2712.306
662.4627, 2646.933
662.9448, 2566.847
663.4269, 2486.154
663.9091, 2425.231
664.3912, 2378.960
664.8733, 2329.046
665.3554, 2270.188
665.8375, 2214.600
666.3196, 2175.815
666.8018, 2152.838
667.2839, 2121.418
667.7660, 2072.495
668.2481, 2030.273
668.7302, 2005.983
669.2123, 1983.604
669.6945, 1949.505
670.1766, 1905.180
670.6587, 1863.481
671.1408, 1831.654
671.6229, 1801.980
672.1050, 1763.252
672.5872, 1722.863
673.0693, 1697.590
673.5514, 1690.082
674.0335, 1687.336
674.5156, 1678.654
674.9977, 1664.575
675.4799, 1647.382
675.9620, 1625.134
676.4441, 1604.847
676.9262, 1587.703
677.4083, 1573.106
677.8904, 1564.568
678.3726, 1558.786
678.8547, 1543.026
679.3368, 1503.986
679.8189, 1468.635
680.3010, 1452.034
680.7831, 1446.388
681.2653, 1444.819
681.7474, 1444.500
682.2295, 1440.888
682.7116, 1430.938
683.1937, 1415.379
683.6758, 1393.322
684.1580, 1362.695
684.6401, 1343.999
685.1222, 1345.084
685.6043, 1348.829
686.0864, 1344.187
686.5685, 1332.409
687.0507, 1318.445
687.5328, 1299.718
688.0149, 1283.393
688.4970, 1271.552
688.9791, 1262.362
689.4612, 1253.357
689.9434, 1245.802
690.4255, 1244.644
690.9076, 1252.953
691.3897, 1262.376
691.8718, 1261.282
692.3539, 1250.918
692.8361, 1236.287
693.3182, 1216.404
693.8003, 1204.666
694.2824, 1211.732
694.7645, 1228.718
695.2466, 1234.604
695.7288, 1223.980
696.2109, 1214.004
696.6930, 1206.666
697.1751, 1197.894
697.6572, 1181.338
698.1393, 1163.986
698.6215, 1156.675
699.1036, 1162.542
699.5857, 1172.456
700.0678, 1182.885
700.5499, 1191.178
701.0320, 1190.404
701.5142, 1182.332
701.9963, 1177.661
702.4784, 1180.696
702.9605, 1189.203
703.4426, 1203.457
703.9247, 1226.455
704.4069, 1216.811
704.8890, 1139.784
705.3711, 1086.621
705.8532, 1101.559
706.3353, 1139.210
706.8174, 1162.942
707.2996, 1170.259
707.7817, 1168.724
708.2638, 1154.343
708.7459, 1138.533
709.2280, 1128.856
709.7101, 1123.256
710.1923, 1116.868
710.6744, 1109.459
711.1565, 1107.508
711.6386, 1118.841
712.1207, 1137.123
712.6028, 1139.271
713.0850, 1123.211
713.5671, 1111.138
714.0492, 1109.145
714.5313, 1108.887
715.0134, 1102.421
715.4955, 1091.052
715.9777, 1084.559
716.4598, 1083.549
716.9419, 1086.243
717.4240, 1096.456
717.9061, 1106.818
718.3882, 1111.877
718.8704, 1112.220
719.3525, 1111.014
719.8346, 1109.873
720.3167, 1106.774
720.7988, 1096.972
721.2809, 1083.908
721.7631, 1079.502
722.2452, 1084.044
722.7273, 1079.586
723.2094, 1053.765
723.6915, 1021.717
724.1736, 1016.942
724.6558, 1051.896
725.1379, 1069.222
725.6200, 1055.527
726.1021, 1041.797
726.5842, 1038.703
727.0663, 1041.927
727.5485, 1047.527
728.0306, 1055.246
728.5127, 1060.757
728.9948, 1061.432
729.4769, 1060.162
729.9590, 1057.680
730.4412, 1055.345
730.9233, 1056.580
731.4054, 1061.680
731.8875, 1065.582
732.3696, 1063.682
732.8517, 1056.582
733.3339, 1044.188
733.8160, 1025.732
734.2981, 1014.931
734.7802, 1017.816
735.2623, 1022.405
735.7444, 1015.725
736.2266, 999.3399
736.7087, 993.7653
737.1908, 1010.192
737.6729, 1021.246
738.1550, 1014.846
738.6371, 1010.341
739.1193, 1028.311
739.6014, 1059.106
740.0835, 1074.971
740.5656, 1062.501
741.0477, 1043.008
741.5298, 1029.701
742.0120, 1023.229
742.4941, 1031.448
742.9762, 1050.014
743.4583, 1053.465
743.9404, 1027.965
744.4225, 991.1619
744.9047, 973.7145
745.3868, 977.1287
745.8689, 981.6614
746.3510, 986.8705
746.8331, 994.8339
747.3152, 1012.237
747.7974, 1028.408
748.2795, 1024.026
748.7616, 996.8018
749.2437, 983.2029
749.7258, 999.1851
750.2079, 1015.582
750.6901, 1021.966
751.1722, 1021.761
751.6543, 1017.342
752.1364, 1010.433
752.6185, 1005.556
753.1006, 1007.810
753.5828, 1010.371
754.0649, 1001.771
754.5470, 985.5454
755.0291, 972.3219
755.5112, 964.0970
755.9933, 961.4647
756.4755, 965.4338
756.9576, 974.0621
757.4397, 982.1603
757.9218, 991.2404
758.4039, 994.1531
758.8860, 986.2425
759.3682, 978.2171
759.8503, 975.5710
760.3324, 976.4885
760.8145, 979.0791
761.2966, 984.2684
761.7787, 986.5703
762.2609, 981.9717
762.7430, 976.8322
763.2251, 975.7612
763.7072, 976.5103
764.1893, 974.9960
764.6714, 970.3924
765.1536, 965.5505
765.6357, 964.7001
766.1178, 963.8845
766.5999, 953.4374
767.0820, 935.4694
767.5641, 920.5896
768.0463, 911.2449
768.5284, 908.4797
769.0105, 913.8755
769.4926, 926.1981
769.9747, 939.9864
770.4568, 958.6191
770.9390, 969.4700
771.4211, 966.1462
771.9032, 960.8862
772.3853, 961.9139
772.8674, 966.0330
773.3495, 966.2872
773.8317, 960.0932
774.3138, 955.7322
774.7959, 958.7121
775.2780, 961.0856
775.7601, 956.6455
776.2422, 947.8813
776.7244, 937.1108
777.2065, 925.8984
777.6886, 922.2957
778.1707, 942.1331
778.6528, 970.1387
779.1349, 973.6211
779.6171, 957.6761
780.0992, 949.1392
780.5813, 955.4023
781.0634, 965.4021
781.5455, 969.5250
782.0276, 967.6738
782.5098, 957.0854
782.9919, 931.4263
783.4740, 918.4245
783.9561, 930.0508
784.4382, 943.7106
784.9203, 942.4760
785.4025, 932.2357
785.8846, 927.8305
786.3667, 932.1310
786.8488, 936.4835
787.3309, 939.7955
787.8130, 942.2396
788.2952, 942.0509
788.7773, 941.7900
789.2594, 946.3105
789.7415, 956.5406
790.2236, 966.5176
790.7057, 974.5984
791.1879, 978.0031
791.6700, 967.9031
792.1521, 950.0135
792.6342, 943.1656
793.1163, 951.2242
793.5984, 960.8633
794.0806, 960.5317
794.5627, 952.7344
795.0448, 945.2421
795.5269, 937.6796
796.0090, 934.4633
796.4911, 938.8483
796.9733, 940.7836
797.4554, 931.8149
797.9375, 916.7578
798.4196, 909.0666
798.9017, 916.2678
799.3839, 913.7577
799.8660, 889.1057
800.3481, 868.7812
800.8302, 868.2366
801.3123, 875.6816
801.7944, 876.3281
802.2766, 868.0638
802.7587, 857.9620
803.2408, 841.0124
803.7229, 831.9940
804.2050, 848.8575
804.6871, 878.7187
805.1693, 906.0296
805.6514, 925.2005
806.1335, 927.0397
806.6156, 901.7477
807.0977, 868.9429
807.5798, 867.2686
808.0620, 891.4310
808.5441, 905.5590
809.0262, 905.7297
809.5083, 903.9799
809.9904, 906.5708
810.4725, 910.8980
810.9547, 911.9803
811.4368, 908.9959
811.9189, 908.1869
812.4010, 910.8442
812.8831, 913.4417
813.3652, 915.3578
813.8474, 916.4313
814.3295, 916.6468
814.8116, 915.9619
815.2937, 913.9840
815.7758, 907.5538
816.2579, 903.9207
816.7401, 911.2106
817.2222, 917.2500
817.7043, 905.1885
818.1864, 883.6286
818.6685, 878.3129
819.1506, 901.1964
819.6328, 926.1705
820.1149, 931.7477
820.5970, 925.7104
821.0791, 916.8408
821.5612, 907.0280
822.0433, 898.1912
822.5255, 891.3827
823.0076, 891.5906
823.4897, 906.9801
823.9718, 932.1729
824.4539, 944.1072
824.9360, 942.3240
825.4182, 937.5056
825.9003, 931.0504
826.3824, 924.6680
826.8645, 918.8702
827.3466, 914.6985
827.8287, 916.5897
828.3109, 932.1579
828.7930, 937.3351
829.2751, 920.7869
829.7573, 907.4984
830.2394, 909.2016
830.7215, 918.4541
831.2036, 927.7250
831.6857, 936.7241
832.1678, 938.1596
832.6500, 919.5685
833.1321, 905.6804
833.6142, 914.2781
834.0963, 929.5500
834.5784, 934.2554
835.0605, 927.9378
835.5427, 919.2742
836.0248, 912.0410
836.5069, 905.4326
836.9890, 897.1103
837.4711, 889.5635
837.9532, 888.0515
838.4354, 891.7306
838.9175, 896.3724
839.3996, 900.1090
839.8817, 900.7462
840.3638, 891.9429
840.8459, 877.6289
841.3281, 882.9503
841.8102, 908.7186
842.2923, 927.2645
842.7744, 931.2658
843.2565, 926.4506
843.7386, 916.5587
844.2208, 902.7615
844.7029, 889.5280
845.1850, 873.5563
845.6671, 866.5726
846.1492, 871.6996
846.6313, 882.4139
847.1135, 903.4674
847.5956, 924.6601
848.0777, 929.1003
848.5598, 913.6783
849.0419, 900.1744
849.5240, 889.7672
850.0062, 883.9159
850.4883, 882.8693
850.9704, 886.7944
851.4525, 900.5314
851.9346, 920.1236
852.4167, 929.6813
852.8989, 916.9480
853.3810, 905.6179
853.8631, 918.1553
854.3452, 937.8383
854.8273, 943.8666
855.3094, 938.3386
855.7916, 931.2344
856.2737, 926.5775
856.7558, 925.2969
857.2379, 931.7066
857.7200, 940.7736
858.2021, 936.8508
858.6843, 923.1345
859.1664, 918.8694
859.6485, 928.3698
860.1306, 939.0895
860.6127, 940.3546
861.0948, 937.9589
861.5770, 952.8875
862.0591, 989.9445
862.5412, 998.7886
863.0233, 966.9889
863.5054, 939.6183
863.9875, 940.0773
864.4697, 951.7246
864.9518, 948.9025
865.4339, 929.3345
865.9160, 920.6792
866.3981, 937.0298
866.8802, 943.3611
867.3624, 919.4082
867.8445, 897.3307
868.3266, 904.0492
868.8087, 930.2700
869.2908, 948.1467
869.7729, 952.3041
870.2551, 951.8950
870.7372, 944.2105
871.2193, 937.8982
871.7014, 939.9091
872.1835, 945.9911
872.6656, 950.4268
873.1478, 951.9100
873.6299, 951.0024
874.1120, 944.6458
874.5941, 939.7776
875.0762, 943.3934
875.5583, 951.6537
876.0405, 960.1365
876.5226, 967.6852
877.0047, 975.1126
877.4868, 983.2114
877.9689, 984.3439
878.4510, 958.9120
878.9332, 922.4131
879.4153, 919.1496
879.8974, 944.5586
880.3795, 967.7233
880.8616, 979.2220
881.3438, 979.1200
881.8259, 965.1782
882.3080, 943.3628
882.7901, 932.7959
883.2722, 933.5897
883.7543, 944.7052
884.2365, 969.2643
884.7186, 986.9869
885.2007, 985.3429
885.6828, 974.7760
886.1649, 973.6089
886.6470, 983.6361
887.1292, 985.3490
887.6113, 974.7371
888.0934, 963.4561
888.5755, 944.2337
889.0576, 936.2836
889.5397, 965.9293
890.0219, 1021.646
890.5040, 1051.794
890.9861, 1042.777
891.4682, 1035.016
891.9503, 1031.108
892.4324, 1029.025
892.9146, 1029.245
893.3967, 1029.984
893.8788, 1028.647
894.3609, 1025.168
894.8430, 1022.937
895.3251, 1025.224
895.8073, 1026.217
896.2894, 1018.445
896.7715, 1012.066
897.2536, 1019.914
897.7357, 1037.047
898.2178, 1049.079
898.7000, 1050.529
899.1821, 1051.666
899.6642, 1065.374
900.1463, 1077.852
900.6284, 1068.232
901.1105, 1047.973
901.5927, 1043.199
902.0748, 1055.745
902.5569, 1063.135
903.0390, 1048.040
903.5211, 1029.132
904.0032, 1038.259
904.4854, 1062.986
904.9675, 1069.280
905.4496, 1057.851
905.9317, 1047.692
906.4138, 1046.333
906.8959, 1051.881
907.3781, 1064.526
907.8602, 1080.693
908.3423, 1085.707
908.8244, 1079.978
909.3065, 1074.500
909.7886, 1071.088
910.2708, 1067.700
910.7529, 1062.755
911.2350, 1058.087
911.7171, 1057.994
912.1992, 1063.119
912.6813, 1063.784
913.1635, 1057.574
913.6456, 1057.258
914.1277, 1071.940
914.6098, 1081.278
915.0919, 1060.578
915.5740, 1019.711
916.0562, 1010.346
916.5383, 1056.353
917.0204, 1080.519
917.5025, 1067.599
917.9846, 1052.594
918.4667, 1048.629
918.9489, 1051.100
919.4310, 1055.113
919.9131, 1060.725
920.3952, 1064.845
920.8773, 1066.098
921.3594, 1067.639
921.8416, 1074.949
922.3237, 1077.793
922.8058, 1060.918
923.2879, 1037.615
923.7700, 1036.676
924.2521, 1066.554
924.7343, 1087.846
925.2164, 1078.151
925.6985, 1071.075
926.1806, 1086.378
926.6627, 1109.188
927.1448, 1129.517
927.6270, 1142.772
928.1091, 1138.753
928.5912, 1106.520
929.0733, 1082.260
929.5554, 1095.345
930.0375, 1116.346
930.5197, 1121.868
931.0018, 1116.037
931.4839, 1105.919
931.9660, 1094.391
932.4481, 1085.572
932.9302, 1080.952
933.4124, 1081.772
933.8945, 1094.143
934.3766, 1109.639
934.8587, 1114.991
935.3408, 1112.327
935.8229, 1109.268
936.3051, 1109.060
936.7872, 1116.084
937.2693, 1141.781
937.7514, 1170.193
938.2335, 1170.837
938.7156, 1154.406
939.1978, 1149.433
939.6799, 1157.397
940.1620, 1158.818
940.6441, 1143.202
941.1262, 1125.689
941.6083, 1130.180
942.0905, 1148.478
942.5726, 1154.783
943.0547, 1149.992
943.5368, 1136.553
944.0189, 1115.935
944.5010, 1106.088
944.9832, 1121.674
945.4653, 1148.650
945.9474, 1158.348
946.4295, 1152.205
946.9116, 1144.628
947.3937, 1136.032
947.8759, 1133.880
948.3580, 1141.279
948.8401, 1148.962
949.3222, 1146.994
949.8043, 1139.543
950.2864, 1145.178
950.7686, 1166.140
951.2507, 1168.191
951.7328, 1143.885
952.2149, 1128.827
952.6970, 1142.354
953.1791, 1159.736
953.6613, 1146.141
954.1434, 1106.212
954.6255, 1096.185
955.1076, 1126.778
955.5897, 1144.129
956.0718, 1137.499
956.5540, 1127.073
957.0361, 1121.522
957.5182, 1122.305
958.0003, 1135.188
958.4824, 1163.008
958.9645, 1165.340
959.4467, 1125.606
959.9288, 1098.500
960.4109, 1097.143
960.8930, 1105.925
961.3751, 1120.387
961.8572, 1134.331
962.3394, 1130.094
962.8215, 1097.892
963.3036, 1086.824
963.7857, 1115.417
964.2678, 1136.156
964.7499, 1133.793
965.2321, 1123.787
965.7142, 1117.857
966.1963, 1114.449
966.6784, 1108.009
967.1605, 1099.119
967.6426, 1085.922
968.1248, 1057.576
968.6069, 1038.550
969.0890, 1036.818
969.5711, 1047.330
970.0532, 1074.183
970.5353, 1111.469
971.0175, 1126.500
971.4996, 1100.284
971.9817, 1081.525
972.4638, 1076.180
972.9459, 1077.837
973.4280, 1089.961
973.9102, 1103.516
974.3923, 1107.041
974.8744, 1100.976
975.3565, 1096.449
975.8386, 1100.640
976.3207, 1098.615
976.8029, 1081.569
977.2850, 1064.047
977.7671, 1053.474
978.2492, 1048.009
978.7313, 1044.982
979.2134, 1043.994
979.6956, 1043.778
980.1777, 1048.700
980.6598, 1047.907
981.1419, 1030.165
981.6240, 1013.647
982.1061, 1014.005
982.5883, 1023.187
983.0704, 1026.012
983.5525, 1020.038
984.0346, 1015.033
984.5167, 1015.256
984.9988, 1015.313
985.4810, 1015.264
985.9631, 1012.241
986.4452, 998.5294
986.9273, 981.7615
987.4094, 981.1897
987.8915, 1002.139
988.3737, 1010.272
988.8558, 983.1588
989.3379, 952.7935
989.8200, 928.8295
990.3021, 913.1754
990.7842, 913.2535
991.2664, 921.4196
991.7485, 919.0806
992.2306, 900.2744
992.7127, 885.2555
993.1948, 885.1246
993.6769, 887.6395
994.1591, 884.1437
994.6412, 881.5312
995.1233, 887.6421
995.6054, 900.9658
996.0875, 917.2562
996.5696, 937.1202
997.0518, 948.2069
997.5339, 940.3235
998.0160, 927.5588
998.4981, 910.5875
998.9802, 898.9424
999.4623, 907.1191
999.9445, 929.7763
1000.427, 948.9378
1000.909, 960.3418
1001.391, 961.9582
1001.873, 941.8174
1002.355, 923.8527
1002.837, 929.4999
1003.319, 941.3248
1003.801, 935.5032
1004.284, 916.1181
1004.766, 907.2091
1005.248, 919.7081
1005.730, 928.8443
1006.212, 913.0071
1006.694, 901.4871
1007.176, 923.1870
1007.658, 953.0297
1008.140, 959.0110
1008.623, 943.6589
1009.105, 929.9368
1009.587, 923.5699
1010.069, 925.2039
1010.551, 944.3761
1011.033, 961.3941
1011.515, 962.2166
1011.997, 954.5753
1012.479, 944.4774
1012.962, 935.2368
1013.444, 935.3581
1013.926, 952.7104
1014.408, 962.8186
1014.890, 947.1069
1015.372, 930.4993
1015.854, 926.9010
1016.336, 932.1239
1016.819, 945.3455
1017.301, 962.1525
1017.783, 968.0459
1018.265, 954.3339
1018.747, 942.8300
1019.229, 953.0240
1019.711, 954.6600
1020.193, 917.9130
1020.675, 871.9619
1021.158, 849.3628
1021.640, 849.8887
1022.122, 858.3748
1022.604, 877.5018
1023.086, 886.4899
1023.568, 866.0850
1024.050, 848.9876
1024.532, 856.6272
1025.015, 872.8327
1025.497, 878.8909
1025.979, 876.5269
1026.461, 880.2663
1026.943, 897.0944
1027.425, 908.9124
1027.907, 908.4388
1028.389, 905.5861
1028.871, 899.9495
1029.354, 897.8299
1029.836, 910.5609
1030.318, 932.7213
1030.800, 941.9088
1031.282, 931.1340
1031.764, 917.6359
1032.246, 900.7155
1032.728, 885.6155
1033.210, 867.2667
1033.693, 857.2834
1034.175, 876.0130
1034.657, 912.5908
1035.139, 925.9189
1035.621, 902.4418
1036.103, 883.6145
1036.585, 851.8688
1037.067, 871.2712
1037.550, 881.7792
1038.032, 883.8743
1038.514, 852.3511
1038.996, 864.2389
1039.478, 858.7294
1039.960, 852.5068
1040.442, 870.5043
1040.924, 843.8710
1041.406, 861.4844
1041.889, 861.4333
1042.371, 869.4681
1042.853, 859.9981
1043.335, 855.9349
1043.817, 869.3817
1044.299, 873.1331
1044.781, 861.6481
1045.263, 871.7128
1045.745, 881.9416
1046.228, 880.2759
1046.710, 872.3945
1047.192, 858.6180
1047.674, 844.8388
1048.156, 845.2088
1048.638, 861.9222
1049.120, 871.2208
1049.602, 873.2037
1050.085, 865.4140
1050.567, 842.2784
1051.049, 825.1160
1051.531, 828.7593
1052.013, 843.5535
1052.495, 853.1080
1052.977, 857.5112
1053.459, 860.1758
1053.942, 860.6267
1054.424, 864.1262
1054.906, 872.5718
1055.388, 876.1736
1055.870, 868.8669
1056.352, 857.8226
1056.834, 853.8454
1057.316, 855.1238
1057.798, 848.8308
1058.281, 835.5280
1058.763, 833.8311
1059.245, 845.9831
1059.727, 854.7310
1060.209, 852.1766
1060.691, 846.1682
1061.173, 846.8040
1061.655, 823.5984
1062.137, 840.0381
1062.620, 849.0188
1063.102, 850.8733
1063.584, 827.8126
1064.066, 834.2158
1064.548, 827.1559
1065.030, 818.4091
1065.512, 825.5803
1065.994, 800.0595
1066.477, 819.5632
1066.959, 821.4688
1067.441, 821.9746
1067.923, 821.4906
1068.405, 825.6862
1068.887, 834.9012
1069.369, 839.9993
1069.851, 833.5364
1070.333, 824.4900
1070.816, 825.7043
1071.298, 828.2881
1071.780, 816.4111
1072.262, 797.8694
1072.744, 788.5005
1073.226, 790.6703
1073.708, 799.6631
1074.190, 815.8969
1074.672, 826.7690
1075.155, 817.8096
1075.637, 805.4516
1076.119, 802.0118
1076.601, 785.4268
1077.083, 803.6760
1077.565, 813.6041
1078.047, 815.6579
1078.530, 786.2523
1079.012, 797.4697
1079.494, 792.4077
1079.976, 786.6784
1080.458, 803.6129
1080.940, 778.7844
1081.422, 795.3596
1081.904, 795.4070
1082.386, 803.0189
1082.869, 794.2493
1083.351, 813.0105
1083.833, 807.3899
1084.315, 799.9591
1084.797, 790.0597
1085.279, 785.4459
1085.761, 796.2800
1086.243, 812.3430
1086.725, 817.4053
1087.208, 811.3107
1087.690, 807.4620
1088.172, 805.9497
1088.654, 806.8390
1089.136, 812.9234
1089.618, 815.6871
1090.100, 810.4844
1090.582, 801.8822
1091.065, 793.7480
1091.547, 787.1380
1092.029, 787.7212
1092.511, 796.3430
1092.993, 808.6679
1093.475, 826.7273
1093.957, 831.4803
1094.439, 814.5851
1094.922, 798.8613
1095.404, 804.0627
1095.886, 820.0225
1096.368, 823.1797
1096.850, 815.6171
1097.332, 813.1569
1097.814, 815.8879
1098.296, 825.2559
1098.778, 840.3128
1099.260, 846.7593
1099.743, 835.8969
1100.225, 820.3903
1100.707, 816.5465
1101.189, 819.4794
1101.671, 819.9452
1102.153, 818.8814
1102.635, 817.1378
1103.117, 816.0226
1103.600, 820.8179
1104.082, 832.8268
1104.564, 841.2372
1105.046, 837.5394
1105.528, 827.0632
1106.010, 807.6160
1106.492, 790.0452
1106.974, 790.6299
1107.457, 801.0030
1107.939, 802.4628
1108.421, 793.2567
1108.903, 789.5118
1109.385, 801.7655
1109.867, 811.5550
1110.349, 810.4543
1110.831, 805.6906
1111.313, 796.9945
1111.796, 790.2579
1112.278, 795.1375
1112.760, 807.8840
1113.242, 811.8304
1113.724, 801.8195
1114.206, 792.9631
1114.688, 784.8610
1115.170, 779.9559
1115.652, 778.9749
1116.135, 781.2051
1116.617, 787.7480
1117.099, 795.8901
1117.581, 799.9661
1118.063, 799.7947
1118.545, 806.2165
1119.027, 823.9055
1119.509, 823.6268
1119.992, 796.4660
1120.474, 780.2780
1120.956, 794.4491
1121.438, 814.3819
1121.920, 810.8217
1122.402, 792.9751
1122.884, 789.4955
1123.366, 798.7155
1123.849, 810.9581
1124.331, 824.8867
1124.813, 838.0659
1125.295, 849.1723
1125.777, 852.0829
1126.259, 841.4421
1126.741, 828.4406
1127.223, 828.2719
1127.705, 834.6227
1128.188, 837.5656
1128.670, 839.2524
1129.152, 847.1744
1129.634, 858.6290
1130.116, 861.3383
1130.598, 850.8081
1131.080, 838.1369
1131.562, 825.5889
1132.044, 818.9897
1132.527, 833.0782
1133.009, 844.1683
1133.491, 819.8831
1133.973, 783.5383
1134.455, 777.9416
1134.937, 805.7305
1135.419, 830.2589
1135.901, 847.3405
1136.384, 856.5902
1136.866, 857.2209
1137.348, 850.7082
1137.830, 833.7413
1138.312, 813.8403
1138.794, 793.6389
1139.276, 777.4072
1139.758, 779.6151
1140.240, 804.4993
1140.723, 817.6766
1141.205, 818.3733
1141.687, 808.3876
1142.169, 785.1996
1142.651, 770.2639
1143.133, 776.6227
1143.615, 789.0831
1144.097, 787.1599
1144.579, 775.6208
1145.062, 770.1767
1145.544, 769.0797
1146.026, 761.2889
1146.508, 749.1650
1146.990, 751.0435
1147.472, 770.2188
1147.954, 786.3298
1148.436, 784.6379
1148.919, 777.7509
1149.401, 779.6385
1149.883, 783.0739
1150.365, 778.7429
1150.847, 770.6810
1151.329, 764.9283
1151.811, 761.8453
1152.293, 759.4448
1152.776, 757.1802
1153.258, 755.5049
1153.740, 757.1733
1154.222, 755.8890
1154.704, 743.6875
1155.186, 733.8578
1155.668, 738.9254
1156.150, 749.5494
1156.632, 749.2387
1157.115, 739.9182
1157.597, 743.0212
1158.079, 770.3961
1158.561, 777.1161
1159.043, 752.7307
1159.525, 736.7592
1160.007, 742.9487
1160.489, 750.7972
1160.971, 744.6573
1161.454, 731.8948
1161.936, 723.9625
1162.418, 722.2370
1162.900, 741.6933
1163.382, 777.1913
1163.864, 794.7105
1164.346, 791.4534
1164.828, 780.5529
1165.311, 767.7808
1165.793, 757.9273
1166.275, 755.9943
1166.757, 756.8571
1167.239, 753.2008
1167.721, 749.9785
1168.203, 756.7594
1168.685, 766.7366
1169.167, 765.1339
1169.650, 754.5001
1170.132, 753.2763
1170.614, 769.8699
1171.096, 781.1913
1171.578, 776.8338
1172.060, 769.3978
1172.542, 763.5532
1173.024, 755.8958
1173.506, 736.7607
1173.989, 719.0747
1174.471, 727.1397
1174.953, 757.3047
1175.435, 759.1503
1175.917, 719.6915
1176.399, 702.0198
1176.881, 712.3335
1177.363, 728.3601
1177.846, 745.1190
1178.328, 754.0540
1178.810, 748.1584
1179.292, 734.6877
1179.774, 723.0053
1180.256, 714.9639
1180.738, 720.7690
1181.220, 734.6255
1181.703, 738.6974
1182.185, 732.4800
1182.667, 723.0500
1183.149, 713.1868
1183.631, 703.8807
1184.113, 694.2964
1184.595, 688.6999
1185.077, 694.1947
1185.559, 700.8217
1186.042, 701.6544
1186.524, 697.9551
1187.006, 686.9973
1187.488, 673.8563
1187.970, 674.5938
1188.452, 694.6375
1188.934, 712.3137
1189.416, 730.3557
1189.898, 737.7040
1190.381, 727.2632
1190.863, 716.7233
1191.345, 713.8834
1191.827, 715.7716
1192.309, 720.0781
1192.791, 724.9984
1193.273, 723.6675
1193.755, 716.5414
1194.238, 709.7041
1194.720, 703.7663
1195.202, 702.9083
1195.684, 707.2560
1196.166, 711.3755
1196.648, 712.5246
1197.130, 710.4448
1197.612, 699.5574
1198.094, 691.4534
1198.577, 704.0569
1199.059, 722.5047
1199.541, 731.5681
1200.023, 731.8488
1200.505, 723.6692
1200.987, 709.8998
1201.469, 703.8899
1201.951, 714.7065
1202.433, 717.1122
1202.916, 695.3979
1203.398, 681.0265
1203.880, 688.9788
1204.362, 695.8451
1204.844, 685.9929
1205.326, 669.9317
1205.808, 663.7020
1206.290, 665.2433
1206.773, 660.4894
1207.255, 649.4272
1207.737, 636.5439
1208.219, 623.4308
1208.701, 635.2440
1209.183, 675.4761
1209.665, 702.9832
1210.147, 691.3183
1210.630, 673.2079
1211.112, 689.8572
1211.594, 715.8676
1212.076, 723.0650
1212.558, 717.9895
1213.040, 701.4186
1213.522, 683.2520
1214.004, 680.9169
1214.486, 695.9571
1214.969, 715.6102
1215.451, 748.3558
1215.933, 759.1667
1216.415, 719.6030
1216.897, 689.8463
1217.379, 687.8797
1217.861, 697.4136
1218.343, 713.4634
1218.825, 726.6093
1219.308, 719.5676
1219.790, 696.9570
1220.272, 689.3038
1220.754, 695.7597
1221.236, 703.3768
1221.718, 710.3482
1222.200, 708.9595
1222.682, 698.5632
1223.165, 691.4004
1223.647, 695.2714
1224.129, 699.7329
1224.611, 692.2481
1225.093, 682.8605
1225.575, 679.6028
1226.057, 681.5001
1226.539, 691.3032
1227.021, 703.2586
1227.504, 705.9423
1227.986, 699.6025
1228.468, 699.9169
1228.950, 718.5596
1229.432, 722.1245
1229.914, 697.5327
1230.396, 683.5397
1230.878, 691.5038
1231.360, 705.0596
1231.843, 716.3339
1232.325, 722.7334
1232.807, 720.1396
1233.289, 710.2963
1233.771, 696.4561
1234.253, 680.7329
1234.735, 672.2985
1235.217, 669.6874
1235.700, 663.9601
1236.182, 655.4253
1236.664, 656.1652
1237.146, 672.3742
1237.628, 685.9704
1238.110, 679.8342
1238.592, 674.8292
1239.074, 684.9982
1239.557, 698.0147
1240.039, 712.1715
1240.521, 718.6208
1241.003, 694.8381
1241.485, 653.9750
1241.967, 649.1652
1242.449, 688.4501
1242.931, 717.0022
1243.413, 734.9547
1243.896, 739.5814
1244.378, 729.8629
1244.860, 715.8321
1245.342, 701.7177
1245.824, 693.9560
1246.306, 699.9505
1246.788, 710.9959
1247.270, 715.3524
1247.752, 715.5732
1248.235, 714.0999
1248.717, 712.0231
1249.199, 712.0708
1249.681, 712.5041
1250.163, 705.0646
1250.645, 687.9865
1251.127, 685.2344
1251.609, 722.7939
1252.092, 741.7472
1252.574, 724.0231
1253.056, 705.9113
1253.538, 696.4844
1254.020, 693.9185
1254.502, 698.2656
1254.984, 705.1324
1255.466, 706.6790
1255.948, 704.1141
1256.431, 700.4733
1256.913, 697.7456
1257.395, 709.3383
1257.877, 729.3018
1258.359, 729.7247
1258.841, 709.0046
1259.323, 697.1030
1259.805, 709.4923
1260.287, 723.0522
1260.770, 724.8895
1261.252, 723.1238
1261.734, 715.5488
1262.216, 712.5894
1262.698, 728.3187
1263.180, 747.5252
1263.662, 751.1796
1264.144, 742.7210
1264.627, 733.7616
1265.109, 723.0878
1265.591, 729.2740
1266.073, 752.4791
1266.555, 764.3387
1267.037, 761.2911
1267.519, 756.2878
1268.001, 754.7314
1268.484, 758.7665
1268.966, 773.0530
1269.448, 783.9252
1269.930, 777.3517
1270.412, 761.2449
1270.894, 730.0083
1271.376, 704.1202
1271.858, 711.7281
1272.340, 739.7117
1272.823, 760.1616
##END=



