##NAMES=Baotite
##RRUFFID=R060414
##IDEAL CHEMISTRY=Ba_4_(Ti^4+^,Nb^5+^,W^6+^)_8_O_16_(SiO_3_)_4_Cl
##LOCALITY=Zagi Mountain, near Hammedabad, Khaffor Dehri, North-West Frontier Province, Pakistan
##OWNER=RRUFF
##SOURCE=Herb Obodda
##DESCRIPTION=Dark brown vitreous fragment
##STATUS=The identification of this mineral has been confirmed by X-ray diffraction and chemical analysis
##URL=rruff.info/R060414
##MEASURED CHEMISTRY=Ba_4.00_(Ti_6.54_Nb^5+^_1.23_Fe^3+^_0.23_)_Î£=8_O_16_(Si_1.00_O_3_)_4_Cl_1.00_
160.9945, 5753.378
161.4766, 5756.602
161.9587, 5768.614
162.4408, 5781.147
162.9229, 5795.411
163.4050, 5809.500
163.8871, 5820.989
164.3693, 5829.065
164.8514, 5835.593
165.3335, 5845.199
165.8156, 5861.625
166.2977, 5875.878
166.7798, 5885.155
167.2620, 5892.094
167.7441, 5900.792
168.2262, 5913.217
168.7083, 5928.027
169.1904, 5941.457
169.6725, 5953.889
170.1547, 5964.818
170.6368, 5972.486
171.1189, 5978.041
171.6010, 5985.802
172.0831, 5999.138
172.5652, 6014.663
173.0474, 6025.238
173.5295, 6027.994
174.0116, 6031.230
174.4937, 6042.208
174.9758, 6060.929
175.4579, 6079.515
175.9401, 6094.955
176.4222, 6108.291
176.9043, 6120.976
177.3864, 6134.039
177.8685, 6144.789
178.3506, 6150.102
178.8328, 6149.811
179.3149, 6144.315
179.7970, 6132.254
180.2791, 6116.048
180.7612, 6097.000
181.2433, 6075.209
181.7255, 6051.774
182.2076, 6028.658
182.6897, 6004.883
183.1718, 5983.451
183.6539, 5964.540
184.1360, 5947.870
184.6181, 5933.521
185.1003, 5921.570
185.5824, 5911.509
186.0645, 5901.752
186.5466, 5893.496
187.0287, 5883.910
187.5108, 5872.076
187.9930, 5858.979
188.4751, 5845.684
188.9572, 5832.812
189.4393, 5820.443
189.9214, 5809.163
190.4035, 5799.314
190.8857, 5790.259
191.3678, 5782.188
191.8499, 5774.894
192.3320, 5767.923
192.8141, 5760.945
193.2962, 5754.121
193.7784, 5748.689
194.2605, 5743.121
194.7426, 5740.044
195.2247, 5741.869
195.7068, 5747.176
196.1889, 5751.895
196.6711, 5753.304
197.1532, 5752.173
197.6353, 5752.823
198.1174, 5756.725
198.5995, 5760.806
199.0816, 5762.692
199.5638, 5762.825
200.0459, 5764.300
200.5280, 5769.570
201.0101, 5777.455
201.4922, 5783.954
201.9743, 5788.338
202.4565, 5791.972
202.9386, 5795.532
203.4207, 5799.007
203.9028, 5803.609
204.3849, 5810.185
204.8670, 5818.385
205.3492, 5828.083
205.8313, 5840.767
206.3134, 5853.021
206.7955, 5860.133
207.2776, 5861.272
207.7597, 5861.116
208.2419, 5859.463
208.7240, 5858.455
209.2061, 5861.015
209.6882, 5869.060
210.1703, 5878.986
210.6524, 5884.266
211.1346, 5883.075
211.6167, 5881.676
212.0988, 5881.042
212.5809, 5881.560
213.0630, 5883.960
213.5451, 5888.690
214.0273, 5894.744
214.5094, 5899.789
214.9915, 5903.086
215.4736, 5906.699
215.9557, 5911.007
216.4378, 5915.809
216.9200, 5920.998
217.4021, 5926.513
217.8842, 5932.305
218.3663, 5938.179
218.8484, 5944.527
219.3305, 5950.378
219.8127, 5954.473
220.2948, 5958.541
220.7769, 5964.649
221.2590, 5973.743
221.7411, 5984.791
222.2232, 5994.712
222.7054, 6001.164
223.1875, 6009.330
223.6696, 6020.255
224.1517, 6032.776
224.6338, 6045.925
225.1159, 6059.338
225.5980, 6072.400
226.0802, 6083.307
226.5623, 6088.806
227.0444, 6095.949
227.5265, 6105.568
228.0086, 6117.024
228.4907, 6129.743
228.9729, 6143.553
229.4550, 6157.849
229.9371, 6170.819
230.4192, 6181.400
230.9013, 6192.421
231.3834, 6202.817
231.8656, 6214.208
232.3477, 6229.611
232.8298, 6250.556
233.3119, 6274.438
233.7940, 6295.169
234.2761, 6309.717
234.7583, 6328.767
235.2404, 6356.735
235.7225, 6390.617
236.2046, 6425.485
236.6867, 6459.950
237.1688, 6494.750
237.6510, 6532.521
238.1331, 6573.769
238.6152, 6613.367
239.0973, 6649.256
239.5794, 6682.339
240.0615, 6714.300
240.5437, 6745.840
241.0258, 6776.158
241.5079, 6807.486
241.9900, 6840.827
242.4721, 6862.534
242.9542, 6863.832
243.4364, 6849.117
243.9185, 6828.885
244.4006, 6804.061
244.8827, 6775.907
245.3648, 6745.212
245.8469, 6712.335
246.3290, 6679.482
246.8112, 6647.026
247.2933, 6615.482
247.7754, 6585.487
248.2575, 6556.700
248.7396, 6530.605
249.2217, 6507.796
249.7039, 6488.081
250.1860, 6471.480
250.6681, 6458.633
251.1502, 6449.037
251.6323, 6440.749
252.1144, 6434.006
252.5966, 6428.237
253.0787, 6421.938
253.5608, 6416.106
254.0429, 6413.088
254.5250, 6415.456
255.0071, 6421.765
255.4893, 6425.968
255.9714, 6425.424
256.4535, 6427.235
256.9356, 6435.760
257.4177, 6448.161
257.8998, 6459.805
258.3820, 6467.750
258.8641, 6473.265
259.3462, 6480.798
259.8283, 6490.937
260.3104, 6502.342
260.7925, 6515.398
261.2747, 6529.050
261.7568, 6541.651
262.2389, 6552.165
262.7210, 6561.655
263.2031, 6573.330
263.6852, 6587.527
264.1674, 6603.673
264.6495, 6622.224
265.1316, 6642.013
265.6137, 6662.017
266.0958, 6681.852
266.5779, 6701.104
267.0601, 6718.596
267.5422, 6733.383
268.0243, 6747.931
268.5064, 6765.255
268.9885, 6781.272
269.4706, 6792.918
269.9528, 6799.038
270.4349, 6799.368
270.9170, 6792.547
271.3991, 6773.994
271.8812, 6757.140
272.3633, 6743.592
272.8455, 6731.406
273.3276, 6718.545
273.8097, 6704.734
274.2918, 6692.080
274.7739, 6683.983
275.2560, 6682.355
275.7382, 6681.523
276.2202, 6683.327
276.7024, 6684.373
277.1845, 6681.399
277.6666, 6674.590
278.1487, 6667.656
278.6308, 6665.511
279.1129, 6670.534
279.5951, 6671.961
280.0772, 6667.747
280.5593, 6662.370
281.0414, 6658.667
281.5235, 6656.298
282.0056, 6652.625
282.4878, 6644.765
282.9699, 6631.705
283.4520, 6621.562
283.9341, 6615.958
284.4162, 6611.227
284.8983, 6605.651
285.3805, 6599.690
285.8626, 6595.119
286.3447, 6593.605
286.8268, 6595.088
287.3089, 6593.826
287.7910, 6585.367
288.2732, 6579.192
288.7553, 6578.953
289.2374, 6582.968
289.7195, 6588.128
290.2016, 6592.708
290.6837, 6596.556
291.1659, 6598.867
291.6480, 6597.189
292.1301, 6596.748
292.6122, 6597.865
293.0943, 6600.825
293.5764, 6606.525
294.0586, 6615.493
294.5407, 6626.224
295.0228, 6634.692
295.5049, 6640.765
295.9870, 6644.492
296.4691, 6644.657
296.9513, 6643.021
297.4334, 6641.668
297.9155, 6641.253
298.3976, 6640.562
298.8797, 6637.498
299.3618, 6630.589
299.8440, 6623.808
300.3261, 6616.521
300.8082, 6609.793
301.2903, 6604.396
301.7724, 6600.499
302.2545, 6597.772
302.7367, 6595.914
303.2188, 6595.189
303.7009, 6594.275
304.1830, 6591.644
304.6651, 6589.984
305.1472, 6591.479
305.6294, 6595.826
306.1115, 6600.872
306.5936, 6604.821
307.0757, 6607.610
307.5578, 6610.437
308.0399, 6613.530
308.5221, 6616.444
309.0042, 6619.213
309.4863, 6621.682
309.9684, 6623.376
310.4505, 6623.905
310.9326, 6623.484
311.4148, 6623.546
311.8969, 6622.041
312.3790, 6623.279
312.8611, 6630.217
313.3432, 6640.261
313.8253, 6649.228
314.3075, 6655.143
314.7896, 6659.264
315.2717, 6664.854
315.7538, 6674.307
316.2359, 6681.850
316.7180, 6685.204
317.2001, 6687.251
317.6823, 6690.847
318.1644, 6696.872
318.6465, 6704.939
319.1286, 6714.719
319.6107, 6727.499
320.0928, 6738.632
320.5750, 6747.788
321.0571, 6755.554
321.5392, 6761.440
322.0213, 6765.803
322.5034, 6770.996
322.9855, 6779.745
323.4677, 6793.035
323.9498, 6802.256
324.4319, 6803.813
324.9140, 6805.250
325.3961, 6809.911
325.8782, 6817.685
326.3604, 6827.737
326.8425, 6840.075
327.3246, 6854.138
327.8067, 6863.366
328.2888, 6862.732
328.7709, 6863.829
329.2531, 6870.856
329.7352, 6881.404
330.2173, 6891.585
330.6994, 6899.609
331.1815, 6905.982
331.6636, 6912.055
332.1458, 6918.107
332.6279, 6923.518
333.1100, 6927.301
333.5921, 6930.887
334.0742, 6935.568
334.5563, 6941.702
335.0385, 6949.243
335.5206, 6958.611
336.0027, 6973.031
336.4848, 6980.148
336.9669, 6976.801
337.4490, 6969.532
337.9312, 6960.912
338.4133, 6952.040
338.8954, 6944.826
339.3775, 6941.622
339.8596, 6943.155
340.3417, 6939.120
340.8239, 6922.196
341.3060, 6908.018
341.7881, 6904.007
342.2702, 6906.887
342.7523, 6909.708
343.2344, 6908.250
343.7166, 6903.118
344.1987, 6897.290
344.6808, 6887.549
345.1629, 6880.903
345.6450, 6880.922
346.1271, 6883.225
346.6093, 6882.776
347.0914, 6877.794
347.5735, 6870.411
348.0556, 6864.763
348.5377, 6862.291
349.0198, 6859.045
349.5020, 6853.288
349.9841, 6848.190
350.4662, 6846.399
350.9483, 6847.917
351.4304, 6850.536
351.9125, 6851.705
352.3947, 6850.913
352.8768, 6852.181
353.3589, 6858.197
353.8410, 6863.565
354.3231, 6864.749
354.8052, 6863.789
355.2874, 6865.382
355.7695, 6873.087
356.2516, 6885.524
356.7337, 6895.053
357.2158, 6899.951
357.6979, 6903.957
358.1800, 6906.514
358.6621, 6909.139
359.1443, 6913.627
359.6264, 6920.689
360.1085, 6929.132
360.5906, 6936.867
361.0727, 6943.558
361.5548, 6950.485
362.0370, 6958.720
362.5191, 6966.532
363.0012, 6972.396
363.4833, 6976.467
363.9654, 6980.374
364.4475, 6985.482
364.9297, 6991.760
365.4118, 6999.509
365.8939, 7007.754
366.3760, 7018.799
366.8581, 7033.476
367.3402, 7051.432
367.8224, 7072.498
368.3045, 7097.995
368.7866, 7125.179
369.2687, 7145.385
369.7508, 7155.692
370.2329, 7165.231
370.7151, 7177.058
371.1972, 7189.794
371.6793, 7202.743
372.1614, 7215.808
372.6435, 7227.669
373.1256, 7236.979
373.6078, 7243.796
374.0899, 7247.215
374.5720, 7244.085
375.0541, 7240.005
375.5362, 7241.205
376.0183, 7246.788
376.5005, 7247.952
376.9826, 7234.673
377.4647, 7211.679
377.9468, 7197.362
378.4289, 7196.045
378.9110, 7196.148
379.3932, 7189.759
379.8753, 7179.190
380.3574, 7168.392
380.8395, 7157.339
381.3216, 7147.700
381.8037, 7141.573
382.2859, 7138.965
382.7680, 7139.013
383.2501, 7142.871
383.7322, 7148.328
384.2143, 7151.474
384.6964, 7151.378
385.1786, 7152.122
385.6607, 7156.847
386.1428, 7164.244
386.6249, 7171.033
387.1070, 7176.656
387.5891, 7181.005
388.0713, 7183.750
388.5534, 7185.061
389.0355, 7185.357
389.5176, 7183.029
389.9997, 7180.792
390.4818, 7181.970
390.9640, 7186.521
391.4461, 7190.861
391.9282, 7191.898
392.4103, 7190.799
392.8924, 7193.684
393.3745, 7204.017
393.8567, 7214.092
394.3388, 7221.310
394.8209, 7226.038
395.3030, 7228.813
395.7851, 7229.784
396.2672, 7229.118
396.7494, 7226.986
397.2315, 7222.701
397.7136, 7218.349
398.1957, 7212.541
398.6778, 7207.591
399.1599, 7206.697
399.6420, 7209.388
400.1241, 7211.189
400.6063, 7207.939
401.0884, 7199.461
401.5705, 7191.995
402.0526, 7184.986
402.5347, 7179.517
403.0168, 7176.950
403.4990, 7176.009
403.9811, 7174.753
404.4632, 7172.280
404.9453, 7169.040
405.4274, 7166.038
405.9095, 7163.362
406.3917, 7160.975
406.8738, 7159.037
407.3559, 7157.278
407.8380, 7155.154
408.3201, 7152.803
408.8022, 7151.151
409.2844, 7151.265
409.7665, 7153.241
410.2486, 7154.823
410.7307, 7154.624
411.2128, 7155.460
411.6949, 7158.280
412.1771, 7162.579
412.6592, 7167.949
413.1413, 7174.537
413.6234, 7180.850
414.1055, 7182.988
414.5876, 7178.990
415.0698, 7176.840
415.5519, 7180.580
416.0340, 7185.429
416.5161, 7187.544
416.9982, 7186.714
417.4803, 7186.734
417.9625, 7191.273
418.4446, 7199.743
418.9267, 7208.208
419.4088, 7216.454
419.8909, 7224.551
420.3730, 7232.627
420.8552, 7240.552
421.3373, 7248.016
421.8194, 7255.456
422.3015, 7261.812
422.7836, 7264.798
423.2657, 7264.463
423.7479, 7265.944
424.2300, 7273.065
424.7121, 7281.423
425.1942, 7283.760
425.6763, 7278.888
426.1584, 7274.420
426.6406, 7274.069
427.1227, 7276.141
427.6048, 7277.870
428.0869, 7278.815
428.5690, 7279.373
429.0511, 7278.613
429.5333, 7277.029
430.0154, 7282.146
430.4975, 7303.815
430.9796, 7322.945
431.4617, 7326.347
431.9438, 7318.439
432.4260, 7310.798
432.9081, 7308.666
433.3902, 7310.747
433.8723, 7314.302
434.3544, 7322.140
434.8365, 7326.544
435.3187, 7323.586
435.8008, 7319.482
436.2829, 7320.042
436.7650, 7325.403
437.2471, 7331.319
437.7292, 7333.952
438.2114, 7333.260
438.6935, 7331.111
439.1756, 7325.083
439.6577, 7320.339
440.1398, 7316.909
440.6219, 7315.909
441.1040, 7320.028
441.5862, 7330.356
442.0683, 7342.533
442.5504, 7348.238
443.0325, 7345.609
443.5146, 7342.392
443.9967, 7336.025
444.4789, 7332.002
444.9610, 7334.627
445.4431, 7342.695
445.9252, 7351.313
446.4073, 7357.644
446.8894, 7361.604
447.3716, 7362.093
447.8537, 7357.076
448.3358, 7353.595
448.8179, 7355.393
449.3000, 7360.000
449.7821, 7365.263
450.2643, 7370.893
450.7464, 7376.298
451.2285, 7380.981
451.7106, 7384.983
452.1927, 7388.610
452.6748, 7392.239
453.1570, 7394.786
453.6391, 7393.867
454.1212, 7390.388
454.6033, 7388.804
455.0854, 7391.311
455.5675, 7395.293
456.0497, 7398.860
456.5318, 7401.911
457.0139, 7404.148
457.4960, 7405.075
457.9781, 7405.561
458.4602, 7408.242
458.9424, 7414.679
459.4245, 7419.745
459.9066, 7422.080
460.3887, 7422.883
460.8708, 7422.867
461.3529, 7422.375
461.8351, 7422.414
462.3172, 7424.196
462.7993, 7427.833
463.2814, 7429.229
463.7635, 7424.971
464.2456, 7422.521
464.7278, 7425.161
465.2099, 7430.236
465.6920, 7433.962
466.1741, 7434.891
466.6562, 7434.462
467.1383, 7434.922
467.6205, 7436.173
468.1026, 7438.648
468.5847, 7445.735
469.0668, 7451.016
469.5489, 7449.443
470.0310, 7443.411
470.5132, 7439.547
470.9953, 7442.171
471.4774, 7449.464
471.9595, 7457.638
472.4416, 7467.730
472.9237, 7474.937
473.4059, 7476.222
473.8880, 7474.493
474.3701, 7471.893
474.8522, 7468.640
475.3343, 7465.157
475.8164, 7460.993
476.2986, 7456.882
476.7807, 7454.639
477.2628, 7454.536
477.7449, 7455.850
478.2270, 7458.128
478.7091, 7461.455
479.1913, 7465.905
479.6734, 7472.375
480.1555, 7478.919
480.6376, 7485.412
481.1197, 7491.129
481.6018, 7494.010
482.0839, 7493.219
482.5660, 7491.413
483.0482, 7492.743
483.5303, 7499.250
484.0124, 7500.896
484.4945, 7492.503
484.9766, 7484.398
485.4587, 7482.515
485.9409, 7485.441
486.4230, 7488.874
486.9051, 7490.423
487.3872, 7490.749
487.8693, 7491.894
488.3514, 7495.361
488.8336, 7496.761
489.3157, 7492.854
489.7978, 7489.441
490.2799, 7491.603
490.7620, 7498.579
491.2441, 7504.899
491.7263, 7504.906
492.2084, 7500.720
492.6905, 7503.622
493.1726, 7517.494
493.6547, 7529.161
494.1368, 7530.600
494.6190, 7528.338
495.1011, 7529.347
495.5832, 7535.327
496.0653, 7540.601
496.5474, 7538.891
497.0295, 7532.955
497.5117, 7532.360
497.9938, 7539.878
498.4759, 7546.666
498.9580, 7543.548
499.4401, 7532.857
499.9222, 7527.651
500.4044, 7530.670
500.8865, 7537.221
501.3686, 7547.024
501.8507, 7558.341
502.3328, 7568.048
502.8149, 7575.088
503.2971, 7579.690
503.7792, 7582.153
504.2613, 7582.399
504.7434, 7580.498
505.2255, 7572.138
505.7076, 7566.176
506.1898, 7568.811
506.6719, 7576.916
507.1540, 7583.776
507.6361, 7585.850
508.1182, 7585.072
508.6003, 7585.866
509.0825, 7588.866
509.5646, 7591.757
510.0467, 7594.341
510.5288, 7596.709
511.0109, 7598.586
511.4930, 7600.215
511.9752, 7602.321
512.4573, 7605.094
512.9394, 7608.804
513.4215, 7615.042
513.9036, 7624.632
514.3857, 7631.530
514.8679, 7632.289
515.3500, 7629.887
515.8321, 7628.234
516.3142, 7627.483
516.7963, 7626.701
517.2784, 7624.372
517.7606, 7622.288
518.2427, 7623.221
518.7248, 7627.327
519.2069, 7632.614
519.6890, 7637.907
520.1711, 7643.281
520.6533, 7648.963
521.1354, 7658.107
521.6175, 7663.428
522.0996, 7661.739
522.5817, 7656.800
523.0638, 7650.845
523.5460, 7645.111
524.0281, 7642.100
524.5102, 7644.459
524.9923, 7652.042
525.4744, 7660.702
525.9565, 7674.359
526.4387, 7683.624
526.9208, 7684.008
527.4029, 7680.720
527.8850, 7678.492
528.3671, 7678.683
528.8492, 7681.231
529.3314, 7686.888
529.8135, 7695.306
530.2956, 7703.238
530.7777, 7710.898
531.2598, 7717.252
531.7419, 7721.000
532.2241, 7723.163
532.7062, 7724.935
533.1883, 7725.284
533.6704, 7727.813
534.1525, 7737.703
534.6346, 7751.341
535.1168, 7759.267
535.5989, 7758.891
536.0810, 7757.464
536.5631, 7762.781
537.0452, 7775.250
537.5273, 7783.754
538.0095, 7784.808
538.4916, 7786.167
538.9737, 7791.325
539.4558, 7798.401
539.9379, 7804.672
540.4200, 7809.201
540.9022, 7812.531
541.3843, 7815.412
541.8664, 7817.978
542.3485, 7819.416
542.8306, 7815.088
543.3127, 7814.926
543.7948, 7824.614
544.2769, 7839.737
544.7590, 7853.939
545.2411, 7865.063
545.7233, 7873.774
546.2054, 7880.308
546.6875, 7884.774
547.1696, 7888.131
547.6517, 7888.960
548.1339, 7891.561
548.6160, 7902.085
549.0981, 7917.513
549.5802, 7929.390
550.0623, 7932.396
550.5444, 7935.324
551.0266, 7945.058
551.5087, 7958.891
551.9908, 7970.518
552.4729, 7978.000
552.9550, 7983.895
553.4371, 7991.607
553.9193, 8002.007
554.4014, 8009.041
554.8835, 8010.295
555.3656, 8011.454
555.8477, 8015.013
556.3298, 8019.711
556.8120, 8022.763
557.2941, 8023.321
557.7762, 8024.492
558.2583, 8032.124
558.7404, 8047.553
559.2225, 8057.728
559.7047, 8059.739
560.1868, 8059.415
560.6689, 8058.862
561.1510, 8058.214
561.6331, 8057.699
562.1152, 8057.394
562.5974, 8057.115
563.0795, 8055.330
563.5616, 8053.217
564.0437, 8056.407
564.5258, 8067.256
565.0079, 8077.643
565.4901, 8079.009
565.9722, 8071.929
566.4543, 8070.014
566.9364, 8077.334
567.4185, 8085.187
567.9006, 8089.708
568.3828, 8093.015
568.8649, 8099.102
569.3470, 8108.613
569.8291, 8117.568
570.3112, 8120.732
570.7933, 8117.617
571.2755, 8117.904
571.7576, 8123.706
572.2397, 8130.433
572.7218, 8137.909
573.2039, 8145.205
573.6860, 8150.750
574.1682, 8154.235
574.6503, 8158.296
575.1324, 8166.350
575.6145, 8177.248
576.0966, 8186.280
576.5787, 8193.335
577.0609, 8197.558
577.5430, 8196.693
578.0251, 8193.021
578.5072, 8191.753
578.9893, 8192.362
579.4714, 8196.811
579.9536, 8210.483
580.4357, 8226.011
580.9178, 8234.509
581.3999, 8235.027
581.8820, 8230.820
582.3641, 8223.538
582.8463, 8214.349
583.3284, 8209.933
583.8105, 8214.307
584.2926, 8217.913
584.7747, 8220.252
585.2568, 8221.513
585.7390, 8221.842
586.2211, 8221.275
586.7032, 8219.641
587.1853, 8216.119
587.6674, 8211.953
588.1495, 8210.618
588.6317, 8212.355
589.1138, 8215.571
589.5959, 8220.517
590.0780, 8226.045
590.5601, 8230.699
591.0422, 8234.488
591.5244, 8238.386
592.0065, 8244.305
592.4886, 8249.135
592.9707, 8247.994
593.4528, 8242.919
593.9349, 8241.392
594.4171, 8246.905
594.8992, 8255.842
595.3813, 8261.714
595.8634, 8262.350
596.3455, 8266.345
596.8276, 8280.746
597.3098, 8290.618
597.7919, 8286.566
598.2740, 8274.479
598.7561, 8263.586
599.2382, 8257.482
599.7203, 8256.550
600.2025, 8263.599
600.6846, 8278.354
601.1667, 8288.914
601.6488, 8293.913
602.1309, 8295.027
602.6130, 8290.323
603.0952, 8282.965
603.5773, 8279.601
604.0594, 8282.396
604.5415, 8286.857
605.0236, 8293.466
605.5057, 8299.263
605.9879, 8297.378
606.4700, 8287.667
606.9521, 8279.856
607.4342, 8282.448
607.9163, 8293.870
608.3984, 8302.358
608.8806, 8303.418
609.3627, 8307.580
609.8448, 8320.620
610.3269, 8333.222
610.8090, 8337.256
611.2911, 8333.208
611.7733, 8327.465
612.2554, 8323.718
612.7375, 8321.899
613.2196, 8322.335
613.7017, 8325.281
614.1838, 8327.764
614.6660, 8328.079
615.1481, 8328.647
615.6302, 8333.866
616.1123, 8343.334
616.5944, 8348.620
617.0765, 8343.665
617.5587, 8338.168
618.0408, 8338.828
618.5229, 8343.949
619.0050, 8349.785
619.4871, 8354.969
619.9692, 8359.261
620.4514, 8361.987
620.9335, 8362.618
621.4156, 8365.679
621.8977, 8373.934
622.3798, 8381.370
622.8619, 8386.716
623.3441, 8390.295
623.8262, 8391.963
624.3083, 8391.765
624.7904, 8391.684
625.2725, 8392.961
625.7546, 8395.700
626.2367, 8400.686
626.7188, 8408.196
627.2009, 8415.298
627.6830, 8419.736
628.1652, 8423.448
628.6473, 8432.368
629.1294, 8450.409
629.6115, 8460.479
630.0936, 8451.047
630.5757, 8440.573
631.0579, 8444.979
631.5400, 8459.802
632.0221, 8470.191
632.5042, 8468.443
632.9863, 8461.649
633.4684, 8464.149
633.9506, 8478.895
634.4327, 8488.072
634.9148, 8486.782
635.3969, 8484.736
635.8790, 8486.194
636.3611, 8490.306
636.8433, 8495.829
637.3254, 8502.816
637.8075, 8509.887
638.2896, 8516.721
638.7717, 8522.688
639.2538, 8526.146
639.7360, 8526.936
640.2181, 8527.254
640.7002, 8528.293
641.1823, 8530.389
641.6644, 8534.983
642.1465, 8547.677
642.6287, 8555.036
643.1108, 8551.220
643.5929, 8547.003
644.0750, 8550.111
644.5571, 8559.268
645.0392, 8569.022
645.5214, 8576.509
646.0035, 8582.541
646.4856, 8588.432
646.9677, 8594.187
647.4498, 8598.723
647.9319, 8600.593
648.4141, 8603.771
648.8962, 8613.475
649.3783, 8627.411
649.8604, 8636.571
650.3425, 8636.381
650.8246, 8636.463
651.3068, 8641.471
651.7889, 8648.262
652.2710, 8652.984
652.7531, 8655.162
653.2352, 8656.371
653.7173, 8657.678
654.1995, 8659.247
654.6816, 8661.971
655.1637, 8666.378
655.6458, 8670.644
656.1279, 8673.705
656.6100, 8677.260
657.0922, 8682.003
657.5743, 8688.104
658.0564, 8696.105
658.5385, 8708.564
659.0206, 8719.786
659.5027, 8723.576
659.9849, 8721.767
660.4670, 8719.520
660.9491, 8718.021
661.4312, 8715.777
661.9133, 8710.887
662.3954, 8703.770
662.8776, 8700.417
663.3597, 8705.347
663.8418, 8708.224
664.3239, 8705.726
664.8060, 8702.632
665.2881, 8702.981
665.7703, 8706.650
666.2524, 8711.272
666.7345, 8716.310
667.2166, 8720.045
667.6987, 8718.553
668.1808, 8711.979
668.6630, 8705.260
669.1451, 8698.842
669.6272, 8694.287
670.1093, 8693.718
670.5914, 8696.860
671.0735, 8699.574
671.5557, 8703.098
672.0378, 8704.465
672.5199, 8700.189
673.0020, 8694.667
673.4841, 8693.417
673.9662, 8696.507
674.4484, 8699.396
674.9305, 8698.357
675.4126, 8694.865
675.8947, 8694.516
676.3768, 8698.793
676.8589, 8699.346
677.3411, 8689.599
677.8232, 8681.328
678.3053, 8687.830
678.7874, 8704.221
679.2695, 8712.222
679.7516, 8702.457
680.2338, 8689.986
680.7159, 8682.059
681.1980, 8677.778
681.6801, 8676.341
682.1622, 8677.272
682.6443, 8679.178
683.1265, 8681.210
683.6086, 8682.854
684.0907, 8681.194
684.5728, 8672.785
685.0549, 8668.465
685.5370, 8672.155
686.0192, 8678.060
686.5013, 8685.346
686.9834, 8692.149
687.4655, 8693.792
687.9476, 8686.723
688.4297, 8677.148
688.9119, 8668.174
689.3940, 8661.301
689.8761, 8661.502
690.3582, 8669.491
690.8403, 8678.785
691.3224, 8685.191
691.8046, 8688.254
692.2867, 8685.353
692.7688, 8669.370
693.2509, 8659.114
693.7330, 8658.788
694.2151, 8660.999
694.6973, 8661.895
695.1794, 8661.706
695.6615, 8662.118
696.1436, 8664.098
696.6257, 8666.056
697.1078, 8663.481
697.5900, 8659.217
698.0721, 8664.900
698.5542, 8682.670
699.0363, 8702.233
699.5184, 8718.251
700.0005, 8729.574
700.4827, 8731.848
700.9648, 8717.461
701.4469, 8706.122
701.9290, 8698.723
702.4111, 8693.777
702.8932, 8691.026
703.3754, 8689.935
703.8575, 8689.340
704.3396, 8688.673
704.8217, 8689.772
705.3038, 8696.173
705.7859, 8706.556
706.2681, 8714.997
706.7502, 8721.160
707.2323, 8723.982
707.7144, 8721.388
708.1965, 8716.312
708.6786, 8715.863
709.1607, 8722.069
709.6428, 8726.630
710.1249, 8730.851
710.6071, 8731.431
711.0892, 8722.642
711.5713, 8710.120
712.0534, 8703.918
712.5355, 8707.196
713.0176, 8713.095
713.4998, 8713.137
713.9819, 8708.886
714.4640, 8709.948
714.9461, 8717.754
715.4282, 8722.032
715.9103, 8716.137
716.3925, 8707.061
716.8746, 8706.688
717.3567, 8716.335
717.8388, 8721.988
718.3209, 8719.421
718.8030, 8715.928
719.2852, 8714.667
719.7673, 8714.650
720.2494, 8713.813
720.7315, 8711.948
721.2136, 8711.264
721.6957, 8714.029
722.1779, 8719.428
722.6600, 8725.733
723.1421, 8733.616
723.6242, 8735.898
724.1063, 8727.587
724.5884, 8717.612
725.0706, 8716.802
725.5527, 8724.263
726.0348, 8727.643
726.5169, 8721.269
726.9990, 8716.993
727.4811, 8721.085
727.9633, 8727.861
728.4454, 8729.413
728.9275, 8726.706
729.4096, 8729.005
729.8917, 8744.018
730.3738, 8764.286
730.8560, 8773.922
731.3381, 8772.688
731.8202, 8768.309
732.3023, 8761.697
732.7844, 8752.588
733.2665, 8737.719
733.7487, 8720.424
734.2308, 8712.949
734.7129, 8720.928
735.1950, 8728.038
735.6771, 8731.485
736.1592, 8732.483
736.6414, 8730.529
737.1235, 8727.107
737.6056, 8725.503
738.0877, 8727.218
738.5698, 8729.947
739.0519, 8729.643
739.5341, 8726.932
740.0162, 8728.649
740.4983, 8736.414
740.9804, 8742.201
741.4625, 8741.240
741.9446, 8736.663
742.4268, 8733.878
742.9089, 8732.774
743.3910, 8733.438
743.8731, 8737.214
744.3552, 8741.270
744.8373, 8745.339
745.3195, 8748.354
745.8016, 8748.235
746.2837, 8744.957
746.7658, 8741.772
747.2479, 8741.591
747.7300, 8743.683
748.2122, 8746.030
748.6943, 8748.665
749.1764, 8753.453
749.6585, 8763.306
750.1406, 8768.983
750.6227, 8758.063
751.1049, 8731.353
751.5870, 8716.193
752.0691, 8720.198
752.5512, 8724.442
753.0333, 8727.192
753.5154, 8727.574
753.9976, 8722.564
754.4797, 8714.449
754.9618, 8710.164
755.4439, 8713.872
755.9260, 8720.494
756.4081, 8723.091
756.8903, 8722.783
757.3724, 8725.639
757.8545, 8732.800
758.3366, 8734.809
758.8187, 8723.435
759.3008, 8706.296
759.7830, 8703.040
760.2651, 8723.138
760.7472, 8734.870
761.2293, 8731.557
761.7114, 8727.991
762.1935, 8731.701
762.6757, 8738.114
763.1578, 8739.512
763.6399, 8734.472
764.1220, 8731.536
764.6041, 8737.712
765.0862, 8749.209
765.5684, 8761.603
766.0505, 8774.379
766.5326, 8786.584
767.0147, 8798.202
767.4968, 8804.128
767.9789, 8797.176
768.4611, 8778.124
768.9432, 8767.611
769.4253, 8769.676
769.9074, 8773.283
770.3895, 8778.858
770.8716, 8783.446
771.3538, 8784.325
771.8359, 8782.425
772.3180, 8781.188
772.8001, 8782.821
773.2822, 8783.068
773.7643, 8776.530
774.2465, 8768.120
774.7286, 8766.021
775.2107, 8769.903
775.6928, 8773.299
776.1749, 8772.585
776.6570, 8769.939
777.1392, 8769.239
777.6213, 8770.527
778.1034, 8774.268
778.5855, 8782.974
779.0676, 8789.301
779.5497, 8789.226
780.0319, 8785.407
780.5140, 8781.007
780.9961, 8776.046
781.4782, 8770.651
781.9603, 8762.806
782.4424, 8756.632
782.9246, 8755.547
783.4067, 8757.106
783.8888, 8757.563
784.3709, 8756.326
784.8530, 8755.577
785.3351, 8757.322
785.8173, 8760.283
786.2994, 8760.764
786.7815, 8758.743
787.2636, 8759.572
787.7457, 8765.754
788.2278, 8769.479
788.7100, 8762.095
789.1921, 8748.166
789.6742, 8746.344
790.1563, 8766.466
790.6384, 8780.165
791.1205, 8779.718
791.6026, 8778.900
792.0847, 8787.884
792.5668, 8801.075
793.0490, 8809.188
793.5311, 8809.443
794.0132, 8803.917
794.4953, 8793.061
794.9774, 8778.138
795.4595, 8758.560
795.9417, 8735.981
796.4238, 8720.459
796.9059, 8715.310
797.3880, 8716.101
797.8701, 8718.815
798.3522, 8723.053
798.8344, 8723.021
799.3165, 8714.880
799.7986, 8709.562
800.2807, 8711.421
800.7628, 8714.074
801.2449, 8713.862
801.7271, 8711.405
802.2092, 8708.540
802.6913, 8704.923
803.1734, 8702.935
803.6555, 8702.957
804.1376, 8705.991
804.6198, 8717.095
805.1019, 8732.200
805.5840, 8739.360
806.0661, 8733.510
806.5482, 8722.455
807.0303, 8715.778
807.5125, 8713.271
807.9946, 8712.427
808.4767, 8713.106
808.9588, 8717.104
809.4409, 8727.366
809.9230, 8737.396
810.4052, 8740.113
810.8873, 8735.335
811.3694, 8726.944
811.8515, 8710.457
812.3336, 8696.443
812.8157, 8684.709
813.2979, 8678.043
813.7800, 8680.817
814.2621, 8690.509
814.7442, 8700.575
815.2263, 8708.372
815.7084, 8715.133
816.1906, 8722.553
816.6727, 8729.527
817.1548, 8733.340
817.6369, 8734.157
818.1190, 8734.268
818.6011, 8734.572
819.0833, 8735.667
819.5654, 8738.885
820.0475, 8744.389
820.5296, 8746.026
821.0117, 8740.745
821.4938, 8737.858
821.9760, 8744.110
822.4581, 8749.790
822.9402, 8745.425
823.4223, 8733.127
823.9044, 8723.080
824.3865, 8718.431
824.8687, 8714.527
825.3508, 8706.559
825.8329, 8700.814
826.3150, 8707.597
826.7971, 8721.951
827.2792, 8728.759
827.7614, 8721.291
828.2435, 8709.166
828.7256, 8704.170
829.2077, 8704.382
829.6898, 8701.572
830.1719, 8695.551
830.6541, 8693.407
831.1362, 8698.751
831.6183, 8705.195
832.1004, 8704.838
832.5825, 8697.791
833.0646, 8692.602
833.5468, 8686.472
834.0289, 8686.839
834.5110, 8704.109
834.9931, 8718.860
835.4752, 8715.201
835.9573, 8699.743
836.4395, 8690.408
836.9216, 8693.104
837.4037, 8697.705
837.8858, 8698.110
838.3679, 8698.405
838.8500, 8705.644
839.3322, 8716.114
839.8143, 8718.142
840.2964, 8708.440
840.7785, 8698.690
841.2606, 8702.942
841.7427, 8717.125
842.2249, 8724.771
842.7070, 8725.493
843.1891, 8727.427
843.6712, 8733.263
844.1533, 8737.926
844.6354, 8736.377
845.1176, 8730.097
845.5997, 8726.465
846.0818, 8726.849
846.5639, 8727.796
847.0460, 8731.641
847.5281, 8733.533
848.0103, 8729.126
848.4924, 8722.248
848.9745, 8718.553
849.4566, 8719.178
849.9387, 8721.480
850.4208, 8725.904
850.9030, 8729.845
851.3851, 8730.941
851.8672, 8729.856
852.3493, 8727.335
852.8314, 8723.925
853.3135, 8720.701
853.7957, 8718.128
854.2778, 8717.521
854.7599, 8723.546
855.2420, 8735.987
855.7241, 8743.475
856.2062, 8744.126
856.6884, 8742.647
857.1705, 8740.222
857.6526, 8738.943
858.1347, 8743.684
858.6168, 8757.165
859.0989, 8763.940
859.5811, 8758.042
860.0632, 8753.237
860.5453, 8752.552
861.0274, 8754.284
861.5095, 8757.534
861.9916, 8761.815
862.4738, 8766.222
862.9559, 8772.583
863.4380, 8774.973
863.9201, 8764.672
864.4022, 8751.584
864.8843, 8748.973
865.3665, 8754.979
865.8486, 8759.931
866.3307, 8759.781
866.8128, 8758.891
867.2949, 8763.998
867.7770, 8763.079
868.2592, 8774.132
868.7413, 8767.553
869.2234, 8765.605
869.7055, 8772.668
870.1876, 8781.262
870.6697, 8784.277
871.1519, 8782.799
871.6340, 8782.937
872.1161, 8784.838
872.5981, 8787.916
873.0803, 8792.897
873.5624, 8798.087
874.0445, 8804.641
874.5266, 8810.016
875.0087, 8810.029
875.4908, 8803.861
875.9730, 8797.396
876.4551, 8792.215
876.9372, 8787.794
877.4193, 8782.153
877.9014, 8778.040
878.3835, 8780.520
878.8657, 8788.749
879.3478, 8796.510
879.8299, 8800.155
880.3120, 8801.705
880.7941, 8802.134
881.2762, 8802.980
881.7584, 8811.444
882.2405, 8827.140
882.7226, 8836.611
883.2047, 8832.979
883.6868, 8828.145
884.1689, 8840.197
884.6511, 8868.212
885.1332, 8880.663
885.6153, 8872.435
886.0974, 8862.420
886.5795, 8853.557
887.0616, 8844.665
887.5438, 8831.228
888.0259, 8817.137
888.5080, 8814.978
888.9901, 8831.683
889.4722, 8844.135
889.9543, 8845.456
890.4365, 8845.632
890.9186, 8850.370
891.4007, 8856.884
891.8828, 8860.681
892.3649, 8861.405
892.8470, 8862.841
893.3292, 8870.557
893.8113, 8875.618
894.2934, 8866.206
894.7755, 8849.618
895.2576, 8838.319
895.7397, 8833.309
896.2219, 8829.344
896.7040, 8823.693
897.1861, 8824.088
897.6682, 8820.331
898.1503, 8826.684
898.6324, 8831.910
899.1146, 8836.253
899.5967, 8834.574
900.0788, 8823.947
900.5609, 8811.487
901.0430, 8803.592
901.5251, 8800.027
902.0073, 8799.548
902.4894, 8803.499
902.9715, 8807.686
903.4536, 8811.846
903.9357, 8816.228
904.4178, 8819.451
904.9000, 8823.609
905.3821, 8833.184
905.8642, 8848.927
906.3463, 8859.778
906.8284, 8860.922
907.3105, 8859.134
907.7927, 8858.007
908.2748, 8855.082
908.7569, 8844.212
909.2390, 8828.988
909.7211, 8821.484
910.2032, 8827.991
910.6854, 8837.875
911.1675, 8841.481
911.6496, 8842.062
912.1317, 8845.738
912.6138, 8851.260
913.0959, 8852.632
913.5781, 8848.344
914.0602, 8843.670
914.5423, 8843.518
915.0244, 8846.737
915.5065, 8849.934
915.9886, 8853.123
916.4708, 8857.438
916.9529, 8863.506
917.4350, 8868.431
917.9171, 8870.599
918.3992, 8870.936
918.8813, 8871.025
919.3635, 8871.010
919.8456, 8870.220
920.3277, 8870.182
920.8098, 8867.009
921.2919, 8854.321
921.7740, 8843.323
922.2562, 8843.048
922.7383, 8850.790
923.2204, 8858.657
923.7025, 8867.131
924.1846, 8871.954
924.6667, 8868.838
925.1489, 8865.041
925.6310, 8863.694
926.1131, 8864.966
926.5952, 8870.389
927.0773, 8878.954
927.5594, 8884.028
928.0416, 8878.661
928.5237, 8873.675
929.0058, 8881.535
929.4879, 8894.850
929.9700, 8900.624
930.4521, 8900.216
930.9343, 8905.229
931.4164, 8920.238
931.8985, 8933.618
932.3806, 8929.646
932.8627, 8914.061
933.3448, 8905.703
933.8270, 8903.959
934.3091, 8900.017
934.7912, 8891.729
935.2733, 8888.254
935.7554, 8897.303
936.2375, 8912.579
936.7197, 8918.252
937.2018, 8912.252
937.6839, 8908.850
938.1660, 8909.200
938.6481, 8908.997
939.1302, 8905.049
939.6124, 8902.112
940.0945, 8905.855
940.5766, 8915.416
941.0587, 8923.254
941.5408, 8928.585
942.0229, 8933.277
942.5051, 8937.750
942.9872, 8941.067
943.4693, 8942.959
943.9514, 8943.279
944.4335, 8940.920
944.9156, 8935.987
945.3978, 8933.182
945.8799, 8934.404
946.3620, 8937.842
946.8441, 8946.229
947.3262, 8953.670
947.8083, 8952.159
948.2905, 8944.660
948.7726, 8940.158
949.2547, 8941.998
949.7368, 8945.328
950.2189, 8945.465
950.7010, 8945.224
951.1832, 8950.469
951.6653, 8957.984
952.1474, 8958.495
952.6295, 8951.486
953.1116, 8945.614
953.5938, 8946.475
954.0759, 8950.938
954.5580, 8955.924
955.0400, 8960.213
955.5222, 8954.212
956.0043, 8938.026
956.4864, 8930.197
956.9685, 8937.150
957.4506, 8950.569
957.9327, 8963.194
958.4149, 8974.561
958.8970, 8982.669
959.3791, 8988.106
959.8612, 8986.473
960.3433, 8973.791
960.8254, 8964.268
961.3076, 8966.818
961.7897, 8972.932
962.2718, 8970.357
962.7539, 8958.871
963.2360, 8951.370
963.7181, 8948.588
964.2003, 8948.729
964.6824, 8952.775
965.1645, 8958.334
965.6466, 8966.277
966.1287, 8974.053
966.6108, 8976.284
967.0930, 8971.678
967.5751, 8970.463
968.0572, 8979.338
968.5393, 8986.239
969.0214, 8984.012
969.5035, 8979.678
969.9857, 8980.129
970.4678, 8984.100
970.9499, 8986.522
971.4320, 8985.634
971.9141, 8984.752
972.3962, 8987.597
972.8784, 8989.597
973.3605, 8983.535
973.8426, 8975.456
974.3247, 8976.406
974.8068, 8985.979
975.2889, 8994.261
975.7711, 8995.512
976.2532, 8995.098
976.7353, 8999.511
977.2174, 9006.100
977.6995, 9009.028
978.1816, 9009.669
978.6638, 9014.459
979.1459, 9024.688
979.6280, 9034.442
980.1101, 9038.907
980.5922, 9040.123
981.0743, 9042.103
981.5565, 9044.605
982.0386, 9045.682
982.5207, 9045.275
983.0028, 9045.869
983.4849, 9048.525
983.9670, 9051.714
984.4492, 9053.927
984.9313, 9055.061
985.4134, 9054.250
985.8955, 9051.069
986.3776, 9048.652
986.8597, 9046.981
987.3419, 9047.183
987.8240, 9050.222
988.3061, 9054.714
988.7882, 9059.827
989.2703, 9065.472
989.7524, 9061.720
990.2346, 9041.406
990.7167, 9027.601
991.1988, 9024.838
991.6809, 9026.683
992.1630, 9030.641
992.6451, 9036.405
993.1273, 9044.285
993.6094, 9055.129
994.0915, 9062.202
994.5736, 9065.655
995.0557, 9065.153
995.5378, 9054.533
996.0200, 9045.905
996.5021, 9047.971
996.9842, 9057.673
997.4663, 9069.787
997.9484, 9084.588
998.4305, 9094.016
998.9127, 9093.608
999.3948, 9090.361
999.8769, 9086.428
1000.359, 9081.597
1000.841, 9074.322
1001.323, 9066.091
1001.805, 9060.520
1002.287, 9058.731
1002.770, 9059.188
1003.252, 9062.214
1003.734, 9066.036
1004.216, 9069.943
1004.698, 9073.525
1005.180, 9076.780
1005.662, 9079.302
1006.144, 9079.685
1006.627, 9077.016
1007.109, 9074.274
1007.591, 9072.520
1008.073, 9073.108
1008.555, 9081.406
1009.037, 9091.862
1009.519, 9090.781
1010.001, 9078.972
1010.483, 9072.754
1010.966, 9082.219
1011.448, 9095.469
1011.930, 9097.353
1012.412, 9103.229
1012.894, 9096.642
1013.376, 9104.252
1013.858, 9105.660
1014.340, 9099.738
1014.823, 9099.677
1015.305, 9116.138
1015.787, 9135.536
1016.269, 9132.157
1016.751, 9112.767
1017.233, 9103.762
1017.715, 9104.713
1018.197, 9102.444
1018.679, 9093.369
1019.162, 9086.345
1019.644, 9088.998
1020.126, 9097.063
1020.608, 9100.484
1021.090, 9099.779
1021.572, 9103.791
1022.054, 9113.131
1022.536, 9115.139
1023.018, 9104.524
1023.501, 9097.295
1023.983, 9109.531
1024.465, 9132.788
1024.947, 9138.815
1025.429, 9125.548
1025.911, 9119.628
1026.393, 9123.473
1026.875, 9125.615
1027.358, 9121.082
1027.840, 9116.712
1028.322, 9119.189
1028.804, 9127.207
1029.286, 9135.189
1029.768, 9142.159
1030.250, 9154.813
1030.732, 9179.348
1031.214, 9192.121
1031.697, 9180.360
1032.179, 9161.334
1032.661, 9151.290
1033.143, 9149.209
1033.625, 9149.321
1034.107, 9149.059
1034.589, 9158.581
1035.071, 9185.981
1035.553, 9208.881
1036.036, 9219.750
1036.518, 9222.317
1037.000, 9218.674
1037.482, 9209.730
1037.964, 9200.514
1038.446, 9187.371
1038.928, 9181.302
1039.410, 9188.169
1039.893, 9194.108
1040.375, 9193.165
1040.857, 9190.296
1041.339, 9189.205
1041.821, 9190.157
1042.303, 9194.884
1042.785, 9207.297
1043.267, 9215.904
1043.750, 9221.787
1044.232, 9221.837
1044.714, 9208.038
1045.196, 9193.168
1045.678, 9189.768
1046.160, 9196.438
1046.642, 9205.101
1047.124, 9217.949
1047.606, 9225.938
1048.089, 9226.499
1048.571, 9223.592
1049.053, 9217.387
1049.535, 9209.601
1050.017, 9200.378
1050.499, 9190.905
1050.981, 9184.873
1051.463, 9183.168
1051.945, 9184.379
1052.428, 9192.275
1052.910, 9198.300
1053.392, 9196.530
1053.874, 9192.793
1054.356, 9193.428
1054.838, 9197.440
1055.320, 9199.026
1055.802, 9194.771
1056.285, 9195.926
1056.767, 9213.605
1057.249, 9227.797
1057.731, 9226.327
1058.213, 9218.443
1058.695, 9211.344
1059.177, 9206.544
1059.659, 9205.692
1060.141, 9209.968
1060.624, 9214.313
1061.106, 9216.708
1061.588, 9219.059
1062.070, 9222.457
1062.552, 9226.202
1063.034, 9229.104
1063.516, 9231.788
1063.998, 9236.036
1064.480, 9242.392
1064.963, 9249.521
1065.445, 9259.236
1065.927, 9266.724
1066.409, 9268.631
1066.891, 9267.771
1067.373, 9267.651
1067.855, 9266.866
1068.337, 9260.201
1068.820, 9245.938
1069.302, 9235.354
1069.784, 9236.151
1070.266, 9238.190
1070.748, 9237.099
1071.230, 9234.005
1071.712, 9228.237
1072.194, 9221.955
1072.677, 9219.168
1073.159, 9220.726
1073.641, 9223.829
1074.123, 9228.448
1074.605, 9232.811
1075.087, 9236.558
1075.569, 9239.178
1076.051, 9240.587
1076.533, 9240.411
1077.016, 9237.782
1077.498, 9232.703
1077.980, 9226.875
1078.462, 9217.050
1078.944, 9212.416
1079.426, 9222.370
1079.908, 9234.491
1080.390, 9238.772
1080.872, 9238.311
1081.354, 9238.839
1081.837, 9241.201
1082.319, 9242.983
1082.801, 9241.621
1083.283, 9242.812
1083.765, 9253.382
1084.247, 9263.113
1084.729, 9263.292
1085.211, 9258.682
1085.694, 9254.605
1086.176, 9252.557
1086.658, 9254.288
1087.140, 9260.792
1087.622, 9269.816
1088.104, 9285.214
1088.586, 9297.459
1089.068, 9298.215
1089.551, 9293.995
1090.033, 9291.042
1090.515, 9290.411
1090.997, 9292.246
1091.479, 9296.653
1091.961, 9303.184
1092.443, 9320.772
1092.925, 9329.424
1093.407, 9310.384
1093.890, 9284.277
1094.372, 9269.408
1094.854, 9264.986
1095.336, 9265.013
1095.818, 9268.843
1096.300, 9271.932
1096.782, 9274.393
1097.264, 9273.900
1097.746, 9264.191
1098.229, 9256.303
1098.711, 9263.351
1099.193, 9276.848
1099.675, 9278.505
1100.157, 9265.776
1100.639, 9259.729
1101.121, 9272.019
1101.603, 9282.275
1102.086, 9285.514
1102.568, 9284.451
1103.050, 9278.138
1103.532, 9270.057
1104.014, 9264.438
1104.496, 9261.563
1104.978, 9260.183
1105.460, 9255.908
1105.943, 9260.232
1106.425, 9280.435
1106.907, 9302.958
1107.389, 9329.046
1107.871, 9349.109
1108.353, 9348.715
1108.835, 9332.710
1109.317, 9325.106
1109.799, 9333.756
1110.281, 9335.733
1110.764, 9327.751
1111.246, 9315.145
1111.728, 9291.915
1112.210, 9271.405
1112.692, 9265.928
1113.174, 9270.858
1113.656, 9274.109
1114.138, 9274.652
1114.621, 9278.082
1115.103, 9288.261
1115.585, 9294.948
1116.067, 9295.853
1116.549, 9293.616
1117.031, 9286.794
1117.513, 9280.096
1117.995, 9282.152
1118.478, 9293.110
1118.960, 9300.530
1119.442, 9304.767
1119.924, 9304.254
1120.406, 9295.732
1120.888, 9288.771
1121.370, 9286.188
1121.852, 9289.611
1122.334, 9303.766
1122.817, 9324.848
1123.299, 9331.093
1123.781, 9318.532
1124.263, 9306.821
1124.745, 9295.275
1125.227, 9288.643
1125.709, 9288.663
1126.191, 9293.122
1126.673, 9300.864
1127.156, 9310.462
1127.638, 9318.615
1128.120, 9325.213
1128.602, 9331.754
1129.084, 9338.630
1129.566, 9340.151
1130.048, 9334.756
1130.530, 9326.951
1131.013, 9318.480
1131.495, 9314.241
1131.977, 9323.790
1132.459, 9321.541
1132.941, 9326.100
1133.423, 9334.635
1133.905, 9335.494
1134.387, 9350.396
1134.870, 9358.311
1135.352, 9350.955
1135.834, 9343.906
1136.316, 9353.018
1136.798, 9369.749
1137.280, 9375.967
1137.762, 9374.291
1138.244, 9372.483
1138.726, 9371.697
1139.208, 9376.325
1139.691, 9386.351
1140.173, 9393.654
1140.655, 9393.120
1141.137, 9388.326
1141.619, 9381.979
1142.101, 9375.738
1142.583, 9372.749
1143.065, 9372.225
1143.548, 9370.871
1144.030, 9369.963
1144.512, 9376.233
1144.994, 9392.037
1145.476, 9409.601
1145.958, 9428.665
1146.440, 9438.998
1146.922, 9423.595
1147.405, 9398.498
1147.887, 9380.916
1148.369, 9371.318
1148.851, 9367.033
1149.333, 9367.143
1149.815, 9371.089
1150.297, 9378.947
1150.779, 9389.652
1151.261, 9404.842
1151.744, 9420.106
1152.226, 9434.858
1152.708, 9445.857
1153.190, 9448.146
1153.672, 9443.605
1154.154, 9438.358
1154.636, 9433.517
1155.118, 9429.624
1155.600, 9427.177
1156.083, 9425.274
1156.565, 9422.700
1157.047, 9421.494
1157.529, 9423.059
1158.011, 9426.943
1158.493, 9434.619
1158.975, 9445.870
1159.457, 9448.125
1159.940, 9428.964
1160.422, 9419.975
1160.904, 9427.095
1161.386, 9437.505
1161.868, 9451.166
1162.350, 9461.245
1162.832, 9460.306
1163.314, 9451.449
1163.796, 9443.630
1164.279, 9435.829
1164.761, 9435.875
1165.243, 9447.248
1165.725, 9453.527
1166.207, 9449.832
1166.689, 9446.563
1167.171, 9449.598
1167.653, 9456.784
1168.135, 9466.161
1168.618, 9476.319
1169.100, 9478.560
1169.582, 9472.985
1170.064, 9464.902
1170.546, 9455.016
1171.028, 9457.619
1171.510, 9477.491
1171.992, 9498.476
1172.474, 9508.121
1172.957, 9508.601
1173.439, 9499.226
1173.921, 9485.143
1174.403, 9482.207
1174.885, 9488.030
1175.367, 9494.613
1175.849, 9500.281
1176.331, 9505.216
1176.814, 9509.501
1177.296, 9512.458
1177.778, 9509.491
1178.260, 9510.264
1178.742, 9533.236
1179.224, 9561.514
1179.706, 9573.993
1180.188, 9572.444
1180.671, 9560.397
1181.153, 9541.750
1181.635, 9528.655
1182.117, 9528.412
1182.599, 9527.223
1183.081, 9514.937
1183.563, 9502.765
1184.045, 9496.754
1184.527, 9495.151
1185.010, 9497.850
1185.492, 9502.761
1185.974, 9505.670
1186.456, 9505.903
1186.938, 9506.502
1187.420, 9504.571
1187.902, 9508.236
1188.384, 9523.830
1188.866, 9539.112
1189.349, 9550.692
1189.831, 9557.437
1190.313, 9555.359
1190.795, 9547.813
1191.277, 9549.185
1191.759, 9563.319
1192.241, 9567.129
1192.723, 9554.192
1193.206, 9554.944
1193.688, 9579.115
1194.170, 9603.942
1194.652, 9616.399
1195.134, 9621.953
1195.616, 9629.229
1196.098, 9635.271
1196.580, 9624.284
1197.063, 9598.442
1197.545, 9577.966
1198.027, 9564.598
1198.509, 9558.605
1198.991, 9559.554
1199.473, 9561.556
1199.955, 9560.723
1200.437, 9557.888
1200.919, 9551.934
1201.401, 9546.244
1201.884, 9548.667
1202.366, 9545.277
1202.848, 9554.298
1203.330, 9549.315
1203.812, 9551.033
1204.294, 9561.875
1204.776, 9570.074
1205.258, 9566.769
1205.741, 9562.791
1206.223, 9564.684
1206.705, 9568.831
1207.187, 9572.672
1207.669, 9576.885
1208.151, 9584.735
1208.633, 9593.684
1209.115, 9594.474
1209.598, 9583.178
1210.080, 9577.775
1210.562, 9585.825
1211.044, 9592.785
1211.526, 9596.646
1212.008, 9597.841
1212.490, 9596.688
1212.972, 9592.645
1213.454, 9583.370
1213.937, 9571.025
1214.419, 9566.463
1214.901, 9571.247
1215.383, 9576.542
1215.865, 9582.877
1216.347, 9585.679
1216.829, 9583.407
1217.311, 9581.702
1217.793, 9583.649
1218.276, 9589.944
1218.758, 9604.209
1219.240, 9619.963
1219.722, 9614.132
1220.204, 9594.479
1220.686, 9586.932
1221.168, 9592.685
1221.650, 9611.280
1222.133, 9639.111
1222.615, 9658.162
1223.097, 9657.720
1223.579, 9651.551
1224.061, 9649.532
1224.543, 9650.431
1225.025, 9656.439
1225.507, 9661.857
1225.990, 9660.850
1226.472, 9653.495
1226.954, 9637.927
1227.436, 9615.872
1227.918, 9602.657
1228.400, 9607.319
1228.882, 9611.377
1229.364, 9608.610
1229.846, 9607.104
1230.328, 9611.595
1230.811, 9616.979
1231.293, 9618.869
1231.775, 9619.373
1232.257, 9622.331
1232.739, 9627.735
1233.221, 9633.828
1233.703, 9640.864
1234.185, 9647.767
1234.668, 9654.892
1235.150, 9658.423
1235.632, 9656.612
1236.114, 9655.269
1236.596, 9659.224
1237.078, 9664.708
1237.560, 9666.036
1238.042, 9663.241
1238.525, 9653.356
1239.007, 9640.035
1239.489, 9635.406
1239.971, 9639.015
1240.453, 9643.675
1240.935, 9647.215
1241.417, 9651.829
1241.899, 9659.339
1242.381, 9666.860
1242.864, 9674.448
1243.346, 9678.625
1243.828, 9672.098
1244.310, 9664.132
1244.792, 9667.170
1245.274, 9676.567
1245.756, 9679.516
1246.238, 9674.184
1246.720, 9672.282
1247.203, 9680.731
1247.685, 9684.209
1248.167, 9678.487
1248.649, 9672.261
1249.131, 9666.259
1249.613, 9663.984
1250.095, 9669.696
1250.577, 9678.761
1251.059, 9682.489
1251.542, 9680.979
1252.024, 9672.385
1252.506, 9656.812
1252.988, 9654.754
1253.470, 9667.198
1253.952, 9675.551
1254.434, 9674.301
1254.916, 9673.969
1255.399, 9682.170
1255.881, 9691.668
1256.363, 9690.747
1256.845, 9700.383
1257.327, 9697.002
1257.809, 9710.996
1258.291, 9716.678
1258.773, 9717.968
1259.255, 9727.548
1259.738, 9746.371
1260.220, 9762.423
1260.702, 9772.728
1261.184, 9776.582
1261.666, 9771.975
1262.148, 9763.488
1262.630, 9748.671
1263.112, 9735.245
1263.594, 9731.739
1264.077, 9730.351
1264.559, 9716.568
1265.041, 9718.504
1265.523, 9721.447
1266.005, 9717.490
1266.487, 9733.627
1266.969, 9738.948
1267.451, 9742.093
1267.934, 9745.100
1268.416, 9743.142
1268.898, 9733.130
1269.380, 9723.042
1269.862, 9722.150
1270.344, 9727.464
1270.826, 9735.706
1271.308, 9744.908
1271.791, 9752.927
1272.273, 9758.191
1272.755, 9756.337
1273.237, 9748.906
1273.719, 9742.472
1274.201, 9738.899
1274.683, 9742.240
1275.165, 9762.405
1275.647, 9778.270
1276.130, 9778.188
1276.612, 9776.075
1277.094, 9781.749
1277.576, 9788.044
1278.058, 9785.872
1278.540, 9778.701
1279.022, 9776.522
1279.504, 9779.987
1279.986, 9782.045
1280.469, 9781.897
1280.951, 9784.315
1281.433, 9790.051
1281.915, 9797.235
1282.397, 9805.256
1282.879, 9812.516
1283.361, 9817.982
1283.843, 9822.440
1284.326, 9827.016
1284.808, 9830.956
##END=



