##NAMES=Baotite
##RRUFFID=R060251
##IDEAL CHEMISTRY=Ba_4_(Ti^4+^,Nb^5+^,W^6+^)_8_O_16_(SiO_3_)_4_Cl
##LOCALITY=Baiyun-Obo mine, Inner Mongolia, China
##OWNER=RRUFF
##SOURCE=William W. Pinch
##DESCRIPTION=Brownish-purple colored cleavage fragments associated with clear brewsterite and blue richterite
##STATUS=The identification of this mineral has been confirmed by single-crystal X-ray diffraction.
##URL=rruff.info/R060251
91.18097, 0.0000000E+00
91.66309, 3954.815
92.14520, 3923.551
92.62732, 3936.868
93.10944, 3984.720
93.59155, 4039.125
94.07367, 4075.993
94.55579, 4100.477
95.03790, 4116.700
95.52002, 4126.319
96.00214, 4129.201
96.48425, 4126.878
96.96637, 4122.080
97.44849, 4116.170
97.93060, 4109.860
98.41272, 4098.443
98.89484, 4079.629
99.37695, 4062.281
99.85907, 4046.271
100.3412, 4033.489
100.8233, 4022.340
101.3054, 4013.435
101.7875, 4007.792
102.2697, 4005.907
102.7518, 4007.598
103.2339, 4012.793
103.7160, 4023.692
104.1981, 4034.225
104.6802, 4041.110
105.1624, 4044.581
105.6445, 4047.461
106.1266, 4051.433
106.6087, 4056.294
107.0908, 4060.866
107.5729, 4064.160
108.0551, 4067.292
108.5372, 4071.516
109.0193, 4076.894
109.5014, 4083.281
109.9835, 4090.679
110.4656, 4098.876
110.9478, 4107.307
111.4299, 4115.987
111.9120, 4124.794
112.3941, 4132.782
112.8762, 4138.644
113.3583, 4144.728
113.8405, 4152.783
114.3226, 4162.683
114.8047, 4172.760
115.2868, 4181.078
115.7689, 4187.367
116.2510, 4192.696
116.7332, 4196.215
117.2153, 4199.525
117.6974, 4203.393
118.1795, 4208.128
118.6616, 4213.878
119.1437, 4220.983
119.6259, 4230.191
120.1080, 4239.960
120.5901, 4251.052
121.0722, 4262.430
121.5543, 4272.798
122.0364, 4281.461
122.5186, 4288.605
123.0007, 4295.069
123.4828, 4301.142
123.9649, 4306.437
124.4470, 4310.361
124.9291, 4313.205
125.4113, 4315.960
125.8934, 4318.960
126.3755, 4322.561
126.8576, 4327.534
127.3397, 4335.258
127.8218, 4343.588
128.3040, 4350.415
128.7861, 4355.463
129.2682, 4360.356
129.7503, 4366.132
130.2324, 4372.581
130.7145, 4379.498
131.1967, 4387.995
131.6788, 4396.960
132.1609, 4402.605
132.6430, 4402.588
133.1251, 4402.444
133.6072, 4404.489
134.0894, 4408.428
134.5715, 4413.511
135.0536, 4419.328
135.5357, 4425.940
136.0178, 4432.744
136.4999, 4440.108
136.9821, 4447.319
137.4642, 4454.043
137.9463, 4460.346
138.4284, 4466.438
138.9105, 4472.604
139.3926, 4478.833
139.8748, 4485.236
140.3569, 4492.242
140.8390, 4499.144
141.3211, 4505.800
141.8032, 4512.052
142.2853, 4517.404
142.7675, 4520.766
143.2496, 4519.818
143.7317, 4521.309
144.2138, 4527.642
144.6959, 4535.981
145.1780, 4543.038
145.6602, 4547.764
146.1423, 4550.294
146.6244, 4550.269
147.1065, 4546.900
147.5886, 4544.036
148.0707, 4543.425
148.5529, 4544.593
149.0350, 4545.933
149.5171, 4547.015
149.9992, 4547.757
150.4813, 4548.177
150.9634, 4548.260
151.4456, 4548.047
151.9277, 4547.437
152.4098, 4546.372
152.8919, 4545.444
153.3740, 4545.038
153.8561, 4544.805
154.3383, 4544.569
154.8204, 4544.354
155.3025, 4543.886
155.7846, 4542.445
156.2667, 4539.164
156.7488, 4536.858
157.2310, 4536.146
157.7131, 4536.606
158.1952, 4537.855
158.6773, 4539.709
159.1594, 4542.219
159.6415, 4545.688
160.1237, 4552.591
160.6058, 4557.432
161.0879, 4556.491
161.5700, 4553.426
162.0521, 4553.579
162.5342, 4560.578
163.0164, 4573.905
163.4985, 4585.069
163.9806, 4594.173
164.4627, 4601.289
164.9448, 4606.306
165.4269, 4609.297
165.9091, 4610.197
166.3912, 4608.799
166.8733, 4605.006
167.3554, 4601.012
167.8375, 4596.314
168.3196, 4591.873
168.8018, 4587.899
169.2839, 4584.524
169.7660, 4582.423
170.2481, 4582.422
170.7302, 4584.604
171.2123, 4586.981
171.6945, 4590.620
172.1766, 4593.843
172.6587, 4594.804
173.1408, 4593.208
173.6229, 4590.521
174.1050, 4586.868
174.5872, 4582.869
175.0693, 4580.705
175.5514, 4581.908
176.0335, 4585.219
176.5156, 4588.528
176.9977, 4592.478
177.4799, 4594.712
177.9620, 4592.738
178.4441, 4587.864
178.9262, 4583.256
179.4083, 4580.553
179.8904, 4579.592
180.3726, 4579.533
180.8547, 4580.727
181.3368, 4582.524
181.8189, 4584.698
182.3010, 4587.188
182.7831, 4589.870
183.2653, 4592.908
183.7474, 4596.407
184.2295, 4598.851
184.7116, 4598.374
185.1937, 4598.384
185.6758, 4600.479
186.1580, 4604.312
186.6401, 4608.411
187.1222, 4611.497
187.6043, 4613.748
188.0864, 4613.914
188.5685, 4610.158
189.0507, 4606.098
189.5328, 4603.348
190.0149, 4602.067
190.4970, 4601.641
190.9791, 4601.494
191.4612, 4602.118
191.9434, 4601.244
192.4255, 4596.833
192.9076, 4592.573
193.3897, 4591.653
193.8718, 4594.338
194.3539, 4597.671
194.8361, 4597.788
195.3182, 4592.743
195.8003, 4589.747
196.2824, 4588.854
196.7645, 4590.035
197.2466, 4594.664
197.7288, 4603.135
198.2109, 4611.249
198.6930, 4612.188
199.1751, 4604.650
199.6572, 4599.937
200.1393, 4601.675
200.6215, 4606.728
201.1036, 4610.537
201.5857, 4611.796
202.0678, 4612.786
202.5499, 4617.093
203.0320, 4624.376
203.5142, 4630.883
203.9963, 4634.830
204.4784, 4637.032
204.9605, 4639.181
205.4426, 4641.130
205.9247, 4643.930
206.4069, 4649.163
206.8890, 4656.479
207.3711, 4663.095
207.8532, 4667.598
208.3353, 4670.142
208.8174, 4671.122
209.2996, 4668.892
209.7817, 4667.189
210.2638, 4669.122
210.7459, 4674.170
211.2280, 4679.310
211.7101, 4681.889
212.1923, 4682.001
212.6744, 4683.279
213.1565, 4686.871
213.6386, 4690.968
214.1207, 4695.107
214.6028, 4699.052
215.0850, 4702.328
215.5671, 4703.760
216.0492, 4702.868
216.5313, 4704.276
217.0134, 4711.212
217.4955, 4718.062
217.9777, 4722.538
218.4598, 4724.789
218.9419, 4726.395
219.4240, 4728.578
219.9061, 4731.039
220.3882, 4735.821
220.8704, 4744.288
221.3525, 4753.822
221.8346, 4764.499
222.3167, 4775.562
222.7988, 4785.034
223.2809, 4790.179
223.7631, 4788.783
224.2452, 4792.754
224.7273, 4805.883
225.2094, 4819.999
225.6915, 4831.690
226.1736, 4840.468
226.6558, 4847.203
227.1379, 4852.649
227.6200, 4856.412
228.1021, 4860.342
228.5842, 4865.233
229.0663, 4869.599
229.5485, 4871.897
230.0306, 4872.417
230.5127, 4873.076
230.9948, 4875.645
231.4769, 4880.338
231.9590, 4887.007
232.4412, 4898.261
232.9233, 4909.281
233.4054, 4917.428
233.8875, 4922.368
234.3696, 4924.515
234.8517, 4923.273
235.3339, 4918.108
235.8160, 4917.605
236.2981, 4924.948
236.7802, 4934.474
237.2623, 4943.268
237.7444, 4950.791
238.2266, 4955.683
238.7087, 4956.779
239.1908, 4953.653
239.6729, 4947.540
240.1550, 4936.805
240.6371, 4924.190
241.1193, 4910.760
241.6014, 4896.618
242.0835, 4885.056
242.5656, 4879.699
243.0477, 4879.295
243.5298, 4877.749
244.0120, 4873.292
244.4941, 4868.284
244.9762, 4865.030
245.4583, 4863.631
245.9404, 4862.663
246.4225, 4860.978
246.9047, 4859.170
247.3868, 4858.552
247.8689, 4860.187
248.3510, 4862.343
248.8331, 4863.642
249.3152, 4864.170
249.7974, 4862.697
250.2795, 4855.842
250.7616, 4847.360
251.2437, 4842.896
251.7258, 4844.949
252.2079, 4849.177
252.6901, 4850.632
253.1722, 4848.980
253.6543, 4846.827
254.1364, 4844.090
254.6185, 4842.002
255.1006, 4842.227
255.5828, 4845.670
256.0649, 4849.983
256.5470, 4852.010
257.0291, 4851.288
257.5112, 4851.331
257.9933, 4852.981
258.4755, 4856.219
258.9576, 4861.804
259.4397, 4870.077
259.9218, 4878.863
260.4039, 4885.025
260.8860, 4887.829
261.3682, 4892.258
261.8503, 4903.086
262.3324, 4913.709
262.8145, 4919.928
263.2966, 4921.018
263.7787, 4919.269
264.2609, 4916.477
264.7430, 4912.140
265.2251, 4909.501
265.7072, 4909.743
266.1893, 4911.376
266.6714, 4914.426
267.1536, 4918.591
267.6357, 4922.507
268.1178, 4924.754
268.5999, 4925.157
269.0820, 4924.961
269.5641, 4924.631
270.0463, 4923.357
270.5284, 4920.022
271.0105, 4915.089
271.4926, 4910.403
271.9747, 4907.898
272.4568, 4907.866
272.9390, 4907.362
273.4211, 4905.067
273.9032, 4903.451
274.3853, 4903.593
274.8674, 4905.201
275.3495, 4907.295
275.8317, 4909.057
276.3138, 4910.458
276.7959, 4912.401
277.2780, 4915.195
277.7601, 4918.256
278.2422, 4922.455
278.7244, 4926.769
279.2065, 4929.070
279.6886, 4927.508
280.1707, 4922.636
280.6528, 4920.327
281.1349, 4922.599
281.6171, 4925.597
282.0992, 4930.254
282.5813, 4934.861
283.0634, 4936.887
283.5455, 4934.710
284.0276, 4929.259
284.5098, 4924.694
284.9919, 4921.208
285.4740, 4918.552
285.9561, 4916.221
286.4382, 4914.846
286.9203, 4915.415
287.4025, 4918.384
287.8846, 4922.932
288.3667, 4926.849
288.8488, 4929.287
289.3309, 4932.282
289.8130, 4937.563
290.2952, 4942.588
290.7773, 4944.797
291.2594, 4943.401
291.7415, 4939.812
292.2236, 4936.608
292.7057, 4934.883
293.1879, 4931.593
293.6700, 4924.405
294.1521, 4917.370
294.6342, 4913.688
295.1163, 4913.886
295.5984, 4916.239
296.0806, 4918.747
296.5627, 4922.175
297.0448, 4923.362
297.5269, 4919.708
298.0090, 4916.336
298.4911, 4916.819
298.9733, 4920.921
299.4554, 4925.804
299.9375, 4928.767
300.4196, 4929.706
300.9017, 4929.205
301.3839, 4924.203
301.8660, 4920.882
302.3481, 4923.139
302.8302, 4929.492
303.3123, 4935.614
303.7944, 4938.295
304.2766, 4937.591
304.7587, 4936.257
305.2408, 4932.597
305.7229, 4930.140
306.2050, 4930.143
306.6871, 4931.977
307.1693, 4934.771
307.6514, 4938.145
308.1335, 4941.704
308.6156, 4943.528
309.0977, 4940.886
309.5798, 4939.708
310.0620, 4941.807
310.5441, 4945.295
311.0262, 4947.827
311.5083, 4948.466
311.9904, 4947.926
312.4725, 4947.703
312.9547, 4946.300
313.4368, 4947.531
313.9189, 4953.040
314.4010, 4960.093
314.8831, 4966.253
315.3652, 4970.952
315.8474, 4975.587
316.3295, 4982.484
316.8116, 4994.421
317.2937, 5000.868
317.7758, 4998.204
318.2579, 4993.723
318.7401, 4991.417
319.2222, 4991.776
319.7043, 4993.522
320.1864, 4995.491
320.6685, 4997.678
321.1506, 5000.103
321.6328, 5003.496
322.1149, 5006.380
322.5970, 5007.936
323.0791, 5008.495
323.5612, 5008.935
324.0433, 5009.886
324.5255, 5010.230
325.0076, 5012.169
325.4897, 5011.468
325.9718, 5011.569
326.4539, 5012.721
326.9360, 5015.018
327.4182, 5019.401
327.9003, 5026.458
328.3824, 5034.051
328.8645, 5036.042
329.3466, 5025.677
329.8287, 5018.541
330.3109, 5017.256
330.7930, 5018.262
331.2751, 5018.303
331.7572, 5016.461
332.2393, 5014.029
332.7214, 5012.938
333.2036, 5013.354
333.6857, 5014.912
334.1678, 5019.023
334.6499, 5022.952
335.1320, 5023.356
335.6141, 5021.149
336.0963, 5021.411
336.5784, 5030.353
337.0605, 5050.019
337.5426, 5060.698
338.0247, 5055.185
338.5068, 5048.333
338.9890, 5044.169
339.4711, 5042.594
339.9532, 5042.802
340.4353, 5044.674
340.9174, 5047.398
341.3995, 5045.515
341.8817, 5031.251
342.3638, 5021.817
342.8459, 5022.882
343.3280, 5028.892
343.8101, 5033.475
344.2922, 5033.917
344.7744, 5031.602
345.2565, 5029.466
345.7386, 5027.890
346.2207, 5025.720
346.7028, 5021.273
347.1849, 5017.375
347.6671, 5017.093
348.1492, 5020.458
348.6313, 5023.986
349.1134, 5023.142
349.5955, 5016.781
350.0776, 5011.104
350.5598, 5004.802
351.0419, 5000.375
351.5240, 4999.889
352.0061, 5002.393
352.4882, 5005.143
352.9703, 5005.841
353.4525, 5004.825
353.9346, 5005.589
354.4167, 5009.824
354.8988, 5013.667
355.3809, 5014.930
355.8630, 5015.464
356.3452, 5018.259
356.8273, 5025.116
357.3094, 5033.504
357.7915, 5037.492
358.2736, 5035.186
358.7557, 5033.338
359.2379, 5032.877
359.7200, 5033.796
360.2021, 5036.648
360.6842, 5041.466
361.1663, 5046.635
361.6484, 5050.009
362.1306, 5051.292
362.6127, 5054.251
363.0948, 5063.216
363.5769, 5069.962
364.0590, 5068.085
364.5411, 5059.382
365.0233, 5051.430
365.5054, 5049.865
365.9875, 5053.335
366.4696, 5055.798
366.9517, 5056.128
367.4338, 5057.704
367.9160, 5062.075
368.3981, 5068.694
368.8802, 5077.399
369.3623, 5089.665
369.8444, 5101.858
370.3265, 5108.569
370.8087, 5109.469
371.2908, 5108.099
371.7729, 5104.799
372.2550, 5100.351
372.7371, 5095.216
373.2192, 5089.258
373.7014, 5084.097
374.1835, 5081.898
374.6656, 5081.843
375.1477, 5079.635
375.6298, 5073.033
376.1119, 5066.556
376.5941, 5065.569
377.0762, 5069.044
377.5583, 5071.261
378.0404, 5068.898
378.5225, 5064.562
379.0046, 5061.737
379.4868, 5060.609
379.9689, 5061.161
380.4510, 5064.164
380.9331, 5068.843
381.4152, 5072.767
381.8973, 5076.284
382.3795, 5078.385
382.8616, 5076.933
383.3437, 5073.057
383.8258, 5071.427
384.3079, 5074.212
384.7900, 5079.784
385.2722, 5084.969
385.7543, 5089.368
386.2364, 5094.712
386.7185, 5102.774
387.2006, 5111.482
387.6827, 5118.499
388.1649, 5123.352
388.6470, 5125.995
389.1291, 5126.389
389.6112, 5124.275
390.0933, 5119.995
390.5754, 5110.525
391.0576, 5101.584
391.5397, 5096.524
392.0218, 5095.049
392.5039, 5095.430
392.9860, 5096.732
393.4681, 5098.935
393.9503, 5101.962
394.4324, 5107.821
394.9145, 5111.964
395.3966, 5113.544
395.8787, 5113.141
396.3608, 5111.269
396.8430, 5108.117
397.3251, 5103.867
397.8072, 5098.516
398.2893, 5090.576
398.7714, 5085.725
399.2535, 5084.779
399.7357, 5085.674
400.2178, 5087.788
400.6999, 5090.751
401.1820, 5094.358
401.6641, 5098.870
402.1462, 5103.921
402.6284, 5104.954
403.1105, 5096.849
403.5926, 5090.694
404.0747, 5088.909
404.5568, 5089.912
405.0389, 5092.162
405.5211, 5095.046
406.0032, 5097.990
406.4853, 5099.905
406.9674, 5100.510
407.4495, 5101.009
407.9316, 5102.906
408.4138, 5103.609
408.8959, 5099.877
409.3780, 5092.788
409.8601, 5087.700
410.3422, 5090.053
410.8243, 5098.747
411.3065, 5104.913
411.7886, 5107.654
412.2707, 5109.204
412.7528, 5110.662
413.2349, 5111.638
413.7170, 5111.218
414.1992, 5108.417
414.6813, 5105.597
415.1634, 5106.576
415.6455, 5111.603
416.1276, 5115.675
416.6097, 5117.627
417.0919, 5117.646
417.5740, 5115.352
418.0561, 5110.720
418.5382, 5107.309
419.0203, 5107.550
419.5024, 5110.326
419.9846, 5113.452
420.4667, 5116.820
420.9488, 5120.056
421.4309, 5122.981
421.9130, 5125.519
422.3951, 5127.407
422.8773, 5128.764
423.3594, 5129.311
423.8415, 5128.022
424.3236, 5125.530
424.8057, 5124.324
425.2878, 5125.581
425.7700, 5128.417
426.2521, 5131.248
426.7342, 5134.550
427.2163, 5136.551
427.6984, 5136.603
428.1805, 5135.412
428.6627, 5133.156
429.1448, 5130.080
429.6269, 5127.471
430.1090, 5126.474
430.5911, 5127.133
431.0732, 5128.844
431.5554, 5133.115
432.0375, 5136.616
432.5196, 5137.786
433.0017, 5137.528
433.4838, 5137.523
433.9659, 5138.557
434.4481, 5139.875
434.9302, 5139.596
435.4123, 5135.375
435.8944, 5133.917
436.3765, 5137.771
436.8586, 5142.099
437.3408, 5144.148
437.8229, 5143.573
438.3050, 5141.009
438.7871, 5136.235
439.2692, 5129.576
439.7513, 5126.758
440.2335, 5130.795
440.7156, 5134.522
441.1977, 5135.295
441.6798, 5134.799
442.1619, 5135.331
442.6440, 5137.819
443.1262, 5140.739
443.6083, 5141.918
444.0904, 5141.215
444.5725, 5140.458
445.0546, 5139.604
445.5367, 5139.202
446.0189, 5139.974
446.5010, 5141.668
446.9831, 5142.920
447.4652, 5143.096
447.9473, 5142.337
448.4294, 5140.104
448.9116, 5135.982
449.3937, 5133.931
449.8758, 5137.494
450.3579, 5144.288
450.8400, 5148.611
451.3221, 5148.591
451.8043, 5149.536
452.2864, 5156.752
452.7685, 5166.666
453.2506, 5171.242
453.7327, 5168.202
454.2148, 5161.395
454.6970, 5154.758
455.1791, 5148.225
455.6612, 5142.546
456.1433, 5137.086
456.6254, 5133.022
457.1075, 5131.030
457.5897, 5131.015
458.0718, 5132.665
458.5539, 5135.901
459.0360, 5140.415
459.5181, 5145.287
460.0002, 5153.170
460.4824, 5157.734
460.9645, 5156.056
461.4466, 5153.050
461.9287, 5152.837
462.4108, 5155.758
462.8929, 5159.456
463.3751, 5161.971
463.8572, 5163.319
464.3393, 5162.084
464.8214, 5156.799
465.3035, 5150.478
465.7856, 5141.538
466.2678, 5132.903
466.7499, 5128.575
467.2320, 5130.184
467.7141, 5134.633
468.1962, 5137.500
468.6783, 5138.540
469.1605, 5140.616
469.6426, 5145.790
470.1247, 5150.231
470.6068, 5150.325
471.0889, 5147.119
471.5710, 5145.079
472.0532, 5147.159
472.5353, 5151.297
473.0174, 5154.292
473.4995, 5156.113
473.9816, 5158.047
474.4637, 5161.678
474.9459, 5165.067
475.4280, 5164.665
475.9101, 5159.985
476.3922, 5153.406
476.8743, 5143.195
477.3564, 5132.666
477.8386, 5127.175
478.3207, 5127.507
478.8028, 5129.934
479.2849, 5131.294
479.7670, 5131.590
480.2491, 5131.994
480.7313, 5132.406
481.2134, 5133.056
481.6955, 5134.071
482.1776, 5135.373
482.6597, 5137.076
483.1418, 5139.176
483.6240, 5141.005
484.1061, 5141.472
484.5882, 5140.518
485.0703, 5138.218
485.5524, 5133.182
486.0345, 5128.180
486.5167, 5124.209
486.9988, 5121.298
487.4809, 5119.164
487.9630, 5117.562
488.4451, 5116.758
488.9272, 5117.738
489.4094, 5121.186
489.8915, 5124.222
490.3736, 5126.322
490.8557, 5127.542
491.3378, 5127.542
491.8199, 5126.406
492.3021, 5125.299
492.7842, 5124.462
493.2663, 5124.298
493.7484, 5126.249
494.2305, 5130.819
494.7126, 5135.141
495.1948, 5137.413
495.6769, 5138.203
496.1590, 5139.256
496.6411, 5141.607
497.1232, 5142.389
497.6053, 5139.720
498.0875, 5134.702
498.5696, 5128.843
499.0517, 5122.519
499.5338, 5116.319
500.0159, 5110.741
500.4980, 5105.751
500.9802, 5102.545
501.4623, 5100.563
501.9444, 5100.678
502.4265, 5103.762
502.9086, 5109.037
503.3907, 5116.288
503.8729, 5125.338
504.3550, 5133.543
504.8371, 5135.864
505.3192, 5130.139
505.8013, 5124.513
506.2834, 5117.796
506.7656, 5112.353
507.2477, 5108.866
507.7298, 5107.557
508.2119, 5108.961
508.6940, 5113.999
509.1761, 5120.768
509.6583, 5125.993
510.1404, 5129.930
510.6225, 5130.512
511.1046, 5124.599
511.5867, 5117.208
512.0688, 5112.716
512.5510, 5111.175
513.0331, 5110.601
513.5152, 5109.796
513.9973, 5109.527
514.4794, 5111.703
514.9615, 5116.311
515.4437, 5119.689
515.9258, 5119.577
516.4079, 5116.964
516.8900, 5114.807
517.3721, 5113.483
517.8542, 5111.756
518.3364, 5108.120
518.8185, 5104.676
519.3006, 5103.758
519.7827, 5105.507
520.2648, 5108.442
520.7469, 5111.346
521.2291, 5114.255
521.7112, 5117.666
522.1933, 5123.810
522.6754, 5127.636
523.1575, 5127.696
523.6396, 5125.579
524.1218, 5122.455
524.6039, 5118.758
525.0860, 5115.041
525.5681, 5110.761
526.0502, 5106.052
526.5323, 5107.034
527.0145, 5118.343
527.4966, 5127.261
527.9787, 5125.713
528.4608, 5118.986
528.9429, 5114.055
529.4250, 5112.514
529.9072, 5113.159
530.3893, 5116.670
530.8714, 5121.721
531.3535, 5123.464
531.8356, 5120.443
532.3177, 5116.362
532.7999, 5114.353
533.2820, 5114.460
533.7641, 5115.323
534.2462, 5116.705
534.7283, 5119.072
535.2104, 5124.003
535.6926, 5129.742
536.1747, 5132.971
536.6568, 5132.631
537.1389, 5130.883
537.6210, 5130.769
538.1031, 5132.843
538.5853, 5134.125
539.0674, 5133.852
539.5495, 5133.661
540.0316, 5134.950
540.5137, 5136.468
540.9958, 5135.954
541.4780, 5132.379
541.9601, 5127.665
542.4422, 5124.573
542.9243, 5123.168
543.4064, 5122.237
543.8885, 5120.220
544.3707, 5120.667
544.8528, 5128.285
545.3349, 5140.050
545.8170, 5147.920
546.2991, 5148.322
546.7813, 5145.001
547.2634, 5139.987
547.7455, 5133.949
548.2276, 5129.691
548.7097, 5128.310
549.1918, 5128.164
549.6740, 5126.854
550.1561, 5123.803
550.6382, 5123.522
551.1203, 5128.665
551.6024, 5133.999
552.0845, 5135.846
552.5667, 5135.985
553.0488, 5138.508
553.5309, 5145.157
554.0130, 5153.455
554.4951, 5159.068
554.9772, 5161.644
555.4594, 5162.514
555.9415, 5160.460
556.4236, 5157.801
556.9057, 5154.891
557.3878, 5152.109
557.8699, 5149.952
558.3521, 5148.608
558.8342, 5148.102
559.3163, 5148.638
559.7984, 5150.194
560.2805, 5152.134
560.7626, 5154.970
561.2448, 5157.073
561.7269, 5156.546
562.2090, 5153.831
562.6911, 5150.521
563.1732, 5145.718
563.6553, 5141.530
564.1375, 5139.081
564.6196, 5138.298
565.1017, 5139.330
565.5838, 5142.276
566.0659, 5145.654
566.5480, 5147.116
567.0302, 5145.596
567.5123, 5146.894
567.9944, 5153.567
568.4765, 5159.845
568.9586, 5164.191
569.4407, 5166.566
569.9229, 5166.771
570.4050, 5164.760
570.8871, 5161.751
571.3692, 5159.629
571.8513, 5158.504
572.3334, 5156.126
572.8156, 5150.697
573.2977, 5146.637
573.7798, 5147.297
574.2619, 5150.933
574.7440, 5154.428
575.2261, 5157.126
575.7083, 5159.409
576.1904, 5160.690
576.6725, 5161.859
577.1546, 5166.314
577.6367, 5175.125
578.1188, 5182.249
578.6010, 5181.399
579.0831, 5172.581
579.5652, 5165.702
580.0473, 5159.959
580.5294, 5156.731
581.0115, 5157.484
581.4937, 5160.361
581.9758, 5164.205
582.4579, 5168.255
582.9400, 5170.454
583.4221, 5167.736
583.9042, 5160.446
584.3864, 5157.494
584.8685, 5161.393
585.3506, 5165.168
585.8327, 5166.718
586.3148, 5166.820
586.7969, 5166.049
587.2791, 5164.491
587.7612, 5162.565
588.2433, 5160.157
588.7254, 5157.706
589.2075, 5156.330
589.6896, 5156.127
590.1718, 5155.450
590.6539, 5152.680
591.1360, 5149.244
591.6181, 5149.919
592.1002, 5158.396
592.5823, 5163.135
593.0645, 5160.453
593.5466, 5155.175
594.0287, 5149.886
594.5108, 5145.546
594.9929, 5143.252
595.4750, 5143.819
595.9572, 5146.685
596.4393, 5150.445
596.9214, 5155.848
597.4035, 5160.169
597.8856, 5164.825
598.3677, 5166.663
598.8499, 5161.562
599.3320, 5151.634
599.8141, 5144.120
600.2962, 5142.039
600.7783, 5144.121
601.2604, 5150.878
601.7426, 5161.181
602.2247, 5168.442
602.7068, 5170.453
603.1889, 5169.526
603.6710, 5167.787
604.1531, 5164.991
604.6353, 5164.018
605.1174, 5167.313
605.5995, 5169.703
606.0816, 5168.486
606.5637, 5165.134
607.0458, 5161.592
607.5280, 5158.575
608.0101, 5156.177
608.4922, 5154.190
608.9743, 5152.537
609.4564, 5153.997
609.9385, 5160.492
610.4207, 5166.991
610.9028, 5172.387
611.3849, 5176.469
611.8670, 5178.945
612.3491, 5179.748
612.8312, 5179.130
613.3134, 5176.518
613.7955, 5172.854
614.2776, 5169.384
614.7597, 5166.293
615.2418, 5164.884
615.7239, 5166.154
616.2061, 5169.384
616.6882, 5172.696
617.1703, 5177.595
617.6524, 5179.784
618.1345, 5177.069
618.6166, 5173.360
619.0988, 5170.470
619.5809, 5168.912
620.0630, 5169.396
620.5451, 5172.493
621.0272, 5176.642
621.5093, 5178.217
621.9915, 5176.565
622.4736, 5177.015
622.9557, 5181.640
623.4378, 5186.640
623.9199, 5189.538
624.4020, 5190.828
624.8842, 5191.810
625.3663, 5193.464
625.8484, 5193.783
626.3305, 5188.481
626.8126, 5181.436
627.2947, 5181.569
627.7769, 5190.497
628.2590, 5201.422
628.7411, 5208.599
629.2232, 5212.235
629.7053, 5214.931
630.1874, 5218.798
630.6696, 5218.812
631.1517, 5209.861
631.6338, 5200.196
632.1159, 5197.311
632.5980, 5201.029
633.0801, 5205.617
633.5623, 5206.862
634.0444, 5206.410
634.5265, 5208.961
635.0086, 5214.936
635.4907, 5218.029
635.9728, 5215.570
636.4550, 5210.624
636.9371, 5206.125
637.4192, 5202.071
637.9013, 5199.432
638.3834, 5197.927
638.8655, 5198.297
639.3477, 5202.387
639.8298, 5208.277
640.3119, 5212.385
640.7940, 5213.749
641.2761, 5214.447
641.7582, 5217.125
642.2404, 5221.820
642.7225, 5224.653
643.2046, 5225.720
643.6867, 5224.545
644.1688, 5218.256
644.6509, 5211.575
645.1331, 5209.924
645.6152, 5213.683
646.0973, 5217.089
646.5794, 5215.880
647.0615, 5212.521
647.5436, 5210.944
648.0258, 5211.083
648.5079, 5211.079
648.9900, 5209.967
649.4721, 5209.008
649.9542, 5210.567
650.4363, 5216.087
650.9185, 5218.933
651.4006, 5218.203
651.8827, 5216.036
652.3648, 5212.147
652.8469, 5207.864
653.3290, 5204.671
653.8112, 5203.094
654.2933, 5203.315
654.7754, 5206.694
655.2575, 5212.595
655.7396, 5215.126
656.2217, 5213.113
656.7039, 5211.292
657.1860, 5211.179
657.6681, 5213.010
658.1502, 5217.161
658.6323, 5223.973
659.1144, 5230.891
659.5966, 5238.631
660.0787, 5244.911
660.5608, 5247.240
661.0429, 5246.427
661.5250, 5244.574
662.0071, 5242.583
662.4893, 5241.262
662.9714, 5242.518
663.4535, 5247.501
663.9356, 5248.908
664.4177, 5243.214
664.8998, 5238.586
665.3820, 5238.953
665.8641, 5241.660
666.3462, 5243.064
666.8283, 5242.308
667.3104, 5241.998
667.7925, 5244.744
668.2747, 5248.601
668.7568, 5251.265
669.2389, 5252.309
669.7210, 5249.511
670.2031, 5241.042
670.6852, 5229.979
671.1674, 5222.490
671.6495, 5219.624
672.1316, 5217.802
672.6137, 5218.053
673.0958, 5218.164
673.5779, 5216.874
674.0601, 5214.971
674.5422, 5213.776
675.0243, 5213.739
675.5064, 5213.977
675.9885, 5214.237
676.4706, 5214.080
676.9528, 5211.061
677.4349, 5204.568
677.9170, 5199.319
678.3991, 5197.795
678.8812, 5198.974
679.3633, 5201.270
679.8455, 5205.792
680.3276, 5207.638
680.8097, 5205.078
681.2918, 5200.897
681.7739, 5194.337
682.2560, 5187.954
682.7382, 5186.999
683.2203, 5193.312
683.7024, 5201.944
684.1845, 5206.646
684.6666, 5207.491
685.1487, 5207.365
685.6309, 5205.525
686.1130, 5204.834
686.5951, 5207.681
687.0772, 5211.863
687.5593, 5214.756
688.0414, 5216.757
688.5236, 5214.651
689.0057, 5202.572
689.4878, 5190.299
689.9699, 5185.849
690.4520, 5187.796
690.9341, 5192.390
691.4163, 5198.039
691.8984, 5202.995
692.3805, 5204.724
692.8626, 5203.095
693.3447, 5200.231
693.8268, 5194.849
694.3090, 5190.516
694.7911, 5188.887
695.2732, 5188.715
695.7553, 5188.877
696.2374, 5189.250
696.7195, 5189.931
697.2017, 5190.899
697.6838, 5192.210
698.1659, 5193.523
698.6480, 5195.187
699.1301, 5198.436
699.6122, 5203.708
700.0944, 5210.045
700.5765, 5216.620
701.0586, 5223.648
701.5407, 5227.047
702.0228, 5225.727
702.5049, 5222.252
702.9871, 5215.036
703.4692, 5207.690
703.9513, 5203.586
704.4334, 5202.938
704.9155, 5203.563
705.3976, 5203.738
705.8798, 5205.013
706.3619, 5211.132
706.8440, 5220.149
707.3261, 5224.378
707.8082, 5221.362
708.2903, 5216.752
708.7725, 5216.627
709.2546, 5220.925
709.7367, 5226.053
710.2188, 5234.647
710.7009, 5240.273
711.1830, 5241.597
711.6652, 5240.050
712.1473, 5235.425
712.6294, 5228.702
713.1115, 5223.239
713.5936, 5221.037
714.0757, 5220.548
714.5579, 5219.976
715.0400, 5219.539
715.5221, 5220.476
716.0042, 5223.200
716.4863, 5225.132
716.9684, 5223.633
717.4506, 5219.484
717.9327, 5218.037
718.4148, 5222.720
718.8969, 5225.312
719.3790, 5225.080
719.8611, 5222.999
720.3433, 5218.125
720.8254, 5211.990
721.3075, 5208.082
721.7896, 5208.095
722.2717, 5210.250
722.7538, 5213.124
723.2360, 5216.506
723.7181, 5220.113
724.2002, 5223.934
724.6823, 5226.396
725.1644, 5226.119
725.6465, 5224.162
726.1287, 5223.735
726.6108, 5225.747
727.0929, 5227.582
727.5750, 5230.707
728.0571, 5232.187
728.5392, 5229.212
729.0214, 5224.046
729.5035, 5220.005
729.9856, 5218.104
730.4677, 5218.940
730.9498, 5225.126
731.4319, 5233.991
731.9141, 5239.779
732.3962, 5242.163
732.8783, 5240.269
733.3604, 5233.005
733.8425, 5223.116
734.3246, 5214.715
734.8068, 5207.372
735.2889, 5203.620
735.7710, 5206.104
736.2531, 5208.661
736.7352, 5209.310
737.2173, 5209.156
737.6995, 5208.879
738.1816, 5208.876
738.6637, 5210.611
739.1458, 5216.193
739.6279, 5223.384
740.1100, 5229.510
740.5922, 5234.261
741.0743, 5235.268
741.5564, 5231.477
742.0385, 5226.621
742.5206, 5224.792
743.0027, 5220.709
743.4849, 5224.044
743.9670, 5215.502
744.4491, 5210.162
744.9312, 5210.013
745.4133, 5212.461
745.8954, 5217.788
746.3776, 5224.151
746.8597, 5226.347
747.3418, 5220.312
747.8239, 5213.816
748.3060, 5215.033
748.7881, 5221.943
749.2703, 5231.122
749.7524, 5241.727
750.2345, 5248.924
750.7166, 5249.669
751.1987, 5244.581
751.6808, 5234.461
752.1630, 5213.685
752.6451, 5201.000
753.1272, 5203.343
753.6093, 5206.276
754.0914, 5204.511
754.5735, 5199.982
755.0557, 5195.107
755.5378, 5190.279
756.0199, 5187.584
756.5020, 5189.481
756.9841, 5193.509
757.4662, 5196.901
757.9484, 5199.529
758.4305, 5201.702
758.9126, 5203.519
759.3947, 5204.650
759.8768, 5204.398
760.3589, 5202.713
760.8411, 5203.104
761.3232, 5206.129
761.8053, 5210.145
762.2874, 5217.662
762.7695, 5223.695
763.2516, 5222.825
763.7338, 5216.372
764.2159, 5212.023
764.6980, 5212.380
765.1801, 5215.422
765.6622, 5220.266
766.1443, 5226.781
766.6265, 5236.292
767.1086, 5247.951
767.5907, 5257.423
768.0728, 5261.957
768.5549, 5261.600
769.0370, 5254.822
769.5192, 5239.845
770.0013, 5230.108
770.4834, 5228.023
770.9655, 5228.978
771.4476, 5232.820
771.9297, 5237.133
772.4119, 5237.464
772.8940, 5232.701
773.3761, 5227.745
773.8582, 5223.552
774.3403, 5219.917
774.8224, 5216.223
775.3046, 5213.117
775.7867, 5212.367
776.2688, 5214.259
776.7509, 5216.142
777.2330, 5214.360
777.7151, 5210.550
778.1973, 5211.830
778.6794, 5218.666
779.1615, 5226.153
779.6436, 5234.341
780.1257, 5239.687
780.6078, 5237.207
781.0900, 5227.367
781.5721, 5221.335
782.0542, 5222.063
782.5363, 5222.396
783.0184, 5222.686
783.5005, 5220.854
783.9827, 5212.445
784.4648, 5200.598
784.9469, 5193.993
785.4290, 5197.094
785.9111, 5203.482
786.3932, 5206.387
786.8754, 5206.829
787.3575, 5207.708
787.8396, 5209.219
788.3217, 5210.529
788.8038, 5211.392
789.2859, 5211.029
789.7681, 5207.361
790.2502, 5198.563
790.7323, 5195.789
791.2144, 5202.469
791.6965, 5211.081
792.1786, 5222.510
792.6608, 5233.229
793.1429, 5239.931
793.6250, 5242.530
794.1071, 5243.063
794.5892, 5242.195
795.0714, 5239.923
795.5535, 5236.835
796.0356, 5232.153
796.5177, 5223.849
796.9998, 5212.000
797.4819, 5198.649
797.9641, 5184.654
798.4462, 5172.021
798.9283, 5166.804
799.4104, 5170.134
799.8925, 5172.596
800.3746, 5173.271
800.8568, 5173.253
801.3389, 5173.192
801.8210, 5172.730
802.3031, 5170.949
802.7852, 5167.234
803.2673, 5164.977
803.7495, 5164.388
804.2316, 5165.910
804.7137, 5171.305
805.1958, 5178.351
805.6779, 5185.056
806.1600, 5190.393
806.6422, 5191.767
807.1243, 5185.354
807.6064, 5175.569
808.0885, 5170.973
808.5706, 5171.210
809.0527, 5173.375
809.5349, 5177.033
810.0170, 5181.241
810.4991, 5185.700
810.9812, 5189.801
811.4633, 5191.132
811.9454, 5189.508
812.4276, 5185.296
812.9097, 5175.595
813.3918, 5166.440
813.8739, 5159.956
814.3560, 5155.883
814.8381, 5153.661
815.3203, 5153.164
815.8024, 5154.447
816.2845, 5158.529
816.7666, 5163.555
817.2487, 5169.084
817.7308, 5173.817
818.2130, 5174.552
818.6951, 5170.688
819.1772, 5164.854
819.6593, 5159.063
820.1414, 5153.775
820.6235, 5150.395
821.1057, 5148.763
821.5878, 5151.119
822.0699, 5160.501
822.5520, 5168.526
823.0341, 5169.795
823.5162, 5165.103
823.9984, 5156.666
824.4805, 5142.093
824.9626, 5129.837
825.4447, 5121.429
825.9268, 5114.961
826.4089, 5107.915
826.8911, 5102.721
827.3732, 5104.636
827.8553, 5114.147
828.3374, 5122.902
828.8195, 5124.063
829.3016, 5121.012
829.7838, 5118.014
830.2659, 5115.138
830.7480, 5112.622
831.2301, 5110.512
831.7122, 5108.967
832.1943, 5108.142
832.6765, 5107.920
833.1586, 5108.025
833.6407, 5108.594
834.1228, 5108.831
834.6049, 5107.521
835.0870, 5107.505
835.5692, 5112.596
836.0513, 5119.019
836.5334, 5120.722
837.0155, 5116.540
837.4976, 5112.928
837.9797, 5111.626
838.4619, 5111.182
838.9440, 5111.533
839.4261, 5111.872
839.9082, 5111.718
840.3903, 5110.630
840.8724, 5107.068
841.3546, 5098.851
841.8367, 5089.616
842.3188, 5085.351
842.8009, 5085.341
843.2830, 5086.969
843.7651, 5089.872
844.2473, 5092.068
844.7294, 5092.372
845.2115, 5091.028
845.6936, 5088.200
846.1757, 5082.766
846.6578, 5080.530
847.1400, 5083.685
847.6221, 5086.794
848.1042, 5088.373
848.5863, 5088.880
849.0684, 5088.358
849.5505, 5086.955
850.0327, 5086.049
850.5148, 5084.856
850.9969, 5085.625
851.4790, 5092.825
851.9611, 5100.260
852.4432, 5100.233
852.9254, 5093.729
853.4075, 5086.636
853.8896, 5081.788
854.3717, 5078.678
854.8538, 5076.144
855.3359, 5074.791
855.8181, 5078.447
856.3002, 5086.931
856.7823, 5091.606
857.2644, 5088.749
857.7465, 5082.351
858.2286, 5076.819
858.7108, 5072.200
859.1929, 5071.414
859.6750, 5077.652
860.1571, 5081.388
860.6392, 5079.033
861.1213, 5075.729
861.6035, 5074.682
862.0856, 5075.085
862.5677, 5074.692
863.0498, 5072.436
863.5319, 5071.729
864.0140, 5077.208
864.4962, 5081.385
864.9783, 5075.954
865.4604, 5066.258
865.9425, 5062.414
866.4246, 5066.502
866.9067, 5071.957
867.3889, 5073.953
867.8710, 5073.360
868.3531, 5071.119
868.8352, 5067.571
869.3173, 5063.882
869.7994, 5060.271
870.2816, 5058.077
870.7637, 5058.354
871.2458, 5060.310
871.7279, 5062.188
872.2100, 5064.231
872.6921, 5064.923
873.1743, 5062.701
873.6564, 5061.941
874.1385, 5064.969
874.6206, 5069.809
875.1027, 5075.269
875.5848, 5081.147
876.0670, 5082.912
876.5491, 5076.825
877.0312, 5070.593
877.5133, 5066.622
877.9954, 5063.565
878.4775, 5059.719
878.9597, 5055.776
879.4418, 5053.779
879.9239, 5054.601
880.4060, 5056.798
880.8881, 5059.557
881.3702, 5062.634
881.8524, 5065.955
882.3345, 5069.278
882.8166, 5071.248
883.2987, 5071.589
883.7808, 5072.694
884.2629, 5076.986
884.7451, 5083.696
885.2272, 5090.521
885.7093, 5097.912
886.1914, 5101.269
886.6735, 5099.661
887.1556, 5094.562
887.6378, 5085.279
888.1199, 5074.208
888.6020, 5066.328
889.0841, 5061.976
889.5662, 5059.593
890.0483, 5061.038
890.5305, 5061.991
891.0126, 5060.730
891.4947, 5058.819
891.9768, 5057.587
892.4589, 5057.100
892.9410, 5056.906
893.4232, 5056.779
893.9053, 5057.110
894.3874, 5060.107
894.8695, 5062.274
895.3516, 5058.508
895.8337, 5050.633
896.3159, 5043.541
896.7980, 5039.093
897.2801, 5037.367
897.7622, 5038.904
898.2443, 5042.913
898.7264, 5048.102
899.2086, 5054.157
899.6907, 5059.375
900.1728, 5063.505
900.6549, 5063.663
901.1370, 5056.965
901.6191, 5046.416
902.1013, 5040.889
902.5834, 5042.597
903.0655, 5039.818
903.5476, 5028.209
904.0297, 5020.506
904.5118, 5023.844
904.9940, 5031.675
905.4761, 5035.517
905.9582, 5035.759
906.4403, 5040.069
906.9224, 5055.131
907.4045, 5065.884
907.8867, 5068.377
908.3688, 5066.182
908.8509, 5059.793
909.3330, 5051.378
909.8151, 5044.449
910.2972, 5040.068
910.7794, 5036.433
911.2615, 5031.637
911.7436, 5027.659
912.2257, 5027.103
912.7078, 5028.733
913.1899, 5030.034
913.6721, 5030.574
914.1542, 5031.576
914.6363, 5034.027
915.1184, 5036.714
915.6005, 5036.665
916.0826, 5034.732
916.5648, 5036.549
917.0469, 5042.524
917.5290, 5047.835
918.0111, 5050.536
918.4932, 5051.386
918.9753, 5051.087
919.4575, 5049.799
919.9396, 5049.849
920.4217, 5052.311
920.9038, 5053.412
921.3859, 5052.942
921.8680, 5050.539
922.3502, 5042.852
922.8323, 5034.054
923.3144, 5034.202
923.7965, 5046.194
924.2786, 5055.537
924.7607, 5061.759
925.2429, 5063.971
925.7250, 5059.021
926.2071, 5051.928
926.6892, 5046.451
927.1713, 5043.412
927.6534, 5043.844
928.1356, 5049.821
928.6177, 5054.757
929.0998, 5053.384
929.5819, 5049.698
930.0640, 5045.916
930.5461, 5043.907
931.0283, 5047.539
931.5104, 5057.477
931.9925, 5069.463
932.4746, 5081.458
932.9567, 5091.186
933.4388, 5094.051
933.9210, 5091.009
934.4031, 5084.586
934.8852, 5075.469
935.3673, 5066.705
935.8494, 5059.849
936.3315, 5055.082
936.8137, 5053.150
937.2958, 5053.946
937.7779, 5053.776
938.2600, 5052.055
938.7421, 5052.384
939.2242, 5056.569
939.7064, 5060.702
940.1885, 5060.604
940.6706, 5058.306
941.1527, 5061.804
941.6348, 5076.889
942.1169, 5084.371
942.5991, 5078.603
943.0812, 5072.038
943.5633, 5068.990
944.0454, 5066.604
944.5275, 5061.144
945.0096, 5053.179
945.4918, 5047.626
945.9739, 5045.470
946.4560, 5045.968
946.9381, 5051.992
947.4202, 5057.680
947.9023, 5058.270
948.3845, 5055.428
948.8666, 5051.961
949.3487, 5048.758
949.8308, 5047.375
950.3129, 5050.152
950.7950, 5053.758
951.2772, 5054.179
951.7593, 5053.622
952.2414, 5056.544
952.7235, 5062.290
953.2056, 5066.201
953.6877, 5066.016
954.1699, 5064.046
954.6520, 5063.060
955.1341, 5062.560
955.6162, 5061.471
956.0983, 5059.673
956.5804, 5055.521
957.0626, 5048.737
957.5447, 5043.322
958.0268, 5042.265
958.5089, 5044.671
958.9910, 5049.573
959.4731, 5057.448
959.9553, 5059.317
960.4374, 5053.494
960.9195, 5048.623
961.4016, 5047.528
961.8837, 5049.235
962.3658, 5053.906
962.8480, 5060.499
963.3301, 5061.146
963.8122, 5052.229
964.2943, 5044.819
964.7764, 5037.678
965.2585, 5034.179
965.7407, 5036.955
966.2228, 5043.529
966.7049, 5052.753
967.1870, 5064.481
967.6691, 5070.882
968.1512, 5067.039
968.6334, 5063.478
969.1155, 5063.778
969.5976, 5063.958
970.0797, 5060.217
970.5618, 5054.779
971.0439, 5052.619
971.5261, 5054.849
972.0082, 5054.961
972.4903, 5047.512
972.9724, 5039.964
973.4545, 5036.956
973.9366, 5036.631
974.4188, 5037.562
974.9009, 5038.931
975.3830, 5039.404
975.8651, 5038.395
976.3472, 5037.119
976.8293, 5037.100
977.3115, 5037.061
977.7936, 5033.937
978.2757, 5029.712
978.7578, 5029.127
979.2399, 5032.792
979.7220, 5038.781
980.2042, 5046.142
980.6863, 5053.046
981.1684, 5056.606
981.6505, 5057.417
982.1326, 5057.028
982.6147, 5055.674
983.0969, 5054.768
983.5790, 5054.722
984.0611, 5054.553
984.5432, 5053.352
985.0253, 5051.638
985.5074, 5051.516
985.9896, 5053.120
986.4717, 5049.602
986.9538, 5039.259
987.4359, 5033.271
987.9180, 5036.623
988.4001, 5043.572
988.8823, 5048.337
989.3644, 5051.109
989.8465, 5053.016
990.3286, 5054.239
990.8107, 5053.987
991.2928, 5051.802
991.7750, 5048.810
992.2571, 5044.115
992.7392, 5040.231
993.2213, 5040.532
993.7034, 5044.992
994.1855, 5050.979
994.6677, 5063.281
995.1498, 5069.743
995.6319, 5064.859
996.1140, 5059.224
996.5961, 5057.201
997.0782, 5057.917
997.5604, 5060.440
998.0425, 5064.701
998.5246, 5068.506
999.0067, 5071.672
999.4888, 5074.058
999.9709, 5076.960
1000.453, 5077.753
1000.935, 5071.747
1001.417, 5063.201
1001.899, 5060.919
1002.382, 5066.659
1002.864, 5070.733
1003.346, 5068.727
1003.828, 5064.502
1004.310, 5058.174
1004.792, 5052.354
1005.274, 5050.602
1005.756, 5051.583
1006.238, 5051.638
1006.721, 5049.609
1007.203, 5046.503
1007.685, 5041.365
1008.167, 5037.167
1008.649, 5038.186
1009.131, 5041.292
1009.613, 5041.161
1010.095, 5038.246
1010.578, 5036.713
1011.060, 5038.425
1011.542, 5040.714
1012.024, 5040.192
1012.506, 5039.103
1012.988, 5040.832
1013.470, 5044.782
1013.952, 5050.315
1014.434, 5056.632
1014.917, 5060.364
1015.399, 5059.479
1015.881, 5059.115
1016.363, 5069.036
1016.845, 5083.823
1017.327, 5088.002
1017.809, 5082.990
1018.291, 5075.178
1018.773, 5066.169
1019.256, 5056.819
1019.738, 5047.445
1020.220, 5040.539
1020.702, 5042.013
1021.184, 5050.280
1021.666, 5054.467
1022.148, 5054.625
1022.630, 5050.550
1023.113, 5041.986
1023.595, 5033.109
1024.077, 5026.436
1024.559, 5022.999
1025.041, 5026.485
1025.523, 5037.010
1026.005, 5040.103
1026.487, 5034.731
1026.969, 5030.703
1027.452, 5030.737
1027.934, 5030.905
1028.416, 5027.765
1028.898, 5023.452
1029.380, 5023.161
1029.862, 5027.019
1030.344, 5033.904
1030.826, 5045.572
1031.309, 5054.051
1031.791, 5057.492
1032.273, 5056.719
1032.755, 5051.521
1033.237, 5043.331
1033.719, 5035.782
1034.201, 5028.425
1034.683, 5023.771
1035.166, 5020.009
1035.648, 5023.659
1036.130, 5041.847
1036.612, 5059.992
1037.094, 5066.783
1037.576, 5064.846
1038.058, 5061.233
1038.540, 5054.958
1039.022, 5050.394
1039.505, 5047.263
1039.987, 5046.256
1040.469, 5049.582
1040.951, 5052.884
1041.433, 5051.967
1041.915, 5048.519
1042.397, 5047.295
1042.879, 5048.181
1043.361, 5051.515
1043.844, 5062.445
1044.326, 5068.807
1044.808, 5067.887
1045.290, 5061.319
1045.772, 5045.063
1046.254, 5025.051
1046.736, 5016.520
1047.218, 5023.462
1047.700, 5029.606
1048.183, 5033.796
1048.665, 5036.336
1049.147, 5037.587
1049.629, 5037.002
1050.111, 5033.091
1050.593, 5027.290
1051.075, 5022.721
1051.557, 5019.777
1052.040, 5017.943
1052.522, 5018.490
1053.004, 5018.379
1053.486, 5014.872
1053.968, 5011.931
1054.450, 5014.053
1054.932, 5018.794
1055.414, 5020.125
1055.896, 5016.567
1056.379, 5014.996
1056.861, 5017.014
1057.343, 5021.585
1057.825, 5032.289
1058.307, 5041.654
1058.789, 5042.293
1059.271, 5037.584
1059.753, 5034.528
1060.236, 5034.382
1060.718, 5035.593
1061.200, 5039.000
1061.682, 5041.890
1062.164, 5044.269
1062.646, 5044.628
1063.128, 5039.420
1063.610, 5032.243
1064.093, 5029.863
1064.575, 5033.424
1065.057, 5037.479
1065.539, 5043.136
1066.021, 5044.797
1066.503, 5036.547
1066.985, 5026.743
1067.467, 5021.322
1067.949, 5019.479
1068.432, 5019.339
1068.914, 5020.432
1069.396, 5022.034
1069.878, 5025.533
1070.360, 5026.940
1070.842, 5020.949
1071.324, 5015.598
1071.806, 5019.590
1072.288, 5027.258
1072.771, 5028.533
1073.253, 5022.939
1073.735, 5019.085
1074.217, 5020.807
1074.699, 5023.745
1075.181, 5026.357
1075.663, 5028.915
1076.145, 5032.916
1076.627, 5036.252
1077.110, 5035.029
1077.592, 5029.909
1078.074, 5026.310
1078.556, 5026.346
1079.038, 5027.718
1079.520, 5028.932
1080.002, 5031.587
1080.484, 5037.071
1080.967, 5044.495
1081.449, 5054.000
1081.931, 5064.353
1082.413, 5071.504
1082.895, 5073.274
1083.377, 5075.705
1083.859, 5082.042
1084.341, 5089.327
1084.823, 5097.947
1085.306, 5104.853
1085.788, 5106.452
1086.270, 5103.493
1086.752, 5098.494
1087.234, 5091.744
1087.716, 5085.972
1088.198, 5085.369
1088.680, 5082.292
1089.163, 5070.444
1089.645, 5056.044
1090.127, 5044.302
1090.609, 5035.063
1091.091, 5025.826
1091.573, 5015.967
1092.055, 5011.338
1092.537, 5018.299
1093.020, 5025.520
1093.502, 5031.283
1093.984, 5032.219
1094.466, 5023.459
1094.948, 5009.070
1095.430, 4994.060
1095.912, 4979.856
1096.394, 4971.932
1096.876, 4976.339
1097.359, 4980.875
1097.841, 4982.988
1098.323, 4982.368
1098.805, 4976.155
1099.287, 4968.740
1099.769, 4966.878
1100.251, 4970.001
1100.733, 4969.947
1101.215, 4960.969
1101.698, 4956.878
1102.180, 4964.672
1102.662, 4974.085
1103.144, 4983.302
1103.626, 4988.966
1104.108, 4986.480
1104.590, 4977.577
1105.072, 4968.558
1105.554, 4959.467
1106.037, 4953.423
1106.519, 4947.476
1107.001, 4949.250
1107.483, 4967.957
1107.965, 4989.436
1108.447, 5005.108
1108.929, 5014.202
1109.411, 5014.470
1109.894, 5003.977
1110.376, 4996.985
1110.858, 5000.505
1111.340, 4999.510
1111.822, 4989.021
1112.304, 4975.548
1112.786, 4960.170
1113.268, 4945.528
1113.750, 4935.565
1114.233, 4930.393
1114.715, 4928.003
1115.197, 4928.896
1115.679, 4931.700
1116.161, 4937.373
1116.643, 4943.586
1117.125, 4950.422
1117.607, 4956.424
1118.090, 4960.497
1118.572, 4962.386
1119.054, 4960.556
1119.536, 4952.100
1120.018, 4947.176
1120.500, 4947.479
1120.982, 4947.854
1121.464, 4946.429
1121.947, 4945.229
1122.429, 4945.875
1122.911, 4948.006
1123.393, 4951.101
1123.875, 4955.782
1124.357, 4956.833
1124.839, 4953.787
1125.321, 4948.591
1125.803, 4940.692
1126.286, 4933.162
1126.768, 4926.807
1127.250, 4924.147
1127.732, 4929.907
1128.214, 4943.163
1128.696, 4954.447
1129.178, 4964.472
1129.660, 4965.353
1130.142, 4954.881
1130.625, 4944.466
1131.107, 4938.602
1131.589, 4935.500
1132.071, 4933.592
1132.553, 4932.547
1133.035, 4931.120
1133.517, 4929.406
1133.999, 4930.542
1134.481, 4934.571
1134.964, 4937.680
1135.446, 4938.850
1135.928, 4939.732
1136.410, 4941.353
1136.892, 4944.358
1137.374, 4950.914
1137.856, 4959.686
1138.338, 4965.236
1138.821, 4967.858
1139.303, 4967.200
1139.785, 4964.252
1140.267, 4967.226
1140.749, 4979.634
1141.231, 4989.417
1141.713, 4982.569
1142.195, 4967.637
1142.677, 4958.205
1143.160, 4953.225
1143.642, 4951.173
1144.124, 4951.372
1144.606, 4952.020
1145.088, 4952.989
1145.570, 4957.221
1146.052, 4967.522
1146.534, 4978.341
1147.017, 4986.714
1147.499, 4990.007
1147.981, 4982.721
1148.463, 4969.047
1148.945, 4953.878
1149.427, 4939.884
1149.909, 4931.931
1150.391, 4932.107
1150.874, 4933.999
1151.356, 4931.563
1151.838, 4931.740
1152.320, 4941.166
1152.802, 4954.060
1153.284, 4967.421
1153.766, 4978.633
1154.248, 4984.264
1154.730, 4983.806
1155.213, 4979.128
1155.695, 4967.773
1156.177, 4957.648
1156.659, 4951.202
1157.141, 4946.888
1157.623, 4944.150
1158.105, 4942.857
1158.587, 4943.673
1159.069, 4945.880
1159.552, 4947.000
1160.034, 4946.609
1160.516, 4945.683
1160.998, 4941.864
1161.480, 4941.022
1161.962, 4948.519
1162.444, 4954.626
1162.926, 4952.876
1163.408, 4946.671
1163.891, 4940.826
1164.373, 4935.354
1164.855, 4932.077
1165.337, 4931.175
1165.819, 4932.036
1166.301, 4935.011
1166.783, 4938.831
1167.265, 4943.469
1167.748, 4947.507
1168.230, 4949.374
1168.712, 4949.943
1169.194, 4952.117
1169.676, 4956.061
1170.158, 4956.383
1170.640, 4952.872
1171.122, 4949.808
1171.604, 4947.983
1172.087, 4948.025
1172.569, 4950.343
1173.051, 4954.077
1173.533, 4958.794
1174.015, 4963.259
1174.497, 4963.502
1174.979, 4960.453
1175.461, 4956.304
1175.944, 4952.258
1176.426, 4953.674
1176.908, 4961.217
1177.390, 4966.862
1177.872, 4964.682
1178.354, 4960.717
1178.836, 4961.213
1179.318, 4965.008
1179.801, 4972.627
1180.283, 4981.139
1180.765, 4986.172
1181.247, 4987.103
1181.729, 4984.086
1182.211, 4977.283
1182.693, 4968.522
1183.175, 4956.671
1183.657, 4946.240
1184.140, 4939.498
1184.622, 4935.929
1185.104, 4936.447
1185.586, 4939.036
1186.068, 4941.448
1186.550, 4943.268
1187.032, 4944.381
1187.514, 4944.804
1187.996, 4944.358
1188.479, 4938.694
1188.961, 4937.981
1189.443, 4950.990
1189.925, 4964.611
1190.407, 4968.681
1190.889, 4967.299
1191.371, 4966.765
1191.853, 4967.068
1192.335, 4969.052
1192.818, 4974.250
1193.300, 4976.743
1193.782, 4975.137
1194.264, 4973.568
1194.746, 4973.654
1195.228, 4973.510
1195.710, 4971.046
1196.192, 4968.077
1196.675, 4969.825
1197.157, 4975.901
1197.639, 4977.102
1198.121, 4973.619
1198.603, 4971.392
1199.085, 4971.274
1199.567, 4970.214
1200.049, 4966.865
1200.531, 4962.484
1201.014, 4958.182
1201.496, 4954.171
1201.978, 4950.636
1202.460, 4947.744
1202.942, 4945.420
1203.424, 4944.165
1203.906, 4945.764
1204.388, 4949.854
1204.871, 4954.117
1205.353, 4957.628
1205.835, 4958.550
1206.317, 4953.310
1206.799, 4947.514
1207.281, 4946.126
1207.763, 4945.749
1208.245, 4941.299
1208.728, 4943.024
1209.210, 4937.197
1209.692, 4944.468
1210.174, 4949.511
1210.656, 4950.155
1211.138, 4948.692
1211.620, 4942.945
1212.102, 4938.637
1212.584, 4938.436
1213.067, 4939.770
1213.549, 4941.240
1214.031, 4942.626
1214.513, 4943.731
1214.995, 4944.545
1215.477, 4943.308
1215.959, 4938.828
1216.441, 4937.038
1216.923, 4939.065
1217.406, 4941.080
1217.888, 4941.948
1218.370, 4941.454
1218.852, 4939.118
1219.334, 4936.466
1219.816, 4937.263
1220.298, 4935.116
1220.780, 4938.900
1221.262, 4934.049
1221.745, 4931.764
1222.227, 4932.728
1222.709, 4935.995
1223.191, 4941.012
1223.673, 4945.981
1224.155, 4949.386
1224.637, 4952.554
1225.119, 4956.333
1225.602, 4961.200
1226.084, 4970.281
1226.566, 4979.196
1227.048, 4981.915
1227.530, 4978.203
1228.012, 4968.383
1228.494, 4952.481
1228.976, 4940.328
1229.458, 4937.856
1229.941, 4936.562
1230.423, 4932.601
1230.905, 4930.490
1231.387, 4935.268
1231.869, 4941.157
1232.351, 4940.642
1232.833, 4936.214
1233.315, 4936.042
1233.798, 4941.150
1234.280, 4944.148
1234.762, 4943.829
1235.244, 4945.681
1235.726, 4951.180
1236.208, 4956.158
1236.690, 4958.796
1237.172, 4959.894
1237.655, 4960.347
1238.137, 4959.635
1238.619, 4956.063
1239.101, 4950.191
1239.583, 4943.616
1240.065, 4937.194
1240.547, 4935.245
1241.029, 4937.586
1241.511, 4939.677
1241.994, 4939.690
1242.476, 4939.153
1242.958, 4938.469
1243.440, 4939.331
1243.922, 4944.851
1244.404, 4951.323
1244.886, 4954.880
1245.368, 4956.978
1245.850, 4960.282
1246.333, 4964.303
1246.815, 4966.561
1247.297, 4966.424
1247.779, 4965.484
1248.261, 4964.688
1248.743, 4962.141
1249.225, 4954.986
1249.707, 4949.086
1250.189, 4946.380
1250.672, 4946.592
1251.154, 4950.339
1251.636, 4956.169
1252.118, 4960.257
1252.600, 4962.704
1253.082, 4959.851
1253.564, 4951.125
1254.046, 4946.360
1254.529, 4946.925
1255.011, 4950.656
1255.493, 4956.646
1255.975, 4961.166
1256.457, 4961.006
1256.939, 4957.599
1257.421, 4950.219
1257.903, 4943.192
1258.385, 4945.725
1258.868, 4953.588
1259.350, 4958.764
1259.832, 4961.303
1260.314, 4965.519
1260.796, 4972.187
1261.278, 4976.243
1261.760, 4974.064
1262.242, 4971.611
1262.725, 4970.229
1263.207, 4970.405
1263.689, 4973.090
1264.171, 4976.763
1264.653, 4981.765
1265.135, 4985.964
1265.617, 4984.815
1266.099, 4978.370
1266.582, 4973.186
1267.064, 4969.431
1267.546, 4966.123
1268.028, 4963.055
1268.510, 4961.763
1268.992, 4962.962
1269.474, 4963.143
1269.956, 4959.909
1270.438, 4954.810
1270.921, 4948.781
1271.403, 4943.847
1271.885, 4946.250
1272.367, 4952.763
1272.849, 4956.831
1273.331, 4958.108
1273.813, 4956.789
1274.295, 4953.641
1274.777, 4951.155
1275.260, 4950.340
1275.742, 4950.431
1276.224, 4950.633
1276.706, 4952.113
1277.188, 4957.501
1277.670, 4962.044
1278.152, 4961.354
1278.634, 4958.607
1279.116, 4958.282
1279.599, 4959.557
1280.081, 4958.818
1280.563, 4954.984
1281.045, 4957.430
1281.527, 4968.556
1282.009, 4974.545
1282.491, 4973.000
1282.973, 4970.802
1283.456, 4970.675
1283.938, 4973.359
1284.420, 4979.990
1284.902, 4988.100
1285.384, 4992.562
##END=



