##NAMES=Barbosalite
##RRUFFID=R070358
##IDEAL CHEMISTRY=Fe^2+^Fe^3+^_2_(PO_4_)_2_(OH)_2_
##LOCALITY=Bull Moose mine, Custer, Custer District, Custer County, South Dakota, USA
##OWNER=RRUFF
##SOURCE=Michael Scott
##DESCRIPTION=Dark blue to black massive and with tabular crystals in vugs, associated with pyrite
##STATUS=The identification of this mineral is confirmed by single-crystal X-ray diffraction and chemical analysis.
##URL=rruff.info/R070358
##MEASURED CHEMISTRY=(Fe^2+^_0.97_Mn_0.03_)_Σ=1_Fe^3+^_2.00_(P_1.00_O_4_)_2_((OH)_1.89_F_0.11_)_Σ=2_ ; OH estimated by charge balance
153.8033, 1484.637
154.2855, 1489.204
154.7676, 1494.089
155.2497, 1499.759
155.7318, 1508.126
156.2139, 1522.365
156.6960, 1538.050
157.1782, 1548.824
157.6603, 1553.445
158.1424, 1559.426
158.6245, 1572.505
159.1066, 1591.402
159.5887, 1614.201
160.0709, 1642.548
160.5530, 1673.714
161.0351, 1704.167
161.5172, 1734.044
161.9993, 1761.854
162.4814, 1784.108
162.9636, 1803.434
163.4457, 1825.231
163.9278, 1856.595
164.4099, 1889.989
164.8920, 1910.596
165.3741, 1915.586
165.8563, 1915.379
166.3384, 1915.539
166.8205, 1915.282
167.3026, 1912.906
167.7847, 1905.694
168.2668, 1896.553
168.7490, 1892.815
169.2311, 1897.589
169.7132, 1900.611
170.1953, 1893.519
170.6774, 1881.648
171.1595, 1873.246
171.6417, 1871.864
172.1238, 1876.451
172.6059, 1885.379
173.0880, 1901.439
173.5701, 1916.243
174.0522, 1924.381
174.5344, 1929.442
175.0165, 1936.515
175.4986, 1948.606
175.9807, 1964.024
176.4628, 1979.292
176.9449, 1997.770
177.4271, 2009.206
177.9092, 2002.177
178.3913, 1988.582
178.8734, 1985.464
179.3555, 2003.636
179.8376, 2035.341
180.3197, 2057.595
180.8019, 2065.892
181.2840, 2072.078
181.7661, 2081.115
182.2482, 2090.382
182.7303, 2096.181
183.2124, 2096.137
183.6946, 2092.453
184.1767, 2091.495
184.6588, 2094.719
185.1409, 2098.302
185.6230, 2099.629
186.1051, 2101.172
186.5873, 2106.398
187.0694, 2117.470
187.5515, 2131.578
188.0336, 2141.282
188.5157, 2143.926
188.9978, 2146.349
189.4800, 2153.787
189.9621, 2160.356
190.4442, 2157.301
190.9263, 2139.695
191.4084, 2117.027
191.8905, 2114.418
192.3727, 2149.226
192.8548, 2173.319
193.3369, 2174.385
193.8190, 2164.819
194.3011, 2154.295
194.7832, 2146.504
195.2654, 2143.523
195.7475, 2151.707
196.2296, 2182.702
196.7117, 2202.751
197.1938, 2204.107
197.6759, 2196.625
198.1581, 2186.940
198.6402, 2177.543
199.1223, 2170.013
199.6044, 2167.754
200.0865, 2173.846
200.5686, 2179.309
201.0508, 2184.660
201.5329, 2188.444
202.0150, 2191.113
202.4971, 2192.317
202.9792, 2188.537
203.4613, 2171.776
203.9435, 2130.807
204.4256, 2102.612
204.9077, 2095.230
205.3898, 2094.510
205.8719, 2091.866
206.3540, 2085.212
206.8362, 2076.897
207.3183, 2070.471
207.8004, 2068.068
208.2825, 2062.046
208.7646, 2045.600
209.2467, 2031.095
209.7289, 2028.396
210.2110, 2037.103
210.6931, 2047.342
211.1752, 2046.168
211.6573, 2028.024
212.1395, 2019.121
212.6216, 2030.240
213.1037, 2040.794
213.5858, 2037.124
214.0679, 2021.642
214.5500, 2008.228
215.0322, 2011.804
215.5143, 2035.613
215.9964, 2054.941
216.4785, 2068.015
216.9606, 2078.429
217.4427, 2088.244
217.9249, 2096.682
218.4070, 2100.785
218.8891, 2096.519
219.3712, 2083.391
219.8533, 2079.898
220.3354, 2099.659
220.8176, 2116.226
221.2997, 2119.629
221.7818, 2114.295
222.2639, 2109.943
222.7460, 2113.435
223.2281, 2124.087
223.7103, 2134.244
224.1924, 2145.934
224.6745, 2154.676
225.1566, 2156.190
225.6387, 2154.851
226.1208, 2157.376
226.6030, 2167.952
227.0851, 2184.524
227.5672, 2198.462
228.0493, 2208.184
228.5314, 2217.216
229.0135, 2223.985
229.4957, 2231.185
229.9778, 2243.460
230.4599, 2263.198
230.9420, 2285.142
231.4241, 2294.966
231.9062, 2279.824
232.3884, 2274.823
232.8705, 2286.030
233.3526, 2306.662
233.8347, 2332.543
234.3168, 2361.968
234.7989, 2392.931
235.2811, 2422.548
235.7632, 2452.939
236.2453, 2476.656
236.7274, 2488.802
237.2095, 2498.152
237.6916, 2509.083
238.1738, 2523.035
238.6559, 2540.984
239.1380, 2566.629
239.6201, 2604.610
240.1022, 2632.972
240.5843, 2644.224
241.0665, 2651.208
241.5486, 2656.280
242.0307, 2661.683
242.5128, 2672.555
242.9949, 2698.426
243.4770, 2741.995
243.9592, 2767.959
244.4413, 2755.378
244.9234, 2744.294
245.4055, 2745.963
245.8876, 2761.097
246.3697, 2788.998
246.8519, 2835.064
247.3340, 2895.654
247.8161, 2933.998
248.2982, 2930.699
248.7803, 2930.383
249.2624, 2953.026
249.7446, 2988.054
250.2267, 3017.848
250.7088, 3032.589
251.1909, 3036.654
251.6730, 3043.078
252.1551, 3054.697
252.6373, 3062.758
253.1194, 3061.116
253.6015, 3056.249
254.0836, 3056.482
254.5657, 3066.118
255.0478, 3076.876
255.5300, 3073.593
256.0121, 3051.797
256.4942, 3032.958
256.9763, 3027.143
257.4584, 3024.393
257.9406, 3017.459
258.4227, 3004.775
258.9048, 2989.976
259.3869, 2975.990
259.8690, 2962.743
260.3511, 2951.526
260.8333, 2942.285
261.3154, 2935.616
261.7975, 2933.570
262.2796, 2935.669
262.7617, 2935.719
263.2438, 2925.479
263.7260, 2907.790
264.2081, 2900.405
264.6902, 2910.269
265.1723, 2922.983
265.6544, 2927.774
266.1365, 2926.531
266.6187, 2925.260
267.1008, 2925.646
267.5829, 2928.123
268.0650, 2935.336
268.5471, 2949.713
269.0292, 2961.044
269.5114, 2957.897
269.9935, 2947.149
270.4756, 2940.367
270.9577, 2943.098
271.4398, 2948.899
271.9219, 2950.094
272.4041, 2946.529
272.8862, 2943.611
273.3683, 2943.292
273.8504, 2945.864
274.3325, 2951.348
274.8146, 2960.581
275.2968, 2971.271
275.7789, 2985.226
276.2610, 3000.346
276.7431, 3006.391
277.2252, 2995.680
277.7073, 2979.788
278.1895, 2977.927
278.6716, 2990.964
279.1537, 3008.996
279.6358, 3034.809
280.1179, 3061.917
280.6000, 3076.279
281.0822, 3073.225
281.5643, 3067.352
282.0464, 3076.783
282.5285, 3102.674
283.0106, 3128.385
283.4927, 3154.008
283.9749, 3177.456
284.4570, 3194.772
284.9391, 3206.394
285.4212, 3220.252
285.9033, 3244.036
286.3854, 3277.363
286.8676, 3303.013
287.3497, 3318.006
287.8318, 3329.053
288.3139, 3332.388
288.7960, 3333.735
289.2781, 3350.112
289.7603, 3393.784
290.2424, 3454.906
290.7245, 3490.698
291.2066, 3467.551
291.6887, 3462.348
292.1708, 3497.614
292.6530, 3553.155
293.1351, 3605.399
293.6172, 3645.925
294.0993, 3678.683
294.5814, 3710.065
295.0635, 3738.469
295.5457, 3768.764
296.0278, 3799.721
296.5099, 3833.067
296.9920, 3871.300
297.4741, 3913.935
297.9562, 3955.925
298.4384, 3990.007
298.9205, 4012.130
299.4026, 4056.037
299.8847, 4147.000
300.3668, 4233.786
300.8489, 4299.520
301.3311, 4347.443
301.8131, 4386.459
302.2953, 4421.279
302.7774, 4453.305
303.2595, 4489.672
303.7416, 4531.181
304.2237, 4576.443
304.7058, 4636.223
305.1880, 4694.441
305.6701, 4729.625
306.1522, 4733.110
306.6343, 4725.733
307.1164, 4747.019
307.5985, 4810.246
308.0807, 4852.151
308.5628, 4846.633
309.0449, 4826.090
309.5270, 4807.241
310.0091, 4791.997
310.4912, 4774.343
310.9734, 4750.050
311.4555, 4719.100
311.9376, 4680.690
312.4197, 4630.508
312.9018, 4578.931
313.3839, 4533.683
313.8661, 4492.261
314.3482, 4448.557
314.8303, 4397.835
315.3124, 4343.979
315.7945, 4296.179
316.2766, 4256.696
316.7588, 4209.995
317.2409, 4140.108
317.7230, 4060.543
318.2051, 3995.055
318.6872, 3954.193
319.1693, 3914.711
319.6515, 3855.739
320.1336, 3782.430
320.6157, 3717.638
321.0978, 3671.538
321.5799, 3634.101
322.0620, 3585.933
322.5442, 3523.571
323.0263, 3473.270
323.5084, 3452.831
323.9905, 3443.995
324.4726, 3420.167
324.9547, 3376.879
325.4369, 3333.592
325.9190, 3308.355
326.4011, 3303.253
326.8832, 3303.774
327.3653, 3314.272
327.8474, 3326.154
328.3296, 3336.386
328.8117, 3344.178
329.2938, 3346.630
329.7759, 3340.675
330.2580, 3330.476
330.7401, 3335.183
331.2223, 3369.904
331.7044, 3400.962
332.1865, 3419.849
332.6686, 3435.780
333.1507, 3459.196
333.6328, 3493.061
334.1150, 3532.379
334.5971, 3570.093
335.0792, 3605.096
335.5613, 3641.089
336.0434, 3681.043
336.5255, 3719.208
337.0077, 3748.008
337.4898, 3771.251
337.9719, 3801.463
338.4540, 3850.554
338.9361, 3915.687
339.4182, 3971.415
339.9004, 4014.563
340.3825, 4051.577
340.8646, 4085.451
341.3467, 4114.984
341.8288, 4137.137
342.3109, 4149.826
342.7931, 4159.815
343.2752, 4180.911
343.7573, 4216.598
344.2394, 4238.462
344.7215, 4233.840
345.2036, 4216.739
345.6858, 4201.191
346.1679, 4187.350
346.6500, 4160.468
347.1321, 4103.713
347.6142, 4027.012
348.0963, 3958.312
348.5785, 3902.574
349.0606, 3847.430
349.5427, 3781.743
350.0248, 3708.562
350.5069, 3636.908
350.9890, 3567.275
351.4712, 3500.234
351.9533, 3432.130
352.4354, 3365.072
352.9175, 3310.810
353.3996, 3276.671
353.8817, 3256.691
354.3639, 3235.473
354.8460, 3209.183
355.3281, 3189.640
355.8102, 3189.476
356.2923, 3192.977
356.7744, 3179.047
357.2566, 3143.905
357.7387, 3102.800
358.2208, 3072.482
358.7029, 3054.671
359.1850, 3038.710
359.6671, 3028.063
360.1493, 3015.650
360.6314, 2995.005
361.1135, 2970.220
361.5956, 2950.867
362.0777, 2943.008
362.5598, 2942.937
363.0420, 2937.208
363.5241, 2924.899
364.0062, 2907.711
364.4883, 2877.621
364.9704, 2848.411
365.4525, 2833.481
365.9347, 2834.898
366.4168, 2841.537
366.8989, 2841.588
367.3810, 2834.724
367.8631, 2826.454
368.3452, 2815.288
368.8274, 2804.725
369.3095, 2796.949
369.7916, 2791.051
370.2737, 2784.771
370.7558, 2776.344
371.2379, 2767.502
371.7201, 2760.262
372.2022, 2754.295
372.6843, 2753.503
373.1664, 2763.215
373.6485, 2776.980
374.1306, 2784.452
374.6128, 2783.563
375.0949, 2782.742
375.5770, 2789.512
376.0591, 2798.889
376.5412, 2798.706
377.0233, 2785.360
377.5055, 2771.335
377.9876, 2770.459
378.4697, 2784.495
378.9518, 2793.330
379.4339, 2797.757
379.9160, 2795.991
380.3982, 2784.290
380.8803, 2765.209
381.3624, 2745.770
381.8445, 2729.897
382.3266, 2715.841
382.8087, 2697.931
383.2909, 2673.895
383.7730, 2648.741
384.2551, 2623.279
384.7372, 2596.389
385.2193, 2563.978
385.7014, 2527.257
386.1836, 2494.855
386.6657, 2477.890
387.1478, 2477.667
387.6299, 2468.632
388.1120, 2438.695
388.5941, 2413.822
389.0763, 2406.043
389.5584, 2407.839
390.0405, 2407.382
390.5226, 2399.464
391.0047, 2387.538
391.4868, 2377.231
391.9690, 2368.993
392.4511, 2358.094
392.9332, 2339.500
393.4153, 2321.365
393.8974, 2314.068
394.3795, 2317.426
394.8617, 2315.622
395.3438, 2297.615
395.8259, 2270.676
396.3080, 2244.175
396.7901, 2218.562
397.2722, 2200.773
397.7544, 2197.726
398.2365, 2207.135
398.7186, 2214.031
399.2007, 2220.854
399.6828, 2222.521
400.1649, 2216.444
400.6471, 2204.054
401.1292, 2184.996
401.6113, 2158.983
402.0934, 2134.341
402.5755, 2124.381
403.0576, 2137.685
403.5398, 2139.485
404.0219, 2118.762
404.5040, 2098.427
404.9861, 2093.868
405.4682, 2099.729
405.9503, 2099.317
406.4325, 2080.414
406.9146, 2051.180
407.3967, 2043.623
407.8788, 2075.372
408.3609, 2092.317
408.8430, 2070.995
409.3252, 2040.686
409.8073, 2023.876
410.2894, 2023.988
410.7715, 2029.969
411.2536, 2034.563
411.7357, 2037.523
412.2179, 2036.688
412.7000, 2030.297
413.1821, 2024.010
413.6642, 2021.715
414.1463, 2022.329
414.6284, 2024.050
415.1106, 2025.125
415.5927, 2028.965
416.0748, 2042.414
416.5569, 2061.214
417.0390, 2070.421
417.5211, 2063.403
418.0033, 2050.708
418.4854, 2048.881
418.9675, 2063.267
419.4496, 2070.174
419.9317, 2062.127
420.4138, 2051.825
420.8960, 2046.927
421.3781, 2047.406
421.8602, 2050.536
422.3423, 2054.757
422.8244, 2059.865
423.3065, 2064.877
423.7887, 2068.727
424.2708, 2074.288
424.7529, 2085.159
425.2350, 2095.511
425.7171, 2099.469
426.1992, 2096.835
426.6814, 2093.288
427.1635, 2094.716
427.6456, 2100.601
428.1277, 2104.973
428.6098, 2108.832
429.0919, 2109.143
429.5741, 2096.741
430.0562, 2081.848
430.5383, 2081.797
431.0204, 2106.262
431.5025, 2134.169
431.9846, 2149.279
432.4668, 2153.541
432.9489, 2151.937
433.4310, 2143.692
433.9131, 2136.985
434.3952, 2143.070
434.8773, 2163.562
435.3595, 2179.895
435.8416, 2191.872
436.3237, 2198.679
436.8058, 2195.446
437.2879, 2186.591
437.7701, 2182.706
438.2522, 2189.313
438.7343, 2203.544
439.2164, 2218.309
439.6985, 2234.413
440.1806, 2249.522
440.6628, 2266.143
441.1449, 2279.978
441.6270, 2286.046
442.1091, 2286.146
442.5912, 2287.449
443.0733, 2295.308
443.5555, 2308.563
444.0376, 2323.117
444.5197, 2339.551
445.0018, 2355.655
445.4839, 2367.470
445.9660, 2380.398
446.4482, 2402.072
446.9303, 2434.800
447.4124, 2464.558
447.8945, 2482.006
448.3766, 2490.548
448.8587, 2495.352
449.3409, 2496.697
449.8230, 2499.844
450.3051, 2507.925
450.7872, 2521.546
451.2693, 2542.777
451.7514, 2581.017
452.2336, 2615.323
452.7157, 2636.125
453.1978, 2649.770
453.6799, 2665.828
454.1620, 2686.815
454.6441, 2706.824
455.1263, 2717.393
455.6084, 2716.120
456.0905, 2718.972
456.5726, 2732.039
457.0547, 2743.052
457.5368, 2745.082
458.0190, 2743.360
458.5011, 2747.834
458.9832, 2763.971
459.4653, 2781.541
459.9474, 2785.656
460.4295, 2776.154
460.9117, 2761.818
461.3938, 2737.111
461.8759, 2718.060
462.3580, 2724.674
462.8401, 2751.523
463.3222, 2769.912
463.8044, 2770.485
464.2865, 2760.674
464.7686, 2743.871
465.2507, 2721.714
465.7328, 2698.681
466.2149, 2675.943
466.6971, 2656.111
467.1792, 2644.722
467.6613, 2645.298
468.1434, 2647.734
468.6255, 2654.852
469.1076, 2661.362
469.5898, 2664.257
470.0719, 2663.608
470.5540, 2660.987
471.0361, 2657.664
471.5182, 2652.294
472.0003, 2639.504
472.4825, 2615.332
472.9646, 2594.788
473.4467, 2582.300
473.9288, 2573.802
474.4109, 2568.588
474.8930, 2565.918
475.3752, 2561.740
475.8573, 2555.105
476.3394, 2544.976
476.8215, 2526.804
477.3036, 2500.456
477.7857, 2478.167
478.2679, 2466.605
478.7500, 2462.543
479.2321, 2458.220
479.7142, 2452.646
480.1963, 2449.250
480.6784, 2452.403
481.1606, 2455.522
481.6427, 2451.332
482.1248, 2440.408
482.6069, 2428.835
483.0890, 2420.634
483.5711, 2416.092
484.0533, 2417.407
484.5354, 2432.469
485.0175, 2440.187
485.4996, 2428.154
485.9817, 2415.104
486.4638, 2419.903
486.9460, 2442.325
487.4281, 2461.987
487.9102, 2457.019
488.3923, 2437.328
488.8744, 2435.000
489.3565, 2453.074
489.8387, 2472.221
490.3208, 2482.149
490.8029, 2487.389
491.2850, 2498.425
491.7671, 2519.014
492.2492, 2534.574
492.7314, 2534.994
493.2135, 2530.610
493.6956, 2532.712
494.1777, 2542.400
494.6598, 2556.680
495.1419, 2575.001
495.6241, 2594.771
496.1062, 2598.915
496.5883, 2567.715
497.0704, 2548.481
497.5525, 2552.985
498.0346, 2565.714
498.5168, 2575.386
498.9989, 2579.956
499.4810, 2582.041
499.9631, 2585.593
500.4452, 2588.324
500.9273, 2580.268
501.4095, 2559.298
501.8916, 2536.210
502.3737, 2513.923
502.8558, 2493.171
503.3379, 2474.962
503.8200, 2459.539
504.3022, 2446.019
504.7843, 2438.666
505.2664, 2430.460
505.7485, 2413.184
506.2306, 2386.534
506.7127, 2354.131
507.1949, 2317.135
507.6770, 2277.759
508.1591, 2246.296
508.6412, 2232.133
509.1233, 2211.995
509.6054, 2175.459
510.0876, 2139.839
510.5697, 2121.484
511.0518, 2117.979
511.5339, 2111.976
512.0161, 2088.505
512.4982, 2055.231
512.9803, 2033.616
513.4624, 2025.470
513.9445, 2019.214
514.4266, 2013.043
514.9088, 2004.914
515.3909, 1990.543
515.8730, 1969.008
516.3551, 1952.810
516.8372, 1953.562
517.3193, 1955.492
517.8015, 1939.296
518.2836, 1909.476
518.7657, 1887.524
519.2478, 1885.609
519.7299, 1895.239
520.2120, 1896.215
520.6942, 1884.122
521.1763, 1871.487
521.6584, 1856.425
522.1405, 1842.671
522.6226, 1831.040
523.1047, 1822.369
523.5869, 1819.222
524.0690, 1824.870
524.5511, 1832.312
525.0332, 1828.644
525.5153, 1813.948
525.9974, 1801.172
526.4796, 1793.131
526.9617, 1788.307
527.4438, 1785.822
527.9259, 1785.439
528.4080, 1785.950
528.8901, 1789.087
529.3723, 1791.199
529.8544, 1789.887
530.3365, 1786.038
530.8186, 1780.631
531.3007, 1774.101
531.7828, 1768.750
532.2650, 1768.409
532.7471, 1774.498
533.2292, 1776.689
533.7113, 1771.005
534.1934, 1765.877
534.6755, 1761.919
535.1577, 1760.766
535.6398, 1766.904
536.1219, 1782.787
536.6040, 1794.960
537.0861, 1785.745
537.5682, 1762.568
538.0504, 1750.395
538.5325, 1753.103
539.0146, 1759.514
539.4967, 1761.865
539.9788, 1761.475
540.4609, 1764.910
540.9431, 1781.155
541.4252, 1788.619
541.9073, 1771.070
542.3894, 1750.467
542.8715, 1752.018
543.3536, 1774.639
543.8358, 1795.687
544.3179, 1796.503
544.8000, 1781.822
545.2821, 1771.359
545.7642, 1763.929
546.2463, 1764.132
546.7285, 1783.178
547.2106, 1802.854
547.6927, 1808.931
548.1748, 1801.559
548.6569, 1790.165
549.1390, 1774.202
549.6211, 1759.541
550.1032, 1754.261
550.5853, 1756.565
551.0674, 1757.318
551.5496, 1752.151
552.0317, 1747.830
552.5138, 1756.804
552.9959, 1787.455
553.4780, 1802.777
553.9601, 1791.344
554.4423, 1779.189
554.9244, 1773.153
555.4065, 1774.403
555.8886, 1786.452
556.3707, 1811.044
556.8528, 1834.786
557.3350, 1838.091
557.8171, 1824.014
558.2992, 1819.080
558.7813, 1829.032
559.2634, 1837.360
559.7455, 1830.483
560.2277, 1813.942
560.7098, 1805.646
561.1919, 1806.520
561.6740, 1814.184
562.1561, 1833.399
562.6382, 1855.697
563.1204, 1872.479
563.6025, 1882.955
564.0846, 1891.451
564.5667, 1901.999
565.0488, 1911.637
565.5309, 1905.961
566.0131, 1872.881
566.4952, 1855.116
566.9773, 1875.671
567.4594, 1901.384
567.9415, 1910.815
568.4236, 1906.282
568.9058, 1903.211
569.3879, 1907.359
569.8700, 1916.469
570.3521, 1931.326
570.8342, 1949.595
571.3163, 1963.607
571.7985, 1971.045
572.2806, 1973.008
572.7627, 1969.521
573.2448, 1959.224
573.7269, 1956.404
574.2090, 1966.719
574.6912, 1977.332
575.1733, 1983.293
575.6554, 1988.811
576.1375, 2001.336
576.6196, 2021.465
577.1017, 2037.891
577.5839, 2035.863
578.0660, 2021.992
578.5481, 2018.269
579.0302, 2025.405
579.5123, 2039.776
579.9944, 2062.919
580.4766, 2089.573
580.9587, 2109.264
581.4408, 2121.305
581.9229, 2131.446
582.4050, 2140.345
582.8871, 2147.552
583.3693, 2151.256
583.8514, 2153.183
584.3335, 2157.772
584.8156, 2167.065
585.2977, 2176.783
585.7798, 2179.645
586.2620, 2175.036
586.7441, 2170.076
587.2262, 2162.560
587.7083, 2158.897
588.1904, 2170.463
588.6725, 2186.231
589.1547, 2185.325
589.6368, 2156.354
590.1189, 2133.632
590.6010, 2140.922
591.0831, 2159.802
591.5652, 2167.071
592.0474, 2161.438
592.5295, 2152.970
593.0116, 2148.202
593.4937, 2145.650
593.9758, 2140.909
594.4579, 2134.586
594.9401, 2124.677
595.4222, 2101.521
595.9043, 2083.572
596.3864, 2085.908
596.8685, 2100.826
597.3506, 2107.541
597.8328, 2093.999
598.3149, 2078.497
598.7970, 2080.278
599.2791, 2092.759
599.7612, 2098.152
600.2433, 2093.029
600.7255, 2086.863
601.2076, 2089.121
601.6897, 2097.419
602.1718, 2092.005
602.6539, 2050.600
603.1360, 2026.142
603.6182, 2036.604
604.1003, 2054.068
604.5824, 2056.723
605.0645, 2046.005
605.5466, 2037.776
606.0287, 2043.741
606.5109, 2053.553
606.9930, 2051.090
607.4751, 2037.570
607.9572, 2022.156
608.4393, 2006.358
608.9214, 1991.765
609.4036, 1979.592
609.8857, 1969.858
610.3678, 1964.138
610.8499, 1969.653
611.3320, 1969.702
611.8141, 1954.611
612.2963, 1935.848
612.7784, 1927.863
613.2605, 1930.048
613.7426, 1927.081
614.2247, 1902.614
614.7068, 1868.756
615.1890, 1859.583
615.6711, 1876.540
616.1532, 1884.657
616.6353, 1870.711
617.1174, 1850.123
617.5995, 1840.503
618.0817, 1842.105
618.5638, 1840.365
619.0459, 1833.053
619.5280, 1824.269
620.0101, 1812.649
620.4922, 1801.903
620.9744, 1798.491
621.4565, 1802.356
621.9386, 1804.678
622.4207, 1795.314
622.9028, 1778.999
623.3849, 1777.244
623.8671, 1793.785
624.3492, 1802.673
624.8313, 1793.248
625.3134, 1776.104
625.7955, 1759.702
626.2776, 1744.061
626.7598, 1741.917
627.2419, 1770.340
627.7240, 1796.133
628.2061, 1801.920
628.6882, 1794.646
629.1703, 1782.164
629.6525, 1767.841
630.1346, 1756.585
630.6167, 1754.589
631.0988, 1759.603
631.5809, 1757.980
632.0630, 1747.265
632.5452, 1739.544
633.0273, 1739.547
633.5094, 1743.068
633.9915, 1745.112
634.4736, 1745.822
634.9557, 1748.795
635.4379, 1763.828
635.9200, 1771.720
636.4021, 1751.477
636.8842, 1720.786
637.3663, 1709.217
637.8484, 1722.583
638.3306, 1743.122
638.8127, 1755.498
639.2948, 1759.237
639.7769, 1747.583
640.2590, 1713.036
640.7411, 1690.064
641.2233, 1694.661
641.7054, 1709.176
642.1875, 1716.429
642.6696, 1716.854
643.1517, 1714.991
643.6339, 1707.300
644.1160, 1702.330
644.5981, 1709.435
645.0802, 1720.456
645.5623, 1721.604
646.0444, 1710.834
646.5266, 1697.994
647.0087, 1691.904
647.4908, 1691.610
647.9729, 1693.850
648.4550, 1700.340
648.9371, 1701.675
649.4193, 1689.070
649.9014, 1677.484
650.3835, 1686.020
650.8656, 1710.899
651.3477, 1724.992
651.8298, 1716.946
652.3120, 1704.999
652.7941, 1692.621
653.2762, 1683.897
653.7583, 1688.962
654.2404, 1706.042
654.7225, 1716.672
655.2047, 1703.643
655.6868, 1675.904
656.1689, 1663.335
656.6510, 1667.677
657.1331, 1677.692
657.6152, 1696.663
658.0974, 1712.598
658.5795, 1713.722
659.0616, 1702.228
659.5437, 1686.679
660.0258, 1653.126
660.5079, 1633.867
660.9901, 1653.904
661.4722, 1684.708
661.9543, 1693.900
662.4364, 1681.950
662.9185, 1671.424
663.4006, 1677.806
663.8828, 1693.320
664.3649, 1701.122
664.8470, 1700.955
665.3291, 1701.648
665.8112, 1704.958
666.2933, 1708.496
666.7755, 1712.044
667.2576, 1714.311
667.7397, 1710.142
668.2218, 1693.120
668.7039, 1680.172
669.1860, 1674.948
669.6682, 1674.660
670.1503, 1678.829
670.6324, 1685.902
671.1145, 1693.243
671.5966, 1699.785
672.0787, 1704.550
672.5609, 1706.176
673.0430, 1704.786
673.5251, 1699.870
674.0072, 1690.142
674.4893, 1684.872
674.9714, 1692.396
675.4536, 1705.888
675.9357, 1706.688
676.4178, 1684.482
676.8999, 1672.234
677.3820, 1676.092
677.8641, 1684.664
678.3463, 1693.242
678.8284, 1701.993
679.3105, 1714.108
679.7926, 1730.559
680.2747, 1741.648
680.7568, 1733.314
681.2390, 1713.983
681.7211, 1704.240
682.2032, 1704.533
682.6853, 1705.801
683.1674, 1704.171
683.6495, 1701.687
684.1317, 1701.909
684.6138, 1706.040
685.0959, 1706.486
685.5780, 1697.904
686.0601, 1692.044
686.5422, 1695.402
687.0244, 1700.616
687.5065, 1699.933
687.9886, 1692.525
688.4707, 1682.917
688.9528, 1668.250
689.4349, 1656.825
689.9171, 1663.299
690.3992, 1680.889
690.8813, 1689.166
691.3634, 1682.638
691.8455, 1669.553
692.3276, 1656.868
692.8098, 1645.393
693.2919, 1643.625
693.7740, 1657.662
694.2561, 1667.842
694.7382, 1665.504
695.2203, 1662.802
695.7025, 1670.976
696.1846, 1686.338
696.6667, 1694.328
697.1488, 1686.465
697.6309, 1677.867
698.1130, 1678.496
698.5952, 1681.836
699.0773, 1679.598
699.5594, 1671.529
700.0415, 1660.890
700.5236, 1648.912
701.0057, 1639.545
701.4879, 1644.368
701.9700, 1664.588
702.4521, 1672.053
702.9342, 1658.836
703.4163, 1647.010
703.8984, 1652.366
704.3806, 1666.897
704.8627, 1670.849
705.3448, 1660.278
705.8269, 1651.317
706.3090, 1643.605
706.7911, 1640.602
707.2733, 1651.408
707.7554, 1665.981
708.2375, 1665.165
708.7196, 1643.966
709.2017, 1621.540
709.6838, 1617.530
710.1660, 1625.703
710.6481, 1631.576
711.1302, 1634.893
711.6123, 1633.809
712.0944, 1626.324
712.5765, 1620.271
713.0587, 1627.168
713.5408, 1648.179
714.0229, 1657.142
714.5050, 1642.872
714.9871, 1631.608
715.4692, 1630.098
715.9514, 1630.980
716.4335, 1628.493
716.9156, 1622.762
717.3977, 1616.934
717.8798, 1612.797
718.3619, 1608.206
718.8441, 1599.605
719.3262, 1590.097
719.8083, 1584.896
720.2904, 1584.604
720.7725, 1587.822
721.2546, 1594.109
721.7368, 1601.220
722.2189, 1602.849
722.7010, 1597.738
723.1831, 1596.270
723.6652, 1601.462
724.1473, 1606.082
724.6295, 1608.842
725.1116, 1607.082
725.5937, 1593.410
726.0758, 1560.835
726.5579, 1541.178
727.0400, 1551.838
727.5222, 1565.075
728.0043, 1563.390
728.4864, 1553.389
728.9685, 1546.727
729.4506, 1546.659
729.9327, 1549.370
730.4149, 1553.768
730.8970, 1557.552
731.3791, 1552.516
731.8612, 1540.161
732.3433, 1536.770
732.8254, 1548.477
733.3076, 1560.985
733.7897, 1559.097
734.2718, 1544.053
734.7539, 1531.823
735.2360, 1518.845
735.7181, 1514.803
736.2003, 1535.894
736.6824, 1551.915
737.1645, 1537.079
737.6466, 1502.323
738.1287, 1478.895
738.6108, 1476.714
739.0930, 1482.845
739.5751, 1497.806
740.0572, 1511.985
740.5393, 1511.028
741.0214, 1498.461
741.5035, 1488.197
741.9857, 1486.807
742.4678, 1491.210
742.9499, 1499.848
743.4320, 1511.868
743.9141, 1513.928
744.3962, 1503.732
744.8784, 1495.741
745.3605, 1497.052
745.8426, 1500.779
746.3247, 1496.763
746.8068, 1483.609
747.2889, 1475.855
747.7711, 1475.034
748.2532, 1477.197
748.7353, 1483.146
749.2174, 1490.404
749.6995, 1497.625
750.1816, 1504.199
750.6638, 1509.076
751.1459, 1512.096
751.6280, 1512.555
752.1101, 1506.964
752.5922, 1499.345
753.0743, 1500.077
753.5565, 1508.340
754.0386, 1509.743
754.5207, 1494.983
755.0028, 1474.889
755.4849, 1473.074
755.9670, 1492.569
756.4492, 1501.138
756.9313, 1494.597
757.4134, 1486.166
757.8955, 1481.113
758.3776, 1477.590
758.8597, 1471.388
759.3419, 1461.570
759.8240, 1458.661
760.3061, 1473.442
760.7882, 1483.375
761.2703, 1475.009
761.7524, 1460.818
762.2346, 1454.459
762.7167, 1456.515
763.1988, 1458.370
763.6809, 1453.603
764.1630, 1449.282
764.6451, 1458.649
765.1273, 1473.925
765.6094, 1472.366
766.0915, 1452.744
766.5736, 1435.369
767.0557, 1432.747
767.5378, 1440.155
768.0200, 1449.835
768.5021, 1464.250
768.9842, 1463.928
769.4663, 1439.427
769.9484, 1419.968
770.4305, 1422.257
770.9127, 1433.760
771.3948, 1435.339
771.8769, 1425.926
772.3590, 1421.423
772.8411, 1430.843
773.3232, 1436.828
773.8054, 1427.115
774.2875, 1414.295
774.7696, 1413.644
775.2517, 1424.266
775.7338, 1433.243
776.2159, 1433.832
776.6981, 1429.181
777.1802, 1419.092
777.6623, 1407.355
778.1444, 1403.238
778.6265, 1407.315
779.1086, 1415.379
779.5908, 1425.664
780.0729, 1434.219
780.5550, 1431.064
781.0371, 1413.836
781.5192, 1410.977
782.0013, 1430.670
782.4835, 1442.635
782.9656, 1431.635
783.4477, 1410.912
783.9298, 1395.197
784.4119, 1384.384
784.8940, 1381.029
785.3762, 1392.100
785.8583, 1401.817
786.3404, 1405.764
786.8225, 1406.777
787.3046, 1406.513
787.7867, 1405.684
788.2689, 1405.192
788.7510, 1405.215
789.2331, 1406.333
789.7152, 1409.199
790.1973, 1413.404
790.6794, 1420.758
791.1616, 1429.294
791.6437, 1430.576
792.1258, 1420.961
792.6079, 1407.208
793.0900, 1397.180
793.5721, 1391.067
794.0543, 1392.112
794.5364, 1401.759
795.0185, 1409.658
795.5006, 1413.167
795.9827, 1412.991
796.4648, 1407.152
796.9470, 1397.116
797.4291, 1398.810
797.9112, 1430.714
798.3933, 1447.711
798.8754, 1436.890
799.3575, 1421.532
799.8397, 1412.865
800.3218, 1409.904
800.8039, 1409.428
801.2860, 1410.937
801.7681, 1413.375
802.2502, 1417.917
802.7324, 1421.653
803.2145, 1422.389
803.6966, 1420.203
804.1787, 1414.035
804.6608, 1404.492
805.1429, 1396.481
805.6251, 1393.604
806.1072, 1395.702
806.5893, 1406.806
807.0714, 1424.479
807.5535, 1427.574
808.0356, 1411.679
808.5178, 1393.941
808.9999, 1384.561
809.4820, 1383.372
809.9641, 1391.631
810.4462, 1414.513
810.9283, 1427.704
811.4105, 1426.575
811.8926, 1423.410
812.3747, 1425.945
812.8568, 1426.709
813.3389, 1412.868
813.8210, 1384.578
814.3032, 1369.332
814.7853, 1380.137
815.2674, 1393.181
815.7495, 1404.228
816.2316, 1410.985
816.7137, 1410.033
817.1959, 1403.117
817.6780, 1395.107
818.1601, 1387.508
818.6422, 1381.800
819.1243, 1381.927
819.6064, 1383.157
820.0886, 1375.148
820.5707, 1361.165
821.0528, 1354.918
821.5349, 1361.059
822.0170, 1371.932
822.4991, 1380.163
822.9813, 1385.546
823.4634, 1387.444
823.9455, 1385.891
824.4276, 1378.204
824.9097, 1360.869
825.3918, 1350.324
825.8740, 1363.397
826.3561, 1389.383
826.8382, 1390.158
827.3203, 1344.258
827.8024, 1322.946
828.2845, 1346.199
828.7667, 1369.760
829.2488, 1379.666
829.7309, 1380.237
830.2130, 1372.998
830.6951, 1358.390
831.1772, 1352.176
831.6594, 1364.202
832.1415, 1377.915
832.6236, 1387.943
833.1057, 1394.893
833.5878, 1402.704
834.0699, 1408.270
834.5521, 1398.996
835.0342, 1365.713
835.5163, 1336.587
835.9984, 1343.366
836.4805, 1368.177
836.9626, 1385.176
837.4448, 1392.982
837.9269, 1392.276
838.4090, 1383.813
838.8911, 1374.824
839.3732, 1373.946
839.8553, 1377.792
840.3375, 1371.994
840.8196, 1356.267
841.3017, 1346.430
841.7838, 1346.038
842.2659, 1347.940
842.7480, 1347.307
843.2302, 1345.623
843.7123, 1347.029
844.1944, 1353.603
844.6765, 1356.112
845.1586, 1350.900
845.6407, 1347.076
846.1229, 1349.302
846.6050, 1353.199
847.0871, 1355.041
847.5692, 1354.748
848.0513, 1352.528
848.5334, 1345.491
849.0156, 1340.471
849.4977, 1342.870
849.9798, 1344.794
850.4619, 1337.739
850.9440, 1325.841
851.4261, 1319.334
851.9083, 1321.626
852.3904, 1324.563
852.8725, 1321.143
853.3546, 1317.074
853.8367, 1321.792
854.3188, 1329.529
854.8010, 1325.204
855.2831, 1308.259
855.7652, 1295.579
856.2473, 1300.322
856.7294, 1314.066
857.2115, 1324.505
857.6937, 1331.157
858.1758, 1330.737
858.6579, 1323.153
859.1400, 1313.897
859.6221, 1305.116
860.1042, 1298.557
860.5864, 1297.164
861.0685, 1300.729
861.5506, 1303.330
862.0327, 1304.968
862.5148, 1305.653
862.9969, 1305.445
863.4791, 1303.937
863.9612, 1298.961
864.4433, 1292.918
864.9254, 1295.331
865.4075, 1317.393
865.8896, 1324.426
866.3718, 1302.058
866.8539, 1282.495
867.3360, 1276.810
867.8181, 1279.803
868.3002, 1287.909
868.7823, 1300.053
869.2645, 1308.771
869.7466, 1312.096
870.2287, 1311.708
870.7108, 1305.890
871.1929, 1298.541
871.6750, 1291.180
872.1572, 1285.596
872.6393, 1286.362
873.1214, 1295.365
873.6035, 1301.773
874.0856, 1295.783
874.5677, 1284.775
875.0499, 1273.205
875.5320, 1264.221
876.0141, 1266.505
876.4962, 1279.436
876.9783, 1289.833
877.4604, 1288.059
877.9426, 1282.106
878.4247, 1287.415
878.9068, 1299.522
879.3889, 1299.194
879.8710, 1286.448
880.3531, 1278.896
880.8353, 1284.075
881.3174, 1290.242
881.7995, 1282.221
882.2816, 1263.271
882.7637, 1254.024
883.2458, 1255.208
883.7280, 1262.802
884.2101, 1279.915
884.6922, 1290.268
885.1743, 1280.415
885.6564, 1260.220
886.1385, 1251.304
886.6207, 1256.077
887.1028, 1261.516
887.5849, 1268.590
888.0670, 1274.793
888.5491, 1282.296
889.0313, 1286.134
889.5134, 1276.891
889.9955, 1259.323
890.4776, 1255.866
890.9597, 1281.711
891.4418, 1296.846
891.9240, 1289.358
892.4061, 1277.000
892.8882, 1265.524
893.3703, 1256.842
893.8524, 1251.743
894.3345, 1250.655
894.8167, 1256.643
895.2988, 1281.671
895.7809, 1300.999
896.2630, 1298.968
896.7451, 1286.564
897.2272, 1270.278
897.7094, 1254.556
898.1915, 1247.052
898.6736, 1250.555
899.1557, 1256.453
899.6378, 1258.476
900.1199, 1258.625
900.6021, 1257.498
901.0842, 1256.995
901.5663, 1262.010
902.0484, 1272.409
902.5305, 1283.333
903.0126, 1292.177
903.4948, 1297.230
903.9769, 1293.243
904.4590, 1283.769
904.9411, 1281.336
905.4232, 1285.245
905.9053, 1285.287
906.3875, 1278.189
906.8696, 1271.618
907.3517, 1274.024
907.8338, 1280.806
908.3159, 1273.945
908.7980, 1253.269
909.2802, 1246.101
909.7623, 1257.025
910.2444, 1268.019
910.7265, 1270.073
911.2086, 1268.953
911.6907, 1274.138
912.1729, 1285.392
912.6550, 1283.111
913.1371, 1258.949
913.6192, 1248.850
914.1013, 1265.940
914.5834, 1284.994
915.0656, 1289.265
915.5477, 1284.252
916.0298, 1283.322
916.5119, 1290.005
916.9940, 1287.196
917.4761, 1261.272
917.9583, 1245.184
918.4404, 1253.482
918.9225, 1268.357
919.4046, 1276.846
919.8867, 1280.216
920.3688, 1284.056
920.8510, 1289.848
921.3331, 1293.783
921.8152, 1295.205
922.2973, 1294.787
922.7794, 1291.205
923.2615, 1287.017
923.7437, 1286.508
924.2258, 1288.937
924.7079, 1287.192
925.1900, 1276.881
925.6721, 1265.787
926.1542, 1252.508
926.6364, 1243.996
927.1185, 1249.233
927.6006, 1261.934
928.0827, 1272.172
928.5648, 1277.432
929.0469, 1278.543
929.5291, 1275.147
930.0112, 1268.724
930.4933, 1253.331
930.9754, 1240.296
931.4575, 1249.674
931.9396, 1273.861
932.4218, 1287.070
932.9039, 1280.205
933.3860, 1271.164
933.8681, 1279.632
934.3502, 1291.131
934.8323, 1282.877
935.3145, 1264.695
935.7966, 1256.823
936.2787, 1261.157
936.7608, 1270.419
937.2429, 1281.182
937.7250, 1288.448
938.2072, 1281.610
938.6893, 1268.568
939.1714, 1270.065
939.6535, 1282.224
940.1356, 1287.452
940.6177, 1282.474
941.0999, 1278.401
941.5820, 1283.680
942.0641, 1291.074
942.5462, 1286.205
943.0283, 1271.580
943.5104, 1258.156
943.9926, 1246.935
944.4747, 1245.019
944.9568, 1254.748
945.4389, 1269.199
945.9210, 1282.957
946.4031, 1294.846
946.8853, 1301.321
947.3674, 1302.397
947.8495, 1300.692
948.3316, 1295.976
948.8137, 1293.218
949.2958, 1294.447
949.7780, 1297.881
950.2601, 1301.924
950.7422, 1306.177
951.2243, 1308.115
951.7064, 1307.131
952.1885, 1308.467
952.6707, 1314.099
953.1528, 1316.330
953.6349, 1311.210
954.1170, 1301.262
954.5991, 1287.611
955.0812, 1271.147
955.5634, 1271.713
956.0455, 1297.294
956.5276, 1315.172
957.0097, 1319.763
957.4918, 1319.704
957.9739, 1318.317
958.4561, 1316.441
958.9382, 1315.286
959.4203, 1314.800
959.9024, 1315.829
960.3845, 1319.223
960.8666, 1322.649
961.3488, 1328.551
961.8309, 1330.503
962.3130, 1322.181
962.7951, 1308.436
963.2772, 1297.401
963.7593, 1287.553
964.2415, 1288.761
964.7236, 1316.309
965.2057, 1332.679
965.6878, 1324.507
966.1699, 1310.207
966.6520, 1296.406
967.1342, 1286.224
967.6163, 1289.744
968.0984, 1314.667
968.5805, 1323.024
969.0626, 1294.006
969.5447, 1273.708
970.0269, 1278.073
970.5090, 1291.273
970.9911, 1307.410
971.4732, 1321.838
971.9553, 1322.115
972.4374, 1301.664
972.9196, 1286.636
973.4017, 1280.211
973.8838, 1280.123
974.3659, 1288.633
974.8480, 1300.609
975.3301, 1315.056
975.8123, 1329.009
976.2944, 1332.718
976.7765, 1318.915
977.2586, 1314.154
977.7407, 1338.558
978.2228, 1355.891
978.7050, 1342.793
979.1871, 1320.828
979.6692, 1309.287
980.1513, 1308.559
980.6334, 1313.967
981.1155, 1328.146
981.5977, 1336.970
982.0798, 1331.910
982.5619, 1325.559
983.0440, 1324.306
983.5261, 1325.162
984.0082, 1324.655
984.4904, 1322.861
984.9725, 1321.845
985.4546, 1323.056
985.9367, 1322.348
986.4188, 1311.303
986.9009, 1305.717
987.3831, 1323.711
987.8652, 1346.208
988.3473, 1347.520
988.8294, 1330.851
989.3115, 1320.667
989.7936, 1326.197
990.2758, 1333.174
990.7579, 1337.263
991.2400, 1339.281
991.7221, 1339.434
992.2042, 1338.026
992.6863, 1334.624
993.1685, 1329.865
993.6506, 1326.154
994.1327, 1324.664
994.6148, 1323.209
995.0969, 1318.818
995.5790, 1316.281
996.0612, 1320.396
996.5433, 1327.309
997.0254, 1332.557
997.5075, 1335.665
997.9896, 1337.593
998.4717, 1337.854
998.9539, 1339.460
999.4360, 1346.520
999.9181, 1352.522
1000.400, 1352.046
1000.882, 1348.337
1001.364, 1343.012
1001.847, 1338.453
1002.329, 1342.659
1002.811, 1362.796
1003.293, 1378.027
1003.775, 1369.526
1004.257, 1362.627
1004.739, 1380.172
1005.221, 1406.073
1005.703, 1419.370
1006.186, 1420.059
1006.668, 1419.117
1007.150, 1417.567
1007.632, 1423.589
1008.114, 1444.944
1008.596, 1470.589
1009.078, 1495.791
1009.560, 1519.514
1010.043, 1539.665
1010.525, 1557.619
1011.007, 1578.545
1011.489, 1604.756
1011.971, 1631.769
1012.453, 1660.451
1012.935, 1686.383
1013.417, 1701.997
1013.899, 1716.828
1014.382, 1746.409
1014.864, 1784.926
1015.346, 1807.977
1015.828, 1803.065
1016.310, 1807.509
1016.792, 1850.386
1017.274, 1888.903
1017.756, 1894.773
1018.239, 1888.565
1018.721, 1893.820
1019.203, 1906.333
1019.685, 1906.359
1020.167, 1886.863
1020.649, 1867.647
1021.131, 1851.659
1021.613, 1841.619
1022.095, 1841.521
1022.578, 1845.504
1023.060, 1852.332
1023.542, 1857.962
1024.024, 1849.936
1024.506, 1821.106
1024.988, 1811.028
1025.470, 1848.641
1025.952, 1882.263
1026.435, 1888.516
1026.917, 1887.020
1027.399, 1892.352
1027.881, 1902.747
1028.363, 1912.662
1028.845, 1921.537
1029.327, 1928.391
1029.809, 1931.936
1030.292, 1934.972
1030.774, 1935.533
1031.256, 1938.565
1031.738, 1949.675
1032.220, 1964.637
1032.702, 1976.304
1033.184, 1984.123
1033.666, 1989.112
1034.148, 1985.843
1034.630, 1987.806
1035.113, 2000.869
1035.595, 2015.696
1036.077, 2027.134
1036.559, 2037.141
1037.041, 2050.141
1037.523, 2066.494
1038.005, 2075.085
1038.487, 2067.905
1038.970, 2065.850
1039.452, 2073.649
1039.934, 2082.283
1040.416, 2090.821
1040.898, 2095.580
1041.380, 2090.440
1041.862, 2076.517
1042.344, 2066.286
1042.826, 2063.181
1043.309, 2056.819
1043.791, 2050.504
1044.273, 2033.273
1044.755, 1993.887
1045.237, 1952.297
1045.719, 1932.292
1046.201, 1926.262
1046.683, 1896.156
1047.166, 1827.828
1047.648, 1785.458
1048.130, 1781.209
1048.612, 1767.363
1049.094, 1726.733
1049.576, 1679.049
1050.058, 1638.447
1050.540, 1606.704
1051.022, 1591.032
1051.505, 1593.969
1051.987, 1586.864
1052.469, 1567.824
1052.951, 1550.003
1053.433, 1535.614
1053.915, 1528.438
1054.397, 1532.301
1054.879, 1540.412
1055.361, 1539.566
1055.844, 1530.816
1056.326, 1527.014
1056.808, 1528.116
1057.290, 1527.720
1057.772, 1524.644
1058.254, 1529.987
1058.736, 1550.345
1059.218, 1572.292
1059.701, 1575.733
1060.183, 1568.362
1060.665, 1578.394
1061.147, 1602.135
1061.629, 1621.034
1062.111, 1632.441
1062.593, 1634.177
1063.075, 1625.703
1063.557, 1612.422
1064.040, 1597.389
1064.522, 1585.380
1065.004, 1589.209
1065.486, 1601.594
1065.968, 1605.608
1066.450, 1601.138
1066.932, 1590.623
1067.414, 1576.376
1067.896, 1568.250
1068.379, 1574.966
1068.861, 1582.971
1069.343, 1572.398
1069.825, 1557.084
1070.307, 1562.700
1070.789, 1576.146
1071.271, 1564.245
1071.753, 1529.654
1072.236, 1509.054
1072.718, 1521.137
1073.200, 1533.058
1073.682, 1515.405
1074.164, 1493.561
1074.646, 1488.093
1075.128, 1491.303
1075.610, 1496.118
1076.093, 1499.865
1076.575, 1499.035
1077.057, 1492.580
1077.539, 1485.884
1078.021, 1484.994
1078.503, 1479.482
1078.985, 1458.685
1079.467, 1437.341
1079.949, 1428.145
1080.432, 1425.627
1080.914, 1419.456
1081.396, 1408.726
1081.878, 1400.111
1082.360, 1394.461
1082.842, 1391.476
1083.324, 1392.294
1083.806, 1394.375
1084.288, 1400.008
1084.771, 1403.763
1085.253, 1397.692
1085.735, 1384.266
1086.217, 1376.069
1086.699, 1378.801
1087.181, 1370.933
1087.663, 1344.322
1088.145, 1323.421
1088.628, 1313.656
1089.110, 1313.502
1089.592, 1325.396
1090.074, 1342.031
1090.556, 1347.805
1091.038, 1342.540
1091.520, 1329.382
1092.002, 1305.432
1092.484, 1294.987
1092.967, 1304.437
1093.449, 1309.967
1093.931, 1298.573
1094.413, 1283.022
1094.895, 1280.518
1095.377, 1286.038
1095.859, 1278.648
1096.341, 1260.970
1096.823, 1254.802
1097.306, 1260.772
1097.788, 1267.640
1098.270, 1271.378
1098.752, 1268.776
1099.234, 1255.641
1099.716, 1241.745
1100.198, 1246.440
1100.680, 1258.938
1101.163, 1254.832
1101.645, 1240.222
1102.127, 1233.106
1102.609, 1235.039
1103.091, 1236.323
1103.573, 1232.470
1104.055, 1226.673
1104.537, 1220.537
1105.020, 1214.775
1105.502, 1209.220
1105.984, 1205.065
1106.466, 1205.441
1106.948, 1207.852
1107.430, 1205.328
1107.912, 1196.968
1108.394, 1193.442
1108.876, 1204.532
1109.359, 1212.978
1109.841, 1207.063
1110.323, 1202.496
1110.805, 1211.127
1111.287, 1224.998
1111.769, 1236.787
1112.251, 1244.795
1112.733, 1243.752
1113.215, 1228.984
1113.698, 1215.466
1114.180, 1202.813
1114.662, 1192.729
1115.144, 1183.953
1115.626, 1180.306
1116.108, 1186.216
1116.590, 1197.186
1117.072, 1206.005
1117.555, 1212.699
1118.037, 1208.268
1118.519, 1189.997
1119.001, 1175.037
1119.483, 1164.747
1119.965, 1160.953
1120.447, 1163.655
1120.929, 1181.014
1121.411, 1226.613
1121.894, 1280.238
1122.376, 1280.635
1122.858, 1240.119
1123.340, 1223.184
1123.822, 1228.696
1124.304, 1235.391
1124.786, 1237.562
1125.268, 1233.676
1125.750, 1222.390
1126.233, 1212.905
1126.715, 1216.209
1127.197, 1227.042
1127.679, 1245.925
1128.161, 1262.469
1128.643, 1252.858
1129.125, 1227.665
1129.607, 1219.403
1130.090, 1235.209
1130.572, 1252.412
1131.054, 1259.929
1131.536, 1265.705
1132.018, 1276.809
1132.500, 1284.424
1132.982, 1277.737
1133.464, 1267.623
1133.947, 1269.905
1134.429, 1281.064
1134.911, 1282.292
1135.393, 1266.867
1135.875, 1256.963
1136.357, 1260.676
1136.839, 1260.456
1137.321, 1250.400
1137.803, 1240.226
1138.286, 1236.609
1138.768, 1234.303
1139.250, 1223.837
1139.732, 1207.219
1140.214, 1206.431
1140.696, 1225.760
1141.178, 1224.105
1141.660, 1196.238
1142.142, 1177.441
1142.625, 1179.398
1143.107, 1186.513
1143.589, 1186.970
1144.071, 1184.073
1144.553, 1185.513
1145.035, 1187.668
1145.517, 1176.413
1145.999, 1156.778
1146.482, 1143.725
1146.964, 1138.839
1147.446, 1139.085
1147.928, 1142.867
1148.410, 1145.173
1148.892, 1141.532
1149.374, 1136.230
1149.856, 1132.800
1150.339, 1129.839
1150.821, 1123.906
1151.303, 1118.746
1151.785, 1123.456
1152.267, 1134.812
1152.749, 1134.871
1153.231, 1114.377
1153.713, 1102.318
1154.195, 1113.661
1154.677, 1122.583
1155.160, 1120.244
1155.642, 1114.313
1156.124, 1107.907
1156.606, 1102.296
1157.088, 1100.208
1157.570, 1101.036
1158.052, 1097.085
1158.534, 1086.805
1159.017, 1078.458
1159.499, 1072.101
1159.981, 1070.797
1160.463, 1076.148
1160.945, 1081.032
1161.427, 1080.222
1161.909, 1076.289
1162.391, 1072.434
1162.874, 1059.115
1163.356, 1071.117
1163.838, 1077.482
1164.320, 1078.515
1164.802, 1058.240
1165.284, 1065.479
1165.766, 1061.692
1166.248, 1057.453
1166.730, 1068.565
1167.213, 1051.387
1167.695, 1062.255
1168.177, 1061.929
1168.659, 1066.726
1169.141, 1060.429
1169.623, 1057.558
1170.105, 1065.786
1170.587, 1067.868
1171.069, 1060.293
1171.552, 1065.414
1172.034, 1047.851
1172.516, 1050.195
1172.998, 1061.128
1173.480, 1054.112
1173.962, 1059.437
1174.444, 1060.062
1174.926, 1039.325
1175.409, 1055.737
1175.891, 1056.084
1176.373, 1039.935
1176.855, 1055.076
1177.337, 1041.200
1177.819, 1037.682
1178.301, 1041.958
1178.783, 1038.108
1179.266, 1047.068
1179.748, 1043.688
1180.230, 1039.205
1180.712, 1039.534
1181.194, 1026.228
1181.676, 1038.218
1182.158, 1032.929
1182.640, 1036.228
1183.122, 1041.475
1183.604, 1031.815
1184.087, 1037.935
1184.569, 1019.582
1185.051, 1021.708
1185.533, 1021.628
1186.015, 1034.638
1186.497, 1016.405
1186.979, 1017.962
1187.461, 1027.945
1187.944, 1026.136
1188.426, 1029.259
1188.908, 1016.671
1189.390, 1029.505
1189.872, 1036.704
1190.354, 1038.570
1190.836, 1019.128
1191.318, 1027.200
1191.801, 1024.245
1192.283, 1020.839
1192.765, 1032.783
1193.247, 1016.441
1193.729, 1028.142
1194.211, 1028.648
1194.693, 1034.278
1195.175, 1028.813
1195.657, 1026.776
1196.140, 1035.836
1196.622, 1038.751
1197.104, 1022.570
1197.586, 1026.585
1198.068, 1024.635
1198.550, 1023.029
1199.032, 1027.455
1199.514, 1031.099
1199.996, 1031.080
1200.479, 1027.731
1200.961, 1018.060
1201.443, 1007.276
1201.925, 1002.655
1202.407, 1004.169
1202.889, 1007.483
1203.371, 1012.024
1203.853, 1021.333
1204.336, 1040.019
1204.818, 1047.292
1205.300, 1036.626
1205.782, 1024.865
1206.264, 1020.835
1206.746, 1020.966
1207.228, 1021.487
1207.710, 1022.123
1208.193, 1021.859
1208.675, 1021.260
1209.157, 1022.231
1209.639, 1024.285
1210.121, 1026.556
1210.603, 1028.195
1211.085, 1026.405
1211.567, 1019.992
1212.049, 1014.382
1212.531, 1010.574
1213.014, 1011.616
1213.496, 1026.775
1213.978, 1038.867
1214.460, 1030.141
1214.942, 1015.678
1215.424, 1017.104
1215.906, 1029.307
1216.388, 1030.595
1216.871, 1018.638
1217.353, 1009.356
1217.835, 1001.561
1218.317, 1003.231
1218.799, 1017.518
1219.281, 1025.601
1219.763, 1019.085
1220.245, 1013.027
1220.728, 1022.429
1221.210, 1035.298
1221.692, 1028.433
1222.174, 1010.866
##END=



