##NAMES=Baricite
##RRUFFID=R061045
##IDEAL CHEMISTRY=Mg_3_(PO_4_)_2_&#183;8H_2_O
##LOCALITY=Rapid Creek, Yukon, Canada
##OWNER=RRUFF
##SOURCE=Michael Scott
##DESCRIPTION=Bluish-gray translucent fragment
##STATUS=The identification of this mineral is confirmed by single-crystal X-ray diffraction and chemical analysis.
##URL=rruff.info/R061045
##MEASURED CHEMISTRY=(Mg_1.66_Fe_1.33_Mn_0.01_)_Σ=3_(P_1.00_O_4_)_2_·8H_2_O; H_2_O estimated by difference
124.4148, 476.6191
124.8969, 492.6800
125.3791, 513.1146
125.8612, 547.0226
126.3433, 589.0704
126.8254, 629.6262
127.3075, 666.0247
127.7896, 700.2534
128.2718, 734.2058
128.7539, 768.0457
129.2360, 803.8083
129.7181, 844.5046
130.2002, 889.1572
130.6823, 935.0671
131.1645, 978.6746
131.6466, 1022.484
132.1287, 1076.679
132.6108, 1141.837
133.0929, 1213.260
133.5750, 1287.157
134.0572, 1364.341
134.5393, 1435.923
135.0214, 1505.837
135.5035, 1573.668
135.9856, 1611.115
136.4677, 1614.384
136.9499, 1588.442
137.4320, 1539.517
137.9141, 1462.791
138.3962, 1381.259
138.8783, 1308.451
139.3604, 1246.059
139.8426, 1186.967
140.3247, 1128.258
140.8068, 1071.690
141.2889, 1028.369
141.7710, 1002.153
142.2531, 984.2994
142.7353, 966.4797
143.2174, 947.5569
143.6995, 931.3790
144.1816, 919.4047
144.6637, 912.1614
145.1458, 904.2924
145.6280, 891.1509
146.1101, 879.6714
146.5922, 881.2928
147.0743, 909.2307
147.5564, 934.1639
148.0385, 946.0281
148.5207, 935.8847
149.0028, 929.9594
149.4849, 927.3576
149.9670, 928.9408
150.4491, 937.1841
150.9312, 950.8671
151.4134, 972.1671
151.8955, 1001.939
152.3776, 1061.889
152.8597, 1106.032
153.3418, 1122.639
153.8239, 1115.467
154.3060, 1116.494
154.7882, 1134.448
155.2703, 1159.094
155.7524, 1183.296
156.2345, 1194.602
156.7166, 1216.282
157.1987, 1257.294
157.6809, 1319.114
158.1630, 1381.700
158.6451, 1439.383
159.1272, 1494.634
159.6093, 1550.652
160.0914, 1608.389
160.5736, 1666.271
161.0557, 1722.221
161.5378, 1774.204
162.0199, 1831.177
162.5020, 1900.346
162.9841, 1976.373
163.4663, 2050.824
163.9484, 2112.990
164.4305, 2176.789
164.9126, 2252.204
165.3947, 2345.051
165.8768, 2441.922
166.3590, 2537.996
166.8411, 2632.365
167.3232, 2725.038
167.8053, 2811.452
168.2874, 2897.962
168.7695, 2991.190
169.2517, 3097.956
169.7338, 3206.960
170.2159, 3317.041
170.6980, 3424.718
171.1801, 3516.915
171.6622, 3594.327
172.1444, 3648.696
172.6265, 3668.018
173.1086, 3640.185
173.5907, 3579.122
174.0728, 3495.050
174.5549, 3387.183
175.0371, 3263.635
175.5192, 3121.849
176.0013, 2968.740
176.4834, 2820.311
176.9655, 2684.445
177.4476, 2558.728
177.9298, 2440.261
178.4119, 2327.614
178.8940, 2224.900
179.3761, 2131.833
179.8582, 2049.708
180.3403, 1980.029
180.8224, 1927.109
181.3046, 1887.476
181.7867, 1852.723
182.2688, 1822.714
182.7509, 1796.372
183.2330, 1769.936
183.7151, 1744.576
184.1973, 1727.098
184.6794, 1723.547
185.1615, 1732.207
185.6436, 1746.874
186.1257, 1765.904
186.6078, 1791.137
187.0900, 1828.510
187.5721, 1878.169
188.0542, 1931.426
188.5363, 1978.753
189.0184, 2021.780
189.5005, 2074.977
189.9827, 2142.228
190.4648, 2221.382
190.9469, 2308.263
191.4290, 2401.729
191.9111, 2502.150
192.3932, 2608.246
192.8754, 2719.909
193.3575, 2847.020
193.8396, 2995.147
194.3217, 3163.029
194.8038, 3331.645
195.2859, 3499.121
195.7681, 3674.125
196.2502, 3877.881
196.7323, 4111.536
197.2144, 4345.914
197.6965, 4567.203
198.1786, 4774.965
198.6608, 4992.377
199.1429, 5218.938
199.6250, 5454.643
200.1071, 5713.827
200.5892, 6003.845
201.0714, 6273.359
201.5535, 6495.043
202.0356, 6665.922
202.5177, 6825.951
202.9998, 6981.763
203.4819, 7122.221
203.9641, 7216.264
204.4462, 7262.482
204.9283, 7268.917
205.4104, 7237.661
205.8925, 7166.472
206.3746, 7066.857
206.8568, 6934.928
207.3389, 6776.118
207.8210, 6611.591
208.3031, 6440.805
208.7852, 6264.286
209.2673, 6079.595
209.7494, 5882.752
210.2316, 5694.871
210.7137, 5516.735
211.1958, 5349.776
211.6779, 5198.706
212.1600, 5065.032
212.6421, 4942.369
213.1243, 4826.799
213.6064, 4722.076
214.0885, 4615.019
214.5706, 4499.625
215.0527, 4376.435
215.5348, 4270.932
216.0170, 4187.416
216.4991, 4115.417
216.9812, 4045.631
217.4633, 3978.997
217.9454, 3913.369
218.4275, 3846.255
218.9097, 3777.696
219.3918, 3720.861
219.8739, 3681.722
220.3560, 3648.761
220.8381, 3608.045
221.3202, 3557.778
221.8024, 3504.634
222.2845, 3450.352
222.7666, 3394.384
223.2487, 3340.031
223.7308, 3289.474
224.2129, 3239.297
224.6951, 3184.052
225.1772, 3119.311
225.6593, 3056.709
226.1414, 2998.332
226.6235, 2943.682
227.1056, 2897.031
227.5878, 2860.489
228.0699, 2830.373
228.5520, 2798.484
229.0341, 2762.205
229.5162, 2728.915
229.9983, 2700.929
230.4805, 2679.238
230.9626, 2661.173
231.4447, 2649.807
231.9268, 2640.989
232.4089, 2625.095
232.8910, 2596.378
233.3732, 2569.003
233.8553, 2548.238
234.3374, 2533.316
234.8195, 2527.160
235.3016, 2534.937
235.7837, 2550.534
236.2658, 2555.423
236.7480, 2539.671
237.2301, 2527.281
237.7122, 2529.802
238.1943, 2552.062
238.6764, 2579.324
239.1585, 2614.336
239.6407, 2654.406
240.1228, 2688.413
240.6049, 2710.491
241.0870, 2734.766
241.5691, 2770.245
242.0512, 2826.558
242.5334, 2873.773
243.0155, 2908.385
243.4976, 2932.278
243.9797, 2953.605
244.4618, 2967.358
244.9439, 2984.497
245.4261, 3016.197
245.9082, 3086.889
246.3903, 3119.397
246.8724, 3096.854
247.3545, 3027.903
247.8366, 2963.996
248.3188, 2903.774
248.8009, 2851.407
249.2830, 2810.637
249.7651, 2786.408
250.2472, 2764.087
250.7293, 2741.241
251.2115, 2718.765
251.6936, 2705.077
252.1757, 2709.657
252.6578, 2711.190
253.1399, 2691.469
253.6220, 2634.771
254.1042, 2592.657
254.5863, 2576.011
255.0684, 2582.006
255.5505, 2580.886
256.0326, 2566.502
256.5147, 2552.865
256.9969, 2550.321
257.4790, 2560.150
257.9611, 2579.135
258.4432, 2613.471
258.9253, 2660.744
259.4074, 2681.836
259.8896, 2662.804
260.3717, 2637.042
260.8538, 2633.710
261.3359, 2662.219
261.8180, 2689.076
262.3001, 2711.664
262.7823, 2729.086
263.2644, 2729.593
263.7465, 2705.468
264.2286, 2676.173
264.7107, 2660.664
265.1928, 2663.552
265.6750, 2665.816
266.1571, 2667.263
266.6392, 2666.894
267.1213, 2647.764
267.6034, 2603.636
268.0855, 2551.799
268.5677, 2508.647
269.0498, 2476.611
269.5319, 2444.247
270.0140, 2408.721
270.4961, 2370.557
270.9782, 2334.576
271.4604, 2301.878
271.9425, 2268.377
272.4246, 2227.251
272.9067, 2175.042
273.3888, 2132.911
273.8709, 2108.845
274.3531, 2100.019
274.8352, 2081.621
275.3173, 2050.739
275.7994, 2017.524
276.2815, 1992.725
276.7636, 1977.825
277.2457, 1961.425
277.7278, 1939.986
278.2100, 1914.753
278.6921, 1893.883
279.1742, 1877.923
279.6563, 1864.464
280.1384, 1851.752
280.6205, 1840.026
281.1027, 1827.895
281.5848, 1817.245
282.0669, 1805.944
282.5490, 1781.318
283.0311, 1741.032
283.5132, 1698.120
283.9954, 1666.499
284.4775, 1645.994
284.9596, 1623.188
285.4417, 1595.389
285.9238, 1562.659
286.4059, 1523.237
286.8881, 1476.671
287.3702, 1429.615
287.8523, 1388.773
288.3344, 1353.469
288.8165, 1318.629
289.2986, 1282.928
289.7808, 1246.568
290.2629, 1208.766
290.7450, 1169.603
291.2271, 1133.011
291.7092, 1104.615
292.1913, 1082.793
292.6735, 1058.676
293.1556, 1029.157
293.6377, 997.3503
294.1198, 970.2315
294.6019, 947.7097
295.0840, 927.1038
295.5662, 907.0484
296.0483, 886.9908
296.5304, 864.7641
297.0125, 837.0226
297.4946, 809.7250
297.9767, 794.3500
298.4589, 790.1584
298.9410, 789.3612
299.4231, 787.9129
299.9052, 785.2757
300.3873, 779.9478
300.8694, 770.0482
301.3516, 759.2065
301.8337, 751.7864
302.3158, 747.4928
302.7979, 744.5974
303.2800, 741.5148
303.7621, 739.0465
304.2443, 738.5065
304.7264, 740.5728
305.2085, 744.0974
305.6906, 748.6563
306.1727, 753.9542
306.6548, 758.9273
307.1370, 760.4395
307.6191, 762.1438
308.1012, 769.4653
308.5833, 787.1816
309.0654, 803.7291
309.5475, 806.3680
310.0297, 799.5798
310.5118, 797.0007
310.9939, 808.7157
311.4760, 826.5621
311.9581, 843.9576
312.4402, 859.9238
312.9224, 874.4715
313.4045, 888.2089
313.8866, 900.7712
314.3687, 910.9502
314.8508, 919.4748
315.3329, 924.6443
315.8151, 924.9186
316.2972, 918.9723
316.7793, 911.1195
317.2614, 901.7397
317.7435, 891.7661
318.2256, 882.9406
318.7078, 876.9103
319.1899, 871.3688
319.6720, 865.9347
320.1541, 861.8142
320.6362, 853.6988
321.1183, 835.4940
321.6005, 813.2950
322.0826, 796.4714
322.5647, 790.9063
323.0468, 787.7271
323.5289, 783.4911
324.0110, 776.9984
324.4932, 773.1410
324.9753, 774.9355
325.4574, 779.0439
325.9395, 781.4503
326.4216, 782.7952
326.9037, 781.4316
327.3859, 775.7964
327.8680, 764.4778
328.3501, 756.0861
328.8322, 752.5502
329.3143, 751.0958
329.7964, 748.9063
330.2786, 743.3032
330.7607, 740.5502
331.2428, 743.6232
331.7249, 753.0292
332.2070, 756.2418
332.6891, 749.0948
333.1712, 739.5477
333.6534, 733.9728
334.1355, 731.9307
334.6176, 735.0538
335.0997, 746.4058
335.5818, 764.5109
336.0639, 774.6537
336.5461, 774.8644
337.0282, 770.2078
337.5103, 762.4553
337.9924, 748.9761
338.4745, 743.5787
338.9566, 750.7050
339.4388, 766.4042
339.9209, 776.0634
340.4030, 778.6462
340.8851, 778.4344
341.3672, 778.8267
341.8493, 780.0777
342.3315, 776.6174
342.8136, 766.2542
343.2957, 752.8881
343.7778, 745.3799
344.2599, 744.1384
344.7420, 743.9091
345.2242, 744.3149
345.7063, 744.2079
346.1884, 733.8470
346.6705, 710.1628
347.1526, 682.6453
347.6347, 667.2756
348.1169, 662.6225
348.5990, 657.2820
349.0811, 644.3026
349.5632, 626.5348
350.0453, 609.7169
350.5274, 593.9295
351.0096, 580.8133
351.4917, 573.3792
351.9738, 570.2085
352.4559, 566.9938
352.9380, 562.0480
353.4201, 555.9149
353.9023, 549.0775
354.3844, 541.5464
354.8665, 534.1335
355.3486, 527.1768
355.8307, 520.8565
356.3128, 515.3256
356.7950, 510.6432
357.2771, 506.9206
357.7592, 503.9678
358.2413, 501.8726
358.7234, 501.5062
359.2055, 507.9041
359.6877, 514.2559
360.1698, 513.6809
360.6519, 494.9227
361.1340, 479.3758
361.6161, 479.3517
362.0982, 491.1560
362.5804, 499.8316
363.0625, 497.0101
363.5446, 491.4975
364.0267, 488.5035
364.5088, 489.2109
364.9909, 492.0110
365.4731, 499.8788
365.9552, 509.7466
366.4373, 514.1917
366.9194, 505.6981
367.4015, 497.0168
367.8836, 492.8521
368.3658, 494.7635
368.8479, 498.2697
369.3300, 505.3809
369.8121, 513.3808
370.2942, 518.0097
370.7763, 516.4086
371.2585, 515.1537
371.7406, 515.7885
372.2227, 518.4180
372.7048, 522.0508
373.1869, 526.5648
373.6690, 532.1297
374.1512, 539.1434
374.6333, 548.1447
375.1154, 557.2667
375.5975, 566.4930
376.0796, 575.7184
376.5617, 583.8378
377.0439, 591.2347
377.5260, 596.4997
378.0081, 595.9836
378.4902, 588.7575
378.9723, 589.2261
379.4544, 601.3369
379.9366, 620.9326
380.4187, 638.5560
380.9008, 654.1274
381.3829, 667.9047
381.8650, 679.0212
382.3471, 688.2428
382.8293, 699.0367
383.3114, 712.4056
383.7935, 725.9112
384.2756, 735.5991
384.7577, 742.1641
385.2398, 749.2924
385.7219, 759.7191
386.2040, 771.8021
386.6862, 783.3503
387.1683, 794.4507
387.6504, 803.7955
388.1325, 809.3557
388.6146, 812.4449
389.0967, 815.3640
389.5789, 817.4233
390.0610, 820.9020
390.5431, 830.6738
391.0252, 846.0591
391.5073, 855.5958
391.9894, 847.0522
392.4716, 832.1065
392.9537, 822.5697
393.4358, 829.3537
393.9179, 833.5610
394.4000, 826.1970
394.8821, 809.7509
395.3643, 794.3877
395.8464, 782.6339
396.3285, 773.1002
396.8106, 765.4276
397.2927, 761.4175
397.7748, 755.7869
398.2570, 746.7712
398.7391, 735.8057
399.2212, 725.7872
399.7033, 715.8728
400.1854, 707.8113
400.6675, 701.1949
401.1497, 694.7469
401.6318, 696.5137
402.1139, 713.6740
402.5960, 733.3160
403.0781, 739.3741
403.5602, 724.4089
404.0424, 712.9889
404.5245, 710.6978
405.0066, 716.8250
405.4887, 724.0438
405.9708, 732.7179
406.4529, 741.6104
406.9351, 748.6353
407.4172, 753.3895
407.8993, 763.6263
408.3814, 782.6237
408.8635, 805.3561
409.3456, 820.1859
409.8278, 827.1890
410.3099, 831.5883
410.7920, 835.0331
411.2741, 838.2524
411.7562, 844.0229
412.2383, 853.0045
412.7205, 862.8913
413.2026, 873.0583
413.6847, 882.4778
414.1668, 887.8666
414.6489, 881.6792
415.1310, 873.8554
415.6132, 879.0330
416.0953, 897.4112
416.5774, 913.1295
417.0595, 913.6384
417.5416, 905.9628
418.0237, 898.4716
418.5059, 891.2624
418.9880, 887.7235
419.4701, 892.6689
419.9522, 903.8266
420.4343, 911.8740
420.9164, 911.3492
421.3986, 908.0174
421.8807, 904.7107
422.3628, 899.7501
422.8449, 899.0913
423.3270, 906.4859
423.8091, 918.5056
424.2913, 929.1868
424.7734, 940.1203
425.2555, 947.2495
425.7376, 947.7513
426.2197, 939.6719
426.7018, 937.3587
427.1840, 944.3807
427.6661, 953.9815
428.1482, 959.0010
428.6303, 955.8193
429.1124, 957.2307
429.5945, 966.6908
430.0767, 982.2548
430.5588, 995.6520
431.0409, 1007.419
431.5230, 1014.904
432.0051, 1012.373
432.4872, 999.9091
432.9694, 1000.267
433.4515, 1018.919
433.9336, 1043.302
434.4157, 1050.697
434.8978, 1042.747
435.3799, 1035.672
435.8621, 1040.282
436.3442, 1050.941
436.8263, 1053.022
437.3084, 1045.835
437.7905, 1040.625
438.2726, 1047.758
438.7548, 1063.836
439.2369, 1083.164
439.7190, 1107.685
440.2011, 1130.834
440.6832, 1145.106
441.1653, 1152.437
441.6474, 1161.096
442.1295, 1171.546
442.6117, 1187.251
443.0938, 1211.510
443.5759, 1247.823
444.0580, 1286.327
444.5401, 1322.892
445.0222, 1359.300
445.5044, 1397.977
445.9865, 1438.184
446.4686, 1482.079
446.9507, 1530.118
447.4328, 1582.863
447.9149, 1638.329
448.3971, 1700.143
448.8792, 1761.800
449.3613, 1818.227
449.8434, 1861.944
450.3255, 1916.579
450.8076, 1987.154
451.2898, 2069.922
451.7719, 2150.122
452.2540, 2227.045
452.7361, 2301.751
453.2182, 2373.064
453.7003, 2440.170
454.1825, 2518.672
454.6646, 2611.316
455.1467, 2707.405
455.6288, 2789.414
456.1109, 2859.064
456.5930, 2927.771
457.0752, 3000.396
457.5573, 3073.782
458.0394, 3140.403
458.5215, 3200.813
459.0036, 3254.077
459.4857, 3302.893
459.9679, 3343.708
460.4500, 3369.103
460.9321, 3375.471
461.4142, 3371.339
461.8963, 3362.876
462.3784, 3348.665
462.8606, 3325.423
463.3427, 3288.751
463.8248, 3244.463
464.3069, 3197.094
464.7890, 3147.311
465.2711, 3088.660
465.7533, 3013.748
466.2354, 2931.601
466.7175, 2851.802
467.1996, 2779.590
467.6817, 2705.273
468.1638, 2628.983
468.6460, 2550.426
469.1281, 2460.700
469.6102, 2349.986
470.0923, 2242.149
470.5744, 2149.253
471.0565, 2076.658
471.5387, 2001.367
472.0208, 1921.393
472.5029, 1841.169
472.9850, 1767.051
473.4671, 1699.546
473.9492, 1631.542
474.4314, 1557.624
474.9135, 1481.947
475.3956, 1420.718
475.8777, 1373.747
476.3598, 1332.063
476.8419, 1286.859
477.3241, 1241.366
477.8062, 1205.058
478.2883, 1183.794
478.7704, 1163.644
479.2525, 1125.215
479.7346, 1076.046
480.2168, 1036.358
480.6989, 1023.189
481.1810, 1017.508
481.6631, 1006.940
482.1452, 990.3882
482.6273, 970.3242
483.1095, 939.2768
483.5916, 909.2862
484.0737, 891.7359
484.5558, 902.6854
485.0379, 910.2973
485.5201, 907.9404
486.0022, 897.6370
486.4843, 888.2787
486.9664, 880.1133
487.4485, 872.6835
487.9306, 865.7260
488.4128, 859.2174
488.8949, 853.6063
489.3770, 848.8048
489.8591, 845.0103
490.3412, 842.3666
490.8233, 840.7850
491.3055, 840.7531
491.7876, 841.6168
492.2697, 844.5241
492.7518, 857.4016
493.2339, 880.2573
493.7160, 895.9403
494.1982, 884.2383
494.6803, 856.5757
495.1624, 842.3140
495.6445, 845.7903
496.1266, 856.4714
496.6087, 868.7352
497.0908, 880.3455
497.5729, 887.2429
498.0551, 878.9114
498.5372, 872.2672
499.0193, 881.4684
499.5014, 904.7092
499.9835, 925.8992
500.4656, 938.1652
500.9478, 946.3817
501.4299, 953.5068
501.9120, 958.6317
502.3941, 964.9329
502.8762, 970.2720
503.3583, 977.6148
503.8405, 992.0969
504.3226, 1019.305
504.8047, 1045.711
505.2868, 1069.724
505.7689, 1091.071
506.2510, 1102.312
506.7332, 1098.735
507.2153, 1095.082
507.6974, 1103.206
508.1795, 1123.274
508.6616, 1145.527
509.1437, 1169.197
509.6259, 1193.892
510.1080, 1219.706
510.5901, 1246.360
511.0722, 1271.906
511.5543, 1295.953
512.0364, 1317.917
512.5186, 1333.563
513.0007, 1343.547
513.4828, 1358.691
513.9649, 1390.905
514.4470, 1430.984
514.9291, 1469.155
515.4113, 1505.237
515.8934, 1534.935
516.3755, 1548.007
516.8576, 1554.184
517.3397, 1572.576
517.8218, 1620.652
518.3040, 1669.769
518.7861, 1709.888
519.2682, 1739.474
519.7503, 1771.331
520.2324, 1808.940
520.7145, 1845.998
521.1967, 1875.853
521.6788, 1891.027
522.1609, 1921.538
522.6430, 1974.222
523.1251, 2039.115
523.6072, 2092.910
524.0894, 2133.943
524.5715, 2179.048
525.0536, 2240.792
525.5357, 2311.593
526.0178, 2361.029
526.4999, 2388.594
526.9821, 2415.545
527.4642, 2463.385
527.9463, 2523.184
528.4284, 2575.708
528.9105, 2613.865
529.3926, 2653.018
529.8748, 2712.711
530.3569, 2782.374
530.8390, 2839.613
531.3211, 2852.636
531.8032, 2870.910
532.2853, 2925.022
532.7675, 3016.591
533.2496, 3096.707
533.7317, 3152.419
534.2138, 3196.034
534.6959, 3235.515
535.1780, 3262.301
535.6602, 3299.563
536.1423, 3354.480
536.6244, 3416.023
537.1065, 3464.450
537.5886, 3494.683
538.0707, 3527.619
538.5529, 3571.200
539.0350, 3622.943
539.5171, 3668.562
539.9992, 3707.309
540.4813, 3747.197
540.9634, 3800.385
541.4456, 3860.184
541.9277, 3903.304
542.4098, 3924.531
542.8919, 3937.392
543.3740, 3956.241
543.8561, 3976.708
544.3383, 3990.104
544.8204, 3988.726
545.3025, 3982.640
545.7846, 3979.767
546.2667, 3978.698
546.7488, 3970.074
547.2310, 3949.041
547.7131, 3921.127
548.1952, 3888.177
548.6773, 3847.228
549.1594, 3809.076
549.6415, 3777.516
550.1237, 3746.759
550.6058, 3711.112
551.0879, 3673.759
551.5700, 3623.194
552.0521, 3551.755
552.5342, 3467.562
553.0164, 3404.914
553.4985, 3367.375
553.9806, 3322.004
554.4627, 3238.899
554.9448, 3129.938
555.4269, 3048.682
555.9091, 2998.387
556.3912, 2954.516
556.8733, 2892.850
557.3554, 2821.456
557.8375, 2754.729
558.3196, 2696.887
558.8018, 2644.762
559.2839, 2603.185
559.7660, 2565.649
560.2481, 2515.256
560.7302, 2423.369
561.2123, 2337.314
561.6945, 2281.149
562.1766, 2261.052
562.6587, 2234.885
563.1408, 2193.209
563.6229, 2150.639
564.1050, 2116.383
564.5872, 2092.617
565.0693, 2072.026
565.5514, 2055.648
566.0335, 2040.525
566.5156, 2017.953
566.9977, 1986.796
567.4799, 1966.739
567.9620, 1967.617
568.4441, 1983.516
568.9262, 2000.611
569.4083, 2018.898
569.8904, 2035.833
570.3726, 2044.046
570.8547, 2052.095
571.3368, 2075.617
571.8189, 2119.995
572.3010, 2160.546
572.7831, 2173.454
573.2653, 2175.906
573.7474, 2188.848
574.2295, 2239.192
574.7116, 2278.243
575.1937, 2285.831
575.6758, 2270.173
576.1580, 2266.437
576.6401, 2295.516
577.1222, 2311.676
577.6042, 2295.945
578.0864, 2244.206
578.5685, 2200.073
579.0506, 2166.983
579.5327, 2132.607
580.0148, 2085.562
580.4969, 2026.217
580.9791, 1957.503
581.4612, 1876.697
581.9433, 1794.663
582.4254, 1733.094
582.9075, 1686.363
583.3896, 1637.296
583.8718, 1570.855
584.3539, 1503.797
584.8360, 1451.663
585.3181, 1413.274
585.8002, 1377.329
586.2823, 1338.223
586.7645, 1300.338
587.2466, 1267.608
587.7287, 1244.205
588.2108, 1215.703
588.6929, 1169.954
589.1750, 1124.069
589.6572, 1096.057
590.1393, 1096.559
590.6214, 1091.952
591.1035, 1077.043
591.5856, 1054.758
592.0677, 1031.666
592.5499, 1007.296
593.0320, 986.5827
593.5141, 972.4810
593.9962, 963.8233
594.4783, 957.6755
594.9604, 953.9742
595.4426, 950.6169
595.9247, 948.3137
596.4068, 944.4064
596.8889, 933.3533
597.3710, 910.1951
597.8531, 891.7797
598.3353, 893.0614
598.8174, 902.9418
599.2995, 906.2363
599.7816, 889.3951
600.2637, 875.9728
600.7458, 874.6929
601.2280, 882.3593
601.7101, 882.9490
602.1922, 871.4396
602.6743, 860.9520
603.1564, 856.9307
603.6385, 859.5300
604.1207, 864.2951
604.6028, 871.7231
605.0849, 879.4692
605.5670, 885.9067
606.0491, 890.8318
606.5313, 893.3328
607.0134, 893.3050
607.4955, 890.7454
607.9776, 880.9630
608.4597, 868.8746
608.9418, 864.6497
609.4240, 881.1044
609.9061, 899.2244
610.3882, 907.4519
610.8703, 907.5381
611.3524, 908.2370
611.8345, 910.6566
612.3167, 915.3848
612.7988, 923.5524
613.2809, 936.5483
613.7630, 946.9403
614.2451, 956.1649
614.7272, 961.0674
615.2094, 956.3660
615.6915, 940.1177
616.1736, 930.4605
616.6557, 929.5510
617.1378, 935.8504
617.6199, 950.4047
618.1021, 971.3110
618.5842, 988.3959
619.0663, 992.8923
619.5484, 995.5105
620.0305, 1013.020
620.5126, 1041.531
620.9948, 1063.807
621.4769, 1061.764
621.9590, 1056.920
622.4411, 1064.857
622.9232, 1089.861
623.4053, 1108.770
623.8875, 1112.800
624.3696, 1111.977
624.8517, 1112.657
625.3338, 1110.797
625.8159, 1120.659
626.2980, 1148.137
626.7802, 1181.732
627.2623, 1201.369
627.7444, 1206.388
628.2265, 1210.103
628.7086, 1216.172
629.1907, 1223.687
629.6729, 1230.576
630.1550, 1237.028
630.6371, 1243.954
631.1192, 1253.382
631.6013, 1262.575
632.0834, 1268.021
632.5656, 1269.486
633.0477, 1271.839
633.5298, 1278.620
634.0119, 1286.319
634.4940, 1292.436
634.9761, 1297.592
635.4583, 1299.089
635.9404, 1291.281
636.4225, 1283.420
636.9046, 1289.742
637.3867, 1317.009
637.8688, 1333.813
638.3510, 1331.269
638.8331, 1317.162
639.3152, 1311.468
639.7973, 1313.682
640.2794, 1314.058
640.7615, 1304.299
641.2437, 1291.035
641.7258, 1285.944
642.2079, 1288.365
642.6900, 1289.643
643.1721, 1283.508
643.6542, 1274.533
644.1364, 1265.876
644.6185, 1257.807
645.1006, 1251.405
645.5827, 1252.567
646.0648, 1252.362
646.5469, 1241.383
647.0291, 1207.519
647.5112, 1187.121
647.9933, 1188.049
648.4754, 1199.506
648.9575, 1198.433
649.4396, 1183.916
649.9218, 1171.382
650.4039, 1168.658
650.8860, 1169.551
651.3681, 1158.999
651.8502, 1138.597
652.3323, 1118.496
652.8145, 1103.853
653.2966, 1093.329
653.7787, 1087.422
654.2608, 1086.403
654.7429, 1082.379
655.2250, 1067.524
655.7072, 1051.521
656.1893, 1041.599
656.6714, 1042.468
657.1535, 1042.427
657.6356, 1041.860
658.1177, 1040.019
658.5999, 1036.344
659.0820, 1031.144
659.5641, 1021.383
660.0462, 1004.068
660.5283, 985.3915
661.0104, 979.8655
661.4926, 985.1196
661.9747, 987.5406
662.4568, 975.4192
662.9389, 960.3415
663.4210, 957.2527
663.9031, 964.2134
664.3853, 969.3962
664.8674, 967.1470
665.3495, 961.1839
665.8316, 952.4429
666.3137, 939.8125
666.7958, 930.6201
667.2780, 925.9169
667.7601, 923.9073
668.2422, 924.8804
668.7243, 931.6794
669.2064, 927.5860
669.6885, 907.3735
670.1707, 885.4085
670.6528, 885.2519
671.1349, 902.9840
671.6170, 914.0284
672.0991, 910.0901
672.5812, 899.2870
673.0634, 887.4919
673.5455, 876.2840
674.0276, 869.4924
674.5097, 876.5156
674.9918, 881.4356
675.4739, 872.3458
675.9561, 851.4301
676.4382, 839.2009
676.9203, 842.7721
677.4024, 851.0630
677.8845, 862.0954
678.3666, 876.8624
678.8488, 881.7585
679.3309, 873.3737
679.8130, 865.0281
680.2951, 871.1713
680.7772, 888.1310
681.2593, 894.5486
681.7415, 887.1973
682.2236, 875.2498
682.7057, 864.9823
683.1878, 857.2423
683.6699, 853.4760
684.1520, 856.6812
684.6342, 859.7233
685.1163, 857.8737
685.5984, 853.9532
686.0805, 853.1177
686.5626, 860.7729
687.0447, 866.1512
687.5268, 866.6080
688.0089, 863.5634
688.4910, 863.0380
688.9731, 865.6893
689.4553, 867.9975
689.9374, 868.1449
690.4195, 866.6656
690.9016, 865.1924
691.3837, 863.7755
691.8658, 863.5347
692.3480, 865.8971
692.8301, 869.5522
693.3122, 872.9711
693.7943, 875.9156
694.2764, 879.1874
694.7585, 884.1422
695.2407, 889.0082
695.7228, 892.4717
696.2049, 895.5239
696.6870, 894.8525
697.1691, 887.5778
697.6512, 879.3075
698.1334, 879.2125
698.6155, 889.1880
699.0976, 890.8624
699.5797, 878.2580
700.0618, 860.7111
700.5439, 854.6512
701.0261, 857.9728
701.5082, 862.6973
701.9903, 867.8123
702.4724, 870.5995
702.9545, 865.5076
703.4366, 855.4207
703.9188, 850.5343
704.4009, 860.2610
704.8830, 870.4286
705.3651, 874.5855
705.8472, 872.6521
706.3293, 872.3004
706.8115, 874.0717
707.2936, 876.4190
707.7757, 878.2691
708.2578, 879.6382
708.7399, 883.8201
709.2220, 891.4960
709.7042, 896.0946
710.1863, 888.6102
710.6684, 874.3136
711.1505, 862.5920
711.6326, 854.7092
712.1147, 850.4951
712.5969, 851.5313
713.0790, 855.4822
713.5611, 859.8033
714.0432, 866.2534
714.5253, 869.8698
715.0074, 869.3782
715.4896, 866.4063
715.9717, 863.9769
716.4538, 863.1569
716.9359, 858.2100
717.4180, 845.7260
717.9001, 830.5810
718.3823, 822.7822
718.8644, 822.2611
719.3465, 828.6086
719.8286, 849.1321
720.3107, 871.2927
720.7928, 881.7630
721.2750, 881.8351
721.7571, 877.5460
722.2392, 866.7387
722.7213, 856.4352
723.2034, 851.1320
723.6855, 851.5415
724.1677, 847.9787
724.6498, 835.7803
725.1319, 826.9614
725.6140, 831.2985
726.0961, 849.4363
726.5782, 857.3555
727.0604, 854.3454
727.5425, 846.4304
728.0246, 836.1563
728.5067, 825.8367
728.9888, 820.4189
729.4709, 821.6367
729.9531, 823.7260
730.4352, 822.7706
730.9173, 820.8630
731.3994, 820.2249
731.8815, 823.7446
732.3636, 825.1060
732.8458, 822.4673
733.3279, 818.3832
733.8100, 816.3576
734.2921, 816.4671
734.7742, 818.7433
735.2563, 824.6677
735.7385, 830.4739
736.2206, 824.8983
736.7027, 811.1937
737.1848, 804.8786
737.6669, 820.3964
738.1490, 838.7626
738.6312, 841.4924
739.1133, 832.7333
739.5954, 825.0856
740.0775, 822.0770
740.5596, 821.8752
741.0417, 825.4183
741.5239, 831.9425
742.0060, 835.5286
742.4881, 835.5037
742.9702, 833.9159
743.4523, 830.4498
743.9344, 825.8745
744.4166, 826.9093
744.8987, 833.6018
745.3808, 839.8543
745.8629, 839.0199
746.3450, 836.0136
746.8271, 837.4268
747.3093, 844.0812
747.7914, 851.4216
748.2735, 858.5259
748.7556, 864.8078
749.2377, 870.0359
749.7198, 875.1220
750.2020, 876.8798
750.6841, 874.3494
751.1662, 869.9029
751.6483, 865.5003
752.1304, 861.1779
752.6125, 856.2838
753.0947, 850.0468
753.5768, 846.4487
754.0589, 853.2074
754.5410, 865.6450
755.0231, 873.7360
755.5052, 870.4254
755.9874, 870.7960
756.4695, 889.5692
756.9516, 915.0536
757.4337, 929.9543
757.9158, 922.8387
758.3979, 916.8417
758.8801, 914.1854
759.3622, 913.8491
759.8443, 913.5300
760.3264, 913.1292
760.8085, 914.7001
761.2906, 920.0406
761.7728, 926.2575
762.2549, 926.6649
762.7370, 923.2704
763.2191, 922.8521
763.7012, 933.0001
764.1833, 943.2776
764.6655, 946.3975
765.1476, 943.7498
765.6297, 942.6417
766.1118, 945.4658
766.5939, 948.5604
767.0760, 950.7028
767.5582, 952.1027
768.0403, 954.8906
768.5224, 959.0763
769.0045, 964.0989
769.4866, 970.1812
769.9688, 976.6956
770.4509, 981.7162
770.9330, 985.4206
771.4151, 989.7423
771.8972, 996.8988
772.3793, 1004.410
772.8615, 1011.152
773.3436, 1017.252
773.8257, 1019.745
774.3078, 1014.656
774.7899, 1009.621
775.2720, 1008.568
775.7542, 1011.868
776.2363, 1016.505
776.7184, 1022.723
777.2005, 1029.166
777.6826, 1035.168
778.1647, 1040.358
778.6469, 1044.197
779.1290, 1046.687
779.6111, 1046.934
780.0932, 1041.406
780.5753, 1034.959
781.0574, 1032.613
781.5396, 1038.010
782.0217, 1040.779
782.5038, 1036.494
782.9859, 1032.541
783.4680, 1037.528
783.9501, 1053.772
784.4323, 1061.281
784.9144, 1056.609
785.3965, 1048.713
785.8786, 1050.316
786.3607, 1057.400
786.8428, 1059.566
787.3250, 1052.159
787.8071, 1045.060
788.2892, 1042.921
788.7713, 1045.470
789.2534, 1052.326
789.7355, 1073.556
790.2177, 1084.746
790.6998, 1079.095
791.1819, 1066.938
791.6640, 1066.496
792.1461, 1079.357
792.6282, 1081.764
793.1104, 1065.094
793.5925, 1044.012
794.0746, 1041.092
794.5567, 1050.983
795.0388, 1060.855
795.5209, 1067.091
796.0031, 1070.449
796.4852, 1070.016
796.9672, 1067.183
797.4493, 1064.763
797.9315, 1061.437
798.4136, 1061.259
798.8957, 1065.652
799.3778, 1073.065
799.8599, 1080.441
800.3420, 1087.736
800.8242, 1092.195
801.3063, 1092.376
801.7884, 1089.622
802.2705, 1083.911
802.7526, 1076.792
803.2347, 1072.268
803.7169, 1071.970
804.1990, 1074.867
804.6811, 1081.255
805.1632, 1090.721
805.6453, 1101.713
806.1274, 1116.793
806.6096, 1127.957
807.0917, 1132.762
807.5738, 1132.361
808.0559, 1128.693
808.5380, 1122.283
809.0201, 1118.993
809.5023, 1124.248
809.9844, 1132.424
810.4665, 1137.449
810.9486, 1140.192
811.4307, 1143.900
811.9128, 1151.095
812.3950, 1158.070
812.8771, 1161.960
813.3592, 1164.051
813.8413, 1173.452
814.3234, 1193.607
814.8055, 1208.519
815.2877, 1208.679
815.7698, 1199.850
816.2519, 1198.708
816.7340, 1204.588
817.2161, 1213.580
817.6982, 1227.957
818.1804, 1240.732
818.6625, 1245.308
819.1446, 1242.593
819.6267, 1240.189
820.1088, 1237.481
820.5909, 1238.037
821.0731, 1244.341
821.5552, 1255.285
822.0373, 1260.691
822.5194, 1259.462
823.0015, 1263.895
823.4836, 1287.335
823.9658, 1318.606
824.4479, 1333.810
824.9300, 1335.750
825.4121, 1340.370
825.8942, 1365.432
826.3763, 1387.209
826.8585, 1388.185
827.3406, 1368.416
827.8227, 1362.909
828.3048, 1378.554
828.7869, 1395.652
829.2690, 1404.930
829.7512, 1408.649
830.2333, 1418.836
830.7154, 1435.220
831.1975, 1451.124
831.6796, 1461.716
832.1617, 1470.193
832.6439, 1479.172
833.1260, 1488.832
833.6081, 1499.506
834.0902, 1514.037
834.5723, 1526.688
835.0544, 1533.577
835.5366, 1535.583
836.0187, 1544.671
836.5008, 1562.682
836.9829, 1579.820
837.4650, 1588.005
837.9471, 1592.704
838.4293, 1610.867
838.9114, 1640.069
839.3935, 1665.180
839.8756, 1673.258
840.3577, 1677.874
840.8398, 1687.226
841.3220, 1701.345
841.8041, 1715.155
842.2862, 1725.654
842.7683, 1739.982
843.2504, 1761.974
843.7325, 1789.954
844.2147, 1816.380
844.6968, 1840.903
845.1789, 1859.724
845.6610, 1862.669
846.1431, 1863.901
846.6252, 1884.441
847.1074, 1919.729
847.5895, 1947.140
848.0716, 1949.136
848.5537, 1950.701
849.0358, 1961.847
849.5179, 1980.511
850.0001, 1994.032
850.4822, 1999.460
850.9643, 2014.761
851.4464, 2055.809
851.9285, 2106.772
852.4106, 2126.295
852.8928, 2120.610
853.3749, 2113.247
853.8570, 2106.611
854.3391, 2111.440
854.8212, 2145.322
855.3033, 2199.072
855.7855, 2228.338
856.2676, 2217.150
856.7497, 2207.428
857.2318, 2209.232
857.7139, 2220.273
858.1960, 2234.767
858.6782, 2252.713
859.1603, 2272.681
859.6424, 2295.743
860.1245, 2319.224
860.6066, 2343.265
861.0887, 2365.469
861.5709, 2379.354
862.0530, 2375.982
862.5351, 2372.482
863.0172, 2373.588
863.4993, 2376.779
863.9814, 2375.469
864.4636, 2369.058
864.9457, 2363.830
865.4278, 2361.248
865.9099, 2361.408
866.3920, 2367.464
866.8741, 2376.251
867.3563, 2380.730
867.8384, 2378.053
868.3205, 2370.632
868.8026, 2355.037
869.2847, 2336.612
869.7668, 2324.844
870.2490, 2322.599
870.7311, 2320.359
871.2132, 2317.858
871.6953, 2312.965
872.1774, 2301.728
872.6595, 2285.071
873.1417, 2265.157
873.6238, 2239.138
874.1059, 2218.197
874.5880, 2215.416
875.0701, 2220.718
875.5522, 2221.675
876.0344, 2216.939
876.5165, 2205.431
876.9986, 2184.465
877.4807, 2160.114
877.9628, 2138.748
878.4449, 2120.493
878.9271, 2103.828
879.4092, 2088.091
879.8913, 2077.095
880.3734, 2083.284
880.8555, 2092.233
881.3376, 2084.241
881.8198, 2047.532
882.3019, 2018.500
882.7840, 2007.701
883.2661, 2003.582
883.7482, 2000.101
884.2303, 1998.100
884.7125, 1988.901
885.1946, 1971.795
885.6767, 1951.499
886.1588, 1929.007
886.6409, 1907.822
887.1230, 1894.662
887.6052, 1890.438
888.0873, 1884.818
888.5694, 1870.285
889.0515, 1855.697
889.5336, 1845.412
890.0157, 1839.498
890.4979, 1840.496
890.9800, 1851.521
891.4621, 1855.708
891.9442, 1834.277
892.4263, 1800.177
892.9084, 1785.132
893.3906, 1787.475
893.8727, 1792.637
894.3548, 1797.865
894.8369, 1798.803
895.3190, 1789.907
895.8011, 1772.581
896.2833, 1763.610
896.7654, 1768.880
897.2475, 1766.357
897.7296, 1743.661
898.2117, 1711.570
898.6938, 1700.245
899.1760, 1706.531
899.6581, 1716.490
900.1402, 1730.659
900.6223, 1739.216
901.1044, 1730.176
901.5865, 1711.065
902.0687, 1701.438
902.5508, 1707.740
903.0329, 1714.198
903.5150, 1718.222
903.9971, 1721.364
904.4792, 1724.937
904.9614, 1729.676
905.4435, 1741.863
905.9256, 1767.730
906.4077, 1789.474
906.8898, 1788.448
907.3719, 1775.522
907.8540, 1765.073
908.3361, 1755.537
908.8182, 1757.015
909.3004, 1774.685
909.7825, 1796.922
910.2646, 1809.902
910.7467, 1814.586
911.2288, 1826.069
911.7109, 1846.697
912.1931, 1866.829
912.6752, 1875.608
913.1573, 1880.743
913.6394, 1890.028
914.1215, 1904.797
914.6036, 1923.002
915.0858, 1949.659
915.5679, 1973.134
916.0500, 1984.818
916.5321, 1985.202
917.0142, 1993.995
917.4963, 2011.272
917.9785, 2033.657
918.4606, 2063.843
918.9427, 2094.496
919.4248, 2113.307
919.9069, 2122.476
920.3890, 2142.333
920.8712, 2196.976
921.3533, 2241.530
921.8354, 2256.235
922.3175, 2251.471
922.7996, 2272.784
923.2817, 2320.557
923.7639, 2372.824
924.2460, 2425.113
924.7281, 2472.548
925.2102, 2502.744
925.6923, 2524.871
926.1744, 2558.528
926.6566, 2627.436
927.1387, 2685.618
927.6208, 2715.285
928.1029, 2736.905
928.5850, 2781.516
929.0671, 2850.125
929.5493, 2928.171
930.0314, 3016.093
930.5135, 3103.779
930.9956, 3172.815
931.4777, 3235.395
931.9598, 3306.772
932.4420, 3392.502
932.9241, 3481.833
933.4062, 3562.519
933.8883, 3655.886
934.3704, 3786.375
934.8525, 3959.933
935.3347, 4085.936
935.8168, 4159.198
936.2989, 4247.534
936.7810, 4418.750
937.2631, 4627.760
937.7452, 4815.764
938.2274, 4981.031
938.7095, 5157.891
939.1916, 5356.808
939.6737, 5570.081
940.1558, 5791.518
940.6379, 6022.465
941.1201, 6276.660
941.6022, 6553.220
942.0843, 6851.509
942.5664, 7169.589
943.0485, 7506.139
943.5306, 7853.571
944.0128, 8213.742
944.4949, 8590.715
944.9770, 8989.132
945.4591, 9399.646
945.9412, 9809.262
946.4233, 10234.21
946.9055, 10712.51
947.3876, 11243.56
947.8697, 11778.40
948.3518, 12306.31
948.8339, 12841.33
949.3160, 13389.29
949.7982, 13948.32
950.2803, 14530.06
950.7624, 15153.97
951.2445, 15740.04
951.7266, 16273.88
952.2087, 16775.69
952.6909, 17271.75
953.1730, 17759.62
953.6551, 18158.86
954.1372, 18466.11
954.6193, 18663.16
955.1014, 18722.86
955.5836, 18673.55
956.0657, 18539.74
956.5478, 18320.98
957.0299, 17997.62
957.5120, 17560.55
957.9941, 17034.26
958.4763, 16418.82
958.9584, 15728.23
959.4405, 14991.63
959.9226, 14214.67
960.4047, 13430.83
960.8868, 12646.13
961.3690, 11883.00
961.8511, 11143.19
962.3332, 10437.15
962.8153, 9769.877
963.2974, 9134.956
963.7795, 8550.109
964.2617, 8017.844
964.7438, 7521.350
965.2259, 7057.351
965.7080, 6620.769
966.1901, 6200.243
966.6722, 5797.339
967.1544, 5434.981
967.6365, 5155.277
968.1186, 4905.793
968.6007, 4652.834
969.0828, 4389.082
969.5649, 4157.435
970.0471, 3960.453
970.5292, 3782.583
971.0113, 3616.276
971.4934, 3461.847
971.9755, 3313.012
972.4576, 3173.426
972.9398, 3049.953
973.4219, 2952.018
973.9040, 2863.002
974.3861, 2780.045
974.8682, 2699.243
975.3503, 2610.988
975.8325, 2509.448
976.3146, 2423.494
976.7967, 2359.551
977.2788, 2303.099
977.7609, 2232.966
978.2430, 2157.659
978.7252, 2091.703
979.2073, 2039.147
979.6894, 1990.973
980.1715, 1947.358
980.6536, 1905.645
981.1357, 1864.531
981.6179, 1824.039
982.1000, 1784.437
982.5821, 1745.381
983.0642, 1708.279
983.5463, 1675.433
984.0284, 1644.441
984.5106, 1613.035
984.9927, 1581.286
985.4748, 1549.703
985.9569, 1516.045
986.4390, 1485.864
986.9211, 1460.700
987.4033, 1439.160
987.8854, 1417.900
988.3675, 1397.073
988.8496, 1377.939
989.3317, 1360.932
989.8138, 1345.312
990.2960, 1330.651
990.7781, 1316.837
991.2602, 1303.921
991.7423, 1290.943
992.2244, 1281.777
992.7065, 1278.300
993.1887, 1274.291
993.6708, 1262.144
994.1529, 1245.906
994.6350, 1241.363
995.1171, 1247.062
995.5992, 1249.500
996.0814, 1237.666
996.5635, 1223.866
997.0456, 1213.377
997.5277, 1206.065
998.0098, 1201.826
998.4919, 1201.490
998.9741, 1199.745
999.4562, 1195.260
999.9383, 1188.692
1000.420, 1179.323
1000.903, 1169.018
1001.385, 1161.639
1001.867, 1161.909
1002.349, 1156.434
1002.831, 1136.608
1003.313, 1115.132
1003.795, 1101.300
1004.277, 1095.159
1004.759, 1091.901
1005.242, 1091.516
1005.724, 1088.908
1006.206, 1077.903
1006.688, 1064.935
1007.170, 1055.823
1007.652, 1050.237
1008.134, 1043.383
1008.616, 1031.615
1009.099, 1024.418
1009.581, 1024.609
1010.063, 1029.799
1010.545, 1038.075
1011.027, 1047.376
1011.509, 1049.288
1011.991, 1038.109
1012.473, 1028.174
1012.955, 1029.393
1013.438, 1034.516
1013.920, 1036.189
1014.402, 1033.190
1014.884, 1031.995
1015.366, 1032.890
1015.848, 1033.962
1016.330, 1032.009
1016.812, 1030.263
1017.294, 1035.662
1017.777, 1046.703
1018.259, 1054.580
1018.741, 1054.910
1019.223, 1053.000
1019.705, 1048.854
1020.187, 1044.453
1020.669, 1044.224
1021.151, 1048.018
1021.633, 1055.017
1022.116, 1066.343
1022.598, 1076.076
1023.080, 1075.591
1023.562, 1072.652
1024.044, 1075.917
1024.526, 1088.961
1025.008, 1101.207
1025.490, 1113.960
1025.973, 1122.674
1026.455, 1120.938
1026.937, 1113.667
1027.419, 1114.829
1027.901, 1123.084
1028.383, 1131.244
1028.865, 1134.660
1029.347, 1139.024
1029.829, 1149.107
1030.312, 1160.344
1030.794, 1163.646
1031.276, 1158.461
1031.758, 1155.207
1032.240, 1155.883
1032.722, 1158.293
1033.204, 1161.219
1033.686, 1164.017
1034.169, 1166.017
1034.651, 1167.057
1035.133, 1166.830
1035.615, 1162.306
1036.097, 1162.323
1036.579, 1173.900
1037.061, 1192.483
1037.543, 1200.438
1038.026, 1200.177
1038.508, 1201.989
1038.990, 1212.839
1039.472, 1224.825
1039.954, 1231.025
1040.436, 1238.094
1040.918, 1258.789
1041.400, 1297.551
1041.882, 1319.804
1042.365, 1319.929
1042.847, 1320.081
1043.329, 1345.165
1043.811, 1381.553
1044.293, 1412.099
1044.775, 1435.273
1045.257, 1463.397
1045.739, 1503.630
1046.221, 1540.446
1046.704, 1565.146
1047.186, 1584.938
1047.668, 1621.528
1048.150, 1672.685
1048.632, 1727.479
1049.114, 1779.837
1049.596, 1838.917
1050.078, 1915.838
1050.561, 1998.690
1051.043, 2073.257
1051.525, 2135.943
1052.007, 2205.865
1052.489, 2283.617
1052.971, 2364.832
1053.453, 2442.190
1053.935, 2523.730
1054.417, 2622.220
1054.900, 2734.531
1055.382, 2843.522
1055.864, 2947.610
1056.346, 3042.479
1056.828, 3127.263
1057.310, 3202.306
1057.792, 3271.597
1058.274, 3333.027
1058.756, 3384.143
1059.239, 3428.032
1059.721, 3443.738
1060.203, 3412.771
1060.685, 3352.950
1061.167, 3277.784
1061.649, 3187.451
1062.131, 3079.153
1062.613, 2951.412
1063.096, 2815.890
1063.578, 2675.463
1064.060, 2533.232
1064.542, 2393.722
1065.024, 2255.847
1065.506, 2120.713
1065.988, 1976.380
1066.470, 1853.063
1066.953, 1755.554
1067.435, 1671.172
1067.917, 1587.453
1068.399, 1505.498
1068.881, 1430.048
1069.363, 1361.825
1069.845, 1302.397
1070.327, 1256.807
1070.809, 1217.215
1071.292, 1179.615
1071.774, 1144.936
1072.256, 1117.636
1072.738, 1097.849
1073.220, 1074.083
1073.702, 1041.130
1074.184, 1008.659
1074.666, 988.2156
1075.148, 973.0276
1075.630, 955.4268
1076.113, 932.5435
1076.595, 912.5053
1077.077, 895.8011
1077.559, 880.2885
1078.041, 862.2693
1078.523, 845.7134
1079.005, 843.2822
1079.487, 850.3129
1079.970, 850.6561
1080.452, 827.9589
1080.934, 811.0670
1081.416, 808.1616
1081.898, 810.8043
1082.380, 808.1141
1082.862, 800.5829
1083.344, 791.6740
1083.827, 781.7191
1084.309, 774.0722
1084.791, 773.8702
1085.273, 774.6675
1085.755, 771.6827
1086.237, 765.3676
1086.719, 759.4950
1087.201, 754.0161
1087.683, 749.5983
1088.166, 746.8419
1088.648, 744.6007
1089.130, 741.9308
1089.612, 738.6380
1090.094, 734.2405
1090.576, 727.8035
1091.058, 722.8936
1091.540, 720.7429
1092.022, 717.9901
1092.505, 710.8181
1092.987, 701.7563
1093.469, 700.3279
1093.951, 704.6807
1094.433, 707.3118
1094.915, 703.3934
1095.397, 698.7207
1095.879, 693.5751
1096.362, 689.6791
1096.844, 690.5146
1097.326, 695.7670
1097.808, 696.3376
1098.290, 691.2391
1098.772, 687.3081
1099.254, 693.0369
1099.736, 699.1011
1100.219, 697.6500
1100.701, 689.6068
1101.183, 684.3349
1101.665, 682.3659
1102.147, 679.9806
1102.629, 675.6464
1103.111, 672.1057
1103.593, 674.7150
1104.075, 679.5953
1104.557, 681.3790
1105.040, 678.5022
1105.522, 673.7807
1106.004, 664.3979
1106.486, 659.8218
1106.968, 669.3398
1107.450, 684.8173
1107.932, 680.0291
1108.414, 661.2202
1108.897, 648.0186
1109.379, 656.4411
1109.861, 661.8866
1110.343, 656.0408
1110.825, 646.6184
1111.307, 639.6880
1111.789, 635.3818
1112.271, 636.1653
1112.754, 641.9835
1113.236, 647.5554
1113.718, 650.1566
1114.200, 650.7218
1114.682, 649.0267
1115.164, 645.7899
1115.646, 643.5479
1116.128, 642.8580
1116.610, 637.8764
1117.093, 626.5009
1117.575, 615.6528
1118.057, 611.5609
1118.539, 612.3612
1119.021, 618.5894
1119.503, 630.9353
1119.985, 633.0186
1120.467, 620.1071
1120.949, 609.5110
1121.432, 608.7985
1121.914, 611.9050
1122.396, 606.5084
1122.878, 597.1938
1123.360, 592.7435
1123.842, 596.0334
1124.324, 603.8297
1124.806, 618.8806
1125.289, 632.5063
1125.771, 638.8552
1126.253, 638.9932
1126.735, 635.3641
1127.217, 629.2427
1127.699, 626.5431
1128.181, 636.3325
1128.663, 642.5781
1129.146, 637.5199
1129.628, 627.5554
1130.110, 619.3810
1130.592, 612.9056
1131.074, 605.6548
1131.556, 597.5710
1132.038, 592.9052
1132.520, 597.8279
1133.002, 604.3044
1133.484, 607.5462
1133.967, 607.9594
1134.449, 607.1696
1134.931, 605.0104
1135.413, 603.0655
1135.895, 601.4680
1136.377, 601.0793
1136.859, 604.0159
1137.341, 607.8019
1137.824, 609.1135
1138.306, 607.3329
1138.788, 609.6609
1139.270, 617.8105
1139.752, 623.6916
1140.234, 623.1757
1140.716, 620.6979
1141.198, 624.0522
1141.681, 630.1295
1142.163, 634.1497
1142.645, 636.7169
1143.127, 630.7916
1143.609, 610.2033
1144.091, 593.7771
1144.573, 595.9946
1145.055, 609.5741
1145.537, 616.4706
1146.020, 617.4965
1146.502, 614.8853
1146.984, 601.4927
1147.466, 596.4608
1147.948, 607.7865
1148.430, 621.9179
1148.912, 624.2986
1149.394, 617.4417
1149.876, 615.4610
1150.359, 618.4875
1150.841, 622.3782
1151.323, 624.5598
1151.805, 627.4415
1152.287, 633.1960
1152.769, 639.4381
1153.251, 642.0892
1153.733, 641.2965
1154.216, 639.8373
1154.698, 638.0322
1155.180, 636.2185
1155.662, 632.8779
1156.144, 631.2325
1156.626, 636.1460
1157.108, 644.7337
1157.590, 645.9806
1158.073, 639.6870
1158.555, 631.1608
1159.037, 620.9227
1159.519, 612.0250
1160.001, 604.8058
1160.483, 602.1025
1160.965, 609.2952
1161.447, 626.8097
1161.929, 636.6870
1162.411, 638.0757
1162.894, 638.2177
1163.376, 640.3650
1163.858, 642.3305
1164.340, 641.6673
1164.822, 639.0389
1165.304, 634.9142
1165.786, 627.5298
1166.268, 625.5010
1166.751, 630.6563
1167.233, 634.0511
1167.715, 627.6998
1168.197, 617.7910
1168.679, 613.4880
1169.161, 613.4812
1169.643, 614.7868
1170.125, 617.3478
1170.608, 620.7322
1171.090, 626.3785
1171.572, 629.0532
1172.054, 618.9508
1172.536, 604.6882
1173.018, 605.6735
1173.500, 618.8639
1173.982, 627.9249
1174.464, 622.6255
1174.947, 619.6957
1175.429, 622.8853
1175.911, 626.2897
1176.393, 620.0515
1176.875, 608.6906
1177.357, 602.6200
1177.839, 602.7488
1178.321, 606.9904
1178.803, 621.6838
1179.286, 630.5178
1179.768, 626.2593
1180.250, 617.5927
1180.732, 623.1465
1181.214, 637.6078
1181.696, 644.5898
1182.178, 640.6706
1182.660, 634.9849
1183.142, 628.7690
1183.625, 625.3029
1184.107, 627.7086
1184.589, 632.5312
1185.071, 626.3711
1185.553, 613.0788
1186.035, 610.2768
1186.517, 627.4218
1186.999, 638.1688
1187.482, 621.9957
1187.964, 603.7275
1188.446, 597.6801
1188.928, 601.7578
1189.410, 605.5221
1189.892, 608.6830
1190.374, 609.2617
1190.856, 604.8794
1191.339, 600.9608
1191.821, 600.6829
1192.303, 601.5647
1192.785, 601.6392
1193.267, 600.9665
1193.749, 601.7286
1194.231, 603.5439
1194.713, 603.2380
1195.195, 593.4904
1195.677, 587.8635
1196.160, 599.1579
1196.642, 614.0161
1197.124, 617.5042
1197.606, 609.3497
1198.088, 599.1620
1198.570, 587.6076
1199.052, 583.1470
1199.534, 601.1943
1200.017, 617.0773
1200.499, 613.5668
1200.981, 600.7716
1201.463, 593.2082
1201.945, 590.8458
1202.427, 594.8118
1202.909, 605.1290
1203.391, 612.5012
1203.874, 605.3609
1204.356, 597.8307
1204.838, 599.4501
1205.320, 607.0406
1205.802, 615.6530
1206.284, 625.3440
1206.766, 625.8977
1207.248, 615.4460
1207.730, 604.0322
1208.213, 596.9880
1208.695, 594.0596
1209.177, 597.2720
1209.659, 604.0616
1210.141, 608.4946
1210.623, 610.5565
1211.105, 605.8116
1211.587, 592.1758
1212.069, 580.6036
1212.552, 581.8757
1213.034, 587.6012
1213.516, 592.0193
1213.998, 595.3380
1214.480, 600.8220
1214.962, 608.4587
1215.444, 609.3750
1215.926, 599.5038
1216.409, 590.1042
1216.891, 592.0591
1217.373, 596.9694
1217.855, 597.8652
1218.337, 595.1730
1218.819, 593.4065
1219.301, 592.5554
1219.783, 592.4279
1220.266, 593.4213
1220.748, 593.7682
1221.230, 590.1182
1221.712, 586.8164
1222.194, 588.1163
1222.676, 593.7396
1223.158, 598.6753
1223.640, 602.8431
1224.122, 604.6595
1224.604, 602.7233
1225.087, 599.6814
1225.569, 594.8246
1226.051, 591.8437
1226.533, 595.4424
1227.015, 605.6074
1227.497, 607.6277
1227.979, 602.1177
1228.461, 597.8871
1228.944, 601.7720
1229.426, 604.6090
1229.908, 597.5243
1230.390, 589.1311
1230.872, 589.3250
1231.354, 598.4037
1231.836, 600.1835
1232.318, 595.2754
1232.801, 591.1155
1233.283, 590.5439
1233.765, 593.3410
1234.247, 605.7794
1234.729, 616.8467
1235.211, 611.9024
1235.693, 591.7125
1236.175, 584.4999
1236.657, 589.8310
1237.140, 597.9402
1237.622, 607.5008
1238.104, 613.3367
1238.586, 611.3672
1239.068, 606.0091
1239.550, 601.7648
1240.032, 598.3497
1240.514, 591.1942
1240.996, 581.0507
1241.479, 576.8658
1241.961, 592.5771
1242.443, 603.7169
1242.925, 599.4791
1243.407, 589.0919
1243.889, 583.8253
1244.371, 582.4709
1244.853, 576.6549
1245.336, 567.2012
1245.818, 565.9186
1246.300, 589.2097
1246.782, 607.9232
1247.264, 613.8892
1247.746, 612.4907
1248.228, 609.4754
1248.710, 605.4017
1249.193, 602.2974
1249.675, 600.1794
1250.157, 597.7694
1250.639, 591.0305
1251.121, 589.5928
1251.603, 597.7725
1252.085, 608.1581
1252.567, 608.8372
1253.049, 603.9900
1253.531, 604.1144
1254.014, 609.5041
1254.496, 609.5622
1254.978, 594.4848
1255.460, 584.3757
1255.942, 583.2886
1256.424, 588.0795
1256.906, 599.3137
1257.388, 611.1216
1257.871, 611.2023
1258.353, 599.0870
1258.835, 591.7753
1259.317, 593.8821
1259.799, 595.6647
1260.281, 595.2225
1260.763, 593.3586
1261.245, 591.1040
1261.728, 588.1096
1262.210, 582.0403
1262.692, 573.3071
1263.174, 573.4430
1263.656, 586.1953
1264.138, 593.4930
1264.620, 590.1636
1265.102, 584.0838
1265.584, 584.7066
1266.067, 587.1172
1266.549, 584.4173
1267.031, 577.1011
1267.513, 578.3214
1267.995, 589.6906
1268.477, 595.7356
1268.959, 591.6704
1269.441, 586.4092
1269.923, 590.4846
1270.406, 595.5825
1270.888, 592.3300
1271.370, 583.0403
1271.852, 579.8670
1272.334, 582.7397
1272.816, 589.0760
1273.298, 598.8388
1273.780, 608.9149
1274.263, 624.5610
1274.745, 631.1340
1275.227, 614.0604
1275.709, 582.6178
##END=



