##NAMES=Bariopharmacosiderite
##RRUFFID=R060571
##IDEAL CHEMISTRY=Ba_0.5_Fe^3+^_4_(As^5+^O_4_)_3_(OH)_4_&#183;5H_2_O
##LOCALITY=Barrus mine, Pyramid District, Washoe County, Nevada, USA
##OWNER=RRUFF
##SOURCE=Michael Scott
##DESCRIPTION=Colorless transparent distorted cubes.
##STATUS=The identification of this mineral has been confirmed only by single crystal X-ray diffraction.
##URL=rruff.info/R060571
153.347, 1794.813
153.829, 1568.402
154.311, 1481.654
154.793, 1509.020
155.276, 1531.218
155.758, 1550.439
156.240, 1560.404
156.722, 1555.835
157.204, 1542.274
157.686, 1527.886
158.168, 1517.929
158.650, 1511.501
159.133, 1501.523
159.615, 1476.750
160.097, 1460.753
160.579, 1464.432
161.061, 1480.025
161.543, 1493.318
162.025, 1493.508
162.507, 1482.050
162.989, 1482.786
163.472, 1511.468
163.954, 1537.548
164.436, 1558.394
164.918, 1571.380
165.400, 1570.003
165.882, 1545.314
166.364, 1498.535
166.846, 1492.138
167.329, 1579.845
167.811, 1653.931
168.293, 1677.538
168.775, 1663.986
169.257, 1647.062
169.739, 1652.599
170.221, 1680.940
170.703, 1696.130
171.185, 1683.992
171.667, 1674.008
172.150, 1675.728
172.632, 1687.280
173.114, 1702.943
173.596, 1719.499
174.078, 1737.240
174.560, 1744.323
175.042, 1732.978
175.525, 1720.296
176.007, 1710.738
176.489, 1704.722
176.971, 1700.821
177.453, 1697.059
177.935, 1692.973
178.417, 1703.974
178.899, 1755.231
179.381, 1794.372
179.863, 1792.912
180.346, 1760.608
180.828, 1727.038
181.310, 1714.390
181.792, 1723.156
182.274, 1736.362
182.756, 1762.961
183.238, 1784.454
183.721, 1791.917
184.203, 1787.439
184.685, 1777.494
185.167, 1765.625
185.649, 1751.692
186.131, 1748.395
186.613, 1754.835
187.095, 1769.890
187.577, 1798.906
188.059, 1837.322
188.542, 1873.338
189.024, 1899.335
189.506, 1915.079
189.988, 1922.400
190.470, 1913.211
190.952, 1905.425
191.434, 1913.595
191.917, 1930.753
192.399, 1933.399
192.881, 1900.417
193.363, 1835.182
193.845, 1814.248
194.327, 1876.866
194.809, 1934.444
195.291, 1947.279
195.773, 1925.660
196.255, 1901.039
196.738, 1893.179
197.220, 1901.003
197.702, 1909.351
198.184, 1918.872
198.666, 1928.176
199.148, 1936.866
199.630, 1944.958
200.112, 1953.419
200.595, 1963.727
201.077, 1974.609
201.559, 1974.286
202.041, 1950.164
202.523, 1930.949
203.005, 1929.967
203.487, 1941.095
203.969, 1951.320
204.452, 1953.963
204.934, 1949.275
205.416, 1937.615
205.898, 1911.724
206.380, 1888.363
206.862, 1870.260
207.344, 1857.977
207.826, 1853.679
208.308, 1859.380
208.791, 1872.139
209.273, 1879.940
209.755, 1885.947
210.237, 1884.349
210.719, 1864.936
211.201, 1838.318
211.683, 1823.581
212.165, 1830.672
212.648, 1851.076
213.130, 1858.991
213.612, 1845.751
214.094, 1831.816
214.576, 1816.691
215.058, 1803.447
215.540, 1797.484
216.022, 1801.248
216.504, 1811.005
216.986, 1818.044
217.469, 1820.679
217.951, 1823.057
218.433, 1823.374
218.915, 1799.080
219.397, 1834.370
219.879, 1855.196
220.361, 1862.337
220.844, 1814.799
221.326, 1837.867
221.808, 1832.639
222.290, 1826.251
222.772, 1859.255
223.254, 1819.671
223.736, 1852.051
224.218, 1855.704
224.700, 1872.505
225.182, 1860.835
225.665, 1857.960
226.147, 1883.563
226.629, 1893.397
227.111, 1878.450
227.593, 1896.087
228.075, 1855.507
228.557, 1870.745
229.040, 1845.194
229.522, 1882.240
230.004, 1904.090
230.486, 1911.563
230.968, 1861.592
231.450, 1885.798
231.932, 1880.277
232.414, 1873.537
232.896, 1908.182
233.378, 1866.566
233.861, 1900.555
234.343, 1904.365
234.825, 1921.987
235.307, 1909.698
235.789, 1906.648
236.271, 1933.517
236.753, 1943.820
237.236, 1928.089
237.718, 1946.589
238.200, 1903.928
238.682, 1914.937
239.164, 1949.101
239.646, 1924.589
240.128, 1918.322
240.610, 1918.810
241.092, 1917.528
241.574, 1906.620
242.057, 1902.392
242.539, 1915.925
243.021, 1937.776
243.503, 1951.758
243.985, 1947.850
244.467, 1930.077
244.949, 1917.746
245.432, 1912.846
245.914, 1911.839
246.396, 1913.600
246.878, 1919.132
247.360, 1931.391
247.842, 1951.857
248.324, 1976.065
248.806, 1992.146
249.288, 2000.059
249.770, 1998.551
250.253, 1971.722
250.735, 1944.948
251.217, 1946.654
251.699, 1984.963
252.181, 2035.113
252.663, 2052.283
253.145, 2015.036
253.627, 1996.084
254.110, 2018.571
254.592, 2046.839
255.074, 2056.782
255.556, 2044.783
256.038, 2024.817
256.520, 2011.021
257.002, 2002.647
257.484, 2004.315
257.966, 2030.931
258.449, 2056.197
258.931, 2064.624
259.413, 2058.417
259.895, 2052.965
260.377, 2066.135
260.859, 2098.240
261.341, 2115.127
261.823, 2104.637
262.306, 2091.741
262.788, 2085.713
263.270, 2086.187
263.752, 2090.938
264.234, 2099.655
264.716, 2111.596
265.198, 2124.607
265.680, 2142.741
266.163, 2154.134
266.645, 2144.992
267.127, 2127.780
267.609, 2123.160
268.091, 2145.028
268.573, 2179.203
269.055, 2199.734
269.537, 2204.424
270.019, 2204.468
270.501, 2204.225
270.984, 2202.197
271.466, 2195.196
271.948, 2179.775
272.430, 2165.201
272.912, 2165.742
273.394, 2181.488
273.876, 2186.706
274.358, 2161.914
274.841, 2130.110
275.323, 2121.814
275.805, 2142.624
276.287, 2166.985
276.769, 2179.883
277.251, 2183.086
277.733, 2182.757
278.215, 2179.647
278.698, 2174.611
279.180, 2169.495
279.662, 2164.624
280.144, 2150.999
280.626, 2157.803
281.108, 2159.648
281.590, 2156.801
282.072, 2135.205
282.555, 2137.818
283.037, 2130.730
283.519, 2123.244
284.001, 2098.280
284.483, 2121.904
284.965, 2133.734
285.447, 2134.403
285.929, 2090.483
286.411, 2104.141
286.893, 2094.724
287.376, 2084.361
287.858, 2106.122
288.340, 2068.688
288.822, 2086.789
289.304, 2085.014
289.786, 2098.163
290.268, 2102.857
290.750, 2085.115
291.233, 2053.310
291.715, 2039.581
292.197, 2057.575
292.679, 2075.363
293.161, 2084.991
293.643, 2093.367
294.125, 2109.735
294.607, 2137.268
295.090, 2171.100
295.572, 2203.022
296.054, 2234.794
296.536, 2260.430
297.018, 2274.799
297.500, 2286.964
297.982, 2304.779
298.464, 2328.413
298.946, 2350.512
299.429, 2361.153
299.911, 2355.464
300.393, 2364.868
300.875, 2402.278
301.357, 2441.820
301.839, 2470.560
302.321, 2493.251
302.803, 2525.116
303.285, 2580.719
303.768, 2654.298
304.250, 2703.623
304.732, 2709.284
305.214, 2717.013
305.696, 2739.176
306.178, 2770.280
306.660, 2804.376
307.142, 2839.671
307.625, 2873.805
308.107, 2901.846
308.589, 2921.667
309.071, 2942.519
309.553, 2970.906
310.035, 2999.009
310.517, 3022.519
310.999, 3040.906
311.482, 3050.319
311.964, 3047.434
312.446, 3032.381
312.928, 3004.705
313.410, 2952.313
313.892, 2902.865
314.374, 2885.533
314.856, 2895.693
315.338, 2898.437
315.820, 2876.876
316.303, 2837.478
316.785, 2787.396
317.267, 2724.052
317.749, 2667.233
318.231, 2639.274
318.713, 2631.851
319.195, 2613.126
319.677, 2572.666
320.160, 2524.824
320.642, 2479.130
321.124, 2435.532
321.606, 2390.854
322.088, 2341.698
322.570, 2292.125
323.052, 2256.614
323.534, 2247.921
324.017, 2231.950
324.499, 2190.046
324.981, 2137.535
325.463, 2097.856
325.945, 2078.392
326.427, 2069.809
326.909, 2057.993
327.391, 2041.516
327.874, 2024.627
328.356, 2000.336
328.838, 1980.731
329.320, 1978.191
329.802, 1990.761
330.284, 2004.035
330.766, 2004.426
331.248, 1991.037
331.730, 1984.131
332.212, 1989.804
332.695, 1995.556
333.177, 2000.613
333.659, 2003.099
334.141, 1999.967
334.623, 1989.287
335.105, 1973.431
335.587, 1959.709
336.069, 1951.892
336.552, 1938.274
337.034, 1908.882
337.516, 1878.236
337.998, 1857.729
338.480, 1850.023
338.962, 1850.839
339.444, 1858.493
339.926, 1873.273
340.409, 1883.582
340.891, 1886.683
341.373, 1886.169
341.855, 1885.870
342.337, 1884.907
342.819, 1879.234
343.301, 1860.553
343.783, 1837.145
344.265, 1828.833
344.748, 1839.363
345.230, 1847.884
345.712, 1838.132
346.194, 1817.195
346.676, 1802.140
347.158, 1798.986
347.640, 1797.421
348.122, 1785.561
348.604, 1768.265
349.087, 1766.199
349.569, 1792.085
350.051, 1828.445
350.533, 1837.252
351.015, 1806.472
351.497, 1785.070
351.979, 1786.653
352.461, 1798.539
352.944, 1810.782
353.426, 1820.506
353.908, 1823.279
354.390, 1812.547
354.872, 1784.503
355.354, 1770.806
355.836, 1782.181
356.318, 1794.035
356.801, 1793.369
357.283, 1785.857
357.765, 1785.721
358.247, 1802.205
358.729, 1828.316
359.211, 1838.439
359.693, 1816.649
360.175, 1805.550
360.657, 1823.761
361.140, 1845.988
361.622, 1847.184
362.104, 1822.771
362.586, 1793.593
363.068, 1784.649
363.550, 1797.319
364.032, 1806.227
364.514, 1807.637
364.996, 1806.883
365.479, 1805.285
365.961, 1803.942
366.443, 1806.101
366.925, 1816.896
367.407, 1830.795
367.889, 1837.644
368.371, 1836.848
368.853, 1833.021
369.336, 1824.839
369.818, 1816.722
370.300, 1818.294
370.782, 1837.338
371.264, 1852.546
371.746, 1846.502
372.228, 1828.321
372.710, 1819.926
373.193, 1828.447
373.675, 1844.150
374.157, 1853.410
374.639, 1853.211
375.121, 1857.804
375.603, 1876.109
376.085, 1848.899
376.567, 1879.190
377.049, 1895.523
377.531, 1898.648
378.014, 1849.007
378.496, 1867.503
378.978, 1858.692
379.460, 1848.762
379.942, 1876.848
380.424, 1834.882
380.906, 1862.364
381.388, 1862.124
381.871, 1874.572
382.353, 1859.545
382.835, 1853.005
383.317, 1873.948
383.799, 1879.672
384.281, 1861.483
384.763, 1874.737
385.245, 1831.812
385.728, 1838.185
386.210, 1865.828
386.692, 1849.020
387.174, 1837.985
387.656, 1840.127
388.138, 1863.324
388.620, 1879.410
389.102, 1868.047
389.584, 1842.308
390.067, 1823.095
390.549, 1811.518
391.031, 1808.412
391.513, 1819.425
391.995, 1839.381
392.477, 1855.081
392.959, 1862.933
393.441, 1865.421
393.923, 1864.073
394.406, 1856.778
394.888, 1856.548
395.370, 1876.071
395.852, 1892.873
396.334, 1883.772
396.816, 1856.281
397.298, 1841.132
397.780, 1861.161
398.263, 1906.448
398.745, 1924.394
399.227, 1878.289
399.709, 1851.806
400.191, 1866.518
400.673, 1896.548
401.155, 1920.032
401.637, 1930.847
402.120, 1933.010
402.602, 1929.817
403.084, 1920.793
403.566, 1911.519
404.048, 1898.548
404.530, 1890.110
405.012, 1888.988
405.494, 1895.079
405.976, 1908.741
406.459, 1935.458
406.941, 1964.540
407.423, 1980.611
407.905, 1983.677
408.387, 1981.200
408.869, 1973.736
409.351, 1964.288
409.833, 1956.921
410.315, 1950.402
410.798, 1950.035
411.280, 1960.092
411.762, 1976.222
412.244, 1996.400
412.726, 2019.378
413.208, 2035.023
413.690, 2031.961
414.172, 2009.580
414.655, 1999.593
415.137, 2008.545
415.619, 2020.206
416.101, 2032.908
416.583, 2044.208
417.065, 2050.347
417.547, 2049.822
418.029, 2046.359
418.512, 2047.352
418.994, 2056.123
419.476, 2059.100
419.958, 2045.568
420.440, 2034.608
420.922, 2038.668
421.404, 2054.388
421.886, 2068.166
422.368, 2069.525
422.850, 2064.048
423.333, 2065.403
423.815, 2074.917
424.297, 2084.725
424.779, 2092.225
425.261, 2097.512
425.743, 2101.714
426.225, 2106.287
426.707, 2105.328
427.190, 2091.021
427.672, 2070.635
428.154, 2055.148
428.636, 2046.616
429.118, 2046.538
429.600, 2058.921
430.082, 2085.285
430.564, 2098.716
431.047, 2084.234
431.529, 2074.543
432.011, 2085.555
432.493, 2109.201
432.975, 2134.157
433.457, 2155.531
433.939, 2169.199
434.421, 2164.495
434.903, 2131.724
435.386, 2107.397
435.868, 2092.971
436.350, 2087.742
436.832, 2098.089
437.314, 2118.893
437.796, 2133.970
438.278, 2129.551
438.760, 2114.876
439.242, 2111.888
439.725, 2122.383
440.207, 2134.261
440.689, 2145.923
441.171, 2153.715
441.653, 2149.547
442.135, 2126.959
442.617, 2115.256
443.099, 2137.480
443.582, 2174.302
444.064, 2197.483
444.546, 2202.850
445.028, 2201.132
445.510, 2200.507
445.992, 2200.979
446.474, 2205.024
446.956, 2219.179
447.439, 2228.787
447.921, 2226.312
448.403, 2218.338
448.885, 2212.490
449.367, 2211.568
449.849, 2215.105
450.331, 2222.895
450.813, 2235.416
451.295, 2249.970
451.778, 2273.777
452.260, 2291.370
452.742, 2290.043
453.224, 2277.554
453.706, 2271.919
454.188, 2282.916
454.670, 2301.791
455.152, 2320.181
455.634, 2337.694
456.117, 2344.987
456.599, 2333.563
457.081, 2317.851
457.563, 2322.050
458.045, 2347.954
458.527, 2370.688
459.009, 2382.550
459.491, 2391.417
459.974, 2402.225
460.456, 2415.955
460.938, 2433.545
461.420, 2455.326
461.902, 2481.647
462.384, 2514.801
462.866, 2573.348
463.348, 2610.491
463.831, 2603.288
464.313, 2588.655
464.795, 2595.339
465.277, 2626.034
465.759, 2664.514
466.241, 2699.548
466.723, 2730.849
467.205, 2754.700
467.687, 2766.508
468.169, 2783.350
468.652, 2816.545
469.134, 2858.768
469.616, 2901.565
470.098, 2946.318
470.580, 2985.466
471.062, 3001.690
471.544, 3012.690
472.026, 3060.501
472.509, 3153.218
472.991, 3243.691
473.473, 3283.403
473.955, 3270.483
474.437, 3289.555
474.919, 3306.830
475.401, 3336.806
475.883, 3445.550
476.366, 3535.176
476.848, 3606.705
477.330, 3605.954
477.812, 3698.551
478.294, 3753.734
478.776, 3827.433
479.258, 3867.917
479.740, 3903.806
480.222, 3951.993
480.705, 4033.109
481.187, 4129.231
481.669, 4204.354
482.151, 4237.833
482.633, 4262.122
483.115, 4309.820
483.597, 4376.170
484.079, 4441.943
484.561, 4502.742
485.044, 4557.504
485.526, 4602.685
486.008, 4635.919
486.490, 4675.236
486.972, 4732.218
487.454, 4783.989
487.936, 4812.186
488.418, 4827.138
488.901, 4850.770
489.383, 4893.224
489.865, 4944.111
490.347, 4983.322
490.829, 5006.826
491.311, 5031.856
491.793, 5077.052
492.275, 5106.710
492.758, 5097.178
493.240, 5057.731
493.722, 5013.257
494.204, 4969.753
494.686, 4933.732
495.168, 4923.924
495.650, 4936.336
496.132, 4926.037
496.614, 4871.385
497.097, 4801.035
497.579, 4757.948
498.061, 4748.319
498.543, 4724.704
499.025, 4671.687
499.507, 4613.478
499.989, 4565.740
500.471, 4525.894
500.953, 4485.119
501.436, 4438.750
501.918, 4388.112
502.400, 4335.701
502.882, 4280.732
503.364, 4226.042
503.846, 4164.429
504.328, 4109.141
504.810, 4074.286
505.293, 4052.688
505.775, 4021.765
506.257, 3965.226
506.739, 3898.462
507.221, 3843.858
507.703, 3800.401
508.185, 3756.738
508.667, 3707.695
509.150, 3659.473
509.632, 3623.542
510.114, 3603.510
510.596, 3575.150
511.078, 3521.219
511.560, 3472.065
512.042, 3456.622
512.524, 3461.478
513.006, 3450.464
513.489, 3404.572
513.971, 3342.984
514.453, 3308.272
514.935, 3312.790
515.417, 3305.371
515.899, 3270.986
516.381, 3233.708
516.863, 3202.594
517.346, 3178.206
517.828, 3160.902
518.310, 3156.708
518.792, 3152.717
519.274, 3128.872
519.756, 3089.295
520.238, 3059.250
520.720, 3047.034
521.202, 3045.696
521.685, 3047.312
522.167, 3052.698
522.649, 3057.531
523.131, 3053.578
523.613, 3057.333
524.095, 3059.197
524.577, 3075.323
525.059, 3087.987
525.541, 3097.374
526.024, 3093.675
526.506, 3106.645
526.988, 3142.661
527.470, 3175.789
527.952, 3210.202
528.434, 3232.469
528.916, 3232.047
529.398, 3215.723
529.880, 3197.918
530.363, 3183.729
530.845, 3167.424
531.327, 3145.290
531.809, 3117.746
532.291, 3089.296
532.773, 3061.592
533.255, 3017.886
533.737, 2934.272
534.219, 2806.123
534.702, 2716.861
535.184, 2690.778
535.666, 2671.744
536.148, 2643.625
536.630, 2616.284
537.112, 2604.400
537.594, 2610.970
538.076, 2621.336
538.559, 2618.964
539.041, 2605.765
539.523, 2598.059
540.005, 2599.964
540.487, 2596.005
540.969, 2574.877
541.451, 2542.863
541.933, 2510.353
542.416, 2467.784
542.898, 2439.166
543.380, 2449.289
543.862, 2450.010
544.344, 2441.829
544.826, 2398.102
545.308, 2400.278
545.790, 2384.059
546.273, 2367.084
546.755, 2365.594
547.237, 2344.875
547.719, 2357.911
548.201, 2362.753
548.683, 2359.842
549.165, 2325.957
549.647, 2332.069
550.130, 2322.151
550.612, 2311.577
551.094, 2323.318
551.576, 2293.938
552.058, 2305.325
552.540, 2300.439
553.022, 2291.780
553.504, 2246.031
553.986, 2225.369
554.469, 2241.532
554.951, 2245.922
555.433, 2234.593
555.915, 2215.460
556.397, 2183.693
556.879, 2149.006
557.361, 2129.709
557.843, 2133.929
558.325, 2147.372
558.808, 2147.536
559.290, 2133.775
559.772, 2126.127
560.254, 2131.070
560.736, 2133.968
561.218, 2119.018
561.700, 2095.297
562.182, 2083.672
562.664, 2099.358
563.147, 2107.548
563.629, 2082.212
564.111, 2042.002
564.593, 2012.552
565.075, 1998.700
565.557, 1995.501
566.039, 2000.813
566.521, 2012.537
567.003, 2011.548
567.486, 1991.792
567.968, 1969.051
568.450, 1944.786
568.932, 1919.749
569.414, 1890.014
569.896, 1857.626
570.378, 1837.036
570.860, 1843.928
571.343, 1864.339
571.825, 1881.466
572.307, 1894.299
572.789, 1893.429
573.271, 1871.731
573.753, 1844.065
574.235, 1837.164
574.717, 1866.658
575.200, 1865.451
575.682, 1802.079
576.164, 1742.659
576.646, 1720.529
577.128, 1722.011
577.610, 1722.664
578.092, 1713.165
578.574, 1697.486
579.057, 1676.842
579.539, 1652.603
580.021, 1640.878
580.503, 1648.075
580.985, 1651.744
581.467, 1634.678
581.949, 1602.989
582.431, 1578.479
582.913, 1565.376
583.396, 1551.973
583.878, 1527.976
584.360, 1506.812
584.842, 1507.518
585.324, 1526.585
585.806, 1540.917
586.288, 1533.079
586.770, 1511.646
587.252, 1507.501
587.735, 1530.144
588.217, 1533.535
588.699, 1489.426
589.181, 1442.793
589.663, 1430.717
590.145, 1447.301
590.627, 1462.315
591.109, 1467.897
591.591, 1468.080
592.074, 1465.119
592.556, 1459.020
593.038, 1448.787
593.520, 1434.374
594.002, 1418.957
594.484, 1405.375
594.966, 1393.519
595.448, 1390.561
595.930, 1407.625
596.413, 1416.933
596.895, 1410.736
597.377, 1395.187
597.859, 1371.706
598.341, 1341.621
598.823, 1319.226
599.305, 1318.946
599.787, 1328.193
600.270, 1329.481
600.752, 1323.038
601.234, 1313.325
601.716, 1301.076
602.198, 1291.387
602.680, 1294.771
603.162, 1320.298
603.644, 1329.290
604.127, 1308.335
604.609, 1286.929
605.091, 1276.604
605.573, 1272.644
606.055, 1266.865
606.537, 1256.575
607.019, 1246.061
607.501, 1241.124
607.984, 1239.037
608.466, 1231.435
608.948, 1217.336
609.430, 1202.141
609.912, 1182.217
610.394, 1187.714
610.876, 1187.037
611.358, 1180.525
611.840, 1150.685
612.323, 1150.967
612.805, 1139.177
613.287, 1126.894
613.769, 1131.412
614.251, 1104.966
614.733, 1109.221
615.215, 1101.220
615.697, 1098.828
616.179, 1084.291
616.662, 1073.503
617.144, 1064.587
617.626, 1068.236
618.108, 1086.685
618.590, 1115.098
619.072, 1128.045
619.554, 1114.017
620.036, 1101.481
620.518, 1097.745
621.001, 1095.060
621.483, 1080.551
621.965, 1059.676
622.447, 1055.568
622.929, 1088.059
623.411, 1133.530
623.893, 1144.247
624.375, 1119.912
624.857, 1085.092
625.340, 1034.870
625.822, 997.018
626.304, 1004.750
626.786, 1052.356
627.268, 1077.545
627.750, 1060.132
628.232, 1044.543
628.714, 1049.213
629.197, 1058.570
629.679, 1052.042
630.161, 1030.910
630.643, 1016.319
631.125, 1026.932
631.607, 1051.965
632.089, 1062.525
632.571, 1057.450
633.054, 1048.767
633.536, 1035.842
634.018, 1025.917
634.500, 1031.729
634.982, 1051.030
635.464, 1053.899
635.946, 1015.251
636.428, 986.959
636.911, 996.193
637.393, 1022.558
637.875, 1046.163
638.357, 1060.949
638.839, 1063.551
639.321, 1048.095
639.803, 1020.677
640.285, 1000.854
640.768, 988.992
641.250, 982.894
641.732, 983.872
642.214, 987.810
642.696, 990.537
643.178, 992.112
643.660, 993.906
644.142, 999.695
644.624, 1001.531
645.107, 995.143
645.589, 983.467
646.071, 966.217
646.553, 945.789
647.035, 933.632
647.517, 943.250
647.999, 966.838
648.481, 977.375
648.963, 973.799
649.446, 966.955
649.928, 958.431
650.410, 950.242
650.892, 945.810
651.374, 945.180
651.856, 940.610
652.338, 923.453
652.820, 911.883
653.302, 920.577
653.785, 934.512
654.267, 932.905
654.749, 914.140
655.231, 895.763
655.713, 891.724
656.195, 899.321
656.677, 916.571
657.159, 944.793
657.641, 953.491
658.124, 926.088
658.606, 891.332
659.088, 882.365
659.570, 901.149
660.052, 913.886
660.534, 920.271
661.016, 921.014
661.498, 890.742
661.981, 922.356
662.463, 938.947
662.945, 941.324
663.427, 886.911
663.909, 905.830
664.391, 895.361
664.873, 883.687
665.355, 912.927
665.838, 866.774
666.320, 895.366
666.802, 894.120
667.284, 906.530
667.766, 889.371
668.248, 881.345
668.730, 877.870
669.212, 879.282
669.695, 890.956
670.177, 901.219
670.659, 895.904
671.141, 877.740
671.623, 864.735
672.105, 869.228
672.587, 882.063
673.069, 893.043
673.551, 901.749
674.034, 905.474
674.516, 903.389
674.998, 899.848
675.480, 899.561
675.962, 901.487
676.444, 895.059
676.926, 861.060
677.408, 849.186
677.890, 889.639
678.373, 930.564
678.855, 929.715
679.337, 897.323
679.819, 876.236
680.301, 889.213
680.783, 909.551
681.265, 918.550
681.747, 917.014
682.229, 900.388
682.712, 870.440
683.194, 850.338
683.676, 859.076
684.158, 886.577
684.640, 895.578
685.122, 874.845
685.604, 866.888
686.086, 874.206
686.568, 843.906
687.051, 877.248
687.533, 895.141
688.015, 898.416
688.497, 843.289
688.979, 863.576
689.461, 853.641
689.943, 842.466
690.425, 873.367
690.908, 826.734
691.390, 856.969
691.872, 850.899
692.354, 857.474
692.836, 861.338
693.318, 862.403
693.800, 861.585
694.282, 856.333
694.765, 856.278
695.247, 872.003
695.729, 894.334
696.211, 900.158
696.693, 879.657
697.175, 873.263
697.657, 859.690
698.139, 877.417
698.622, 887.546
699.104, 890.486
699.586, 864.702
700.068, 876.008
700.550, 872.451
701.032, 868.284
701.514, 884.811
701.996, 863.205
702.478, 879.403
702.961, 880.511
703.443, 888.525
703.925, 881.584
704.407, 879.262
704.889, 891.900
705.371, 896.255
705.853, 887.592
706.335, 896.045
706.817, 873.917
707.300, 878.625
707.782, 894.911
708.264, 887.000
708.746, 895.727
709.228, 898.117
709.710, 871.710
710.192, 895.384
710.674, 897.400
711.157, 877.177
711.639, 899.135
712.121, 881.978
712.603, 878.783
713.085, 885.594
713.567, 885.393
714.049, 894.658
714.531, 899.606
715.013, 895.054
715.496, 888.350
715.978, 883.608
716.460, 881.254
716.942, 883.080
717.424, 891.983
717.906, 901.242
718.388, 912.341
718.870, 919.966
719.352, 915.091
719.835, 901.513
720.317, 893.335
720.799, 898.825
721.281, 908.825
721.763, 909.100
722.245, 901.211
722.727, 894.500
723.209, 889.470
723.692, 889.527
724.174, 898.524
724.656, 911.326
725.138, 915.627
725.620, 904.440
726.102, 902.745
726.584, 926.537
727.066, 940.849
727.549, 920.965
728.031, 889.401
728.513, 879.059
728.995, 896.182
729.477, 912.087
729.959, 908.474
730.441, 895.938
730.923, 883.261
731.406, 871.909
731.888, 863.338
732.370, 858.244
732.852, 860.958
733.334, 878.836
733.816, 908.300
734.298, 921.728
734.780, 914.712
735.262, 908.004
735.745, 904.962
736.227, 905.803
736.709, 914.666
737.191, 929.245
737.673, 933.408
738.155, 909.063
738.637, 897.078
739.119, 923.590
739.601, 953.877
740.084, 952.791
740.566, 928.031
741.048, 912.004
741.530, 921.657
742.012, 938.880
742.494, 940.375
742.976, 932.976
743.458, 939.474
743.940, 911.815
744.423, 949.219
744.905, 970.830
745.387, 977.495
745.869, 924.455
746.351, 948.513
746.833, 941.673
747.315, 933.567
747.797, 968.476
748.279, 924.119
748.762, 958.347
749.244, 955.459
749.726, 919.930
750.208, 900.122
750.690, 932.098
751.172, 964.891
751.654, 957.859
752.136, 937.691
752.619, 951.420
753.101, 924.578
753.583, 964.816
754.065, 988.771
754.547, 997.318
755.029, 944.308
755.511, 970.786
755.993, 965.408
756.476, 958.725
756.958, 996.390
757.440, 952.334
757.922, 989.296
758.404, 993.917
758.886, 1013.339
759.368, 1000.710
759.850, 997.980
760.333, 1000.185
760.815, 1013.481
761.297, 1033.967
761.779, 1044.140
762.261, 1038.355
762.743, 1039.016
763.225, 1064.504
763.707, 1092.111
764.189, 1099.652
764.672, 1095.782
765.154, 1100.951
765.636, 1120.224
766.118, 1139.473
766.600, 1142.343
767.082, 1136.045
767.564, 1143.354
768.046, 1163.876
768.528, 1184.160
769.011, 1201.803
769.493, 1213.379
769.975, 1213.436
770.457, 1204.659
770.939, 1207.184
771.421, 1227.142
771.903, 1247.672
772.385, 1264.758
772.867, 1284.817
773.350, 1314.106
773.832, 1348.173
774.314, 1377.720
774.796, 1399.782
775.278, 1420.925
775.760, 1447.157
776.242, 1471.082
776.724, 1482.665
777.206, 1487.500
777.689, 1497.279
778.171, 1516.166
778.653, 1542.892
779.135, 1579.196
779.617, 1621.526
780.099, 1660.868
780.581, 1696.856
781.063, 1722.544
781.546, 1733.654
782.028, 1747.182
782.510, 1780.428
782.992, 1831.430
783.474, 1884.373
783.956, 1946.565
784.438, 1995.726
784.920, 2021.972
785.403, 2041.438
785.885, 2057.238
786.367, 2074.061
786.849, 2103.284
787.331, 2151.794
787.813, 2197.875
788.295, 2234.889
788.777, 2266.447
789.260, 2292.445
789.742, 2315.552
790.224, 2340.539
790.706, 2368.542
791.188, 2395.473
791.670, 2420.251
792.152, 2440.165
792.634, 2444.256
793.117, 2437.050
793.599, 2443.454
794.081, 2470.263
794.563, 2503.451
795.045, 2530.734
795.527, 2553.103
796.009, 2576.821
796.491, 2606.710
796.973, 2619.938
797.456, 2605.570
797.938, 2587.101
798.420, 2579.841
798.902, 2579.197
799.384, 2572.166
799.866, 2552.752
800.348, 2543.451
800.830, 2556.960
801.312, 2570.425
801.795, 2577.740
802.277, 2575.035
802.759, 2551.817
803.241, 2509.010
803.723, 2474.899
804.205, 2469.590
804.687, 2479.642
805.169, 2502.912
805.651, 2500.242
806.134, 2508.472
806.616, 2514.056
807.098, 2517.136
807.580, 2510.215
808.062, 2516.208
808.544, 2517.026
809.026, 2517.632
809.508, 2525.443
809.990, 2519.976
810.473, 2527.674
810.955, 2530.116
811.437, 2534.964
811.919, 2534.603
812.401, 2535.851
812.883, 2537.901
813.365, 2543.018
813.847, 2548.940
814.330, 2558.080
814.812, 2564.158
815.294, 2561.155
815.776, 2549.374
816.258, 2533.385
816.740, 2513.778
817.222, 2491.000
817.704, 2462.417
818.187, 2432.941
818.669, 2404.100
819.151, 2378.892
819.633, 2365.984
820.115, 2370.654
820.597, 2373.584
821.079, 2347.928
821.561, 2309.267
822.044, 2291.088
822.526, 2291.083
823.008, 2289.146
823.490, 2278.162
823.972, 2262.414
824.454, 2245.538
824.936, 2228.508
825.418, 2219.842
825.900, 2222.155
826.383, 2215.775
826.865, 2193.996
827.347, 2169.408
827.829, 2150.161
828.311, 2135.957
828.793, 2126.508
829.275, 2131.093
829.757, 2122.773
830.239, 2094.854
830.722, 2062.158
831.204, 2026.309
831.686, 1991.653
832.168, 1961.625
832.650, 1936.921
833.132, 1923.613
833.614, 1941.389
834.096, 1951.958
834.578, 1921.187
835.061, 1876.991
835.543, 1856.957
836.025, 1860.656
836.507, 1859.657
836.989, 1835.222
837.471, 1811.238
837.953, 1825.545
838.435, 1858.499
838.917, 1855.038
839.400, 1815.267
839.882, 1822.488
840.364, 1818.302
840.846, 1803.324
841.328, 1745.229
841.810, 1742.812
842.292, 1723.222
842.774, 1734.130
843.257, 1759.109
843.739, 1787.866
844.221, 1817.054
844.703, 1844.029
845.185, 1869.008
845.667, 1892.756
846.149, 1914.311
846.631, 1936.348
847.114, 1966.063
847.596, 1988.059
848.078, 1987.716
848.560, 1979.876
849.042, 1986.297
849.524, 2009.805
850.006, 2034.507
850.488, 2056.712
850.971, 2079.307
851.453, 2104.854
851.935, 2130.813
852.417, 2154.524
852.899, 2175.887
853.381, 2194.587
853.863, 2208.321
854.345, 2226.054
854.827, 2262.979
855.310, 2304.667
855.792, 2328.006
856.274, 2335.850
856.756, 2339.496
857.238, 2344.155
857.720, 2362.036
858.202, 2416.808
858.684, 2490.958
859.166, 2522.432
859.649, 2515.621
860.131, 2520.377
860.613, 2547.855
861.095, 2587.884
861.577, 2635.948
862.059, 2684.539
862.541, 2708.276
863.023, 2699.382
863.505, 2702.003
863.988, 2715.395
864.470, 2747.150
864.952, 2814.388
865.434, 2888.260
865.916, 2924.508
866.398, 2918.228
866.880, 2931.265
867.362, 2972.338
867.844, 3020.001
868.327, 3074.966
868.809, 3131.881
869.291, 3193.260
869.773, 3253.013
870.255, 3293.487
870.737, 3302.751
871.219, 3320.018
871.701, 3370.580
872.184, 3422.151
872.666, 3447.323
873.148, 3460.884
873.630, 3482.890
874.112, 3518.677
874.594, 3570.176
875.076, 3657.787
875.558, 3735.324
876.041, 3743.496
876.523, 3715.713
877.005, 3704.817
877.487, 3715.150
877.969, 3732.863
878.451, 3751.496
878.933, 3764.746
879.415, 3756.465
879.898, 3737.205
880.380, 3750.044
880.862, 3790.412
881.344, 3812.708
881.826, 3804.148
882.308, 3780.365
882.790, 3755.602
883.272, 3725.610
883.755, 3662.418
884.237, 3554.033
884.719, 3511.547
885.201, 3502.798
885.683, 3485.860
886.165, 3461.175
886.647, 3405.519
887.129, 3389.853
887.611, 3361.855
888.094, 3271.781
888.576, 3229.262
889.058, 3173.653
889.540, 3069.313
890.022, 2972.205
890.504, 2934.603
890.986, 2934.666
891.468, 2908.230
891.950, 2839.325
892.433, 2774.177
892.915, 2721.163
893.397, 2670.500
893.879, 2613.796
894.361, 2559.130
894.843, 2518.860
895.325, 2492.508
895.807, 2465.845
896.289, 2439.550
896.772, 2403.308
897.254, 2346.342
897.736, 2281.199
898.218, 2212.214
898.700, 2147.252
899.182, 2103.717
899.664, 2087.488
900.146, 2075.910
900.628, 2052.059
901.111, 2022.566
901.593, 1992.905
902.075, 1964.732
902.557, 1943.969
903.039, 1929.405
903.521, 1908.513
904.003, 1871.883
904.485, 1833.685
904.968, 1820.881
905.450, 1823.084
905.932, 1803.805
906.414, 1764.816
906.896, 1738.009
907.378, 1734.608
907.860, 1733.719
908.342, 1712.594
908.825, 1677.604
909.307, 1652.926
909.789, 1638.668
910.271, 1627.689
910.753, 1620.205
911.235, 1605.960
911.717, 1576.769
912.199, 1544.505
912.682, 1530.943
913.164, 1537.378
913.646, 1540.973
914.128, 1542.918
914.610, 1538.415
915.092, 1526.312
915.574, 1506.892
916.056, 1474.793
916.538, 1437.075
917.021, 1420.169
917.503, 1437.690
917.985, 1445.113
918.467, 1443.861
918.949, 1430.656
919.431, 1396.367
919.913, 1355.161
920.395, 1316.300
920.877, 1281.300
921.360, 1265.573
921.842, 1291.386
922.324, 1306.092
922.806, 1292.653
923.288, 1274.877
923.770, 1273.516
924.252, 1274.733
924.734, 1246.825
925.216, 1183.483
925.699, 1145.799
926.181, 1183.502
926.663, 1214.831
927.145, 1199.188
927.627, 1159.801
928.109, 1106.553
928.591, 1052.367
929.073, 1023.324
929.555, 1030.394
930.038, 1048.035
930.520, 991.534
931.002, 1042.944
931.484, 1068.160
931.966, 1068.589
932.448, 969.991
932.930, 999.264
933.412, 977.294
933.895, 953.221
934.377, 972.277
934.859, 963.523
935.341, 944.566
935.823, 921.200
936.305, 899.256
936.787, 896.312
937.269, 914.728
937.752, 928.831
938.234, 914.065
938.716, 887.407
939.198, 876.967
939.680, 876.997
940.162, 870.941
940.644, 858.683
941.126, 852.127
941.609, 856.528
942.091, 862.479
942.573, 858.065
943.055, 846.585
943.537, 837.047
944.019, 829.884
944.501, 831.634
944.983, 842.836
945.465, 845.837
945.948, 829.330
946.430, 801.398
946.912, 769.396
947.394, 735.674
947.876, 740.660
948.358, 786.098
948.840, 820.723
949.322, 831.795
949.804, 823.766
950.287, 797.022
950.769, 760.275
951.251, 738.069
951.733, 731.800
952.215, 724.692
952.697, 714.127
953.179, 715.183
953.661, 736.819
954.144, 761.072
954.626, 768.927
955.108, 763.452
955.590, 762.388
956.072, 767.971
956.554, 768.647
957.036, 759.590
957.518, 756.981
958.000, 774.456
958.483, 792.151
958.965, 779.962
959.447, 738.999
959.929, 721.739
960.411, 739.776
960.893, 755.609
961.375, 767.338
961.857, 773.232
962.339, 772.026
962.822, 764.622
963.304, 751.613
963.786, 732.139
964.268, 713.835
964.750, 687.921
965.232, 677.296
965.714, 701.752
966.196, 725.050
966.679, 716.935
967.161, 693.189
967.643, 690.173
968.125, 716.182
968.607, 729.604
969.089, 716.986
969.571, 708.147
970.053, 711.494
970.536, 719.671
971.018, 731.972
971.500, 744.172
971.982, 743.703
972.464, 724.015
972.946, 708.816
973.428, 701.518
973.910, 698.134
974.393, 702.867
974.875, 706.369
975.357, 698.370
975.839, 681.216
976.321, 664.669
976.803, 643.022
977.285, 639.059
977.767, 677.956
978.249, 711.312
978.732, 706.920
979.214, 691.232
979.696, 697.599
980.178, 723.139
980.660, 736.786
981.142, 725.988
981.624, 713.539
982.106, 699.395
982.588, 692.262
983.071, 704.573
983.553, 722.464
984.035, 727.530
984.517, 719.043
984.999, 709.076
985.481, 697.571
985.963, 690.959
986.445, 694.812
986.927, 700.925
987.410, 707.340
987.892, 710.428
988.374, 701.750
988.856, 682.148
989.338, 671.377
989.820, 690.843
990.302, 700.158
990.784, 665.777
991.266, 631.730
991.749, 638.682
992.231, 667.151
992.713, 681.724
993.195, 676.471
993.677, 670.200
994.159, 669.189
994.641, 670.396
995.123, 677.115
995.606, 681.219
996.088, 667.886
996.570, 649.746
997.052, 655.818
997.534, 690.732
998.016, 712.238
998.498, 689.026
998.980, 664.620
999.463, 658.408
999.945, 662.508
1000.427, 680.536
1000.909, 699.542
1001.391, 681.842
1001.873, 666.322
1002.355, 678.207
1002.837, 683.440
1003.319, 682.378
1003.802, 656.159
1004.284, 662.422
1004.766, 655.671
1005.248, 648.387
1005.730, 659.221
1006.212, 636.667
1006.694, 647.214
1007.176, 644.547
1007.659, 638.812
1008.141, 626.799
1008.623, 627.311
1009.105, 598.944
1009.587, 633.307
1010.069, 652.442
1010.551, 657.169
1011.033, 604.331
1011.515, 625.826
1011.998, 617.531
1012.480, 608.015
1012.962, 639.973
1013.444, 595.507
1013.926, 626.807
1014.408, 627.862
1014.890, 642.760
1015.372, 627.684
1015.854, 621.866
1016.337, 646.030
1016.819, 653.593
1017.301, 635.067
1017.783, 650.844
1018.265, 605.332
1018.747, 613.602
1019.229, 645.077
1019.711, 628.058
1020.194, 644.382
1020.676, 648.008
1021.158, 593.920
1021.640, 640.202
1022.122, 643.078
1022.604, 601.384
1023.086, 644.227
1023.568, 608.678
1024.051, 614.011
1024.533, 621.274
1025.015, 632.020
1025.497, 633.226
1025.979, 634.306
1026.461, 649.010
1026.943, 667.159
1027.425, 664.973
1027.907, 637.053
1028.390, 616.880
1028.872, 612.796
1029.354, 615.788
1029.836, 627.562
1030.318, 641.269
1030.800, 655.666
1031.282, 667.286
1031.764, 669.081
1032.246, 659.523
1032.729, 651.242
1033.211, 644.071
1033.693, 640.938
1034.175, 644.266
1034.657, 649.940
1035.139, 657.828
1035.621, 665.385
1036.103, 665.838
1036.586, 657.499
1037.068, 661.356
1037.550, 699.288
1038.032, 718.419
1038.514, 698.250
1038.996, 673.549
1039.478, 657.498
1039.960, 649.972
1040.443, 654.581
1040.925, 672.080
1041.407, 676.990
1041.889, 661.012
1042.371, 647.651
1042.853, 636.152
1043.335, 632.402
1043.817, 648.038
1044.299, 663.758
1044.781, 649.624
1045.264, 608.119
1045.746, 587.321
1046.228, 594.886
1046.710, 603.684
1047.192, 614.952
1047.674, 619.189
1048.156, 607.653
1048.638, 595.847
1049.121, 603.898
1049.603, 627.534
1050.085, 638.820
1050.567, 636.543
1051.049, 625.775
1051.531, 603.214
1052.013, 586.751
1052.495, 583.323
1052.978, 588.257
1053.460, 598.339
1053.942, 611.039
1054.424, 614.598
1054.906, 607.633
1055.388, 620.468
1055.870, 657.190
1056.352, 673.435
1056.834, 652.760
1057.317, 633.140
1057.799, 649.624
1058.281, 681.650
1058.763, 676.878
1059.245, 640.479
1059.727, 622.035
1060.209, 621.780
1060.691, 626.188
1061.173, 631.443
1061.656, 630.613
1062.138, 618.261
1062.620, 601.357
1063.102, 588.802
1063.584, 581.623
1064.066, 587.024
1064.548, 601.097
1065.030, 606.001
1065.513, 600.204
1065.995, 598.168
1066.477, 608.011
1066.959, 619.039
1067.441, 614.027
1067.923, 605.051
1068.405, 620.819
1068.887, 594.583
1069.370, 624.354
1069.852, 640.533
1070.334, 643.846
1070.816, 595.759
1071.298, 614.044
1071.780, 605.730
1072.262, 596.326
1072.744, 623.953
1073.226, 583.342
1073.708, 610.381
1074.191, 610.413
1074.673, 622.807
1075.155, 608.438
1075.637, 602.336
1076.119, 623.004
1076.601, 628.850
1077.083, 611.400
1077.565, 624.580
1078.048, 583.031
1078.530, 589.508
1079.012, 616.704
1079.494, 600.600
1079.976, 590.119
1080.458, 606.555
1080.940, 616.997
1081.422, 609.166
1081.905, 600.815
1082.387, 606.663
1082.869, 613.088
1083.351, 600.847
1083.833, 573.998
1084.315, 556.184
1084.797, 546.900
1085.279, 552.516
1085.761, 594.359
1086.244, 622.319
1086.726, 614.467
1087.208, 598.682
1087.690, 596.605
1088.172, 602.092
1088.654, 599.952
1089.136, 589.573
1089.618, 574.100
1090.101, 547.404
1090.583, 533.664
1091.065, 539.534
1091.547, 554.703
1092.029, 578.488
1092.511, 595.778
1092.993, 576.438
1093.475, 527.453
1093.958, 528.066
1094.440, 581.926
1094.922, 613.611
1095.404, 613.402
1095.886, 608.924
1096.368, 612.088
1096.850, 610.509
1097.332, 587.855
1097.814, 557.617
1098.297, 557.894
1098.779, 580.834
1099.261, 596.090
1099.743, 601.499
1100.225, 596.768
1100.707, 582.948
1101.189, 566.273
1101.671, 548.952
1102.153, 541.438
1102.636, 568.131
1103.118, 604.929
1103.600, 612.561
1104.082, 600.822
1104.564, 587.535
1105.046, 578.139
1105.528, 578.438
1106.010, 591.726
1106.493, 603.014
1106.975, 601.818
1107.457, 595.092
1107.939, 579.319
1108.421, 567.740
1108.903, 583.530
1109.385, 611.613
1109.867, 612.523
1110.349, 579.441
1110.832, 566.058
1111.314, 612.902
1111.796, 646.355
1112.278, 642.240
1112.760, 624.330
1113.242, 594.992
1113.724, 566.748
1114.206, 557.902
1114.688, 566.175
1115.171, 567.565
1115.653, 556.011
1116.135, 550.595
1116.617, 552.479
1117.099, 558.894
1117.581, 573.206
1118.063, 583.340
1118.545, 577.117
1119.028, 563.871
1119.510, 568.873
1119.992, 593.387
1120.474, 583.044
1120.956, 533.612
1121.438, 515.193
1121.920, 541.472
1122.402, 564.051
1122.885, 557.341
1123.367, 540.130
1123.849, 534.302
1124.331, 537.074
1124.813, 546.902
1125.295, 558.263
1125.777, 545.263
1126.259, 514.656
1126.741, 504.126
1127.224, 522.224
1127.706, 539.149
1128.188, 531.692
1128.670, 524.959
1129.152, 554.849
1129.634, 590.866
1130.116, 599.809
1130.598, 588.318
1131.080, 558.813
1131.563, 522.362
1132.045, 510.257
1132.527, 535.912
1133.009, 558.643
1133.491, 558.377
1133.973, 555.031
1134.455, 557.342
1134.937, 560.117
1135.420, 556.902
1135.902, 552.334
1136.384, 555.529
1136.866, 567.173
1137.348, 576.922
1137.830, 590.254
1138.312, 589.785
1138.794, 562.728
1139.276, 545.509
1139.759, 516.712
1140.241, 553.493
1140.723, 574.355
1141.205, 580.154
1141.687, 525.773
1142.169, 549.102
1142.651, 541.288
1143.133, 532.197
1143.615, 566.464
1144.098, 520.836
1144.580, 554.415
1145.062, 556.376
1145.544, 572.807
1146.026, 557.904
1146.508, 552.679
1146.990, 552.277
1147.472, 557.539
1147.955, 556.890
1148.437, 551.628
1148.919, 552.272
1149.401, 560.589
1149.883, 568.147
1150.365, 569.927
1150.847, 570.001
1151.329, 574.422
1151.812, 555.201
1152.294, 576.344
1152.776, 587.690
1153.258, 589.765
1153.740, 554.802
1154.222, 567.666
1154.704, 561.363
1155.186, 554.274
1155.668, 573.869
1156.151, 544.290
1156.633, 563.463
1157.115, 563.176
1157.597, 571.794
1158.079, 561.128
1158.561, 556.418
1159.043, 571.000
1159.525, 574.900
1160.008, 562.011
1160.490, 571.196
1160.972, 540.946
1161.454, 545.301
1161.936, 564.586
1162.418, 552.669
1162.900, 562.207
1163.382, 543.571
1163.865, 547.841
1164.347, 573.169
1164.829, 573.890
1165.311, 560.172
1165.793, 558.737
1166.275, 541.056
1166.757, 560.442
1167.239, 570.831
1167.721, 572.705
1168.203, 540.564
1168.686, 552.345
1169.168, 546.525
1169.650, 539.983
1170.132, 557.948
1170.614, 530.754
1171.096, 548.331
1171.578, 548.035
1172.060, 555.919
1172.543, 546.090
1173.025, 541.733
1173.507, 555.094
1173.989, 558.644
1174.471, 546.778
1174.953, 555.182
1175.435, 527.370
1175.917, 531.338
1176.400, 549.015
1176.882, 538.040
1177.364, 546.768
1177.846, 547.991
1178.328, 515.112
1178.810, 541.541
1179.292, 542.322
1179.774, 516.766
1180.256, 541.163
1180.739, 522.633
1181.221, 521.822
1181.703, 494.052
1182.185, 527.942
1182.667, 546.864
1183.149, 551.623
1183.631, 499.800
1184.113, 521.042
1184.595, 513.002
1185.078, 503.761
1185.560, 535.286
1186.042, 491.693
1186.524, 522.571
1187.006, 523.722
1187.488, 538.479
1187.970, 523.773
1188.452, 518.168
1188.935, 542.032
1189.417, 549.580
1189.899, 531.483
1190.381, 547.104
1190.863, 502.482
1191.345, 510.724
1191.827, 541.775
1192.309, 525.159
1192.792, 541.318
1193.274, 544.995
1193.756, 491.944
1194.238, 537.549
1194.720, 540.489
1195.202, 499.620
1195.684, 541.845
1196.166, 507.015
1196.648, 499.690
1197.130, 513.062
1197.613, 504.857
1198.095, 511.485
1198.577, 534.120
1199.059, 547.597
1199.541, 520.724
1200.023, 497.511
1200.505, 508.486
1200.987, 526.110
1201.470, 528.242
1201.952, 529.666
1202.434, 513.396
1202.916, 533.165
1203.398, 544.186
1203.880, 546.929
1204.362, 516.600
1204.844, 528.976
1205.327, 524.237
1205.809, 518.798
1206.291, 537.185
1206.773, 511.666
1207.255, 529.675
1207.737, 530.309
1208.219, 538.895
1208.701, 530.260
1209.183, 526.945
1209.666, 540.855
1210.148, 545.227
1210.630, 534.611
1211.112, 543.702
1211.594, 517.582
1212.076, 522.360
1212.558, 540.470
1213.040, 530.720
1213.522, 540.126
1214.005, 542.236
1214.487, 511.189
1214.969, 537.806
1215.451, 539.485
1215.933, 515.558
1216.415, 540.199
1216.897, 519.803
1217.379, 515.482
1217.862, 523.259
1218.344, 518.424
1218.826, 533.473
1219.308, 529.367
1219.790, 523.549
1220.272, 525.201
1220.754, 505.687
1221.236, 525.438
1221.719, 518.368
1222.201, 524.630
1222.683, 533.914
1223.165, 520.060
1223.647, 530.702
1224.129, 503.356
1224.611, 507.795
1225.093, 508.812
1225.575, 530.146
1226.057, 519.085
1226.540, 508.030
1227.022, 497.206
1227.504, 483.165
1227.986, 477.311
1228.468, 494.463
1228.950, 514.550
1229.432, 517.093
1229.914, 510.111
1230.397, 511.626
1230.879, 521.758
1231.361, 514.188
1231.843, 483.821
1232.325, 485.719
1232.807, 525.852
1233.289, 556.121
1233.771, 561.315
1234.254, 554.355
1234.736, 543.086
1235.218, 533.791
1235.700, 536.268
1236.182, 544.064
1236.664, 551.978
1237.146, 556.616
1237.628, 553.152
1238.110, 542.760
1238.593, 525.125
1239.075, 502.599
1239.557, 489.828
1240.039, 492.777
1240.521, 500.519
1241.003, 520.847
1241.485, 530.997
1241.967, 519.638
1242.450, 510.073
1242.932, 517.873
1243.414, 528.490
1243.896, 519.375
1244.378, 503.497
1244.860, 525.115
1245.342, 537.631
1245.824, 541.535
1246.307, 511.030
1246.789, 524.956
1247.271, 521.076
1247.753, 516.466
1248.235, 536.646
1248.717, 511.145
1249.199, 530.932
1249.681, 532.641
1250.163, 542.624
1250.646, 534.692
1251.128, 532.292
1251.610, 532.649
1252.092, 513.931
1252.574, 500.714
1253.056, 505.068
1253.538, 529.146
1254.020, 540.252
1254.502, 521.584
1254.985, 543.669
1255.467, 555.862
1255.949, 558.695
1256.431, 524.130
1256.913, 537.856
1257.395, 532.229
1257.877, 525.809
1258.359, 546.332
1258.842, 517.205
1259.324, 537.300
1259.806, 537.748
1260.288, 547.188
1260.770, 537.155
1261.252, 533.137
1261.734, 548.598
1262.216, 553.273
1262.698, 540.999
1263.181, 551.009
1263.663, 530.082
1264.145, 528.798
1264.627, 525.317
1265.109, 530.953
1265.591, 554.796
1266.073, 572.114
1266.555, 552.526
1267.037, 516.499
1267.520, 510.561
1268.002, 523.509
1268.484, 526.052
1268.966, 524.824
1269.448, 545.042
1269.930, 577.230
1270.412, 580.833
1270.894, 547.382
1271.377, 522.192
1271.859, 528.855
1272.341, 535.182
1272.823, 525.369
##END=



