##NAMES=Bario-olgite
##RRUFFID=R060614
##IDEAL CHEMISTRY=Na(Na,Sr,Ce)_2_Ba(PO_4_)_2_
##LOCALITY=Palitra pegmatite, Kedykverpakhk Mountain, Lovozero massif, Kola Peninsula, Russia
##OWNER=RRUFF
##SOURCE=Michael Scott
##DESCRIPTION=Grayish-green grains associated with brown manaksite R060693, and purple ussingite
##STATUS=The identification of this mineral has been confirmed by single-crystal X-ray diffraction.
##URL=rruff.info/R060614
114.8533, 7949.542
115.3354, 7979.771
115.8175, 8005.342
116.2996, 8026.310
116.7817, 8045.557
117.2639, 8063.853
117.7460, 8081.336
118.2281, 8098.168
118.7102, 8114.825
119.1923, 8130.508
119.6744, 8144.829
120.1566, 8157.903
120.6387, 8168.416
121.1208, 8172.012
121.6029, 8172.049
122.0850, 8175.437
122.5671, 8188.143
123.0493, 8204.501
123.5314, 8218.314
124.0135, 8227.361
124.4956, 8236.064
124.9777, 8250.304
125.4598, 8268.210
125.9420, 8283.004
126.4241, 8287.371
126.9062, 8285.737
127.3883, 8286.390
127.8704, 8291.512
128.3525, 8298.836
128.8347, 8304.397
129.3168, 8308.374
129.7989, 8313.906
130.2810, 8325.149
130.7631, 8340.573
131.2452, 8354.503
131.7274, 8366.027
132.2095, 8374.987
132.6916, 8379.927
133.1737, 8380.488
133.6558, 8380.339
134.1379, 8383.792
134.6201, 8390.841
135.1022, 8396.492
135.5843, 8397.431
136.0664, 8395.049
136.5485, 8400.911
137.0306, 8417.104
137.5128, 8436.748
137.9949, 8451.567
138.4770, 8460.528
138.9591, 8469.742
139.4412, 8481.104
139.9233, 8494.499
140.4055, 8509.472
140.8876, 8527.325
141.3697, 8545.152
141.8518, 8557.937
142.3339, 8563.713
142.8160, 8568.478
143.2982, 8574.003
143.7803, 8579.805
144.2624, 8588.096
144.7445, 8601.074
145.2266, 8615.885
145.7087, 8625.102
146.1909, 8624.776
146.6730, 8624.265
147.1551, 8627.389
147.6372, 8636.534
148.1193, 8645.512
148.6014, 8654.234
149.0836, 8662.885
149.5657, 8672.358
150.0478, 8683.856
150.5299, 8695.038
151.0120, 8704.933
151.4941, 8708.907
151.9763, 8716.741
152.4584, 8732.438
152.9405, 8753.571
153.4226, 8768.471
153.9047, 8768.604
154.3868, 8767.144
154.8690, 8771.249
155.3511, 8790.116
155.8332, 8805.583
156.3153, 8812.795
156.7974, 8812.826
157.2795, 8814.515
157.7617, 8820.411
158.2438, 8828.443
158.7259, 8837.132
159.2080, 8844.389
159.6901, 8854.165
160.1722, 8870.134
160.6544, 8891.880
161.1365, 8909.917
161.6186, 8916.357
162.1007, 8919.342
162.5828, 8926.525
163.0649, 8943.543
163.5471, 8962.397
164.0292, 8980.256
164.5113, 8996.927
164.9934, 9011.284
165.4755, 9021.281
165.9576, 9028.910
166.4398, 9036.529
166.9219, 9045.004
167.4040, 9053.771
167.8861, 9062.354
168.3682, 9070.751
168.8503, 9079.210
169.3325, 9087.474
169.8146, 9096.058
170.2967, 9105.650
170.7788, 9118.436
171.2609, 9131.593
171.7430, 9141.550
172.2252, 9147.735
172.7073, 9154.943
173.1894, 9168.171
173.6715, 9185.526
174.1536, 9202.243
174.6357, 9216.267
175.1179, 9228.609
175.6000, 9241.006
176.0821, 9253.828
176.5642, 9264.741
177.0463, 9269.290
177.5284, 9269.501
178.0106, 9271.534
178.4927, 9281.029
178.9748, 9294.013
179.4569, 9302.957
179.9390, 9306.484
180.4211, 9309.146
180.9033, 9316.127
181.3854, 9327.066
181.8675, 9339.781
182.3496, 9354.483
182.8317, 9370.011
183.3138, 9383.794
183.7960, 9394.783
184.2781, 9405.739
184.7602, 9421.547
185.2423, 9441.647
185.7244, 9460.400
186.2065, 9472.722
186.6887, 9480.537
187.1708, 9491.768
187.6529, 9507.734
188.1350, 9526.089
188.6171, 9543.225
189.0992, 9559.239
189.5814, 9573.568
190.0635, 9584.525
190.5456, 9592.987
191.0277, 9604.483
191.5098, 9621.033
191.9919, 9638.929
192.4741, 9648.877
192.9562, 9650.497
193.4383, 9652.052
193.9204, 9659.565
194.4025, 9672.670
194.8846, 9685.056
195.3668, 9695.525
195.8489, 9705.342
196.3310, 9718.066
196.8131, 9734.049
197.2952, 9750.000
197.7773, 9764.594
198.2595, 9777.797
198.7416, 9787.078
199.2237, 9790.378
199.7058, 9790.970
200.1879, 9798.404
200.6700, 9813.901
201.1522, 9831.472
201.6343, 9847.752
202.1164, 9862.856
202.5985, 9876.116
203.0806, 9887.238
203.5627, 9896.478
204.0449, 9903.894
204.5270, 9908.737
205.0091, 9913.995
205.4912, 9922.215
205.9733, 9934.053
206.4554, 9944.432
206.9376, 9952.171
207.4197, 9958.169
207.9018, 9966.050
208.3839, 9975.994
208.8660, 9987.573
209.3481, 10001.03
209.8303, 10017.31
210.3124, 10031.66
210.7945, 10042.20
211.2766, 10050.76
211.7587, 10066.50
212.2408, 10093.43
212.7230, 10119.28
213.2051, 10134.51
213.6872, 10134.47
214.1693, 10139.63
214.6514, 10153.01
215.1335, 10172.99
215.6157, 10192.06
216.0978, 10210.17
216.5799, 10227.16
217.0620, 10243.17
217.5441, 10258.43
218.0262, 10271.46
218.5084, 10281.14
218.9905, 10288.51
219.4726, 10298.47
219.9547, 10312.48
220.4368, 10327.09
220.9189, 10339.89
221.4011, 10350.20
221.8832, 10361.50
222.3653, 10375.44
222.8474, 10390.84
223.3295, 10401.98
223.8116, 10405.44
224.2938, 10409.79
224.7759, 10420.76
225.2580, 10441.64
225.7401, 10460.83
226.2222, 10477.67
226.7043, 10492.10
227.1865, 10504.17
227.6686, 10511.02
228.1507, 10519.22
228.6328, 10533.42
229.1149, 10558.60
229.5970, 10577.83
230.0792, 10588.40
230.5613, 10592.36
231.0434, 10596.46
231.5255, 10598.63
232.0076, 10604.25
232.4897, 10617.27
232.9719, 10643.21
233.4540, 10664.21
233.9361, 10677.13
234.4182, 10685.06
234.9003, 10699.29
235.3824, 10724.13
235.8646, 10749.11
236.3467, 10768.25
236.8288, 10776.29
237.3109, 10790.22
237.7930, 10813.16
238.2751, 10841.66
238.7573, 10864.47
239.2394, 10878.02
239.7215, 10890.54
240.2036, 10905.88
240.6857, 10925.56
241.1678, 10944.05
241.6500, 10960.86
242.1321, 10976.38
242.6142, 10992.08
243.0963, 11008.07
243.5784, 11023.97
244.0605, 11039.63
244.5427, 11055.70
245.0248, 11070.41
245.5069, 11084.54
245.9890, 11097.20
246.4711, 11105.66
246.9532, 11107.17
247.4354, 11109.47
247.9175, 11115.68
248.3996, 11127.05
248.8817, 11138.80
249.3638, 11150.40
249.8459, 11162.94
250.3281, 11179.00
250.8102, 11202.24
251.2923, 11223.00
251.7744, 11237.65
252.2565, 11244.43
252.7386, 11252.16
253.2208, 11260.00
253.7029, 11269.45
254.1850, 11283.58
254.6671, 11305.08
255.1492, 11325.72
255.6313, 11341.75
256.1135, 11351.52
256.5956, 11366.31
257.0777, 11387.38
257.5598, 11411.60
258.0419, 11435.39
258.5240, 11459.58
259.0062, 11480.42
259.4883, 11496.64
259.9704, 11507.78
260.4525, 11515.99
260.9346, 11518.35
261.4167, 11521.36
261.8989, 11534.28
262.3810, 11562.61
262.8631, 11586.10
263.3452, 11597.96
263.8273, 11598.61
264.3094, 11607.05
264.7916, 11627.05
265.2737, 11649.55
265.7558, 11665.00
266.2379, 11670.13
266.7200, 11679.34
267.2021, 11697.03
267.6843, 11722.00
268.1664, 11743.01
268.6485, 11759.08
269.1306, 11772.88
269.6127, 11784.78
270.0948, 11792.68
270.5770, 11807.53
271.0591, 11833.21
271.5412, 11866.64
272.0233, 11894.07
272.5054, 11913.58
272.9875, 11930.53
273.4697, 11948.91
273.9518, 11969.47
274.4339, 11986.97
274.9160, 11999.87
275.3981, 12009.88
275.8802, 12022.81
276.3624, 12039.29
276.8445, 12055.94
277.3266, 12071.12
277.8087, 12084.98
278.2908, 12095.66
278.7729, 12101.32
279.2551, 12105.92
279.7372, 12120.51
280.2193, 12147.10
280.7014, 12171.30
281.1835, 12182.84
281.6656, 12182.03
282.1478, 12188.24
282.6299, 12203.44
283.1120, 12223.53
283.5941, 12242.28
284.0762, 12259.74
284.5583, 12276.33
285.0405, 12292.24
285.5226, 12307.50
286.0047, 12322.27
286.4868, 12336.33
286.9689, 12350.53
287.4510, 12365.57
287.9332, 12381.46
288.4153, 12399.26
288.8974, 12420.88
289.3795, 12444.59
289.8616, 12462.31
290.3438, 12473.36
290.8259, 12482.96
291.3080, 12497.07
291.7901, 12514.89
292.2722, 12532.63
292.7543, 12549.33
293.2365, 12564.82
293.7186, 12578.00
294.2007, 12588.71
294.6828, 12599.37
295.1649, 12612.08
295.6470, 12626.40
296.1292, 12641.33
296.6113, 12656.54
297.0934, 12672.14
297.5755, 12689.95
298.0576, 12709.65
298.5397, 12726.68
299.0219, 12734.39
299.5040, 12737.53
299.9861, 12747.21
300.4682, 12768.10
300.9503, 12791.23
301.4324, 12804.80
301.9146, 12810.85
302.3967, 12818.19
302.8788, 12832.32
303.3609, 12851.13
303.8430, 12871.88
304.3251, 12894.65
304.8073, 12917.50
305.2894, 12937.75
305.7715, 12956.51
306.2536, 12977.14
306.7357, 13004.23
307.2178, 13032.07
307.7000, 13053.70
308.1821, 13067.94
308.6642, 13080.45
309.1463, 13094.99
309.6284, 13110.36
310.1105, 13125.03
310.5927, 13134.23
311.0748, 13145.12
311.5569, 13164.98
312.0390, 13193.84
312.5211, 13221.28
313.0032, 13240.30
313.4854, 13255.75
313.9675, 13272.53
314.4496, 13296.13
314.9317, 13318.29
315.4138, 13335.04
315.8959, 13347.00
316.3781, 13357.89
316.8602, 13366.72
317.3423, 13376.72
317.8244, 13390.74
318.3065, 13415.13
318.7886, 13435.53
319.2708, 13441.11
319.7529, 13438.11
320.2350, 13444.11
320.7171, 13471.33
321.1992, 13503.27
321.6813, 13532.14
322.1635, 13556.75
322.6456, 13578.18
323.1277, 13593.95
323.6098, 13606.86
324.0919, 13621.78
324.5740, 13639.19
325.0562, 13658.59
325.5383, 13679.89
326.0204, 13703.19
326.5025, 13728.04
326.9846, 13758.80
327.4667, 13789.44
327.9489, 13814.01
328.4310, 13829.98
328.9131, 13843.15
329.3952, 13854.67
329.8773, 13864.70
330.3594, 13871.56
330.8416, 13869.13
331.3237, 13868.75
331.8058, 13878.81
332.2879, 13905.86
332.7700, 13932.21
333.2521, 13955.86
333.7343, 13977.62
334.2164, 14002.43
334.6985, 14032.79
335.1806, 14061.58
335.6627, 14084.49
336.1448, 14098.90
336.6270, 14114.42
337.1091, 14131.27
337.5912, 14149.17
338.0733, 14168.04
338.5554, 14188.01
339.0375, 14208.16
339.5197, 14228.27
340.0018, 14248.21
340.4839, 14268.48
340.9660, 14288.98
341.4481, 14309.22
341.9302, 14327.51
342.4124, 14343.75
342.8945, 14361.19
343.3766, 14382.43
343.8587, 14405.55
344.3408, 14420.77
344.8229, 14426.70
345.3051, 14433.48
345.7872, 14453.29
346.2693, 14483.67
346.7514, 14508.46
347.2335, 14522.78
347.7156, 14531.70
348.1978, 14544.86
348.6799, 14562.00
349.1620, 14578.50
349.6441, 14589.29
350.1262, 14597.45
350.6083, 14610.35
351.0905, 14629.56
351.5726, 14651.89
352.0547, 14674.34
352.5368, 14696.97
353.0189, 14720.00
353.5010, 14743.87
353.9832, 14767.92
354.4653, 14792.80
354.9474, 14818.87
355.4295, 14840.29
355.9116, 14844.06
356.3937, 14841.97
356.8759, 14851.70
357.3580, 14891.42
357.8401, 14935.38
358.3222, 14965.59
358.8043, 14984.06
359.2864, 15001.11
359.7686, 15021.14
360.2507, 15042.83
360.7328, 15064.88
361.2149, 15087.27
361.6970, 15109.72
362.1791, 15133.13
362.6613, 15156.34
363.1434, 15176.80
363.6255, 15187.37
364.1076, 15199.75
364.5897, 15221.47
365.0718, 15257.32
365.5540, 15286.78
366.0361, 15300.24
366.5182, 15307.44
367.0003, 15320.13
367.4824, 15350.08
367.9645, 15375.18
368.4467, 15388.12
368.9288, 15388.09
369.4109, 15394.42
369.8930, 15409.99
370.3751, 15430.21
370.8572, 15452.67
371.3394, 15481.34
371.8215, 15505.33
372.3036, 15521.26
372.7857, 15532.01
373.2678, 15548.75
373.7499, 15575.75
374.2321, 15601.00
374.7142, 15615.97
375.1963, 15614.84
375.6784, 15629.81
376.1605, 15666.60
376.6426, 15711.81
377.1248, 15742.35
377.6069, 15755.87
378.0890, 15770.53
378.5711, 15792.69
379.0532, 15821.34
379.5353, 15848.19
380.0175, 15873.66
380.4996, 15896.73
380.9817, 15913.97
381.4638, 15926.50
381.9459, 15945.38
382.4280, 15975.04
382.9102, 16008.87
383.3923, 16031.85
383.8744, 16045.13
384.3565, 16059.51
384.8386, 16081.97
385.3207, 16110.28
385.8029, 16140.64
386.2850, 16173.71
386.7671, 16204.45
387.2492, 16227.23
387.7313, 16243.95
388.2134, 16258.47
388.6956, 16270.90
389.1777, 16283.01
389.6598, 16296.75
390.1419, 16312.15
390.6240, 16328.00
391.1061, 16343.88
391.5883, 16360.19
392.0704, 16377.37
392.5525, 16395.07
393.0346, 16414.68
393.5167, 16438.17
393.9988, 16464.54
394.4810, 16491.12
394.9631, 16515.73
395.4452, 16541.30
395.9273, 16569.29
396.4094, 16600.16
396.8915, 16632.46
397.3737, 16665.82
397.8558, 16700.28
398.3379, 16735.85
398.8200, 16772.50
399.3021, 16809.78
399.7842, 16847.33
400.2664, 16884.97
400.7485, 16923.65
401.2306, 16964.99
401.7127, 17004.88
402.1948, 17040.11
402.6769, 17067.07
403.1591, 17096.92
403.6412, 17131.75
404.1233, 17168.97
404.6054, 17202.17
405.0875, 17228.72
405.5696, 17258.44
406.0518, 17298.63
406.5339, 17350.11
407.0160, 17387.54
407.4981, 17407.91
407.9802, 17422.69
408.4623, 17444.25
408.9445, 17472.83
409.4266, 17504.41
409.9087, 17538.75
410.3908, 17575.18
410.8729, 17610.00
411.3550, 17643.76
411.8372, 17682.05
412.3193, 17735.03
412.8014, 17795.47
413.2835, 17844.53
413.7656, 17877.46
414.2477, 17909.00
414.7299, 17956.09
415.2120, 18013.88
415.6941, 18069.58
416.1762, 18118.60
416.6583, 18162.02
417.1404, 18197.90
417.6226, 18226.70
418.1047, 18257.65
418.5868, 18299.77
419.0689, 18344.72
419.5510, 18385.26
420.0331, 18418.25
420.5153, 18447.51
420.9974, 18470.94
421.4795, 18491.39
421.9616, 18515.04
422.4437, 18554.22
422.9258, 18588.68
423.4080, 18606.76
423.8901, 18600.59
424.3722, 18606.44
424.8543, 18639.86
425.3364, 18681.08
425.8185, 18710.72
426.3007, 18723.99
426.7828, 18733.14
427.2649, 18737.48
427.7470, 18738.29
428.2291, 18745.68
428.7112, 18764.74
429.1934, 18780.93
429.6755, 18783.73
430.1576, 18768.39
430.6397, 18763.51
431.1218, 18771.88
431.6039, 18787.15
432.0861, 18800.90
432.5682, 18813.19
433.0503, 18822.05
433.5324, 18824.95
434.0145, 18824.49
434.4966, 18831.23
434.9788, 18845.60
435.4609, 18859.32
435.9430, 18864.06
436.4251, 18862.87
436.9072, 18863.99
437.3893, 18869.17
437.8715, 18876.75
438.3536, 18884.12
438.8357, 18892.19
439.3178, 18903.46
439.7999, 18919.55
440.2820, 18938.98
440.7642, 18963.23
441.2463, 18992.34
441.7284, 19013.96
442.2105, 19012.91
442.6926, 19004.76
443.1747, 19004.69
443.6569, 19025.21
444.1390, 19043.75
444.6211, 19050.40
445.1032, 19049.29
445.5853, 19052.23
446.0674, 19068.63
446.5496, 19083.54
447.0317, 19089.92
447.5138, 19082.93
447.9959, 19084.65
448.4780, 19101.24
448.9601, 19123.12
449.4423, 19141.12
449.9244, 19153.29
450.4065, 19166.27
450.8886, 19181.19
451.3707, 19197.70
451.8528, 19214.56
452.3350, 19231.36
452.8171, 19249.39
453.2992, 19269.47
453.7813, 19291.40
454.2634, 19313.86
454.7455, 19336.10
455.2277, 19360.19
455.7098, 19392.22
456.1919, 19430.09
456.6740, 19462.43
457.1561, 19482.49
457.6382, 19496.65
458.1204, 19515.83
458.6025, 19539.49
459.0846, 19561.77
459.5667, 19577.35
460.0488, 19590.34
460.5309, 19605.26
461.0131, 19622.21
461.4952, 19644.41
461.9773, 19678.03
462.4594, 19717.26
462.9415, 19753.99
463.4236, 19788.24
463.9058, 19815.89
464.3879, 19830.46
464.8700, 19833.72
465.3521, 19844.24
465.8342, 19872.57
466.3163, 19904.89
466.7985, 19933.52
467.2806, 19954.40
467.7627, 19977.62
468.2448, 20005.39
468.7269, 20034.38
469.2090, 20060.23
469.6912, 20082.54
470.1733, 20102.62
470.6554, 20119.46
471.1375, 20133.73
471.6196, 20153.49
472.1017, 20181.52
472.5839, 20207.03
473.0660, 20220.37
473.5481, 20221.32
474.0302, 20230.35
474.5123, 20250.84
474.9944, 20275.45
475.4766, 20292.66
475.9587, 20303.90
476.4408, 20317.24
476.9229, 20336.27
477.4050, 20359.43
477.8871, 20386.35
478.3693, 20416.51
478.8514, 20443.42
479.3335, 20456.36
479.8156, 20466.25
480.2977, 20487.46
480.7798, 20525.54
481.2620, 20563.66
481.7441, 20589.00
482.2262, 20608.40
482.7083, 20632.01
483.1904, 20663.00
483.6725, 20698.45
484.1547, 20742.21
484.6368, 20792.37
485.1189, 20830.01
485.6010, 20836.94
486.0831, 20842.59
486.5652, 20861.88
487.0474, 20902.06
487.5295, 20940.88
488.0116, 20980.14
488.4937, 21016.22
488.9758, 21042.88
489.4579, 21056.25
489.9401, 21072.53
490.4222, 21097.19
490.9043, 21127.63
491.3864, 21153.11
491.8685, 21173.63
492.3506, 21189.86
492.8328, 21200.33
493.3149, 21206.50
493.7970, 21214.63
494.2791, 21225.08
494.7612, 21239.02
495.2433, 21259.23
495.7255, 21284.40
496.2076, 21311.47
496.6897, 21343.40
497.1718, 21373.17
497.6539, 21391.23
498.1360, 21400.28
498.6182, 21410.76
499.1003, 21426.91
499.5824, 21447.31
500.0645, 21471.30
500.5466, 21499.89
501.0287, 21528.01
501.5109, 21553.02
501.9930, 21577.16
502.4751, 21602.36
502.9572, 21631.01
503.4393, 21657.68
503.9214, 21678.94
504.4036, 21697.25
504.8857, 21723.17
505.3678, 21764.43
505.8499, 21800.24
506.3320, 21819.35
506.8141, 21820.04
507.2963, 21832.17
507.7784, 21858.05
508.2605, 21890.06
508.7426, 21921.88
509.2247, 21953.47
509.7068, 21984.51
510.1890, 22014.42
510.6711, 22044.35
511.1532, 22075.09
511.6353, 22106.86
512.1174, 22140.46
512.5995, 22182.77
513.0817, 22223.80
513.5638, 22248.78
514.0459, 22258.10
514.5280, 22266.96
515.0101, 22287.94
515.4922, 22311.69
515.9744, 22327.70
516.4565, 22325.21
516.9386, 22332.70
517.4207, 22367.49
517.9028, 22416.86
518.3849, 22459.77
518.8671, 22492.29
519.3492, 22518.45
519.8313, 22535.14
520.3134, 22543.42
520.7955, 22563.63
521.2776, 22603.56
521.7598, 22643.55
522.2419, 22670.79
522.7240, 22681.88
523.2061, 22697.71
523.6882, 22718.55
524.1703, 22744.16
524.6525, 22777.22
525.1346, 22817.20
525.6167, 22851.78
526.0988, 22875.44
526.5809, 22894.38
527.0630, 22923.42
527.5452, 22959.82
528.0273, 22987.80
528.5094, 22984.53
528.9915, 22975.18
529.4736, 22992.63
529.9557, 23040.21
530.4379, 23086.29
530.9200, 23107.98
531.4021, 23120.79
531.8842, 23140.02
532.3663, 23170.69
532.8484, 23205.45
533.3306, 23250.53
533.8127, 23297.56
534.2948, 23327.57
534.7769, 23317.53
535.2590, 23315.93
535.7411, 23337.59
536.2233, 23381.62
536.7054, 23415.16
537.1875, 23434.09
537.6696, 23450.91
538.1517, 23473.75
538.6339, 23502.96
539.1160, 23535.64
539.5981, 23573.14
540.0802, 23610.09
540.5623, 23638.96
541.0444, 23660.99
541.5266, 23683.71
542.0087, 23708.96
542.4908, 23736.38
542.9729, 23765.28
543.4550, 23795.32
543.9371, 23826.46
544.4193, 23856.35
544.9014, 23888.88
545.3835, 23930.12
545.8656, 23981.10
546.3477, 24026.50
546.8298, 24054.19
547.3120, 24077.27
547.7941, 24106.40
548.2762, 24151.07
548.7583, 24191.20
549.2404, 24225.96
549.7225, 24254.99
550.2047, 24276.55
550.6868, 24284.52
551.1689, 24297.03
551.6510, 24319.69
552.1331, 24350.96
552.6152, 24380.49
553.0974, 24408.63
553.5795, 24434.84
554.0616, 24456.74
554.5437, 24476.14
555.0258, 24503.27
555.5079, 24539.94
555.9901, 24578.75
556.4722, 24611.25
556.9543, 24640.77
557.4364, 24674.36
557.9185, 24716.56
558.4006, 24759.32
558.8828, 24793.76
559.3649, 24823.55
559.8470, 24858.30
560.3291, 24905.35
560.8112, 24953.84
561.2933, 24999.65
561.7755, 25042.14
562.2576, 25081.65
562.7397, 25115.45
563.2218, 25147.29
563.7039, 25178.89
564.1860, 25209.55
564.6682, 25243.01
565.1503, 25282.90
565.6324, 25322.23
566.1145, 25348.54
566.5966, 25360.21
567.0787, 25381.53
567.5609, 25420.14
568.0430, 25469.46
568.5251, 25518.30
569.0072, 25566.32
569.4893, 25605.31
569.9714, 25624.92
570.4536, 25636.10
570.9357, 25653.29
571.4178, 25676.60
571.8999, 25704.66
572.3820, 25739.74
572.8641, 25776.79
573.3463, 25810.89
573.8284, 25840.99
574.3105, 25868.72
574.7926, 25894.60
575.2747, 25918.03
575.7568, 25938.14
576.2390, 25954.03
576.7211, 25967.33
577.2032, 25975.09
577.6853, 25980.67
578.1674, 25997.07
578.6495, 26029.28
579.1317, 26057.85
579.6138, 26071.76
580.0959, 26073.84
580.5780, 26087.99
581.0601, 26115.15
581.5422, 26147.02
582.0244, 26183.35
582.5065, 26218.88
582.9886, 26234.64
583.4707, 26224.04
583.9528, 26218.37
584.4349, 26251.63
584.9171, 26306.42
585.3992, 26356.97
585.8813, 26398.59
586.3634, 26429.32
586.8455, 26439.11
587.3276, 26436.23
587.8098, 26443.32
588.2919, 26473.02
588.7740, 26504.29
589.2561, 26528.86
589.7382, 26546.32
590.2203, 26575.06
590.7025, 26620.81
591.1846, 26666.80
591.6667, 26702.79
592.1488, 26728.69
592.6309, 26746.82
593.1130, 26755.99
593.5952, 26763.47
594.0773, 26777.37
594.5594, 26797.29
595.0415, 26821.03
595.5236, 26849.42
596.0057, 26879.88
596.4879, 26908.69
596.9700, 26937.15
597.4521, 26967.92
597.9342, 27009.58
598.4163, 27047.44
598.8984, 27067.42
599.3806, 27072.36
599.8627, 27089.04
600.3448, 27136.31
600.8269, 27185.49
601.3090, 27222.29
601.7911, 27241.92
602.2733, 27267.82
602.7554, 27302.67
603.2375, 27339.81
603.7196, 27373.47
604.2017, 27404.13
604.6838, 27427.75
605.1660, 27440.80
605.6481, 27454.50
606.1302, 27490.47
606.6123, 27544.31
607.0944, 27594.92
607.5765, 27632.01
608.0587, 27664.81
608.5408, 27706.79
609.0229, 27754.41
609.5050, 27796.81
609.9871, 27819.88
610.4692, 27841.96
610.9514, 27876.71
611.4335, 27926.12
611.9156, 27967.38
612.3977, 27988.84
612.8798, 28005.91
613.3619, 28027.45
613.8441, 28056.89
614.3262, 28083.32
614.8083, 28105.57
615.2904, 28127.09
615.7725, 28154.18
616.2546, 28187.86
616.7368, 28212.03
617.2189, 28220.87
617.7010, 28224.57
618.1831, 28242.47
618.6652, 28271.66
619.1473, 28300.51
619.6295, 28320.83
620.1116, 28339.57
620.5937, 28364.35
621.0758, 28393.99
621.5579, 28423.52
622.0400, 28446.58
622.5222, 28471.09
623.0043, 28502.59
623.4864, 28543.11
623.9685, 28581.30
624.4506, 28617.58
624.9327, 28649.79
625.4149, 28675.38
625.8970, 28689.85
626.3791, 28710.40
626.8612, 28738.38
627.3433, 28771.15
627.8254, 28805.71
628.3076, 28841.99
628.7897, 28879.55
629.2718, 28920.82
629.7539, 28959.34
630.2360, 28979.50
630.7181, 28987.10
631.2003, 29000.04
631.6824, 29027.48
632.1645, 29064.00
632.6466, 29111.13
633.1287, 29166.44
633.6108, 29212.38
634.0930, 29236.12
634.5751, 29255.32
635.0572, 29277.82
635.5393, 29304.33
636.0214, 29332.78
636.5035, 29364.13
636.9857, 29396.08
637.4678, 29426.88
637.9499, 29456.44
638.4320, 29483.81
638.9141, 29508.32
639.3962, 29531.15
639.8784, 29550.27
640.3605, 29567.94
640.8426, 29596.19
641.3247, 29643.16
641.8068, 29692.96
642.2889, 29726.24
642.7711, 29749.47
643.2532, 29778.11
643.7353, 29826.11
644.2174, 29874.06
644.6995, 29912.52
645.1816, 29942.32
645.6638, 29971.75
646.1459, 30000.74
646.6280, 30030.72
647.1101, 30062.10
647.5922, 30094.39
648.0743, 30130.42
648.5565, 30171.62
649.0386, 30211.16
649.5207, 30239.19
650.0028, 30257.66
650.4849, 30288.08
650.9670, 30332.84
651.4492, 30379.50
651.9313, 30412.05
652.4134, 30437.12
652.8955, 30468.36
653.3776, 30515.69
653.8597, 30556.85
654.3419, 30570.10
654.8240, 30570.59
655.3061, 30581.24
655.7882, 30618.60
656.2703, 30655.88
656.7524, 30688.53
657.2346, 30717.61
657.7167, 30744.04
658.1988, 30763.63
658.6809, 30791.88
659.1630, 30839.43
659.6451, 30900.37
660.1273, 30934.42
660.6094, 30940.10
661.0915, 30949.92
661.5736, 30990.76
662.0557, 31049.17
662.5378, 31099.53
663.0200, 31140.22
663.5021, 31178.02
663.9842, 31216.41
664.4663, 31254.75
664.9484, 31291.88
665.4305, 31327.29
665.9127, 31363.35
666.3948, 31399.61
666.8769, 31437.87
667.3590, 31481.27
667.8411, 31539.15
668.3232, 31582.24
668.8054, 31605.48
669.2875, 31616.07
669.7696, 31621.16
670.2517, 31620.30
670.7338, 31633.36
671.2159, 31669.17
671.6981, 31717.29
672.1802, 31765.38
672.6623, 31811.04
673.1444, 31847.74
673.6265, 31862.04
674.1086, 31873.76
674.5908, 31898.63
675.0729, 31935.06
675.5550, 31970.97
676.0371, 32009.98
676.5192, 32041.41
677.0013, 32055.52
677.4835, 32049.02
677.9656, 32066.38
678.4477, 32115.70
678.9298, 32174.69
679.4119, 32228.81
679.8940, 32278.53
680.3762, 32327.32
680.8583, 32376.59
681.3404, 32418.99
681.8225, 32442.51
682.3046, 32454.49
682.7867, 32470.69
683.2689, 32494.09
683.7510, 32522.37
684.2331, 32551.00
684.7152, 32584.28
685.1973, 32627.07
685.6794, 32699.93
686.1616, 32760.41
686.6437, 32791.57
687.1258, 32808.61
687.6079, 32838.12
688.0900, 32884.62
688.5721, 32930.92
689.0543, 32973.36
689.5364, 33011.59
690.0185, 33042.56
690.5006, 33066.33
690.9827, 33094.64
691.4648, 33142.11
691.9470, 33193.16
692.4291, 33220.93
692.9112, 33229.24
693.3933, 33239.52
693.8754, 33265.49
694.3575, 33296.46
694.8397, 33323.52
695.3218, 33345.39
695.8039, 33379.49
696.2860, 33450.31
696.7681, 33513.65
697.2502, 33542.57
697.7324, 33524.63
698.2145, 33538.45
698.6966, 33592.02
699.1787, 33655.48
699.6608, 33701.98
700.1429, 33732.95
700.6251, 33753.57
701.1072, 33761.34
701.5893, 33775.49
702.0714, 33819.94
702.5535, 33881.12
703.0356, 33940.06
703.5178, 33992.53
703.9999, 34037.98
704.4820, 34068.89
704.9641, 34094.13
705.4462, 34128.75
705.9283, 34183.74
706.4105, 34231.11
706.8926, 34262.92
707.3747, 34288.11
707.8568, 34332.43
708.3389, 34398.54
708.8210, 34452.23
709.3032, 34476.15
709.7853, 34486.55
710.2674, 34516.98
710.7495, 34563.63
711.2316, 34609.00
711.7137, 34641.36
712.1959, 34670.57
712.6780, 34702.78
713.1601, 34738.09
713.6422, 34774.63
714.1243, 34811.74
714.6064, 34850.54
715.0886, 34892.76
715.5707, 34938.96
716.0528, 34978.62
716.5349, 35009.79
717.0170, 35040.63
717.4991, 35078.09
717.9813, 35120.80
718.4634, 35159.95
718.9455, 35195.18
719.4276, 35228.67
719.9097, 35259.67
720.3918, 35291.35
720.8740, 35327.98
721.3561, 35371.18
721.8382, 35414.25
722.3203, 35457.29
722.8024, 35496.88
723.2845, 35529.79
723.7667, 35546.21
724.2488, 35572.70
724.7309, 35611.22
725.2130, 35657.64
725.6951, 35711.29
726.1772, 35773.27
726.6594, 35821.64
727.1415, 35850.08
727.6236, 35870.50
728.1057, 35901.24
728.5878, 35937.26
729.0699, 35964.64
729.5521, 35971.58
730.0342, 35980.61
730.5163, 36007.79
730.9984, 36047.61
731.4805, 36090.19
731.9626, 36144.03
732.4448, 36187.02
732.9269, 36210.25
733.4090, 36221.70
733.8911, 36242.96
734.3732, 36276.06
734.8553, 36309.86
735.3375, 36339.81
735.8196, 36368.99
736.3017, 36404.90
736.7838, 36447.31
737.2659, 36494.75
737.7480, 36552.66
738.2302, 36610.43
738.7123, 36659.87
739.1944, 36701.00
739.6765, 36735.19
740.1586, 36755.05
740.6407, 36775.39
741.1229, 36804.02
741.6050, 36840.62
742.0871, 36871.67
742.5692, 36894.06
743.0513, 36918.79
743.5334, 36950.67
744.0156, 36990.00
744.4977, 37041.36
744.9798, 37105.01
745.4619, 37162.60
745.9440, 37191.94
746.4261, 37210.37
746.9083, 37241.30
747.3904, 37286.88
747.8725, 37330.00
748.3546, 37353.48
748.8367, 37377.35
749.3188, 37416.05
749.8010, 37473.33
750.2831, 37532.43
750.7652, 37602.48
751.2473, 37659.33
751.7294, 37675.71
752.2115, 37652.26
752.6937, 37652.83
753.1758, 37684.21
753.6579, 37720.81
754.1400, 37735.67
754.6221, 37738.85
755.1042, 37745.37
755.5864, 37757.23
756.0685, 37778.42
756.5506, 37820.11
757.0327, 37868.36
757.5148, 37907.98
757.9969, 37930.98
758.4791, 37956.43
758.9612, 37985.69
759.4433, 38015.56
759.9254, 38038.33
760.4075, 38052.99
760.8896, 38081.80
761.3718, 38130.24
761.8539, 38185.51
762.3360, 38236.49
762.8181, 38280.81
763.3002, 38312.54
763.7823, 38323.99
764.2645, 38334.15
764.7466, 38349.91
765.2287, 38372.24
765.7108, 38403.36
766.1929, 38458.59
766.6750, 38501.57
767.1572, 38524.36
767.6393, 38537.50
768.1214, 38561.50
768.6035, 38597.29
769.0856, 38630.96
769.5677, 38657.51
770.0499, 38683.08
770.5320, 38717.32
771.0141, 38758.02
771.4962, 38799.99
771.9783, 38844.61
772.4604, 38885.67
772.9426, 38915.91
773.4247, 38940.01
773.9068, 38968.93
774.3889, 39011.42
774.8710, 39048.01
775.3531, 39074.52
775.8353, 39093.67
776.3174, 39112.17
776.7995, 39130.13
777.2816, 39149.34
777.7637, 39169.02
778.2458, 39192.64
778.7280, 39230.43
779.2101, 39278.18
779.6922, 39320.94
780.1743, 39348.04
780.6564, 39372.46
781.1385, 39397.10
781.6207, 39424.09
782.1028, 39462.02
782.5849, 39519.30
783.0670, 39574.11
783.5491, 39620.19
784.0313, 39659.07
784.5134, 39700.26
784.9955, 39743.86
785.4776, 39778.02
785.9597, 39791.51
786.4418, 39796.32
786.9240, 39808.27
787.4061, 39827.35
787.8882, 39854.02
788.3703, 39894.82
788.8524, 39936.77
789.3345, 39975.96
789.8167, 40011.68
790.2988, 40037.04
790.7809, 40043.02
791.2630, 40057.51
791.7451, 40095.43
792.2272, 40148.83
792.7094, 40181.68
793.1915, 40194.70
793.6736, 40208.76
794.1557, 40238.21
794.6378, 40273.70
795.1199, 40304.15
795.6021, 40329.60
796.0842, 40352.54
796.5663, 40365.78
797.0484, 40384.13
797.5305, 40416.00
798.0126, 40459.70
798.4948, 40503.04
798.9769, 40545.55
799.4590, 40589.11
799.9411, 40636.66
800.4232, 40685.54
800.9053, 40718.77
801.3875, 40738.24
801.8696, 40760.98
802.3517, 40805.34
802.8338, 40852.61
803.3159, 40876.33
803.7980, 40882.32
804.2802, 40906.43
804.7623, 40980.14
805.2444, 41052.21
805.7265, 41098.17
806.2086, 41122.44
806.6907, 41172.82
807.1729, 41257.92
807.6550, 41329.84
808.1371, 41362.29
808.6192, 41366.87
809.1013, 41366.54
809.5834, 41364.11
810.0656, 41375.11
810.5477, 41426.81
811.0298, 41480.40
811.5119, 41502.23
811.9940, 41497.84
812.4761, 41514.32
812.9583, 41583.71
813.4404, 41644.39
813.9225, 41674.92
814.4046, 41681.25
814.8867, 41698.14
815.3688, 41725.66
815.8510, 41760.96
816.3331, 41808.20
816.8152, 41858.54
817.2973, 41892.16
817.7794, 41913.63
818.2615, 41942.16
818.7437, 41991.87
819.2258, 42044.88
819.7079, 42094.25
820.1900, 42139.55
820.6721, 42182.21
821.1542, 42225.67
821.6364, 42258.46
822.1185, 42275.89
822.6006, 42280.35
823.0827, 42273.88
823.5648, 42259.38
824.0469, 42257.96
824.5291, 42292.88
825.0112, 42337.43
825.4933, 42371.65
825.9754, 42395.56
826.4575, 42408.98
826.9396, 42394.45
827.4218, 42390.36
827.9039, 42406.93
828.3860, 42441.14
828.8681, 42486.45
829.3502, 42547.12
829.8323, 42594.41
830.3145, 42612.89
830.7966, 42619.15
831.2787, 42645.58
831.7608, 42686.91
832.2429, 42726.34
832.7250, 42750.90
833.2072, 42777.05
833.6893, 42820.96
834.1714, 42873.16
834.6535, 42906.89
835.1356, 42907.34
835.6177, 42914.95
836.0999, 42938.39
836.5820, 42972.04
837.0641, 42999.82
837.5462, 43023.44
838.0283, 43064.08
838.5104, 43137.33
838.9926, 43213.71
839.4747, 43255.29
839.9568, 43277.52
840.4389, 43308.06
840.9210, 43366.43
841.4031, 43420.64
841.8853, 43457.42
842.3674, 43488.22
842.8495, 43530.81
843.3316, 43588.89
843.8137, 43637.96
844.2958, 43673.27
844.7780, 43699.85
845.2601, 43723.71
845.7422, 43744.74
846.2243, 43762.05
846.7064, 43771.95
847.1885, 43787.02
847.6707, 43819.96
848.1528, 43859.87
848.6349, 43894.32
849.1170, 43923.02
849.5991, 43944.73
850.0812, 43956.60
850.5634, 43967.79
851.0455, 43991.48
851.5276, 44025.94
852.0097, 44053.13
852.4918, 44069.97
852.9739, 44088.17
853.4561, 44117.89
853.9382, 44155.17
854.4203, 44196.09
854.9024, 44240.90
855.3845, 44285.30
855.8666, 44329.43
856.3488, 44371.48
856.8309, 44407.02
857.3130, 44433.49
857.7951, 44470.07
858.2772, 44516.50
858.7593, 44567.61
859.2415, 44625.41
859.7236, 44681.65
860.2057, 44721.67
860.6878, 44744.11
861.1699, 44764.39
861.6520, 44790.88
862.1342, 44817.48
862.6163, 44841.83
863.0984, 44864.38
863.5805, 44881.85
864.0626, 44892.48
864.5447, 44906.21
865.0269, 44935.44
865.5090, 44972.48
865.9911, 44979.39
866.4732, 44962.13
866.9553, 44959.63
867.4374, 45006.78
867.9196, 45068.06
868.4017, 45117.35
868.8838, 45156.00
869.3659, 45204.62
869.8480, 45275.69
870.3301, 45335.23
870.8123, 45368.30
871.2944, 45384.38
871.7765, 45423.39
872.2586, 45481.39
872.7407, 45525.45
873.2228, 45528.64
873.7050, 45524.15
874.1871, 45549.52
874.6692, 45593.27
875.1513, 45630.76
875.6334, 45648.02
876.1155, 45667.18
876.5977, 45693.98
877.0798, 45725.19
877.5619, 45755.45
878.0440, 45785.23
878.5261, 45811.28
879.0082, 45832.21
879.4904, 45852.52
879.9725, 45880.08
880.4546, 45910.92
880.9367, 45937.48
881.4188, 45954.15
881.9009, 45973.54
882.3831, 45998.88
882.8652, 46029.81
883.3473, 46066.69
883.8294, 46114.29
884.3115, 46150.19
884.7936, 46171.82
885.2758, 46190.38
885.7579, 46215.68
886.2400, 46247.45
886.7221, 46284.24
887.2042, 46325.87
887.6863, 46374.98
888.1685, 46448.21
888.6506, 46518.17
889.1327, 46559.45
889.6148, 46565.02
890.0969, 46589.99
890.5790, 46637.78
891.0612, 46694.09
891.5433, 46754.68
892.0254, 46815.55
892.5075, 46857.81
892.9896, 46883.74
893.4717, 46914.40
893.9539, 46974.87
894.4360, 47033.99
894.9181, 47068.64
895.4002, 47082.30
895.8823, 47099.23
896.3644, 47124.86
896.8466, 47149.63
897.3287, 47172.86
897.8108, 47194.01
898.2929, 47203.90
898.7750, 47207.37
899.2571, 47234.24
899.7393, 47314.00
900.2214, 47394.33
900.7035, 47419.70
901.1856, 47417.49
901.6677, 47433.14
902.1498, 47502.63
902.6320, 47551.14
903.1141, 47561.36
903.5962, 47562.86
904.0783, 47602.88
904.5604, 47677.17
905.0425, 47725.28
905.5247, 47735.30
906.0068, 47738.43
906.4889, 47763.04
906.9710, 47798.29
907.4531, 47833.39
907.9352, 47868.57
908.4174, 47899.21
908.8995, 47925.41
909.3816, 47947.61
909.8637, 47962.21
910.3458, 47969.50
910.8279, 47994.76
911.3101, 48038.07
911.7922, 48086.02
912.2743, 48134.29
912.7564, 48177.75
913.2385, 48204.98
913.7206, 48218.85
914.2028, 48242.75
914.6849, 48298.61
915.1670, 48347.92
915.6491, 48377.17
916.1312, 48392.28
916.6133, 48415.09
917.0955, 48446.25
917.5776, 48480.33
918.0597, 48518.64
918.5418, 48555.37
919.0239, 48576.39
919.5060, 48591.74
919.9882, 48620.10
920.4703, 48677.67
920.9524, 48735.32
921.4345, 48785.23
921.9166, 48833.40
922.3987, 48889.13
922.8809, 48952.99
923.3630, 49004.93
923.8451, 49041.00
924.3272, 49073.45
924.8093, 49112.23
925.2914, 49156.56
925.7736, 49207.57
926.2557, 49268.21
926.7378, 49321.06
927.2199, 49355.13
927.7020, 49386.27
928.1841, 49423.17
928.6663, 49466.07
929.1484, 49500.11
929.6305, 49524.80
930.1126, 49561.73
930.5947, 49638.30
931.0768, 49726.63
931.5590, 49782.13
932.0411, 49815.10
932.5232, 49866.70
933.0053, 49981.74
933.4874, 50079.56
933.9695, 50130.58
934.4517, 50156.47
934.9338, 50212.13
935.4159, 50297.76
935.8980, 50393.94
936.3801, 50497.24
936.8622, 50600.85
937.3444, 50687.14
937.8265, 50769.65
938.3086, 50870.34
938.7907, 51003.45
939.2728, 51135.89
939.7549, 51252.64
940.2371, 51374.07
940.7192, 51520.30
941.2013, 51690.96
941.6834, 51872.90
942.1655, 52065.45
942.6476, 52252.73
943.1298, 52402.42
943.6119, 52548.82
944.0940, 52737.62
944.5761, 52970.93
945.0582, 53192.53
945.5403, 53391.80
946.0225, 53572.74
946.5046, 53724.67
946.9867, 53861.41
947.4688, 54050.48
947.9509, 54286.98
948.4330, 54529.45
948.9152, 54769.82
949.3973, 54995.23
949.8794, 55181.11
950.3615, 55345.89
950.8436, 55523.12
951.3257, 55741.95
951.8079, 55941.66
952.2900, 56122.20
952.7721, 56278.73
953.2542, 56400.21
953.7363, 56490.14
954.2184, 56577.39
954.7006, 56667.08
955.1827, 56736.30
955.6648, 56775.42
956.1469, 56781.38
956.6290, 56749.43
957.1111, 56676.94
957.5933, 56579.76
958.0754, 56453.24
958.5575, 56315.72
959.0396, 56185.50
959.5217, 56049.13
960.0038, 55845.04
960.4860, 55583.82
960.9681, 55319.76
961.4502, 55081.27
961.9323, 54851.09
962.4144, 54612.94
962.8965, 54378.24
963.3787, 54179.67
963.8608, 54032.75
964.3429, 53875.84
964.8250, 53697.48
965.3071, 53512.89
965.7892, 53327.26
966.2714, 53156.19
966.7535, 53048.36
967.2356, 53022.51
967.7177, 52987.46
968.1998, 52870.25
968.6819, 52744.77
969.1641, 52666.73
969.6462, 52638.99
970.1283, 52608.20
970.6104, 52572.35
971.0925, 52541.94
971.5746, 52522.07
972.0568, 52511.61
972.5389, 52511.06
973.0210, 52518.20
973.5031, 52526.26
973.9852, 52528.02
974.4673, 52535.68
974.9495, 52555.50
975.4316, 52582.00
975.9137, 52603.84
976.3958, 52620.46
976.8779, 52652.41
977.3600, 52707.29
977.8422, 52762.19
978.3243, 52791.04
978.8064, 52807.14
979.2885, 52825.62
979.7706, 52849.01
980.2527, 52876.73
980.7349, 52911.44
981.2170, 52946.29
981.6991, 52976.44
982.1812, 53002.34
982.6633, 53025.30
983.1454, 53045.94
983.6276, 53077.10
984.1097, 53133.73
984.5918, 53195.90
985.0739, 53253.58
985.5560, 53303.87
986.0381, 53338.01
986.5203, 53348.25
987.0024, 53358.07
987.4845, 53367.36
987.9666, 53384.19
988.4487, 53430.52
988.9308, 53494.02
989.4130, 53535.93
989.8951, 53547.54
990.3772, 53559.02
990.8593, 53595.05
991.3414, 53632.41
991.8235, 53649.97
992.3057, 53646.13
992.7878, 53665.52
993.2699, 53712.93
993.7520, 53753.96
994.2341, 53759.75
994.7162, 53755.10
995.1984, 53786.81
995.6805, 53843.61
996.1626, 53894.18
996.6447, 53918.84
997.1268, 53946.38
997.6089, 53983.05
998.0911, 54025.99
998.5732, 54073.77
999.0553, 54126.36
999.5374, 54169.39
1000.020, 54200.19
1000.502, 54222.36
1000.984, 54230.86
1001.466, 54236.89
1001.948, 54250.52
1002.430, 54272.86
1002.912, 54303.09
1003.394, 54344.96
1003.876, 54386.52
1004.359, 54425.42
1004.841, 54459.27
1005.323, 54473.12
1005.805, 54473.13
1006.287, 54482.84
1006.769, 54524.28
1007.251, 54563.97
1007.733, 54569.04
1008.216, 54570.00
1008.698, 54612.35
1009.180, 54716.31
1009.662, 54783.61
1010.144, 54804.79
1010.626, 54809.45
1011.108, 54817.60
1011.590, 54831.63
1012.072, 54853.73
1012.555, 54884.27
1013.037, 54927.14
1013.519, 55002.97
1014.001, 55067.73
1014.483, 55105.62
1014.965, 55123.15
1015.447, 55143.18
1015.929, 55164.96
1016.411, 55177.06
1016.894, 55169.88
1017.376, 55166.18
1017.858, 55192.48
1018.340, 55231.06
1018.822, 55259.08
1019.304, 55267.59
1019.786, 55283.54
1020.268, 55310.68
1020.751, 55337.04
1021.233, 55349.76
1021.715, 55355.91
1022.197, 55375.52
1022.679, 55406.80
1023.161, 55436.27
1023.643, 55448.00
1024.125, 55466.45
1024.607, 55503.52
1025.090, 55552.34
1025.572, 55600.79
1026.054, 55648.89
1026.536, 55694.50
1027.018, 55737.82
1027.500, 55776.11
1027.982, 55809.47
1028.464, 55834.31
1028.947, 55842.30
1029.429, 55826.25
1029.911, 55829.52
1030.393, 55868.45
1030.875, 55902.62
1031.357, 55906.52
1031.839, 55893.30
1032.321, 55901.06
1032.803, 55930.51
1033.286, 55983.13
1033.768, 56098.69
1034.250, 56192.93
1034.732, 56208.66
1035.214, 56190.30
1035.696, 56201.84
1036.178, 56248.07
1036.660, 56297.88
1037.143, 56351.27
1037.625, 56391.63
1038.107, 56383.28
1038.589, 56365.64
1039.071, 56394.86
1039.553, 56471.23
1040.035, 56534.89
1040.517, 56570.23
1041.000, 56594.84
1041.482, 56608.54
1041.964, 56619.21
1042.446, 56647.57
1042.928, 56690.15
1043.410, 56731.24
1043.892, 56767.80
1044.374, 56799.41
1044.856, 56835.12
1045.339, 56858.43
1045.821, 56847.39
1046.303, 56792.14
1046.785, 56784.18
1047.267, 56826.95
1047.749, 56886.70
1048.231, 56954.77
1048.713, 57016.32
1049.195, 57046.29
1049.677, 57053.05
1050.160, 57060.68
1050.642, 57058.72
1051.124, 57085.75
1051.606, 57160.12
1052.088, 57242.74
1052.570, 57274.62
1053.052, 57268.54
1053.534, 57271.40
1054.017, 57288.62
1054.499, 57313.94
1054.981, 57355.41
1055.463, 57393.06
1055.945, 57415.12
1056.427, 57422.98
1056.909, 57414.82
1057.391, 57388.45
1057.874, 57379.52
1058.356, 57407.63
1058.838, 57444.28
1059.320, 57445.49
1059.802, 57436.82
1060.284, 57457.06
1060.766, 57535.33
1061.248, 57593.06
1061.730, 57617.38
1062.213, 57641.25
1062.695, 57691.46
1063.177, 57759.46
1063.659, 57819.51
1064.141, 57870.50
1064.623, 57908.24
1065.105, 57906.83
1065.587, 57917.39
1066.070, 57979.22
1066.552, 58053.86
1067.034, 58073.13
1067.516, 58033.53
1067.998, 58043.10
1068.480, 58118.36
1068.962, 58200.03
1069.444, 58238.43
1069.927, 58255.79
1070.409, 58271.07
1070.891, 58286.08
1071.373, 58298.91
1071.855, 58309.25
1072.337, 58319.46
1072.819, 58327.68
1073.301, 58341.61
1073.783, 58382.75
1074.266, 58439.01
1074.748, 58484.09
1075.230, 58506.21
1075.712, 58530.14
1076.194, 58563.21
1076.676, 58598.96
1077.158, 58634.38
1077.640, 58669.24
1078.122, 58705.54
1078.604, 58742.39
1079.087, 58773.04
1079.569, 58782.44
1080.051, 58796.01
1080.533, 58832.70
1081.015, 58881.80
1081.497, 58923.55
1081.979, 58954.56
1082.461, 58990.97
1082.944, 59034.87
1083.426, 59076.75
1083.908, 59103.23
1084.390, 59124.99
1084.872, 59158.26
1085.354, 59202.38
1085.836, 59233.90
1086.318, 59238.30
1086.801, 59254.36
1087.283, 59295.23
1087.765, 59346.88
1088.247, 59385.02
1088.729, 59412.96
1089.211, 59436.64
1089.693, 59455.35
1090.175, 59480.55
1090.657, 59523.86
1091.140, 59567.89
1091.622, 59603.42
1092.104, 59630.91
1092.586, 59653.55
1093.068, 59672.04
1093.550, 59694.87
1094.032, 59728.23
1094.514, 59764.10
1094.997, 59800.95
1095.479, 59834.63
1095.961, 59859.36
1096.443, 59871.57
1096.925, 59886.47
1097.407, 59903.35
1097.889, 59928.61
1098.371, 59967.04
1098.854, 60016.40
1099.336, 60082.63
1099.818, 60158.61
1100.300, 60217.18
1100.782, 60252.46
1101.264, 60265.86
1101.746, 60247.71
1102.228, 60226.83
1102.710, 60247.46
1103.193, 60294.82
1103.675, 60328.10
1104.157, 60342.81
1104.639, 60375.96
1105.121, 60484.86
1105.603, 60567.07
1106.085, 60572.48
1106.567, 60531.19
1107.049, 60536.32
1107.531, 60582.82
1108.014, 60631.51
1108.496, 60672.69
1108.978, 60710.88
1109.460, 60730.73
1109.942, 60762.32
1110.424, 60846.18
1110.906, 60986.69
1111.388, 61039.99
1111.871, 60999.40
1112.353, 60966.34
1112.835, 61003.57
1113.317, 61058.34
1113.799, 61063.48
1114.281, 61049.87
1114.763, 61071.17
1115.245, 61171.74
1115.728, 61230.52
1116.210, 61238.15
1116.692, 61237.84
1117.174, 61261.82
1117.656, 61304.08
1118.138, 61361.15
1118.620, 61427.54
1119.102, 61483.00
1119.584, 61507.06
1120.067, 61535.96
1120.549, 61575.77
1121.031, 61618.85
1121.513, 61662.55
1121.995, 61700.42
1122.477, 61700.44
1122.959, 61660.75
1123.441, 61639.13
1123.924, 61689.19
1124.406, 61737.83
1124.888, 61747.38
1125.370, 61736.56
1125.852, 61761.71
1126.334, 61819.86
1126.816, 61870.01
1127.298, 61904.65
1127.781, 61924.44
1128.263, 61916.92
1128.745, 61905.87
1129.227, 61912.39
1129.709, 61936.05
1130.191, 61955.77
1130.673, 61971.13
1131.155, 61991.08
1131.637, 62017.50
1132.120, 62052.65
1132.602, 62102.12
1133.084, 62159.91
1133.566, 62216.41
1134.048, 62268.98
1134.530, 62326.35
1135.012, 62391.87
1135.494, 62446.75
1135.976, 62468.75
1136.458, 62479.99
1136.941, 62520.88
1137.423, 62579.52
1137.905, 62626.48
1138.387, 62638.99
1138.869, 62662.29
1139.351, 62699.27
1139.833, 62745.00
1140.315, 62796.85
1140.798, 62852.43
1141.280, 62912.32
1141.762, 62973.08
1142.244, 63013.29
1142.726, 63002.76
1143.208, 62998.31
1143.690, 63011.96
1144.172, 63038.33
1144.655, 63075.59
1145.137, 63119.32
1145.619, 63152.78
1146.101, 63174.14
1146.583, 63192.61
1147.065, 63206.48
1147.547, 63229.08
1148.029, 63275.02
1148.511, 63330.58
1148.994, 63345.86
1149.476, 63327.60
1149.958, 63335.62
1150.440, 63385.85
1150.922, 63453.02
1151.404, 63534.10
1151.886, 63610.91
1152.368, 63665.42
1152.851, 63700.13
1153.333, 63746.02
1153.815, 63802.27
1154.297, 63855.85
1154.779, 63902.63
1155.261, 63940.91
1155.743, 63959.43
1156.225, 63972.43
1156.708, 63998.92
1157.190, 64042.86
1157.672, 64073.91
1158.154, 64091.61
1158.636, 64104.45
1159.118, 64120.52
1159.600, 64132.18
1160.082, 64116.34
1160.564, 64095.75
1161.047, 64112.77
1161.529, 64201.23
1162.011, 64261.70
1162.493, 64291.46
1162.975, 64307.46
1163.457, 64316.56
1163.939, 64323.96
1164.421, 64330.77
1164.903, 64341.36
1165.385, 64369.94
1165.868, 64432.23
1166.350, 64486.74
1166.832, 64529.98
1167.314, 64561.57
1167.796, 64572.71
1168.278, 64575.01
1168.760, 64584.11
1169.242, 64602.93
1169.725, 64641.25
1170.207, 64730.60
1170.689, 64798.75
1171.171, 64830.95
1171.653, 64846.70
1172.135, 64865.49
1172.617, 64891.00
1173.099, 64940.73
1173.582, 65015.32
1174.064, 65067.29
1174.546, 65044.83
1175.028, 65043.24
1175.510, 65095.91
1175.992, 65170.16
1176.474, 65192.66
1176.956, 65182.13
1177.438, 65198.86
1177.921, 65259.15
1178.403, 65299.88
1178.885, 65257.49
1179.367, 65236.10
1179.849, 65284.23
1180.331, 65378.21
1180.813, 65453.56
1181.295, 65510.02
1181.778, 65541.05
1182.260, 65535.79
1182.742, 65539.31
1183.224, 65574.02
1183.706, 65623.16
1184.188, 65683.50
1184.670, 65749.46
1185.152, 65781.27
1185.635, 65785.64
1186.117, 65799.80
1186.599, 65838.84
1187.081, 65886.75
1187.563, 65959.35
1188.045, 66015.08
1188.527, 66009.01
1189.009, 65950.18
1189.491, 65965.00
1189.974, 66044.73
1190.456, 66124.98
1190.938, 66183.80
1191.420, 66222.05
1191.902, 66225.41
1192.384, 66218.99
1192.866, 66227.53
1193.348, 66251.30
1193.830, 66276.70
1194.313, 66303.66
1194.795, 66333.13
1195.277, 66370.24
1195.759, 66404.48
1196.241, 66421.29
1196.723, 66436.99
1197.205, 66481.71
1197.687, 66557.74
1198.169, 66573.13
1198.652, 66526.72
1199.134, 66491.04
1199.616, 66533.88
1200.098, 66583.62
1200.580, 66590.46
1201.062, 66580.30
1201.544, 66600.31
1202.026, 66651.85
1202.509, 66680.84
1202.991, 66682.07
1203.473, 66697.73
1203.955, 66773.40
1204.437, 66857.94
1204.919, 66924.52
1205.401, 66972.80
1205.883, 66999.23
1206.365, 67002.75
1206.848, 67008.12
1207.330, 67017.83
1207.812, 67034.42
1208.294, 67064.52
1208.776, 67097.79
1209.258, 67126.03
1209.740, 67152.07
1210.222, 67185.65
1210.705, 67227.83
1211.187, 67260.09
1211.669, 67279.09
1212.151, 67297.13
1212.633, 67328.65
1213.115, 67359.84
1213.597, 67380.73
1214.079, 67393.28
1214.562, 67397.78
1215.044, 67394.91
1215.526, 67409.34
1216.008, 67449.29
1216.490, 67492.56
1216.972, 67515.48
1217.454, 67539.47
1217.936, 67583.24
1218.418, 67640.97
1218.901, 67684.05
1219.383, 67712.78
1219.865, 67745.14
1220.347, 67788.67
1220.829, 67824.60
1221.311, 67831.21
1221.793, 67830.84
1222.275, 67840.93
1222.757, 67860.35
1223.240, 67882.89
1223.722, 67907.66
1224.204, 67911.17
1224.686, 67875.17
1225.168, 67850.97
1225.650, 67892.67
1226.132, 67944.34
1226.614, 67961.94
1227.096, 67949.97
1227.579, 67936.95
1228.061, 67925.66
1228.543, 67943.09
1229.025, 68012.73
1229.507, 68079.93
1229.989, 68105.14
1230.471, 68119.98
1230.953, 68148.27
1231.436, 68187.93
1231.918, 68226.24
1232.400, 68262.40
1232.882, 68292.30
1233.364, 68310.56
1233.846, 68329.71
1234.328, 68360.10
1234.810, 68390.45
1235.292, 68408.86
1235.775, 68419.31
1236.257, 68465.07
1236.739, 68536.30
1237.221, 68578.37
1237.703, 68536.07
1238.185, 68512.38
1238.667, 68558.65
1239.149, 68625.98
1239.632, 68686.20
1240.114, 68738.02
1240.596, 68778.56
1241.078, 68808.91
1241.560, 68835.80
1242.042, 68857.48
1242.524, 68882.02
1243.006, 68912.05
1243.489, 68943.48
1243.971, 68976.05
1244.453, 69007.15
1244.935, 69014.87
1245.417, 69009.02
1245.899, 69026.02
1246.381, 69114.61
1246.863, 69177.29
1247.345, 69192.52
1247.828, 69195.55
1248.310, 69215.26
1248.792, 69246.20
1249.274, 69268.88
1249.756, 69289.46
1250.238, 69328.73
1250.720, 69432.86
1251.202, 69492.77
1251.684, 69488.29
1252.167, 69468.42
1252.649, 69469.52
1253.131, 69487.26
1253.613, 69520.84
1254.095, 69563.52
1254.577, 69595.26
1255.059, 69596.43
1255.541, 69612.09
1256.023, 69645.51
1256.506, 69688.13
1256.988, 69745.58
1257.470, 69799.54
1257.952, 69818.23
1258.434, 69812.15
1258.916, 69812.66
1259.398, 69827.82
1259.880, 69836.92
1260.363, 69835.75
1260.845, 69851.34
1261.327, 69941.70
1261.809, 70030.88
1262.291, 70018.28
1262.773, 69944.39
1263.255, 69926.42
1263.737, 69987.08
1264.219, 70003.88
1264.702, 69965.04
1265.184, 69932.55
1265.666, 69969.52
1266.148, 70017.01
1266.630, 70014.91
1267.112, 69996.55
1267.594, 70038.15
1268.076, 70146.41
1268.559, 70216.09
1269.041, 70240.60
1269.523, 70252.88
1270.005, 70268.24
1270.487, 70286.27
1270.969, 70310.55
1271.451, 70334.27
1271.933, 70339.08
1272.416, 70328.77
1272.898, 70366.85
1273.380, 70452.22
1273.862, 70529.10
1274.344, 70563.88
1274.826, 70584.15
1275.308, 70594.16
1275.790, 70602.92
1276.272, 70621.37
1276.755, 70648.41
1277.237, 70686.21
1277.719, 70731.41
1278.201, 70762.76
1278.683, 70749.00
1279.165, 70752.16
1279.647, 70785.84
1280.129, 70834.87
1280.611, 70897.55
1281.094, 70957.47
1281.576, 70970.64
1282.058, 70945.34
1282.540, 70931.36
1283.022, 70941.75
1283.504, 70964.38
1283.986, 71000.23
1284.468, 71039.01
1284.950, 71070.92
1285.433, 71099.26
1285.915, 71125.65
1286.397, 71151.86
1286.879, 71186.52
1287.361, 71238.40
1287.843, 71261.08
1288.325, 71246.41
1288.807, 71238.88
1289.290, 71288.34
1289.772, 71351.32
1290.254, 71397.27
1290.736, 71424.55
1291.218, 71432.01
1291.700, 71416.37
1292.182, 71422.00
1292.664, 71451.27
1293.146, 71493.95
1293.629, 71561.66
1294.111, 71619.48
1294.593, 71642.73
1295.075, 71645.76
1295.557, 71638.27
1296.039, 71623.26
1296.521, 71628.92
1297.003, 71652.91
1297.486, 71672.73
1297.968, 71681.01
1298.450, 71691.23
1298.932, 71714.73
1299.414, 71734.88
1299.896, 71722.95
1300.378, 71697.55
1300.860, 71717.27
1301.343, 71776.86
1301.825, 71837.12
##END=



