##NAMES=Bartelkeite
##RRUFFID=R070114
##IDEAL CHEMISTRY=Pb^2+^Fe^2+^Ge(Ge_2_O_7_)(OH)_2_&#183;H_2_O
##LOCALITY=Tsumeb mine, Tsumeb, Otavi District, Oshikoto, Namibia
##OWNER=RRUFF
##SOURCE=William W. Pinch
##DESCRIPTION=Pistachio green crystals in vug associated with pale yellow prismatic mimetite crystals.
##STATUS=The identification of this mineral is confirmed by single-crystal X-ray diffraction and chemical analysis.
##URL=rruff.info/R070114
##MEASURED CHEMISTRY=Pb_0.97_(Fe^+2^_0.94_Zn_0.01_)_Σ=0.95_^VI^Ge_1.00_^IV^(Ge_1.81_As_0.16_Si_0.01_S_0.01_)_Σ=1.99_O_7_[(OH)_1.94_Cl_0.04_]_Σ=1.98_·1.02H_2_O
120.7725, 790.6489
121.2546, 836.5873
121.7367, 888.8162
122.2189, 953.9574
122.7010, 1027.432
123.1831, 1104.080
123.6652, 1182.186
124.1473, 1262.709
124.6294, 1348.012
125.1115, 1438.110
125.5937, 1528.506
126.0758, 1613.623
126.5579, 1695.786
127.0400, 1780.092
127.5221, 1871.188
128.0043, 1966.880
128.4864, 2060.412
128.9685, 2151.666
129.4506, 2242.111
129.9327, 2334.403
130.4148, 2428.342
130.8969, 2521.383
131.3791, 2606.958
131.8612, 2687.109
132.3433, 2777.853
132.8254, 2881.305
133.3075, 2996.505
133.7896, 3123.698
134.2718, 3263.000
134.7539, 3406.957
135.2360, 3553.487
135.7181, 3700.969
136.2002, 3838.567
136.6823, 3964.521
137.1645, 4079.083
137.6466, 4181.082
138.1287, 4275.132
138.6108, 4350.438
139.0929, 4387.658
139.5750, 4376.738
140.0572, 4358.045
140.5393, 4344.700
141.0214, 4339.271
141.5035, 4325.662
141.9856, 4295.516
142.4677, 4261.071
142.9499, 4250.391
143.4320, 4273.275
143.9141, 4305.801
144.3962, 4336.451
144.8783, 4360.627
145.3604, 4391.434
145.8425, 4426.793
146.3247, 4467.866
146.8068, 4526.445
147.2889, 4615.110
147.7710, 4710.974
148.2531, 4800.830
148.7352, 4872.875
149.2174, 4951.607
149.6995, 5040.244
150.1816, 5138.923
150.6637, 5241.446
151.1458, 5353.062
151.6279, 5465.078
152.1101, 5571.824
152.5922, 5667.949
153.0743, 5762.316
153.5564, 5858.257
154.0385, 5960.300
154.5206, 6053.133
155.0028, 6129.870
155.4849, 6196.623
155.9670, 6263.717
156.4491, 6336.280
156.9312, 6407.414
157.4133, 6473.680
157.8955, 6531.470
158.3776, 6589.310
158.8597, 6654.638
159.3418, 6723.504
159.8239, 6782.340
160.3060, 6823.603
160.7882, 6855.387
161.2703, 6883.303
161.7524, 6910.757
162.2345, 6932.764
162.7166, 6947.262
163.1987, 6954.421
163.6808, 6955.587
164.1630, 6952.740
164.6451, 6943.890
165.1272, 6926.899
165.6093, 6907.834
166.0914, 6875.465
166.5735, 6820.674
167.0557, 6742.475
167.5378, 6652.546
168.0199, 6550.673
168.5020, 6443.285
168.9841, 6341.864
169.4662, 6257.914
169.9484, 6179.357
170.4305, 6091.940
170.9126, 5991.371
171.3947, 5892.874
171.8768, 5809.401
172.3589, 5738.440
172.8411, 5675.637
173.3232, 5616.120
173.8053, 5563.278
174.2874, 5523.738
174.7695, 5504.512
175.2516, 5488.867
175.7338, 5454.181
176.2159, 5404.056
176.6980, 5359.197
177.1801, 5339.048
177.6622, 5333.912
178.1443, 5324.479
178.6264, 5305.704
179.1086, 5280.144
179.5907, 5247.934
180.0728, 5209.341
180.5549, 5175.453
181.0370, 5158.840
181.5191, 5155.391
182.0013, 5151.668
182.4834, 5147.207
182.9655, 5138.439
183.4476, 5113.515
183.9297, 5070.792
184.4118, 5024.672
184.8940, 4991.570
185.3761, 4969.701
185.8582, 4949.759
186.3403, 4927.654
186.8224, 4904.082
187.3046, 4882.530
187.7867, 4863.897
188.2688, 4844.047
188.7509, 4814.391
189.2330, 4775.301
189.7151, 4738.211
190.1973, 4711.954
190.6794, 4694.670
191.1615, 4669.131
191.6436, 4631.277
192.1257, 4588.405
192.6078, 4556.724
193.0900, 4536.563
193.5721, 4517.543
194.0542, 4492.537
194.5363, 4461.829
195.0184, 4429.614
195.5005, 4392.794
195.9826, 4357.553
196.4648, 4346.849
196.9469, 4365.171
197.4290, 4385.979
197.9111, 4386.312
198.3932, 4364.407
198.8753, 4344.680
199.3575, 4329.654
199.8396, 4320.404
200.3217, 4324.979
200.8038, 4346.469
201.2859, 4372.556
201.7680, 4388.715
202.2502, 4391.995
202.7323, 4404.928
203.2144, 4436.906
203.6965, 4486.504
204.1786, 4524.430
204.6607, 4546.637
205.1429, 4563.953
205.6250, 4587.649
206.1071, 4616.663
206.5892, 4655.497
207.0713, 4707.352
207.5534, 4773.117
208.0356, 4839.702
208.5177, 4908.476
208.9998, 4976.482
209.4819, 5037.745
209.9640, 5086.862
210.4461, 5144.752
210.9282, 5220.271
211.4104, 5317.326
211.8925, 5414.169
212.3746, 5508.942
212.8567, 5605.149
213.3388, 5711.648
213.8209, 5832.813
214.3031, 5955.878
214.7852, 6075.075
215.2673, 6186.808
215.7494, 6301.780
216.2315, 6418.074
216.7136, 6538.631
217.1958, 6674.579
217.6779, 6833.857
218.1600, 6996.381
218.6421, 7151.898
219.1242, 7295.662
219.6063, 7445.899
220.0885, 7605.175
220.5706, 7772.508
221.0527, 7947.352
221.5348, 8137.842
222.0169, 8326.026
222.4990, 8501.657
222.9812, 8655.934
223.4633, 8814.560
223.9454, 8978.629
224.4275, 9149.949
224.9096, 9323.539
225.3917, 9504.908
225.8739, 9685.896
226.3560, 9862.069
226.8381, 10041.75
227.3202, 10202.47
227.8023, 10342.06
228.2844, 10459.60
228.7665, 10562.46
229.2487, 10648.78
229.7308, 10719.83
230.2129, 10778.65
230.6950, 10832.87
231.1771, 10859.42
231.6592, 10853.86
232.1414, 10815.73
232.6235, 10751.64
233.1056, 10658.01
233.5877, 10542.72
234.0698, 10414.31
234.5519, 10267.63
235.0341, 10117.61
235.5162, 9965.695
235.9983, 9812.684
236.4804, 9657.832
236.9625, 9504.761
237.4446, 9347.119
237.9268, 9178.361
238.4089, 9008.890
238.8910, 8806.286
239.3731, 8548.957
239.8552, 8217.874
240.3373, 7934.433
240.8195, 7707.139
241.3016, 7522.237
241.7837, 7360.688
242.2658, 7239.428
242.7479, 7113.081
243.2300, 6964.475
243.7122, 6783.035
244.1943, 6623.513
244.6764, 6493.342
245.1585, 6381.031
245.6406, 6264.168
246.1227, 6132.949
246.6048, 6013.401
247.0870, 5916.481
247.5691, 5850.541
248.0512, 5778.889
248.5333, 5695.438
249.0154, 5609.183
249.4975, 5537.441
249.9797, 5486.354
250.4618, 5438.514
250.9439, 5385.926
251.4260, 5321.971
251.9081, 5272.968
252.3902, 5243.292
252.8724, 5226.193
253.3545, 5207.174
253.8366, 5184.570
254.3187, 5163.114
254.8008, 5145.708
255.2829, 5135.910
255.7651, 5119.377
256.2472, 5090.919
256.7293, 5057.691
257.2114, 5037.455
257.6935, 5032.964
258.1756, 5036.383
258.6577, 5045.921
259.1399, 5065.855
259.6220, 5078.907
260.1041, 5080.818
260.5862, 5077.400
261.0683, 5085.521
261.5504, 5111.005
262.0326, 5136.311
262.5147, 5151.366
262.9968, 5150.408
263.4789, 5157.860
263.9610, 5174.224
264.4431, 5199.662
264.9253, 5236.134
265.4074, 5288.393
265.8895, 5340.770
266.3716, 5384.163
266.8537, 5414.628
267.3358, 5450.779
267.8180, 5494.474
268.3001, 5544.084
268.7822, 5596.753
269.2643, 5652.549
269.7464, 5710.617
270.2285, 5769.051
270.7107, 5824.636
271.1928, 5898.591
271.6749, 5999.793
272.1570, 6115.692
272.6391, 6202.904
273.1212, 6251.277
273.6034, 6304.046
274.0855, 6392.336
274.5676, 6522.399
275.0497, 6636.988
275.5318, 6728.402
276.0139, 6804.532
276.4961, 6884.382
276.9782, 6969.829
277.4603, 7051.279
277.9424, 7121.536
278.4245, 7180.597
278.9066, 7236.306
279.3888, 7290.849
279.8709, 7340.904
280.3530, 7378.979
280.8351, 7405.849
281.3172, 7415.740
281.7993, 7402.732
282.2815, 7367.104
282.7636, 7321.455
283.2457, 7266.679
283.7278, 7202.842
284.2099, 7129.876
284.6920, 7047.724
285.1741, 6956.770
285.6563, 6852.838
286.1384, 6737.116
286.6205, 6632.308
287.1026, 6542.402
287.5847, 6460.018
288.0668, 6365.008
288.5490, 6257.429
289.0311, 6165.227
289.5132, 6120.295
289.9953, 6111.175
290.4774, 6074.095
290.9595, 5995.344
291.4417, 5901.263
291.9238, 5835.137
292.4059, 5795.828
292.8880, 5762.396
293.3701, 5714.712
293.8522, 5662.120
294.3344, 5635.791
294.8165, 5642.755
295.2986, 5666.232
295.7807, 5686.087
296.2628, 5702.553
296.7449, 5716.440
297.2271, 5726.772
297.7092, 5734.888
298.1913, 5743.097
298.6734, 5750.954
299.1555, 5761.011
299.6376, 5786.526
300.1198, 5820.190
300.6019, 5834.319
301.0840, 5800.246
301.5661, 5740.214
302.0482, 5689.610
302.5303, 5653.946
303.0125, 5618.205
303.4946, 5566.249
303.9767, 5502.075
304.4588, 5434.875
304.9409, 5373.978
305.4230, 5311.655
305.9052, 5233.293
306.3873, 5134.521
306.8694, 5039.373
307.3515, 4970.648
307.8336, 4920.783
308.3157, 4873.686
308.7979, 4819.214
309.2800, 4766.241
309.7621, 4724.025
310.2442, 4694.743
310.7263, 4666.406
311.2084, 4624.750
311.6906, 4579.784
312.1727, 4547.255
312.6548, 4544.931
313.1369, 4549.023
313.6190, 4543.394
314.1011, 4525.696
314.5833, 4510.412
315.0654, 4513.148
315.5475, 4519.914
316.0296, 4513.046
316.5117, 4470.894
316.9938, 4426.931
317.4760, 4396.250
317.9580, 4380.590
318.4402, 4368.389
318.9223, 4359.736
319.4044, 4351.196
319.8865, 4339.422
320.3686, 4314.811
320.8507, 4295.205
321.3329, 4287.429
321.8150, 4292.016
322.2971, 4298.132
322.7792, 4301.431
323.2613, 4306.555
323.7434, 4317.301
324.2256, 4346.792
324.7077, 4368.644
325.1898, 4373.007
325.6719, 4360.288
326.1540, 4357.621
326.6361, 4377.380
327.1183, 4400.886
327.6004, 4416.089
328.0825, 4416.249
328.5646, 4416.265
329.0467, 4419.071
329.5288, 4423.652
330.0110, 4421.285
330.4931, 4405.895
330.9752, 4389.342
331.4573, 4379.953
331.9394, 4390.742
332.4215, 4384.115
332.9037, 4350.414
333.3858, 4297.460
333.8679, 4255.525
334.3500, 4229.311
334.8321, 4206.018
335.3142, 4178.256
335.7964, 4143.215
336.2785, 4112.632
336.7606, 4088.918
337.2427, 4068.436
337.7248, 4040.785
338.2069, 4002.607
338.6891, 3967.655
339.1712, 3944.871
339.6533, 3936.615
340.1354, 3918.847
340.6175, 3888.130
341.0996, 3852.645
341.5818, 3827.329
342.0639, 3812.877
342.5460, 3801.443
343.0281, 3790.655
343.5102, 3780.399
343.9923, 3765.927
344.4745, 3745.112
344.9566, 3727.776
345.4387, 3732.072
345.9208, 3755.488
346.4029, 3774.697
346.8850, 3775.732
347.3672, 3765.863
347.8493, 3767.890
348.3314, 3782.648
348.8135, 3798.837
349.2956, 3800.478
349.7777, 3793.259
350.2599, 3794.912
350.7419, 3816.739
351.2241, 3847.554
351.7062, 3870.238
352.1883, 3885.218
352.6704, 3900.734
353.1525, 3921.573
353.6346, 3947.346
354.1168, 3978.057
354.5989, 4015.461
355.0810, 4055.644
355.5631, 4093.112
356.0452, 4129.164
356.5273, 4170.089
357.0095, 4226.545
357.4916, 4286.717
357.9737, 4336.832
358.4558, 4366.376
358.9379, 4399.765
359.4200, 4452.153
359.9022, 4518.792
360.3843, 4587.168
360.8664, 4653.719
361.3485, 4719.621
361.8306, 4783.371
362.3127, 4841.175
362.7949, 4907.301
363.2770, 4988.375
363.7591, 5080.064
364.2412, 5175.093
364.7233, 5272.328
365.2054, 5372.642
365.6876, 5472.424
366.1697, 5567.250
366.6518, 5680.724
367.1339, 5831.752
367.6160, 5995.652
368.0981, 6143.243
368.5803, 6253.257
369.0624, 6370.881
369.5445, 6502.289
370.0266, 6646.850
370.5087, 6805.417
370.9908, 6985.146
371.4730, 7172.449
371.9551, 7356.915
372.4372, 7530.886
372.9193, 7719.106
373.4014, 7926.929
373.8835, 8150.683
374.3657, 8374.808
374.8478, 8594.992
375.3299, 8820.725
375.8120, 9057.146
376.2941, 9307.557
376.7762, 9555.638
377.2584, 9796.335
377.7405, 10036.00
378.2226, 10279.93
378.7047, 10532.07
379.1868, 10781.76
379.6689, 11028.01
380.1511, 11268.41
380.6332, 11502.38
381.1153, 11728.67
381.5974, 11946.78
382.0795, 12148.82
382.5616, 12337.58
383.0438, 12512.44
383.5259, 12679.79
384.0080, 12833.50
384.4901, 12963.29
384.9722, 13070.75
385.4543, 13150.30
385.9364, 13199.22
386.4185, 13218.37
386.9007, 13210.40
387.3828, 13173.93
387.8649, 13112.34
388.3470, 13032.24
388.8291, 12932.79
389.3112, 12801.19
389.7934, 12621.18
390.2755, 12410.43
390.7576, 12187.69
391.2397, 11949.00
391.7218, 11707.68
392.2039, 11480.99
392.6861, 11258.97
393.1682, 11010.73
393.6503, 10685.38
394.1324, 10358.00
394.6145, 10075.82
395.0966, 9869.733
395.5788, 9653.724
396.0609, 9392.510
396.5430, 9112.187
397.0251, 8856.700
397.5072, 8652.950
397.9893, 8455.146
398.4715, 8247.533
398.9536, 8025.594
399.4357, 7813.157
399.9178, 7605.199
400.3999, 7409.944
400.8820, 7236.960
401.3642, 7098.704
401.8463, 6961.068
402.3284, 6818.183
402.8105, 6670.308
403.2926, 6518.475
403.7747, 6356.935
404.2569, 6202.007
404.7390, 6068.463
405.2211, 5959.878
405.7032, 5847.592
406.1853, 5723.840
406.6674, 5597.323
407.1496, 5489.853
407.6317, 5402.135
408.1138, 5323.465
408.5959, 5247.401
409.0780, 5174.485
409.5602, 5109.766
410.0423, 5056.456
410.5244, 5004.605
411.0065, 4937.008
411.4886, 4858.048
411.9707, 4789.291
412.4529, 4748.401
412.9350, 4719.654
413.4171, 4676.232
413.8992, 4617.886
414.3813, 4561.036
414.8634, 4517.227
415.3456, 4482.755
415.8277, 4453.229
416.3098, 4432.054
416.7919, 4409.412
417.2740, 4372.519
417.7561, 4326.489
418.2382, 4289.178
418.7203, 4271.145
419.2025, 4264.104
419.6846, 4264.386
420.1667, 4276.649
420.6488, 4283.921
421.1309, 4278.792
421.6130, 4265.724
422.0952, 4252.500
422.5773, 4237.545
423.0594, 4225.649
423.5415, 4216.479
424.0236, 4208.335
424.5057, 4212.594
424.9879, 4244.558
425.4700, 4279.279
425.9521, 4293.363
426.4342, 4269.955
426.9163, 4255.046
427.3984, 4257.546
427.8806, 4274.826
428.3627, 4286.901
428.8448, 4288.535
429.3269, 4296.021
429.8090, 4324.906
430.2911, 4379.753
430.7733, 4417.155
431.2554, 4429.812
431.7375, 4430.193
432.2196, 4443.468
432.7017, 4469.985
433.1838, 4491.939
433.6660, 4494.914
434.1481, 4485.750
434.6302, 4486.666
435.1123, 4497.436
435.5944, 4522.041
436.0765, 4578.046
436.5587, 4651.820
437.0408, 4707.982
437.5229, 4722.499
438.0050, 4725.040
438.4871, 4747.073
438.9692, 4785.987
439.4514, 4827.345
439.9335, 4866.654
440.4156, 4902.000
440.8977, 4928.939
441.3798, 4937.691
441.8619, 4957.569
442.3441, 5015.227
442.8262, 5092.225
443.3083, 5154.482
443.7904, 5173.492
444.2725, 5190.968
444.7546, 5223.576
445.2368, 5274.352
445.7189, 5327.191
446.2010, 5380.730
446.6831, 5434.978
447.1652, 5489.551
447.6473, 5542.338
448.1295, 5598.893
448.6116, 5661.238
449.0937, 5728.321
449.5758, 5790.597
450.0579, 5844.715
450.5400, 5899.831
451.0221, 5960.208
451.5042, 6024.916
451.9864, 6099.087
452.4685, 6187.337
452.9506, 6278.444
453.4327, 6347.638
453.9148, 6394.147
454.3969, 6456.792
454.8791, 6557.404
455.3612, 6684.853
455.8433, 6804.172
456.3254, 6914.256
456.8075, 7019.317
457.2896, 7114.816
457.7718, 7207.035
458.2539, 7307.262
458.7360, 7423.770
459.2181, 7542.681
459.7002, 7645.165
460.1823, 7738.019
460.6645, 7839.900
461.1466, 7973.245
461.6287, 8111.776
462.1108, 8232.203
462.5929, 8328.356
463.0750, 8429.457
463.5572, 8546.337
464.0393, 8675.538
464.5214, 8811.998
465.0035, 8965.923
465.4856, 9113.387
465.9677, 9244.925
466.4499, 9361.009
466.9320, 9478.378
467.4141, 9602.034
467.8962, 9724.269
468.3783, 9839.863
468.8604, 9939.451
469.3426, 10052.79
469.8247, 10185.23
470.3068, 10330.22
470.7889, 10478.20
471.2710, 10631.71
471.7531, 10778.81
472.2353, 10916.19
472.7174, 11044.19
473.1995, 11156.11
473.6816, 11249.47
474.1637, 11342.95
474.6458, 11457.58
475.1280, 11588.70
475.6101, 11714.44
476.0922, 11830.47
476.5743, 11938.46
477.0564, 12036.11
477.5385, 12126.08
478.0207, 12215.49
478.5028, 12317.03
478.9849, 12416.67
479.4670, 12500.68
479.9491, 12567.54
480.4312, 12619.92
480.9134, 12651.36
481.3955, 12671.43
481.8776, 12691.36
482.3597, 12726.10
482.8418, 12749.39
483.3239, 12752.82
483.8060, 12737.11
484.2881, 12708.52
484.7703, 12660.18
485.2524, 12605.86
485.7345, 12553.14
486.2166, 12510.51
486.6987, 12451.52
487.1808, 12373.57
487.6630, 12280.61
488.1451, 12179.92
488.6272, 12076.44
489.1093, 11951.36
489.5914, 11787.28
490.0735, 11594.16
490.5557, 11440.90
491.0378, 11334.48
491.5199, 11237.30
492.0020, 11118.73
492.4841, 10982.45
492.9662, 10846.22
493.4484, 10710.80
493.9305, 10581.60
494.4126, 10477.31
494.8947, 10389.03
495.3768, 10290.26
495.8589, 10147.32
496.3411, 9997.800
496.8232, 9884.758
497.3053, 9809.129
497.7874, 9736.255
498.2695, 9644.863
498.7516, 9548.140
499.2338, 9457.358
499.7159, 9379.075
500.1980, 9303.035
500.6801, 9225.789
501.1622, 9149.716
501.6443, 9080.302
502.1265, 9023.753
502.6086, 8969.670
503.0907, 8918.375
503.5728, 8872.660
504.0549, 8808.302
504.5370, 8712.438
505.0192, 8612.332
505.5013, 8532.893
505.9834, 8476.671
506.4655, 8431.638
506.9476, 8398.809
507.4297, 8373.809
507.9119, 8344.354
508.3940, 8309.792
508.8761, 8281.080
509.3582, 8261.250
509.8403, 8251.688
510.3224, 8260.514
510.8046, 8289.271
511.2867, 8321.647
511.7688, 8336.100
512.2509, 8344.076
512.7330, 8367.781
513.2151, 8419.677
513.6973, 8482.802
514.1794, 8540.395
514.6615, 8597.925
515.1436, 8673.043
515.6257, 8775.479
516.1078, 8897.091
516.5900, 9033.435
517.0721, 9188.275
517.5542, 9345.578
518.0363, 9493.988
518.5184, 9648.097
519.0005, 9822.446
519.4827, 10023.88
519.9648, 10235.93
520.4469, 10447.01
520.9290, 10665.63
521.4111, 10921.05
521.8932, 11220.84
522.3754, 11537.90
522.8575, 11845.60
523.3396, 12144.97
523.8217, 12506.81
524.3038, 12942.47
524.7859, 13407.21
525.2681, 13848.19
525.7502, 14282.91
526.2323, 14776.06
526.7144, 15364.21
527.1965, 16003.58
527.6786, 16628.64
528.1608, 17246.22
528.6429, 17897.71
529.1250, 18579.07
529.6071, 19315.80
530.0892, 20130.95
530.5714, 21039.69
531.0535, 21963.85
531.5356, 22846.41
532.0176, 23733.33
532.4998, 24666.02
532.9819, 25706.27
533.4640, 26738.51
533.9461, 27747.29
534.4282, 28740.71
534.9103, 29759.13
535.3925, 30824.84
535.8746, 31899.53
536.3567, 32985.21
536.8388, 34085.23
537.3209, 35106.89
537.8030, 36040.80
538.2852, 36900.86
538.7673, 37724.58
539.2494, 38504.11
539.7315, 39180.54
540.2136, 39747.24
540.6957, 40196.48
541.1779, 40535.85
541.6600, 40753.10
542.1421, 40800.21
542.6242, 40633.16
543.1063, 40289.23
543.5884, 39810.17
544.0706, 39198.25
544.5527, 38426.60
545.0348, 37450.68
545.5169, 36323.18
545.9990, 35086.14
546.4811, 33667.25
546.9633, 32254.64
547.4454, 30899.06
547.9275, 29589.70
548.4096, 28263.48
548.8917, 26861.92
549.3738, 25519.35
549.8560, 24276.72
550.3381, 23134.32
550.8202, 22008.92
551.3023, 20877.06
551.7844, 19810.18
552.2665, 18864.63
552.7487, 18040.07
553.2308, 17234.60
553.7129, 16429.18
554.1950, 15663.77
554.6771, 15011.46
555.1592, 14453.36
555.6414, 13921.57
556.1235, 13382.79
556.6056, 12858.51
557.0877, 12375.13
557.5698, 11931.14
558.0519, 11516.89
558.5341, 11130.23
559.0162, 10766.03
559.4983, 10432.31
559.9804, 10134.20
560.4625, 9838.876
560.9446, 9520.041
561.4268, 9206.954
561.9089, 8931.709
562.3910, 8711.477
562.8731, 8506.534
563.3552, 8315.314
563.8373, 8137.461
564.3195, 7968.238
564.8016, 7811.667
565.2837, 7656.523
565.7658, 7496.115
566.2479, 7330.322
566.7300, 7180.111
567.2122, 7047.546
567.6943, 6923.714
568.1764, 6798.683
568.6585, 6674.238
569.1406, 6559.841
569.6227, 6457.556
570.1049, 6364.021
570.5870, 6279.872
571.0691, 6203.331
571.5512, 6126.516
572.0333, 6039.361
572.5154, 5957.319
572.9976, 5893.405
573.4797, 5847.437
573.9618, 5799.374
574.4439, 5745.008
574.9260, 5685.737
575.4081, 5622.396
575.8903, 5546.675
576.3724, 5481.197
576.8545, 5429.617
577.3366, 5385.294
577.8187, 5338.840
578.3008, 5289.273
578.7830, 5243.167
579.2651, 5206.261
579.7472, 5171.728
580.2293, 5113.185
580.7114, 5031.761
581.1935, 4953.176
581.6757, 4894.710
582.1578, 4851.115
582.6399, 4817.258
583.1220, 4794.157
583.6041, 4764.745
584.0862, 4706.102
584.5684, 4638.122
585.0505, 4585.187
585.5326, 4570.538
586.0147, 4549.536
586.4968, 4498.477
586.9789, 4430.744
587.4611, 4376.222
587.9432, 4352.519
588.4253, 4326.992
588.9074, 4289.404
589.3895, 4240.046
589.8716, 4203.957
590.3538, 4187.987
590.8359, 4170.499
591.3180, 4132.992
591.8001, 4075.434
592.2822, 4028.507
592.7643, 3995.788
593.2465, 3967.738
593.7286, 3934.267
594.2107, 3895.282
594.6928, 3851.334
595.1749, 3795.333
595.6570, 3742.094
596.1392, 3709.562
596.6213, 3692.766
597.1034, 3675.837
597.5854, 3655.528
598.0676, 3629.148
598.5497, 3586.053
599.0318, 3520.405
599.5139, 3487.562
599.9960, 3533.977
600.4781, 3588.904
600.9603, 3607.456
601.4424, 3581.915
601.9245, 3533.514
602.4066, 3449.399
602.8887, 3357.647
603.3708, 3309.184
603.8530, 3307.904
604.3351, 3300.278
604.8172, 3265.681
605.2993, 3218.051
605.7814, 3192.042
606.2635, 3185.400
606.7457, 3180.513
607.2278, 3165.673
607.7099, 3146.728
608.1920, 3129.000
608.6741, 3112.525
609.1563, 3102.079
609.6384, 3112.907
610.1205, 3124.114
610.6026, 3116.736
611.0847, 3066.394
611.5668, 3026.255
612.0490, 3007.126
612.5311, 3000.330
613.0132, 2993.686
613.4953, 2990.000
613.9774, 2979.613
614.4595, 2956.329
614.9417, 2924.791
615.4238, 2912.469
615.9059, 2921.460
616.3880, 2929.255
616.8701, 2919.421
617.3522, 2897.394
617.8344, 2876.516
618.3165, 2856.932
618.7986, 2847.506
619.2807, 2870.297
619.7628, 2902.781
620.2449, 2913.341
620.7271, 2880.821
621.2092, 2851.421
621.6913, 2850.751
622.1734, 2865.520
622.6555, 2873.421
623.1376, 2863.778
623.6198, 2854.365
624.1019, 2847.915
624.5840, 2844.340
625.0661, 2844.220
625.5482, 2850.543
626.0303, 2853.118
626.5125, 2842.925
626.9946, 2821.076
627.4767, 2814.449
627.9588, 2824.392
628.4409, 2839.348
628.9230, 2849.677
629.4052, 2856.443
629.8873, 2862.126
630.3694, 2867.031
630.8515, 2871.522
631.3336, 2875.981
631.8157, 2880.258
632.2979, 2884.113
632.7800, 2886.298
633.2621, 2889.289
633.7442, 2895.726
634.2263, 2904.262
634.7084, 2907.511
635.1906, 2896.697
635.6727, 2892.184
636.1548, 2903.561
636.6369, 2931.518
637.1190, 2950.568
637.6011, 2957.986
638.0833, 2965.111
638.5654, 2984.468
639.0475, 3012.631
639.5296, 3030.910
640.0117, 3035.388
640.4938, 3038.894
640.9760, 3058.719
641.4581, 3086.604
641.9402, 3108.119
642.4223, 3110.668
642.9044, 3114.906
643.3865, 3137.248
643.8687, 3169.589
644.3508, 3191.989
644.8329, 3187.193
645.3150, 3184.737
645.7971, 3194.757
646.2792, 3216.744
646.7614, 3231.397
647.2435, 3234.521
647.7256, 3239.383
648.2077, 3246.928
648.6898, 3252.430
649.1719, 3289.314
649.6541, 3317.502
650.1362, 3337.450
650.6183, 3324.497
651.1004, 3354.029
651.5825, 3366.535
652.0646, 3378.341
652.5468, 3413.857
653.0289, 3405.688
653.5110, 3440.823
653.9931, 3438.953
654.4752, 3454.696
654.9573, 3468.686
655.4395, 3478.610
655.9216, 3484.974
656.4037, 3490.479
656.8858, 3492.406
657.3679, 3497.851
657.8500, 3509.386
658.3322, 3526.947
658.8143, 3552.276
659.2964, 3587.916
659.7785, 3616.122
660.2606, 3615.726
660.7427, 3596.360
661.2249, 3588.947
661.7070, 3598.293
662.1891, 3606.634
662.6712, 3592.536
663.1533, 3569.702
663.6354, 3556.575
664.1175, 3561.259
664.5996, 3572.662
665.0817, 3595.780
665.5638, 3621.910
666.0460, 3632.724
666.5281, 3617.999
667.0102, 3602.142
667.4923, 3588.489
667.9744, 3577.437
668.4565, 3571.758
668.9387, 3572.020
669.4208, 3574.257
669.9029, 3577.826
670.3850, 3581.778
670.8671, 3581.793
671.3492, 3577.893
671.8314, 3574.058
672.3135, 3573.050
672.7956, 3574.015
673.2777, 3576.212
673.7598, 3579.716
674.2419, 3583.505
674.7241, 3589.564
675.2062, 3594.523
675.6883, 3594.879
676.1704, 3579.224
676.6525, 3574.966
677.1346, 3588.023
677.6168, 3610.054
678.0989, 3625.733
678.5810, 3634.519
679.0631, 3640.099
679.5452, 3641.057
680.0273, 3641.693
680.5095, 3655.799
680.9916, 3681.270
681.4737, 3703.198
681.9558, 3713.520
682.4379, 3715.921
682.9200, 3710.418
683.4022, 3698.025
683.8843, 3691.533
684.3664, 3696.286
684.8485, 3708.650
685.3306, 3727.819
685.8127, 3757.013
686.2949, 3782.861
686.7770, 3806.479
687.2591, 3825.853
687.7412, 3838.417
688.2233, 3843.640
688.7054, 3847.037
689.1876, 3848.390
689.6697, 3849.997
690.1518, 3857.358
690.6339, 3868.128
691.1160, 3872.954
691.5981, 3862.204
692.0803, 3854.508
692.5624, 3875.560
693.0445, 3912.438
693.5266, 3935.681
694.0087, 3915.620
694.4908, 3899.212
694.9730, 3905.524
695.4551, 3933.003
695.9372, 3961.564
696.4193, 3995.757
696.9014, 4023.112
697.3835, 4035.865
697.8657, 4034.875
698.3478, 4036.899
698.8299, 4040.516
699.3120, 4059.002
699.7941, 4117.488
700.2762, 4195.986
700.7584, 4246.995
701.2405, 4262.927
701.7226, 4276.992
702.2047, 4312.724
702.6868, 4359.970
703.1689, 4407.527
703.6511, 4452.127
704.1332, 4498.889
704.6153, 4548.354
705.0974, 4600.700
705.5795, 4656.158
706.0616, 4715.035
706.5438, 4777.046
707.0259, 4842.391
707.5080, 4910.336
707.9901, 4976.107
708.4722, 5040.747
708.9543, 5114.880
709.4365, 5207.389
709.9186, 5309.471
710.4007, 5411.649
710.8828, 5512.239
711.3649, 5606.606
711.8470, 5679.418
712.3292, 5756.146
712.8113, 5855.993
713.2934, 5980.128
713.7755, 6096.525
714.2576, 6191.542
714.7397, 6291.116
715.2219, 6411.120
715.7040, 6552.956
716.1861, 6695.720
716.6682, 6841.553
717.1503, 6981.599
717.6324, 7099.291
718.1146, 7205.194
718.5967, 7336.939
719.0788, 7500.667
719.5609, 7680.366
720.0430, 7871.126
720.5251, 8063.505
721.0073, 8246.555
721.4894, 8392.011
721.9715, 8563.777
722.4536, 8792.741
722.9357, 9050.035
723.4178, 9292.895
723.9000, 9514.286
724.3821, 9729.738
724.8642, 9930.818
725.3463, 10134.87
725.8284, 10390.51
726.3105, 10695.85
726.7927, 11009.26
727.2748, 11306.23
727.7569, 11607.13
728.2390, 11934.30
728.7211, 12286.69
729.2032, 12659.93
729.6853, 13067.46
730.1674, 13481.60
730.6495, 13872.08
731.1317, 14237.35
731.6138, 14665.24
732.0959, 15176.65
732.5780, 15728.74
733.0601, 16301.13
733.5422, 16894.98
734.0244, 17532.44
734.5065, 18226.23
734.9886, 18941.65
735.4707, 19633.49
735.9528, 20326.81
736.4349, 21092.48
736.9171, 21941.74
737.3992, 22831.29
737.8813, 23712.83
738.3634, 24618.32
738.8455, 25567.89
739.3276, 26583.31
739.8098, 27622.02
740.2919, 28680.80
740.7740, 29758.78
741.2561, 30859.24
741.7382, 31968.82
742.2203, 33122.69
742.7025, 34330.43
743.1846, 35552.15
743.6667, 36710.76
744.1488, 37813.25
744.6309, 38907.44
745.1130, 39993.53
745.5952, 41061.48
746.0773, 42128.85
746.5594, 43166.71
747.0415, 44090.21
747.5236, 44823.98
748.0057, 45498.62
748.4879, 46163.65
748.9700, 46808.88
749.4521, 47362.86
749.9342, 47846.13
750.4163, 48192.07
750.8984, 48383.42
751.3806, 48416.19
751.8627, 48265.81
752.3448, 47934.55
752.8269, 47465.61
753.3090, 46909.08
753.7911, 46227.77
754.2733, 45372.79
754.7554, 44340.60
755.2375, 43207.52
755.7196, 41957.03
756.2017, 40649.45
756.6838, 39290.84
757.1660, 37893.73
757.6481, 36493.00
758.1302, 35079.55
758.6123, 33695.72
759.0944, 32356.50
759.5765, 31072.87
760.0587, 29809.11
760.5408, 28561.46
761.0229, 27370.15
761.5050, 26255.13
761.9871, 25201.61
762.4692, 24169.08
762.9514, 23143.86
763.4335, 22178.57
763.9156, 21323.23
764.3977, 20545.06
764.8798, 19803.15
765.3619, 19093.29
765.8441, 18403.67
766.3262, 17722.36
766.8083, 17072.91
767.2904, 16491.20
767.7725, 15980.95
768.2546, 15498.51
768.7368, 15045.80
769.2189, 14614.90
769.7010, 14191.25
770.1831, 13783.08
770.6652, 13410.36
771.1473, 13099.04
771.6295, 12800.58
772.1116, 12485.66
772.5937, 12167.75
773.0758, 11878.29
773.5579, 11625.51
774.0400, 11395.42
774.5222, 11189.03
775.0043, 11002.68
775.4864, 10826.28
775.9685, 10659.13
776.4506, 10503.89
776.9327, 10364.53
777.4149, 10232.98
777.8970, 10084.26
778.3791, 9926.701
778.8612, 9790.849
779.3433, 9706.819
779.8254, 9635.686
780.3076, 9549.811
780.7897, 9452.932
781.2718, 9384.878
781.7539, 9364.790
782.2360, 9348.742
782.7181, 9320.192
783.2003, 9281.866
783.6824, 9258.470
784.1645, 9250.054
784.6466, 9255.664
785.1287, 9283.756
785.6108, 9321.918
786.0930, 9345.882
786.5751, 9356.961
787.0572, 9374.824
787.5393, 9398.170
788.0214, 9441.809
788.5035, 9524.768
788.9857, 9656.671
789.4678, 9760.062
789.9499, 9810.736
790.4320, 9866.728
790.9141, 9962.816
791.3962, 10097.52
791.8784, 10250.28
792.3605, 10422.68
792.8426, 10586.31
793.3247, 10704.03
793.8068, 10804.33
794.2889, 10930.95
794.7711, 11088.76
795.2531, 11267.34
795.7352, 11482.60
796.2173, 11701.32
796.6995, 11898.99
797.1816, 12063.90
797.6637, 12235.05
798.1458, 12411.54
798.6279, 12599.63
799.1100, 12814.12
799.5922, 13050.22
800.0743, 13249.73
800.5564, 13402.76
801.0385, 13551.22
801.5206, 13746.10
802.0027, 13956.90
802.4849, 14148.04
802.9670, 14319.46
803.4491, 14447.28
803.9312, 14488.74
804.4133, 14502.89
804.8954, 14546.52
805.3776, 14634.37
805.8597, 14714.83
806.3418, 14789.45
806.8239, 14848.87
807.3060, 14886.70
807.7881, 14901.24
808.2703, 14888.62
808.7524, 14852.65
809.2345, 14770.03
809.7166, 14585.39
810.1987, 14355.59
810.6808, 14151.40
811.1630, 14014.27
811.6451, 13863.54
812.1272, 13692.55
812.6093, 13496.81
813.0914, 13266.04
813.5735, 12993.15
814.0557, 12717.63
814.5378, 12444.27
815.0199, 12175.62
815.5020, 11918.84
815.9841, 11673.15
816.4662, 11443.66
816.9484, 11244.61
817.4305, 11029.59
817.9126, 10755.55
818.3947, 10455.85
818.8768, 10175.81
819.3589, 9935.271
819.8411, 9704.413
820.3232, 9488.252
820.8053, 9274.568
821.2874, 9042.068
821.7695, 8790.635
822.2516, 8556.096
822.7338, 8346.756
823.2159, 8148.203
823.6980, 7940.154
824.1801, 7731.145
824.6622, 7542.188
825.1443, 7388.036
825.6265, 7239.201
826.1086, 7082.102
826.5907, 6924.508
827.0728, 6782.316
827.5549, 6664.382
828.0370, 6536.315
828.5192, 6391.517
829.0013, 6238.550
829.4834, 6091.817
829.9655, 5951.434
830.4476, 5830.032
830.9297, 5736.830
831.4119, 5647.060
831.8940, 5534.012
832.3761, 5410.394
832.8582, 5296.810
833.3403, 5211.808
833.8224, 5122.164
834.3046, 5019.348
834.7867, 4913.717
835.2688, 4821.244
835.7509, 4742.270
836.2330, 4668.106
836.7151, 4597.904
837.1973, 4529.686
837.6794, 4459.016
838.1615, 4386.649
838.6436, 4313.517
839.1257, 4238.942
839.6078, 4165.329
840.0900, 4089.884
840.5721, 4018.010
841.0542, 3956.312
841.5363, 3912.564
842.0184, 3863.799
842.5005, 3806.734
842.9827, 3745.707
843.4648, 3683.852
843.9469, 3622.728
844.4290, 3574.007
844.9111, 3543.596
845.3932, 3518.404
845.8754, 3490.541
846.3575, 3458.499
846.8396, 3420.127
847.3217, 3372.846
847.8038, 3321.204
848.2859, 3255.799
848.7681, 3194.188
849.2502, 3160.236
849.7323, 3158.559
850.2144, 3150.525
850.6965, 3131.630
851.1786, 3103.293
851.6608, 3061.788
852.1429, 3013.472
852.6250, 2968.245
853.1071, 2925.951
853.5892, 2894.296
854.0714, 2888.511
854.5535, 2890.047
855.0356, 2877.608
855.5177, 2843.255
855.9998, 2810.283
856.4819, 2778.874
856.9641, 2748.912
857.4462, 2717.672
857.9283, 2687.129
858.4104, 2671.350
858.8925, 2674.885
859.3746, 2677.316
859.8568, 2657.079
860.3389, 2628.637
860.8210, 2608.440
861.3030, 2605.157
861.7852, 2595.811
862.2673, 2573.666
862.7494, 2550.094
863.2315, 2534.313
863.7136, 2526.868
864.1957, 2522.200
864.6779, 2520.884
865.1600, 2515.963
865.6421, 2497.866
866.1242, 2473.085
866.6063, 2450.368
867.0884, 2431.086
867.5706, 2415.187
868.0527, 2407.632
868.5348, 2399.727
869.0169, 2384.081
869.4990, 2357.516
869.9811, 2343.063
870.4633, 2343.202
870.9454, 2345.848
871.4275, 2343.091
871.9096, 2335.122
872.3917, 2320.518
872.8738, 2299.479
873.3560, 2278.738
873.8381, 2259.447
874.3202, 2244.318
874.8023, 2238.357
875.2844, 2243.457
875.7665, 2237.268
876.2487, 2214.313
876.7308, 2190.855
877.2129, 2174.456
877.6950, 2164.681
878.1771, 2161.588
878.6592, 2164.513
879.1414, 2165.106
879.6235, 2152.571
880.1056, 2139.641
880.5877, 2139.572
881.0698, 2150.841
881.5519, 2157.021
882.0341, 2152.182
882.5162, 2144.808
882.9983, 2135.224
883.4804, 2125.152
883.9625, 2125.504
884.4446, 2136.196
884.9268, 2142.015
885.4089, 2130.726
885.8910, 2115.062
886.3731, 2110.390
886.8552, 2114.011
887.3373, 2118.379
887.8195, 2121.541
888.3016, 2124.219
888.7837, 2127.766
889.2658, 2130.687
889.7479, 2127.278
890.2300, 2115.906
890.7122, 2112.352
891.1943, 2123.135
891.6764, 2139.115
892.1585, 2144.923
892.6406, 2144.920
893.1227, 2148.610
893.6049, 2161.315
894.0870, 2175.467
894.5691, 2187.187
895.0512, 2199.222
895.5333, 2216.645
896.0154, 2244.064
896.4976, 2260.675
896.9797, 2262.760
897.4618, 2257.304
897.9439, 2249.456
898.4260, 2241.777
898.9081, 2241.908
899.3903, 2252.770
899.8724, 2265.374
900.3545, 2277.023
900.8366, 2286.484
901.3187, 2292.741
901.8008, 2297.667
902.2830, 2293.831
902.7651, 2278.351
903.2472, 2260.616
903.7293, 2250.622
904.2114, 2245.306
904.6935, 2233.633
905.1757, 2215.003
905.6578, 2190.297
906.1399, 2152.129
906.6220, 2114.414
907.1041, 2089.999
907.5862, 2081.545
908.0684, 2066.312
908.5505, 2041.504
909.0326, 2013.710
909.5147, 1985.625
909.9968, 1956.903
910.4789, 1923.916
910.9611, 1887.880
911.4432, 1860.222
911.9253, 1854.927
912.4074, 1854.740
912.8895, 1846.666
913.3716, 1831.910
913.8538, 1817.564
914.3359, 1794.951
914.8180, 1797.694
915.3001, 1795.717
915.7822, 1789.271
916.2643, 1764.978
916.7465, 1763.730
917.2286, 1753.248
917.7107, 1742.387
918.1928, 1744.385
918.6749, 1722.687
919.1570, 1724.482
919.6392, 1716.897
920.1213, 1713.606
920.6034, 1701.021
921.0855, 1691.306
921.5676, 1690.888
922.0497, 1685.324
922.5319, 1676.988
923.0140, 1680.179
923.4961, 1684.351
923.9782, 1686.634
924.4603, 1684.772
924.9424, 1679.345
925.4246, 1669.049
925.9067, 1649.394
926.3888, 1641.066
926.8708, 1652.243
927.3530, 1667.476
927.8351, 1679.193
928.3172, 1687.382
928.7993, 1682.313
929.2814, 1663.880
929.7635, 1647.607
930.2457, 1650.392
930.7278, 1657.699
931.2099, 1650.413
931.6920, 1630.073
932.1741, 1623.102
932.6563, 1651.244
933.1384, 1673.687
933.6205, 1676.683
934.1026, 1665.205
934.5847, 1660.225
935.0668, 1661.251
935.5490, 1659.037
936.0311, 1647.338
936.5132, 1633.416
936.9953, 1623.092
937.4774, 1616.351
937.9595, 1613.393
938.4417, 1614.511
938.9238, 1620.171
939.4059, 1635.371
939.8880, 1649.931
940.3701, 1645.373
940.8522, 1623.145
941.3344, 1606.282
941.8165, 1598.389
942.2986, 1598.235
942.7807, 1612.532
943.2628, 1629.756
943.7449, 1636.263
944.2271, 1626.059
944.7092, 1616.316
945.1913, 1607.424
945.6734, 1601.026
946.1555, 1599.064
946.6376, 1601.204
947.1198, 1601.530
947.6019, 1600.115
948.0840, 1600.682
948.5661, 1609.479
949.0482, 1618.664
949.5303, 1621.322
950.0125, 1617.559
950.4946, 1612.336
950.9767, 1605.352
951.4588, 1598.596
951.9409, 1592.371
952.4230, 1586.931
952.9052, 1582.370
953.3873, 1579.007
953.8694, 1579.225
954.3515, 1586.284
954.8336, 1593.663
955.3157, 1597.765
955.7979, 1598.589
956.2800, 1595.925
956.7621, 1587.959
957.2442, 1579.463
957.7263, 1569.723
958.2084, 1561.380
958.6906, 1557.969
959.1727, 1558.680
959.6548, 1560.345
960.1369, 1562.510
960.6190, 1565.974
961.1011, 1572.589
961.5833, 1579.767
962.0654, 1584.672
962.5475, 1586.452
963.0296, 1593.261
963.5117, 1608.375
963.9938, 1619.252
964.4760, 1618.658
964.9581, 1608.511
965.4402, 1587.783
965.9223, 1560.582
966.4044, 1545.480
966.8865, 1565.952
967.3687, 1586.884
967.8508, 1589.036
968.3329, 1579.137
968.8150, 1576.441
969.2971, 1583.748
969.7792, 1586.154
970.2614, 1579.786
970.7435, 1569.783
971.2256, 1559.571
971.7077, 1552.087
972.1898, 1555.069
972.6719, 1576.604
973.1541, 1590.817
973.6362, 1581.452
974.1183, 1566.128
974.6004, 1557.765
975.0825, 1556.920
975.5646, 1560.951
976.0468, 1570.806
976.5289, 1576.715
977.0110, 1564.811
977.4931, 1548.243
977.9752, 1547.027
978.4573, 1559.372
978.9395, 1565.897
979.4216, 1553.677
979.9037, 1542.154
980.3858, 1535.623
980.8679, 1534.073
981.3500, 1540.558
981.8322, 1554.317
982.3143, 1560.924
982.7964, 1552.147
983.2785, 1541.374
983.7606, 1543.601
984.2427, 1551.700
984.7249, 1555.650
985.2070, 1548.774
985.6891, 1545.217
986.1712, 1547.747
986.6533, 1549.247
987.1354, 1538.213
987.6176, 1519.351
988.0997, 1518.416
988.5818, 1536.671
989.0639, 1552.626
989.5460, 1550.341
990.0281, 1541.604
990.5103, 1531.154
990.9924, 1520.235
991.4745, 1519.818
991.9566, 1533.953
992.4387, 1544.917
992.9208, 1545.258
993.4029, 1539.751
993.8850, 1535.984
994.3671, 1534.439
994.8492, 1536.802
995.3314, 1551.293
995.8135, 1559.094
996.2956, 1547.429
996.7777, 1529.600
997.2598, 1520.073
997.7419, 1519.602
998.2241, 1522.714
998.7062, 1529.766
999.1883, 1534.833
999.6704, 1526.284
1000.153, 1515.898
1000.635, 1522.174
1001.117, 1546.847
1001.599, 1561.183
1002.081, 1549.923
1002.563, 1537.541
1003.045, 1531.867
1003.527, 1531.461
1004.009, 1531.759
1004.492, 1532.511
1004.974, 1531.404
1005.456, 1523.570
1005.938, 1519.051
1006.420, 1529.876
1006.902, 1547.355
1007.384, 1557.570
1007.866, 1559.455
1008.349, 1552.554
1008.831, 1533.196
1009.313, 1514.044
1009.795, 1510.303
1010.277, 1516.998
1010.759, 1523.283
1011.241, 1528.079
1011.723, 1529.671
1012.205, 1527.333
1012.688, 1521.172
1013.170, 1508.618
1013.652, 1491.890
1014.134, 1483.577
1014.616, 1483.913
1015.098, 1491.683
1015.580, 1512.069
1016.062, 1531.008
1016.544, 1526.321
1017.027, 1508.559
1017.509, 1495.877
1017.991, 1499.606
1018.473, 1499.453
1018.955, 1489.738
1019.437, 1481.800
1019.919, 1490.611
1020.401, 1512.819
1020.884, 1526.410
1021.366, 1529.932
1021.848, 1527.741
1022.330, 1517.543
1022.812, 1507.265
1023.294, 1503.662
1023.776, 1506.068
1024.258, 1503.467
1024.740, 1493.536
1025.223, 1488.641
1025.705, 1495.747
1026.187, 1504.802
1026.669, 1493.806
1027.151, 1472.482
1027.633, 1462.081
1028.115, 1476.732
1028.597, 1487.647
1029.079, 1484.272
1029.562, 1477.427
1030.044, 1475.107
1030.526, 1477.320
1031.008, 1480.700
1031.490, 1485.176
1031.972, 1490.883
1032.454, 1501.203
1032.936, 1510.115
1033.419, 1511.706
1033.901, 1506.881
1034.383, 1502.913
1034.865, 1501.584
1035.347, 1497.990
1035.829, 1490.673
1036.311, 1481.351
1036.793, 1469.862
1037.276, 1459.216
1037.758, 1458.573
1038.240, 1473.783
1038.722, 1486.416
1039.204, 1487.606
1039.686, 1484.165
1040.168, 1481.134
1040.650, 1478.624
1041.132, 1470.008
1041.615, 1455.003
1042.097, 1445.367
1042.579, 1452.442
1043.061, 1465.125
1043.543, 1474.829
1044.025, 1481.354
1044.507, 1484.221
1044.989, 1484.792
1045.471, 1478.274
1045.954, 1460.971
1046.436, 1442.314
1046.918, 1436.103
1047.400, 1439.120
1047.882, 1442.686
1048.364, 1445.417
1048.846, 1449.674
1049.328, 1462.191
1049.811, 1471.095
1050.293, 1467.459
1050.775, 1453.213
1051.257, 1446.625
1051.739, 1447.802
1052.221, 1451.886
1052.703, 1457.755
1053.185, 1464.084
1053.667, 1472.931
1054.150, 1480.313
1054.632, 1479.482
1055.114, 1460.070
1055.596, 1447.104
1056.078, 1441.387
1056.560, 1441.117
1057.042, 1448.658
1057.524, 1459.625
1058.006, 1459.643
1058.489, 1449.082
1058.971, 1440.495
1059.453, 1442.404
1059.935, 1445.324
1060.417, 1443.887
1060.899, 1440.766
1061.381, 1445.363
1061.863, 1457.581
1062.346, 1466.318
1062.828, 1468.781
1063.310, 1466.844
1063.792, 1457.650
1064.274, 1447.718
1064.756, 1445.426
1065.238, 1456.259
1065.720, 1459.278
1066.203, 1451.963
1066.685, 1444.182
1067.167, 1443.384
1067.649, 1445.712
1068.131, 1441.202
1068.613, 1431.775
1069.095, 1423.972
1069.577, 1417.881
1070.059, 1417.451
1070.542, 1426.939
1071.024, 1439.281
1071.506, 1446.177
1071.988, 1447.723
1072.470, 1446.144
1072.952, 1441.635
1073.434, 1435.087
1073.916, 1423.430
1074.398, 1413.158
1074.881, 1411.736
1075.363, 1418.382
1075.845, 1416.954
1076.327, 1404.826
1076.809, 1396.318
1077.291, 1397.669
1077.773, 1401.211
1078.255, 1391.995
1078.738, 1377.916
1079.220, 1373.446
1079.702, 1389.520
1080.184, 1396.278
1080.666, 1386.252
1081.148, 1372.997
1081.630, 1365.107
1082.112, 1361.805
1082.594, 1360.102
1083.077, 1359.522
1083.559, 1357.217
1084.041, 1345.847
1084.523, 1338.780
1085.005, 1349.155
1085.487, 1364.832
1085.969, 1365.122
1086.451, 1348.110
1086.933, 1334.813
1087.416, 1327.504
1087.898, 1324.376
1088.380, 1324.496
1088.862, 1327.289
1089.344, 1335.750
1089.826, 1349.326
1090.308, 1348.513
1090.790, 1326.279
1091.272, 1306.429
1091.755, 1295.791
1092.237, 1291.958
1092.719, 1291.930
1093.201, 1295.119
1093.683, 1300.867
1094.165, 1311.087
1094.647, 1317.983
1095.129, 1319.454
1095.612, 1317.172
1096.094, 1310.672
1096.576, 1300.750
1097.058, 1294.761
1097.540, 1292.173
1098.022, 1289.476
1098.504, 1285.094
1098.986, 1279.702
1099.469, 1271.253
1099.951, 1263.053
1100.433, 1260.867
1100.915, 1265.693
1101.397, 1269.877
1101.879, 1273.049
1102.361, 1273.421
1102.843, 1268.630
1103.325, 1260.877
1103.807, 1250.066
1104.290, 1237.074
1104.772, 1231.417
1105.254, 1237.076
1105.736, 1240.105
1106.218, 1235.525
1106.700, 1229.792
1107.182, 1235.565
1107.664, 1247.068
1108.147, 1253.252
1108.629, 1250.727
1109.111, 1247.338
1109.593, 1245.959
1110.075, 1243.034
1110.557, 1236.449
1111.039, 1226.997
1111.521, 1216.923
1112.004, 1206.677
1112.486, 1198.254
1112.968, 1192.721
1113.450, 1188.822
1113.932, 1185.989
1114.414, 1184.491
1114.896, 1184.472
1115.378, 1185.874
1115.860, 1190.995
1116.343, 1200.136
1116.825, 1205.748
1117.307, 1199.434
1117.789, 1189.978
1118.271, 1184.287
1118.753, 1181.445
1119.235, 1176.859
1119.717, 1168.561
1120.199, 1165.370
1120.682, 1169.269
1121.164, 1176.144
1121.646, 1183.861
1122.128, 1190.205
1122.610, 1192.845
1123.092, 1191.552
1123.574, 1183.483
1124.056, 1163.431
1124.539, 1146.839
1125.021, 1138.252
1125.503, 1136.403
1125.985, 1142.834
1126.467, 1153.334
1126.949, 1156.784
1127.431, 1146.646
1127.913, 1139.923
1128.396, 1148.225
1128.878, 1154.151
1129.360, 1144.628
1129.842, 1123.576
1130.324, 1119.336
1130.806, 1128.716
1131.288, 1132.844
1131.770, 1109.514
1132.252, 1093.422
1132.734, 1111.021
1133.217, 1138.062
1133.699, 1144.916
1134.181, 1129.662
1134.663, 1120.003
1135.145, 1117.002
1135.627, 1116.799
1136.109, 1119.060
1136.591, 1120.595
1137.074, 1116.920
1137.556, 1110.454
1138.038, 1110.338
1138.520, 1118.991
1139.002, 1122.373
1139.484, 1117.194
1139.966, 1111.860
1140.448, 1120.139
1140.931, 1130.563
1141.413, 1126.344
1141.895, 1105.898
1142.377, 1098.228
1142.859, 1111.161
1143.341, 1119.910
1143.823, 1115.603
1144.305, 1106.161
1144.787, 1106.961
1145.270, 1111.621
1145.752, 1106.238
1146.234, 1082.058
1146.716, 1072.000
1147.198, 1088.376
1147.680, 1105.430
1148.162, 1109.861
1148.644, 1105.510
1149.126, 1103.781
1149.609, 1103.516
1150.091, 1100.868
1150.573, 1089.729
1151.055, 1083.872
1151.537, 1091.568
1152.019, 1100.547
1152.501, 1099.445
1152.983, 1089.925
1153.466, 1088.583
1153.948, 1094.362
1154.430, 1097.874
1154.912, 1088.566
1155.394, 1081.894
1155.876, 1089.563
1156.358, 1101.059
1156.840, 1102.334
1157.322, 1093.422
1157.805, 1082.716
1158.287, 1070.789
1158.769, 1062.751
1159.251, 1063.466
1159.733, 1068.384
1160.215, 1078.854
1160.697, 1090.565
1161.179, 1087.936
1161.661, 1069.321
1162.144, 1061.557
1162.626, 1071.258
1163.108, 1082.618
1163.590, 1078.141
1164.072, 1069.960
1164.554, 1071.352
1165.036, 1082.386
1165.518, 1085.193
1166.000, 1078.361
1166.483, 1071.061
1166.965, 1065.158
1167.447, 1062.555
1167.929, 1070.417
1168.411, 1080.439
1168.893, 1080.443
1169.375, 1063.800
1169.857, 1061.143
1170.340, 1076.991
1170.822, 1089.280
1171.304, 1085.024
1171.786, 1073.215
1172.268, 1065.578
1172.750, 1061.165
1173.232, 1058.314
1173.714, 1055.680
1174.197, 1057.601
1174.679, 1065.996
1175.161, 1073.845
1175.643, 1075.178
1176.125, 1072.768
1176.607, 1072.721
1177.089, 1073.718
1177.571, 1071.842
1178.053, 1062.837
1178.536, 1054.809
1179.018, 1047.155
1179.500, 1043.246
1179.982, 1049.716
1180.464, 1061.401
1180.946, 1064.556
1181.428, 1060.367
1181.910, 1060.051
1182.392, 1076.583
1182.875, 1084.566
1183.357, 1075.916
1183.839, 1062.543
1184.321, 1062.643
1184.803, 1071.257
1185.285, 1073.589
1185.767, 1068.334
1186.249, 1063.068
1186.732, 1060.873
1187.214, 1059.551
1187.696, 1058.301
1188.178, 1057.687
1188.660, 1058.589
1189.142, 1061.114
1189.624, 1066.368
1190.106, 1074.873
1190.589, 1082.058
1191.071, 1086.802
1191.553, 1088.244
1192.035, 1085.057
1192.517, 1079.087
1192.999, 1075.774
1193.481, 1074.763
1193.963, 1075.297
1194.445, 1078.403
1194.927, 1078.228
1195.410, 1066.239
1195.892, 1056.037
1196.374, 1056.084
1196.856, 1064.176
1197.338, 1070.043
1197.820, 1073.643
1198.302, 1074.878
1198.784, 1073.010
1199.267, 1070.225
1199.749, 1064.781
1200.231, 1061.550
1200.713, 1065.633
1201.195, 1075.874
1201.677, 1079.547
1202.159, 1077.161
1202.641, 1071.504
1203.124, 1056.463
1203.606, 1048.665
1204.088, 1063.910
1204.570, 1083.915
1205.052, 1092.212
1205.534, 1089.074
1206.016, 1081.339
1206.498, 1069.780
1206.980, 1061.848
1207.463, 1065.891
1207.945, 1069.776
1208.427, 1066.350
1208.909, 1060.526
1209.391, 1057.547
1209.873, 1057.333
1210.355, 1057.758
1210.837, 1058.684
1211.319, 1059.615
1211.802, 1059.036
1212.284, 1059.718
1212.766, 1065.877
1213.248, 1072.482
1213.730, 1071.190
1214.212, 1062.552
1214.694, 1054.780
1215.176, 1048.614
1215.659, 1047.883
1216.141, 1063.809
1216.623, 1076.066
1217.105, 1069.285
1217.587, 1054.582
1218.069, 1054.790
1218.551, 1068.322
1219.033, 1079.999
1219.516, 1087.706
1219.998, 1089.901
1220.480, 1081.163
1220.962, 1071.000
1221.444, 1062.035
1221.926, 1056.556
1222.408, 1066.376
1222.890, 1088.043
1223.372, 1087.957
1223.854, 1056.933
1224.337, 1032.008
1224.819, 1043.032
1225.301, 1060.351
1225.783, 1068.684
1226.265, 1069.954
1226.747, 1070.078
1227.229, 1068.994
1227.711, 1066.232
1228.193, 1061.549
1228.676, 1055.768
1229.158, 1044.308
1229.640, 1037.647
1230.122, 1043.626
1230.604, 1057.629
1231.086, 1060.087
1231.568, 1054.004
1232.050, 1055.331
1232.533, 1072.720
1233.015, 1083.284
1233.497, 1064.253
1233.979, 1047.831
1234.461, 1054.281
1234.943, 1076.214
1235.425, 1085.618
1235.907, 1083.431
1236.390, 1071.585
1236.872, 1042.687
1237.354, 1024.806
1237.836, 1034.886
1238.318, 1052.541
1238.800, 1070.231
1239.282, 1085.719
1239.764, 1088.736
1240.246, 1081.409
1240.729, 1070.040
1241.211, 1050.552
1241.693, 1041.578
1242.175, 1054.001
1242.657, 1067.974
1243.139, 1069.383
1243.621, 1062.969
1244.103, 1065.189
1244.585, 1073.495
1245.068, 1080.416
1245.550, 1083.820
1246.032, 1084.115
1246.514, 1079.807
1246.996, 1075.910
1247.478, 1077.348
1247.960, 1081.408
1248.442, 1080.972
1248.925, 1077.010
1249.407, 1072.101
1249.889, 1061.925
1250.371, 1060.718
1250.853, 1073.640
1251.335, 1084.240
1251.817, 1073.190
1252.299, 1054.175
1252.781, 1056.749
1253.264, 1072.973
1253.746, 1080.455
1254.228, 1063.205
1254.710, 1057.661
1255.192, 1068.089
1255.674, 1078.690
1256.156, 1072.730
1256.638, 1061.271
1257.120, 1059.796
1257.603, 1065.464
1258.085, 1069.613
1258.567, 1070.324
1259.049, 1072.707
1259.531, 1077.848
1260.013, 1079.476
1260.495, 1067.117
1260.977, 1052.994
1261.460, 1050.049
1261.942, 1055.770
1262.424, 1062.171
1262.906, 1068.306
1263.388, 1078.956
1263.870, 1095.241
1264.352, 1104.616
1264.834, 1088.500
1265.317, 1069.529
1265.799, 1066.885
1266.281, 1075.052
1266.763, 1081.234
1267.245, 1085.644
1267.727, 1084.208
1268.209, 1076.629
1268.691, 1069.632
1269.173, 1066.091
1269.656, 1066.689
1270.138, 1078.274
1270.620, 1090.770
1271.102, 1084.244
1271.584, 1061.166
1272.066, 1058.847
1272.548, 1079.073
1273.030, 1095.582
1273.512, 1083.829
1273.995, 1075.784
1274.477, 1086.930
1274.959, 1104.587
1275.441, 1110.596
1275.923, 1107.005
1276.405, 1101.206
1276.887, 1093.905
1277.369, 1086.339
1277.852, 1074.829
1278.334, 1069.327
1278.816, 1073.091
1279.298, 1081.303
1279.780, 1090.330
1280.262, 1097.998
1280.744, 1096.882
1281.226, 1088.010
1281.708, 1082.784
1282.191, 1088.175
1282.673, 1090.150
1283.155, 1086.006
1283.637, 1079.944
1284.119, 1076.480
1284.601, 1074.517
1285.083, 1071.158
1285.565, 1067.282
1286.047, 1070.375
1286.530, 1085.094
1287.012, 1090.548
1287.494, 1082.534
1287.976, 1072.393
1288.458, 1070.272
1288.940, 1072.394
1289.422, 1077.340
1289.904, 1083.355
1290.386, 1084.084
1290.869, 1078.757
1291.351, 1076.115
1291.833, 1077.444
1292.315, 1079.038
1292.797, 1078.305
1293.279, 1076.487
1293.761, 1073.051
1294.243, 1069.690
1294.726, 1070.937
1295.208, 1076.067
1295.690, 1075.669
1296.172, 1068.885
1296.654, 1062.820
1297.136, 1059.007
1297.618, 1061.030
1298.100, 1073.572
1298.583, 1087.520
1299.065, 1086.249
1299.547, 1074.679
1300.029, 1067.019
1300.511, 1064.364
1300.993, 1063.339
1301.475, 1062.078
1301.957, 1064.155
1302.439, 1072.039
1302.922, 1079.149
1303.404, 1075.334
1303.886, 1066.227
1304.368, 1059.340
1304.850, 1055.573
1305.332, 1056.354
1305.814, 1061.209
1306.296, 1073.534
1306.778, 1096.454
1307.261, 1112.631
1307.743, 1095.960
1308.225, 1072.223
1308.707, 1065.673
1309.189, 1074.226
##END=



