##NAMES=Barysilite
##RRUFFID=R070651
##IDEAL CHEMISTRY=Pb^2+^_8_Mn^2+^(Si_2_O_7_)_3_
##LOCALITY=Kombat mine, Kombat, Grootfontein District, Otjozondjupa Region, Namibia
##OWNER=RRUFF
##SOURCE=William W. Pinch
##DESCRIPTION=Colorless lamellar aggregate associated with colorless kombatite, R070720, and black jacobsite, R070719
##STATUS=The identification of this mineral has been confirmed by single-crystal X-ray diffraction.
##URL=rruff.info/R070651
111.9313, 7223.289
112.4134, 7559.729
112.8956, 7856.761
113.3777, 8080.545
113.8598, 8264.574
114.3419, 8456.384
114.8240, 8666.908
115.3061, 8886.920
115.7883, 9110.770
116.2704, 9347.336
116.7525, 9577.623
117.2346, 9809.021
117.7167, 10032.86
118.1988, 10219.55
118.6810, 10349.70
119.1631, 10441.61
119.6452, 10511.46
120.1273, 10566.45
120.6094, 10600.53
121.0915, 10607.46
121.5737, 10587.17
122.0558, 10550.07
122.5379, 10502.78
123.0200, 10443.62
123.5021, 10369.55
123.9842, 10251.90
124.4664, 10128.88
124.9485, 10049.76
125.4306, 10027.06
125.9127, 10026.25
126.3948, 10005.60
126.8769, 9971.438
127.3591, 9954.070
127.8412, 9981.315
128.3233, 10040.90
128.8054, 10100.48
129.2875, 10138.50
129.7696, 10172.12
130.2518, 10244.26
130.7339, 10367.69
131.2160, 10511.42
131.6981, 10627.79
132.1802, 10716.88
132.6623, 10785.04
133.1445, 10830.63
133.6266, 10855.67
134.1087, 10875.70
134.5908, 10895.07
135.0729, 10899.37
135.5550, 10868.73
136.0372, 10803.85
136.5193, 10700.69
137.0014, 10538.42
137.4835, 10311.15
137.9656, 10118.85
138.4477, 9980.934
138.9299, 9879.020
139.4120, 9733.432
139.8941, 9517.992
140.3762, 9314.420
140.8583, 9198.206
141.3404, 9214.897
141.8226, 9177.318
142.3047, 9031.503
142.7868, 8774.336
143.2689, 8577.352
143.7510, 8463.638
144.2331, 8391.146
144.7152, 8307.021
145.1974, 8201.278
145.6795, 8098.466
146.1616, 8005.770
146.6437, 7930.897
147.1258, 7848.276
147.6079, 7754.284
148.0901, 7652.100
148.5722, 7554.515
149.0543, 7455.534
149.5364, 7365.024
150.0185, 7288.036
150.5006, 7239.463
150.9828, 7186.507
151.4649, 7120.627
151.9470, 7044.222
152.4291, 6986.123
152.9112, 6945.142
153.3933, 6923.690
153.8755, 6923.104
154.3576, 6962.790
154.8397, 7004.452
155.3218, 7040.100
155.8039, 7068.819
156.2860, 7097.027
156.7682, 7113.355
157.2503, 7132.457
157.7324, 7173.073
158.2145, 7245.773
158.6966, 7335.499
159.1787, 7434.392
159.6609, 7535.315
160.1430, 7659.649
160.6251, 7808.577
161.1072, 7983.663
161.5893, 8191.057
162.0714, 8446.696
162.5536, 8726.119
163.0357, 9011.535
163.5178, 9274.686
163.9999, 9571.383
164.4820, 9917.397
164.9641, 10314.14
165.4463, 10764.62
165.9284, 11284.54
166.4105, 11854.04
166.8926, 12451.67
167.3747, 13072.40
167.8568, 13716.47
168.3390, 14393.02
168.8211, 15091.22
169.3032, 15803.58
169.7853, 16524.09
170.2674, 17252.41
170.7495, 17988.16
171.2317, 18727.42
171.7138, 19478.88
172.1959, 20248.15
172.6780, 21037.08
173.1601, 21830.03
173.6422, 22589.67
174.1244, 23337.63
174.6065, 24125.74
175.0886, 24991.36
175.5707, 25922.18
176.0528, 26906.38
176.5349, 27942.07
177.0171, 29013.90
177.4992, 30116.40
177.9813, 31241.16
178.4634, 32403.91
178.9455, 33593.20
179.4276, 34819.55
179.9098, 36138.83
180.3919, 37609.32
180.8740, 39152.03
181.3561, 40712.13
181.8382, 42276.80
182.3203, 43824.95
182.8025, 45444.18
183.2846, 47055.54
183.7667, 48404.91
184.2488, 49409.06
184.7309, 50071.56
185.2130, 50369.21
185.6951, 50318.80
186.1773, 49884.14
186.6594, 48952.81
187.1415, 47547.46
187.6236, 45883.21
188.1057, 43968.10
188.5878, 41860.05
189.0700, 39723.53
189.5521, 37587.64
190.0342, 35477.85
190.5163, 33403.84
190.9984, 31380.20
191.4805, 29442.21
191.9627, 27623.88
192.4448, 25926.07
192.9269, 24370.03
193.4090, 22968.81
193.8911, 21705.99
194.3732, 20543.07
194.8554, 19471.68
195.3375, 18489.16
195.8196, 17593.55
196.3017, 16785.55
196.7838, 16050.37
197.2659, 15398.72
197.7481, 14821.02
198.2302, 14244.50
198.7123, 13658.41
199.1944, 13104.71
199.6765, 12644.41
200.1586, 12281.90
200.6408, 11945.95
201.1229, 11608.48
201.6050, 11271.70
202.0871, 10966.90
202.5692, 10697.34
203.0513, 10453.91
203.5335, 10218.83
204.0156, 9987.623
204.4977, 9782.165
204.9798, 9622.944
205.4619, 9521.003
205.9440, 9390.450
206.4262, 9216.846
206.9083, 9021.481
207.3904, 8860.946
207.8725, 8744.393
208.3546, 8637.112
208.8367, 8516.187
209.3189, 8373.605
209.8010, 8249.834
210.2831, 8154.511
210.7652, 8078.734
211.2473, 7979.440
211.7294, 7845.715
212.2116, 7710.036
212.6937, 7600.582
213.1758, 7525.098
213.6579, 7447.273
214.1400, 7355.416
214.6221, 7252.046
215.1043, 7181.045
215.5864, 7154.932
216.0685, 7142.449
216.5506, 7111.870
217.0327, 7054.644
217.5148, 7000.270
217.9970, 6951.933
218.4791, 6909.218
218.9612, 6886.144
219.4433, 6892.055
219.9254, 6907.943
220.4075, 6907.150
220.8897, 6878.704
221.3718, 6855.634
221.8539, 6850.600
222.3360, 6869.224
222.8181, 6876.653
223.3002, 6867.081
223.7824, 6849.732
224.2645, 6840.625
224.7466, 6839.051
225.2287, 6847.016
225.7108, 6867.332
226.1929, 6906.584
226.6750, 6940.056
227.1572, 6966.465
227.6393, 6987.362
228.1214, 7005.712
228.6035, 7015.910
229.0856, 7031.796
229.5677, 7062.200
230.0499, 7117.659
230.5320, 7161.009
231.0141, 7180.071
231.4962, 7184.886
231.9783, 7220.415
232.4604, 7304.467
232.9426, 7395.529
233.4247, 7470.125
233.9068, 7520.805
234.3889, 7567.438
234.8710, 7610.126
235.3531, 7649.849
235.8353, 7692.201
236.3174, 7740.613
236.7995, 7788.011
237.2816, 7827.455
237.7637, 7849.149
238.2458, 7882.408
238.7280, 7935.302
239.2101, 8007.459
239.6922, 8073.301
240.1743, 8137.319
240.6564, 8190.576
241.1385, 8222.622
241.6207, 8220.253
242.1028, 8221.202
242.5849, 8238.703
243.0670, 8276.331
243.5491, 8280.910
244.0313, 8227.117
244.5134, 8161.421
244.9955, 8139.637
245.4776, 8184.446
245.9597, 8234.473
246.4418, 8278.663
246.9240, 8319.006
247.4061, 8340.047
247.8882, 8327.969
248.3703, 8306.476
248.8524, 8309.665
249.3345, 8343.869
249.8167, 8392.176
250.2988, 8451.866
250.7809, 8525.978
251.2630, 8599.422
251.7451, 8670.269
252.2272, 8740.727
252.7094, 8816.350
253.1915, 8906.997
253.6736, 8986.063
254.1557, 9042.271
254.6378, 9069.166
255.1199, 9095.119
255.6021, 9123.400
256.0842, 9148.991
256.5663, 9160.984
257.0484, 9159.148
257.5305, 9144.085
258.0126, 9118.842
258.4948, 9090.963
258.9769, 9030.536
259.4590, 8930.721
259.9411, 8800.800
260.4232, 8661.701
260.9053, 8511.068
261.3875, 8355.231
261.8696, 8195.530
262.3517, 8037.066
262.8338, 7866.264
263.3159, 7677.328
263.7980, 7477.081
264.2802, 7298.036
264.7623, 7147.319
265.2444, 7000.135
265.7265, 6837.041
266.2086, 6654.736
266.6907, 6477.545
267.1729, 6304.247
267.6550, 6139.668
268.1371, 6003.032
268.6192, 5905.241
269.1013, 5813.466
269.5834, 5701.078
270.0656, 5560.321
270.5477, 5442.973
271.0298, 5362.681
271.5119, 5310.498
271.9940, 5245.096
272.4761, 5162.535
272.9583, 5078.372
273.4404, 4999.839
273.9225, 4924.920
274.4046, 4870.820
274.8867, 4846.946
275.3688, 4844.770
275.8510, 4822.588
276.3331, 4775.494
276.8152, 4723.621
277.2973, 4685.009
277.7794, 4661.368
278.2615, 4632.706
278.7437, 4587.750
279.2258, 4535.741
279.7079, 4530.525
280.1900, 4585.397
280.6721, 4635.842
281.1542, 4610.486
281.6364, 4505.125
282.1185, 4420.954
282.6006, 4380.834
283.0827, 4377.867
283.5648, 4392.475
284.0469, 4429.166
284.5291, 4460.254
285.0112, 4453.249
285.4933, 4409.393
285.9754, 4369.539
286.4575, 4344.727
286.9396, 4331.398
287.4217, 4319.340
287.9038, 4308.771
288.3860, 4297.193
288.8681, 4279.717
289.3502, 4257.462
289.8323, 4239.987
290.3144, 4231.790
290.7965, 4229.739
291.2787, 4225.736
291.7608, 4219.662
292.2429, 4212.594
292.7250, 4202.856
293.2071, 4191.960
293.6892, 4187.845
294.1714, 4198.612
294.6535, 4215.630
295.1356, 4219.488
295.6177, 4209.939
296.0998, 4194.730
296.5819, 4176.839
297.0641, 4158.300
297.5462, 4146.249
298.0283, 4146.855
298.5104, 4153.395
298.9925, 4153.742
299.4746, 4147.827
299.9568, 4142.375
300.4389, 4143.687
300.9210, 4149.861
301.4031, 4156.358
301.8852, 4155.373
302.3673, 4157.217
302.8495, 4181.903
303.3316, 4228.584
303.8137, 4270.936
304.2958, 4279.638
304.7779, 4269.383
305.2600, 4266.288
305.7422, 4288.848
306.2243, 4317.272
306.7064, 4327.187
307.1885, 4319.893
307.6706, 4319.804
308.1527, 4354.737
308.6349, 4405.378
309.1170, 4444.284
309.5991, 4450.691
310.0812, 4450.070
310.5633, 4460.436
311.0454, 4481.566
311.5276, 4506.898
312.0097, 4536.116
312.4918, 4566.132
312.9739, 4593.866
313.4560, 4614.536
313.9381, 4635.531
314.4203, 4659.778
314.9024, 4687.604
315.3845, 4719.105
315.8666, 4753.975
316.3487, 4792.681
316.8308, 4835.663
317.3130, 4880.459
317.7951, 4932.075
318.2772, 4999.553
318.7593, 5080.573
319.2414, 5146.678
319.7235, 5177.389
320.2057, 5195.065
320.6878, 5217.438
321.1699, 5254.000
321.6520, 5290.353
322.1341, 5324.822
322.6162, 5357.099
323.0984, 5382.435
323.5805, 5398.006
324.0626, 5407.623
324.5447, 5413.865
325.0268, 5423.894
325.5089, 5423.161
325.9911, 5408.218
326.4732, 5379.751
326.9553, 5344.608
327.4374, 5289.808
327.9195, 5237.148
328.4016, 5198.713
328.8838, 5190.352
329.3659, 5175.907
329.8480, 5145.296
330.3301, 5103.490
330.8122, 5082.190
331.2943, 5098.216
331.7765, 5117.740
332.2586, 5121.734
332.7407, 5102.023
333.2228, 5080.558
333.7049, 5051.778
334.1870, 5021.836
334.6692, 5019.649
335.1513, 5065.948
335.6334, 5106.917
336.1155, 5109.724
336.5976, 5060.954
337.0797, 5017.107
337.5619, 4983.382
338.0440, 4955.747
338.5261, 4922.625
339.0082, 4881.680
339.4903, 4842.294
339.9724, 4812.700
340.4546, 4794.746
340.9367, 4766.471
341.4188, 4722.951
341.9009, 4672.719
342.3830, 4632.939
342.8651, 4604.314
343.3473, 4581.184
343.8294, 4559.209
344.3115, 4539.034
344.7936, 4533.739
345.2757, 4548.684
345.7578, 4567.571
346.2400, 4559.697
346.7221, 4526.980
347.2042, 4499.625
347.6863, 4496.200
348.1684, 4510.341
348.6505, 4520.259
349.1327, 4523.850
349.6148, 4528.386
350.0969, 4540.699
350.5790, 4560.777
351.0611, 4588.932
351.5432, 4641.383
352.0254, 4696.483
352.5075, 4714.723
352.9896, 4691.602
353.4717, 4661.276
353.9538, 4649.701
354.4359, 4653.861
354.9181, 4668.366
355.4002, 4704.350
355.8823, 4741.566
356.3644, 4756.959
356.8465, 4750.114
357.3286, 4745.701
357.8108, 4761.959
358.2929, 4789.737
358.7750, 4817.270
359.2571, 4845.271
359.7392, 4867.783
360.2213, 4879.740
360.7035, 4881.680
361.1856, 4881.810
361.6677, 4877.042
362.1498, 4875.170
362.6319, 4882.859
363.1140, 4916.323
363.5962, 4944.808
364.0783, 4953.012
364.5604, 4944.772
365.0425, 4947.524
365.5246, 4979.248
366.0067, 5016.555
366.4889, 5045.003
366.9710, 5060.500
367.4531, 5070.257
367.9352, 5065.917
368.4173, 5053.481
368.8994, 5059.744
369.3815, 5098.869
369.8636, 5144.710
370.3458, 5186.396
370.8279, 5228.117
371.3100, 5258.868
371.7921, 5275.417
372.2742, 5281.864
372.7563, 5286.516
373.2385, 5281.786
373.7206, 5287.712
374.2027, 5316.833
374.6848, 5379.029
375.1669, 5422.609
375.6490, 5444.783
376.1312, 5451.167
376.6133, 5445.722
377.0954, 5422.033
377.5775, 5412.914
378.0596, 5437.651
378.5417, 5494.462
379.0239, 5534.607
379.5060, 5554.886
379.9881, 5567.190
380.4702, 5587.537
380.9523, 5615.582
381.4344, 5636.261
381.9166, 5642.015
382.3987, 5637.227
382.8808, 5635.345
383.3629, 5636.455
383.8450, 5638.216
384.3271, 5642.766
384.8093, 5646.762
385.2914, 5639.097
385.7735, 5611.372
386.2556, 5575.339
386.7377, 5551.651
387.2198, 5537.972
387.7020, 5515.189
388.1841, 5463.791
388.6662, 5397.441
389.1483, 5333.393
389.6304, 5276.462
390.1125, 5222.913
390.5947, 5176.496
391.0768, 5132.094
391.5589, 5074.792
392.0410, 4973.112
392.5231, 4870.916
393.0052, 4801.666
393.4874, 4782.106
393.9695, 4769.499
394.4516, 4751.289
394.9337, 4728.055
395.4158, 4700.892
395.8979, 4669.028
396.3801, 4633.969
396.8622, 4593.253
397.3443, 4541.142
397.8264, 4503.163
398.3085, 4491.687
398.7906, 4493.142
399.2728, 4491.536
399.7549, 4492.387
400.2370, 4483.086
400.7191, 4453.573
401.2012, 4400.828
401.6833, 4375.567
402.1655, 4394.119
402.6476, 4424.402
403.1297, 4438.638
403.6118, 4430.167
404.0939, 4420.759
404.5760, 4407.659
405.0582, 4395.658
405.5403, 4421.606
406.0224, 4502.833
406.5045, 4570.931
406.9866, 4564.673
407.4688, 4478.253
407.9509, 4420.429
408.4330, 4406.489
408.9151, 4420.340
409.3972, 4430.085
409.8793, 4435.659
410.3615, 4445.053
410.8436, 4465.464
411.3257, 4493.791
411.8078, 4520.033
412.2899, 4544.244
412.7720, 4564.087
413.2542, 4571.277
413.7363, 4570.688
414.2184, 4576.922
414.7005, 4594.587
415.1826, 4623.685
415.6647, 4668.524
416.1469, 4729.006
416.6290, 4790.020
417.1111, 4835.312
417.5932, 4875.764
418.0753, 4924.063
418.5574, 4995.320
419.0396, 5066.694
419.5217, 5126.990
420.0038, 5176.836
420.4859, 5224.741
420.9680, 5264.002
421.4501, 5308.342
421.9323, 5366.603
422.4144, 5454.002
422.8965, 5538.104
423.3786, 5621.772
423.8607, 5699.604
424.3428, 5756.817
424.8250, 5755.717
425.3071, 5767.862
425.7892, 5820.292
426.2713, 5932.747
426.7534, 6035.270
427.2355, 6124.076
427.7177, 6205.471
428.1998, 6286.364
428.6819, 6365.167
429.1640, 6446.224
429.6461, 6532.449
430.1282, 6622.470
430.6104, 6710.024
431.0925, 6793.223
431.5746, 6877.363
432.0567, 6974.370
432.5388, 7085.146
433.0209, 7167.942
433.5031, 7206.723
433.9852, 7217.942
434.4673, 7248.555
434.9494, 7297.833
435.4315, 7333.299
435.9136, 7330.387
436.3958, 7295.750
436.8779, 7242.118
437.3600, 7167.126
437.8421, 7087.926
438.3242, 7033.796
438.8063, 6992.754
439.2885, 6931.016
439.7706, 6805.417
440.2527, 6666.377
440.7348, 6566.016
441.2169, 6511.909
441.6990, 6452.936
442.1812, 6351.252
442.6633, 6230.885
443.1454, 6119.104
443.6275, 6028.536
444.1096, 5943.875
444.5917, 5854.928
445.0739, 5762.851
445.5560, 5690.035
446.0381, 5669.295
446.5202, 5650.055
447.0023, 5602.593
447.4844, 5482.576
447.9666, 5389.092
448.4487, 5333.346
448.9308, 5303.570
449.4129, 5268.003
449.8950, 5225.243
450.3771, 5180.414
450.8593, 5133.612
451.3413, 5083.249
451.8235, 5042.974
452.3056, 5013.696
452.7877, 4993.046
453.2698, 4979.856
453.7519, 4975.057
454.2340, 4967.223
454.7162, 4949.957
455.1983, 4927.693
455.6804, 4917.047
456.1625, 4918.464
456.6446, 4922.897
457.1267, 4924.085
457.6089, 4922.275
458.0910, 4917.469
458.5731, 4907.760
459.0552, 4898.655
459.5373, 4899.524
460.0194, 4907.307
460.5016, 4911.808
460.9837, 4894.510
461.4658, 4878.736
461.9479, 4888.511
462.4300, 4930.472
462.9121, 4975.368
463.3943, 5010.082
463.8764, 5038.355
464.3585, 5064.460
464.8406, 5071.943
465.3227, 5094.792
465.8048, 5151.563
466.2870, 5242.281
466.7691, 5324.237
467.2512, 5393.753
467.7333, 5453.019
468.2154, 5502.745
468.6975, 5530.125
469.1797, 5568.668
469.6618, 5619.903
470.1439, 5682.508
470.6260, 5755.858
471.1081, 5847.950
471.5902, 5931.012
472.0724, 5985.477
472.5545, 6008.427
473.0366, 6062.083
473.5187, 6150.183
474.0008, 6256.771
474.4829, 6362.503
474.9651, 6468.171
475.4472, 6583.212
475.9293, 6710.915
476.4114, 6849.617
476.8935, 6999.564
477.3756, 7158.953
477.8578, 7320.002
478.3399, 7484.467
478.8220, 7644.604
479.3041, 7788.968
479.7862, 7915.028
480.2683, 8026.250
480.7505, 8124.014
481.2326, 8208.776
481.7147, 8282.179
482.1968, 8351.017
482.6789, 8404.198
483.1610, 8430.032
483.6432, 8424.104
484.1253, 8422.596
484.6074, 8420.186
485.0895, 8432.793
485.5716, 8474.213
486.0537, 8550.530
486.5359, 8650.740
487.0180, 8780.677
487.5001, 8935.408
487.9822, 9089.490
488.4643, 9223.350
488.9464, 9386.269
489.4286, 9612.143
489.9107, 9912.712
490.3928, 10201.56
490.8749, 10475.32
491.3570, 10743.80
491.8391, 11019.32
492.3213, 11299.81
492.8034, 11613.61
493.2855, 11985.92
493.7676, 12388.84
494.2497, 12753.17
494.7318, 13077.03
495.2140, 13402.75
495.6961, 13751.50
496.1782, 14127.38
496.6603, 14526.72
497.1424, 14963.45
497.6245, 15406.24
498.1067, 15841.03
498.5888, 16266.73
499.0709, 16683.65
499.5530, 17097.55
500.0351, 17500.74
500.5172, 17895.03
500.9994, 18274.17
501.4815, 18642.63
501.9636, 19001.73
502.4457, 19352.57
502.9278, 19696.45
503.4099, 20103.77
503.8921, 20420.49
504.3742, 20621.18
504.8563, 20721.11
505.3384, 20783.95
505.8205, 20822.56
506.3026, 20802.65
506.7848, 20712.96
507.2669, 20555.24
507.7490, 20313.70
508.2311, 19984.84
508.7132, 19579.76
509.1953, 19087.55
509.6775, 18516.31
510.1596, 17930.09
510.6417, 17352.16
511.1238, 16775.08
511.6059, 16178.14
512.0880, 15560.74
512.5701, 14954.01
513.0522, 14373.25
513.5344, 13811.26
514.0165, 13253.50
514.4986, 12686.33
514.9807, 12156.31
515.4628, 11707.19
515.9449, 11311.15
516.4271, 10927.32
516.9092, 10520.52
517.3913, 10139.66
517.8734, 9806.732
518.3555, 9523.780
518.8376, 9258.729
519.3198, 9010.540
519.8019, 8778.343
520.2840, 8559.396
520.7661, 8358.702
521.2482, 8166.229
521.7303, 7983.931
522.2125, 7807.399
522.6946, 7626.054
523.1767, 7433.417
523.6588, 7258.602
524.1409, 7114.016
524.6230, 6999.426
525.1052, 6896.887
525.5873, 6807.040
526.0694, 6723.780
526.5515, 6641.628
527.0336, 6561.881
527.5157, 6488.037
527.9979, 6420.445
528.4800, 6363.004
528.9621, 6323.280
529.4442, 6298.401
529.9263, 6278.603
530.4084, 6257.214
530.8906, 6240.511
531.3727, 6235.421
531.8548, 6243.942
532.3369, 6250.140
532.8190, 6244.208
533.3011, 6235.566
533.7833, 6232.873
534.2654, 6252.284
534.7475, 6259.183
535.2296, 6247.632
535.7117, 6221.073
536.1938, 6194.585
536.6760, 6179.042
537.1581, 6142.405
537.6402, 6063.375
538.1223, 5937.765
538.6044, 5830.478
539.0865, 5743.842
539.5687, 5665.643
540.0508, 5579.746
540.5329, 5487.646
541.0150, 5408.756
541.4971, 5350.186
541.9792, 5304.411
542.4614, 5262.527
542.9435, 5224.508
543.4256, 5190.186
543.9077, 5157.842
544.3898, 5130.054
544.8719, 5112.093
545.3541, 5106.261
545.8362, 5096.332
546.3183, 5068.704
546.8004, 5035.045
547.2825, 5007.850
547.7646, 4985.987
548.2468, 4975.623
548.7289, 4985.970
549.2110, 5010.876
549.6931, 5023.590
550.1752, 5014.217
550.6573, 5006.174
551.1395, 5011.556
551.6216, 5034.942
552.1037, 5044.257
552.5858, 5038.326
553.0679, 5021.318
553.5500, 4994.777
554.0322, 4959.393
554.5143, 4925.029
554.9964, 4891.829
555.4785, 4863.657
555.9606, 4852.195
556.4427, 4854.489
556.9249, 4854.729
557.4070, 4840.590
557.8891, 4820.619
558.3712, 4803.419
558.8533, 4789.765
559.3354, 4779.656
559.8176, 4773.295
560.2997, 4770.149
560.7818, 4769.671
561.2639, 4773.634
561.7460, 4777.941
562.2281, 4785.073
562.7103, 4792.402
563.1924, 4790.344
563.6745, 4772.896
564.1566, 4753.945
564.6387, 4737.758
565.1208, 4724.161
565.6030, 4715.352
566.0851, 4713.026
566.5672, 4712.034
567.0493, 4705.288
567.5314, 4693.472
568.0135, 4689.031
568.4957, 4696.840
568.9778, 4708.737
569.4599, 4708.771
569.9420, 4700.107
570.4241, 4696.112
570.9063, 4711.979
571.3884, 4731.045
571.8705, 4733.978
572.3526, 4720.032
572.8347, 4708.396
573.3168, 4713.816
573.7990, 4723.392
574.2811, 4725.815
574.7632, 4708.672
575.2453, 4698.691
575.7274, 4708.060
576.2095, 4725.913
576.6917, 4729.295
577.1738, 4702.869
577.6559, 4687.624
578.1380, 4699.492
578.6201, 4736.019
579.1022, 4756.828
579.5844, 4759.739
580.0665, 4754.896
580.5486, 4747.029
581.0307, 4737.008
581.5128, 4731.891
581.9949, 4732.944
582.4771, 4737.278
582.9592, 4746.589
583.4413, 4756.655
583.9234, 4757.022
584.4055, 4727.848
584.8876, 4699.653
585.3698, 4702.661
585.8519, 4730.454
586.3340, 4747.712
586.8161, 4728.716
587.2982, 4703.191
587.7803, 4687.383
588.2625, 4685.224
588.7446, 4687.445
589.2267, 4698.290
589.7088, 4710.044
590.1909, 4713.539
590.6730, 4704.500
591.1552, 4698.747
591.6373, 4699.111
592.1194, 4704.231
592.6015, 4711.237
593.0836, 4720.323
593.5657, 4727.832
594.0479, 4732.450
594.5300, 4733.924
595.0121, 4730.438
595.4942, 4721.771
595.9763, 4712.827
596.4584, 4704.660
596.9406, 4699.719
597.4227, 4702.382
597.9048, 4721.169
598.3869, 4734.560
598.8690, 4727.745
599.3511, 4709.173
599.8333, 4695.186
600.3154, 4694.619
600.7975, 4693.491
601.2796, 4685.792
601.7617, 4671.934
602.2438, 4669.106
602.7260, 4685.322
603.2081, 4699.057
603.6902, 4692.441
604.1723, 4662.855
604.6544, 4650.340
605.1365, 4660.590
605.6187, 4676.855
606.1008, 4674.446
606.5829, 4657.935
607.0650, 4646.516
607.5471, 4647.970
608.0292, 4655.436
608.5114, 4659.640
608.9935, 4662.575
609.4756, 4671.676
609.9577, 4699.077
610.4398, 4727.193
610.9219, 4746.006
611.4041, 4754.655
611.8862, 4754.401
612.3683, 4734.634
612.8504, 4712.917
613.3325, 4702.875
613.8146, 4711.371
614.2968, 4718.104
614.7789, 4722.564
615.2610, 4724.371
615.7431, 4722.976
616.2252, 4718.500
616.7073, 4709.335
617.1895, 4690.792
617.6716, 4668.909
618.1537, 4660.364
618.6358, 4664.604
619.1179, 4676.739
619.6000, 4703.758
620.0822, 4731.894
620.5643, 4743.540
621.0464, 4735.265
621.5285, 4718.691
622.0106, 4690.239
622.4927, 4661.218
622.9749, 4643.871
623.4570, 4644.021
623.9391, 4652.583
624.4212, 4678.679
624.9033, 4711.341
625.3854, 4719.710
625.8676, 4690.206
626.3497, 4666.332
626.8318, 4665.534
627.3139, 4684.900
627.7960, 4696.888
628.2781, 4701.139
628.7603, 4700.693
629.2424, 4697.013
629.7245, 4690.598
630.2066, 4680.687
630.6887, 4665.389
631.1708, 4655.273
631.6530, 4665.552
632.1351, 4685.773
632.6172, 4700.175
633.0993, 4698.375
633.5814, 4694.590
634.0635, 4692.353
634.5457, 4691.956
635.0278, 4694.478
635.5099, 4706.240
635.9920, 4713.706
636.4741, 4709.791
636.9562, 4693.178
637.4384, 4691.026
637.9205, 4708.018
638.4026, 4726.352
638.8847, 4731.306
639.3668, 4723.903
639.8489, 4710.516
640.3311, 4689.109
640.8132, 4672.538
641.2953, 4682.682
641.7774, 4708.774
642.2595, 4727.429
642.7416, 4724.595
643.2238, 4716.458
643.7059, 4712.098
644.1880, 4710.676
644.6701, 4709.162
645.1522, 4699.303
645.6343, 4696.004
646.1165, 4712.532
646.5986, 4753.563
647.0807, 4765.366
647.5628, 4732.319
648.0449, 4693.087
648.5270, 4676.347
649.0092, 4683.617
649.4913, 4694.667
649.9734, 4708.703
650.4555, 4724.805
650.9376, 4747.732
651.4197, 4772.980
651.9019, 4782.730
652.3840, 4761.220
652.8661, 4733.503
653.3482, 4724.611
653.8303, 4729.384
654.3124, 4732.214
654.7946, 4719.275
655.2767, 4709.006
655.7588, 4712.359
656.2409, 4731.426
656.7230, 4746.140
657.2051, 4756.424
657.6872, 4761.291
658.1693, 4756.647
658.6514, 4736.259
659.1335, 4738.494
659.6157, 4771.899
660.0978, 4810.803
660.5799, 4818.073
661.0620, 4799.012
661.5441, 4782.053
662.0262, 4773.847
662.5084, 4772.626
662.9905, 4778.308
663.4726, 4789.436
663.9547, 4802.050
664.4368, 4821.313
664.9189, 4835.030
665.4011, 4832.050
665.8832, 4812.871
666.3653, 4801.427
666.8474, 4805.876
667.3295, 4814.910
667.8116, 4824.722
668.2938, 4836.431
668.7759, 4843.234
669.2580, 4844.888
669.7401, 4842.345
670.2222, 4835.150
670.7043, 4823.938
671.1865, 4814.337
671.6686, 4807.682
672.1507, 4802.921
672.6328, 4797.912
673.1149, 4793.816
673.5970, 4793.255
674.0792, 4801.796
674.5613, 4810.273
675.0434, 4808.337
675.5255, 4799.775
676.0076, 4804.505
676.4897, 4841.083
676.9719, 4878.033
677.4540, 4904.776
677.9361, 4920.762
678.4182, 4930.552
678.9003, 4933.628
679.3824, 4931.308
679.8646, 4921.946
680.3467, 4906.448
680.8288, 4895.443
681.3109, 4889.536
681.7930, 4889.768
682.2751, 4904.655
682.7573, 4925.702
683.2394, 4935.184
683.7215, 4915.872
684.2036, 4898.798
684.6857, 4907.222
685.1678, 4930.944
685.6500, 4946.486
686.1321, 4935.707
686.6142, 4929.604
687.0963, 4937.562
687.5784, 4958.079
688.0605, 4978.668
688.5427, 4999.977
689.0248, 5019.304
689.5069, 5033.750
689.9890, 5043.982
690.4711, 5059.186
690.9532, 5079.776
691.4354, 5100.976
691.9175, 5115.117
692.3996, 5127.830
692.8817, 5147.488
693.3638, 5175.234
693.8459, 5212.315
694.3281, 5272.403
694.8102, 5338.252
695.2923, 5386.258
695.7744, 5394.105
696.2565, 5405.657
696.7386, 5420.836
697.2208, 5444.361
697.7029, 5493.732
698.1850, 5579.371
698.6671, 5653.247
699.1492, 5690.434
699.6313, 5704.852
700.1135, 5743.427
700.5956, 5805.545
701.0777, 5881.136
701.5598, 5974.837
702.0419, 6072.155
702.5240, 6152.504
703.0062, 6212.694
703.4883, 6275.627
703.9704, 6361.595
704.4525, 6448.843
704.9346, 6521.053
705.4167, 6571.489
705.8989, 6613.697
706.3810, 6657.406
706.8631, 6684.704
707.3452, 6671.954
707.8273, 6615.385
708.3094, 6542.916
708.7916, 6458.979
709.2737, 6361.839
709.7558, 6240.562
710.2379, 6102.286
710.7200, 5966.942
711.2021, 5837.631
711.6843, 5719.876
712.1664, 5616.375
712.6485, 5528.252
713.1306, 5462.481
713.6127, 5446.755
714.0948, 5432.044
714.5770, 5392.029
715.0591, 5324.163
715.5412, 5271.008
716.0233, 5234.587
716.5054, 5210.082
716.9875, 5196.599
717.4697, 5194.173
717.9518, 5194.526
718.4339, 5198.171
718.9160, 5199.886
719.3981, 5193.498
719.8802, 5181.401
720.3624, 5166.962
720.8445, 5147.412
721.3266, 5134.338
721.8087, 5141.955
722.2908, 5158.650
722.7729, 5167.458
723.2551, 5157.959
723.7372, 5148.269
724.2193, 5137.792
724.7014, 5129.421
725.1835, 5133.817
725.6656, 5154.928
726.1478, 5171.743
726.6299, 5175.000
727.1120, 5169.083
727.5941, 5167.249
728.0762, 5168.998
728.5583, 5170.329
729.0405, 5168.983
729.5226, 5165.762
730.0047, 5159.152
730.4868, 5149.224
730.9689, 5145.814
731.4510, 5159.078
731.9332, 5175.714
732.4153, 5187.718
732.8974, 5195.722
733.3795, 5197.198
733.8616, 5189.974
734.3438, 5179.857
734.8259, 5170.801
735.3080, 5162.933
735.7901, 5162.900
736.2722, 5173.092
736.7543, 5186.144
737.2365, 5193.926
737.7186, 5197.365
738.2007, 5198.083
738.6828, 5193.334
739.1649, 5190.058
739.6470, 5192.052
740.1292, 5198.040
740.6113, 5205.191
741.0934, 5209.406
741.5755, 5219.892
742.0576, 5243.408
742.5397, 5274.458
743.0219, 5285.133
743.5040, 5271.881
743.9861, 5260.305
744.4682, 5267.989
744.9503, 5285.926
745.4324, 5285.710
745.9146, 5269.316
746.3967, 5256.714
746.8788, 5267.602
747.3609, 5284.074
747.8430, 5287.704
748.3251, 5273.522
748.8073, 5271.983
749.2894, 5309.760
749.7715, 5347.322
750.2536, 5357.945
750.7357, 5328.802
751.2178, 5314.202
751.7000, 5317.741
752.1821, 5327.246
752.6642, 5326.164
753.1463, 5317.785
753.6284, 5320.554
754.1105, 5340.962
754.5927, 5363.091
755.0748, 5374.776
755.5569, 5376.853
756.0390, 5370.828
756.5211, 5343.568
757.0032, 5323.887
757.4854, 5323.250
757.9675, 5335.583
758.4496, 5347.066
758.9317, 5358.551
759.4138, 5368.142
759.8959, 5377.004
760.3781, 5382.891
760.8602, 5373.177
761.3423, 5349.430
761.8244, 5335.027
762.3065, 5351.038
762.7886, 5378.447
763.2708, 5393.829
763.7529, 5398.354
764.2350, 5401.268
764.7171, 5405.938
765.1992, 5410.928
765.6813, 5412.300
766.1635, 5408.070
766.6456, 5421.395
767.1277, 5464.282
767.6098, 5505.020
768.0919, 5522.599
768.5740, 5517.342
769.0562, 5506.194
769.5383, 5488.291
770.0204, 5474.841
770.5025, 5478.756
770.9846, 5493.312
771.4667, 5509.246
771.9489, 5526.739
772.4310, 5538.640
772.9131, 5535.438
773.3952, 5527.861
773.8773, 5527.012
774.3594, 5545.174
774.8416, 5551.648
775.3237, 5539.133
775.8058, 5522.033
776.2879, 5521.529
776.7700, 5537.787
777.2521, 5551.444
777.7343, 5556.175
778.2164, 5562.027
778.6985, 5592.778
779.1806, 5635.153
779.6627, 5659.555
780.1448, 5637.296
780.6270, 5611.043
781.1091, 5595.930
781.5912, 5591.054
782.0733, 5594.701
782.5554, 5612.344
783.0375, 5628.361
783.5197, 5639.375
784.0018, 5645.824
784.4839, 5648.084
784.9660, 5645.893
785.4481, 5646.042
785.9302, 5653.914
786.4124, 5665.335
786.8945, 5671.705
787.3766, 5674.560
787.8587, 5681.449
788.3408, 5700.270
788.8229, 5721.054
789.3051, 5741.150
789.7872, 5760.926
790.2693, 5765.554
790.7514, 5740.798
791.2335, 5723.547
791.7156, 5740.145
792.1978, 5789.731
792.6799, 5810.577
793.1620, 5801.217
793.6441, 5784.566
794.1262, 5772.060
794.6083, 5767.590
795.0905, 5781.828
795.5726, 5818.391
796.0547, 5847.715
796.5368, 5838.075
797.0189, 5826.327
797.5010, 5846.581
797.9832, 5928.422
798.4653, 5968.122
798.9474, 5949.252
799.4295, 5914.203
799.9116, 5905.577
800.3937, 5921.806
800.8759, 5940.283
801.3580, 5959.626
801.8401, 5974.308
802.3222, 5971.407
802.8043, 5962.338
803.2864, 5964.687
803.7686, 5988.242
804.2507, 6014.504
804.7328, 6042.006
805.2149, 6067.072
805.6970, 6084.271
806.1791, 6087.789
806.6613, 6096.532
807.1434, 6110.981
807.6255, 6133.847
808.1076, 6178.624
808.5897, 6239.682
809.0718, 6281.762
809.5540, 6281.253
810.0361, 6277.521
810.5182, 6316.968
811.0003, 6379.800
811.4824, 6427.515
811.9645, 6428.984
812.4467, 6435.534
812.9288, 6463.682
813.4109, 6505.131
813.8930, 6537.847
814.3751, 6558.694
814.8572, 6585.747
815.3394, 6626.326
815.8215, 6675.029
816.3036, 6723.682
816.7857, 6771.136
817.2678, 6809.466
817.7499, 6830.697
818.2321, 6846.192
818.7142, 6860.720
819.1963, 6875.458
819.6784, 6894.713
820.1605, 6930.535
820.6426, 6957.848
821.1248, 6968.426
821.6068, 6964.571
822.0889, 6959.582
822.5710, 6953.774
823.0532, 6942.584
823.5353, 6924.221
824.0174, 6898.482
824.4995, 6865.023
824.9816, 6824.058
825.4637, 6773.495
825.9459, 6699.121
826.4280, 6627.245
826.9101, 6576.668
827.3922, 6549.730
827.8743, 6508.306
828.3564, 6441.986
828.8386, 6380.461
829.3207, 6336.362
829.8028, 6308.758
830.2849, 6291.274
830.7670, 6283.875
831.2491, 6274.618
831.7313, 6254.239
832.2134, 6227.938
832.6955, 6199.740
833.1776, 6170.063
833.6597, 6143.655
834.1418, 6121.816
834.6240, 6103.776
835.1061, 6087.840
835.5882, 6073.206
836.0703, 6069.994
836.5524, 6080.913
837.0345, 6093.414
837.5167, 6098.573
837.9988, 6098.179
838.4809, 6096.495
838.9630, 6093.796
839.4451, 6092.646
839.9272, 6094.421
840.4094, 6098.683
840.8915, 6105.233
841.3736, 6114.223
841.8557, 6125.366
842.3378, 6146.576
842.8199, 6159.324
843.3021, 6145.618
843.7842, 6103.978
844.2663, 6083.832
844.7484, 6086.754
845.2305, 6097.787
845.7126, 6101.307
846.1948, 6105.811
846.6769, 6127.407
847.1590, 6171.132
847.6411, 6205.958
848.1232, 6212.498
848.6053, 6211.256
849.0875, 6217.932
849.5696, 6237.576
850.0517, 6246.044
850.5338, 6241.917
851.0159, 6231.048
851.4980, 6207.816
851.9802, 6182.023
852.4623, 6195.142
852.9444, 6254.008
853.4265, 6306.721
853.9086, 6300.696
854.3907, 6278.026
854.8729, 6278.724
855.3550, 6321.636
855.8371, 6347.926
856.3192, 6349.734
856.8013, 6340.079
857.2834, 6321.510
857.7656, 6293.195
858.2477, 6300.231
858.7298, 6348.664
859.2119, 6398.656
859.6940, 6406.280
860.1761, 6395.204
860.6583, 6399.396
861.1404, 6427.966
861.6225, 6450.535
862.1046, 6448.958
862.5867, 6442.011
863.0688, 6442.504
863.5510, 6449.720
864.0331, 6468.476
864.5152, 6501.382
864.9973, 6537.337
865.4794, 6568.882
865.9615, 6595.292
866.4437, 6614.154
866.9258, 6624.839
867.4079, 6632.585
867.8900, 6629.547
868.3721, 6632.570
868.8542, 6658.181
869.3364, 6720.169
869.8185, 6771.989
870.3006, 6810.054
870.7827, 6842.917
871.2648, 6872.377
871.7469, 6899.893
872.2291, 6943.493
872.7112, 7004.401
873.1933, 7074.654
873.6754, 7143.807
874.1575, 7220.276
874.6396, 7317.166
875.1218, 7438.995
875.6039, 7562.524
876.0860, 7679.357
876.5681, 7799.123
877.0502, 7927.264
877.5323, 8064.187
878.0145, 8205.280
878.4966, 8350.766
878.9787, 8497.950
879.4608, 8640.021
879.9429, 8783.912
880.4250, 8941.091
880.9072, 9112.657
881.3893, 9294.869
881.8714, 9492.460
882.3535, 9692.453
882.8356, 9881.247
883.3177, 10053.60
883.7999, 10263.25
884.2820, 10524.04
884.7641, 10781.45
885.2462, 10999.44
885.7283, 11185.60
886.2104, 11368.63
886.6926, 11549.00
887.1747, 11720.29
887.6568, 11900.02
888.1389, 12051.85
888.6210, 12159.92
889.1031, 12220.83
889.5853, 12208.82
890.0674, 12107.16
890.5495, 11966.91
891.0316, 11813.33
891.5137, 11642.28
891.9958, 11417.76
892.4780, 11142.01
892.9601, 10879.51
893.4422, 10673.23
893.9243, 10498.39
894.4064, 10327.49
894.8885, 10164.32
895.3707, 10045.51
895.8528, 10011.92
896.3349, 9984.445
896.8170, 9932.593
897.2991, 9866.072
897.7813, 9841.938
898.2634, 9860.289
898.7455, 9897.492
899.2276, 9952.826
899.7097, 10011.78
900.1918, 10047.13
900.6740, 10068.19
901.1561, 10109.52
901.6382, 10197.69
902.1203, 10293.13
902.6024, 10384.62
903.0845, 10474.06
903.5667, 10566.94
904.0488, 10664.55
904.5309, 10754.52
905.0130, 10829.91
905.4951, 10897.97
905.9772, 10981.97
906.4594, 11068.71
906.9415, 11124.70
907.4236, 11113.68
907.9057, 11094.62
908.3878, 11082.70
908.8699, 11077.68
909.3521, 11081.99
909.8342, 11101.11
910.3163, 11104.34
910.7984, 11077.77
911.2805, 11047.60
911.7626, 11065.77
912.2448, 11114.66
912.7269, 11150.49
913.2090, 11143.09
913.6911, 11145.80
914.1732, 11182.62
914.6553, 11245.77
915.1375, 11325.66
915.6196, 11430.34
916.1017, 11524.83
916.5838, 11604.19
917.0659, 11677.18
917.5480, 11772.06
918.0302, 11869.83
918.5123, 11915.28
918.9944, 11895.56
919.4765, 11828.04
919.9586, 11707.13
920.4407, 11553.15
920.9229, 11382.74
921.4050, 11195.64
921.8871, 10996.02
922.3692, 10776.35
922.8513, 10560.00
923.3334, 10372.75
923.8156, 10209.46
924.2977, 10048.59
924.7798, 9888.634
925.2619, 9729.356
925.7440, 9565.548
926.2261, 9407.518
926.7083, 9264.887
927.1904, 9138.504
927.6725, 9027.404
928.1546, 8936.048
928.6367, 8849.319
929.1188, 8758.621
929.6010, 8665.665
930.0831, 8580.870
930.5652, 8505.166
931.0473, 8432.697
931.5294, 8360.460
932.0115, 8290.714
932.4937, 8225.025
932.9758, 8163.305
933.4579, 8109.166
933.9400, 8064.882
934.4221, 8022.321
934.9042, 7978.271
935.3864, 7933.445
935.8685, 7883.538
936.3506, 7831.752
936.8327, 7795.577
937.3148, 7801.506
937.7969, 7808.497
938.2791, 7786.951
938.7612, 7744.374
939.2433, 7697.031
939.7254, 7640.633
940.2075, 7590.787
940.6896, 7545.307
941.1718, 7512.351
941.6539, 7520.473
942.1360, 7559.000
942.6181, 7565.789
943.1002, 7512.704
943.5823, 7457.182
944.0645, 7445.833
944.5466, 7457.645
945.0287, 7467.371
945.5108, 7484.914
945.9929, 7469.840
946.4750, 7401.576
946.9572, 7334.084
947.4393, 7339.381
947.9214, 7399.440
948.4035, 7411.756
948.8856, 7363.372
949.3677, 7312.443
949.8499, 7298.918
950.3320, 7304.542
950.8141, 7320.176
951.2962, 7350.617
951.7783, 7352.024
952.2604, 7309.347
952.7426, 7266.864
953.2247, 7250.455
953.7068, 7255.826
954.1889, 7269.301
954.6710, 7289.250
955.1531, 7301.294
955.6353, 7289.268
956.1174, 7272.599
956.5995, 7259.405
957.0816, 7252.142
957.5637, 7262.893
958.0458, 7305.591
958.5280, 7333.235
959.0101, 7328.493
959.4922, 7304.240
959.9743, 7291.933
960.4564, 7287.636
960.9385, 7276.029
961.4207, 7240.583
961.9028, 7210.274
962.3849, 7201.617
962.8670, 7208.400
963.3491, 7221.063
963.8312, 7246.996
964.3134, 7255.457
964.7955, 7237.787
965.2776, 7215.795
965.7597, 7224.423
966.2418, 7250.977
966.7239, 7262.625
967.2061, 7251.178
967.6882, 7234.828
968.1703, 7216.816
968.6524, 7202.669
969.1345, 7199.905
969.6166, 7213.810
970.0988, 7203.776
970.5809, 7161.500
971.0630, 7129.941
971.5451, 7154.928
972.0272, 7207.923
972.5093, 7238.628
972.9915, 7245.392
973.4736, 7234.049
973.9557, 7189.287
974.4378, 7145.212
974.9199, 7112.062
975.4020, 7091.834
975.8842, 7101.632
976.3663, 7145.798
976.8484, 7179.015
977.3305, 7180.294
977.8126, 7166.003
978.2947, 7153.531
978.7769, 7144.547
979.2590, 7143.132
979.7411, 7172.656
980.2232, 7179.726
980.7053, 7131.317
981.1874, 7073.654
981.6696, 7082.370
982.1517, 7159.694
982.6338, 7190.920
983.1159, 7154.294
983.5980, 7101.005
984.0801, 7070.877
984.5623, 7058.972
985.0444, 7062.596
985.5265, 7086.921
986.0085, 7104.628
986.4907, 7112.497
986.9728, 7113.554
987.4549, 7106.209
987.9370, 7092.138
988.4191, 7090.578
988.9012, 7100.833
989.3834, 7110.070
989.8655, 7112.671
990.3476, 7108.691
990.8297, 7092.735
991.3118, 7068.330
991.7939, 7056.981
992.2761, 7065.762
992.7582, 7074.291
993.2403, 7077.349
993.7224, 7077.055
994.2045, 7077.648
994.6866, 7078.738
995.1688, 7078.556
995.6509, 7073.397
996.1330, 7072.489
996.6151, 7082.208
997.0972, 7098.345
997.5793, 7116.322
998.0615, 7139.416
998.5436, 7150.417
999.0257, 7145.610
999.5078, 7140.494
999.9899, 7156.377
1000.472, 7180.579
1000.954, 7187.612
1001.436, 7174.095
1001.918, 7167.309
1002.401, 7188.116
1002.883, 7208.103
1003.365, 7213.682
1003.847, 7206.338
1004.329, 7201.641
1004.811, 7199.878
1005.293, 7188.908
1005.775, 7153.839
1006.257, 7114.980
1006.740, 7090.254
1007.222, 7079.281
1007.704, 7080.202
1008.186, 7102.794
1008.668, 7124.916
1009.150, 7146.373
1009.632, 7163.682
1010.114, 7171.463
1010.596, 7170.184
1011.079, 7159.487
1011.561, 7136.578
1012.043, 7118.722
1012.525, 7126.882
1013.007, 7141.155
1013.489, 7139.640
1013.971, 7112.974
1014.453, 7115.431
1014.936, 7156.949
1015.418, 7195.472
1015.900, 7194.988
1016.382, 7174.090
1016.864, 7182.808
1017.346, 7213.867
1017.828, 7227.943
1018.310, 7176.175
1018.792, 7138.204
1019.275, 7154.040
1019.757, 7201.283
1020.239, 7229.151
1020.721, 7237.679
1021.203, 7225.870
1021.685, 7184.374
1022.167, 7148.895
1022.649, 7178.992
1023.132, 7233.237
1023.614, 7250.428
1024.096, 7186.852
1024.578, 7160.075
1025.060, 7196.407
1025.542, 7241.069
1026.024, 7243.328
1026.506, 7213.758
1026.989, 7232.853
1027.471, 7297.439
1027.953, 7339.529
1028.435, 7282.970
1028.917, 7219.147
1029.399, 7214.631
1029.881, 7258.317
1030.363, 7274.371
1030.845, 7254.335
1031.328, 7237.631
1031.810, 7234.015
1032.292, 7241.018
1032.774, 7255.883
1033.256, 7278.164
1033.738, 7309.195
1034.220, 7365.474
1034.702, 7399.516
1035.184, 7387.427
1035.667, 7362.181
1036.149, 7349.690
1036.631, 7350.038
1037.113, 7346.255
1037.595, 7337.648
1038.077, 7330.647
1038.559, 7332.723
1039.041, 7336.571
1039.524, 7330.596
1040.006, 7316.845
1040.488, 7328.401
1040.970, 7386.926
1041.452, 7417.818
1041.934, 7384.881
1042.416, 7328.447
1042.898, 7335.773
1043.380, 7386.604
1043.863, 7425.576
1044.345, 7429.854
1044.827, 7427.965
1045.309, 7431.197
1045.791, 7432.930
1046.273, 7424.216
1046.755, 7402.677
1047.237, 7397.207
1047.719, 7409.619
1048.202, 7426.410
1048.684, 7443.168
1049.166, 7454.037
1049.648, 7450.989
1050.130, 7434.499
1050.612, 7414.270
1051.094, 7380.938
1051.576, 7365.425
1052.059, 7380.812
1052.541, 7414.424
1053.023, 7444.229
1053.505, 7467.364
1053.987, 7473.414
1054.469, 7447.630
1054.951, 7427.288
1055.433, 7429.929
1055.916, 7446.908
1056.398, 7471.708
1056.880, 7507.883
1057.362, 7529.268
1057.844, 7534.762
1058.326, 7534.554
1058.808, 7536.710
1059.290, 7537.563
1059.772, 7531.052
1060.255, 7518.041
1060.737, 7508.421
1061.219, 7493.456
1061.701, 7502.276
1062.183, 7553.426
1062.665, 7618.195
1063.147, 7629.741
1063.629, 7602.315
1064.111, 7583.704
1064.594, 7591.205
1065.076, 7599.265
1065.558, 7591.959
1066.040, 7582.093
1066.522, 7581.274
1067.004, 7591.203
1067.486, 7598.042
1067.968, 7601.643
1068.450, 7606.003
1068.933, 7618.573
1069.415, 7630.166
1069.897, 7629.266
1070.379, 7618.256
1070.861, 7608.290
1071.343, 7598.081
1071.825, 7595.804
1072.307, 7605.504
1072.790, 7619.537
1073.272, 7624.622
1073.754, 7623.216
1074.236, 7620.428
1074.718, 7615.233
1075.200, 7617.355
1075.682, 7632.646
1076.164, 7656.289
1076.646, 7690.723
1077.129, 7735.887
1077.611, 7741.158
1078.093, 7706.401
1078.575, 7673.223
1079.057, 7670.146
1079.539, 7677.333
1080.021, 7681.311
1080.503, 7682.021
1080.985, 7679.288
1081.468, 7671.943
1081.950, 7664.716
1082.432, 7657.671
1082.914, 7652.621
1083.396, 7651.830
1083.878, 7654.767
1084.360, 7661.801
1084.842, 7673.467
1085.325, 7681.718
1085.807, 7680.513
1086.289, 7678.083
1086.771, 7677.072
1087.253, 7677.686
1087.735, 7680.920
1088.217, 7686.802
1088.699, 7695.214
1089.182, 7696.682
1089.664, 7714.193
1090.146, 7794.157
1090.628, 7885.165
1091.110, 7911.164
1091.592, 7850.999
1092.074, 7797.272
1092.556, 7751.979
1093.038, 7719.536
1093.521, 7706.385
1094.003, 7707.402
1094.485, 7722.813
1094.967, 7749.942
1095.449, 7764.281
1095.931, 7751.339
1096.413, 7739.528
1096.895, 7734.913
1097.377, 7736.128
1097.860, 7741.240
1098.342, 7749.707
1098.824, 7760.459
1099.306, 7774.907
1099.788, 7786.109
1100.270, 7788.886
1100.752, 7788.308
1101.234, 7786.055
1101.717, 7781.820
1102.199, 7794.459
1102.681, 7823.691
1103.163, 7845.942
1103.645, 7837.704
1104.127, 7823.916
1104.609, 7828.721
1105.091, 7843.571
1105.573, 7844.249
1106.056, 7824.453
1106.538, 7806.824
1107.020, 7793.680
1107.502, 7785.098
1107.984, 7779.508
1108.466, 7779.456
1108.948, 7792.430
1109.430, 7820.127
1109.912, 7839.084
1110.395, 7833.388
1110.877, 7834.615
1111.359, 7861.871
1111.841, 7898.285
1112.323, 7876.757
1112.805, 7816.906
1113.287, 7791.160
1113.769, 7850.063
1114.252, 7903.019
1114.734, 7903.595
1115.216, 7884.562
1115.698, 7874.843
1116.180, 7875.021
1116.662, 7880.324
1117.144, 7890.887
1117.626, 7899.986
1118.109, 7899.294
1118.591, 7898.607
1119.073, 7909.497
1119.555, 7927.336
1120.037, 7933.022
1120.519, 7921.297
1121.001, 7917.093
1121.483, 7927.131
1121.965, 7937.232
1122.448, 7923.018
1122.930, 7900.212
1123.412, 7892.043
1123.894, 7903.192
1124.376, 7918.228
1124.858, 7944.381
1125.340, 7954.887
1125.822, 7927.669
1126.304, 7884.441
1126.787, 7891.024
1127.269, 7933.568
1127.751, 7971.691
1128.233, 7994.041
1128.715, 8002.406
1129.197, 7985.623
1129.679, 7965.443
1130.161, 7960.951
1130.644, 7971.369
1131.126, 7981.812
1131.608, 7991.835
1132.090, 8003.333
1132.572, 8023.332
1133.054, 8039.333
1133.536, 8042.911
1134.018, 8036.133
1134.500, 8021.614
1134.983, 7996.471
1135.465, 7992.472
1135.947, 8019.610
1136.429, 8046.879
1136.911, 8031.382
1137.393, 8005.904
1137.875, 8009.328
1138.357, 8051.518
1138.839, 8071.015
1139.322, 8063.330
1139.804, 8047.007
1140.286, 8025.206
1140.768, 8005.398
1141.250, 7999.632
1141.732, 8005.456
1142.214, 8018.598
1142.696, 8045.751
1143.179, 8065.509
1143.661, 8073.375
1144.143, 8079.070
1144.625, 8094.464
1145.107, 8113.444
1145.589, 8111.927
1146.071, 8093.273
1146.553, 8080.068
1147.036, 8083.727
1147.518, 8093.563
1148.000, 8109.114
1148.482, 8125.623
1148.964, 8129.151
1149.446, 8124.034
1149.928, 8146.349
1150.410, 8204.074
1150.892, 8247.458
1151.375, 8230.517
1151.857, 8200.527
1152.339, 8184.105
1152.821, 8181.039
1153.303, 8191.662
1153.785, 8215.846
1154.267, 8235.037
1154.749, 8246.881
1155.231, 8243.199
1155.714, 8195.322
1156.196, 8139.935
1156.678, 8122.021
1157.160, 8147.418
1157.642, 8184.549
1158.124, 8237.308
1158.606, 8271.595
1159.088, 8246.132
1159.571, 8205.780
1160.053, 8205.390
1160.535, 8230.445
1161.017, 8244.312
1161.499, 8230.978
1161.981, 8234.002
1162.463, 8262.437
1162.945, 8288.592
1163.427, 8274.526
1163.910, 8243.286
1164.392, 8229.873
1164.874, 8235.618
1165.356, 8245.593
1165.838, 8263.670
1166.320, 8272.151
1166.802, 8262.550
1167.284, 8249.000
1167.766, 8258.710
1168.249, 8282.971
1168.731, 8302.424
1169.213, 8312.735
1169.695, 8321.082
1170.177, 8330.749
1170.659, 8337.611
1171.141, 8338.886
1171.623, 8336.311
1172.106, 8335.149
1172.588, 8335.462
1173.070, 8337.628
1173.552, 8343.767
1174.034, 8348.368
1174.516, 8350.803
1174.998, 8349.312
1175.480, 8337.718
1175.963, 8317.319
1176.445, 8323.376
1176.927, 8352.951
1177.409, 8374.722
1177.891, 8361.566
1178.373, 8344.200
1178.855, 8334.436
1179.337, 8332.066
1179.819, 8336.662
1180.302, 8348.320
1180.784, 8372.539
1181.266, 8411.594
1181.748, 8438.505
1182.230, 8420.223
1182.712, 8393.501
1183.194, 8386.961
1183.676, 8395.425
1184.158, 8390.532
1184.641, 8369.502
1185.123, 8373.017
1185.605, 8416.534
1186.087, 8462.407
1186.569, 8474.223
1187.051, 8470.271
1187.533, 8463.929
1188.015, 8455.563
1188.498, 8473.519
1188.980, 8523.067
1189.462, 8554.842
1189.944, 8537.832
1190.426, 8509.652
1190.908, 8519.841
1191.390, 8545.514
1191.872, 8550.565
1192.354, 8517.544
1192.837, 8507.128
1193.319, 8524.491
1193.801, 8539.739
1194.283, 8522.071
1194.765, 8498.016
1195.247, 8512.007
1195.729, 8548.033
1196.211, 8561.350
1196.693, 8524.518
1197.176, 8515.532
1197.658, 8547.040
1198.140, 8580.345
1198.622, 8567.343
1199.104, 8536.701
1199.586, 8531.824
1200.068, 8551.753
1200.550, 8569.631
1201.033, 8581.527
1201.515, 8589.391
1201.997, 8593.522
1202.479, 8593.897
1202.961, 8586.259
1203.443, 8576.688
1203.925, 8576.525
1204.407, 8587.918
1204.890, 8597.688
1205.372, 8605.968
1205.854, 8607.123
1206.336, 8594.749
1206.818, 8580.762
1207.300, 8589.350
1207.782, 8614.228
1208.264, 8645.075
1208.746, 8684.531
1209.229, 8712.133
1209.711, 8727.474
1210.193, 8727.570
1210.675, 8700.091
1211.157, 8663.896
1211.639, 8671.603
1212.121, 8709.326
1212.603, 8740.643
1213.085, 8753.853
1213.568, 8758.099
1214.050, 8752.474
1214.532, 8743.939
1215.014, 8738.369
1215.496, 8734.137
1215.978, 8717.572
1216.460, 8696.059
1216.942, 8699.458
1217.425, 8774.988
1217.907, 8827.058
1218.389, 8837.598
1218.871, 8825.025
1219.353, 8804.301
1219.835, 8778.202
1220.317, 8746.918
1220.799, 8713.700
1221.281, 8706.489
1221.764, 8771.873
1222.246, 8817.378
1222.728, 8816.513
1223.210, 8794.529
1223.692, 8788.390
1224.174, 8795.080
1224.656, 8808.854
1225.138, 8829.126
1225.620, 8846.041
1226.103, 8862.077
1226.585, 8863.252
1227.067, 8836.069
1227.549, 8801.599
1228.031, 8816.854
1228.513, 8862.576
1228.995, 8884.073
1229.477, 8863.194
1229.960, 8848.136
1230.442, 8856.483
1230.924, 8869.793
1231.406, 8881.953
1231.888, 8892.284
1232.370, 8898.826
1232.852, 8901.639
1233.334, 8900.074
1233.816, 8889.615
1234.299, 8885.089
1234.781, 8889.390
1235.263, 8899.715
1235.745, 8916.313
1236.227, 8936.646
1236.709, 8950.787
1237.191, 8961.779
1237.673, 8979.229
1238.156, 9023.422
1238.638, 9048.159
1239.120, 9040.675
1239.602, 9026.648
1240.084, 9032.988
1240.566, 9049.605
1241.048, 9044.073
1241.530, 9021.936
1242.012, 9010.014
1242.495, 9035.191
1242.977, 9045.605
1243.459, 9025.740
1243.941, 9006.110
1244.423, 9034.150
1244.905, 9084.379
1245.387, 9094.824
1245.869, 9067.310
1246.351, 9046.214
1246.834, 9042.259
1247.316, 9055.916
1247.798, 9097.187
1248.280, 9135.423
1248.762, 9111.825
1249.244, 9061.729
1249.726, 9055.301
1250.208, 9099.026
1250.691, 9135.038
1251.173, 9152.074
1251.655, 9161.065
1252.137, 9163.226
1252.619, 9161.544
1253.101, 9159.660
1253.583, 9157.646
1254.065, 9154.112
1254.547, 9148.056
1255.030, 9152.277
1255.512, 9171.699
1255.994, 9188.940
1256.476, 9196.359
1256.958, 9201.676
1257.440, 9221.731
1257.922, 9245.278
1258.404, 9255.260
1258.886, 9245.307
1259.369, 9232.918
1259.851, 9216.196
1260.333, 9205.973
1260.815, 9211.074
1261.297, 9219.229
1261.779, 9208.923
1262.261, 9193.080
1262.743, 9191.416
1263.226, 9207.853
1263.708, 9237.045
1264.190, 9283.000
1264.672, 9315.237
1265.154, 9306.075
1265.636, 9285.299
1266.118, 9284.642
1266.600, 9292.730
1267.083, 9288.911
1267.565, 9265.370
1268.047, 9260.567
1268.529, 9275.519
1269.011, 9294.802
1269.493, 9314.051
1269.975, 9327.187
1270.457, 9324.336
1270.939, 9313.741
1271.422, 9307.949
1271.904, 9305.405
1272.386, 9331.865
1272.868, 9388.021
1273.350, 9424.277
1273.832, 9374.990
1274.314, 9326.706
1274.796, 9347.174
1275.278, 9397.013
1275.761, 9411.669
1276.243, 9392.795
1276.725, 9384.911
1277.207, 9391.261
1277.689, 9402.044
1278.171, 9421.981
1278.653, 9431.809
1279.135, 9416.337
1279.618, 9391.442
1280.100, 9381.571
1280.582, 9385.292
1281.064, 9400.117
1281.546, 9425.550
1282.028, 9439.628
1282.510, 9414.790
1282.992, 9397.054
1283.474, 9400.623
1283.957, 9419.069
1284.439, 9449.673
1284.921, 9484.301
1285.403, 9495.522
1285.885, 9478.829
1286.367, 9468.632
##END=



