##NAMES=Barytocalcite
##RRUFFID=R050288
##IDEAL CHEMISTRY=BaCa(CO_3_)_2_
##LOCALITY=Cumberland, England
##OWNER=RRUFF
##SOURCE=Marcus Origlieri
##DESCRIPTION=Light tan elongated crystals
##STATUS=The identification of this mineral has been confirmed by X-ray diffraction and chemical analysis
##URL=rruff.info/R050288
##MEASURED CHEMISTRY=Ba_1.00_Ca_1.00_(CO_3_)_2_
122.8968, 407.3506
123.3789, 401.3952
123.8610, 395.6995
124.3431, 390.9086
124.8252, 387.9626
125.3074, 387.4186
125.7895, 388.5475
126.2716, 389.8489
126.7537, 391.0712
127.2358, 392.9901
127.7179, 396.6210
128.2001, 400.7978
128.6822, 404.4450
129.1643, 407.3747
129.6464, 409.2555
130.1285, 405.6062
130.6107, 392.4843
131.0928, 377.0457
131.5749, 359.8761
132.0570, 341.6420
132.5391, 322.8077
133.0212, 303.6234
133.5033, 283.5097
133.9855, 267.3385
134.4676, 256.2625
134.9497, 247.2599
135.4318, 238.7654
135.9139, 230.6032
136.3960, 223.3766
136.8782, 217.8479
137.3603, 214.2605
137.8424, 211.8780
138.3245, 211.3421
138.8066, 211.7419
139.2887, 211.9834
139.7709, 211.7600
140.2530, 211.6544
140.7351, 212.2439
141.2172, 213.4151
141.6993, 215.5321
142.1814, 219.1554
142.6636, 223.9389
143.1457, 228.6022
143.6278, 232.5576
144.1099, 236.6876
144.5920, 241.6962
145.0741, 247.5749
145.5563, 253.9735
146.0384, 260.8185
146.5205, 268.2000
147.0026, 275.1458
147.4847, 280.9370
147.9668, 286.6037
148.4490, 292.5681
148.9311, 298.9342
149.4132, 305.8210
149.8953, 313.4400
150.3774, 322.1577
150.8595, 331.0190
151.3417, 340.2367
151.8238, 349.3428
152.3059, 357.9769
152.7880, 365.9461
153.2701, 373.4055
153.7522, 380.6252
154.2344, 388.0681
154.7165, 394.5774
155.1986, 399.5642
155.6807, 403.7549
156.1628, 407.8926
156.6449, 412.2754
157.1271, 417.0529
157.6092, 422.9475
158.0913, 430.1831
158.5734, 438.0445
159.0555, 446.3592
159.5376, 455.1419
160.0198, 464.3669
160.5019, 473.8523
160.9840, 483.9760
161.4661, 495.5110
161.9482, 509.2188
162.4303, 523.4642
162.9125, 537.9423
163.3946, 552.5754
163.8767, 565.3727
164.3588, 576.0009
164.8409, 583.3583
165.3230, 585.7992
165.8052, 582.4703
166.2873, 574.5545
166.7694, 562.9281
167.2515, 546.7547
167.7336, 529.4964
168.2157, 512.2164
168.6979, 495.0203
169.1800, 477.8536
169.6621, 460.5049
170.1442, 443.3063
170.6263, 427.2178
171.1084, 413.0933
171.5906, 398.7969
172.0727, 383.3095
172.5548, 367.2709
173.0369, 351.4438
173.5190, 336.1832
174.0011, 321.5511
174.4833, 308.1111
174.9654, 296.4920
175.4475, 285.5348
175.9296, 275.0206
176.4117, 265.0191
176.8938, 255.5013
177.3760, 246.3551
177.8581, 237.5380
178.3402, 230.8951
178.8223, 227.5137
179.3044, 224.9519
179.7865, 222.5896
180.2687, 220.3593
180.7508, 218.3553
181.2329, 216.6172
181.7150, 215.1375
182.1971, 214.5471
182.6792, 215.5436
183.1614, 216.7103
183.6435, 217.1722
184.1256, 216.9234
184.6077, 216.5849
185.0898, 216.6684
185.5719, 217.2282
186.0541, 217.9778
186.5362, 218.4006
187.0183, 219.3085
187.5004, 221.6652
187.9825, 225.6285
188.4646, 230.0405
188.9468, 233.6381
189.4289, 236.7257
189.9110, 240.7771
190.3931, 247.0006
190.8752, 254.1138
191.3573, 259.8152
191.8395, 263.2560
192.3216, 267.2690
192.8037, 274.3482
193.2858, 283.5892
193.7679, 293.2440
194.2500, 302.3475
194.7322, 311.2221
195.2143, 321.2025
195.6964, 333.0002
196.1785, 344.8155
196.6606, 356.1213
197.1427, 366.7788
197.6249, 376.3309
198.1070, 384.1660
198.5891, 390.4610
199.0712, 397.1766
199.5533, 406.5216
200.0354, 413.6222
200.5176, 417.3651
200.9997, 417.5618
201.4818, 414.0128
201.9639, 406.3421
202.4460, 394.5191
202.9281, 380.5192
203.4103, 362.6761
203.8924, 344.0919
204.3745, 325.1913
204.8566, 306.2015
205.3387, 287.5894
205.8208, 269.5028
206.3030, 251.6079
206.7851, 236.9449
207.2672, 226.5722
207.7493, 217.9757
208.2314, 210.6046
208.7135, 204.2981
209.1957, 199.0349
209.6778, 194.8309
210.1599, 191.7732
210.6420, 189.4054
211.1241, 187.5991
211.6062, 186.4309
212.0884, 185.9026
212.5705, 186.0360
213.0526, 186.9668
213.5347, 189.0018
214.0168, 192.3263
214.4989, 194.7633
214.9811, 195.1685
215.4632, 195.6517
215.9453, 197.5612
216.4274, 200.9766
216.9095, 205.2445
217.3916, 209.9624
217.8737, 215.1756
218.3559, 220.2763
218.8380, 224.8669
219.3201, 229.6396
219.8022, 235.3969
220.2843, 242.1978
220.7664, 249.0938
221.2486, 255.3789
221.7307, 261.1483
222.2128, 266.5948
222.6949, 272.3756
223.1770, 277.5269
223.6591, 280.8943
224.1413, 282.3742
224.6234, 282.6572
225.1055, 282.3771
225.5876, 281.1957
226.0697, 278.1467
226.5518, 272.1940
227.0340, 264.6472
227.5161, 257.0852
227.9982, 249.2325
228.4803, 242.3447
228.9624, 237.6531
229.4445, 234.2692
229.9267, 231.1222
230.4088, 227.8684
230.8909, 224.6513
231.3730, 221.6419
231.8551, 218.5824
232.3372, 216.4601
232.8194, 215.9510
233.3015, 216.4055
233.7836, 217.1071
234.2657, 217.7192
234.7478, 218.4791
235.2299, 219.8474
235.7121, 221.6570
236.1942, 224.5550
236.6763, 228.5105
237.1584, 233.5127
237.6405, 239.4624
238.1227, 246.2710
238.6048, 254.3089
239.0869, 264.7008
239.5690, 279.0568
240.0511, 293.1298
240.5332, 305.4765
241.0154, 317.4359
241.4975, 330.1869
241.9796, 344.2299
242.4617, 359.2480
242.9438, 374.3639
243.4259, 390.2774
243.9081, 405.1863
244.3902, 419.0742
244.8723, 431.8745
245.3544, 443.0597
245.8365, 452.5374
246.3186, 461.3079
246.8008, 471.8050
247.2829, 485.0965
247.7650, 498.7213
248.2471, 512.1465
248.7292, 526.0111
249.2113, 540.8613
249.6935, 556.8915
250.1756, 573.9872
250.6577, 591.9899
251.1398, 611.3124
251.6219, 630.9283
252.1040, 649.5714
252.5862, 668.9963
253.0683, 691.0543
253.5504, 716.1031
254.0325, 742.8907
254.5146, 769.2941
254.9967, 793.8429
255.4789, 820.8338
255.9610, 850.4139
256.4431, 882.1248
256.9252, 916.2471
257.4073, 952.7682
257.8894, 990.4471
258.3716, 1028.238
258.8537, 1067.988
259.3358, 1101.403
259.8179, 1130.380
260.3000, 1152.093
260.7821, 1165.337
261.2643, 1169.639
261.7464, 1162.852
262.2285, 1142.531
262.7106, 1106.238
263.1927, 1058.938
263.6748, 994.8995
264.1570, 923.6079
264.6391, 850.8053
265.1212, 777.6508
265.6033, 707.2714
266.0854, 642.8418
266.5675, 585.2406
267.0497, 533.5638
267.5318, 489.5877
268.0139, 450.5477
268.4960, 414.4047
268.9781, 381.1249
269.4602, 351.4691
269.9424, 326.3372
270.4245, 305.9464
270.9066, 287.8592
271.3887, 272.8014
271.8708, 259.4127
272.3529, 246.7428
272.8351, 234.7839
273.3172, 224.0763
273.7993, 215.1645
274.2814, 207.7934
274.7635, 200.5555
275.2456, 193.0605
275.7278, 186.1502
276.2099, 180.6197
276.6920, 176.3488
277.1741, 172.3001
277.6562, 167.7901
278.1383, 163.4256
278.6205, 160.3578
279.1026, 159.0040
279.5847, 157.9759
280.0668, 156.4201
280.5489, 154.3946
281.0310, 152.1975
281.5132, 149.5983
281.9953, 147.2556
282.4774, 146.0680
282.9595, 146.1737
283.4416, 146.5641
283.9237, 146.6437
284.4059, 146.5051
284.8880, 146.5224
285.3701, 146.7361
285.8522, 147.2255
286.3343, 148.0966
286.8164, 149.3295
287.2986, 150.6152
287.7807, 151.9360
288.2628, 153.2016
288.7449, 154.0842
289.2270, 154.4657
289.7091, 154.5782
290.1913, 154.8436
290.6734, 155.1075
291.1555, 154.7088
291.6376, 153.1299
292.1197, 150.6978
292.6018, 148.1416
293.0840, 145.5370
293.5661, 142.7193
294.0482, 139.5214
294.5303, 136.0659
295.0124, 132.4725
295.4945, 128.5897
295.9767, 124.7328
296.4588, 121.5882
296.9409, 119.3724
297.4230, 117.1203
297.9051, 113.9854
298.3872, 110.6031
298.8694, 107.7065
299.3515, 105.4969
299.8336, 103.8595
300.3157, 102.8636
300.7978, 102.6713
301.2799, 102.0936
301.7621, 100.1315
302.2442, 97.84531
302.7263, 96.12285
303.2084, 95.13393
303.6905, 94.63945
304.1726, 94.52102
304.6548, 94.79698
305.1369, 95.01929
305.6190, 95.09087
306.1011, 95.05583
306.5832, 94.99995
307.0653, 94.92021
307.5475, 94.64702
308.0296, 93.89055
308.5117, 92.71088
308.9938, 91.84583
309.4759, 91.63390
309.9580, 91.47499
310.4402, 91.11974
310.9223, 90.52177
311.4044, 89.52933
311.8865, 87.86632
312.3686, 85.69090
312.8507, 83.67176
313.3329, 81.88624
313.8150, 80.14413
314.2971, 78.28519
314.7792, 76.38262
315.2613, 74.55957
315.7434, 72.85670
316.2256, 71.26765
316.7077, 69.79199
317.1898, 68.44684
317.6719, 67.13250
318.1540, 65.67699
318.6361, 64.27130
319.1183, 63.20029
319.6004, 62.63335
320.0825, 62.17162
320.5646, 61.15499
321.0467, 59.44814
321.5288, 58.05429
322.0110, 57.57434
322.4931, 57.37449
322.9752, 57.00780
323.4573, 56.40727
323.9394, 55.68653
324.4215, 54.84208
324.9037, 53.88582
325.3858, 53.22883
325.8679, 53.18460
326.3500, 53.22808
326.8321, 52.98907
327.3142, 52.48784
327.7964, 51.91785
328.2785, 51.42598
328.7606, 50.97984
329.2427, 50.36921
329.7248, 49.39759
330.2069, 48.59487
330.6891, 48.37554
331.1712, 48.53714
331.6533, 48.65943
332.1354, 48.53510
332.6175, 48.26259
333.0996, 48.06452
333.5818, 47.99343
334.0639, 47.82178
334.5460, 47.30750
335.0281, 46.67232
335.5102, 46.17730
335.9923, 45.92588
336.4745, 45.74031
336.9566, 45.34654
337.4387, 44.72243
337.9208, 44.30730
338.4029, 44.48954
338.8850, 44.76786
339.3671, 44.58436
339.8492, 43.86174
340.3314, 43.15963
340.8135, 43.01883
341.2956, 43.32320
341.7777, 43.30251
342.2598, 42.59138
342.7419, 41.85812
343.2241, 41.73053
343.7062, 42.10453
344.1883, 42.48062
344.6704, 42.61574
345.1525, 42.58913
345.6346, 42.61962
346.1168, 42.79232
346.5989, 42.78372
347.0810, 42.12366
347.5631, 41.13630
348.0452, 40.38863
348.5273, 40.15422
349.0095, 40.10329
349.4916, 39.83384
349.9737, 39.34015
350.4558, 38.94198
350.9379, 38.82826
351.4200, 38.88328
351.9022, 38.90100
352.3843, 38.85089
352.8664, 38.82449
353.3485, 38.92652
353.8306, 39.11434
354.3127, 39.20162
354.7949, 39.09263
355.2770, 38.94032
355.7591, 39.03143
356.2412, 39.36950
356.7233, 39.43951
357.2054, 38.78256
357.6876, 37.82989
358.1697, 37.30135
358.6518, 37.32590
359.1339, 37.50673
359.6160, 37.56152
360.0981, 37.49062
360.5803, 37.30205
361.0624, 36.88124
361.5445, 36.42939
362.0266, 36.05237
362.5087, 35.76667
362.9908, 35.70853
363.4730, 36.06720
363.9551, 36.63882
364.4372, 36.79826
364.9193, 36.33979
365.4014, 35.85339
365.8835, 35.52800
366.3657, 35.35107
366.8478, 35.35381
367.3299, 35.58659
367.8120, 35.83494
368.2941, 35.68176
368.7762, 34.96873
369.2584, 34.57787
369.7405, 34.96813
370.2226, 35.53790
370.7047, 35.64613
371.1868, 35.23245
371.6689, 34.74959
372.1511, 34.62511
372.6332, 34.87930
373.1153, 34.89038
373.5974, 34.32395
374.0795, 33.86633
374.5616, 34.04874
375.0438, 34.61945
375.5259, 34.87584
376.0080, 34.39242
376.4901, 33.42131
376.9722, 32.85883
377.4543, 33.09769
377.9365, 33.23117
378.4186, 33.02181
378.9007, 32.72779
379.3828, 32.65985
379.8649, 32.89556
380.3470, 33.25346
380.8292, 33.48856
381.3113, 33.58475
381.7934, 33.58559
382.2755, 33.46358
382.7576, 33.28447
383.2397, 33.06965
383.7219, 32.82925
384.2040, 32.56405
384.6861, 32.25916
385.1682, 31.92742
385.6503, 31.78794
386.1324, 31.98231
386.6146, 32.22593
387.0967, 32.60795
387.5788, 32.96624
388.0609, 33.06699
388.5430, 32.81184
389.0251, 32.37632
389.5073, 32.11454
389.9894, 32.10826
390.4715, 32.11194
390.9536, 32.37937
391.4357, 32.45055
391.9178, 31.79632
392.4000, 30.52430
392.8821, 29.37035
393.3642, 29.10619
393.8463, 29.76180
394.3284, 30.31517
394.8105, 30.81710
395.2927, 31.14252
395.7748, 31.20642
396.2569, 31.08239
396.7390, 30.86621
397.2211, 30.57364
397.7032, 30.28513
398.1854, 30.19588
398.6675, 30.35774
399.1496, 30.56277
399.6317, 30.78456
400.1138, 31.00948
400.5959, 31.24666
401.0781, 31.49512
401.5602, 31.69023
402.0423, 31.77552
402.5244, 31.75360
403.0065, 31.64979
403.4886, 31.46276
403.9708, 31.19243
404.4529, 30.75115
404.9350, 30.22385
405.4171, 29.85262
405.8992, 29.74319
406.3813, 29.85041
406.8635, 30.21463
407.3456, 30.88637
407.8277, 31.34595
408.3098, 31.25411
408.7919, 30.81839
409.2740, 30.38334
409.7562, 29.92289
410.2383, 29.58030
410.7204, 29.50205
411.2025, 29.61279
411.6846, 29.69891
412.1667, 29.71363
412.6489, 29.67114
413.1310, 29.53715
413.6131, 29.31138
414.0952, 29.22653
414.5773, 29.42747
415.0594, 29.71564
415.5416, 29.93930
416.0237, 30.08359
416.5058, 30.15809
416.9879, 30.18990
417.4700, 30.14817
417.9521, 29.86881
418.4343, 29.07714
418.9164, 28.41805
419.3985, 28.05061
419.8806, 27.92622
420.3627, 28.02655
420.8448, 28.34222
421.3270, 28.74108
421.8091, 29.03556
422.2912, 29.21473
422.7733, 29.29225
423.2554, 29.22948
423.7375, 29.10815
424.2197, 28.95398
424.7018, 28.78174
425.1839, 28.59575
425.6660, 28.38372
426.1481, 28.17510
426.6302, 28.18052
427.1124, 28.78892
427.5945, 29.12890
428.0766, 28.83241
428.5587, 28.35507
429.0408, 28.18107
429.5229, 28.44644
430.0051, 28.89319
430.4872, 29.24684
430.9693, 29.60303
431.4514, 29.46398
431.9335, 28.02448
432.4156, 26.78186
432.8978, 26.47254
433.3799, 26.86343
433.8620, 27.26342
434.3441, 27.20890
434.8262, 26.89685
435.3083, 26.95261
435.7905, 27.56200
436.2726, 28.02248
436.7547, 27.87955
437.2368, 27.58212
437.7189, 27.55311
438.2010, 27.88598
438.6832, 28.25752
439.1653, 28.45345
439.6474, 28.46962
440.1295, 28.21172
440.6116, 27.48413
441.0938, 26.83310
441.5759, 26.92061
442.0580, 27.49983
442.5401, 27.80835
443.0222, 27.47809
443.5043, 26.89090
443.9865, 26.27203
444.4686, 25.66474
444.9507, 25.45984
445.4328, 25.99112
445.9149, 26.88693
446.3970, 27.26024
446.8792, 26.94240
447.3613, 26.69702
447.8434, 26.89413
448.3255, 27.20007
448.8076, 27.13927
449.2897, 26.65014
449.7719, 26.12107
450.2540, 25.92993
450.7361, 26.09793
451.2182, 26.16165
451.7003, 26.11565
452.1824, 25.99027
452.6646, 25.67850
453.1467, 25.31940
453.6288, 25.18635
454.1109, 25.39968
454.5930, 25.74831
455.0751, 25.78064
455.5573, 25.14944
456.0394, 24.89067
456.5215, 25.22806
457.0036, 25.68221
457.4857, 26.08618
457.9678, 26.36127
458.4500, 26.38554
458.9321, 25.99088
459.4142, 25.29280
459.8963, 25.00268
460.3784, 25.40344
460.8605, 25.71403
461.3427, 25.68396
461.8248, 25.50158
462.3069, 25.30590
462.7890, 25.13253
463.2711, 25.05947
463.7532, 25.27766
464.2354, 25.75112
464.7175, 25.91855
465.1996, 25.57256
465.6817, 25.13803
466.1638, 24.94906
466.6459, 24.91181
467.1281, 24.78313
467.6102, 24.37477
468.0923, 23.93912
468.5744, 23.72297
469.0565, 23.72116
469.5386, 23.96388
470.0208, 24.63635
470.5029, 25.33757
470.9850, 25.19975
471.4671, 24.03211
471.9492, 23.26460
472.4313, 23.54286
472.9135, 24.22925
473.3956, 24.72579
473.8777, 24.95062
474.3598, 24.94887
474.8419, 24.71843
475.3240, 24.28802
475.8062, 23.94639
476.2883, 23.70391
476.7704, 23.52224
477.2525, 23.35990
477.7346, 23.27077
478.2167, 23.39277
478.6989, 23.73460
479.1810, 24.05277
479.6631, 23.99695
480.1452, 23.44639
480.6273, 23.14456
481.1094, 23.42945
481.5916, 23.61839
482.0737, 23.26929
482.5558, 22.71090
483.0379, 22.59227
483.5200, 23.27997
484.0021, 24.27137
484.4843, 24.53408
484.9664, 23.87324
485.4485, 23.38850
485.9306, 23.46320
486.4127, 23.63217
486.8948, 23.60786
487.3770, 23.39576
487.8591, 23.12155
488.3412, 22.79424
488.8233, 22.47233
489.3054, 22.25460
489.7875, 22.13899
490.2697, 22.17550
490.7518, 22.47633
491.2339, 22.90359
491.7160, 23.17863
492.1981, 23.26517
492.6802, 23.30267
493.1624, 23.36760
493.6445, 23.41149
494.1266, 23.31555
494.6087, 23.06536
495.0908, 22.86293
495.5729, 22.91539
496.0551, 23.21762
496.5372, 23.34296
497.0193, 23.07015
497.5014, 22.90468
497.9835, 23.16057
498.4656, 23.56171
498.9478, 23.69294
499.4299, 23.42611
499.9120, 22.98633
500.3941, 22.70059
500.8762, 22.61426
501.3583, 22.49407
501.8405, 22.19755
502.3226, 22.01281
502.8047, 22.13049
503.2868, 22.42290
503.7689, 22.66347
504.2510, 22.74638
504.7331, 22.70886
505.2152, 22.60868
505.6974, 22.44033
506.1795, 22.23413
506.6616, 21.88191
507.1437, 21.60982
507.6258, 21.65572
508.1079, 21.95869
508.5901, 22.17706
509.0722, 22.13985
509.5543, 21.92574
510.0364, 21.53147
510.5185, 20.96630
511.0006, 20.67805
511.4828, 20.94444
511.9649, 21.55992
512.4470, 22.14147
512.9291, 22.77776
513.4113, 23.11914
513.8934, 22.85113
514.3755, 22.37694
514.8576, 22.09918
515.3397, 22.05239
515.8218, 22.09320
516.3040, 22.12869
516.7861, 22.15145
517.2682, 22.10795
517.7503, 21.93125
518.2324, 21.77028
518.7145, 21.54555
519.1967, 21.39696
519.6788, 21.51311
520.1609, 21.88883
520.6430, 22.30168
521.1251, 22.55494
521.6072, 22.64878
522.0894, 22.53612
522.5715, 22.02167
523.0536, 21.61210
523.5357, 21.53630
524.0178, 21.61901
524.4999, 21.67354
524.9821, 21.65469
525.4642, 21.58577
525.9463, 21.44534
526.4284, 21.26305
526.9105, 21.16922
527.3926, 21.18491
527.8748, 21.28508
528.3569, 21.51697
528.8390, 21.82405
529.3211, 22.01280
529.8032, 22.04619
530.2853, 21.97720
530.7675, 21.75815
531.2496, 21.46959
531.7317, 21.28120
532.2138, 21.24263
532.6959, 21.25348
533.1780, 21.17021
533.6602, 20.94104
534.1423, 20.95279
534.6244, 21.48407
535.1065, 21.91376
535.5886, 21.96344
536.0707, 21.77215
536.5529, 21.52325
537.0350, 21.29711
537.5171, 21.15940
537.9992, 21.28382
538.4813, 21.77007
538.9634, 22.00008
539.4456, 21.78251
539.9277, 21.47635
540.4098, 21.19291
540.8919, 20.95197
541.3740, 20.77719
541.8561, 20.67613
542.3383, 20.64837
542.8204, 20.70466
543.3025, 20.84072
543.7846, 21.03377
544.2667, 21.31890
544.7488, 21.57935
545.2310, 21.67976
545.7131, 21.63454
546.1952, 21.52460
546.6773, 21.30725
547.1594, 21.07985
547.6415, 20.83688
548.1237, 20.63643
548.6058, 20.66374
549.0879, 21.00438
549.5700, 21.41777
550.0521, 21.47737
550.5342, 20.96680
551.0164, 20.76928
551.4985, 21.24240
551.9806, 21.61605
552.4627, 21.41255
552.9448, 20.88578
553.4269, 20.57093
553.9091, 20.73407
554.3912, 21.09037
554.8733, 21.09167
555.3554, 20.65557
555.8375, 20.44851
556.3196, 20.78218
556.8018, 21.09969
557.2839, 20.87801
557.7660, 20.35030
558.2481, 20.20370
558.7302, 20.97006
559.2123, 21.87371
559.6945, 22.08223
560.1766, 21.72290
560.6587, 21.32356
561.1408, 21.00831
561.6229, 20.83137
562.1050, 20.92417
562.5872, 21.35740
563.0693, 21.50802
563.5514, 21.14802
564.0335, 20.72604
564.5156, 20.42331
564.9977, 20.23202
565.4799, 20.11605
565.9620, 20.06092
566.4441, 20.05973
566.9262, 20.11852
567.4083, 20.27432
567.8904, 20.33837
568.3726, 20.18151
568.8547, 20.06470
569.3368, 20.12590
569.8189, 20.27418
570.3010, 20.35975
570.7831, 20.32713
571.2653, 20.22300
571.7474, 20.08063
572.2295, 19.90693
572.7116, 19.75247
573.1937, 19.62586
573.6758, 19.51776
574.1580, 19.36547
574.6401, 19.21853
575.1222, 19.27813
575.6043, 19.85919
576.0864, 20.31418
576.5685, 20.12627
577.0507, 19.65646
577.5328, 19.57572
578.0149, 20.03116
578.4970, 20.54814
578.9791, 20.59013
579.4612, 20.12905
579.9434, 19.90240
580.4255, 20.14450
580.9076, 20.35136
581.3897, 20.51654
581.8718, 20.55656
582.3539, 20.25160
582.8361, 19.61032
583.3182, 19.11621
583.8003, 19.45515
584.2824, 20.46254
584.7645, 20.87426
585.2466, 20.53950
585.7288, 20.01715
586.2108, 19.34056
586.6929, 18.75355
587.1750, 18.69016
587.6572, 19.31490
588.1393, 19.87146
588.6214, 20.01878
589.1035, 19.89921
589.5856, 19.64886
590.0677, 19.29919
590.5499, 18.89401
591.0320, 18.41120
591.5141, 17.96317
591.9962, 17.98156
592.4783, 19.15249
592.9604, 19.82229
593.4426, 19.55821
593.9247, 19.13784
594.4068, 19.11417
594.8889, 19.43897
595.3710, 19.76727
595.8531, 19.90048
596.3353, 19.84595
596.8174, 19.55857
597.2995, 18.97804
597.7816, 18.51815
598.2637, 18.28439
598.7458, 18.19342
599.2280, 18.20824
599.7101, 18.30525
600.1922, 18.35526
600.6743, 18.17891
601.1564, 18.05892
601.6385, 18.33503
602.1207, 18.86875
602.6028, 19.22329
603.0849, 19.24275
603.5670, 19.16474
604.0491, 19.33139
604.5313, 19.84449
605.0134, 19.95311
605.4955, 19.29679
605.9776, 18.70690
606.4597, 18.47589
606.9418, 18.44906
607.4240, 18.40957
607.9061, 18.29742
608.3882, 18.22141
608.8703, 18.36832
609.3524, 18.70924
609.8345, 18.84283
610.3167, 18.71543
610.7988, 18.49916
611.2809, 18.12860
611.7630, 17.78881
612.2451, 17.77592
612.7272, 18.18537
613.2094, 18.58503
613.6915, 18.83223
614.1736, 18.93227
614.6557, 18.83004
615.1378, 18.55753
615.6199, 18.29208
616.1021, 18.12967
616.5842, 18.07807
617.0663, 18.17398
617.5484, 18.64689
618.0305, 18.87290
618.5126, 18.73788
618.9948, 18.48641
619.4769, 18.12463
619.9590, 17.76897
620.4411, 17.67254
620.9232, 18.00568
621.4053, 18.48135
621.8875, 18.61170
622.3696, 18.40368
622.8517, 18.29637
623.3338, 18.41991
623.8159, 18.54557
624.2980, 18.40076
624.7802, 18.09552
625.2623, 18.00515
625.7444, 18.36006
626.2265, 18.69425
626.7086, 18.80819
627.1907, 18.76583
627.6729, 18.62654
628.1550, 18.41531
628.6371, 18.18590
629.1192, 17.97486
629.6013, 17.79143
630.0834, 17.71904
630.5656, 17.78108
631.0477, 17.92186
631.5298, 18.28192
632.0119, 18.59219
632.4940, 18.57605
632.9761, 18.28667
633.4583, 18.08307
633.9404, 18.30294
634.4225, 18.62606
634.9046, 18.42024
635.3867, 17.74044
635.8688, 17.35391
636.3510, 17.57745
636.8331, 17.98813
637.3152, 18.05358
637.7973, 17.72538
638.2794, 17.60288
638.7615, 17.82794
639.2437, 18.10905
639.7258, 18.44128
640.2079, 18.70889
640.6900, 18.69915
641.1721, 18.38972
641.6542, 18.05029
642.1364, 18.01380
642.6185, 18.23913
643.1006, 18.11628
643.5827, 17.34436
644.0648, 16.89335
644.5469, 17.39833
645.0291, 18.20021
645.5112, 18.78640
645.9933, 19.11381
646.4754, 19.21298
646.9575, 18.97034
647.4396, 18.59659
647.9218, 18.26754
648.4039, 18.00280
648.8860, 17.86573
649.3681, 17.89318
649.8502, 17.95847
650.3323, 17.84170
650.8145, 17.44315
651.2966, 17.32620
651.7787, 17.81536
652.2608, 18.19984
652.7429, 18.14645
653.2250, 17.92037
653.7072, 17.85670
654.1893, 18.04124
654.6714, 18.33249
655.1535, 18.70292
655.6356, 19.07311
656.1177, 19.11086
656.5999, 18.76281
657.0820, 18.45166
657.5641, 18.33779
658.0462, 18.40422
658.5283, 18.72478
659.0104, 19.42085
659.4926, 19.73472
659.9747, 19.24837
660.4568, 18.64474
660.9389, 18.30614
661.4210, 18.19150
661.9031, 18.14860
662.3853, 18.11747
662.8674, 18.16126
663.3495, 18.41678
663.8316, 18.90821
664.3137, 19.21908
664.7958, 19.25291
665.2780, 19.28056
665.7601, 19.42585
666.2422, 19.62902
666.7243, 19.81395
667.2064, 19.96458
667.6885, 20.17006
668.1707, 20.42078
668.6528, 20.78179
669.1349, 21.29667
669.6170, 21.98490
670.0991, 22.90999
670.5812, 24.09994
671.0634, 25.51445
671.5455, 27.12248
672.0276, 28.99839
672.5097, 30.74848
672.9918, 32.06250
673.4739, 33.59032
673.9561, 35.73722
674.4382, 38.10389
674.9203, 40.16854
675.4024, 41.79253
675.8845, 43.30443
676.3666, 45.04382
676.8488, 46.82758
677.3309, 48.21380
677.8130, 49.18601
678.2951, 50.06688
678.7772, 50.91449
679.2593, 51.93595
679.7415, 53.47608
680.2236, 55.46949
680.7057, 58.31517
681.1878, 62.27441
681.6699, 66.79558
682.1520, 71.43067
682.6342, 76.56581
683.1163, 82.50116
683.5984, 89.44966
684.0805, 97.95986
684.5626, 109.0286
685.0447, 122.3071
685.5269, 136.5186
686.0090, 152.1761
686.4911, 166.2789
686.9732, 178.4325
687.4553, 187.4285
687.9374, 190.4047
688.4196, 186.8987
688.9017, 183.4679
689.3838, 182.2289
689.8659, 180.2072
690.3480, 176.7382
690.8301, 170.9252
691.3123, 160.2645
691.7944, 144.3950
692.2765, 127.8220
692.7586, 115.2631
693.2407, 106.6266
693.7228, 100.9884
694.2050, 98.66609
694.6871, 98.36935
695.1692, 99.60623
695.6513, 102.8083
696.1334, 108.2528
696.6155, 115.9596
697.0977, 125.8138
697.5798, 138.1131
698.0619, 152.2923
698.5440, 169.5459
699.0261, 188.0635
699.5082, 205.9990
699.9904, 222.2412
700.4725, 231.9067
700.9546, 229.6533
701.4367, 215.8130
701.9188, 193.6864
702.4009, 157.2314
702.8831, 124.6150
703.3652, 99.81831
703.8473, 80.87686
704.3294, 67.52715
704.8115, 59.26295
705.2936, 53.64933
705.7758, 50.67553
706.2579, 49.11709
706.7400, 48.22451
707.2221, 47.92037
707.7042, 48.10863
708.1863, 48.74489
708.6685, 49.51884
709.1506, 50.07108
709.6327, 50.53623
710.1148, 51.96672
710.5969, 54.78461
711.0790, 57.80591
711.5612, 60.11981
712.0433, 63.25152
712.5254, 68.56141
713.0075, 75.53551
713.4896, 82.59731
713.9717, 89.67059
714.4539, 95.63805
714.9360, 100.9416
715.4181, 104.1195
715.9002, 101.0533
716.3823, 91.31276
716.8644, 78.83080
717.3466, 65.93418
717.8287, 53.26101
718.3108, 42.96467
718.7929, 35.39693
719.2750, 29.70777
719.7571, 26.44677
720.2393, 24.36221
720.7214, 23.36688
721.2035, 23.00237
721.6856, 22.52231
722.1677, 21.66703
722.6498, 20.76757
723.1320, 19.98413
723.6141, 19.38872
724.0962, 19.26873
724.5783, 19.59400
725.0604, 19.75663
725.5425, 19.40294
726.0247, 18.76947
726.5068, 18.33486
726.9889, 18.16218
727.4710, 17.99820
727.9531, 17.81236
728.4352, 17.67039
728.9174, 17.59488
729.3995, 17.57619
729.8816, 17.59088
730.3637, 17.63597
730.8458, 17.76470
731.3279, 18.16963
731.8101, 18.60346
732.2922, 18.59752
732.7743, 18.20761
733.2564, 17.80824
733.7385, 17.51792
734.2206, 17.40006
734.7028, 17.58452
735.1849, 18.10959
735.6670, 18.35725
736.1491, 18.21360
736.6312, 17.92257
737.1133, 17.20352
737.5955, 16.58359
738.0776, 16.67204
738.5597, 17.36716
739.0418, 17.90757
739.5239, 17.81591
740.0060, 17.49500
740.4882, 17.38696
740.9703, 17.43549
741.4524, 17.47835
741.9345, 17.48137
742.4166, 17.45764
742.8987, 17.40792
743.3809, 17.34831
743.8630, 17.36794
744.3451, 17.57800
744.8272, 17.66253
745.3093, 17.62410
745.7914, 17.44546
746.2736, 16.92247
746.7557, 16.29010
747.2378, 16.02913
747.7199, 16.34563
748.2020, 16.81923
748.6841, 17.29263
749.1663, 17.64178
749.6484, 17.56419
750.1305, 17.09993
750.6126, 16.62600
751.0947, 16.32415
751.5768, 16.18479
752.0590, 16.20718
752.5411, 16.43158
753.0232, 16.63509
753.5053, 16.92544
753.9874, 17.04316
754.4695, 16.75852
754.9517, 16.36490
755.4338, 16.18709
755.9159, 16.25606
756.3980, 16.34684
756.8801, 16.35887
757.3622, 16.34097
757.8444, 16.41288
758.3265, 16.48238
758.8086, 16.19714
759.2907, 15.51173
759.7728, 15.02793
760.2549, 15.39882
760.7371, 16.44096
761.2192, 16.98498
761.7013, 16.85550
762.1834, 16.70238
762.6655, 16.62527
763.1476, 16.56356
763.6298, 16.42508
764.1119, 16.26983
764.5940, 16.27456
765.0761, 16.55023
765.5582, 16.83659
766.0403, 17.07661
766.5225, 17.21594
767.0046, 17.16296
767.4867, 16.94571
767.9688, 16.62817
768.4509, 16.23410
768.9330, 15.94626
769.4152, 16.17726
769.8973, 16.96033
770.3794, 17.34851
770.8615, 17.16188
771.3436, 17.02847
771.8257, 17.33029
772.3079, 17.75324
772.7900, 17.81006
773.2721, 17.47326
773.7542, 17.16560
774.2363, 16.98015
774.7184, 16.80824
775.2006, 16.49932
775.6827, 16.22046
776.1648, 16.25648
776.6469, 16.60473
777.1290, 16.96025
777.6111, 17.09689
778.0933, 17.06585
778.5754, 16.94218
779.0575, 16.73095
779.5396, 16.59720
780.0217, 16.59556
780.5038, 16.58712
780.9860, 16.45336
781.4681, 16.22639
781.9502, 16.03746
782.4323, 15.68688
782.9144, 15.70641
783.3965, 16.57576
783.8787, 17.36750
784.3608, 17.53266
784.8429, 17.25218
785.3250, 16.81687
785.8071, 16.31579
786.2892, 16.00983
786.7714, 16.35023
787.2535, 16.93662
787.7356, 16.88961
788.2177, 16.29955
788.6998, 16.03926
789.1819, 16.46000
789.6641, 16.98347
790.1462, 16.83153
790.6283, 16.00976
791.1104, 15.85497
791.5925, 16.93994
792.0746, 17.72536
792.5568, 17.90280
793.0389, 17.74502
793.5210, 17.19610
794.0031, 16.45146
794.4852, 16.13258
794.9673, 16.66363
795.4495, 17.17803
795.9316, 16.99362
796.4137, 16.56145
796.8958, 16.48561
797.3779, 16.75605
797.8600, 17.05006
798.3422, 17.20315
798.8243, 17.24999
799.3064, 17.22702
799.7885, 17.13080
800.2706, 17.06675
800.7527, 17.04986
801.2349, 17.01760
801.7170, 16.91596
802.1991, 16.81295
802.6812, 16.81884
803.1633, 16.93345
803.6454, 17.01918
804.1276, 17.24392
804.6097, 17.21811
805.0918, 16.32602
805.5739, 15.43034
806.0560, 15.63553
806.5381, 16.78346
807.0203, 17.76789
807.5024, 17.93695
807.9845, 17.67414
808.4666, 17.40769
808.9487, 17.15785
809.4308, 17.04661
809.9130, 17.09033
810.3951, 17.03430
810.8772, 16.68974
811.3593, 16.25993
811.8414, 16.17751
812.3235, 16.57106
812.8057, 16.82888
813.2878, 16.94742
813.7699, 16.92830
814.2520, 16.58955
814.7341, 16.23561
815.2162, 16.26144
815.6984, 16.64661
816.1805, 16.86916
816.6626, 16.44857
817.1447, 16.06857
817.6268, 16.37662
818.1089, 16.99510
818.5911, 17.33113
819.0732, 17.31869
819.5553, 17.20462
820.0374, 17.14156
820.5195, 17.11831
821.0016, 17.13397
821.4838, 17.19193
821.9659, 17.14458
822.4480, 16.94019
822.9301, 16.77064
823.4122, 16.75580
823.8943, 16.81236
824.3765, 16.78274
824.8586, 16.63604
825.3407, 16.56710
825.8228, 16.64721
826.3049, 16.72745
826.7870, 16.77031
827.2692, 16.77949
827.7513, 16.71722
828.2334, 16.61610
828.7155, 16.62294
829.1976, 16.87711
829.6797, 17.15889
830.1619, 17.27073
830.6440, 17.20881
831.1261, 16.87729
831.6082, 16.30754
832.0903, 15.82598
832.5724, 15.61473
833.0546, 15.62527
833.5367, 15.78848
834.0188, 16.13327
834.5009, 16.45229
834.9830, 16.85222
835.4651, 16.99825
835.9473, 16.46786
836.4294, 15.85885
836.9115, 15.94279
837.3936, 16.67404
837.8757, 17.10520
838.3578, 16.83238
838.8400, 16.55745
839.3221, 16.54123
839.8042, 16.64842
840.2863, 16.81716
840.7684, 16.97790
841.2505, 16.96790
841.7327, 16.68565
842.2148, 16.37049
842.6969, 16.35939
843.1790, 16.53386
843.6611, 16.56941
844.1432, 16.44829
844.6254, 16.18192
845.1075, 15.73932
845.5896, 15.38394
846.0717, 15.52402
846.5538, 16.16290
847.0359, 16.38434
847.5181, 15.79384
848.0002, 15.56396
848.4823, 16.35605
848.9644, 17.17491
849.4465, 17.29193
849.9286, 16.88565
850.4108, 16.49345
850.8929, 16.10283
851.3750, 15.95687
851.8571, 16.50481
852.3392, 17.00996
852.8214, 16.66211
853.3035, 15.84650
853.7856, 15.43789
854.2677, 15.69482
854.7498, 16.10855
855.2319, 16.22117
855.7141, 16.13347
856.1962, 16.07430
856.6783, 16.03308
857.1604, 15.88732
857.6425, 15.59430
858.1246, 15.40930
858.6068, 15.57251
859.0889, 15.97774
859.5710, 16.21721
860.0531, 16.19891
860.5352, 16.26010
861.0173, 16.46372
861.4995, 16.68080
861.9816, 16.78308
862.4637, 16.90191
862.9458, 17.26614
863.4279, 17.91066
863.9100, 18.41899
864.3922, 18.50980
864.8743, 18.64349
865.3564, 19.31178
865.8385, 20.00453
866.3206, 20.00289
866.8027, 19.36736
867.2849, 18.72914
867.7670, 18.43339
868.2491, 18.34957
868.7312, 18.38325
869.2133, 18.48488
869.6954, 18.49794
870.1776, 18.41809
870.6597, 18.31537
871.1418, 18.20053
871.6239, 18.25125
872.1060, 18.76637
872.5881, 19.74052
873.0703, 20.42042
873.5524, 20.47253
874.0345, 21.10793
874.5166, 22.98313
874.9987, 25.08055
875.4808, 27.05110
875.9630, 28.60789
876.4451, 28.73861
876.9272, 26.82393
877.4093, 24.68836
877.8914, 22.28371
878.3735, 20.17530
878.8557, 18.51816
879.3378, 17.45332
879.8199, 17.48787
880.3020, 18.55526
880.7841, 19.17285
881.2662, 17.89720
881.7484, 16.05216
882.2305, 15.25430
882.7126, 15.17806
883.1947, 15.03139
883.6768, 14.71278
884.1589, 14.65345
884.6411, 15.16386
885.1232, 15.88245
885.6053, 16.02423
886.0874, 15.56911
886.5695, 15.40584
887.0516, 15.66856
887.5338, 15.71058
888.0159, 15.14775
888.4980, 14.48722
888.9801, 14.38658
889.4622, 14.84375
889.9443, 15.05230
890.4265, 14.69080
890.9086, 14.54639
891.3907, 14.93808
891.8728, 15.32638
892.3549, 15.40225
892.8370, 15.22327
893.3192, 14.86679
893.8013, 14.30210
894.2834, 13.96641
894.7655, 14.34494
895.2476, 14.78107
895.7297, 14.60492
896.2119, 14.14469
896.6940, 14.01765
897.1761, 14.29986
897.6582, 14.62204
898.1403, 14.75081
898.6224, 14.71503
899.1046, 14.48244
899.5867, 14.11821
900.0688, 13.91937
900.5509, 13.91065
901.0330, 13.96148
901.5151, 14.02225
901.9973, 14.03539
902.4794, 13.86203
902.9615, 13.50152
903.4436, 13.66414
903.9257, 14.71249
904.4078, 15.32785
904.8900, 15.09093
905.3721, 14.53311
905.8542, 13.82125
906.3363, 13.12534
906.8184, 13.02055
907.3005, 13.85709
907.7827, 14.44341
908.2648, 14.46773
908.7469, 14.39756
909.2290, 14.42185
909.7111, 14.50276
910.1932, 14.63567
910.6754, 14.78158
911.1575, 14.74104
911.6396, 14.20290
912.1217, 13.76465
912.6038, 14.15398
913.0859, 14.80218
913.5681, 14.81282
914.0502, 14.28323
914.5323, 13.89540
915.0143, 13.94693
915.4965, 14.15596
915.9786, 14.17321
916.4607, 14.07406
916.9428, 14.17429
917.4249, 14.45172
917.9070, 14.61492
918.3892, 14.59873
918.8713, 14.34219
919.3534, 13.70500
919.8355, 12.95161
920.3176, 13.00335
920.7997, 14.24584
921.2819, 14.80924
921.7640, 14.29608
922.2461, 13.83713
922.7282, 13.97174
923.2103, 14.29799
923.6924, 14.33281
924.1746, 14.09102
924.6567, 13.80501
925.1388, 13.31173
925.6209, 13.01886
926.1030, 13.12847
926.5851, 13.33828
927.0673, 13.44619
927.5494, 13.50412
928.0315, 13.67220
928.5136, 13.99380
928.9957, 14.19487
929.4778, 13.98996
929.9600, 13.74907
930.4421, 13.76324
930.9242, 13.94733
931.4063, 14.24286
931.8884, 14.57193
932.3705, 14.71936
932.8527, 14.55427
933.3348, 14.24117
933.8169, 13.93263
934.2990, 13.65834
934.7811, 13.50165
935.2632, 13.46326
935.7454, 13.54379
936.2275, 13.74413
936.7096, 13.95298
937.1917, 14.06378
937.6738, 14.09138
938.1559, 14.09479
938.6381, 14.07772
939.1202, 13.99668
939.6023, 13.82897
940.0844, 13.64980
940.5665, 13.46122
941.0486, 13.33086
941.5308, 13.37334
942.0129, 13.60112
942.4950, 13.87161
942.9771, 14.37299
943.4592, 14.63127
943.9413, 14.34650
944.4235, 14.03724
944.9056, 14.03919
945.3877, 14.25100
945.8698, 14.47412
946.3519, 14.73351
946.8340, 14.77447
947.3162, 14.25913
947.7983, 13.82313
948.2804, 13.94744
948.7625, 14.23320
949.2446, 14.08643
949.7267, 13.61297
950.2089, 13.53248
950.6910, 14.30898
951.1731, 15.06140
951.6552, 14.94425
952.1373, 14.52503
952.6194, 14.52907
953.1016, 14.83331
953.5837, 15.06731
954.0658, 15.10186
954.5479, 14.88739
955.0300, 14.29499
955.5121, 13.60067
955.9943, 13.32498
956.4764, 13.39200
956.9585, 13.52214
957.4406, 13.68180
957.9227, 13.87691
958.4048, 14.11308
958.8870, 14.36166
959.3691, 14.59986
959.8512, 14.81453
960.3333, 14.88912
960.8154, 14.81011
961.2975, 14.71441
961.7797, 14.67966
962.2618, 14.40948
962.7439, 13.53755
963.2260, 12.52133
963.7081, 12.40227
964.1902, 13.41558
964.6724, 14.07191
965.1545, 14.24747
965.6366, 14.26177
966.1187, 13.89651
966.6008, 13.67313
967.0829, 14.28439
967.5651, 15.34518
968.0472, 15.62481
968.5293, 14.71698
969.0114, 13.93179
969.4935, 13.26916
969.9756, 12.96938
970.4578, 13.54724
970.9399, 14.25575
971.4220, 14.16391
971.9041, 13.38028
972.3862, 12.83235
972.8683, 12.88255
973.3505, 13.11260
973.8326, 13.41794
974.3147, 13.71145
974.7968, 13.93731
975.2789, 14.08369
975.7610, 14.07858
976.2432, 13.94998
976.7253, 13.95557
977.2074, 14.35064
977.6895, 14.79513
978.1716, 14.88086
978.6537, 14.77933
979.1359, 14.79947
979.6180, 14.92134
980.1001, 14.93279
980.5822, 14.76341
981.0643, 14.58792
981.5464, 14.58310
982.0286, 14.69646
982.5107, 14.86526
982.9928, 15.05192
983.4749, 15.02588
983.9570, 14.77182
984.4391, 14.57402
984.9213, 14.58410
985.4034, 14.70029
985.8855, 14.78694
986.3676, 14.84427
986.8497, 14.86899
987.3318, 14.85933
987.8140, 14.84303
988.2961, 14.83335
988.7782, 14.76880
989.2603, 14.58052
989.7424, 14.35998
990.2245, 14.28610
990.7067, 14.35801
991.1888, 14.62063
991.6709, 15.24102
992.1530, 15.63396
992.6351, 15.53354
993.1172, 15.36552
993.5994, 15.49228
994.0815, 15.79460
994.5636, 15.89630
995.0457, 15.69783
995.5278, 15.57941
996.0099, 15.56971
996.4921, 15.60108
996.9742, 15.64834
997.4563, 15.73681
997.9384, 15.98606
998.4205, 16.29922
998.9026, 16.32330
999.3848, 15.89260
999.8669, 15.49160
1000.349, 15.09765
1000.831, 14.88907
1001.313, 15.02268
1001.795, 15.33669
1002.277, 15.78073
1002.760, 16.24952
1003.242, 16.39261
1003.724, 15.94927
1004.206, 15.54681
1004.688, 15.56200
1005.170, 15.63970
1005.652, 15.44465
1006.134, 15.15993
1006.617, 15.07242
1007.099, 15.21787
1007.581, 15.47768
1008.063, 15.85010
1008.545, 16.17689
1009.027, 16.36047
1009.509, 16.40675
1009.991, 16.22525
1010.473, 15.94108
1010.956, 15.82338
1011.438, 15.92091
1011.920, 16.06963
1012.402, 16.16990
1012.884, 16.24097
1013.366, 16.29244
1013.848, 16.33832
1014.330, 16.40134
1014.813, 16.48429
1015.295, 16.60362
1015.777, 16.75708
1016.259, 16.88189
1016.741, 16.93813
1017.223, 16.90162
1017.705, 16.65248
1018.187, 16.27715
1018.669, 16.11039
1019.152, 16.15097
1019.634, 16.16081
1020.116, 16.05195
1020.598, 15.92435
1021.080, 15.87635
1021.562, 15.89421
1022.044, 15.95512
1022.526, 16.05309
1023.008, 16.11527
1023.491, 16.13456
1023.973, 16.18659
1024.455, 16.30943
1024.937, 16.40252
1025.419, 16.31206
1025.901, 16.13053
1026.383, 16.41448
1026.865, 17.23265
1027.348, 17.36351
1027.830, 16.56437
1028.312, 15.81065
1028.794, 15.50833
1029.276, 15.57501
1029.758, 15.99266
1030.240, 16.67056
1030.722, 16.78874
1031.204, 16.13039
1031.687, 15.95310
1032.169, 16.60117
1032.651, 17.04679
1033.133, 16.70208
1033.615, 16.11082
1034.097, 15.97894
1034.579, 16.27768
1035.061, 16.60998
1035.544, 17.16311
1036.026, 17.20513
1036.508, 16.26467
1036.990, 15.58669
1037.472, 15.91206
1037.954, 16.63478
1038.436, 16.98275
1038.918, 16.96739
1039.401, 16.92251
1039.883, 16.68874
1040.365, 16.73309
1040.847, 17.36991
1041.329, 17.90800
1041.811, 18.06260
1042.293, 17.94426
1042.775, 17.56699
1043.257, 16.94752
1043.740, 16.71513
1044.222, 17.28312
1044.704, 17.59889
1045.186, 17.33248
1045.668, 17.12710
1046.150, 17.27392
1046.632, 17.62685
1047.114, 18.06248
1047.596, 18.56149
1048.079, 18.95756
1048.561, 19.16976
1049.043, 19.37959
1049.525, 19.56775
1050.007, 19.80256
1050.489, 20.16960
1050.971, 20.56755
1051.453, 20.85107
1051.936, 21.03403
1052.418, 21.29364
1052.900, 21.73600
1053.382, 22.12407
1053.864, 22.30718
1054.346, 22.54972
1054.828, 22.95539
1055.310, 23.51973
1055.792, 24.25301
1056.275, 25.13838
1056.757, 26.08453
1057.239, 27.12259
1057.721, 28.11365
1058.203, 28.77994
1058.685, 29.66204
1059.167, 31.33507
1059.649, 33.19260
1060.131, 34.42526
1060.614, 35.13620
1061.096, 36.18509
1061.578, 38.02245
1062.060, 39.58045
1062.542, 40.49455
1063.024, 41.02260
1063.506, 40.83243
1063.988, 40.67358
1064.471, 41.34367
1064.953, 42.83089
1065.435, 44.71938
1065.917, 46.91171
1066.399, 49.49852
1066.881, 51.94793
1067.363, 55.46075
1067.845, 60.26789
1068.328, 66.85612
1068.810, 74.97990
1069.292, 85.34200
1069.774, 99.55556
1070.256, 117.7490
1070.738, 141.4924
1071.220, 168.8652
1071.702, 204.8562
1072.184, 254.1853
1072.667, 312.0493
1073.149, 380.3148
1073.631, 451.0550
1074.113, 506.9219
1074.595, 543.1669
1075.077, 566.0153
1075.559, 564.8211
1076.041, 566.7565
1076.523, 583.0428
1077.006, 613.0297
1077.488, 657.0047
1077.970, 713.5605
1078.452, 780.8622
1078.934, 858.4559
1079.416, 943.5630
1079.898, 1031.839
1080.380, 1131.913
1080.862, 1246.458
1081.345, 1377.198
1081.827, 1517.604
1082.309, 1678.267
1082.791, 1864.322
1083.273, 2081.541
1083.755, 2371.792
1084.237, 2844.552
1084.719, 3266.680
1085.202, 3663.509
1085.684, 3831.221
1086.166, 3513.330
1086.648, 2902.340
1087.130, 2230.624
1087.612, 1570.055
1088.094, 1041.776
1088.576, 712.0199
1089.058, 484.2020
1089.541, 352.3452
1090.023, 268.9325
1090.505, 215.5432
1090.987, 180.4323
1091.469, 154.5640
1091.951, 135.2928
1092.433, 119.2102
1092.915, 105.7083
1093.397, 94.26091
1093.880, 85.14134
1094.362, 77.54863
1094.844, 71.74725
1095.326, 66.78662
1095.808, 61.69746
1096.290, 56.56102
1096.772, 51.86125
1097.254, 47.72843
1097.737, 44.10076
1098.219, 41.09951
1098.701, 38.45066
1099.183, 36.11464
1099.665, 33.99089
1100.147, 31.95838
1100.629, 30.07980
1101.111, 28.48673
1101.594, 27.19640
1102.076, 26.14968
1102.558, 25.51264
1103.040, 24.85818
1103.522, 23.90161
1104.004, 23.02195
1104.486, 22.69268
1104.968, 22.52315
1105.450, 21.75890
1105.932, 20.35974
1106.415, 19.31394
1106.897, 19.18225
1107.379, 18.86130
1107.861, 17.78524
1108.343, 16.87722
1108.825, 16.68588
1109.307, 16.87478
1109.789, 17.16793
1110.272, 17.48266
1110.754, 17.43743
1111.236, 16.78280
1111.718, 16.18640
1112.200, 15.56813
1112.682, 15.19332
1113.164, 15.31126
1113.646, 15.57355
1114.129, 15.72859
1114.611, 15.76803
1115.093, 15.65946
1115.575, 15.31808
1116.057, 15.09436
1116.539, 15.06981
1117.021, 15.03967
1117.503, 14.96356
1117.985, 14.86957
1118.468, 14.72042
1118.950, 14.59974
1119.432, 14.71712
1119.914, 15.11488
1120.396, 15.22255
1120.878, 14.88632
1121.360, 14.59266
1121.842, 14.43524
1122.324, 14.24733
1122.807, 13.86803
1123.289, 13.52534
1123.771, 13.52809
1124.253, 13.83825
1124.735, 14.16637
1125.217, 14.61957
1125.699, 14.68082
1126.181, 14.18649
1126.664, 13.71661
1127.146, 13.42243
1127.628, 13.36539
1128.110, 13.67091
1128.592, 14.16733
1129.074, 14.31320
1129.556, 14.05699
1130.038, 14.04302
1130.521, 14.33549
1131.003, 14.37739
1131.485, 14.00678
1131.967, 13.61166
1132.449, 13.44505
1132.931, 13.37058
1133.413, 13.12440
1133.895, 12.76826
1134.377, 12.81621
1134.859, 13.24830
1135.342, 13.37960
1135.824, 13.12604
1136.306, 13.03780
1136.788, 13.36214
1137.270, 13.66361
1137.752, 13.43464
1138.234, 12.94968
1138.716, 12.92080
1139.199, 13.23486
1139.681, 13.45282
1140.163, 13.53358
1140.645, 13.38664
1141.127, 13.01943
1141.609, 12.70640
1142.091, 12.63265
1142.573, 12.73171
1143.056, 12.98447
1143.538, 13.30158
1144.020, 13.59958
1144.502, 13.78208
1144.984, 13.47571
1145.466, 12.78652
1145.948, 12.38044
1146.430, 12.53401
1146.912, 12.76240
1147.395, 12.57104
1147.877, 12.31334
1148.359, 12.40267
1148.841, 12.66934
1149.323, 12.99705
1149.805, 13.25864
1150.287, 13.14742
1150.769, 12.67112
1151.251, 12.34974
1151.734, 12.50814
1152.216, 12.75362
1152.698, 12.84704
1153.180, 12.90015
1153.662, 13.05864
1154.144, 13.19538
1154.626, 13.04870
1155.108, 12.72480
1155.591, 12.67712
1156.073, 13.10395
1156.555, 13.29461
1157.037, 12.84277
1157.519, 12.31530
1158.001, 11.74831
1158.483, 11.38437
1158.965, 11.47501
1159.448, 11.85413
1159.930, 12.36943
1160.412, 12.99218
1160.894, 13.08623
1161.376, 12.03392
1161.858, 11.31578
1162.340, 11.11578
1162.822, 11.19908
1163.304, 11.70540
1163.786, 12.24066
1164.269, 12.49542
1164.751, 12.46579
1165.233, 12.07481
1165.715, 11.11666
1166.197, 10.75469
1166.679, 11.24439
1167.161, 11.58596
1167.643, 11.47318
1168.126, 11.53082
1168.608, 12.27991
1169.090, 13.02904
1169.572, 12.60057
1170.054, 11.25757
1170.536, 11.18191
1171.018, 12.45485
1171.500, 13.13316
1171.983, 13.05109
1172.465, 12.37137
1172.947, 11.10804
1173.429, 10.20428
1173.911, 10.49433
1174.393, 11.42925
1174.875, 12.06551
1175.357, 12.44729
1175.839, 12.75884
1176.322, 12.98443
1176.804, 12.98685
1177.286, 12.79067
1177.768, 12.70063
1178.250, 12.84750
1178.732, 12.88658
1179.214, 12.37685
1179.696, 11.73136
1180.178, 11.50892
1180.661, 11.51159
1181.143, 11.47624
1181.625, 11.39157
1182.107, 11.26140
1182.589, 11.11989
1183.071, 11.12365
1183.553, 11.39991
1184.035, 11.61573
1184.518, 11.42510
1185.000, 11.25585
1185.482, 11.49980
1185.964, 11.84883
1186.446, 11.97695
1186.928, 11.92787
1187.410, 11.84595
1187.892, 11.75405
1188.375, 11.75564
1188.857, 12.05604
1189.339, 12.17986
1189.821, 11.87503
1190.303, 11.55602
1190.785, 11.36695
1191.267, 11.30885
1191.749, 11.42012
1192.231, 11.65127
1192.714, 11.80464
1193.196, 11.84011
1193.678, 11.97070
1194.160, 12.29076
1194.642, 12.44880
1195.124, 12.37152
1195.606, 12.10972
1196.088, 11.62704
1196.570, 11.15484
1197.053, 11.03558
1197.535, 11.19419
1198.017, 11.25423
1198.499, 11.21906
1198.981, 11.23811
1199.463, 11.31972
1199.945, 11.43460
1200.427, 11.57027
1200.910, 11.61796
1201.392, 11.49648
1201.874, 11.30868
1202.356, 11.15983
1202.838, 11.07473
1203.320, 11.12387
1203.802, 11.27302
1204.284, 11.56362
1204.766, 11.87010
1205.249, 11.68365
1205.731, 10.94127
1206.213, 10.52329
1206.695, 11.11619
1207.177, 11.85759
1207.659, 12.28307
1208.141, 12.36529
1208.623, 11.77412
1209.105, 11.04572
1209.588, 10.91069
1210.070, 11.23187
1210.552, 11.31659
1211.034, 10.96070
1211.516, 10.98676
1211.998, 12.19401
1212.480, 12.91379
1212.962, 12.27978
1213.445, 11.60534
1213.927, 11.71719
1214.409, 12.02616
1214.891, 11.81080
1215.373, 11.24779
1215.855, 11.17080
1216.337, 11.76696
1216.819, 12.00383
1217.302, 11.77538
1217.784, 11.61560
1218.266, 11.66845
1218.748, 11.58849
1219.230, 11.13083
1219.712, 10.72582
1220.194, 10.99856
1220.676, 11.66117
1221.158, 11.75038
1221.641, 11.37438
1222.123, 11.00921
1222.605, 10.73514
1223.087, 10.83433
1223.569, 11.31019
1224.051, 11.73473
1224.533, 11.87190
1225.015, 11.83375
1225.497, 11.57377
1225.980, 11.35841
1226.462, 11.65514
1226.944, 12.06773
1227.426, 11.99723
1227.908, 11.65051
1228.390, 11.54042
1228.872, 11.72547
1229.354, 11.91045
1229.837, 12.05607
1230.319, 12.01284
1230.801, 11.50296
1231.283, 11.09017
1231.765, 10.94648
1232.247, 11.05913
1232.729, 11.72583
1233.211, 12.48246
1233.693, 12.39705
1234.176, 11.51282
1234.658, 11.14414
1235.140, 11.54938
1235.622, 11.63633
1236.104, 11.19681
1236.586, 11.07332
1237.068, 11.59141
1237.550, 12.12155
1238.032, 12.22242
1238.515, 11.99861
1238.997, 11.52679
1239.479, 10.93437
1239.961, 10.83865
1240.443, 11.09226
1240.925, 10.94152
1241.407, 10.44463
1241.889, 10.19487
1242.372, 10.36146
1242.854, 10.84604
1243.336, 11.67877
1243.818, 12.24041
1244.300, 11.69916
1244.782, 10.87588
1245.264, 10.40645
1245.746, 10.25694
1246.229, 10.52676
1246.711, 10.99127
1247.193, 11.20695
1247.675, 11.13375
1248.157, 11.19527
1248.639, 11.64497
1249.121, 11.93116
1249.603, 11.95117
1250.085, 11.79820
1250.568, 11.36119
1251.050, 10.93527
1251.532, 10.66628
1252.014, 10.57613
1252.496, 10.71919
1252.978, 11.07764
1253.460, 11.51340
1253.942, 12.07007
1254.424, 12.15207
1254.907, 11.70361
1255.389, 11.39729
1255.871, 11.41801
1256.353, 11.59194
1256.835, 11.82428
1257.317, 11.93082
1257.799, 11.52486
1258.281, 10.98700
1258.764, 11.02830
1259.246, 11.42354
1259.728, 11.98112
1260.210, 12.46826
1260.692, 12.33688
1261.174, 11.64205
1261.656, 11.14460
1262.138, 11.18224
1262.620, 11.23401
1263.103, 10.98840
1263.585, 10.80112
1264.067, 10.92292
1264.549, 11.06010
1265.031, 10.91102
1265.513, 10.71326
1265.995, 10.81663
1266.477, 11.17692
1266.959, 11.58696
1267.442, 12.13865
1267.924, 12.33193
1268.406, 12.07871
1268.888, 11.86998
1269.370, 11.79791
1269.852, 11.79772
1270.334, 11.85140
1270.816, 11.79357
1271.299, 11.38246
1271.781, 10.92517
1272.263, 11.19493
1272.745, 11.83828
1273.227, 12.01219
1273.709, 11.81542
1274.191, 11.47333
1274.673, 11.11026
##END=



