##NAMES=Barytocalcite
##RRUFFID=R050288
##IDEAL CHEMISTRY=BaCa(CO_3_)_2_
##LOCALITY=Cumberland, England
##OWNER=RRUFF
##SOURCE=Marcus Origlieri
##DESCRIPTION=Light tan elongated crystals
##STATUS=The identification of this mineral has been confirmed by X-ray diffraction and chemical analysis
##URL=rruff.info/R050288
##MEASURED CHEMISTRY=Ba_1.00_Ca_1.00_(CO_3_)_2_
123.6911, 2501.495
124.1732, 2533.908
124.6553, 2569.987
125.1375, 2612.348
125.6196, 2660.776
126.1017, 2714.583
126.5838, 2775.127
127.0659, 2840.590
127.5480, 2908.601
128.0302, 2980.285
128.5123, 3052.289
128.9944, 3122.101
129.4765, 3189.308
129.9586, 3250.048
130.4407, 3302.151
130.9229, 3345.634
131.4050, 3380.147
131.8871, 3403.135
132.3692, 3418.494
132.8513, 3432.497
133.3334, 3439.467
133.8156, 3433.199
134.2977, 3421.199
134.7798, 3415.273
135.2619, 3414.077
135.7440, 3418.347
136.2261, 3427.023
136.7083, 3435.407
137.1904, 3443.359
137.6725, 3451.881
138.1546, 3462.703
138.6367, 3476.570
139.1188, 3489.088
139.6010, 3498.546
140.0831, 3504.907
140.5652, 3513.969
141.0473, 3525.609
141.5294, 3540.040
142.0115, 3557.882
142.4937, 3580.835
142.9758, 3603.285
143.4579, 3623.413
143.9400, 3640.197
144.4221, 3658.559
144.9042, 3678.013
145.3864, 3699.105
145.8685, 3722.193
146.3506, 3746.325
146.8327, 3773.733
147.3148, 3805.713
147.7969, 3843.749
148.2791, 3882.500
148.7612, 3922.253
149.2433, 3962.557
149.7254, 4003.071
150.2075, 4041.597
150.6896, 4082.080
151.1718, 4126.026
151.6539, 4180.839
152.1360, 4228.601
152.6181, 4266.674
153.1002, 4297.237
153.5823, 4326.537
154.0645, 4361.624
154.5466, 4391.153
155.0287, 4409.752
155.5108, 4409.184
155.9929, 4407.253
156.4750, 4404.527
156.9572, 4401.786
157.4393, 4402.502
157.9214, 4408.180
158.4035, 4416.979
158.8856, 4427.747
159.3677, 4439.688
159.8499, 4454.159
160.3320, 4470.633
160.8141, 4489.401
161.2962, 4512.689
161.7783, 4541.759
162.2604, 4575.323
162.7426, 4612.319
163.2247, 4660.946
163.7068, 4705.550
164.1889, 4738.406
164.6710, 4759.727
165.1531, 4777.250
165.6353, 4797.035
166.1174, 4814.192
166.5995, 4823.448
167.0816, 4819.647
167.5637, 4809.745
168.0458, 4796.994
168.5280, 4781.576
169.0101, 4764.939
169.4922, 4751.162
169.9743, 4736.292
170.4564, 4714.861
170.9385, 4680.147
171.4207, 4640.623
171.9028, 4603.231
172.3849, 4568.467
172.8670, 4534.619
173.3491, 4499.226
173.8312, 4463.604
174.3134, 4430.130
174.7955, 4402.157
175.2776, 4376.256
175.7597, 4346.999
176.2418, 4313.139
176.7239, 4282.618
177.2061, 4262.863
177.6882, 4251.747
178.1703, 4243.771
178.6524, 4234.771
179.1345, 4227.424
179.6166, 4227.282
180.0988, 4235.407
180.5809, 4246.583
181.0630, 4251.120
181.5451, 4252.211
182.0272, 4262.492
182.5093, 4296.419
182.9915, 4344.170
183.4736, 4381.535
183.9557, 4406.648
184.4378, 4423.368
184.9199, 4432.517
185.4020, 4435.490
185.8842, 4443.646
186.3663, 4465.966
186.8484, 4499.083
187.3305, 4529.801
187.8126, 4556.945
188.2947, 4582.882
188.7769, 4610.726
189.2590, 4640.524
189.7411, 4672.938
190.2232, 4709.240
190.7053, 4748.963
191.1874, 4788.821
191.6696, 4827.476
192.1517, 4869.122
192.6338, 4922.548
193.1159, 4987.982
193.5980, 5058.946
194.0801, 5134.011
194.5623, 5212.376
195.0444, 5286.178
195.5265, 5351.536
196.0086, 5415.568
196.4907, 5495.001
196.9728, 5591.200
197.4550, 5690.899
197.9371, 5786.708
198.4192, 5878.571
198.9013, 5972.328
199.3834, 6074.267
199.8655, 6172.180
200.3477, 6240.384
200.8298, 6279.048
201.3119, 6285.235
201.7940, 6254.955
202.2761, 6187.011
202.7582, 6096.064
203.2404, 5980.389
203.7225, 5844.898
204.2046, 5698.216
204.6867, 5535.230
205.1688, 5378.034
205.6509, 5240.703
206.1331, 5122.896
206.6152, 5022.360
207.0973, 4940.646
207.5794, 4875.112
208.0615, 4817.988
208.5436, 4769.132
209.0258, 4728.815
209.5079, 4698.422
209.9900, 4679.248
210.4721, 4663.945
210.9542, 4651.401
211.4363, 4642.451
211.9185, 4640.714
212.4006, 4648.079
212.8827, 4658.530
213.3648, 4667.961
213.8469, 4675.386
214.3290, 4685.337
214.8112, 4697.226
215.2933, 4711.980
215.7754, 4733.954
216.2575, 4764.929
216.7396, 4799.808
217.2217, 4835.476
217.7038, 4871.412
218.1860, 4909.489
218.6681, 4950.276
219.1502, 4992.997
219.6323, 5034.120
220.1144, 5072.206
220.5965, 5110.646
221.0787, 5151.431
221.5608, 5196.044
222.0429, 5239.249
222.5250, 5282.200
223.0071, 5323.409
223.4892, 5356.517
223.9714, 5384.448
224.4535, 5400.406
224.9356, 5400.008
225.4177, 5378.835
225.8998, 5351.620
226.3819, 5317.715
226.8641, 5278.291
227.3462, 5237.786
227.8283, 5193.492
228.3104, 5152.207
228.7925, 5118.596
229.2746, 5096.417
229.7568, 5071.999
230.2389, 5042.409
230.7210, 5010.362
231.2031, 4985.479
231.6852, 4969.289
232.1673, 4957.938
232.6495, 4950.404
233.1316, 4949.461
233.6137, 4945.860
234.0958, 4937.530
234.5779, 4926.860
235.0600, 4920.978
235.5422, 4922.384
236.0243, 4924.913
236.5064, 4925.130
236.9885, 4918.706
237.4706, 4919.927
237.9527, 4931.725
238.4349, 4950.376
238.9170, 4966.355
239.3991, 4977.315
239.8812, 4989.080
240.3633, 5003.640
240.8454, 5019.858
241.3276, 5041.603
241.8097, 5068.662
242.2918, 5101.043
242.7739, 5139.427
243.2560, 5188.337
243.7381, 5236.249
244.2203, 5277.738
244.7024, 5308.062
245.1845, 5345.888
245.6666, 5395.345
246.1487, 5450.263
246.6308, 5499.035
247.1130, 5536.116
247.5951, 5576.351
248.0772, 5625.339
248.5593, 5686.346
249.0414, 5744.517
249.5235, 5796.501
250.0057, 5847.617
250.4878, 5908.003
250.9699, 5981.007
251.4520, 6057.402
251.9341, 6131.679
252.4162, 6200.784
252.8984, 6284.655
253.3805, 6385.460
253.8626, 6500.323
254.3447, 6621.691
254.8268, 6749.930
255.3089, 6887.398
255.7911, 7033.319
256.2732, 7188.249
256.7553, 7353.484
257.2374, 7535.120
257.7195, 7721.799
258.2017, 7901.722
258.6838, 8080.577
259.1659, 8244.408
259.6480, 8398.949
260.1301, 8544.709
260.6122, 8637.533
261.0944, 8679.494
261.5765, 8665.731
262.0586, 8587.248
262.5407, 8433.346
263.0228, 8244.679
263.5049, 8024.495
263.9871, 7772.283
264.4692, 7522.242
264.9513, 7266.909
265.4334, 7022.185
265.9155, 6796.680
266.3976, 6593.679
266.8798, 6412.630
267.3619, 6257.614
267.8440, 6125.737
268.3261, 6005.239
268.8082, 5896.634
269.2903, 5798.666
269.7725, 5711.901
270.2546, 5638.227
270.7367, 5571.542
271.2188, 5511.226
271.7009, 5457.881
272.1830, 5413.483
272.6652, 5379.339
273.1473, 5351.420
273.6294, 5328.117
274.1115, 5310.476
274.5936, 5290.794
275.0757, 5267.182
275.5579, 5241.579
276.0400, 5220.008
276.5221, 5202.581
277.0042, 5188.551
277.4863, 5177.635
277.9684, 5169.853
278.4506, 5165.021
278.9327, 5163.990
279.4148, 5164.833
279.8969, 5162.956
280.3790, 5157.860
280.8611, 5153.771
281.3433, 5153.817
281.8254, 5157.985
282.3075, 5159.159
282.7896, 5155.877
283.2717, 5152.471
283.7538, 5157.453
284.2360, 5171.226
284.7181, 5183.583
285.2002, 5187.812
285.6823, 5185.341
286.1644, 5189.677
286.6465, 5201.562
287.1287, 5217.257
287.6108, 5234.281
288.0929, 5252.283
288.5750, 5265.163
289.0571, 5267.826
289.5392, 5263.455
290.0214, 5265.393
290.5035, 5274.215
290.9856, 5284.432
291.4677, 5291.695
291.9498, 5295.866
292.4319, 5295.571
292.9141, 5288.334
293.3962, 5277.579
293.8783, 5272.380
294.3604, 5272.893
294.8425, 5272.733
295.3246, 5264.753
295.8068, 5251.319
296.2889, 5240.384
296.7710, 5233.934
297.2531, 5230.694
297.7352, 5229.165
298.2173, 5229.245
298.6995, 5230.078
299.1816, 5230.833
299.6637, 5231.864
300.1458, 5233.930
300.6279, 5237.179
301.1100, 5241.306
301.5922, 5245.464
302.0743, 5249.899
302.5564, 5255.792
303.0385, 5265.462
303.5206, 5276.387
304.0027, 5284.794
304.4849, 5289.585
304.9670, 5293.798
305.4491, 5301.155
305.9312, 5310.218
306.4133, 5317.552
306.8954, 5321.257
307.3776, 5322.646
307.8597, 5322.042
308.3418, 5319.280
308.8239, 5317.927
309.3060, 5321.472
309.7881, 5328.161
310.2703, 5335.056
310.7524, 5344.202
311.2345, 5350.934
311.7166, 5350.020
312.1987, 5341.711
312.6808, 5334.200
313.1630, 5332.055
313.6451, 5333.028
314.1272, 5334.711
314.6093, 5338.621
315.0914, 5340.723
315.5735, 5336.372
316.0557, 5327.196
316.5378, 5322.023
317.0199, 5328.334
317.5020, 5337.895
317.9841, 5344.896
318.4662, 5347.591
318.9484, 5348.060
319.4305, 5346.242
319.9126, 5342.657
320.3947, 5338.645
320.8768, 5332.020
321.3589, 5327.047
321.8411, 5325.972
322.3232, 5329.923
322.8053, 5335.728
323.2874, 5344.490
323.7695, 5354.420
324.2516, 5362.686
324.7338, 5370.225
325.2159, 5374.735
325.6980, 5373.851
326.1801, 5365.198
326.6622, 5361.476
327.1443, 5366.697
327.6265, 5375.857
328.1086, 5383.976
328.5907, 5390.419
329.0728, 5396.377
329.5549, 5401.780
330.0370, 5406.665
330.5192, 5412.220
331.0013, 5420.761
331.4834, 5428.103
331.9655, 5430.941
332.4476, 5423.998
332.9297, 5421.782
333.4119, 5427.499
333.8940, 5439.049
334.3761, 5446.841
334.8582, 5447.948
335.3403, 5449.554
335.8224, 5455.730
336.3046, 5468.687
336.7867, 5479.613
337.2688, 5488.619
337.7509, 5495.302
338.2330, 5498.087
338.7151, 5495.181
339.1973, 5494.047
339.6794, 5499.118
340.1615, 5510.920
340.6436, 5516.576
341.1257, 5514.428
341.6078, 5509.913
342.0899, 5510.256
342.5721, 5515.885
343.0542, 5521.495
343.5363, 5524.921
344.0184, 5527.195
344.5005, 5533.029
344.9826, 5542.642
345.4648, 5554.090
345.9469, 5567.261
346.4290, 5581.585
346.9111, 5590.886
347.3932, 5592.438
347.8753, 5590.416
348.3575, 5592.922
348.8396, 5599.523
349.3217, 5606.483
349.8038, 5610.315
350.2859, 5612.494
350.7680, 5616.532
351.2502, 5622.679
351.7323, 5631.050
352.2144, 5643.545
352.6965, 5658.807
353.1786, 5672.371
353.6607, 5681.974
354.1429, 5688.806
354.6250, 5694.391
355.1071, 5698.892
355.5892, 5701.722
356.0713, 5699.725
356.5534, 5696.457
357.0356, 5697.202
357.5177, 5709.376
357.9998, 5721.737
358.4819, 5723.690
358.9640, 5717.280
359.4461, 5713.863
359.9283, 5720.798
360.4104, 5732.448
360.8925, 5744.325
361.3746, 5755.942
361.8567, 5766.582
362.3388, 5775.637
362.8210, 5783.364
363.3031, 5790.628
363.7852, 5795.311
364.2673, 5801.419
364.7494, 5812.009
365.2315, 5829.657
365.7137, 5843.408
366.1958, 5848.834
366.6779, 5849.922
367.1600, 5851.403
367.6421, 5852.353
368.1242, 5855.261
368.6064, 5861.665
369.0885, 5871.848
369.5706, 5880.135
370.0527, 5886.887
370.5348, 5891.603
371.0169, 5893.798
371.4991, 5891.120
371.9812, 5889.939
372.4633, 5890.375
372.9454, 5892.677
373.4275, 5898.159
373.9096, 5909.463
374.3918, 5919.515
374.8739, 5923.604
375.3560, 5918.963
375.8381, 5921.703
376.3202, 5934.106
376.8023, 5950.819
377.2845, 5963.898
377.7666, 5972.791
378.2487, 5980.093
378.7308, 5985.374
379.2129, 5989.376
379.6950, 5998.012
380.1772, 6012.300
380.6593, 6026.140
381.1414, 6033.219
381.6235, 6034.166
382.1056, 6035.186
382.5877, 6036.877
383.0699, 6040.196
383.5520, 6047.895
384.0341, 6059.666
384.5162, 6071.557
384.9983, 6082.505
385.4804, 6091.680
385.9626, 6096.644
386.4447, 6096.573
386.9268, 6095.393
387.4089, 6096.018
387.8910, 6098.528
388.3731, 6103.130
388.8553, 6110.936
389.3374, 6120.181
389.8195, 6129.603
390.3016, 6138.989
390.7837, 6147.656
391.2658, 6154.688
391.7480, 6160.889
392.2301, 6167.089
392.7122, 6173.521
393.1943, 6180.121
393.6764, 6187.506
394.1585, 6195.211
394.6407, 6201.670
395.1228, 6207.161
395.6049, 6210.837
396.0870, 6211.232
396.5691, 6205.938
397.0512, 6204.884
397.5334, 6212.111
398.0155, 6223.926
398.4976, 6235.582
398.9797, 6246.554
399.4618, 6257.353
399.9439, 6268.224
400.4261, 6279.094
400.9082, 6288.847
401.3903, 6296.938
401.8724, 6304.243
402.3545, 6311.522
402.8366, 6319.848
403.3188, 6325.417
403.8009, 6327.227
404.2830, 6326.499
404.7651, 6325.336
405.2472, 6322.048
405.7293, 6323.369
406.2115, 6334.399
406.6936, 6355.522
407.1757, 6369.646
407.6578, 6375.490
408.1399, 6378.001
408.6220, 6383.324
409.1042, 6391.375
409.5863, 6397.250
410.0684, 6398.697
410.5505, 6397.896
411.0326, 6399.670
411.5147, 6404.033
411.9969, 6410.642
412.4790, 6420.762
412.9611, 6432.954
413.4432, 6443.028
413.9253, 6449.888
414.4074, 6457.280
414.8896, 6471.954
415.3717, 6490.483
415.8538, 6504.652
416.3359, 6506.158
416.8180, 6504.233
417.3001, 6506.592
417.7823, 6513.400
418.2644, 6522.466
418.7465, 6536.996
419.2286, 6551.180
419.7107, 6558.642
420.1928, 6549.464
420.6750, 6544.515
421.1571, 6556.631
421.6392, 6579.354
422.1213, 6595.700
422.6034, 6595.117
423.0855, 6592.392
423.5677, 6594.138
424.0498, 6602.910
424.5319, 6608.907
425.0140, 6607.924
425.4961, 6605.691
425.9782, 6608.155
426.4604, 6620.030
426.9425, 6629.750
427.4246, 6633.424
427.9067, 6632.869
428.3888, 6641.509
428.8709, 6665.177
429.3531, 6687.739
429.8352, 6699.455
430.3173, 6697.659
430.7994, 6697.334
431.2815, 6698.815
431.7636, 6701.735
432.2458, 6705.871
432.7279, 6711.233
433.2100, 6716.142
433.6921, 6718.923
434.1742, 6720.860
434.6563, 6727.604
435.1385, 6739.354
435.6206, 6751.412
436.1027, 6760.313
436.5848, 6766.445
437.0669, 6770.822
437.5490, 6773.661
438.0312, 6774.953
438.5133, 6772.147
438.9954, 6767.536
439.4775, 6767.348
439.9596, 6778.038
440.4417, 6792.685
440.9239, 6805.706
441.4060, 6816.839
441.8881, 6826.729
442.3702, 6835.091
442.8523, 6842.606
443.3344, 6850.028
443.8166, 6859.482
444.2987, 6866.503
444.7808, 6866.942
445.2629, 6863.435
445.7450, 6863.826
446.2271, 6873.382
446.7093, 6883.735
447.1914, 6890.943
447.6735, 6892.491
448.1556, 6898.822
448.6377, 6912.914
449.1198, 6929.674
449.6020, 6944.000
450.0841, 6954.286
450.5662, 6965.083
451.0483, 6977.686
451.5304, 6991.365
452.0125, 7002.163
452.4947, 7009.406
452.9768, 7016.140
453.4589, 7024.296
453.9410, 7033.960
454.4231, 7043.468
454.9052, 7053.766
455.3874, 7060.896
455.8695, 7056.048
456.3516, 7041.343
456.8337, 7032.983
457.3158, 7038.331
457.7979, 7051.184
458.2801, 7061.594
458.7622, 7069.681
459.2443, 7076.417
459.7264, 7081.065
460.2085, 7085.372
460.6906, 7092.267
461.1728, 7103.024
461.6549, 7112.757
462.1370, 7115.922
462.6191, 7116.212
463.1012, 7118.930
463.5833, 7127.395
464.0655, 7137.438
464.5476, 7147.679
465.0297, 7157.913
465.5118, 7167.659
465.9939, 7176.512
466.4760, 7184.672
466.9582, 7192.276
467.4403, 7200.359
467.9224, 7205.898
468.4045, 7206.237
468.8866, 7205.065
469.3687, 7207.818
469.8509, 7216.076
470.3330, 7225.542
470.8151, 7236.093
471.2972, 7247.461
471.7793, 7255.669
472.2614, 7259.535
472.7436, 7263.901
473.2257, 7273.361
473.7078, 7288.103
474.1899, 7299.130
474.6720, 7305.438
475.1541, 7308.974
475.6363, 7311.959
476.1184, 7314.460
476.6005, 7317.021
477.0826, 7319.293
477.5647, 7322.039
478.0468, 7326.272
478.5290, 7332.044
479.0111, 7339.854
479.4932, 7350.883
479.9753, 7363.803
480.4574, 7378.122
480.9395, 7395.360
481.4217, 7408.695
481.9038, 7408.654
482.3859, 7403.018
482.8680, 7403.223
483.3501, 7416.035
483.8322, 7432.300
484.3144, 7451.385
484.7965, 7472.406
485.2786, 7487.974
485.7607, 7494.538
486.2428, 7496.885
486.7249, 7496.755
487.2071, 7490.401
487.6892, 7489.938
488.1713, 7499.337
488.6534, 7511.958
489.1355, 7517.443
489.6176, 7512.591
490.0998, 7510.669
490.5819, 7515.598
491.0640, 7526.169
491.5461, 7535.928
492.0282, 7545.019
492.5103, 7553.609
492.9925, 7561.103
493.4746, 7568.044
493.9567, 7576.741
494.4388, 7587.652
494.9209, 7599.073
495.4030, 7609.804
495.8852, 7619.462
496.3673, 7627.466
496.8494, 7632.138
497.3315, 7636.001
497.8136, 7640.091
498.2957, 7644.927
498.7779, 7652.816
499.2600, 7670.983
499.7421, 7688.516
500.2242, 7695.962
500.7063, 7689.249
501.1884, 7686.568
501.6706, 7699.539
502.1527, 7716.684
502.6348, 7726.206
503.1169, 7715.521
503.5990, 7710.735
504.0811, 7717.234
504.5633, 7731.978
505.0454, 7743.864
505.5275, 7751.815
506.0096, 7758.447
506.4917, 7764.634
506.9738, 7770.419
507.4560, 7775.043
507.9381, 7777.675
508.4202, 7781.263
508.9023, 7790.813
509.3844, 7805.731
509.8665, 7815.074
510.3487, 7815.038
510.8308, 7811.860
511.3129, 7815.646
511.7950, 7825.566
512.2772, 7837.628
512.7593, 7851.508
513.2414, 7865.437
513.7235, 7877.512
514.2056, 7887.699
514.6877, 7896.590
515.1699, 7903.380
515.6520, 7909.581
516.1341, 7916.716
516.6162, 7925.962
517.0983, 7934.311
517.5804, 7939.611
518.0626, 7943.551
518.5447, 7948.950
519.0268, 7956.645
519.5089, 7965.345
519.9910, 7974.515
520.4731, 7984.216
520.9553, 7996.120
521.4374, 8014.331
521.9195, 8028.548
522.4016, 8031.310
522.8837, 8019.542
523.3658, 8012.778
523.8480, 8011.577
524.3301, 8014.859
524.8122, 8022.334
525.2943, 8033.796
525.7764, 8045.259
526.2585, 8055.243
526.7407, 8065.241
527.2228, 8080.332
527.7049, 8099.258
528.1870, 8114.124
528.6691, 8115.444
529.1512, 8112.666
529.6334, 8117.634
530.1155, 8131.372
530.5976, 8145.342
531.0797, 8152.623
531.5618, 8158.434
532.0439, 8168.126
532.5261, 8188.288
533.0082, 8204.791
533.4903, 8212.635
533.9724, 8214.568
534.4545, 8216.691
534.9366, 8217.213
535.4188, 8220.759
535.9009, 8230.089
536.3830, 8245.033
536.8651, 8254.583
537.3472, 8255.992
537.8293, 8257.730
538.3115, 8266.882
538.7936, 8284.390
539.2757, 8297.017
539.7578, 8304.040
540.2399, 8306.373
540.7220, 8300.426
541.2042, 8288.896
541.6863, 8287.545
542.1684, 8305.604
542.6505, 8330.918
543.1326, 8346.801
543.6147, 8354.814
544.0969, 8361.451
544.5790, 8368.671
545.0611, 8376.953
545.5432, 8387.479
546.0253, 8400.427
546.5074, 8411.854
546.9896, 8419.045
547.4717, 8424.504
547.9538, 8430.225
548.4359, 8435.438
548.9180, 8442.602
549.4001, 8454.295
549.8823, 8467.477
550.3644, 8476.339
550.8465, 8476.757
551.3286, 8481.424
551.8107, 8496.445
552.2928, 8519.260
552.7750, 8528.396
553.2571, 8521.313
553.7392, 8513.492
554.2213, 8515.068
554.7034, 8524.731
555.1855, 8535.732
555.6677, 8547.907
556.1498, 8559.899
556.6319, 8570.431
557.1140, 8579.576
557.5961, 8587.443
558.0782, 8594.104
558.5604, 8599.320
559.0425, 8599.077
559.5246, 8597.165
560.0067, 8602.139
560.4888, 8627.206
560.9709, 8651.078
561.4531, 8662.658
561.9352, 8661.667
562.4173, 8661.295
562.8994, 8661.649
563.3815, 8664.529
563.8636, 8671.509
564.3458, 8685.354
564.8279, 8695.920
565.3100, 8702.928
565.7921, 8707.267
566.2742, 8708.769
566.7563, 8706.840
567.2385, 8708.724
567.7206, 8717.024
568.2027, 8728.729
568.6848, 8736.525
569.1669, 8741.064
569.6490, 8746.461
570.1312, 8756.302
570.6133, 8767.782
571.0954, 8775.896
571.5775, 8780.915
572.0596, 8787.231
572.5417, 8800.209
573.0239, 8814.325
573.5060, 8823.457
573.9881, 8822.979
574.4702, 8827.670
574.9523, 8849.650
575.4344, 8876.596
575.9166, 8892.596
576.3987, 8886.415
576.8808, 8883.169
577.3629, 8885.536
577.8450, 8892.729
578.3271, 8902.454
578.8093, 8915.119
579.2914, 8928.821
579.7735, 8943.389
580.2556, 8958.185
580.7377, 8970.100
581.2198, 8978.829
581.7020, 8985.924
582.1841, 8991.937
582.6662, 8997.211
583.1483, 9002.247
583.6304, 9006.604
584.1125, 9013.015
584.5947, 9028.440
585.0768, 9046.414
585.5589, 9057.330
586.0410, 9050.692
586.5231, 9044.889
587.0052, 9046.774
587.4873, 9055.563
587.9694, 9068.767
588.4515, 9095.857
588.9337, 9117.349
589.4158, 9125.755
589.8979, 9121.016
590.3800, 9120.012
590.8621, 9121.799
591.3442, 9128.807
591.8264, 9145.050
592.3085, 9171.512
592.7906, 9189.205
593.2727, 9196.104
593.7548, 9198.601
594.2369, 9203.358
594.7191, 9209.939
595.2012, 9216.614
595.6833, 9222.090
596.1654, 9229.119
596.6475, 9244.354
597.1296, 9263.516
597.6118, 9277.050
598.0939, 9274.872
598.5760, 9271.256
599.0581, 9274.804
599.5402, 9284.994
600.0223, 9294.217
600.5045, 9299.553
600.9866, 9304.975
601.4687, 9312.901
601.9508, 9324.659
602.4329, 9333.350
602.9150, 9337.371
603.3972, 9340.486
603.8793, 9344.926
604.3614, 9350.225
604.8435, 9361.925
605.3256, 9382.060
605.8077, 9404.867
606.2899, 9422.711
606.7720, 9435.446
607.2541, 9441.604
607.7362, 9436.061
608.2183, 9428.304
608.7004, 9430.465
609.1826, 9440.242
609.6647, 9449.597
610.1468, 9452.882
610.6289, 9456.020
611.1110, 9462.102
611.5931, 9471.485
612.0753, 9484.062
612.5574, 9504.562
613.0395, 9524.889
613.5216, 9540.631
614.0037, 9551.545
614.4858, 9558.401
614.9680, 9559.227
615.4501, 9558.540
615.9322, 9561.631
616.4143, 9568.528
616.8964, 9576.924
617.3785, 9586.938
617.8607, 9596.891
618.3428, 9602.318
618.8249, 9604.644
619.3070, 9609.930
619.7891, 9627.570
620.2712, 9644.947
620.7534, 9645.448
621.2355, 9633.068
621.7176, 9625.932
622.1997, 9638.223
622.6818, 9654.170
623.1639, 9665.092
623.6461, 9669.647
624.1282, 9673.911
624.6103, 9675.527
625.0924, 9679.575
625.5745, 9689.732
626.0566, 9708.872
626.5388, 9725.954
627.0209, 9740.372
627.5030, 9752.666
627.9851, 9762.986
628.4672, 9771.236
628.9493, 9778.842
629.4315, 9784.818
629.9136, 9792.484
630.3957, 9811.287
630.8778, 9836.683
631.3599, 9854.837
631.8420, 9852.881
632.3242, 9846.284
632.8063, 9845.957
633.2884, 9851.362
633.7705, 9858.018
634.2526, 9864.136
634.7347, 9871.504
635.2169, 9881.852
635.6990, 9896.045
636.1811, 9907.479
636.6632, 9914.127
637.1453, 9920.534
637.6274, 9930.837
638.1096, 9946.357
638.5917, 9955.546
639.0738, 9956.155
639.5559, 9955.340
640.0380, 9964.064
640.5201, 9979.845
641.0023, 9991.472
641.4844, 9995.213
641.9665, 9995.857
642.4486, 9996.108
642.9307, 9997.474
643.4128, 10003.13
643.8950, 10021.30
644.3771, 10037.61
644.8592, 10043.16
645.3413, 10040.24
645.8234, 10041.75
646.3055, 10053.57
646.7877, 10066.28
647.2698, 10076.76
647.7519, 10084.99
648.2340, 10094.37
648.7161, 10105.07
649.1982, 10116.17
649.6804, 10127.54
650.1625, 10138.87
650.6446, 10146.57
651.1267, 10149.83
651.6088, 10153.88
652.0909, 10165.79
652.5731, 10181.81
653.0552, 10195.37
653.5373, 10204.33
654.0194, 10211.90
654.5015, 10218.51
654.9836, 10225.75
655.4658, 10235.88
655.9479, 10254.05
656.4300, 10270.15
656.9121, 10280.77
657.3942, 10288.19
657.8763, 10298.94
658.3585, 10315.59
658.8406, 10329.09
659.3227, 10334.50
659.8048, 10334.27
660.2869, 10342.09
660.7690, 10358.00
661.2512, 10375.33
661.7333, 10388.77
662.2154, 10400.52
662.6975, 10415.98
663.1796, 10435.04
663.6617, 10451.86
664.1439, 10462.55
664.6260, 10469.13
665.1081, 10472.93
665.5902, 10473.48
666.0723, 10474.34
666.5544, 10475.12
667.0366, 10477.91
667.5187, 10485.27
668.0008, 10503.97
668.4829, 10512.96
668.9650, 10506.56
669.4471, 10495.71
669.9293, 10497.75
670.4114, 10512.85
670.8935, 10533.14
671.3756, 10559.50
671.8577, 10585.33
672.3398, 10597.91
672.8220, 10600.41
673.3041, 10603.69
673.7862, 10612.86
674.2683, 10624.72
674.7504, 10636.76
675.2325, 10649.28
675.7147, 10664.00
676.1968, 10684.06
676.6789, 10704.14
677.1610, 10721.60
677.6431, 10736.51
678.1252, 10750.50
678.6074, 10762.23
679.0895, 10775.38
679.5716, 10792.33
680.0537, 10813.25
680.5358, 10834.65
681.0179, 10856.20
681.5001, 10879.75
681.9822, 10906.54
682.4643, 10936.58
682.9464, 10970.32
683.4285, 11009.40
683.9106, 11046.73
684.3928, 11073.08
684.8749, 11096.79
685.3570, 11128.31
685.8391, 11179.43
686.3212, 11227.58
686.8033, 11277.91
687.2855, 11320.87
687.7676, 11339.10
688.2497, 11323.97
688.7318, 11305.58
689.2139, 11287.38
689.6960, 11272.09
690.1782, 11272.33
690.6603, 11287.01
691.1424, 11293.34
691.6245, 11274.09
692.1066, 11244.56
692.5887, 11221.49
693.0709, 11207.12
693.5530, 11211.96
694.0351, 11251.54
694.5172, 11304.23
694.9993, 11359.00
695.4814, 11414.96
695.9636, 11470.22
696.4457, 11528.96
696.9278, 11582.18
697.4099, 11622.60
697.8920, 11646.04
698.3741, 11684.79
698.8563, 11740.88
699.3384, 11805.85
699.8205, 11892.37
700.3026, 11985.71
700.7847, 12017.22
701.2668, 11977.23
701.7490, 11894.91
702.2311, 11770.65
702.7132, 11631.13
703.1953, 11511.95
703.6774, 11419.42
704.1595, 11353.87
704.6417, 11325.88
705.1238, 11320.40
705.6059, 11317.41
706.0880, 11313.50
706.5701, 11315.02
707.0522, 11325.01
707.5344, 11338.98
708.0165, 11346.47
708.4986, 11346.80
708.9807, 11350.46
709.4628, 11361.99
709.9449, 11376.81
710.4271, 11383.11
710.9092, 11384.33
711.3913, 11393.36
711.8734, 11424.15
712.3555, 11458.87
712.8376, 11483.92
713.3198, 11501.51
713.8019, 11522.96
714.2840, 11559.67
714.7661, 11592.91
715.2482, 11619.19
715.7303, 11638.18
716.2125, 11634.75
716.6946, 11602.06
717.1767, 11565.66
717.6588, 11538.72
718.1409, 11520.63
718.6230, 11509.44
719.1052, 11505.12
719.5873, 11504.47
720.0694, 11504.02
720.5515, 11506.00
721.0336, 11515.37
721.5157, 11533.74
721.9979, 11548.64
722.4800, 11548.53
722.9621, 11546.21
723.4442, 11552.79
723.9263, 11577.09
724.4084, 11592.50
724.8906, 11593.98
725.3727, 11592.57
725.8548, 11599.80
726.3369, 11616.27
726.8190, 11632.91
727.3011, 11648.85
727.7833, 11663.24
728.2654, 11673.34
728.7475, 11680.87
729.2296, 11690.69
729.7117, 11707.03
730.1938, 11719.96
730.6760, 11717.91
731.1581, 11709.28
731.6402, 11706.98
732.1223, 11720.58
732.6044, 11732.84
733.0865, 11741.18
733.5687, 11746.80
734.0508, 11751.57
734.5329, 11754.85
735.0150, 11760.97
735.4971, 11772.67
735.9792, 11786.26
736.4614, 11791.01
736.9435, 11789.00
737.4256, 11791.02
737.9077, 11804.74
738.3898, 11823.08
738.8719, 11841.15
739.3541, 11858.51
739.8362, 11873.49
740.3183, 11885.22
740.8004, 11894.48
741.2825, 11898.66
741.7646, 11899.08
742.2468, 11908.58
742.7289, 11931.95
743.2110, 11952.03
743.6931, 11959.60
744.1752, 11956.96
744.6573, 11955.75
745.1395, 11956.08
745.6216, 11960.68
746.1037, 11972.65
746.5858, 11989.42
747.0679, 12010.26
747.5500, 12034.75
748.0322, 12054.11
748.5143, 12061.44
748.9964, 12064.72
749.4785, 12067.61
749.9606, 12069.37
750.4427, 12077.29
750.9249, 12095.81
751.4070, 12113.11
751.8891, 12117.64
752.3712, 12109.82
752.8533, 12116.86
753.3354, 12141.35
753.8176, 12163.28
754.2997, 12155.53
754.7818, 12136.06
755.2639, 12134.58
755.7460, 12158.32
756.2281, 12182.96
756.7103, 12198.06
757.1924, 12206.99
757.6745, 12211.64
758.1566, 12205.85
758.6387, 12209.45
759.1208, 12227.81
759.6030, 12248.99
760.0851, 12257.38
760.5672, 12252.13
761.0493, 12261.96
761.5314, 12292.72
762.0135, 12327.02
762.4957, 12342.80
762.9778, 12347.31
763.4599, 12354.70
763.9420, 12369.88
764.4241, 12384.86
764.9063, 12395.18
765.3884, 12402.89
765.8705, 12410.44
766.3526, 12417.09
766.8347, 12425.61
767.3168, 12437.10
767.7990, 12449.93
768.2811, 12463.25
768.7632, 12477.48
769.2453, 12483.24
769.7274, 12475.88
770.2095, 12466.25
770.6917, 12471.04
771.1738, 12485.12
771.6559, 12497.09
772.1380, 12498.83
772.6201, 12502.98
773.1022, 12519.68
773.5844, 12542.52
774.0665, 12560.08
774.5486, 12570.78
775.0307, 12575.78
775.5128, 12571.32
775.9949, 12564.03
776.4771, 12570.54
776.9592, 12591.55
777.4413, 12609.55
777.9234, 12618.07
778.4055, 12623.60
778.8876, 12637.85
779.3698, 12657.30
779.8519, 12672.82
780.3340, 12671.08
780.8161, 12673.84
781.2982, 12697.49
781.7803, 12733.32
782.2625, 12757.20
782.7446, 12758.99
783.2267, 12762.62
783.7088, 12773.30
784.1909, 12788.48
784.6730, 12801.43
785.1552, 12812.20
785.6373, 12821.11
786.1194, 12826.19
786.6015, 12831.72
787.0836, 12847.33
787.5657, 12868.71
788.0479, 12883.86
788.5300, 12877.73
789.0121, 12873.36
789.4942, 12882.36
789.9763, 12901.67
790.4584, 12918.29
790.9406, 12931.32
791.4227, 12942.32
791.9048, 12950.75
792.3869, 12957.79
792.8690, 12967.98
793.3511, 12981.15
793.8333, 12993.21
794.3154, 13002.78
794.7975, 13009.96
795.2796, 13012.51
795.7617, 13012.45
796.2438, 13015.94
796.7260, 13027.29
797.2081, 13041.07
797.6902, 13057.89
798.1723, 13075.92
798.6544, 13087.70
799.1365, 13091.28
799.6187, 13093.58
800.1008, 13096.14
800.5829, 13099.44
801.0650, 13103.31
801.5471, 13108.40
802.0292, 13119.53
802.5114, 13146.48
802.9935, 13174.75
803.4756, 13188.24
803.9577, 13191.15
804.4398, 13197.72
804.9219, 13216.87
805.4041, 13234.96
805.8862, 13247.77
806.3683, 13256.36
806.8504, 13264.70
807.3325, 13272.49
807.8146, 13281.69
808.2968, 13293.07
808.7789, 13306.41
809.2610, 13324.02
809.7431, 13343.97
810.2252, 13358.33
810.7073, 13359.89
811.1895, 13357.53
811.6716, 13355.31
812.1537, 13353.76
812.6358, 13354.12
813.1179, 13354.36
813.6000, 13360.12
814.0822, 13375.17
814.5643, 13396.08
815.0464, 13409.53
815.5285, 13415.40
816.0106, 13420.76
816.4927, 13428.40
816.9749, 13437.24
817.4570, 13445.21
817.9391, 13452.89
818.4212, 13462.24
818.9033, 13475.74
819.3854, 13489.06
819.8676, 13498.74
820.3497, 13506.46
820.8318, 13517.63
821.3139, 13531.56
821.7960, 13550.73
822.2781, 13578.80
822.7603, 13609.36
823.2424, 13626.83
823.7245, 13632.82
824.2066, 13637.57
824.6887, 13646.80
825.1708, 13654.77
825.6530, 13653.85
826.1351, 13648.00
826.6172, 13646.01
827.0993, 13652.89
827.5814, 13661.51
828.0635, 13672.02
828.5457, 13682.97
829.0278, 13691.07
829.5099, 13695.92
829.9920, 13700.97
830.4741, 13706.53
830.9562, 13713.77
831.4384, 13726.42
831.9205, 13742.29
832.4026, 13755.63
832.8847, 13761.43
833.3668, 13768.41
833.8489, 13781.71
834.3311, 13798.72
834.8132, 13815.01
835.2953, 13829.22
835.7774, 13844.25
836.2595, 13860.73
836.7416, 13877.24
837.2238, 13891.58
837.7059, 13903.97
838.1880, 13914.65
838.6701, 13923.05
839.1522, 13932.16
839.6343, 13947.90
840.1165, 13965.42
840.5986, 13977.18
841.0807, 13975.34
841.5628, 13977.60
842.0449, 13992.61
842.5270, 14009.80
843.0092, 14017.63
843.4913, 14013.79
843.9734, 14014.01
844.4555, 14020.16
844.9376, 14028.74
845.4197, 14035.95
845.9019, 14042.44
846.3840, 14049.65
846.8661, 14057.96
847.3482, 14066.82
847.8303, 14073.96
848.3124, 14082.81
848.7946, 14097.29
849.2767, 14121.31
849.7588, 14140.44
850.2409, 14152.53
850.7230, 14163.67
851.2051, 14179.49
851.6873, 14199.06
852.1694, 14218.74
852.6515, 14238.36
853.1336, 14254.58
853.6157, 14261.88
854.0978, 14266.21
854.5800, 14273.84
855.0621, 14285.98
855.5442, 14296.68
856.0263, 14303.20
856.5084, 14309.74
856.9905, 14318.72
857.4727, 14330.23
857.9548, 14340.32
858.4369, 14349.15
858.9190, 14357.25
859.4011, 14367.47
859.8832, 14376.38
860.3654, 14374.61
860.8475, 14364.05
861.3296, 14360.56
861.8117, 14378.98
862.2938, 14399.04
862.7759, 14407.61
863.2581, 14407.10
863.7402, 14419.66
864.2223, 14448.61
864.7044, 14479.05
865.1865, 14506.18
865.6686, 14529.45
866.1508, 14543.61
866.6329, 14551.15
867.1150, 14562.56
867.5971, 14592.25
868.0792, 14618.67
868.5613, 14622.77
869.0435, 14612.80
869.5256, 14615.24
870.0077, 14638.08
870.4898, 14662.28
870.9719, 14686.08
871.4540, 14708.02
871.9362, 14725.10
872.4183, 14737.55
872.9004, 14745.88
873.3825, 14747.74
873.8646, 14751.08
874.3467, 14762.22
874.8289, 14780.41
875.3110, 14804.39
875.7931, 14849.91
876.2752, 14878.68
876.7573, 14886.13
877.2394, 14878.08
877.7216, 14854.74
878.2037, 14814.23
878.6858, 14796.93
879.1679, 14810.63
879.6500, 14832.32
880.1321, 14838.79
880.6143, 14836.51
881.0964, 14832.94
881.5785, 14827.49
882.0606, 14830.67
882.5427, 14858.03
883.0248, 14886.06
883.5070, 14896.33
883.9891, 14883.78
884.4712, 14886.28
884.9533, 14905.96
885.4354, 14929.11
885.9175, 14944.61
886.3997, 14955.74
886.8818, 14970.10
887.3639, 14987.41
887.8460, 15001.15
888.3281, 15000.11
888.8102, 15000.99
889.2924, 15014.86
889.7745, 15040.96
890.2566, 15065.43
890.7387, 15089.99
891.2208, 15107.25
891.7029, 15112.94
892.1851, 15110.34
892.6672, 15104.10
893.1493, 15096.30
893.6314, 15095.71
894.1135, 15113.66
894.5956, 15133.32
895.0778, 15144.11
895.5599, 15149.52
896.0420, 15158.40
896.5241, 15172.41
897.0062, 15188.30
897.4883, 15208.00
897.9705, 15225.70
898.4526, 15225.57
898.9347, 15212.49
899.4168, 15210.21
899.8989, 15228.01
900.3810, 15248.02
900.8632, 15250.67
901.3453, 15250.16
901.8274, 15263.80
902.3095, 15310.58
902.7916, 15341.06
903.2737, 15348.54
903.7559, 15349.11
904.2380, 15357.33
904.7201, 15372.24
905.2022, 15384.10
905.6843, 15392.06
906.1664, 15400.84
906.6486, 15418.57
907.1307, 15435.74
907.6128, 15441.67
908.0949, 15434.66
908.5770, 15432.50
909.0591, 15439.35
909.5413, 15449.48
910.0234, 15461.48
910.5055, 15475.11
910.9876, 15489.91
911.4697, 15505.65
911.9518, 15516.56
912.4340, 15509.34
912.9161, 15503.73
913.3982, 15529.13
913.8803, 15572.72
914.3624, 15598.73
914.8445, 15575.68
915.3267, 15561.15
915.8088, 15564.78
916.2909, 15582.09
916.7730, 15608.72
917.2551, 15644.26
917.7372, 15669.11
918.2194, 15676.56
918.7015, 15679.99
919.1836, 15695.38
919.6657, 15715.40
920.1478, 15729.86
920.6299, 15734.41
921.1121, 15737.55
921.5942, 15736.77
922.0763, 15739.40
922.5584, 15753.97
923.0405, 15781.21
923.5226, 15797.41
924.0048, 15801.16
924.4869, 15805.74
924.9690, 15822.98
925.4511, 15846.28
925.9332, 15869.85
926.4153, 15892.89
926.8975, 15911.18
927.3796, 15921.62
927.8617, 15928.13
928.3438, 15928.32
928.8259, 15925.61
929.3080, 15942.72
929.7902, 15979.22
930.2723, 16008.49
930.7544, 16015.74
931.2365, 16013.36
931.7186, 16012.85
932.2007, 16013.88
932.6829, 16015.66
933.1650, 16014.89
933.6471, 16019.78
934.1292, 16033.51
934.6113, 16051.28
935.0934, 16067.95
935.5756, 16083.64
936.0577, 16090.31
936.5398, 16085.78
937.0219, 16079.19
937.5040, 16074.46
937.9861, 16075.40
938.4683, 16088.90
938.9504, 16119.37
939.4325, 16144.33
939.9146, 16160.26
940.3967, 16169.20
940.8788, 16170.71
941.3610, 16165.33
941.8431, 16158.06
942.3252, 16149.13
942.8073, 16147.93
943.2894, 16167.43
943.7715, 16191.62
944.2537, 16203.01
944.7358, 16206.08
945.2179, 16218.47
945.7000, 16255.50
946.1821, 16286.17
946.6642, 16303.88
947.1464, 16314.24
947.6285, 16331.63
948.1106, 16354.04
948.5927, 16362.60
949.0748, 16347.45
949.5569, 16334.19
950.0391, 16347.07
950.5212, 16373.78
951.0033, 16401.39
951.4854, 16433.59
951.9675, 16450.42
952.4496, 16443.46
952.9318, 16435.30
953.4139, 16443.42
953.8960, 16465.63
954.3781, 16492.52
954.8602, 16523.04
955.3423, 16548.96
955.8245, 16564.13
956.3066, 16573.23
956.7887, 16577.55
957.2708, 16577.99
957.7529, 16580.54
958.2350, 16587.79
958.7172, 16590.83
959.1993, 16584.28
959.6814, 16576.37
960.1635, 16588.43
960.6456, 16614.59
961.1277, 16635.39
961.6099, 16641.20
962.0920, 16647.21
962.5741, 16664.38
963.0562, 16685.15
963.5383, 16700.56
964.0204, 16708.94
964.5026, 16716.33
964.9847, 16722.52
965.4668, 16728.20
965.9489, 16730.65
966.4310, 16734.02
966.9131, 16750.28
967.3953, 16778.82
967.8774, 16804.26
968.3595, 16810.34
968.8416, 16819.90
969.3237, 16848.29
969.8058, 16889.75
970.2880, 16916.59
970.7701, 16927.18
971.2522, 16938.76
971.7343, 16959.39
972.2164, 16979.94
972.6985, 16984.06
973.1807, 16979.17
973.6628, 16979.45
974.1449, 16987.86
974.6270, 17004.26
975.1091, 17038.97
975.5912, 17072.09
976.0734, 17081.65
976.5555, 17067.04
977.0376, 17066.67
977.5197, 17083.16
978.0018, 17101.32
978.4839, 17107.93
978.9661, 17111.10
979.4482, 17116.72
979.9303, 17125.81
980.4124, 17144.77
980.8945, 17187.82
981.3766, 17219.43
981.8588, 17225.20
982.3409, 17215.93
982.8230, 17222.37
983.3051, 17241.81
983.7872, 17260.70
984.2693, 17273.60
984.7515, 17285.27
985.2336, 17301.66
985.7157, 17317.45
986.1978, 17324.56
986.6799, 17313.49
987.1620, 17316.57
987.6442, 17338.54
988.1263, 17361.13
988.6084, 17363.92
989.0905, 17355.57
989.5726, 17355.37
990.0547, 17364.44
990.5369, 17382.14
991.0190, 17422.97
991.5011, 17457.43
991.9832, 17466.75
992.4653, 17458.63
992.9474, 17459.20
993.4296, 17469.40
993.9117, 17480.39
994.3938, 17490.17
994.8759, 17498.32
995.3580, 17503.65
995.8401, 17507.13
996.3223, 17509.49
996.8044, 17505.29
997.2865, 17513.40
997.7686, 17546.16
998.2507, 17579.60
998.7328, 17595.00
999.2150, 17593.00
999.6971, 17587.57
1000.179, 17579.40
1000.661, 17579.64
1001.143, 17606.63
1001.626, 17636.06
1002.108, 17646.71
1002.590, 17642.31
1003.072, 17645.61
1003.554, 17661.99
1004.036, 17675.47
1004.518, 17680.49
1005.000, 17685.20
1005.482, 17709.87
1005.965, 17744.89
1006.447, 17759.90
1006.929, 17739.70
1007.411, 17732.39
1007.893, 17777.17
1008.375, 17831.35
1008.857, 17862.35
1009.339, 17868.32
1009.822, 17878.25
1010.304, 17892.37
1010.786, 17907.60
1011.268, 17922.02
1011.750, 17936.07
1012.232, 17952.04
1012.714, 17968.20
1013.196, 17979.71
1013.678, 17974.80
1014.161, 17979.38
1014.643, 17999.07
1015.125, 18026.74
1015.607, 18056.65
1016.089, 18086.57
1016.571, 18099.84
1017.053, 18092.43
1017.535, 18086.48
1018.018, 18105.24
1018.500, 18127.62
1018.982, 18134.97
1019.464, 18125.99
1019.946, 18125.24
1020.428, 18133.97
1020.910, 18147.49
1021.392, 18165.65
1021.874, 18185.45
1022.357, 18199.36
1022.839, 18210.07
1023.321, 18223.96
1023.803, 18249.41
1024.285, 18268.96
1024.767, 18274.55
1025.249, 18275.24
1025.731, 18278.11
1026.214, 18283.07
1026.696, 18294.20
1027.178, 18312.01
1027.660, 18328.68
1028.142, 18333.40
1028.624, 18338.50
1029.106, 18358.07
1029.588, 18390.21
1030.070, 18414.80
1030.553, 18430.77
1031.035, 18439.35
1031.517, 18438.93
1031.999, 18434.44
1032.481, 18432.36
1032.963, 18433.46
1033.445, 18439.67
1033.927, 18451.43
1034.410, 18467.79
1034.892, 18487.50
1035.374, 18512.51
1035.856, 18547.93
1036.338, 18594.59
1036.820, 18612.42
1037.302, 18600.63
1037.784, 18589.60
1038.266, 18599.42
1038.749, 18617.59
1039.231, 18634.94
1039.713, 18650.54
1040.195, 18661.67
1040.677, 18666.94
1041.159, 18668.88
1041.641, 18666.04
1042.123, 18663.34
1042.605, 18665.56
1043.088, 18672.90
1043.570, 18686.63
1044.052, 18706.86
1044.534, 18729.74
1045.016, 18765.32
1045.498, 18790.14
1045.980, 18783.89
1046.462, 18756.91
1046.945, 18760.65
1047.427, 18796.61
1047.909, 18823.04
1048.391, 18823.28
1048.873, 18815.44
1049.355, 18811.45
1049.837, 18814.60
1050.319, 18830.17
1050.802, 18866.67
1051.284, 18898.98
1051.766, 18926.51
1052.248, 18949.53
1052.730, 18964.42
1053.212, 18975.02
1053.694, 18994.86
1054.176, 19022.04
1054.658, 19048.24
1055.141, 19075.70
1055.623, 19093.39
1056.105, 19086.20
1056.587, 19073.35
1057.069, 19086.21
1057.551, 19125.64
1058.033, 19159.91
1058.515, 19185.65
1058.997, 19201.98
1059.480, 19198.52
1059.962, 19192.66
1060.444, 19204.63
1060.926, 19236.06
1061.408, 19252.36
1061.890, 19243.82
1062.372, 19244.42
1062.854, 19267.38
1063.337, 19303.31
1063.819, 19340.90
1064.301, 19376.15
1064.783, 19398.64
1065.265, 19399.85
1065.747, 19401.89
1066.229, 19412.02
1066.711, 19424.64
1067.193, 19435.48
1067.676, 19444.79
1068.158, 19461.26
1068.640, 19484.66
1069.122, 19511.06
1069.604, 19535.24
1070.086, 19564.70
1070.568, 19602.35
1071.050, 19650.54
1071.532, 19710.07
1072.015, 19775.71
1072.497, 19870.39
1072.979, 19996.56
1073.461, 20155.60
1073.943, 20373.12
1074.425, 20611.18
1074.907, 20819.55
1075.389, 20992.96
1075.872, 21158.91
1076.354, 21317.24
1076.836, 21475.43
1077.318, 21629.91
1077.800, 21788.58
1078.282, 21966.53
1078.764, 22168.38
1079.246, 22407.33
1079.729, 22679.90
1080.211, 23023.70
1080.693, 23388.34
1081.175, 23903.69
1081.657, 24647.08
1082.139, 25619.27
1082.621, 26707.23
1083.103, 27919.92
1083.585, 29225.70
1084.068, 30586.35
1084.550, 32064.24
1085.032, 34367.43
1085.514, 36651.09
1085.996, 37241.59
1086.478, 35502.13
1086.960, 33010.85
1087.442, 29540.82
1087.924, 26190.92
1088.406, 23947.88
1088.889, 22563.54
1089.371, 21670.04
1089.853, 21200.38
1090.335, 20886.63
1090.817, 20715.84
1091.299, 20589.00
1091.781, 20486.45
1092.263, 20408.30
1092.746, 20363.32
1093.228, 20345.19
1093.710, 20324.71
1094.192, 20296.38
1094.674, 20269.50
1095.156, 20248.19
1095.638, 20231.72
1096.120, 20219.38
1096.603, 20210.92
1097.085, 20208.00
1097.567, 20210.52
1098.049, 20215.92
1098.531, 20223.22
1099.013, 20232.82
1099.495, 20246.83
1099.977, 20262.67
1100.459, 20278.57
1100.942, 20299.08
1101.424, 20301.27
1101.906, 20279.02
1102.388, 20258.82
1102.870, 20262.73
1103.352, 20277.74
1103.834, 20276.92
1104.316, 20265.83
1104.798, 20259.91
1105.281, 20270.01
1105.763, 20277.68
1106.245, 20277.04
1106.727, 20278.18
1107.209, 20295.03
1107.691, 20323.55
1108.173, 20346.13
1108.655, 20362.10
1109.138, 20375.25
1109.620, 20393.46
1110.102, 20402.91
1110.584, 20385.88
1111.066, 20360.82
1111.548, 20372.00
1112.030, 20418.53
1112.512, 20453.77
1112.995, 20469.26
1113.477, 20474.15
1113.959, 20462.49
1114.441, 20454.28
1114.923, 20473.49
1115.405, 20519.18
1115.887, 20541.14
1116.369, 20534.54
1116.851, 20532.74
1117.333, 20550.58
1117.816, 20572.33
1118.298, 20571.66
1118.780, 20563.69
1119.262, 20572.01
1119.744, 20610.60
1120.226, 20638.41
1120.708, 20652.80
1121.190, 20660.09
1121.673, 20662.23
1122.155, 20661.17
1122.637, 20655.36
1123.119, 20650.29
1123.601, 20660.96
1124.083, 20721.32
1124.565, 20756.68
1125.047, 20741.62
1125.530, 20718.07
1126.012, 20728.53
1126.494, 20765.60
1126.976, 20785.75
1127.458, 20790.16
1127.940, 20800.92
1128.422, 20837.80
1128.904, 20875.76
1129.386, 20906.31
1129.869, 20929.53
1130.351, 20942.99
1130.833, 20946.79
1131.315, 20950.87
1131.797, 20956.04
1132.279, 20965.97
1132.761, 20985.05
1133.243, 21008.43
1133.725, 21038.05
1134.208, 21069.46
1134.690, 21080.64
1135.172, 21067.71
1135.654, 21065.50
1136.136, 21084.89
1136.618, 21107.85
1137.100, 21113.79
1137.582, 21113.08
1138.065, 21115.31
1138.547, 21121.74
1139.029, 21139.11
1139.511, 21173.76
1139.993, 21197.36
1140.475, 21193.45
1140.957, 21181.00
1141.439, 21191.32
1141.922, 21214.22
1142.404, 21231.90
1142.886, 21235.85
1143.368, 21245.63
1143.850, 21263.98
1144.332, 21284.53
1144.814, 21307.72
1145.296, 21327.54
1145.778, 21319.29
1146.260, 21294.28
1146.743, 21285.46
1147.225, 21325.19
1147.707, 21355.93
1148.189, 21369.66
1148.671, 21372.31
1149.153, 21364.13
1149.635, 21348.98
1150.117, 21347.77
1150.600, 21359.06
1151.082, 21368.66
1151.564, 21364.09
1152.046, 21363.18
1152.528, 21370.78
1153.010, 21386.84
1153.492, 21416.58
1153.974, 21457.78
1154.457, 21483.03
1154.939, 21489.87
1155.421, 21498.09
1155.903, 21524.71
1156.385, 21552.83
1156.867, 21572.45
1157.349, 21585.89
1157.831, 21597.49
1158.313, 21607.09
1158.796, 21615.13
1159.278, 21620.90
1159.760, 21630.47
1160.242, 21654.51
1160.724, 21679.87
1161.206, 21693.85
1161.688, 21698.30
1162.170, 21709.30
1162.652, 21727.50
1163.135, 21745.62
1163.617, 21760.32
1164.099, 21778.96
1164.581, 21818.97
1165.063, 21861.11
1165.545, 21882.50
1166.027, 21878.61
1166.509, 21879.69
1166.992, 21886.96
1167.474, 21891.16
1167.956, 21885.94
1168.438, 21880.32
1168.920, 21886.03
1169.402, 21898.94
1169.884, 21913.55
1170.366, 21929.15
1170.849, 21946.05
1171.331, 21964.42
1171.813, 21984.62
1172.295, 22009.21
1172.777, 22034.20
1173.259, 22056.84
1173.741, 22074.33
1174.223, 22080.07
1174.705, 22057.36
1175.188, 22050.53
1175.670, 22064.34
1176.152, 22082.52
1176.634, 22090.70
1177.116, 22095.59
1177.598, 22114.90
1178.080, 22142.86
1178.562, 22162.28
1179.044, 22157.37
1179.527, 22159.63
1180.009, 22175.36
1180.491, 22190.72
1180.973, 22184.24
1181.455, 22170.54
1181.937, 22190.53
1182.419, 22237.90
1182.901, 22274.95
1183.384, 22287.96
1183.866, 22285.51
1184.348, 22260.54
1184.830, 22236.96
1185.312, 22250.69
1185.794, 22288.44
1186.276, 22312.97
1186.758, 22323.26
1187.240, 22340.04
1187.723, 22381.54
1188.205, 22416.77
1188.687, 22435.93
1189.169, 22447.54
1189.651, 22465.23
1190.133, 22486.98
1190.615, 22506.00
1191.097, 22521.25
1191.579, 22538.81
1192.062, 22578.82
1192.544, 22597.41
1193.026, 22571.09
1193.508, 22525.46
1193.990, 22516.32
1194.472, 22536.32
1194.954, 22563.69
1195.436, 22597.15
1195.919, 22616.14
1196.401, 22596.51
1196.883, 22578.44
1197.365, 22579.72
1197.847, 22593.74
1198.329, 22601.26
1198.811, 22604.22
1199.293, 22609.03
1199.776, 22615.91
1200.258, 22630.44
1200.740, 22667.15
1201.222, 22698.17
1201.704, 22704.64
1202.186, 22695.99
1202.668, 22712.53
1203.150, 22748.19
1203.632, 22780.22
1204.115, 22802.88
1204.597, 22816.98
1205.079, 22816.73
1205.561, 22813.72
1206.043, 22812.78
1206.525, 22814.97
1207.007, 22827.16
1207.489, 22847.80
1207.971, 22870.73
1208.454, 22896.05
1208.936, 22917.63
1209.418, 22930.88
1209.900, 22940.28
1210.382, 22945.96
1210.864, 22949.68
1211.346, 22967.63
1211.828, 22996.33
1212.311, 23018.22
1212.793, 23020.20
1213.275, 23022.40
1213.757, 23030.07
1214.239, 23043.27
1214.721, 23065.49
1215.203, 23094.50
1215.685, 23111.25
1216.167, 23117.90
1216.650, 23126.06
1217.132, 23145.02
1217.614, 23161.79
1218.096, 23169.40
1218.578, 23176.37
1219.060, 23192.70
1219.542, 23215.94
1220.024, 23226.18
1220.506, 23226.03
1220.989, 23231.85
1221.471, 23265.83
1221.953, 23287.95
1222.435, 23278.51
1222.917, 23263.15
1223.399, 23271.00
1223.881, 23296.31
1224.363, 23306.67
1224.846, 23304.50
1225.328, 23311.25
1225.810, 23347.79
1226.292, 23380.66
1226.774, 23401.99
1227.256, 23416.12
1227.738, 23426.03
1228.220, 23432.99
1228.703, 23441.96
1229.185, 23452.97
1229.667, 23464.84
1230.149, 23473.97
1230.631, 23488.19
1231.113, 23509.75
1231.595, 23535.41
1232.077, 23565.39
1232.559, 23595.17
1233.042, 23607.67
1233.524, 23604.34
1234.006, 23606.62
1234.488, 23630.71
1234.970, 23651.31
1235.452, 23665.15
1235.934, 23670.91
1236.416, 23660.65
1236.898, 23643.03
1237.381, 23640.32
1237.863, 23652.51
1238.345, 23658.69
1238.827, 23645.19
1239.309, 23636.20
1239.791, 23635.51
1240.273, 23642.02
1240.755, 23653.21
1241.238, 23671.22
1241.720, 23708.06
1242.202, 23761.33
1242.684, 23788.79
1243.166, 23763.42
1243.648, 23751.83
1244.130, 23766.38
1244.612, 23798.18
1245.094, 23846.57
1245.577, 23898.88
1246.059, 23937.44
1246.541, 23960.75
1247.023, 23968.16
1247.505, 23952.44
1247.987, 23943.24
1248.469, 23945.65
1248.951, 23959.57
1249.433, 23996.69
1249.916, 24037.19
1250.398, 24051.04
1250.880, 24038.99
1251.362, 24054.25
1251.844, 24108.28
1252.326, 24145.26
1252.808, 24151.02
1253.290, 24145.13
1253.773, 24144.93
1254.255, 24146.96
1254.737, 24147.59
1255.219, 24146.99
1255.701, 24147.41
1256.183, 24147.96
1256.665, 24159.39
1257.147, 24185.89
1257.630, 24213.51
1258.112, 24229.83
1258.594, 24241.27
1259.076, 24253.23
1259.558, 24265.18
1260.040, 24271.05
1260.522, 24270.94
1261.004, 24279.27
1261.486, 24299.59
1261.969, 24325.66
1262.451, 24360.58
1262.933, 24391.77
1263.415, 24410.71
1263.897, 24419.67
1264.379, 24423.61
1264.861, 24423.27
1265.343, 24424.23
1265.825, 24427.50
1266.308, 24433.17
1266.790, 24443.75
1267.272, 24453.87
1267.754, 24458.20
1268.236, 24462.58
1268.718, 24484.57
1269.200, 24520.20
1269.682, 24555.71
1270.165, 24589.28
1270.647, 24616.67
1271.129, 24637.59
1271.611, 24648.00
1272.093, 24641.79
1272.575, 24631.01
1273.057, 24641.38
1273.539, 24665.58
1274.021, 24687.39
1274.504, 24703.93
1274.986, 24721.54
1275.468, 24743.51
1275.950, 24762.32
1276.432, 24774.59
1276.914, 24785.69
1277.396, 24808.36
1277.878, 24833.71
1278.360, 24846.42
1278.843, 24843.79
1279.325, 24847.11
##END=



