##NAMES=Baryte
##RRUFFID=R050335
##IDEAL CHEMISTRY=BaS^6+^O_4_
##LOCALITY=Bullion Mountains, San Bernardino County, California, USA
##OWNER=RRUFF
##SOURCE=California Institute of Technology
##DESCRIPTION=Colorless cleavage fragment
##STATUS=The identification of this mineral has been confirmed by X-ray diffraction and chemical analysis
##URL=rruff.info/R050335
##MEASURED CHEMISTRY=(Ba_0.95_Sr_0.05_)_Î£=1_S_1.00_O_4_
91.87140, 0.0000000E+00
92.35352, 1.382074
92.83563, 1.119104
93.31775, 1.007080
93.79987, 1.141047
94.28198, 1.438555
94.76410, 1.656384
95.24622, 1.722997
95.72833, 1.709009
96.21045, 1.763301
96.69257, 1.889596
97.17468, 2.027731
97.65680, 2.136178
98.13892, 2.215300
98.62103, 2.239148
99.10315, 2.160027
99.58527, 2.008276
100.0674, 2.021052
100.5495, 2.241181
101.0316, 2.531627
101.5137, 2.699501
101.9958, 2.690905
102.4780, 2.756351
102.9601, 3.008741
103.4422, 3.494886
103.9243, 3.840778
104.4064, 3.960521
104.8885, 3.996512
105.3707, 4.228816
105.8528, 4.810555
106.3349, 5.370878
106.8170, 5.756675
107.2991, 5.830170
107.7813, 5.993918
108.2634, 6.347413
108.7455, 6.806724
109.2276, 7.078924
109.7097, 6.908019
110.1918, 6.737765
110.6740, 6.751921
111.1561, 7.091176
111.6382, 7.462122
112.1203, 7.877710
112.6024, 8.326502
113.0845, 8.715729
113.5667, 8.928348
114.0488, 9.131809
114.5309, 9.441890
115.0130, 9.981999
115.4951, 10.53631
115.9772, 11.06503
116.4594, 11.57025
116.9415, 12.01569
117.4236, 12.29304
117.9057, 12.53502
118.3878, 12.88211
118.8699, 13.61791
119.3521, 14.30427
119.8342, 14.62125
120.3163, 14.51239
120.7984, 14.44419
121.2805, 14.78950
121.7626, 15.36241
122.2448, 15.84507
122.7269, 15.99966
123.2090, 16.03495
123.6911, 16.16983
124.1732, 16.45091
124.6553, 16.73278
125.1375, 16.77560
125.6196, 16.67869
126.1017, 16.75638
126.5838, 17.41348
127.0659, 18.33729
127.5480, 18.94418
128.0302, 19.09153
128.5123, 19.03228
128.9944, 18.97616
129.4765, 18.94825
129.9586, 19.18254
130.4407, 20.10777
130.9229, 21.51413
131.4050, 22.52477
131.8871, 22.85685
132.3692, 22.77692
132.8513, 22.77133
133.3334, 22.79157
133.8156, 22.93080
134.2977, 23.49234
134.7798, 24.53148
135.2619, 25.36674
135.7440, 25.77852
136.2261, 25.87370
136.7083, 26.22230
137.1904, 26.88936
137.6725, 27.60354
138.1546, 28.03817
138.6367, 28.11893
139.1188, 28.35651
139.6010, 28.93259
140.0831, 29.84496
140.5652, 30.61765
141.0473, 31.19243
141.5294, 31.72291
142.0115, 32.43914
142.4937, 33.49284
142.9758, 34.38250
143.4579, 34.85471
143.9400, 34.70081
144.4221, 35.16047
144.9042, 36.49545
145.3864, 38.28243
145.8685, 39.76134
146.3506, 40.72603
146.8327, 41.68140
147.3148, 42.77499
147.7969, 43.92784
148.2791, 45.38759
148.7612, 47.43352
149.2433, 49.75191
149.7254, 51.64891
150.2075, 52.71920
150.6896, 53.71427
151.1718, 54.92999
151.6539, 57.06030
152.1360, 58.41365
152.6181, 58.72860
153.1002, 58.21928
153.5823, 57.51815
154.0645, 56.97390
154.5466, 56.02788
155.0287, 54.41704
155.5108, 51.46487
155.9929, 48.60017
156.4750, 46.05381
156.9572, 43.77147
157.4393, 41.59811
157.9214, 39.39135
158.4035, 37.32307
158.8856, 35.49321
159.3677, 34.09164
159.8499, 32.75327
160.3320, 31.26638
160.8141, 29.70048
161.2962, 28.48752
161.7783, 28.19709
162.2604, 28.14101
162.7426, 27.75170
163.2247, 26.36669
163.7068, 25.04697
164.1889, 24.30666
164.6710, 24.12341
165.1531, 24.03473
165.6353, 23.81454
166.1174, 23.57078
166.5995, 23.41967
167.0816, 23.55341
167.5637, 23.68107
168.0458, 23.52758
168.5280, 23.09330
169.0101, 22.78890
169.4922, 22.97418
169.9743, 23.43424
170.4564, 23.86920
170.9385, 24.33710
171.4207, 24.62139
171.9028, 24.35258
172.3849, 23.48731
172.8670, 22.77349
173.3491, 22.96563
173.8312, 23.71048
174.3134, 24.33456
174.7955, 24.46503
175.2776, 24.33567
175.7597, 24.17992
176.2418, 23.99915
176.7239, 23.86214
177.2061, 23.91933
177.6882, 24.08333
178.1703, 24.11637
178.6524, 23.60389
179.1345, 22.96025
179.6166, 23.00208
180.0988, 23.87157
180.5809, 24.90731
181.0630, 25.31842
181.5451, 25.23438
182.0272, 25.15628
182.5093, 25.28660
182.9915, 25.61630
183.4736, 26.10768
183.9557, 26.75266
184.4378, 27.59022
184.9199, 28.89931
185.4020, 30.56973
185.8842, 31.99060
186.3663, 32.65957
186.8484, 32.76823
187.3305, 32.97480
187.8126, 33.33695
188.2947, 33.79268
188.7769, 34.41737
189.2590, 35.18702
189.7411, 35.57888
190.2232, 35.16969
190.7053, 34.06348
191.1874, 32.91789
191.6696, 31.77263
192.1517, 30.60860
192.6338, 29.34858
193.1159, 27.98732
193.5980, 26.66855
194.0801, 25.50653
194.5623, 24.49319
195.0444, 23.40275
195.5265, 22.15574
196.0086, 20.91891
196.4907, 20.08167
196.9728, 19.67557
197.4550, 19.39881
197.9371, 19.10140
198.4192, 18.78358
198.9013, 18.41838
199.3834, 17.97789
199.8655, 17.51647
200.3477, 17.17363
200.8298, 16.97088
201.3119, 16.79380
201.7940, 16.55350
202.2761, 16.23758
202.7582, 15.99616
203.2404, 15.83930
203.7225, 15.76685
204.2046, 15.82423
204.6867, 16.06876
205.1688, 16.24773
205.6509, 16.13556
206.1331, 15.65696
206.6152, 15.40003
207.0973, 15.48812
207.5794, 15.79143
208.0615, 15.90665
208.5436, 15.79585
209.0258, 15.59687
209.5079, 15.37797
209.9900, 15.12854
210.4721, 14.90350
210.9542, 14.67889
211.4363, 14.49092
211.9185, 14.50699
212.4006, 14.83992
212.8827, 15.13305
213.3648, 15.12593
213.8469, 14.70863
214.3290, 14.38706
214.8112, 14.16645
215.2933, 14.07579
215.7754, 14.27362
216.2575, 14.94023
216.7396, 15.55607
217.2217, 15.77784
217.7039, 15.46212
218.1860, 15.19098
218.6681, 15.01002
219.1502, 14.90111
219.6323, 14.80693
220.1144, 14.74087
220.5966, 14.66831
221.0787, 14.55471
221.5608, 14.34842
222.0429, 14.24826
222.5250, 14.30308
223.0071, 14.46913
223.4893, 14.58086
223.9714, 14.61223
224.4535, 14.63249
224.9356, 14.67852
225.4177, 14.75557
225.8998, 14.85099
226.3820, 14.99269
226.8641, 15.14952
227.3462, 15.19991
227.8283, 15.08790
228.3104, 14.95492
228.7925, 14.86598
229.2747, 14.80350
229.7568, 14.83667
230.2389, 15.04587
230.7210, 15.34048
231.2031, 15.39673
231.6852, 15.02891
232.1674, 14.69754
232.6495, 14.65541
233.1316, 15.09713
233.6137, 15.38954
234.0958, 15.47427
234.5779, 15.40747
235.0601, 15.33617
235.5422, 15.23406
236.0243, 15.16466
236.5064, 15.16368
236.9885, 15.27799
237.4706, 15.36362
237.9528, 15.45571
238.4349, 15.50833
238.9170, 15.37057
239.3991, 14.84012
239.8812, 14.42191
240.3633, 14.36238
240.8455, 14.86873
241.3276, 15.22478
241.8097, 15.42204
242.2918, 15.46746
242.7739, 15.34482
243.2560, 14.90704
243.7382, 14.52795
244.2203, 14.34392
244.7024, 14.37849
245.1845, 14.56546
245.6666, 15.05238
246.1487, 15.62057
246.6309, 15.82912
247.1130, 15.45969
247.5951, 15.08575
248.0772, 14.90383
248.5593, 14.94245
249.0414, 15.08510
249.5236, 15.45646
250.0057, 15.85269
250.4878, 15.90681
250.9699, 15.39638
251.4520, 14.93885
251.9341, 14.74681
252.4163, 14.87523
252.8984, 15.00157
253.3805, 15.17591
253.8626, 15.30942
254.3447, 15.24239
254.8268, 14.84235
255.3090, 14.51013
255.7911, 14.36908
256.2732, 14.43661
256.7553, 14.54408
257.2374, 14.71498
257.7195, 14.90326
258.2017, 15.07617
258.6838, 15.30241
259.1659, 15.34831
259.6480, 15.06106
260.1301, 14.41803
260.6122, 14.14133
261.0944, 14.37802
261.5765, 14.79975
262.0586, 15.06648
262.5407, 15.14274
263.0228, 15.16133
263.5049, 15.14533
263.9871, 15.09460
264.4692, 15.00018
264.9513, 14.83409
265.4334, 14.66784
265.9155, 14.55782
266.3976, 14.50207
266.8798, 14.52486
267.3619, 14.67611
267.8440, 14.92537
268.3261, 14.97937
268.8082, 14.74505
269.2903, 14.51092
269.7725, 14.53733
270.2546, 14.88722
270.7367, 15.21585
271.2188, 15.51441
271.7009, 15.74714
272.1830, 15.71492
272.6652, 15.32724
273.1473, 14.92289
273.6294, 14.74954
274.1115, 14.85048
274.5936, 14.91730
275.0757, 14.89979
275.5579, 14.84270
276.0400, 14.90349
276.5221, 15.12122
277.0042, 15.29841
277.4863, 15.29262
277.9684, 15.08782
278.4506, 14.90583
278.9327, 14.73522
279.4148, 14.62773
279.8969, 14.76602
280.3790, 15.19932
280.8611, 15.53325
281.3433, 15.50506
281.8254, 15.11763
282.3075, 14.82361
282.7896, 14.64379
283.2717, 14.54039
283.7538, 14.43953
284.2360, 14.33796
284.7181, 14.32285
285.2002, 14.47514
285.6823, 14.77186
286.1644, 15.01843
286.6465, 15.21907
287.1287, 15.34637
287.6108, 15.31526
288.0929, 15.13636
288.5750, 15.01140
289.0571, 15.08303
289.5392, 15.27022
290.0214, 15.21597
290.5035, 14.89897
290.9856, 14.52368
291.4677, 14.25711
291.9498, 14.10238
292.4319, 14.09362
292.9141, 14.30532
293.3962, 14.63329
293.8783, 14.83314
294.3604, 14.90259
294.8425, 14.92668
295.3246, 14.96654
295.8068, 15.01935
296.2889, 15.08058
296.7710, 15.17033
297.2531, 15.24400
297.7352, 15.17472
298.2173, 14.98409
298.6995, 14.85625
299.1816, 15.00750
299.6637, 15.31225
300.1458, 15.49597
300.6279, 15.48764
301.1100, 15.39486
301.5922, 15.36408
302.0743, 15.37046
302.5564, 15.31448
303.0385, 14.99038
303.5206, 14.61458
304.0027, 14.53611
304.4849, 14.85348
304.9670, 15.24889
305.4491, 15.47145
305.9312, 15.53997
306.4133, 15.49959
306.8954, 15.30334
307.3776, 15.04700
307.8597, 14.79075
308.3418, 14.52691
308.8239, 14.38281
309.3060, 14.58871
309.7881, 14.95582
310.2703, 15.17961
310.7524, 14.98072
311.2345, 14.71210
311.7166, 14.64922
312.1987, 14.78933
312.6808, 14.91717
313.1630, 14.88914
313.6451, 14.79395
314.1272, 14.72644
314.6093, 14.71271
315.0914, 14.73855
315.5735, 14.84546
316.0557, 15.00781
316.5378, 15.08989
317.0199, 15.03776
317.5020, 14.88172
317.9841, 14.61024
318.4662, 13.97532
318.9484, 13.60389
319.4305, 13.90312
319.9126, 14.64290
320.3947, 15.21863
320.8768, 15.38957
321.3589, 15.40233
321.8411, 15.36443
322.3232, 15.26824
322.8053, 15.17575
323.2874, 15.07915
323.7695, 14.99682
324.2516, 14.95792
324.7338, 14.98060
325.2159, 15.03454
325.6980, 15.13136
326.1801, 15.29733
326.6622, 15.38801
327.1443, 15.28165
327.6265, 15.14454
328.1086, 15.14541
328.5907, 15.48035
329.0728, 15.73634
329.5549, 15.85097
330.0370, 15.82342
330.5192, 15.71879
331.0013, 15.39812
331.4834, 15.11709
331.9655, 15.06272
332.4476, 15.41204
332.9297, 15.68830
333.4119, 15.86056
333.8940, 15.93010
334.3761, 15.87014
334.8582, 15.56581
335.3403, 15.31559
335.8224, 15.29071
336.3046, 15.58222
336.7867, 15.83216
337.2688, 16.04025
337.7509, 16.19964
338.2330, 16.29650
338.7151, 16.32150
339.1973, 16.31090
339.6794, 16.27678
340.1615, 16.21961
340.6436, 16.13084
341.1257, 15.99815
341.6078, 15.86341
342.0900, 15.76662
342.5721, 15.70682
343.0542, 15.72520
343.5363, 15.86667
344.0184, 16.09366
344.5005, 16.24817
344.9827, 16.32617
345.4648, 16.35316
345.9469, 16.34399
346.4290, 16.29975
346.9111, 16.20948
347.3932, 16.01694
347.8754, 15.84952
348.3575, 16.07791
348.8396, 16.65835
349.3217, 17.10193
349.8038, 16.93504
350.2859, 16.38845
350.7681, 15.99127
351.2502, 15.78902
351.7323, 15.80460
352.2144, 16.22084
352.6965, 16.90991
353.1786, 17.47306
353.6608, 17.76688
354.1429, 17.79958
354.6250, 17.44094
355.1071, 16.67150
355.5892, 16.02309
356.0714, 15.99805
356.5535, 16.33895
357.0356, 16.66628
357.5177, 16.84759
357.9998, 16.96322
358.4819, 17.05962
358.9641, 17.13569
359.4462, 17.18168
359.9283, 17.11866
360.4104, 17.06272
360.8925, 17.13454
361.3746, 17.50297
361.8568, 17.75528
362.3389, 17.55236
362.8210, 17.10592
363.3031, 16.89195
363.7852, 17.24088
364.2673, 17.71051
364.7495, 18.13405
365.2316, 18.52834
365.7137, 18.74782
366.1958, 18.63137
366.6779, 18.36924
367.1600, 18.18398
367.6422, 18.03942
368.1243, 18.03672
368.6064, 18.32100
369.0885, 18.91894
369.5706, 19.17590
370.0527, 18.79711
370.5349, 18.30780
371.0170, 18.05314
371.4991, 18.22863
371.9812, 18.30670
372.4633, 18.19360
372.9454, 17.96084
373.4276, 17.85815
373.9097, 17.90185
374.3918, 18.04716
374.8739, 18.31671
375.3560, 18.78784
375.8381, 19.02492
376.3203, 18.94183
376.8024, 18.73345
377.2845, 18.70103
377.7666, 18.87095
378.2487, 19.07745
378.7308, 19.28294
379.2130, 19.48233
379.6951, 19.62990
380.1772, 19.73073
380.6593, 19.75943
381.1414, 19.66535
381.6235, 19.46179
382.1057, 19.25484
382.5878, 19.04618
383.0699, 18.87520
383.5520, 18.84344
384.0341, 18.93914
384.5162, 19.04496
384.9984, 19.08390
385.4805, 19.08014
385.9626, 19.05674
386.4447, 18.99636
386.9268, 19.02221
387.4089, 19.43019
387.8911, 20.02722
388.3732, 20.36908
388.8553, 20.07528
389.3374, 19.55175
389.8195, 19.13322
390.3016, 18.83124
390.7838, 18.64071
391.2659, 18.56826
391.7480, 18.60636
392.2301, 18.76282
392.7122, 19.18376
393.1943, 19.52487
393.6765, 19.49898
394.1586, 19.24631
394.6407, 19.16474
395.1228, 19.65886
395.6049, 20.14607
396.0870, 20.30727
396.5692, 19.99281
397.0513, 19.71741
397.5334, 19.50064
398.0155, 19.40023
398.4976, 19.48982
398.9797, 20.14626
399.4619, 20.59589
399.9440, 20.56704
400.4261, 20.06300
400.9082, 19.85993
401.3903, 20.20591
401.8724, 20.61663
402.3546, 20.75530
402.8367, 20.38153
403.3188, 20.27251
403.8009, 20.57767
404.2830, 21.12622
404.7651, 21.48261
405.2473, 21.59811
405.7294, 21.64800
406.2115, 21.64203
406.6936, 21.57133
407.1757, 21.81521
407.6578, 22.46673
408.1400, 23.18325
408.6221, 23.53293
409.1042, 23.52474
409.5863, 23.57450
410.0684, 23.83721
410.5505, 24.19151
411.0327, 24.32159
411.5148, 24.23527
411.9969, 24.16077
412.4790, 24.30866
412.9611, 24.58734
413.4432, 24.72610
413.9254, 24.63487
414.4075, 24.62081
414.8896, 25.10605
415.3717, 25.92862
415.8538, 26.70677
416.3359, 27.16994
416.8181, 27.55878
417.3002, 28.13035
417.7823, 28.88717
418.2644, 29.53977
418.7465, 29.80482
419.2286, 29.95359
419.7108, 30.25152
420.1929, 30.89870
420.6750, 31.53267
421.1571, 31.88128
421.6392, 32.10291
422.1213, 32.60100
422.6035, 33.81634
423.0856, 35.04052
423.5677, 35.89939
424.0498, 36.13656
424.5319, 36.81566
425.0140, 38.47785
425.4962, 40.40931
425.9783, 41.88393
426.4604, 42.50287
426.9425, 43.23370
427.4246, 44.07661
427.9067, 45.10273
428.3889, 46.77555
428.8710, 49.23571
429.3531, 52.08177
429.8352, 55.19891
430.3173, 58.60506
430.7994, 61.94598
431.2816, 65.14307
431.7637, 68.37299
432.2458, 71.72473
432.7279, 75.16702
433.2100, 79.23995
433.6921, 84.15226
434.1743, 89.86056
434.6564, 96.10167
435.1385, 102.9546
435.6206, 110.2473
436.1027, 117.9406
436.5848, 125.9770
437.0670, 134.1579
437.5491, 142.4007
438.0312, 150.9467
438.5133, 159.7380
438.9954, 169.0894
439.4775, 179.8767
439.9597, 192.4860
440.4418, 206.7740
440.9239, 222.7759
441.4060, 240.4956
441.8881, 259.4255
442.3702, 278.1365
442.8524, 298.2114
443.3345, 321.3670
443.8166, 349.7225
444.2987, 379.2466
444.7808, 408.6060
445.2629, 438.1797
445.7451, 469.3370
446.2272, 502.5089
446.7093, 536.4141
447.1914, 570.2817
447.6735, 603.6102
448.1556, 638.7906
448.6378, 675.8578
449.1199, 714.3942
449.6020, 754.3649
450.0841, 795.9816
450.5662, 837.0579
451.0483, 878.1097
451.5305, 918.4594
452.0126, 954.2613
452.4947, 985.8549
452.9768, 1012.785
453.4589, 1033.530
453.9410, 1048.054
454.4232, 1063.602
454.9053, 1079.686
455.3874, 1099.617
455.8695, 1126.809
456.3516, 1161.589
456.8337, 1205.252
457.3159, 1260.692
457.7980, 1323.787
458.2801, 1391.885
458.7622, 1463.259
459.2443, 1528.043
459.7264, 1588.605
460.2086, 1634.427
460.6907, 1652.666
461.1728, 1642.890
461.6549, 1599.632
462.1370, 1510.399
462.6191, 1387.344
463.1013, 1249.886
463.5834, 1085.204
464.0655, 926.1508
464.5476, 785.4319
465.0297, 663.9008
465.5118, 559.8574
465.9940, 480.4621
466.4761, 415.3021
466.9582, 359.5475
467.4403, 313.8965
467.9224, 274.8056
468.4045, 243.3153
468.8867, 217.8308
469.3688, 195.8829
469.8509, 178.6338
470.3330, 163.5199
470.8151, 150.1043
471.2972, 138.3806
471.7794, 128.5597
472.2615, 120.9815
472.7436, 114.1209
473.2257, 106.7231
473.7078, 98.73405
474.1899, 91.90890
474.6721, 86.41801
475.1542, 81.87443
475.6363, 77.88921
476.1184, 74.41623
476.6005, 71.16277
477.0826, 67.97070
477.5648, 64.95758
478.0469, 62.21294
478.5290, 59.74732
479.0111, 57.65800
479.4932, 56.42543
479.9753, 55.43067
480.4575, 53.85390
480.9396, 51.35870
481.4217, 48.89620
481.9038, 47.07109
482.3859, 45.67979
482.8680, 44.45173
483.3502, 43.28522
483.8323, 42.27840
484.3144, 41.62781
484.7965, 41.29139
485.2786, 40.60493
485.7607, 39.13411
486.2429, 37.56102
486.7250, 36.20308
487.2071, 35.06633
487.6892, 34.17590
488.1713, 33.64448
488.6534, 33.28222
489.1356, 32.78844
489.6177, 32.08355
490.0998, 31.48185
490.5819, 31.08304
491.0640, 30.83765
491.5461, 30.51369
492.0283, 30.10846
492.5104, 29.63829
492.9925, 29.10057
493.4746, 28.50002
493.9567, 27.86671
494.4388, 27.16797
494.9210, 26.57207
495.4031, 26.32128
495.8852, 26.32064
496.3673, 26.32932
496.8494, 26.30263
497.3315, 26.20343
497.8137, 25.93676
498.2958, 25.54511
498.7779, 25.21552
499.2600, 25.13639
499.7421, 25.08756
500.2242, 24.88796
500.7064, 24.46470
501.1885, 24.11520
501.6706, 23.99444
502.1527, 23.96420
502.6348, 23.88756
503.1169, 23.69800
503.5991, 23.52085
504.0812, 23.36996
504.5633, 23.24280
505.0454, 23.12118
505.5275, 22.97960
506.0096, 22.89499
506.4918, 22.95300
506.9739, 23.18714
507.4560, 23.10526
507.9381, 22.61322
508.4202, 22.05855
508.9023, 21.82037
509.3845, 21.88101
509.8666, 21.92964
510.3487, 21.89469
510.8308, 21.84815
511.3129, 21.97176
511.7950, 22.21579
512.2772, 22.34766
512.7593, 22.18518
513.2414, 21.87475
513.7235, 21.52642
514.2056, 21.15313
514.6877, 20.91375
515.1699, 21.04450
515.6520, 21.28549
516.1341, 21.37557
516.6162, 21.12425
517.0983, 20.98114
517.5804, 21.29047
518.0626, 21.76243
518.5447, 21.92176
519.0268, 21.33648
519.5089, 20.81102
519.9910, 20.57086
520.4731, 20.59097
520.9553, 20.46577
521.4374, 20.01442
521.9195, 19.68906
522.4016, 19.84372
522.8837, 20.64805
523.3658, 20.99371
523.8480, 20.77441
524.3301, 20.30262
524.8122, 19.91246
525.2943, 19.61182
525.7764, 19.54896
526.2585, 19.87035
526.7407, 20.33026
527.2228, 20.50171
527.7049, 20.40874
528.1870, 20.19184
528.6691, 19.78889
529.1512, 19.38261
529.6334, 19.25584
530.1155, 19.43762
530.5976, 19.53209
531.0797, 19.07670
531.5618, 18.52289
532.0439, 18.34540
532.5261, 19.09457
533.0082, 19.60295
533.4903, 19.29002
533.9724, 18.56213
534.4545, 18.28784
534.9366, 19.09055
535.4188, 19.72605
535.9009, 19.86083
536.3830, 19.50817
536.8651, 19.23726
537.3472, 19.06205
537.8293, 18.94207
538.3115, 18.82610
538.7936, 18.70195
539.2757, 18.80016
539.7578, 19.19674
540.2399, 19.63112
540.7220, 19.76754
541.2042, 19.63021
541.6863, 19.34912
542.1684, 18.84935
542.6505, 18.35927
543.1326, 18.29803
543.6147, 18.55902
544.0969, 18.73399
544.5790, 18.38135
545.0611, 17.97540
545.5432, 17.98824
546.0253, 18.48151
546.5074, 18.85818
546.9896, 18.78201
547.4717, 18.52911
547.9538, 18.32189
548.4359, 18.24271
548.9180, 18.14814
549.4001, 17.97059
549.8823, 17.78699
550.3644, 17.73722
550.8465, 17.89462
551.3286, 18.05250
551.8107, 18.18585
552.2928, 18.28274
552.7750, 18.23087
553.2571, 18.00498
553.7392, 17.75520
554.2213, 17.53134
554.7034, 17.35377
555.1855, 17.35799
555.6677, 17.56570
556.1498, 17.84076
556.6319, 18.13014
557.1140, 18.36986
557.5961, 18.39670
558.0782, 18.03679
558.5604, 17.66485
559.0425, 17.66019
559.5246, 17.87521
560.0067, 17.98191
560.4888, 17.71495
560.9709, 17.42827
561.4531, 17.28744
561.9352, 17.29806
562.4173, 17.31914
562.8994, 17.33344
563.3815, 17.35269
563.8636, 17.37824
564.3458, 17.39181
564.8279, 17.47227
565.3100, 17.66558
565.7921, 17.86923
566.2742, 17.90832
566.7563, 17.75303
567.2385, 17.74700
567.7206, 18.01984
568.2027, 18.41268
568.6848, 18.59160
569.1669, 18.57056
569.6490, 18.43075
570.1312, 18.08381
570.6133, 17.70342
571.0954, 17.56584
571.5775, 17.66429
572.0596, 17.82464
572.5417, 18.00553
573.0239, 18.15761
573.5060, 18.22136
573.9881, 18.14398
574.4702, 18.09842
574.9523, 18.18060
575.4344, 18.30676
575.9166, 18.36890
576.3987, 18.25163
576.8808, 18.21942
577.3629, 18.35623
577.8450, 18.59226
578.3271, 18.66021
578.8093, 18.45853
579.2914, 18.39840
579.7735, 18.76293
580.2556, 19.45502
580.7377, 19.65762
581.2198, 19.32337
581.7020, 18.99866
582.1841, 19.20260
582.6662, 19.75220
583.1483, 20.21872
583.6304, 20.53072
584.1125, 20.80268
584.5947, 21.18113
585.0768, 21.57147
585.5589, 21.83151
586.0410, 21.72522
586.5231, 21.69107
587.0052, 21.96228
587.4874, 22.44970
587.9695, 22.90726
588.4516, 23.28849
588.9337, 23.63604
589.4158, 23.91204
589.8979, 24.11503
590.3801, 24.54547
590.8622, 25.31488
591.3443, 26.11715
591.8264, 26.75344
592.3085, 27.21819
592.7906, 27.59338
593.2728, 27.82556
593.7549, 28.17603
594.2370, 29.08892
594.7191, 30.41818
595.2012, 31.54186
595.6833, 32.19027
596.1655, 32.82551
596.6476, 33.94285
597.1297, 35.43715
597.6118, 37.08965
598.0939, 38.59023
598.5760, 40.40765
599.0582, 42.83618
599.5403, 45.81999
600.0224, 49.13790
600.5045, 53.23397
600.9866, 57.21734
601.4688, 60.66407
601.9509, 63.39901
602.4330, 66.35957
602.9151, 69.51236
603.3972, 72.91219
603.8793, 76.56638
604.3615, 80.47694
604.8436, 84.80563
605.3257, 89.55449
605.8078, 94.67687
606.2899, 99.85779
606.7720, 105.2446
607.2542, 111.2985
607.7363, 118.0583
608.2184, 125.7085
608.7005, 134.1648
609.1826, 143.6060
609.6647, 154.3444
610.1469, 167.0376
610.6290, 180.8835
611.1111, 195.0447
611.5932, 209.6192
612.0753, 225.6846
612.5574, 244.5599
613.0396, 264.3591
613.5217, 284.1319
614.0038, 304.7746
614.4859, 323.9762
614.9680, 343.1065
615.4501, 358.9575
615.9323, 368.5059
616.4144, 371.8813
616.8965, 366.2147
617.3786, 349.7127
617.8607, 326.2346
618.3428, 300.3385
618.8250, 272.7291
619.3071, 246.3434
619.7892, 221.0850
620.2713, 198.7517
620.7534, 181.6958
621.2355, 169.2723
621.7177, 159.2444
622.1998, 150.8876
622.6819, 144.2951
623.1640, 139.5454
623.6461, 136.7312
624.1282, 135.1775
624.6104, 135.1897
625.0925, 136.0926
625.5746, 137.5227
626.0567, 139.5959
626.5388, 141.9458
627.0209, 144.6121
627.5031, 147.4256
627.9852, 150.5654
628.4673, 153.9250
628.9494, 155.9448
629.4315, 156.3893
629.9136, 155.0644
630.3958, 151.7558
630.8779, 146.4604
631.3600, 139.1720
631.8421, 128.6819
632.3242, 117.1807
632.8063, 105.7139
633.2885, 94.55052
633.7706, 84.40146
634.2527, 75.56869
634.7348, 67.78868
635.2169, 60.87688
635.6990, 54.88516
636.1812, 49.74642
636.6633, 45.62881
637.1454, 42.13595
637.6275, 39.02008
638.1096, 36.22707
638.5917, 34.05878
639.0739, 32.58354
639.5560, 31.51479
640.0381, 30.57060
640.5202, 29.71959
641.0023, 28.82167
641.4844, 27.75149
641.9666, 26.78186
642.4487, 26.19860
642.9308, 25.91417
643.4129, 25.74479
643.8950, 25.76169
644.3771, 25.72688
644.8593, 25.52664
645.3414, 25.17686
645.8235, 24.76252
646.3056, 24.22764
646.7877, 23.71035
647.2698, 23.27794
647.7520, 22.93216
648.2341, 22.51961
648.7162, 22.05921
649.1983, 21.48410
649.6804, 20.65296
650.1625, 19.61352
650.6447, 18.83293
651.1268, 18.34875
651.6089, 18.02778
652.0910, 17.80074
652.5731, 17.63361
653.0552, 17.47332
653.5374, 17.33139
654.0195, 17.13649
654.5016, 16.73186
654.9837, 16.27407
655.4658, 15.99010
655.9479, 16.16132
656.4301, 16.25536
656.9122, 16.11958
657.3943, 15.83307
657.8764, 15.60524
658.3585, 15.44249
658.8406, 15.31716
659.3228, 15.20873
659.8049, 15.21586
660.2870, 15.17801
660.7691, 15.35563
661.2512, 15.54671
661.7333, 15.74588
662.2155, 15.88410
662.6976, 15.75336
663.1797, 15.35702
663.6618, 15.02016
664.1439, 15.03222
664.6260, 15.16623
665.1082, 15.22889
665.5903, 15.18306
666.0724, 15.08398
666.5545, 14.87314
667.0366, 14.65727
667.5187, 14.53775
668.0009, 14.57999
668.4830, 14.57910
668.9651, 14.49973
669.4472, 14.40197
669.9293, 14.40112
670.4114, 14.49886
670.8936, 14.53555
671.3757, 14.42935
671.8578, 14.30178
672.3399, 14.40187
672.8220, 14.66293
673.3041, 14.85580
673.7863, 14.76398
674.2684, 14.64882
674.7505, 14.72117
675.2326, 14.94682
675.7147, 15.13928
676.1968, 15.24561
676.6790, 15.30388
677.1611, 15.29836
677.6432, 15.22254
678.1253, 15.27243
678.6074, 15.54834
679.0895, 15.76177
679.5717, 15.65769
680.0538, 15.23546
680.5359, 15.07205
681.0180, 15.20120
681.5001, 15.41318
681.9822, 15.56301
682.4644, 15.63329
682.9465, 15.56092
683.4286, 15.30261
683.9107, 15.03569
684.3928, 14.86315
684.8749, 14.76116
685.3571, 14.69712
685.8392, 14.67320
686.3213, 14.67292
686.8034, 14.69545
687.2855, 14.73993
687.7676, 14.81359
688.2498, 14.94538
688.7319, 15.02436
689.2140, 14.98836
689.6961, 14.91943
690.1782, 15.10530
690.6603, 15.52806
691.1425, 15.83698
691.6246, 15.84057
692.1067, 15.65569
692.5888, 15.37753
693.0709, 15.04648
693.5530, 14.84017
694.0352, 15.00605
694.5173, 15.20773
694.9994, 15.19518
695.4815, 14.94600
695.9636, 14.82447
696.4457, 15.12613
696.9279, 15.32684
697.4100, 15.11761
697.8921, 14.38884
698.3742, 14.01186
698.8563, 14.05196
699.3384, 14.24315
699.8206, 14.42542
700.3027, 14.57079
700.7848, 14.47544
701.2669, 14.07289
701.7490, 13.77429
702.2311, 14.13907
702.7133, 14.79368
703.1954, 15.20806
703.6775, 15.14669
704.1596, 15.04652
704.6417, 15.11759
705.1238, 15.23394
705.6060, 15.21285
706.0881, 14.92161
706.5702, 14.70007
707.0523, 14.59138
707.5344, 14.56021
708.0165, 14.55288
708.4987, 14.57370
708.9808, 14.54303
709.4629, 14.39659
709.9450, 14.23532
710.4271, 14.32299
710.9092, 14.58022
711.3914, 14.71534
711.8735, 14.39863
712.3556, 14.05600
712.8377, 14.00844
713.3198, 14.21001
713.8019, 14.40738
714.2841, 14.57453
714.7662, 14.68264
715.2483, 14.74460
715.7304, 14.75741
716.2125, 14.56877
716.6946, 14.07432
717.1768, 13.66030
717.6589, 13.61820
718.1410, 13.88675
718.6231, 13.97557
719.1052, 13.88116
719.5873, 13.79016
720.0695, 13.92136
720.5516, 14.11119
721.0337, 14.10774
721.5158, 13.85248
721.9979, 13.67688
722.4800, 13.84856
722.9622, 14.09066
723.4443, 14.16471
723.9264, 13.88826
724.4085, 13.80743
724.8906, 14.02981
725.3727, 14.32054
725.8549, 14.44255
726.3370, 14.38761
726.8191, 14.28313
727.3012, 14.12719
727.7833, 13.98797
728.2654, 13.93771
728.7476, 13.97635
729.2297, 14.12884
729.7118, 14.49035
730.1939, 14.77964
730.6760, 14.70728
731.1581, 14.46186
731.6403, 14.33314
732.1224, 14.53055
732.6045, 14.67552
733.0866, 14.71534
733.5687, 14.67029
734.0508, 14.54235
734.5330, 14.26987
735.0151, 14.20240
735.4972, 14.53193
735.9793, 15.00698
736.4614, 14.99614
736.9435, 14.58487
737.4257, 14.21298
737.9078, 14.12156
738.3899, 14.14983
738.8720, 14.11588
739.3541, 14.06912
739.8362, 14.18655
740.3184, 14.84359
740.8005, 15.36554
741.2826, 15.41757
741.7647, 15.06116
742.2468, 14.76603
742.7289, 14.51637
743.2111, 14.36836
743.6932, 14.35145
744.1753, 14.45902
744.6574, 14.74709
745.1395, 15.20346
745.6216, 15.48629
746.1038, 15.10021
746.5859, 14.54294
747.0680, 14.52671
747.5501, 15.05803
748.0322, 15.44718
748.5143, 15.17997
748.9965, 14.83124
749.4786, 14.78742
749.9607, 15.16674
750.4428, 15.33446
750.9249, 15.20917
751.4070, 15.01515
751.8892, 14.88400
752.3713, 14.81520
752.8534, 14.86250
753.3355, 15.03905
753.8176, 15.22244
754.2997, 15.31422
754.7819, 15.33210
755.2640, 15.28205
755.7461, 15.14963
756.2282, 15.05455
756.7103, 15.06082
757.1924, 15.13288
757.6746, 15.25205
758.1567, 15.51317
758.6388, 15.61485
759.1209, 15.47725
759.6030, 15.27761
760.0851, 15.18204
760.5673, 15.19026
761.0494, 15.33098
761.5315, 15.64750
762.0136, 15.92447
762.4957, 15.79931
762.9778, 15.47049
763.4600, 15.32769
763.9421, 15.54141
764.4242, 15.77908
764.9063, 15.94458
765.3884, 15.99577
765.8705, 15.87503
766.3527, 15.20814
766.8348, 14.93031
767.3169, 15.26571
767.7990, 15.83661
768.2811, 16.05499
768.7632, 15.90267
769.2454, 15.79053
769.7275, 15.83188
770.2096, 15.86833
770.6917, 15.56187
771.1738, 15.08813
771.6559, 14.84242
772.1381, 15.12941
772.6202, 15.45133
773.1023, 15.50464
773.5844, 15.42169
774.0665, 15.44002
774.5486, 15.76569
775.0308, 15.92443
775.5129, 15.77676
775.9950, 15.48374
776.4771, 15.42339
776.9592, 15.60410
777.4413, 15.76554
777.9235, 15.84152
778.4056, 15.84539
778.8877, 15.74695
779.3698, 15.59128
779.8519, 15.49397
780.3340, 15.52688
780.8162, 15.61084
781.2983, 15.78425
781.7804, 15.98140
782.2625, 16.00884
782.7446, 15.66770
783.2267, 15.47745
783.7089, 15.58759
784.1910, 15.89042
784.6731, 16.11121
785.1552, 16.25090
785.6373, 16.25017
786.1194, 15.97958
786.6016, 15.67528
787.0837, 15.79092
787.5658, 16.16999
788.0479, 16.37773
788.5300, 16.00277
789.0121, 15.62329
789.4943, 15.54669
789.9764, 15.68465
790.4585, 15.64580
790.9406, 15.22007
791.4227, 15.02768
791.9048, 15.31247
792.3870, 15.90918
792.8691, 16.33052
793.3512, 16.58040
793.8333, 16.66330
794.3154, 16.51294
794.7975, 16.25693
795.2797, 16.00314
795.7618, 15.76691
796.2439, 15.60904
796.7260, 15.59123
797.2081, 15.61444
797.6902, 15.66551
798.1724, 15.73072
798.6545, 15.75923
799.1366, 15.74039
799.6187, 15.71009
800.1008, 15.66821
800.5829, 15.63049
801.0651, 15.69771
801.5472, 15.83977
802.0293, 15.86139
802.5114, 15.43752
802.9935, 15.01935
803.4756, 15.12764
803.9578, 15.60809
804.4399, 15.94028
804.9220, 15.76417
805.4041, 15.65040
805.8862, 15.83156
806.3683, 16.20707
806.8505, 16.35042
807.3326, 16.22938
807.8147, 16.02186
808.2968, 15.74003
808.7789, 15.46003
809.2610, 15.40330
809.7432, 15.51580
810.2253, 15.57706
810.7074, 15.39774
811.1895, 15.19891
811.6716, 15.11884
812.1537, 15.13561
812.6359, 15.16240
813.1180, 15.25076
813.6001, 15.24916
814.0822, 15.05272
814.5643, 14.76142
815.0464, 14.80329
815.5286, 15.18583
816.0107, 15.47026
816.4928, 15.45153
816.9749, 15.26007
817.4570, 14.98937
817.9391, 14.70241
818.4213, 14.57291
818.9034, 14.92703
819.3855, 15.19788
819.8676, 15.06600
820.3497, 14.65509
820.8318, 14.39867
821.3140, 14.32795
821.7961, 14.35344
822.2782, 14.49200
822.7603, 14.67685
823.2424, 14.76937
823.7245, 14.76940
824.2067, 14.66206
824.6888, 14.29469
825.1709, 14.00041
825.6530, 14.22755
826.1351, 14.75007
826.6172, 15.05807
827.0994, 14.83988
827.5815, 14.59093
828.0636, 14.34791
828.5457, 14.16426
829.0278, 14.17934
829.5099, 14.42816
829.9921, 14.65570
830.4742, 14.82637
830.9563, 14.89545
831.4384, 14.65939
831.9205, 14.26519
832.4026, 14.10336
832.8848, 14.55722
833.3669, 14.92621
833.8490, 14.67851
834.3311, 14.15583
834.8132, 13.96665
835.2953, 14.40718
835.7775, 14.65763
836.2596, 14.58000
836.7417, 14.34768
837.2238, 14.19336
837.7059, 14.12231
838.1880, 14.23448
838.6702, 14.62270
839.1523, 14.97661
839.6344, 14.92047
840.1165, 14.64870
840.5986, 14.43349
841.0807, 14.33539
841.5629, 14.32494
842.0450, 14.51205
842.5271, 14.70492
843.0092, 14.69103
843.4913, 14.42592
843.9734, 14.18979
844.4556, 13.99337
844.9377, 13.88157
845.4198, 13.94007
845.9019, 14.11701
846.3840, 14.32806
846.8661, 14.58040
847.3483, 14.75182
847.8304, 14.67429
848.3125, 14.54458
848.7946, 14.55212
849.2767, 14.78874
849.7589, 14.96686
850.2410, 15.12016
850.7231, 15.15096
851.2052, 14.88001
851.6873, 14.37604
852.1694, 14.06665
852.6516, 13.97911
853.1337, 14.06078
853.6158, 14.42275
854.0979, 14.83299
854.5800, 15.06361
855.0621, 15.07215
855.5443, 15.03440
856.0264, 14.96554
856.5085, 14.87702
856.9906, 14.74683
857.4727, 14.57503
857.9548, 14.59109
858.4370, 14.81564
858.9191, 15.00595
859.4012, 14.98612
859.8833, 14.82768
860.3654, 14.58686
860.8475, 14.28775
861.3297, 14.08570
861.8118, 13.98250
862.2939, 14.05661
862.7760, 14.49432
863.2581, 15.20912
863.7402, 15.56143
864.2224, 15.46800
864.7045, 15.27460
865.1866, 15.06899
865.6687, 14.90045
866.1508, 14.97866
866.6329, 15.23688
867.1151, 15.38401
867.5972, 15.19283
868.0793, 14.91711
868.5614, 14.61023
869.0435, 14.33199
869.5256, 14.28604
870.0078, 14.59359
870.4899, 14.92931
870.9720, 15.27534
871.4541, 15.57960
871.9362, 15.66791
872.4183, 15.57728
872.9005, 15.62427
873.3826, 15.99157
873.8647, 16.34981
874.3468, 16.31997
874.8289, 16.08894
875.3110, 15.93908
875.7932, 15.91081
876.2753, 16.04870
876.7574, 16.56862
877.2395, 17.05231
877.7216, 16.86591
878.2037, 15.94846
878.6859, 15.51607
879.1680, 15.77408
879.6501, 16.20595
880.1322, 16.19173
880.6143, 16.01312
881.0964, 16.15695
881.5786, 16.83387
882.0607, 17.25528
882.5428, 16.79709
883.0249, 16.26026
883.5070, 16.21970
883.9891, 16.77550
884.4713, 17.22387
884.9534, 17.55688
885.4355, 17.80358
885.9176, 18.00518
886.3997, 18.12952
886.8818, 18.05201
887.3640, 17.78910
887.8461, 17.58342
888.3282, 17.44123
888.8103, 17.50760
889.2924, 18.06540
889.7745, 19.04675
890.2567, 19.39231
890.7388, 18.86210
891.2209, 18.40818
891.7030, 18.40528
892.1851, 18.76225
892.6672, 19.42685
893.1494, 20.29078
893.6315, 20.87406
894.1136, 20.62609
894.5957, 20.34579
895.0778, 20.52118
895.5599, 21.00735
896.0421, 21.42463
896.5242, 21.75460
897.0063, 22.01069
897.4884, 22.18300
897.9705, 22.29627
898.4526, 22.38939
898.9348, 22.46014
899.4169, 22.50173
899.8990, 22.52049
900.3811, 22.48647
900.8632, 22.32234
901.3453, 22.11772
901.8275, 21.96865
902.3096, 21.86770
902.7917, 21.89828
903.2738, 22.13279
903.7559, 22.39060
904.2380, 22.51378
904.7202, 22.51125
905.2023, 22.43574
905.6844, 22.28937
906.1665, 22.16172
906.6486, 22.15183
907.1307, 22.17859
907.6129, 22.16128
908.0950, 22.08877
908.5771, 22.04180
909.0592, 21.97720
909.5413, 22.01902
910.0234, 22.26221
910.5056, 22.66004
910.9877, 22.92656
911.4698, 23.06505
911.9519, 23.13407
912.4340, 23.00015
912.9161, 22.94404
913.3983, 23.42437
913.8804, 24.22129
914.3625, 24.71842
914.8446, 24.48701
915.3267, 24.25847
915.8088, 24.14605
916.2910, 24.11664
916.7731, 24.07864
917.2552, 24.03603
917.7373, 24.16620
918.2194, 24.54466
918.7015, 24.99376
919.1837, 25.43680
919.6658, 25.78349
920.1479, 25.89474
920.6300, 25.63314
921.1121, 25.34986
921.5942, 24.90480
922.0764, 24.65440
922.5585, 24.99981
923.0406, 25.97165
923.5227, 26.59105
924.0048, 26.81890
924.4869, 26.87181
924.9691, 26.93301
925.4512, 26.91257
925.9333, 26.60401
926.4154, 26.02270
926.8975, 25.67664
927.3796, 25.90046
927.8618, 26.17661
928.3439, 26.34667
928.8260, 26.42976
929.3081, 26.54895
929.7902, 26.70280
930.2723, 26.76626
930.7545, 26.60248
931.2366, 26.41693
931.7187, 26.48823
932.2008, 26.71320
932.6829, 26.87934
933.1650, 26.82463
933.6472, 26.83928
934.1293, 26.93995
934.6114, 27.14208
935.0935, 27.55325
935.5756, 28.17180
936.0577, 28.43122
936.5399, 28.20154
937.0220, 27.94363
937.5041, 28.26303
937.9862, 28.72911
938.4683, 28.74288
938.9504, 28.05078
939.4326, 27.77798
939.9147, 28.42960
940.3968, 29.11445
940.8789, 29.34115
941.3610, 29.15229
941.8431, 29.11048
942.3253, 29.21305
942.8074, 29.39371
943.2895, 29.83158
943.7716, 30.14550
944.2537, 29.75818
944.7358, 28.90799
945.2180, 28.48681
945.7001, 29.07890
946.1822, 29.57838
946.6643, 29.76694
947.1464, 29.79929
947.6285, 30.07895
948.1107, 30.54602
948.5928, 30.63360
949.0749, 30.01277
949.5570, 29.59466
950.0391, 30.57139
950.5212, 32.01295
951.0034, 32.82383
951.4855, 32.49463
951.9676, 32.24995
952.4497, 32.05981
952.9318, 32.04234
953.4139, 32.28048
953.8961, 32.76960
954.3782, 33.63315
954.8603, 34.82869
955.3424, 35.80367
955.8245, 35.94640
956.3066, 35.94519
956.7888, 36.19142
957.2709, 36.72269
957.7530, 37.56005
958.2351, 38.82726
958.7172, 40.10889
959.1993, 41.32469
959.6815, 42.46808
960.1636, 43.42118
960.6457, 44.27036
961.1278, 45.25523
961.6099, 46.36031
962.0920, 47.82631
962.5742, 49.86988
963.0563, 52.31695
963.5384, 54.97180
964.0205, 58.00898
964.5026, 60.73117
964.9847, 63.06615
965.4669, 65.24358
965.9490, 67.42710
966.4311, 69.59840
966.9132, 71.67338
967.3953, 73.67510
967.8774, 76.17476
968.3596, 78.99900
968.8417, 82.84293
969.3238, 87.99670
969.8059, 94.39333
970.2880, 101.6235
970.7701, 109.5487
971.2523, 119.8103
971.7344, 132.5242
972.2165, 148.7939
972.6986, 168.5807
973.1807, 193.7798
973.6628, 227.5962
974.1450, 272.7427
974.6271, 324.8587
975.1092, 387.8308
975.5913, 453.6183
976.0734, 516.1873
976.5555, 575.3496
977.0377, 628.4222
977.5198, 674.2771
978.0019, 720.2994
978.4840, 770.5445
978.9661, 825.8004
979.4482, 885.2099
979.9304, 949.2512
980.4125, 1025.365
980.8946, 1112.935
981.3767, 1215.771
981.8588, 1333.428
982.3409, 1469.464
982.8231, 1626.667
983.3052, 1809.053
983.7873, 2037.623
984.2694, 2320.564
984.7515, 2650.522
985.2336, 3025.395
985.7158, 3442.886
986.1979, 3906.202
986.6800, 4448.734
987.1621, 4989.684
987.6442, 5594.162
988.1263, 6014.095
988.6085, 6031.757
989.0906, 5689.513
989.5727, 4984.212
990.0548, 3953.642
990.5369, 2977.295
991.0190, 2187.827
991.5012, 1567.144
991.9833, 1138.365
992.4654, 868.4203
992.9475, 665.3181
993.4296, 534.3973
993.9117, 436.7530
994.3939, 365.5967
994.8760, 312.7467
995.3581, 271.6773
995.8402, 240.2341
996.3223, 213.7552
996.8044, 191.8897
997.2866, 173.4731
997.7687, 158.8188
998.2508, 146.3581
998.7329, 135.0955
999.2150, 125.1050
999.6971, 116.0098
1000.179, 107.9484
1000.661, 100.8564
1001.143, 94.90649
1001.626, 89.79134
1002.108, 85.40855
1002.590, 81.67056
1003.072, 77.93645
1003.554, 74.01025
1004.036, 70.61749
1004.518, 68.03117
1005.000, 65.87873
1005.483, 63.69920
1005.965, 61.46268
1006.447, 59.06013
1006.929, 56.32892
1007.411, 53.99573
1007.893, 52.52816
1008.375, 51.50457
1008.857, 50.67067
1009.339, 50.05651
1009.822, 48.96334
1010.304, 47.33928
1010.786, 45.84686
1011.268, 45.04778
1011.750, 44.55265
1012.232, 43.97981
1012.714, 43.29887
1013.196, 42.42538
1013.679, 41.11997
1014.161, 39.90694
1014.643, 38.91441
1015.125, 38.00958
1015.607, 36.90108
1016.089, 35.67722
1016.571, 34.91320
1017.053, 34.72626
1017.535, 34.67591
1018.018, 34.65617
1018.500, 34.46128
1018.982, 33.84172
1019.464, 32.77662
1019.946, 31.82726
1020.428, 30.93633
1020.910, 30.40509
1021.392, 30.55459
1021.875, 30.93139
1022.357, 30.58448
1022.839, 29.77030
1023.321, 29.09116
1023.803, 28.89172
1024.285, 28.67165
1024.767, 28.20933
1025.249, 27.75893
1025.731, 27.63947
1026.214, 27.85647
1026.696, 27.75143
1027.178, 27.28723
1027.660, 26.72230
1028.142, 26.13746
1028.624, 25.63297
1029.106, 25.36134
1029.588, 25.28740
1030.071, 25.06986
1030.553, 24.57310
1031.035, 24.22059
1031.517, 24.17122
1031.999, 24.22016
1032.481, 23.96815
1032.963, 23.51784
1033.445, 23.10156
1033.927, 22.73013
1034.410, 22.55721
1034.892, 23.00702
1035.374, 23.36798
1035.856, 23.05180
1036.338, 22.03242
1036.820, 21.63696
1037.302, 21.88359
1037.784, 22.11957
1038.266, 21.88742
1038.749, 21.50649
1039.231, 21.22711
1039.713, 21.05731
1040.195, 21.03200
1040.677, 21.34022
1041.159, 21.46024
1041.641, 21.32519
1042.123, 21.03755
1042.605, 20.64051
1043.088, 20.19977
1043.570, 19.89853
1044.052, 19.75615
1044.534, 19.77295
1045.016, 20.03524
1045.498, 20.37836
1045.980, 20.80285
1046.462, 21.23626
1046.945, 21.29429
1047.427, 20.96459
1047.909, 20.62193
1048.391, 20.37488
1048.873, 20.20444
1049.355, 20.07550
1049.837, 20.01666
1050.319, 20.08488
1050.802, 20.42568
1051.284, 20.54623
1051.766, 20.34986
1052.248, 20.13779
1052.730, 20.12898
1053.212, 20.27337
1053.694, 20.49107
1054.176, 20.73921
1054.658, 20.82498
1055.141, 20.47482
1055.623, 20.15317
1056.105, 20.05764
1056.587, 20.06961
1057.069, 20.01393
1057.551, 19.88747
1058.033, 19.79922
1058.515, 19.76214
1058.998, 19.76736
1059.480, 19.84166
1059.962, 19.92881
1060.444, 19.95285
1060.926, 19.90948
1061.408, 20.00094
1061.890, 20.37263
1062.372, 20.47570
1062.854, 20.02089
1063.337, 19.35214
1063.819, 19.12365
1064.301, 19.19666
1064.783, 19.26068
1065.265, 19.15925
1065.747, 19.21049
1066.229, 19.78685
1066.711, 20.27882
1067.193, 20.20990
1067.676, 19.62289
1068.158, 19.36866
1068.640, 19.43353
1069.122, 19.61712
1069.604, 19.86976
1070.086, 20.12705
1070.568, 20.42725
1071.050, 20.68369
1071.532, 20.68854
1072.015, 20.31774
1072.497, 20.14605
1072.979, 20.25563
1073.461, 20.44999
1073.943, 20.54216
1074.425, 20.57524
1074.907, 20.58671
1075.389, 20.58458
1075.872, 20.64866
1076.354, 20.86430
1076.836, 21.04621
1077.318, 21.10416
1077.800, 21.13793
1078.282, 21.46306
1078.764, 21.97382
1079.246, 22.25931
1079.729, 22.15377
1080.211, 22.03552
1080.693, 22.19990
1081.175, 22.35205
1081.657, 22.21772
1082.139, 21.79685
1082.621, 21.70711
1083.103, 21.95277
1083.585, 22.25028
1084.068, 22.51109
1084.550, 22.68526
1085.032, 22.62857
1085.514, 22.47556
1085.996, 22.48629
1086.478, 22.86805
1086.960, 22.96771
1087.442, 22.66181
1087.925, 22.39817
1088.407, 22.72145
1088.889, 23.32345
1089.371, 23.65391
1089.853, 23.71363
1090.335, 23.69400
1090.817, 23.26450
1091.299, 23.33217
1091.781, 24.29480
1092.264, 25.64813
1092.746, 26.45069
1093.228, 26.80618
1093.710, 27.17192
1094.192, 27.62274
1094.674, 28.12529
1095.156, 28.54489
1095.638, 29.11652
1096.120, 30.02646
1096.603, 31.22729
1097.085, 32.46713
1097.567, 33.74342
1098.049, 35.12403
1098.531, 36.67085
1099.013, 38.25883
1099.495, 39.91723
1099.977, 41.47942
1100.459, 42.73491
1100.942, 43.54413
1101.424, 44.36476
1101.906, 45.25023
1102.388, 45.98116
1102.870, 46.54358
1103.352, 46.79480
1103.834, 46.49481
1104.316, 45.65724
1104.799, 44.32946
1105.281, 42.07525
1105.763, 39.93781
1106.245, 38.08404
1106.727, 36.36415
1107.209, 34.60471
1107.691, 32.85818
1108.173, 31.50083
1108.656, 30.52101
1109.138, 29.60940
1109.620, 28.60277
1110.102, 27.59198
1110.584, 26.48038
1111.066, 25.44346
1111.548, 24.88478
1112.030, 24.79225
1112.512, 24.79571
1112.995, 24.85872
1113.477, 24.79477
1113.959, 24.22256
1114.441, 23.61971
1114.923, 23.51418
1115.405, 23.89529
1115.887, 23.75467
1116.369, 22.93162
1116.852, 22.52976
1117.334, 23.09259
1117.816, 23.93223
1118.298, 24.06524
1118.780, 23.90866
1119.262, 24.11286
1119.744, 25.04940
1120.226, 25.57100
1120.708, 25.47989
1121.191, 25.36977
1121.673, 25.58227
1122.155, 26.03027
1122.637, 26.57377
1123.119, 27.18020
1123.601, 27.75931
1124.083, 28.12675
1124.565, 28.69023
1125.047, 29.61869
1125.530, 30.60718
1126.012, 31.31350
1126.494, 31.82449
1126.976, 32.59944
1127.458, 33.64729
1127.940, 34.90600
1128.422, 36.40069
1128.904, 38.04238
1129.386, 39.89491
1129.869, 41.81047
1130.351, 43.46070
1130.833, 44.85688
1131.315, 46.68798
1131.797, 49.05208
1132.279, 51.67250
1132.761, 54.31055
1133.243, 57.13516
1133.726, 60.33414
1134.208, 63.83132
1134.690, 67.35880
1135.172, 70.92533
1135.654, 74.49255
1136.136, 78.01142
1136.618, 81.82532
1137.100, 86.39114
1137.583, 91.41432
1138.065, 96.58358
1138.547, 101.8151
1139.029, 107.3863
1139.511, 113.5039
1139.993, 119.2977
1140.475, 124.2778
1140.957, 128.9849
1141.439, 134.7494
1141.922, 140.7482
1142.404, 145.7601
1142.886, 149.6240
1143.368, 151.7582
1143.850, 151.9241
1144.332, 150.9693
1144.814, 149.5534
1145.296, 147.3244
1145.779, 143.1687
1146.261, 137.3940
1146.743, 130.7679
1147.225, 123.0565
1147.707, 115.3262
1148.189, 107.3972
1148.671, 99.76875
1149.153, 92.96701
1149.635, 86.86302
1150.118, 80.42587
1150.600, 73.79533
1151.082, 68.08584
1151.564, 63.58661
1152.046, 60.45318
1152.528, 59.81001
1153.010, 59.72752
1153.492, 57.32817
1153.974, 52.88181
1154.457, 49.32545
1154.939, 46.95079
1155.421, 44.92385
1155.903, 42.68412
1156.385, 40.63423
1156.867, 39.07871
1157.349, 37.87584
1157.831, 36.78312
1158.313, 35.79726
1158.796, 34.83924
1159.278, 33.87057
1159.760, 33.08983
1160.242, 32.98372
1160.724, 32.87468
1161.206, 32.02690
1161.688, 30.57710
1162.170, 29.73798
1162.653, 29.55734
1163.135, 29.43582
1163.617, 29.20385
1164.099, 28.98356
1164.581, 29.00324
1165.063, 29.03584
1165.545, 28.79587
1166.027, 28.22493
1166.510, 27.79087
1166.992, 27.51646
1167.474, 27.23584
1167.956, 26.86318
1168.438, 26.48469
1168.920, 26.36639
1169.402, 26.24274
1169.884, 25.65381
1170.366, 24.21455
1170.849, 23.34520
1171.331, 23.12174
1171.813, 23.22137
1172.295, 23.70683
1172.777, 24.16741
1173.259, 23.84815
1173.741, 23.01631
1174.223, 22.19794
1174.706, 21.30578
1175.188, 20.89782
1175.670, 21.14680
1176.152, 21.42749
1176.634, 21.12966
1177.116, 20.60518
1177.598, 20.65101
1178.080, 21.07302
1178.563, 21.26746
1179.045, 20.78460
1179.527, 20.44797
1180.009, 20.35106
1180.491, 20.34628
1180.973, 20.32753
1181.455, 20.27877
1181.937, 20.10854
1182.419, 19.85745
1182.901, 19.72532
1183.384, 19.85011
1183.866, 20.04654
1184.348, 20.36514
1184.830, 20.60336
1185.312, 20.41803
1185.794, 19.96915
1186.276, 19.69462
1186.758, 19.60807
1187.240, 19.48938
1187.723, 19.11180
1188.205, 18.89095
1188.687, 19.00944
1189.169, 19.21277
1189.651, 18.99077
1190.133, 18.51197
1190.615, 18.31221
1191.097, 18.46204
1191.580, 18.70580
1192.062, 19.05178
1192.544, 19.32150
1193.026, 19.45074
1193.508, 19.47908
1193.990, 19.53924
1194.472, 19.57417
1194.954, 19.30523
1195.437, 18.63017
1195.919, 18.14653
1196.401, 18.25345
1196.883, 18.47803
1197.365, 18.67148
1197.847, 18.80695
1198.329, 18.78924
1198.811, 18.64167
1199.293, 18.41793
1199.776, 18.07812
1200.258, 17.90997
1200.740, 18.24995
1201.222, 18.57618
1201.704, 18.57356
1202.186, 18.86821
1202.668, 18.56732
1203.150, 19.03987
1203.633, 19.28563
1204.115, 19.04188
1204.597, 18.85542
1205.079, 19.08069
1205.561, 19.33478
1206.043, 19.36811
1206.525, 19.52912
1207.007, 19.62420
1207.490, 19.58520
1207.972, 19.72813
1208.454, 19.55134
1208.936, 19.47654
1209.418, 19.86398
1209.900, 20.23867
1210.382, 20.20407
1210.864, 19.86739
1211.346, 20.10592
1211.828, 20.77654
1212.311, 21.16073
1212.793, 20.65437
1213.275, 20.24561
1213.757, 20.39434
1214.239, 20.68621
1214.721, 20.83929
1215.203, 20.86882
1215.685, 20.88228
1216.167, 20.88160
1216.650, 20.87739
1217.132, 20.92395
1217.614, 20.90044
1218.096, 20.70936
1218.578, 20.49757
1219.060, 20.38387
1219.542, 20.36263
1220.024, 20.40285
1220.507, 20.49798
1220.989, 20.61557
1221.471, 20.85000
1221.953, 20.95554
1222.435, 20.83680
1222.917, 20.60152
1223.399, 20.28117
1223.881, 19.92822
1224.364, 19.87247
1224.846, 20.07205
1225.328, 20.21303
1225.810, 20.05683
1226.292, 19.94274
1226.774, 20.00979
1227.256, 20.07767
1227.738, 19.85150
1228.220, 19.45189
1228.703, 19.34634
1229.185, 19.52047
1229.667, 19.69532
1230.149, 19.77604
1230.631, 19.79089
1231.113, 19.72565
1231.595, 19.63752
1232.077, 19.55451
1232.560, 19.51577
1233.042, 19.64903
1233.524, 19.95039
1234.006, 20.31658
1234.488, 21.00593
1234.970, 21.26770
1235.452, 20.78585
1235.934, 20.15311
1236.417, 20.24718
1236.899, 20.77137
1237.381, 21.10747
1237.863, 21.20663
1238.345, 21.17864
1238.827, 20.94122
1239.309, 20.74359
1239.791, 20.60232
1240.273, 20.56578
1240.755, 20.79964
1241.238, 21.14044
1241.720, 21.32624
1242.202, 21.32588
1242.684, 21.06423
1243.166, 20.24697
1243.648, 19.79072
1244.130, 19.94618
1244.612, 20.29549
1245.094, 20.30321
1245.577, 20.13905
1246.059, 20.06547
1246.541, 20.09533
1247.023, 20.04454
1247.505, 19.84818
1247.987, 19.70872
1248.469, 19.66552
1248.951, 19.70157
1249.434, 19.93803
1249.916, 20.14825
1250.398, 19.96824
1250.880, 19.40953
1251.362, 19.15223
1251.844, 19.30044
1252.326, 19.36372
1252.808, 19.21192
1253.291, 19.04663
1253.773, 19.03498
1254.255, 19.15699
1254.737, 19.49612
1255.219, 19.99672
1255.701, 20.17866
1256.183, 20.01466
1256.665, 19.72378
1257.147, 19.31364
1257.630, 19.03020
1258.112, 19.28557
1258.594, 19.61520
1259.076, 19.57083
1259.558, 19.24360
1260.040, 19.04899
1260.522, 18.98723
1261.004, 18.95091
1261.487, 18.90424
1261.969, 18.96610
1262.451, 19.47026
1262.933, 19.86810
1263.415, 19.72015
1263.897, 19.20855
1264.379, 18.88278
1264.861, 18.73903
1265.344, 18.80683
1265.826, 19.12089
1266.308, 19.40756
1266.790, 19.52210
1267.272, 19.54180
1267.754, 19.48910
1268.236, 19.39437
1268.718, 19.33252
1269.200, 19.29686
1269.682, 19.26553
1270.165, 19.23448
1270.647, 19.20367
1271.129, 19.15273
1271.611, 19.12494
1272.093, 19.11593
1272.575, 19.16249
1273.057, 19.42912
1273.539, 19.78631
1274.021, 19.92719
1274.504, 19.78680
1274.986, 19.61422
1275.468, 19.47412
1275.950, 19.24242
1276.432, 18.78568
1276.914, 18.42468
1277.396, 18.95979
1277.878, 19.76852
1278.361, 19.78118
1278.843, 18.81060
1279.325, 18.30271
1279.807, 18.42937
1280.289, 18.66890
1280.771, 18.92533
1281.253, 19.09207
1281.735, 18.98185
1282.218, 18.75580
1282.700, 18.55007
1283.182, 18.38829
1283.664, 18.41659
1284.146, 18.66101
1284.628, 18.77176
1285.110, 18.63408
1285.592, 18.48398
1286.074, 18.64703
1286.557, 18.77637
1287.039, 18.48122
1287.521, 18.53987
1288.003, 18.43379
1288.485, 18.15069
1288.967, 18.15439
1289.449, 17.64468
1289.931, 17.26856
1290.414, 17.61298
1290.896, 17.99178
1291.378, 18.07255
1291.860, 17.94948
1292.342, 17.83638
1292.824, 17.72387
1293.306, 17.51982
1293.788, 17.19059
1294.271, 17.08953
1294.753, 17.69690
1295.235, 18.09131
1295.717, 17.97588
1296.199, 17.61434
1296.681, 17.46211
1297.163, 17.39060
1297.645, 17.08504
1298.127, 16.50869
1298.609, 16.30737
1299.092, 16.71935
1299.574, 16.99967
1300.056, 16.96538
1300.538, 16.78815
1301.020, 16.62872
1301.502, 16.47787
1301.984, 16.29356
1302.466, 16.09660
1302.948, 16.07882
1303.431, 16.27668
1303.913, 16.39670
1304.395, 16.39251
##END=



