##NAMES=Barysilite
##RRUFFID=R050002
##IDEAL CHEMISTRY=Pb^2+^_8_Mn^2+^(Si_2_O_7_)_3_
##LOCALITY=Franklin, Sussex County, New Jersey, USA
##OWNER=RRUFF
##SOURCE=University of Arizona Mineral Museum
##DESCRIPTION=A lamellar aggregate of platy crystals
##STATUS=The identification of this mineral has been confirmed by X-ray diffraction and chemical analysis
##URL=rruff.info/R050002
##MEASURED CHEMISTRY=Pb_8.00_Mn_1.00_(Si_2.00_O_7_)_3_
134.7162, 2870.460
135.1983, 2976.354
135.6804, 3071.367
136.1626, 3152.912
136.6447, 3225.623
137.1268, 3297.637
137.6089, 3368.817
138.0910, 3437.870
138.5731, 3502.480
139.0553, 3563.023
139.5374, 3621.269
140.0195, 3677.876
140.5016, 3732.055
140.9837, 3776.565
141.4658, 3804.820
141.9480, 3834.452
142.4301, 3879.681
142.9122, 3953.984
143.3943, 4014.659
143.8764, 4053.133
144.3585, 4069.633
144.8407, 4091.787
145.3228, 4124.304
145.8049, 4158.753
146.2870, 4186.811
146.7691, 4202.527
147.2512, 4219.229
147.7334, 4240.046
148.2155, 4266.996
148.6976, 4289.765
149.1797, 4301.611
149.6618, 4311.275
150.1439, 4330.124
150.6261, 4366.636
151.1082, 4404.510
151.5903, 4438.519
152.0724, 4463.662
152.5545, 4495.723
153.0366, 4543.498
153.5188, 4598.529
154.0009, 4644.002
154.4830, 4666.844
154.9651, 4688.044
155.4472, 4716.439
155.9293, 4749.855
156.4115, 4795.274
156.8936, 4864.054
157.3757, 4948.617
157.8578, 5023.712
158.3399, 5065.936
158.8221, 5105.525
159.3042, 5162.582
159.7863, 5247.578
160.2684, 5345.119
160.7505, 5455.276
161.2326, 5577.229
161.7148, 5696.851
162.1969, 5797.095
162.6790, 5897.063
163.1611, 6013.823
163.6432, 6151.586
164.1253, 6309.708
164.6075, 6490.375
165.0896, 6693.757
165.5717, 6910.604
166.0538, 7143.232
166.5359, 7385.019
167.0180, 7626.838
167.5002, 7852.666
167.9823, 8086.766
168.4644, 8347.552
168.9465, 8637.289
169.4286, 8947.327
169.9107, 9281.882
170.3929, 9631.124
170.8750, 9983.258
171.3571, 10310.43
171.8392, 10642.65
172.3213, 11017.18
172.8034, 11442.81
173.2856, 11884.15
173.7677, 12309.19
174.2498, 12723.54
174.7319, 13138.39
175.2140, 13553.81
175.6961, 13976.00
176.1783, 14415.48
176.6604, 14874.28
177.1425, 15341.32
177.6246, 15815.13
178.1067, 16287.70
178.5888, 16739.01
179.0710, 17140.67
179.5531, 17503.67
180.0352, 17847.25
180.5173, 18181.02
180.9994, 18488.47
181.4815, 18740.73
181.9637, 18939.84
182.4458, 19080.96
182.9279, 19167.29
183.4100, 19195.11
183.8921, 19153.27
184.3742, 19038.65
184.8564, 18852.19
185.3385, 18592.39
185.8206, 18255.05
186.3027, 17868.14
186.7848, 17441.73
187.2669, 16980.55
187.7491, 16507.86
188.2312, 16035.42
188.7133, 15560.03
189.1954, 15050.45
189.6775, 14503.05
190.1596, 13951.81
190.6418, 13425.04
191.1239, 12925.12
191.6060, 12450.64
192.0881, 12000.44
192.5702, 11574.85
193.0524, 11177.36
193.5345, 10810.25
194.0166, 10467.67
194.4987, 10151.84
194.9808, 9863.881
195.4629, 9584.776
195.9451, 9301.619
196.4272, 9011.515
196.9093, 8764.595
197.3914, 8570.224
197.8735, 8406.735
198.3556, 8233.726
198.8378, 8049.719
199.3199, 7869.453
199.8020, 7699.489
200.2841, 7540.949
200.7662, 7399.652
201.2483, 7279.877
201.7305, 7173.993
202.2126, 7059.419
202.6947, 6930.435
203.1768, 6814.135
203.6589, 6734.651
204.1410, 6700.454
204.6232, 6645.914
205.1053, 6557.766
205.5874, 6448.876
206.0695, 6364.163
206.5516, 6310.492
207.0337, 6262.968
207.5159, 6202.250
207.9980, 6124.861
208.4801, 6056.195
208.9622, 5999.871
209.4443, 5954.673
209.9264, 5916.229
210.4086, 5887.643
210.8907, 5859.436
211.3728, 5824.191
211.8549, 5779.476
212.3370, 5734.734
212.8191, 5689.813
213.3013, 5645.603
213.7834, 5606.733
214.2655, 5574.876
214.7476, 5545.545
215.2297, 5515.843
215.7118, 5486.288
216.1940, 5453.314
216.6761, 5412.295
217.1582, 5364.130
217.6403, 5335.919
218.1224, 5337.359
218.6045, 5346.208
219.0867, 5340.012
219.5688, 5311.184
220.0509, 5285.354
220.5330, 5268.922
221.0151, 5261.884
221.4972, 5253.735
221.9794, 5243.525
222.4615, 5233.190
222.9436, 5224.521
223.4257, 5217.328
223.9078, 5212.175
224.3899, 5209.437
224.8721, 5209.188
225.3542, 5209.446
225.8363, 5208.271
226.3184, 5209.427
226.8005, 5218.423
227.2827, 5240.302
227.7648, 5260.383
228.2469, 5275.551
228.7290, 5285.779
229.2111, 5289.913
229.6932, 5281.546
230.1754, 5272.218
230.6575, 5279.584
231.1396, 5318.688
231.6217, 5347.242
232.1038, 5347.710
232.5859, 5310.004
233.0681, 5300.863
233.5502, 5337.004
234.0323, 5389.625
234.5144, 5415.546
234.9965, 5397.021
235.4786, 5381.390
235.9608, 5383.423
236.4429, 5406.722
236.9250, 5431.193
237.4071, 5459.861
237.8892, 5487.629
238.3713, 5505.631
238.8535, 5508.272
239.3356, 5510.508
239.8177, 5517.403
240.2998, 5530.748
240.7819, 5542.210
241.2640, 5553.136
241.7462, 5561.582
242.2283, 5562.634
242.7104, 5547.272
243.1925, 5539.563
243.6746, 5551.053
244.1567, 5592.604
244.6389, 5615.263
245.1210, 5610.716
245.6031, 5592.277
246.0852, 5583.015
246.5673, 5585.278
247.0494, 5592.750
247.5316, 5603.529
248.0137, 5617.854
248.4958, 5635.081
248.9779, 5656.608
249.4600, 5680.173
249.9421, 5701.385
250.4243, 5720.901
250.9064, 5737.114
251.3885, 5748.091
251.8706, 5750.381
252.3527, 5760.873
252.8348, 5788.164
253.3170, 5818.348
253.7991, 5821.922
254.2812, 5784.715
254.7633, 5748.056
255.2454, 5729.184
255.7275, 5735.574
256.2097, 5733.083
256.6918, 5722.188
257.1739, 5702.150
257.6560, 5671.289
258.1381, 5629.002
258.6202, 5576.694
259.1024, 5510.236
259.5845, 5422.998
260.0666, 5353.208
260.5487, 5307.880
261.0308, 5274.829
261.5129, 5230.543
261.9951, 5174.673
262.4772, 5109.144
262.9593, 5031.950
263.4414, 4937.355
263.9235, 4855.824
264.4056, 4789.072
264.8878, 4732.895
265.3699, 4680.127
265.8520, 4632.814
266.3341, 4581.612
266.8162, 4516.979
267.2983, 4433.604
267.7805, 4377.762
268.2626, 4360.356
268.7447, 4358.932
269.2268, 4332.509
269.7089, 4273.811
270.1910, 4216.362
270.6732, 4172.933
271.1553, 4145.078
271.6374, 4118.747
272.1195, 4094.373
272.6016, 4070.834
273.0837, 4047.066
273.5659, 4022.802
274.0480, 3999.125
274.5301, 3975.919
275.0122, 3953.244
275.4943, 3932.432
275.9764, 3913.453
276.4586, 3896.393
276.9407, 3883.084
277.4228, 3874.613
277.9049, 3861.935
278.3870, 3837.527
278.8691, 3802.431
279.3513, 3782.751
279.8334, 3781.846
280.3155, 3787.727
280.7976, 3785.428
281.2798, 3774.832
281.7619, 3759.273
282.2440, 3736.002
282.7261, 3707.176
283.2082, 3690.628
283.6903, 3688.107
284.1725, 3691.433
284.6546, 3691.937
285.1367, 3689.631
285.6188, 3684.685
286.1009, 3674.305
286.5830, 3661.056
287.0652, 3659.737
287.5473, 3672.757
288.0294, 3683.426
288.5115, 3665.453
288.9936, 3623.248
289.4757, 3594.700
289.9579, 3603.442
290.4400, 3632.100
290.9221, 3626.690
291.4042, 3584.665
291.8863, 3540.383
292.3684, 3532.405
292.8506, 3553.347
293.3327, 3570.922
293.8148, 3573.896
294.2969, 3567.976
294.7790, 3563.397
295.2611, 3560.148
295.7433, 3557.859
296.2254, 3556.785
296.7075, 3556.441
297.1896, 3555.340
297.6717, 3551.778
298.1538, 3548.309
298.6360, 3549.559
299.1181, 3555.207
299.6002, 3561.281
300.0823, 3565.985
300.5644, 3568.864
301.0465, 3568.611
301.5287, 3562.465
302.0108, 3556.094
302.4929, 3555.225
302.9750, 3559.644
303.4571, 3568.140
303.9392, 3585.021
304.4214, 3603.985
304.9035, 3616.349
305.3856, 3617.279
305.8677, 3615.091
306.3498, 3612.747
306.8319, 3612.065
307.3141, 3619.590
307.7962, 3655.380
308.2783, 3693.620
308.7604, 3704.268
309.2425, 3665.686
309.7246, 3632.681
310.2068, 3648.982
310.6889, 3699.336
311.1710, 3744.148
311.6531, 3761.476
312.1352, 3767.742
312.6173, 3773.202
313.0995, 3777.617
313.5816, 3786.675
314.0637, 3806.877
314.5458, 3833.420
315.0279, 3857.397
315.5100, 3867.504
315.9922, 3880.095
316.4743, 3905.677
316.9564, 3948.793
317.4385, 3991.034
317.9206, 4032.399
318.4027, 4067.885
318.8849, 4090.504
319.3670, 4076.043
319.8491, 4068.033
320.3312, 4087.346
320.8133, 4141.348
321.2954, 4187.213
321.7776, 4214.361
322.2597, 4230.542
322.7418, 4244.016
323.2239, 4256.630
323.7060, 4265.981
324.1881, 4270.549
324.6703, 4269.906
325.1524, 4269.595
325.6345, 4274.117
326.1166, 4276.918
326.5987, 4272.673
327.0808, 4251.182
327.5630, 4234.689
328.0451, 4228.695
328.5272, 4232.471
329.0093, 4229.669
329.4914, 4212.864
329.9735, 4196.288
330.4557, 4190.084
330.9378, 4204.448
331.4199, 4211.244
331.9020, 4206.063
332.3841, 4191.293
332.8662, 4178.601
333.3484, 4169.513
333.8305, 4160.376
334.3126, 4148.531
334.7947, 4132.235
335.2768, 4119.651
335.7589, 4114.022
336.2411, 4110.780
336.7232, 4095.403
337.2053, 4062.045
337.6874, 4033.981
338.1695, 4027.200
338.6516, 4046.177
339.1338, 4046.013
339.6159, 4021.421
340.0980, 3984.719
340.5801, 3956.204
341.0622, 3936.075
341.5443, 3919.436
342.0265, 3905.287
342.5086, 3893.290
342.9907, 3877.612
343.4728, 3857.085
343.9549, 3837.982
344.4370, 3831.925
344.9192, 3837.178
345.4013, 3836.126
345.8834, 3815.983
346.3655, 3786.967
346.8476, 3780.622
347.3297, 3797.651
347.8119, 3816.998
348.2940, 3815.234
348.7761, 3799.353
349.2582, 3790.957
349.7403, 3800.491
350.2225, 3815.682
350.7046, 3816.577
351.1867, 3805.107
351.6688, 3796.115
352.1509, 3803.668
352.6331, 3819.655
353.1152, 3830.774
353.5973, 3830.057
354.0794, 3831.376
354.5615, 3854.176
355.0436, 3890.719
355.5258, 3917.465
356.0079, 3906.457
356.4900, 3888.321
356.9721, 3891.984
357.4542, 3927.568
357.9363, 3965.676
358.4185, 3992.474
358.9006, 4010.372
359.3827, 4023.538
359.8648, 4028.643
360.3469, 4033.363
360.8290, 4043.370
361.3112, 4060.550
361.7933, 4072.704
362.2754, 4068.820
362.7575, 4060.683
363.2396, 4061.103
363.7217, 4078.082
364.2039, 4098.778
364.6860, 4123.907
365.1681, 4153.510
365.6502, 4172.691
366.1323, 4167.856
366.6144, 4159.456
367.0966, 4161.653
367.5787, 4187.406
368.0608, 4208.379
368.5429, 4221.397
369.0250, 4227.839
369.5071, 4234.169
369.9893, 4237.917
370.4714, 4244.358
370.9535, 4256.804
371.4356, 4279.429
371.9177, 4298.254
372.3998, 4312.555
372.8820, 4323.288
373.3641, 4333.005
373.8462, 4343.291
374.3283, 4348.299
374.8104, 4342.574
375.2925, 4324.226
375.7747, 4317.883
376.2568, 4325.900
376.7389, 4341.129
377.2210, 4357.104
377.7031, 4374.503
378.1852, 4381.967
378.6674, 4369.947
379.1495, 4345.546
379.6316, 4341.721
380.1137, 4360.294
380.5958, 4383.223
381.0779, 4395.362
381.5601, 4397.794
382.0422, 4394.562
382.5243, 4384.557
383.0064, 4371.944
383.4885, 4364.375
383.9706, 4361.082
384.4528, 4356.946
384.9349, 4346.279
385.4170, 4333.001
385.8991, 4323.745
386.3812, 4320.167
386.8633, 4318.193
387.3455, 4318.113
387.8276, 4316.952
388.3097, 4307.781
388.7918, 4278.053
389.2739, 4244.748
389.7560, 4221.994
390.2382, 4211.511
390.7203, 4203.845
391.2024, 4197.064
391.6845, 4189.272
392.1666, 4178.166
392.6487, 4160.234
393.1309, 4141.447
393.6130, 4125.817
394.0951, 4112.695
394.5772, 4094.944
395.0593, 4062.798
395.5414, 4030.452
396.0236, 4007.114
396.5057, 4005.718
396.9878, 3999.441
397.4699, 3980.792
397.9520, 3954.862
398.4341, 3937.720
398.9163, 3932.047
399.3984, 3932.519
399.8805, 3939.627
400.3626, 3960.346
400.8447, 3966.430
401.3268, 3952.688
401.8090, 3928.124
402.2911, 3902.416
402.7732, 3870.260
403.2553, 3852.237
403.7374, 3859.440
404.2195, 3889.735
404.7017, 3902.168
405.1838, 3892.119
405.6659, 3876.655
406.1480, 3872.965
406.6301, 3881.287
407.1122, 3882.627
407.5944, 3869.831
408.0765, 3851.964
408.5586, 3853.251
409.0407, 3873.337
409.5228, 3894.774
410.0049, 3903.366
410.4871, 3904.173
410.9692, 3912.567
411.4513, 3931.422
411.9334, 3952.672
412.4155, 3967.989
412.8976, 3978.594
413.3798, 3987.521
413.8619, 3993.037
414.3440, 3999.587
414.8261, 4015.136
415.3082, 4039.761
415.7903, 4059.281
416.2725, 4054.795
416.7546, 4043.837
417.2367, 4046.498
417.7188, 4080.290
418.2009, 4116.559
418.6830, 4139.808
419.1652, 4154.091
419.6473, 4173.357
420.1294, 4209.877
420.6115, 4247.188
421.0937, 4275.679
421.5758, 4286.446
422.0579, 4303.726
422.5400, 4332.398
423.0221, 4369.081
423.5042, 4409.070
423.9864, 4459.942
424.4685, 4504.852
424.9506, 4538.209
425.4327, 4558.237
425.9148, 4583.817
426.3969, 4615.022
426.8791, 4651.657
427.3612, 4695.101
427.8433, 4749.663
428.3254, 4797.014
428.8075, 4833.563
429.2896, 4861.383
429.7718, 4884.487
430.2539, 4901.184
430.7360, 4922.128
431.2181, 4957.482
431.7002, 5005.708
432.1823, 5043.535
432.6645, 5068.649
433.1466, 5087.330
433.6287, 5108.344
434.1108, 5130.548
434.5929, 5148.098
435.0750, 5154.835
435.5572, 5156.844
436.0393, 5169.248
436.5214, 5191.165
437.0035, 5203.964
437.4856, 5185.607
437.9677, 5151.204
438.4499, 5122.258
438.9320, 5107.845
439.4141, 5093.981
439.8962, 5071.362
440.3783, 5041.690
440.8604, 5008.674
441.3426, 4971.263
441.8247, 4933.451
442.3068, 4897.972
442.7889, 4865.817
443.2710, 4832.639
443.7531, 4797.592
444.2353, 4760.896
444.7174, 4722.175
445.1995, 4671.333
445.6816, 4630.076
446.1637, 4607.560
446.6458, 4601.545
447.1280, 4585.249
447.6101, 4548.192
448.0922, 4512.310
448.5743, 4491.448
449.0564, 4494.261
449.5385, 4487.896
450.0207, 4468.360
450.5028, 4442.207
450.9849, 4422.720
451.4670, 4411.867
451.9491, 4398.279
452.4312, 4373.647
452.9134, 4341.031
453.3955, 4326.494
453.8776, 4332.166
454.3597, 4340.891
454.8418, 4335.353
455.3239, 4318.346
455.8061, 4301.149
456.2882, 4284.820
456.7703, 4271.445
457.2524, 4261.981
457.7345, 4257.324
458.2166, 4261.125
458.6988, 4284.144
459.1809, 4312.491
459.6630, 4331.029
460.1451, 4337.864
460.6272, 4338.796
461.1093, 4329.235
461.5915, 4318.439
462.0736, 4318.180
462.5557, 4341.566
463.0378, 4367.082
463.5199, 4387.916
464.0020, 4404.098
464.4842, 4417.775
464.9663, 4424.840
465.4484, 4432.706
465.9305, 4445.547
466.4126, 4467.604
466.8947, 4487.504
467.3769, 4501.672
467.8590, 4515.155
468.3411, 4536.301
468.8232, 4565.687
469.3053, 4602.000
469.7874, 4647.800
470.2696, 4702.222
470.7517, 4747.566
471.2338, 4780.648
471.7159, 4814.065
472.1980, 4858.522
472.6801, 4914.043
473.1623, 4972.274
473.6444, 5033.236
474.1265, 5094.867
474.6086, 5151.069
475.0907, 5203.316
475.5728, 5261.140
476.0550, 5341.221
476.5371, 5426.315
477.0192, 5482.654
477.5013, 5509.071
477.9834, 5533.961
478.4655, 5574.747
478.9477, 5628.775
479.4298, 5692.965
479.9119, 5779.786
480.3940, 5860.641
480.8761, 5921.011
481.3582, 5963.432
481.8404, 5994.188
482.3225, 6002.125
482.8046, 6009.700
483.2867, 6026.978
483.7688, 6056.065
484.2509, 6090.518
484.7331, 6135.718
485.2152, 6182.879
485.6973, 6223.717
486.1794, 6247.044
486.6615, 6283.221
487.1436, 6336.609
487.6258, 6406.219
488.1079, 6489.714
488.5900, 6590.291
489.0721, 6694.702
489.5542, 6790.860
490.0363, 6878.881
490.5185, 6991.140
491.0006, 7130.939
491.4827, 7283.602
491.9648, 7422.704
492.4470, 7553.623
492.9291, 7704.779
493.4112, 7887.385
493.8933, 8090.745
494.3754, 8295.016
494.8575, 8502.544
495.3397, 8715.717
495.8218, 8950.704
496.3039, 9188.893
496.7860, 9401.697
497.2681, 9579.019
497.7502, 9767.515
498.2324, 10012.24
498.7145, 10278.59
499.1966, 10524.27
499.6787, 10705.25
500.1608, 10892.83
500.6429, 11123.06
501.1251, 11391.49
501.6072, 11620.54
502.0893, 11792.95
502.5714, 11938.60
503.0535, 12071.88
503.5356, 12197.64
504.0178, 12298.83
504.4999, 12373.69
504.9820, 12424.48
505.4641, 12457.67
505.9462, 12475.66
506.4283, 12464.25
506.9105, 12420.55
507.3926, 12343.95
507.8747, 12229.69
508.3568, 12076.56
508.8389, 11896.78
509.3210, 11686.13
509.8032, 11453.29
510.2853, 11223.82
510.7674, 11005.05
511.2495, 10771.77
511.7316, 10488.59
512.2137, 10171.03
512.6959, 9855.567
513.1780, 9531.805
513.6601, 9232.978
514.1422, 9002.084
514.6243, 8827.134
515.1064, 8626.354
515.5886, 8329.628
516.0707, 8022.856
516.5528, 7761.450
517.0349, 7564.178
517.5170, 7382.599
517.9991, 7222.559
518.4813, 7073.104
518.9634, 6919.929
519.4455, 6748.339
519.9276, 6598.807
520.4097, 6482.980
520.8918, 6398.048
521.3740, 6314.850
521.8561, 6235.574
522.3382, 6150.776
522.8203, 6044.588
523.3024, 5920.596
523.7845, 5829.043
524.2667, 5776.428
524.7488, 5740.549
525.2309, 5692.804
525.7130, 5637.162
526.1951, 5588.482
526.6772, 5553.141
527.1594, 5525.347
527.6415, 5500.373
528.1236, 5477.958
528.6057, 5456.331
529.0878, 5437.958
529.5699, 5417.929
530.0521, 5390.460
530.5342, 5351.276
531.0163, 5319.759
531.4984, 5303.125
531.9805, 5296.542
532.4626, 5294.741
532.9448, 5315.615
533.4269, 5318.516
533.9090, 5291.418
534.3911, 5242.242
534.8732, 5202.718
535.3553, 5175.006
535.8375, 5152.145
536.3196, 5132.034
536.8017, 5114.500
537.2838, 5098.494
537.7659, 5084.554
538.2480, 5069.854
538.7302, 5053.267
539.2123, 5033.931
539.6944, 5005.459
540.1765, 4962.616
540.6586, 4917.109
541.1407, 4885.008
541.6229, 4863.724
542.1050, 4843.384
542.5871, 4815.212
543.0692, 4787.849
543.5513, 4771.470
544.0334, 4766.616
544.5156, 4760.017
544.9977, 4744.705
545.4798, 4725.528
545.9619, 4705.666
546.4440, 4674.818
546.9261, 4659.524
547.4083, 4677.175
547.8904, 4710.036
548.3725, 4725.116
548.8546, 4708.857
549.3367, 4697.878
549.8188, 4705.971
550.3010, 4729.988
550.7831, 4729.465
551.2652, 4697.723
551.7473, 4663.635
552.2294, 4651.250
552.7115, 4657.723
553.1937, 4653.962
553.6758, 4636.133
554.1579, 4614.441
554.6400, 4600.822
555.1221, 4593.487
555.6042, 4587.607
556.0864, 4582.019
556.5685, 4576.443
557.0506, 4571.344
557.5327, 4566.262
558.0148, 4559.536
558.4969, 4547.613
558.9791, 4535.831
559.4612, 4528.178
559.9433, 4526.160
560.4254, 4522.647
560.9075, 4517.459
561.3896, 4509.542
561.8718, 4497.488
562.3539, 4474.080
562.8360, 4459.417
563.3181, 4459.317
563.8002, 4466.903
564.2823, 4465.118
564.7645, 4452.318
565.2466, 4437.496
565.7287, 4423.496
566.2108, 4410.389
566.6929, 4398.697
567.1750, 4388.506
567.6572, 4379.938
568.1393, 4370.023
568.6214, 4362.468
569.1035, 4368.951
569.5856, 4396.061
570.0677, 4417.769
570.5499, 4403.076
571.0320, 4370.820
571.5141, 4350.745
571.9962, 4372.613
572.4783, 4389.933
572.9604, 4376.401
573.4426, 4339.240
573.9247, 4316.410
574.4068, 4327.973
574.8889, 4342.512
575.3710, 4348.183
575.8531, 4343.183
576.3353, 4337.898
576.8174, 4330.239
577.2995, 4325.475
577.7816, 4330.018
578.2637, 4344.845
578.7458, 4359.105
579.2280, 4372.419
579.7101, 4382.323
580.1922, 4381.109
580.6743, 4370.972
581.1564, 4364.296
581.6385, 4371.145
582.1207, 4382.376
582.6028, 4385.974
583.0849, 4382.566
583.5670, 4377.369
584.0491, 4373.595
584.5313, 4369.163
585.0134, 4362.215
585.4955, 4351.813
585.9776, 4341.149
586.4597, 4323.708
586.9418, 4309.625
587.4240, 4311.411
587.9061, 4346.508
588.3882, 4370.026
588.8703, 4372.641
589.3524, 4361.847
589.8345, 4360.142
590.3167, 4369.698
590.7988, 4380.157
591.2809, 4387.987
591.7630, 4393.082
592.2451, 4395.259
592.7272, 4394.642
593.2094, 4388.088
593.6915, 4363.139
594.1736, 4332.385
594.6557, 4323.642
595.1378, 4346.637
595.6199, 4369.895
596.1021, 4366.017
596.5842, 4348.533
597.0663, 4336.688
597.5485, 4339.313
598.0306, 4346.224
598.5127, 4356.329
598.9948, 4368.651
599.4769, 4379.434
599.9590, 4391.969
600.4412, 4398.801
600.9233, 4394.808
601.4054, 4378.667
601.8875, 4373.771
602.3696, 4383.933
602.8517, 4396.083
603.3339, 4397.660
603.8160, 4389.690
604.2981, 4385.047
604.7802, 4385.085
605.2623, 4389.114
605.7444, 4399.536
606.2266, 4413.526
606.7087, 4423.220
607.1908, 4427.734
607.6729, 4425.048
608.1550, 4404.789
608.6371, 4374.472
609.1193, 4357.826
609.6014, 4374.599
610.0835, 4398.737
610.5656, 4420.504
611.0477, 4440.075
611.5298, 4449.853
612.0120, 4445.756
612.4941, 4435.814
612.9762, 4423.480
613.4583, 4405.351
613.9404, 4397.979
614.4225, 4404.283
614.9047, 4417.666
615.3868, 4429.566
615.8689, 4440.186
616.3510, 4451.225
616.8331, 4464.724
617.3152, 4476.875
617.7974, 4482.787
618.2795, 4482.479
618.7616, 4476.493
619.2437, 4457.312
619.7258, 4438.412
620.2079, 4430.140
620.6901, 4433.083
621.1722, 4439.400
621.6543, 4451.758
622.1364, 4462.858
622.6185, 4467.015
623.1006, 4458.056
623.5828, 4455.995
624.0649, 4466.275
624.5470, 4478.462
625.0291, 4477.897
625.5112, 4460.911
625.9933, 4451.372
626.4755, 4455.237
626.9576, 4466.687
627.4397, 4473.813
627.9218, 4477.262
628.4039, 4481.958
628.8860, 4492.300
629.3682, 4504.285
629.8503, 4514.413
630.3324, 4522.142
630.8145, 4523.202
631.2966, 4505.710
631.7787, 4487.194
632.2609, 4481.054
632.7430, 4492.058
633.2251, 4503.351
633.7072, 4513.512
634.1893, 4521.451
634.6714, 4526.677
635.1536, 4530.874
635.6357, 4527.521
636.1178, 4512.208
636.5999, 4493.327
637.0820, 4486.161
637.5641, 4491.024
638.0463, 4502.495
638.5284, 4524.044
639.0105, 4546.635
639.4926, 4550.088
639.9747, 4536.968
640.4568, 4522.239
640.9390, 4506.632
641.4211, 4498.919
641.9032, 4515.800
642.3853, 4558.238
642.8674, 4584.076
643.3495, 4554.388
643.8317, 4516.939
644.3138, 4505.630
644.7959, 4542.825
645.2780, 4571.245
645.7601, 4590.721
646.2422, 4601.549
646.7244, 4603.503
647.2065, 4595.802
647.6886, 4581.683
648.1707, 4558.103
648.6528, 4533.645
649.1349, 4526.570
649.6171, 4535.257
650.0992, 4547.813
650.5813, 4563.304
651.0634, 4576.768
651.5455, 4578.472
652.0276, 4571.016
652.5098, 4568.302
652.9919, 4580.351
653.4740, 4597.426
653.9561, 4615.800
654.4382, 4636.708
654.9203, 4648.689
655.4025, 4647.166
655.8846, 4638.953
656.3667, 4627.454
656.8488, 4610.228
657.3309, 4596.054
657.8130, 4583.295
658.2952, 4576.945
658.7773, 4588.302
659.2594, 4615.691
659.7415, 4637.819
660.2236, 4648.494
660.7057, 4652.485
661.1879, 4656.144
661.6700, 4658.636
662.1521, 4657.549
662.6342, 4642.617
663.1163, 4631.597
663.5984, 4639.965
664.0806, 4665.071
664.5627, 4683.752
665.0448, 4686.577
665.5269, 4684.805
666.0090, 4682.148
666.4911, 4677.977
666.9733, 4677.572
667.4554, 4680.714
667.9375, 4688.057
668.4196, 4701.613
668.9017, 4721.200
669.3839, 4740.224
669.8660, 4758.839
670.3481, 4773.089
670.8302, 4771.092
671.3123, 4761.762
671.7944, 4766.019
672.2766, 4800.954
672.7587, 4833.723
673.2408, 4836.400
673.7229, 4822.353
674.2050, 4817.831
674.6871, 4846.448
675.1693, 4867.667
675.6514, 4867.804
676.1335, 4850.744
676.6156, 4834.617
677.0977, 4815.627
677.5798, 4806.524
678.0620, 4817.137
678.5441, 4844.713
679.0262, 4857.811
679.5083, 4855.324
679.9904, 4858.394
680.4725, 4895.577
680.9547, 4946.332
681.4368, 4972.476
681.9189, 4967.458
682.4010, 4956.489
682.8831, 4957.082
683.3652, 4959.954
683.8474, 4955.434
684.3295, 4934.927
684.8116, 4917.180
685.2937, 4906.183
685.7758, 4898.792
686.2579, 4891.024
686.7401, 4881.668
687.2222, 4875.505
687.7043, 4874.188
688.1864, 4875.869
688.6685, 4875.829
689.1506, 4874.247
689.6328, 4873.947
690.1149, 4875.216
690.5970, 4879.152
691.0791, 4886.609
691.5612, 4897.964
692.0433, 4914.676
692.5255, 4942.794
693.0076, 4972.654
693.4897, 4995.365
693.9718, 5008.866
694.4539, 5034.142
694.9360, 5089.546
695.4182, 5142.870
695.9003, 5175.958
696.3824, 5182.174
696.8645, 5193.549
697.3466, 5209.739
697.8287, 5231.993
698.3109, 5268.640
698.7930, 5314.860
699.2751, 5341.066
699.7572, 5336.451
700.2393, 5331.021
700.7214, 5362.984
701.2036, 5414.137
701.6857, 5453.966
702.1678, 5459.344
702.6499, 5465.887
703.1320, 5493.221
703.6141, 5531.324
704.0963, 5554.479
704.5784, 5549.944
705.0605, 5549.308
705.5426, 5565.050
706.0247, 5589.407
706.5068, 5584.448
706.9890, 5547.231
707.4711, 5505.486
707.9532, 5475.209
708.4353, 5450.643
708.9174, 5416.495
709.3995, 5373.558
709.8817, 5330.727
710.3638, 5302.336
710.8459, 5271.739
711.3280, 5219.286
711.8101, 5138.734
712.2922, 5071.856
712.7744, 5039.566
713.2565, 5017.893
713.7386, 4989.689
714.2207, 4950.210
714.7028, 4915.695
715.1849, 4884.563
715.6671, 4860.594
716.1492, 4848.459
716.6313, 4847.636
717.1134, 4852.549
717.5955, 4864.605
718.0776, 4874.440
718.5598, 4868.792
719.0419, 4852.699
719.5240, 4835.841
720.0061, 4819.204
720.4882, 4805.404
720.9703, 4792.340
721.4525, 4783.094
721.9346, 4784.823
722.4167, 4816.532
722.8988, 4835.291
723.3809, 4828.766
723.8630, 4803.796
724.3452, 4786.080
724.8273, 4775.407
725.3094, 4773.871
725.7915, 4787.023
726.2736, 4808.482
726.7557, 4822.073
727.2379, 4828.396
727.7200, 4832.187
728.2021, 4840.332
728.6842, 4844.546
729.1663, 4834.457
729.6484, 4808.750
730.1306, 4788.980
730.6127, 4779.211
731.0948, 4779.259
731.5769, 4790.793
732.0590, 4819.286
732.5411, 4836.138
733.0233, 4838.924
733.5054, 4835.518
733.9875, 4832.020
734.4696, 4828.466
734.9517, 4825.463
735.4338, 4823.224
735.9160, 4820.550
736.3981, 4812.841
736.8802, 4804.974
737.3623, 4804.813
737.8444, 4818.683
738.3266, 4832.296
738.8087, 4841.346
739.2908, 4846.602
739.7729, 4849.367
740.2551, 4853.625
740.7372, 4847.409
741.2193, 4822.735
741.7014, 4792.413
742.1835, 4787.374
742.6656, 4807.973
743.1478, 4823.075
743.6299, 4818.926
744.1120, 4808.714
744.5941, 4815.899
745.0762, 4834.996
745.5583, 4849.188
746.0405, 4842.091
746.5226, 4835.193
747.0047, 4841.032
747.4868, 4857.961
747.9689, 4875.518
748.4510, 4904.070
748.9332, 4917.350
749.4153, 4899.906
749.8974, 4855.998
750.3795, 4838.696
750.8616, 4851.308
751.3438, 4865.074
751.8259, 4857.878
752.3080, 4839.336
752.7901, 4833.076
753.2722, 4839.161
753.7543, 4846.899
754.2365, 4847.258
754.7186, 4847.632
755.2007, 4856.338
755.6828, 4877.254
756.1649, 4888.651
756.6470, 4876.017
757.1292, 4862.608
757.6113, 4865.213
758.0934, 4891.673
758.5755, 4895.556
759.0576, 4871.363
759.5397, 4843.006
760.0219, 4835.002
760.5040, 4843.234
760.9861, 4858.082
761.4682, 4880.275
761.9503, 4895.811
762.4324, 4883.966
762.9146, 4863.362
763.3967, 4856.455
763.8788, 4879.509
764.3609, 4898.846
764.8430, 4911.029
765.3251, 4915.491
765.8073, 4908.152
766.2894, 4882.557
766.7715, 4872.902
767.2536, 4889.346
767.7357, 4913.498
768.2178, 4911.790
768.7000, 4889.966
769.1821, 4871.686
769.6642, 4863.350
770.1463, 4863.106
770.6284, 4873.353
771.1105, 4890.020
771.5927, 4905.233
772.0748, 4923.956
772.5569, 4931.922
773.0390, 4915.746
773.5211, 4888.541
774.0032, 4887.135
774.4854, 4920.800
774.9675, 4944.613
775.4496, 4941.093
775.9317, 4922.690
776.4138, 4923.299
776.8959, 4939.015
777.3781, 4948.645
777.8602, 4929.642
778.3423, 4909.066
778.8244, 4914.360
779.3065, 4939.212
779.7886, 4955.977
780.2708, 4943.169
780.7529, 4935.043
781.2350, 4947.185
781.7171, 4976.108
782.1992, 4986.724
782.6813, 4974.233
783.1635, 4962.148
783.6456, 4963.160
784.1277, 4973.685
784.6098, 4984.204
785.0919, 4994.260
785.5740, 4999.899
786.0562, 4992.501
786.5383, 4984.085
787.0204, 4986.697
787.5025, 5000.943
787.9846, 5011.403
788.4667, 5012.282
788.9489, 5010.458
789.4310, 5007.977
789.9131, 5004.689
790.3952, 5003.722
790.8773, 5005.031
791.3594, 5008.905
791.8416, 5019.650
792.3237, 5032.590
792.8058, 5031.612
793.2879, 5016.248
793.7700, 5005.267
794.2521, 5017.986
794.7343, 5036.353
795.2164, 5046.386
795.6985, 5046.155
796.1806, 5037.242
796.6627, 5000.544
797.1448, 4976.582
797.6270, 5000.693
798.1091, 5083.460
798.5912, 5124.821
799.0733, 5119.572
799.5554, 5099.171
800.0375, 5094.165
800.5197, 5095.997
801.0018, 5082.177
801.4839, 5046.062
801.9660, 5026.745
802.4481, 5070.036
802.9302, 5126.820
803.4124, 5154.206
803.8945, 5127.808
804.3766, 5112.388
804.8587, 5109.424
805.3408, 5115.524
805.8229, 5129.930
806.3051, 5152.576
806.7872, 5172.917
807.2693, 5190.147
807.7514, 5204.864
808.2335, 5216.780
808.7156, 5227.140
809.1978, 5235.854
809.6799, 5239.103
810.1620, 5253.642
810.6441, 5302.951
811.1262, 5357.578
811.6083, 5387.351
812.0905, 5378.740
812.5726, 5374.044
813.0547, 5370.389
813.5368, 5377.843
814.0189, 5416.379
814.5010, 5479.639
814.9832, 5530.524
815.4653, 5562.311
815.9474, 5583.504
816.4295, 5598.480
816.9116, 5609.257
817.3937, 5617.628
817.8759, 5619.400
818.3580, 5627.814
818.8401, 5650.853
819.3222, 5678.166
819.8043, 5701.425
820.2864, 5721.312
820.7686, 5733.805
821.2507, 5738.076
821.7328, 5735.987
822.2149, 5730.519
822.6970, 5720.547
823.1791, 5701.719
823.6613, 5670.871
824.1434, 5638.956
824.6255, 5605.943
825.1076, 5579.390
825.5897, 5568.251
826.0718, 5595.995
826.5540, 5606.868
827.0361, 5593.807
827.5182, 5571.975
828.0003, 5560.660
828.4824, 5559.755
828.9645, 5550.339
829.4467, 5527.860
829.9288, 5504.070
830.4109, 5494.031
830.8930, 5491.051
831.3751, 5483.204
831.8572, 5460.717
832.3394, 5448.835
832.8215, 5472.957
833.3036, 5502.915
833.7857, 5502.948
834.2678, 5455.567
834.7499, 5430.361
835.2321, 5435.072
835.7142, 5454.699
836.1963, 5477.618
836.6784, 5500.457
837.1605, 5508.449
837.6426, 5496.576
838.1248, 5479.540
838.6069, 5470.824
839.0890, 5462.176
839.5711, 5443.875
840.0532, 5404.319
840.5353, 5372.586
841.0175, 5350.086
841.4996, 5336.037
841.9817, 5333.224
842.4638, 5342.417
842.9459, 5342.098
843.4280, 5329.248
843.9102, 5311.969
844.3923, 5295.376
844.8744, 5281.510
845.3565, 5274.352
845.8386, 5275.719
846.3207, 5279.550
846.8029, 5290.054
847.2850, 5297.542
847.7671, 5292.880
848.2492, 5269.524
848.7313, 5249.464
849.2134, 5229.185
849.6956, 5221.618
850.1777, 5249.354
850.6598, 5301.175
851.1419, 5337.952
851.6240, 5354.638
852.1061, 5361.318
852.5883, 5360.547
853.0704, 5356.745
853.5525, 5354.485
854.0346, 5356.509
854.5167, 5352.938
854.9988, 5338.425
855.4810, 5324.589
855.9631, 5317.977
856.4452, 5318.572
856.9273, 5333.771
857.4094, 5364.830
857.8915, 5394.753
858.3737, 5407.995
858.8558, 5411.252
859.3379, 5408.775
859.8200, 5400.017
860.3021, 5402.947
860.7842, 5439.435
861.2664, 5476.379
861.7485, 5494.527
862.2306, 5492.180
862.7127, 5486.546
863.1948, 5474.605
863.6769, 5472.495
864.1591, 5502.123
864.6412, 5547.698
865.1233, 5570.241
865.6054, 5570.170
866.0875, 5567.824
866.5696, 5572.216
867.0518, 5580.972
867.5339, 5591.838
868.0160, 5604.957
868.4981, 5626.630
868.9802, 5663.354
869.4623, 5694.678
869.9445, 5705.882
870.4266, 5703.912
870.9087, 5723.404
871.3908, 5762.838
871.8729, 5803.099
872.3550, 5832.000
872.8372, 5857.716
873.3193, 5882.895
873.8014, 5909.743
874.2835, 5947.738
874.7656, 6008.000
875.2477, 6069.140
875.7299, 6124.210
876.2120, 6176.368
876.6941, 6241.692
877.1762, 6319.869
877.6583, 6398.474
878.1404, 6467.852
878.6226, 6538.282
879.1047, 6622.023
879.5869, 6717.478
880.0690, 6822.489
880.5511, 6956.576
881.0332, 7076.354
881.5153, 7165.128
881.9974, 7232.704
882.4796, 7293.182
882.9617, 7340.389
883.4438, 7419.670
883.9259, 7550.074
884.4080, 7698.302
884.8901, 7814.609
885.3723, 7906.577
885.8544, 7992.401
886.3365, 8080.103
886.8186, 8158.504
887.3007, 8230.091
887.7828, 8284.804
888.2650, 8307.232
888.7471, 8282.805
889.2292, 8267.711
889.7113, 8272.109
890.1934, 8274.097
890.6755, 8238.649
891.1577, 8177.135
891.6398, 8124.562
892.1219, 8089.306
892.6040, 8056.154
893.0861, 8021.423
893.5682, 7980.346
894.0504, 7923.663
894.5325, 7826.666
895.0146, 7780.263
895.4967, 7802.755
895.9788, 7841.991
896.4609, 7854.257
896.9431, 7844.123
897.4252, 7836.895
897.9073, 7833.847
898.3894, 7838.925
898.8715, 7857.326
899.3536, 7883.521
899.8358, 7914.206
900.3179, 7949.027
900.8000, 7984.974
901.2821, 8023.733
901.7642, 8060.019
902.2463, 8090.765
902.7285, 8116.591
903.2106, 8150.131
903.6927, 8190.551
904.1748, 8220.261
904.6569, 8223.579
905.1390, 8214.908
905.6212, 8207.536
906.1033, 8200.939
906.5854, 8190.871
907.0675, 8171.096
907.5496, 8154.264
908.0317, 8146.417
908.5139, 8142.415
908.9960, 8126.833
909.4781, 8099.674
909.9602, 8062.022
910.4423, 8006.032
910.9244, 7953.729
911.4066, 7936.206
911.8887, 7941.162
912.3708, 7945.785
912.8529, 7944.057
913.3350, 7938.976
913.8171, 7925.809
914.2993, 7913.471
914.7814, 7914.073
915.2635, 7928.128
915.7456, 7952.091
916.2277, 7989.246
916.7098, 8019.762
917.1920, 8016.285
917.6741, 7992.780
918.1562, 7967.661
918.6383, 7942.646
919.1204, 7924.570
919.6025, 7933.514
920.0847, 7935.111
920.5668, 7904.280
921.0489, 7835.880
921.5310, 7768.364
922.0131, 7701.601
922.4952, 7638.806
922.9774, 7579.546
923.4595, 7527.646
923.9416, 7501.989
924.4237, 7499.497
924.9058, 7464.116
925.3879, 7331.570
925.8701, 7204.150
926.3522, 7129.895
926.8343, 7100.124
927.3164, 7042.330
927.7985, 6952.134
928.2806, 6871.695
928.7628, 6823.011
929.2449, 6793.707
929.7270, 6770.348
930.2091, 6750.251
930.6912, 6725.466
931.1733, 6697.283
931.6555, 6658.697
932.1376, 6597.023
932.6197, 6528.421
933.1018, 6482.967
933.5839, 6464.560
934.0660, 6436.206
934.5482, 6388.792
935.0303, 6336.113
935.5124, 6294.767
935.9945, 6260.224
936.4766, 6224.995
936.9587, 6186.236
937.4409, 6148.073
937.9230, 6101.735
938.4051, 6064.154
938.8872, 6052.720
939.3693, 6075.590
939.8514, 6072.578
940.3336, 6040.591
940.8157, 6005.077
941.2978, 5989.746
941.7799, 5982.707
942.2620, 5966.178
942.7441, 5939.560
943.2263, 5912.297
943.7084, 5884.210
944.1905, 5860.681
944.6726, 5839.110
945.1547, 5822.854
945.6368, 5845.395
946.1190, 5910.899
946.6011, 5945.227
947.0832, 5894.411
947.5653, 5817.583
948.0474, 5790.497
948.5295, 5799.558
949.0117, 5813.142
949.4938, 5831.899
949.9759, 5838.592
950.4580, 5823.777
950.9401, 5800.666
951.4222, 5791.193
951.9044, 5795.665
952.3865, 5791.644
952.8686, 5774.240
953.3507, 5754.083
953.8328, 5735.938
954.3149, 5724.900
954.7971, 5731.192
955.2792, 5764.757
955.7613, 5783.738
956.2434, 5771.384
956.7255, 5755.760
957.2076, 5756.096
957.6898, 5771.585
958.1719, 5770.843
958.6540, 5754.093
959.1361, 5737.041
959.6182, 5731.163
960.1003, 5729.263
960.5825, 5723.665
961.0646, 5715.421
961.5467, 5712.452
962.0288, 5722.961
962.5109, 5728.720
962.9930, 5726.049
963.4752, 5715.506
963.9573, 5690.389
964.4394, 5655.453
964.9215, 5641.458
965.4036, 5670.253
965.8857, 5699.420
966.3679, 5685.917
966.8500, 5656.021
967.3321, 5644.742
967.8142, 5673.866
968.2963, 5690.947
968.7784, 5693.689
969.2606, 5688.313
969.7427, 5676.709
970.2248, 5662.057
970.7069, 5659.475
971.1890, 5669.887
971.6711, 5673.917
972.1533, 5648.805
972.6354, 5621.373
973.1175, 5612.024
973.5996, 5620.921
974.0817, 5622.309
974.5638, 5613.001
975.0460, 5607.975
975.5281, 5616.972
976.0102, 5630.887
976.4923, 5627.295
976.9744, 5612.007
977.4565, 5602.097
977.9387, 5612.801
978.4208, 5621.025
978.9029, 5614.931
979.3850, 5603.550
979.8671, 5600.279
980.3492, 5607.774
980.8314, 5605.456
981.3135, 5588.401
981.7956, 5573.463
982.2777, 5585.379
982.7598, 5608.272
983.2419, 5619.402
983.7241, 5614.534
984.2062, 5605.363
984.6883, 5592.176
985.1704, 5578.614
985.6525, 5567.388
986.1346, 5557.682
986.6168, 5535.619
987.0989, 5501.962
987.5810, 5480.656
988.0631, 5490.803
988.5452, 5515.170
989.0273, 5546.514
989.5095, 5578.796
989.9916, 5596.059
990.4737, 5586.192
990.9558, 5574.896
991.4379, 5564.771
991.9200, 5555.047
992.4022, 5542.662
992.8843, 5529.384
993.3664, 5522.686
993.8485, 5524.380
994.3306, 5530.358
994.8127, 5543.627
995.2949, 5555.997
995.7770, 5560.239
996.2591, 5555.930
996.7412, 5543.854
997.2233, 5521.167
997.7054, 5501.456
998.1876, 5493.131
998.6697, 5493.572
999.1518, 5500.438
999.6339, 5511.513
1000.116, 5518.063
1000.598, 5510.529
1001.080, 5504.449
1001.562, 5508.335
1002.044, 5515.585
1002.527, 5512.760
1003.009, 5498.863
1003.491, 5489.614
1003.973, 5488.179
1004.455, 5491.234
1004.937, 5499.653
1005.419, 5508.235
1005.901, 5509.592
1006.384, 5500.539
1006.866, 5492.163
1007.348, 5484.488
1007.830, 5479.878
1008.312, 5482.477
1008.794, 5489.683
1009.276, 5481.210
1009.758, 5459.692
1010.240, 5446.626
1010.723, 5457.687
1011.205, 5478.082
1011.687, 5510.911
1012.169, 5544.479
1012.651, 5547.017
1013.133, 5502.865
1013.615, 5473.839
1014.097, 5471.717
1014.580, 5480.548
1015.062, 5477.995
1015.544, 5470.422
1016.026, 5471.343
1016.508, 5485.007
1016.990, 5496.566
1017.472, 5501.822
1017.954, 5501.205
1018.436, 5493.848
1018.919, 5480.200
1019.401, 5466.436
1019.883, 5452.531
1020.365, 5447.508
1020.847, 5465.857
1021.329, 5487.849
1021.811, 5493.630
1022.293, 5487.586
1022.776, 5480.444
1023.258, 5469.115
1023.740, 5465.738
1024.222, 5472.987
1024.704, 5486.144
1025.186, 5504.093
1025.668, 5522.610
1026.150, 5521.795
1026.632, 5497.008
1027.115, 5479.892
1027.597, 5496.632
1028.079, 5521.819
1028.561, 5541.609
1029.043, 5555.511
1029.525, 5552.605
1030.007, 5530.587
1030.489, 5511.182
1030.972, 5504.406
1031.454, 5505.763
1031.936, 5513.680
1032.418, 5524.189
1032.900, 5528.700
1033.382, 5515.510
1033.864, 5509.027
1034.346, 5512.547
1034.828, 5522.073
1035.311, 5534.938
1035.793, 5550.388
1036.275, 5563.613
1036.757, 5574.346
1037.239, 5579.729
1037.721, 5569.368
1038.203, 5560.161
1038.685, 5567.519
1039.167, 5589.378
1039.650, 5598.244
1040.132, 5587.351
1040.614, 5594.660
1041.096, 5639.635
1041.578, 5697.461
1042.060, 5714.554
1042.542, 5717.759
1043.024, 5759.069
1043.507, 5868.182
1043.989, 5987.448
1044.471, 6099.999
1044.953, 6227.426
1045.435, 6388.346
1045.917, 6581.055
1046.399, 6798.997
1046.881, 7040.513
1047.364, 7290.885
1047.846, 7543.564
1048.328, 7798.556
1048.810, 8062.237
1049.292, 8328.638
1049.774, 8573.253
1050.256, 8786.506
1050.738, 9011.540
1051.220, 9257.612
1051.703, 9516.200
1052.185, 9779.516
1052.667, 10038.09
1053.149, 10286.41
1053.631, 10539.86
1054.113, 10702.98
1054.595, 10777.32
1055.077, 10720.41
1055.559, 10485.76
1056.042, 10094.87
1056.524, 9658.076
1057.006, 9181.490
1057.488, 8715.108
1057.970, 8281.551
1058.452, 7871.526
1058.934, 7456.978
1059.416, 7064.911
1059.899, 6747.844
1060.381, 6515.512
1060.863, 6316.613
1061.345, 6147.011
1061.827, 6008.809
1062.309, 5905.173
1062.791, 5831.015
1063.273, 5788.970
1063.755, 5777.417
1064.238, 5756.855
1064.720, 5700.675
1065.202, 5653.716
1065.684, 5628.236
1066.166, 5621.830
1066.648, 5639.950
1067.130, 5674.305
1067.612, 5684.491
1068.094, 5644.291
1068.577, 5609.257
1069.059, 5623.846
1069.541, 5652.203
1070.023, 5658.130
1070.505, 5636.008
1070.987, 5622.501
1071.469, 5618.422
1071.951, 5613.385
1072.434, 5590.116
1072.916, 5569.156
1073.398, 5582.210
1073.880, 5619.327
1074.362, 5644.445
1074.844, 5641.635
1075.326, 5641.449
1075.808, 5649.716
1076.291, 5658.149
1076.773, 5651.591
1077.255, 5636.053
1077.737, 5628.400
1078.219, 5631.155
1078.701, 5640.052
1079.183, 5666.169
1079.665, 5683.738
1080.147, 5675.613
1080.630, 5648.157
1081.112, 5642.474
1081.594, 5657.662
1082.076, 5665.079
1082.558, 5648.731
1083.040, 5630.612
1083.522, 5634.347
1084.004, 5646.500
1084.486, 5648.206
1084.969, 5631.602
1085.451, 5623.165
1085.933, 5625.965
1086.415, 5625.666
1086.897, 5601.120
1087.379, 5571.283
1087.861, 5577.875
1088.343, 5611.619
1088.826, 5630.655
1089.308, 5599.326
1089.790, 5579.815
1090.272, 5587.042
1090.754, 5606.231
1091.236, 5614.202
1091.718, 5613.627
1092.200, 5617.267
1092.682, 5627.241
1093.165, 5637.375
1093.647, 5647.334
1094.129, 5652.796
1094.611, 5649.824
1095.093, 5639.788
1095.575, 5630.622
1096.057, 5622.261
1096.539, 5616.836
1097.022, 5617.195
1097.504, 5616.946
1097.986, 5605.480
1098.468, 5591.032
1098.950, 5585.489
1099.432, 5594.140
1099.914, 5602.870
1100.396, 5612.315
1100.879, 5619.316
1101.361, 5622.576
1101.843, 5621.294
1102.325, 5609.358
1102.807, 5590.701
1103.289, 5580.118
1103.771, 5587.267
1104.253, 5598.409
1104.735, 5614.871
1105.218, 5629.282
1105.700, 5627.703
1106.182, 5614.253
1106.664, 5609.492
1107.146, 5615.744
1107.628, 5622.964
1108.110, 5626.304
1108.592, 5627.525
1109.074, 5626.388
1109.557, 5624.034
1110.039, 5627.998
1110.521, 5638.532
1111.003, 5634.739
1111.485, 5605.545
1111.967, 5575.662
1112.449, 5568.349
1112.931, 5573.656
1113.414, 5581.347
1113.896, 5590.063
1114.378, 5604.304
1114.860, 5627.164
1115.342, 5641.861
1115.824, 5635.094
1116.306, 5617.707
1116.788, 5603.339
1117.271, 5592.385
1117.753, 5585.553
1118.235, 5583.171
1118.717, 5585.313
1119.199, 5591.402
1119.681, 5602.726
1120.163, 5627.222
1120.645, 5656.997
1121.127, 5666.148
1121.609, 5655.453
1122.092, 5642.974
1122.574, 5637.077
1123.056, 5631.779
1123.538, 5625.557
1124.020, 5618.318
1124.502, 5606.196
1124.984, 5591.120
1125.466, 5593.950
1125.949, 5621.180
1126.431, 5641.832
1126.913, 5621.309
1127.395, 5597.250
1127.877, 5603.808
1128.359, 5635.096
1128.841, 5634.522
1129.323, 5599.623
1129.806, 5577.584
1130.288, 5588.679
1130.770, 5612.634
1131.252, 5636.757
1131.734, 5657.686
1132.216, 5669.585
1132.698, 5668.638
1133.180, 5673.114
1133.662, 5685.885
1134.145, 5691.719
1134.627, 5671.638
1135.109, 5644.807
1135.591, 5645.188
1136.073, 5663.354
1136.555, 5675.418
1137.037, 5666.046
1137.519, 5664.212
1138.001, 5675.308
1138.484, 5686.379
1138.966, 5681.342
1139.448, 5666.484
1139.930, 5653.602
1140.412, 5644.415
1140.894, 5647.152
1141.376, 5684.335
1141.858, 5708.578
1142.341, 5703.647
1142.823, 5684.097
1143.305, 5676.095
1143.787, 5677.146
1144.269, 5674.519
1144.751, 5665.324
1145.233, 5661.110
1145.715, 5675.755
1146.198, 5689.854
1146.680, 5692.994
1147.162, 5686.901
1147.644, 5676.688
1148.126, 5663.111
1148.608, 5657.700
1149.090, 5667.115
1149.572, 5677.253
1150.054, 5672.910
1150.536, 5667.542
1151.019, 5676.317
1151.501, 5701.135
1151.983, 5715.731
1152.465, 5720.220
1152.947, 5713.729
1153.429, 5684.623
1153.911, 5656.923
1154.393, 5656.518
1154.876, 5672.743
1155.358, 5688.163
1155.840, 5703.303
1156.322, 5710.320
1156.804, 5708.112
1157.286, 5703.053
1157.768, 5695.773
1158.250, 5691.752
1158.733, 5704.674
1159.215, 5727.781
1159.697, 5734.381
1160.179, 5710.162
1160.661, 5692.794
1161.143, 5687.250
1161.625, 5687.576
1162.107, 5688.655
1162.589, 5689.975
1163.072, 5690.901
1163.554, 5691.333
1164.036, 5690.307
1164.518, 5681.272
1165.000, 5682.387
1165.482, 5701.682
1165.964, 5727.419
1166.446, 5740.685
1166.928, 5743.157
1167.411, 5735.959
1167.893, 5717.204
1168.375, 5704.573
1168.857, 5707.150
1169.339, 5712.596
1169.821, 5714.902
1170.303, 5717.916
1170.785, 5744.321
1171.268, 5781.784
1171.750, 5785.898
1172.232, 5723.921
1172.714, 5676.189
1173.196, 5688.633
1173.678, 5712.780
1174.160, 5720.625
1174.642, 5715.162
1175.125, 5711.780
1175.607, 5711.710
1176.089, 5722.160
1176.571, 5760.909
1177.053, 5791.963
1177.535, 5794.432
1178.017, 5785.293
1178.499, 5778.733
1178.981, 5774.678
1179.464, 5771.921
1179.946, 5770.167
1180.428, 5765.979
1180.910, 5754.238
1181.392, 5742.726
1181.874, 5731.412
1182.356, 5725.111
1182.838, 5735.202
1183.320, 5762.826
1183.803, 5770.479
1184.285, 5754.604
1184.767, 5741.604
1185.249, 5759.057
1185.731, 5778.816
1186.213, 5779.784
1186.695, 5767.652
1187.177, 5758.864
1187.660, 5753.461
1188.142, 5751.269
1188.624, 5752.595
1189.106, 5754.601
1189.588, 5750.520
1190.070, 5749.587
1190.552, 5765.769
1191.034, 5794.504
1191.516, 5801.491
1191.999, 5784.475
1192.481, 5765.533
1192.963, 5748.403
1193.445, 5737.500
1193.927, 5743.421
1194.409, 5753.611
1194.891, 5752.912
1195.373, 5740.076
1195.855, 5738.929
1196.338, 5750.044
1196.820, 5769.908
1197.302, 5805.426
1197.784, 5831.509
1198.266, 5805.307
1198.748, 5761.301
1199.230, 5745.189
1199.712, 5766.727
1200.195, 5782.852
1200.677, 5793.792
1201.159, 5797.168
1201.641, 5785.537
1202.123, 5773.354
1202.605, 5781.402
1203.087, 5798.801
1203.569, 5807.351
1204.052, 5801.781
1204.534, 5795.944
1205.016, 5788.219
1205.498, 5789.696
1205.980, 5824.733
1206.462, 5859.617
1206.944, 5843.345
1207.426, 5798.759
1207.908, 5781.346
1208.391, 5810.907
1208.873, 5821.048
1209.355, 5805.638
1209.837, 5789.545
1210.319, 5798.274
1210.801, 5814.517
1211.283, 5816.713
1211.765, 5809.165
1212.247, 5810.060
1212.730, 5826.104
1213.212, 5831.730
1213.694, 5822.072
1214.176, 5812.514
1214.658, 5823.426
1215.140, 5838.666
1215.622, 5835.417
1216.104, 5817.536
1216.587, 5814.664
1217.069, 5833.396
1217.551, 5851.040
1218.033, 5865.681
1218.515, 5870.814
1218.997, 5829.604
1219.479, 5846.524
1219.961, 5856.655
1220.443, 5860.361
1220.926, 5838.405
1221.408, 5849.587
1221.890, 5847.488
1222.372, 5844.844
1222.854, 5860.692
1223.336, 5842.465
1223.818, 5858.019
1224.300, 5860.089
1224.782, 5868.330
1225.265, 5863.209
1225.747, 5862.214
1226.229, 5874.587
1226.711, 5879.559
1227.193, 5872.897
1227.675, 5881.530
1228.157, 5862.836
1228.639, 5868.123
1229.122, 5883.757
1229.604, 5877.768
1230.086, 5886.646
1230.568, 5895.334
1231.050, 5903.551
1231.532, 5902.771
1232.014, 5889.391
1232.496, 5873.064
1232.979, 5864.269
1233.461, 5863.050
1233.943, 5880.586
1234.425, 5919.741
1234.907, 5947.064
1235.389, 5942.176
1235.871, 5926.130
1236.353, 5916.268
1236.835, 5909.789
1237.318, 5903.534
1237.800, 5897.499
1238.282, 5886.205
1238.764, 5868.836
1239.246, 5865.438
1239.728, 5902.936
1240.210, 5939.016
1240.692, 5927.161
1241.175, 5897.694
1241.657, 5893.896
1242.139, 5922.466
1242.621, 5936.587
1243.103, 5936.285
1243.585, 5933.722
1244.067, 5935.646
1244.549, 5938.782
1245.031, 5942.426
1245.514, 5945.030
1245.996, 5945.116
1246.478, 5942.777
1246.960, 5932.276
1247.442, 5914.381
1247.924, 5907.390
1248.406, 5935.060
1248.888, 5963.776
1249.370, 5974.883
1249.853, 5975.820
1250.335, 5975.193
1250.817, 5973.111
1251.299, 5972.312
1251.781, 5973.005
1252.263, 5976.217
1252.745, 5989.415
1253.227, 5996.991
1253.710, 5985.862
1254.192, 5970.324
1254.674, 5968.534
1255.156, 5978.859
1255.638, 5991.520
1256.120, 6005.402
1256.602, 6015.701
1257.084, 6013.387
1257.567, 6016.195
1258.049, 6036.801
1258.531, 6056.411
1259.013, 6043.331
1259.495, 6007.042
1259.977, 5978.260
1260.459, 5960.142
1260.941, 5956.790
1261.423, 5992.153
1261.906, 6010.502
1262.388, 5990.673
1262.870, 5963.668
1263.352, 5981.932
1263.834, 6025.222
1264.316, 6045.393
1264.798, 6039.732
1265.280, 6035.342
1265.762, 6037.965
1266.245, 6048.220
1266.727, 6070.492
1267.209, 6090.708
1267.691, 6083.512
1268.173, 6064.012
1268.655, 6059.201
1269.137, 6070.258
1269.619, 6073.806
1270.102, 6066.777
1270.584, 6052.241
1271.066, 6027.621
1271.548, 6006.861
1272.030, 6012.099
1272.512, 6028.620
1272.994, 6042.150
1273.476, 6050.382
1273.958, 6048.633
1274.441, 6034.115
1274.923, 6022.214
1275.405, 6014.909
1275.887, 6017.834
1276.369, 6044.045
1276.851, 6077.711
1277.333, 6111.074
1277.815, 6138.970
1278.297, 6129.624
1278.780, 6080.317
1279.262, 6056.691
1279.744, 6077.519
1280.226, 6103.606
1280.708, 6100.484
1281.190, 6093.534
1281.672, 6105.199
1282.154, 6127.643
1282.637, 6127.630
1283.119, 6108.248
1283.601, 6100.461
1284.083, 6112.506
1284.565, 6123.506
1285.047, 6119.867
1285.529, 6112.554
1286.011, 6105.672
1286.494, 6100.414
1286.976, 6098.503
1287.458, 6101.263
1287.940, 6118.301
1288.422, 6155.294
1288.904, 6174.361
1289.386, 6137.931
1289.868, 6114.428
1290.350, 6132.947
1290.833, 6167.245
1291.315, 6160.607
1291.797, 6131.731
1292.279, 6116.748
1292.761, 6123.022
1293.243, 6137.731
1293.725, 6165.210
1294.207, 6182.842
1294.689, 6181.535
1295.172, 6171.328
1295.654, 6163.886
1296.136, 6158.214
1296.618, 6151.922
1297.100, 6144.493
1297.582, 6146.433
1298.064, 6160.067
1298.546, 6166.310
1299.029, 6155.254
1299.511, 6147.646
1299.993, 6176.427
1300.475, 6211.022
1300.957, 6217.380
1301.439, 6199.827
1301.921, 6191.757
1302.403, 6192.628
1302.885, 6184.351
1303.368, 6156.814
1303.850, 6141.507
1304.332, 6175.915
1304.814, 6214.403
1305.296, 6228.247
1305.778, 6224.083
1306.260, 6223.552
1306.742, 6226.275
1307.224, 6234.171
1307.707, 6251.692
1308.189, 6250.830
1308.671, 6189.495
1309.153, 6150.638
##END=



