##NAMES=Barysilite
##RRUFFID=R070651
##IDEAL CHEMISTRY=Pb^2+^_8_Mn^2+^(Si_2_O_7_)_3_
##LOCALITY=Kombat mine, Kombat, Grootfontein District, Otjozondjupa Region, Namibia
##OWNER=RRUFF
##SOURCE=William W. Pinch
##DESCRIPTION=Colorless lamellar aggregate associated with colorless kombatite, R070720, and black jacobsite, R070719
##STATUS=The identification of this mineral has been confirmed by single-crystal X-ray diffraction.
##URL=rruff.info/R070651
113.2559, 19593.84
113.7380, 19403.96
114.2201, 19240.78
114.7023, 19134.31
115.1844, 19069.87
115.6665, 19013.83
116.1486, 18950.71
116.6307, 18876.05
117.1128, 18776.68
117.5950, 18636.27
118.0771, 18484.15
118.5592, 18344.69
119.0413, 18220.13
119.5234, 18093.38
120.0055, 17946.11
120.4877, 17784.81
120.9698, 17626.20
121.4519, 17465.48
121.9340, 17311.48
122.4161, 17190.86
122.8982, 17128.96
123.3804, 17066.52
123.8625, 16952.58
124.3446, 16796.57
124.8267, 16645.03
125.3088, 16536.10
125.7909, 16472.94
126.2731, 16409.03
126.7552, 16317.54
127.2373, 16239.32
127.7194, 16205.60
128.2015, 16218.59
128.6837, 16245.44
129.1658, 16231.55
129.6479, 16135.61
130.1300, 16081.38
130.6121, 16097.04
131.0942, 16141.52
131.5764, 16183.80
132.0585, 16209.95
132.5406, 16222.37
133.0227, 16228.84
133.5048, 16229.33
133.9869, 16223.20
134.4691, 16206.55
134.9512, 16183.39
135.4333, 16162.65
135.9154, 16152.28
136.3975, 16149.93
136.8796, 16116.61
137.3618, 16018.06
137.8439, 15926.19
138.3260, 15889.75
138.8081, 15902.40
139.2902, 15906.79
139.7723, 15846.99
140.2545, 15723.18
140.7366, 15628.73
141.2187, 15580.92
141.7008, 15559.29
142.1829, 15545.21
142.6650, 15538.51
143.1471, 15530.97
143.6293, 15513.65
144.1114, 15488.25
144.5935, 15459.08
145.0756, 15423.80
145.5577, 15385.28
146.0398, 15353.13
146.5220, 15329.96
147.0041, 15312.88
147.4862, 15299.10
147.9683, 15288.43
148.4504, 15279.63
148.9325, 15271.94
149.4147, 15265.32
149.8968, 15259.46
150.3789, 15259.48
150.8610, 15256.91
151.3431, 15245.15
151.8252, 15222.98
152.3074, 15196.86
152.7895, 15177.75
153.2716, 15171.49
153.7537, 15159.42
154.2358, 15133.55
154.7179, 15104.67
155.2001, 15079.78
155.6822, 15061.68
156.1643, 15052.37
156.6464, 15058.18
157.1285, 15101.86
157.6106, 15135.70
158.0928, 15149.92
158.5749, 15152.50
159.0570, 15152.53
159.5391, 15154.52
160.0212, 15159.58
160.5033, 15181.43
160.9855, 15245.89
161.4676, 15298.70
161.9497, 15311.19
162.4318, 15295.16
162.9139, 15285.82
163.3960, 15311.10
163.8782, 15373.02
164.3603, 15426.96
164.8424, 15460.11
165.3245, 15496.01
165.8066, 15547.75
166.2887, 15616.77
166.7709, 15700.25
167.2530, 15801.03
167.7351, 15919.02
168.2172, 16028.27
168.6993, 16113.66
169.1814, 16193.86
169.6636, 16291.11
170.1457, 16408.94
170.6278, 16542.05
171.1099, 16686.39
171.5920, 16840.95
172.0741, 17010.47
172.5563, 17207.73
173.0384, 17422.95
173.5205, 17627.09
174.0026, 17819.85
174.4847, 17995.19
174.9668, 18134.04
175.4490, 18241.18
175.9311, 18375.81
176.4132, 18597.25
176.8953, 18904.00
177.3774, 19188.81
177.8595, 19418.36
178.3417, 19632.96
178.8238, 19852.32
179.3059, 20079.60
179.7880, 20314.86
180.2701, 20549.53
180.7522, 20774.88
181.2344, 21042.37
181.7165, 21406.34
182.1986, 21783.73
182.6807, 22129.00
183.1628, 22428.10
183.6449, 22691.05
184.1271, 22937.75
184.6092, 23186.23
185.0913, 23374.80
185.5734, 23526.35
186.0555, 23614.29
186.5376, 23612.82
187.0198, 23511.39
187.5019, 23324.83
187.9840, 23086.89
188.4661, 22764.41
188.9482, 22425.66
189.4303, 22074.62
189.9125, 21710.55
190.3946, 21330.98
190.8767, 20929.49
191.3588, 20515.44
191.8409, 20120.84
192.3230, 19728.38
192.8052, 19375.59
193.2873, 19091.20
193.7694, 18852.16
194.2515, 18618.14
194.7336, 18362.18
195.2157, 18090.25
195.6979, 17854.05
196.1800, 17663.24
196.6621, 17488.70
197.1442, 17316.21
197.6263, 17150.17
198.1084, 17006.97
198.5906, 16900.43
199.0727, 16829.11
199.5548, 16752.11
200.0369, 16658.49
200.5190, 16569.51
201.0011, 16499.06
201.4833, 16446.38
201.9654, 16399.17
202.4475, 16347.13
202.9296, 16292.42
203.4117, 16248.24
203.8938, 16223.72
204.3760, 16204.50
204.8581, 16177.73
205.3402, 16142.32
205.8223, 16105.62
206.3044, 16072.75
206.7865, 16043.24
207.2687, 16015.89
207.7508, 15984.96
208.2329, 15958.34
208.7150, 15951.47
209.1971, 15970.68
209.6792, 15988.36
210.1614, 15973.49
210.6435, 15938.96
211.1256, 15914.86
211.6077, 15915.43
212.0898, 15933.41
212.5719, 15956.54
213.0541, 15991.10
213.5362, 16016.09
214.0183, 16008.55
214.5004, 15980.04
214.9825, 15959.29
215.4646, 15966.63
215.9468, 15995.49
216.4289, 16020.21
216.9110, 16046.91
217.3931, 16058.14
217.8752, 16029.06
218.3573, 15975.62
218.8395, 15943.35
219.3216, 15981.75
219.8037, 16082.89
220.2858, 16144.00
220.7679, 16132.72
221.2500, 16112.24
221.7322, 16108.85
222.2143, 16121.38
222.6964, 16140.76
223.1785, 16158.38
223.6606, 16173.67
224.1427, 16200.38
224.6249, 16253.18
225.1070, 16305.11
225.5891, 16350.13
226.0712, 16385.93
226.5533, 16409.19
227.0354, 16410.73
227.5176, 16384.46
227.9997, 16378.58
228.4818, 16413.59
228.9639, 16452.15
229.4460, 16479.07
229.9281, 16494.78
230.4103, 16508.87
230.8924, 16531.37
231.3745, 16564.65
231.8566, 16595.98
232.3387, 16619.69
232.8208, 16646.49
233.3030, 16691.11
233.7851, 16748.26
234.2672, 16793.87
234.7493, 16796.46
235.2314, 16735.11
235.7135, 16707.94
236.1957, 16735.90
236.6778, 16774.72
237.1599, 16802.07
237.6420, 16815.96
238.1241, 16826.97
238.6062, 16847.29
239.0884, 16880.28
239.5705, 16912.29
240.0526, 16948.70
240.5347, 16980.16
241.0168, 17000.39
241.4989, 17009.18
241.9811, 17010.50
242.4632, 17008.47
242.9453, 17001.44
243.4274, 16995.79
243.9095, 16984.35
244.3916, 16979.07
244.8738, 16991.28
245.3559, 17020.57
245.8380, 17054.61
246.3201, 17079.76
246.8022, 17094.79
247.2843, 17101.89
247.7665, 17083.51
248.2486, 17070.12
248.7307, 17091.59
249.2128, 17148.14
249.6949, 17207.92
250.1770, 17232.45
250.6592, 17204.60
251.1413, 17201.05
251.6234, 17243.47
252.1055, 17294.04
252.5876, 17321.61
253.0697, 17323.25
253.5519, 17321.22
254.0340, 17339.99
254.5161, 17385.95
254.9982, 17431.22
255.4803, 17483.49
255.9624, 17529.92
256.4445, 17556.55
256.9267, 17562.64
257.4088, 17563.67
257.8909, 17575.13
258.3730, 17599.61
258.8551, 17625.15
259.3372, 17657.59
259.8194, 17687.26
260.3015, 17707.31
260.7836, 17716.76
261.2657, 17716.37
261.7478, 17704.71
262.2299, 17679.47
262.7121, 17659.42
263.1942, 17649.76
263.6763, 17642.24
264.1584, 17624.52
264.6405, 17596.67
265.1227, 17580.27
265.6048, 17602.39
266.0869, 17666.33
266.5690, 17698.27
267.0511, 17670.54
267.5332, 17627.97
268.0154, 17606.97
268.4975, 17609.94
268.9796, 17618.45
269.4617, 17615.71
269.9438, 17602.52
270.4259, 17603.12
270.9081, 17631.80
271.3902, 17664.79
271.8723, 17678.37
272.3544, 17672.85
272.8365, 17674.29
273.3186, 17706.48
273.8008, 17766.67
274.2829, 17812.06
274.7650, 17824.45
275.2471, 17835.07
275.7292, 17872.32
276.2113, 17934.55
276.6935, 17994.42
277.1756, 18035.44
277.6577, 18056.58
278.1398, 18066.65
278.6219, 18037.60
279.1040, 18020.06
279.5862, 18056.32
280.0683, 18141.47
280.5504, 18234.89
281.0325, 18317.02
281.5146, 18385.75
281.9967, 18440.95
282.4789, 18464.70
282.9610, 18491.57
283.4431, 18545.54
283.9252, 18623.11
284.4073, 18702.92
284.8894, 18771.26
285.3716, 18835.94
285.8537, 18921.40
286.3358, 19052.31
286.8179, 19172.04
287.3000, 19237.67
287.7821, 19261.63
288.2643, 19292.64
288.7464, 19353.98
289.2285, 19436.59
289.7106, 19516.19
290.1927, 19593.84
290.6748, 19667.04
291.1570, 19729.89
291.6391, 19786.69
292.1212, 19850.92
292.6033, 19930.03
293.0854, 20016.70
293.5675, 20091.63
294.0497, 20142.72
294.5318, 20215.74
295.0139, 20349.42
295.4960, 20518.45
295.9781, 20662.54
296.4602, 20757.69
296.9424, 20829.83
297.4245, 20924.64
297.9066, 21048.06
298.3887, 21161.34
298.8708, 21243.70
299.3529, 21309.50
299.8351, 21384.53
300.3172, 21476.73
300.7993, 21575.12
301.2814, 21665.77
301.7635, 21748.33
302.2456, 21827.35
302.7278, 21885.04
303.2099, 21945.80
303.6920, 22054.92
304.1741, 22226.10
304.6562, 22399.62
305.1383, 22498.48
305.6205, 22517.03
306.1026, 22563.71
306.5847, 22685.37
307.0668, 22824.32
307.5489, 22915.90
308.0310, 22952.42
308.5132, 22978.12
308.9953, 23034.38
309.4774, 23123.00
309.9595, 23202.35
310.4416, 23265.44
310.9237, 23322.71
311.4059, 23380.13
311.8880, 23438.41
312.3701, 23501.72
312.8522, 23579.23
313.3343, 23666.89
313.8164, 23724.23
314.2986, 23723.65
314.7807, 23718.34
315.2628, 23738.38
315.7449, 23780.71
316.2270, 23828.71
316.7091, 23872.89
317.1913, 23913.93
317.6734, 23956.20
318.1555, 24002.99
318.6376, 24047.44
319.1197, 24095.57
319.6018, 24139.88
320.0840, 24161.64
320.5661, 24149.77
321.0482, 24112.82
321.5303, 24077.54
322.0124, 24026.21
322.4945, 23999.13
322.9767, 24018.66
323.4588, 24064.44
323.9409, 24111.36
324.4230, 24151.41
324.9051, 24177.94
325.3872, 24174.80
325.8694, 24109.35
326.3515, 24072.48
326.8336, 24100.91
327.3157, 24146.71
327.7978, 24158.75
328.2799, 24124.42
328.7621, 24069.09
329.2442, 24026.29
329.7263, 24001.39
330.2084, 23978.33
330.6905, 23951.30
331.1726, 23930.01
331.6548, 23922.64
332.1369, 23929.34
332.6190, 23944.02
333.1011, 23962.17
333.5832, 23986.70
334.0653, 23996.55
334.5475, 24002.64
335.0296, 23987.65
335.5117, 23922.12
335.9938, 23824.08
336.4759, 23745.55
336.9580, 23730.15
337.4402, 23776.57
337.9223, 23799.84
338.4044, 23788.25
338.8865, 23767.22
339.3686, 23738.21
339.8507, 23704.72
340.3329, 23669.28
340.8150, 23632.15
341.2971, 23597.38
341.7792, 23583.02
342.2613, 23624.94
342.7434, 23641.89
343.2256, 23611.37
343.7077, 23557.95
344.1898, 23505.92
344.6719, 23465.02
345.1540, 23432.88
345.6361, 23404.27
346.1183, 23376.97
346.6004, 23358.62
347.0825, 23348.74
347.5646, 23346.85
348.0467, 23355.98
348.5288, 23375.27
349.0110, 23396.39
349.4931, 23409.02
349.9752, 23412.08
350.4573, 23410.93
350.9394, 23395.48
351.4215, 23384.25
351.9037, 23391.75
352.3858, 23413.54
352.8679, 23430.93
353.3500, 23425.46
353.8321, 23397.96
354.3142, 23375.13
354.7964, 23352.47
355.2785, 23341.42
355.7606, 23353.89
356.2427, 23379.83
356.7248, 23399.34
357.2069, 23398.90
357.6891, 23385.72
358.1712, 23382.30
358.6533, 23396.54
359.1354, 23402.23
359.6175, 23374.99
360.0996, 23339.10
360.5818, 23325.51
361.0639, 23349.90
361.5460, 23384.96
362.0281, 23392.61
362.5102, 23369.99
362.9923, 23345.77
363.4745, 23327.49
363.9566, 23312.82
364.4387, 23297.82
364.9208, 23281.05
365.4029, 23272.25
365.8850, 23289.18
366.3672, 23324.64
366.8493, 23334.75
367.3314, 23294.36
367.8135, 23249.88
368.2956, 23257.37
368.7777, 23312.37
369.2599, 23356.02
369.7420, 23361.72
370.2241, 23341.49
370.7062, 23307.93
371.1883, 23258.16
371.6704, 23219.72
372.1526, 23222.18
372.6347, 23259.08
373.1168, 23292.48
373.5989, 23311.50
374.0810, 23329.89
374.5631, 23356.78
375.0453, 23392.70
375.5274, 23442.04
376.0095, 23518.00
376.4916, 23605.24
376.9737, 23641.69
377.4558, 23580.20
377.9380, 23528.22
378.4201, 23534.37
378.9022, 23576.23
379.3843, 23610.02
379.8664, 23617.75
380.3485, 23613.17
380.8307, 23626.52
381.3128, 23686.46
381.7949, 23710.44
382.2770, 23659.47
382.7591, 23588.85
383.2412, 23555.09
383.7234, 23566.97
384.2055, 23591.11
384.6876, 23587.70
385.1697, 23547.38
385.6518, 23519.42
386.1339, 23490.67
386.6161, 23483.54
387.0982, 23532.16
387.5803, 23614.99
388.0624, 23672.92
388.5445, 23659.22
389.0266, 23582.18
389.5088, 23532.71
389.9909, 23537.78
390.4730, 23541.50
390.9551, 23525.02
391.4372, 23505.01
391.9193, 23509.06
392.4015, 23550.05
392.8836, 23602.26
393.3657, 23608.98
393.8478, 23546.64
394.3299, 23495.87
394.8120, 23466.91
395.2942, 23452.59
395.7763, 23455.39
396.2584, 23473.06
396.7405, 23488.38
397.2226, 23470.07
397.7047, 23417.63
398.1869, 23421.11
398.6690, 23553.07
399.1511, 23660.92
399.6332, 23634.90
400.1153, 23514.01
400.5974, 23413.15
401.0796, 23408.51
401.5617, 23460.27
402.0438, 23477.36
402.5259, 23451.34
403.0080, 23424.42
403.4901, 23416.37
403.9723, 23423.14
404.4544, 23442.23
404.9365, 23483.40
405.4186, 23520.05
405.9007, 23518.99
406.3828, 23488.94
406.8650, 23482.26
407.3471, 23528.67
407.8292, 23591.79
408.3113, 23603.20
408.7934, 23548.35
409.2755, 23520.88
409.7577, 23587.88
410.2398, 23684.00
410.7219, 23708.04
411.2040, 23641.83
411.6861, 23562.34
412.1682, 23550.67
412.6504, 23619.04
413.1325, 23649.60
413.6146, 23608.52
414.0967, 23562.36
414.5788, 23552.02
415.0609, 23569.24
415.5431, 23580.88
416.0252, 23564.96
416.5073, 23530.51
416.9894, 23519.61
417.4715, 23567.05
417.9536, 23596.95
418.4358, 23604.12
418.9179, 23589.52
419.4000, 23545.13
419.8821, 23471.50
420.3642, 23393.65
420.8463, 23352.29
421.3285, 23364.41
421.8106, 23367.17
422.2927, 23357.00
422.7748, 23341.11
423.2569, 23322.35
423.7390, 23300.73
424.2212, 23275.01
424.7033, 23244.07
425.1854, 23208.19
425.6675, 23168.22
426.1496, 23123.31
426.6317, 23075.44
427.1139, 23010.27
427.5960, 22947.71
428.0781, 22916.18
428.5602, 22930.88
429.0423, 22964.87
429.5244, 22996.99
430.0066, 23028.11
430.4887, 23017.42
430.9708, 22927.15
431.4529, 22813.70
431.9350, 22742.82
432.4171, 22716.43
432.8993, 22694.79
433.3814, 22659.54
433.8635, 22616.48
434.3456, 22579.91
434.8277, 22553.94
435.3098, 22516.06
435.7920, 22438.58
436.2741, 22325.54
436.7562, 22237.61
437.2383, 22194.65
437.7204, 22160.92
438.2025, 22117.90
438.6847, 22066.93
439.1668, 22013.60
439.6489, 21960.35
440.1310, 21907.15
440.6131, 21854.11
441.0952, 21806.39
441.5774, 21750.83
442.0595, 21685.24
442.5416, 21612.21
443.0237, 21530.55
443.5058, 21441.91
443.9879, 21355.57
444.4701, 21283.05
444.9522, 21227.54
445.4343, 21165.01
445.9164, 21090.23
446.3985, 21013.69
446.8806, 20937.37
447.3628, 20862.20
447.8449, 20788.12
448.3270, 20713.57
448.8091, 20642.95
449.2912, 20586.17
449.7733, 20544.15
450.2555, 20514.05
450.7375, 20524.40
451.2197, 20528.15
451.7018, 20480.41
452.1839, 20374.80
452.6660, 20262.64
453.1481, 20182.96
453.6302, 20131.25
454.1124, 20089.15
454.5945, 20057.88
455.0766, 20028.11
455.5587, 19993.37
456.0408, 19954.24
456.5229, 19911.38
457.0051, 19861.62
457.4872, 19810.37
457.9693, 19760.52
458.4514, 19712.53
458.9335, 19668.83
459.4156, 19629.30
459.8978, 19596.29
460.3799, 19578.92
460.8620, 19588.99
461.3441, 19589.54
461.8262, 19572.23
462.3083, 19543.20
462.7905, 19502.01
463.2726, 19451.40
463.7547, 19410.28
464.2368, 19403.40
464.7189, 19439.60
465.2010, 19431.12
465.6832, 19331.68
466.1653, 19239.77
466.6474, 19178.25
467.1295, 19147.50
467.6116, 19150.09
468.0938, 19190.48
468.5759, 19245.13
469.0580, 19258.21
469.5401, 19214.59
470.0222, 19172.48
470.5043, 19131.36
470.9865, 19102.77
471.4686, 19101.70
471.9507, 19126.14
472.4328, 19149.79
472.9149, 19147.58
473.3970, 19128.16
473.8792, 19128.62
474.3613, 19161.63
474.8434, 19180.95
475.3255, 19135.82
475.8076, 19057.63
476.2897, 19011.81
476.7719, 19021.26
477.2540, 19048.40
477.7361, 19074.64
478.2182, 19098.56
478.7003, 19115.51
479.1824, 19123.58
479.6646, 19125.28
480.1467, 19124.24
480.6288, 19120.94
481.1109, 19113.12
481.5930, 19096.80
482.0751, 19079.00
482.5573, 19065.97
483.0394, 19056.55
483.5215, 19043.87
484.0036, 19021.99
484.4857, 18993.31
484.9678, 18974.23
485.4500, 18975.73
485.9321, 18972.21
486.4142, 18949.22
486.8963, 18925.79
487.3784, 18923.82
487.8605, 18947.52
488.3427, 18977.29
488.8248, 18985.71
489.3069, 18971.05
489.7890, 18979.81
490.2711, 19036.41
490.7532, 19087.13
491.2354, 19084.79
491.7175, 19055.17
492.1996, 19060.97
492.6817, 19149.82
493.1638, 19260.44
493.6459, 19310.35
494.1281, 19305.09
494.6102, 19323.28
495.0923, 19404.18
495.5744, 19512.26
496.0565, 19584.51
496.5386, 19616.83
497.0208, 19644.08
497.5029, 19654.61
497.9850, 19675.63
498.4671, 19747.02
498.9492, 19864.84
499.4313, 19979.08
499.9135, 20047.06
500.3956, 20073.23
500.8777, 20121.86
501.3598, 20229.18
501.8419, 20315.06
502.3240, 20349.27
502.8062, 20363.18
503.2883, 20393.25
503.7704, 20449.90
504.2525, 20515.89
504.7346, 20571.29
505.2167, 20615.57
505.6989, 20652.72
506.1810, 20692.43
506.6631, 20712.43
507.1452, 20699.88
507.6273, 20661.32
508.1094, 20609.68
508.5916, 20541.64
509.0737, 20473.99
509.5558, 20442.88
510.0379, 20446.15
510.5200, 20415.31
511.0021, 20316.69
511.4843, 20184.34
511.9664, 20063.98
512.4485, 19952.94
512.9306, 19863.04
513.4127, 19818.91
513.8948, 19783.81
514.3770, 19717.23
514.8591, 19620.15
515.3412, 19523.93
515.8233, 19451.03
516.3054, 19397.23
516.7875, 19337.42
517.2697, 19257.66
517.7518, 19188.92
518.2339, 19130.98
518.7160, 19086.94
519.1981, 19066.68
519.6802, 19068.52
520.1624, 19070.83
520.6445, 19047.98
521.1266, 18999.27
521.6087, 18954.47
522.0908, 18914.43
522.5729, 18877.70
523.0551, 18838.57
523.5372, 18803.17
524.0193, 18783.00
524.5014, 18785.63
524.9835, 18794.41
525.4656, 18793.25
525.9478, 18783.78
526.4299, 18774.65
526.9120, 18768.48
527.3941, 18762.33
527.8762, 18753.72
528.3583, 18742.86
528.8405, 18725.69
529.3226, 18696.72
529.8047, 18665.79
530.2868, 18636.74
530.7689, 18610.89
531.2510, 18591.77
531.7332, 18581.77
532.2153, 18575.66
532.6974, 18559.39
533.1795, 18518.51
533.6616, 18494.42
534.1437, 18487.75
534.6259, 18495.78
535.1080, 18534.90
535.5901, 18591.04
536.0722, 18620.03
536.5543, 18585.01
537.0364, 18502.93
537.5186, 18415.79
538.0007, 18310.13
538.4828, 18251.50
538.9649, 18307.96
539.4470, 18398.90
539.9291, 18425.75
540.4113, 18373.00
540.8934, 18322.47
541.3755, 18319.72
541.8576, 18342.32
542.3397, 18368.35
542.8218, 18393.31
543.3040, 18378.51
543.7861, 18279.05
544.2682, 18112.60
544.7503, 18033.72
545.2324, 18114.62
545.7145, 18180.20
546.1967, 18183.06
546.6788, 18160.96
547.1609, 18158.50
547.6430, 18183.62
548.1251, 18208.23
548.6072, 18198.86
549.0894, 18154.18
549.5715, 18118.12
550.0536, 18096.41
550.5357, 18075.50
551.0178, 18050.36
551.4999, 18022.93
551.9821, 17994.97
552.4642, 17966.37
552.9463, 17940.03
553.4284, 17913.55
553.9105, 17890.44
554.3926, 17889.75
554.8748, 17920.19
555.3569, 17953.55
555.8390, 17963.32
556.3211, 17949.11
556.8032, 17935.31
557.2853, 17927.56
557.7675, 17914.52
558.2496, 17883.45
558.7317, 17845.14
559.2138, 17819.75
559.6959, 17814.33
560.1780, 17817.74
560.6602, 17812.59
561.1423, 17795.04
561.6244, 17784.71
562.1065, 17794.38
562.5886, 17799.04
563.0707, 17783.91
563.5529, 17758.75
564.0350, 17742.94
564.5171, 17747.46
564.9992, 17756.76
565.4813, 17753.41
565.9634, 17737.30
566.4456, 17702.74
566.9277, 17638.93
567.4098, 17572.49
567.8919, 17531.23
568.3740, 17512.95
568.8561, 17505.79
569.3383, 17527.24
569.8204, 17541.45
570.3025, 17512.39
570.7846, 17457.95
571.2667, 17424.54
571.7488, 17431.79
572.2310, 17458.39
572.7131, 17466.00
573.1952, 17445.38
573.6773, 17430.55
574.1594, 17432.27
574.6415, 17428.87
575.1237, 17406.67
575.6058, 17372.54
576.0879, 17342.87
576.5700, 17327.71
577.0521, 17315.01
577.5342, 17277.89
578.0164, 17216.16
578.4985, 17182.68
578.9806, 17204.51
579.4627, 17236.42
579.9448, 17223.48
580.4269, 17171.87
580.9091, 17136.74
581.3912, 17143.56
581.8733, 17156.52
582.3554, 17148.35
582.8375, 17126.36
583.3196, 17113.77
583.8018, 17120.85
584.2839, 17131.76
584.7660, 17117.58
585.2481, 17067.24
585.7302, 17023.28
586.2123, 16978.84
586.6945, 16946.98
587.1766, 16941.15
587.6587, 16950.87
588.1408, 16957.44
588.6229, 16954.14
589.1050, 16938.34
589.5872, 16901.46
590.0693, 16844.16
590.5514, 16790.70
591.0335, 16745.37
591.5156, 16705.96
591.9977, 16666.17
592.4799, 16627.73
592.9620, 16610.34
593.4441, 16645.03
593.9262, 16673.54
594.4083, 16654.41
594.8904, 16605.42
595.3726, 16561.30
595.8547, 16534.53
596.3368, 16519.74
596.8189, 16510.53
597.3010, 16508.46
597.7831, 16504.25
598.2653, 16496.10
598.7474, 16487.53
599.2295, 16483.50
599.7116, 16478.66
600.1937, 16466.05
600.6758, 16444.08
601.1580, 16410.01
601.6401, 16347.79
602.1222, 16267.23
602.6043, 16220.25
603.0864, 16220.65
603.5685, 16234.75
604.0507, 16240.59
604.5328, 16236.59
605.0149, 16216.71
605.4970, 16151.97
605.9791, 16105.46
606.4612, 16125.12
606.9434, 16163.83
607.4255, 16151.20
607.9076, 16076.83
608.3897, 15997.65
608.8718, 15977.17
609.3539, 16013.87
609.8361, 16039.22
610.3182, 16055.26
610.8003, 16055.75
611.2824, 16031.24
611.7645, 15995.32
612.2466, 15959.99
612.7288, 15926.97
613.2109, 15900.08
613.6930, 15879.99
614.1751, 15868.50
614.6572, 15878.81
615.1393, 15910.67
615.6215, 15919.62
616.1036, 15869.81
616.5857, 15782.62
617.0678, 15735.07
617.5499, 15773.24
618.0320, 15787.13
618.5142, 15758.88
618.9963, 15715.01
619.4784, 15668.05
619.9605, 15623.69
620.4426, 15590.36
620.9247, 15576.12
621.4069, 15573.98
621.8890, 15564.82
622.3711, 15546.91
622.8532, 15532.55
623.3353, 15528.20
623.8174, 15525.17
624.2996, 15518.18
624.7817, 15506.87
625.2638, 15481.21
625.7459, 15422.48
626.2280, 15362.40
626.7101, 15327.24
627.1923, 15311.04
627.6744, 15296.61
628.1565, 15277.33
628.6386, 15255.35
629.1207, 15234.18
629.6028, 15213.79
630.0850, 15194.37
630.5671, 15170.29
631.0492, 15153.40
631.5313, 15156.14
632.0134, 15166.02
632.4955, 15164.76
632.9777, 15146.57
633.4598, 15116.07
633.9419, 15066.14
634.4240, 15006.88
634.9061, 14974.97
635.3882, 14977.36
635.8704, 14991.37
636.3525, 15002.57
636.8346, 15011.16
637.3167, 15018.51
637.7988, 15045.63
638.2809, 15044.29
638.7631, 14974.42
639.2452, 14893.84
639.7273, 14857.65
640.2094, 14868.32
640.6915, 14895.89
641.1736, 14922.47
641.6558, 14943.36
642.1379, 14935.38
642.6200, 14888.95
643.1021, 14857.35
643.5842, 14873.97
644.0663, 14894.34
644.5485, 14856.38
645.0306, 14762.73
645.5127, 14711.87
645.9948, 14779.78
646.4769, 14858.72
646.9590, 14859.88
647.4412, 14802.48
647.9233, 14735.45
648.4054, 14677.98
648.8875, 14637.33
649.3696, 14628.72
649.8517, 14661.76
650.3339, 14677.75
650.8160, 14662.85
651.2981, 14646.57
651.7802, 14635.53
652.2623, 14630.19
652.7444, 14634.53
653.2266, 14652.26
653.7087, 14660.94
654.1908, 14623.36
654.6729, 14568.60
655.1550, 14575.34
655.6371, 14650.67
656.1193, 14705.60
656.6014, 14677.27
657.0835, 14588.19
657.5656, 14524.25
658.0477, 14504.34
658.5298, 14484.83
659.0120, 14463.22
659.4941, 14443.69
659.9762, 14430.07
660.4583, 14421.03
660.9404, 14410.93
661.4225, 14393.98
661.9047, 14379.58
662.3868, 14392.14
662.8689, 14430.20
663.3510, 14444.00
663.8331, 14416.26
664.3152, 14376.54
664.7974, 14351.75
665.2795, 14341.49
665.7616, 14330.39
666.2437, 14308.90
666.7258, 14297.27
667.2079, 14317.86
667.6901, 14345.24
668.1722, 14345.84
668.6543, 14314.65
669.1364, 14272.73
669.6185, 14238.96
670.1006, 14211.53
670.5828, 14176.81
671.0649, 14128.26
671.5470, 14093.51
672.0291, 14083.95
672.5112, 14091.01
672.9933, 14115.86
673.4755, 14160.08
673.9576, 14165.64
674.4397, 14077.94
674.9218, 13978.26
675.4039, 13928.57
675.8860, 13918.69
676.3682, 13920.61
676.8503, 13923.29
677.3324, 13924.33
677.8145, 13919.66
678.2966, 13908.49
678.7787, 13899.93
679.2609, 13907.71
679.7430, 13897.46
680.2251, 13837.84
680.7072, 13762.38
681.1893, 13715.49
681.6714, 13707.10
682.1536, 13706.61
682.6357, 13708.67
683.1178, 13702.61
683.5999, 13663.73
684.0820, 13597.95
684.5641, 13545.76
685.0463, 13529.39
685.5284, 13537.63
686.0105, 13546.21
686.4926, 13559.42
686.9747, 13562.41
687.4568, 13548.02
687.9390, 13530.23
688.4211, 13516.36
688.9032, 13502.64
689.3853, 13480.67
689.8674, 13445.49
690.3495, 13409.39
690.8317, 13387.63
691.3138, 13371.49
691.7959, 13333.58
692.2780, 13272.02
692.7601, 13227.75
693.2422, 13234.05
693.7244, 13275.30
694.2065, 13289.81
694.6886, 13245.84
695.1707, 13226.76
695.6528, 13270.31
696.1349, 13305.90
696.6171, 13279.19
697.0992, 13208.77
697.5813, 13149.96
698.0634, 13127.79
698.5455, 13127.58
699.0276, 13140.26
699.5098, 13161.52
699.9919, 13175.97
700.4740, 13180.64
700.9561, 13178.62
701.4382, 13169.91
701.9203, 13156.62
702.4025, 13155.42
702.8846, 13170.76
703.3667, 13192.90
703.8488, 13242.54
704.3309, 13281.78
704.8130, 13271.83
705.2952, 13223.08
705.7773, 13183.22
706.2594, 13185.00
706.7415, 13200.02
707.2236, 13186.87
707.7057, 13149.46
708.1879, 13113.03
708.6700, 13084.14
709.1521, 13051.51
709.6342, 13003.40
710.1163, 12940.46
710.5984, 12882.63
711.0806, 12825.16
711.5627, 12778.66
712.0448, 12750.95
712.5269, 12730.35
713.0090, 12708.50
713.4911, 12684.08
713.9733, 12657.70
714.4554, 12626.20
714.9375, 12597.50
715.4196, 12593.78
715.9017, 12609.78
716.3839, 12598.44
716.8660, 12543.00
717.3481, 12479.04
717.8302, 12440.07
718.3123, 12426.22
718.7944, 12418.49
719.2766, 12438.81
719.7587, 12436.37
720.2408, 12385.81
720.7229, 12320.19
721.2050, 12256.83
721.6871, 12205.37
722.1693, 12188.56
722.6514, 12244.17
723.1335, 12318.67
723.6156, 12314.63
724.0977, 12242.55
724.5798, 12177.55
725.0620, 12138.43
725.5441, 12115.76
726.0262, 12102.16
726.5083, 12097.58
726.9904, 12091.25
727.4725, 12081.47
727.9547, 12072.06
728.4368, 12072.13
728.9189, 12066.76
729.4010, 12035.65
729.8831, 11983.41
730.3652, 11939.78
730.8474, 11927.75
731.3295, 11928.81
731.8116, 11914.87
732.2937, 11889.33
732.7758, 11869.74
733.2579, 11860.85
733.7401, 11856.28
734.2222, 11850.84
734.7043, 11844.43
735.1864, 11831.56
735.6685, 11801.69
736.1506, 11779.46
736.6328, 11767.31
737.1149, 11764.12
737.5970, 11778.72
738.0791, 11803.94
738.5612, 11810.79
739.0433, 11777.49
739.5255, 11727.41
740.0076, 11676.02
740.4897, 11629.38
740.9718, 11612.02
741.4539, 11629.56
741.9360, 11657.15
742.4182, 11676.35
742.9003, 11684.93
743.3824, 11660.31
743.8645, 11567.53
744.3466, 11501.90
744.8287, 11491.92
745.3109, 11496.37
745.7930, 11494.42
746.2751, 11483.79
746.7572, 11463.18
747.2393, 11419.81
747.7214, 11384.63
748.2036, 11397.97
748.6857, 11433.88
749.1678, 11439.69
749.6499, 11408.21
750.1320, 11366.85
750.6141, 11335.41
751.0963, 11312.54
751.5784, 11293.93
752.0605, 11282.00
752.5426, 11267.34
753.0247, 11245.91
753.5068, 11224.33
753.9890, 11206.39
754.4711, 11191.33
754.9532, 11177.13
755.4353, 11163.59
755.9174, 11150.18
756.3995, 11137.83
756.8817, 11124.73
757.3638, 11105.61
757.8459, 11082.66
758.3280, 11068.33
758.8101, 11071.93
759.2922, 11080.35
759.7744, 11062.98
760.2565, 11016.94
760.7386, 10972.94
761.2207, 10927.82
761.7028, 10897.15
762.1849, 10897.86
762.6671, 10918.90
763.1492, 10931.29
763.6313, 10930.65
764.1134, 10930.12
764.5955, 10948.76
765.0776, 10954.59
765.5598, 10902.85
766.0419, 10820.89
766.5240, 10778.10
767.0061, 10805.37
767.4882, 10851.33
767.9703, 10846.94
768.4525, 10802.02
768.9346, 10773.36
769.4167, 10766.98
769.8988, 10751.31
770.3809, 10703.80
770.8630, 10646.53
771.3452, 10624.67
771.8273, 10655.69
772.3094, 10671.92
772.7915, 10665.29
773.2736, 10653.66
773.7557, 10646.33
774.2379, 10637.32
774.7200, 10613.25
775.2021, 10572.12
775.6842, 10538.90
776.1663, 10537.25
776.6484, 10552.37
777.1306, 10561.50
777.6127, 10565.44
778.0948, 10576.12
778.5769, 10599.12
779.0590, 10611.04
779.5411, 10577.68
780.0233, 10497.48
780.5054, 10445.02
780.9875, 10430.10
781.4696, 10427.47
781.9517, 10446.23
782.4338, 10463.41
782.9160, 10455.99
783.3981, 10426.37
783.8802, 10402.40
784.3623, 10392.09
784.8444, 10391.83
785.3265, 10413.33
785.8087, 10437.51
786.2908, 10422.29
786.7729, 10369.32
787.2550, 10337.07
787.7371, 10378.23
788.2192, 10459.63
788.7014, 10481.41
789.1835, 10437.15
789.6656, 10396.03
790.1477, 10368.46
790.6298, 10348.92
791.1119, 10337.86
791.5941, 10331.88
792.0762, 10314.80
792.5583, 10271.46
793.0404, 10241.47
793.5225, 10233.81
794.0046, 10238.79
794.4868, 10260.19
794.9689, 10287.10
795.4510, 10297.62
795.9331, 10281.71
796.4152, 10254.18
796.8973, 10224.89
797.3795, 10197.03
797.8616, 10179.56
798.3437, 10172.74
798.8258, 10171.80
799.3079, 10175.63
799.7900, 10179.27
800.2722, 10172.89
800.7543, 10153.27
801.2364, 10138.19
801.7185, 10125.67
802.2006, 10120.74
802.6827, 10133.41
803.1649, 10148.91
803.6470, 10152.10
804.1291, 10141.44
804.6112, 10121.28
805.0933, 10074.60
805.5754, 10037.10
806.0576, 10049.60
806.5397, 10085.77
807.0218, 10094.09
807.5039, 10066.21
807.9860, 10040.06
808.4681, 10052.67
808.9503, 10089.71
809.4324, 10104.87
809.9145, 10096.98
810.3966, 10087.15
810.8787, 10079.72
811.3608, 10071.31
811.8430, 10054.08
812.3251, 10032.01
812.8072, 10035.24
813.2893, 10111.14
813.7714, 10143.37
814.2535, 10080.58
814.7357, 10010.10
815.2178, 9988.237
815.6999, 10004.86
816.1820, 10028.85
816.6641, 10051.98
817.1462, 10066.47
817.6284, 10063.93
818.1105, 10049.79
818.5926, 10027.48
819.0747, 10000.79
819.5568, 9983.197
820.0389, 9980.909
820.5211, 9992.193
821.0032, 10024.43
821.4852, 10082.26
821.9673, 10072.13
822.4495, 9956.940
822.9316, 9868.186
823.4137, 9860.959
823.8958, 9899.108
824.3779, 9948.361
824.8600, 10010.04
825.3422, 10041.33
825.8243, 10019.50
826.3064, 9987.971
826.7885, 9953.416
827.2706, 9924.269
827.7527, 9915.484
828.2349, 9922.727
828.7170, 9918.788
829.1991, 9879.495
829.6812, 9834.311
830.1633, 9829.090
830.6454, 9851.004
831.1276, 9858.079
831.6097, 9843.978
832.0918, 9823.095
832.5739, 9804.083
833.0560, 9787.909
833.5381, 9778.771
834.0203, 9781.457
834.5024, 9774.565
834.9845, 9754.477
835.4666, 9728.926
835.9487, 9690.299
836.4308, 9653.117
836.9130, 9642.884
837.3951, 9667.302
837.8772, 9683.544
838.3593, 9672.918
838.8414, 9659.679
839.3235, 9660.219
839.8057, 9666.999
840.2878, 9668.202
840.7699, 9661.076
841.2520, 9649.563
841.7341, 9631.021
842.2162, 9614.841
842.6984, 9626.355
843.1805, 9658.329
843.6626, 9671.313
844.1447, 9655.748
844.6268, 9631.337
845.1089, 9613.054
845.5911, 9601.148
846.0732, 9597.155
846.5553, 9604.811
847.0374, 9610.300
847.5195, 9612.080
848.0016, 9611.836
848.4838, 9610.813
848.9659, 9608.448
849.4480, 9603.381
849.9301, 9594.746
850.4122, 9585.750
850.8943, 9573.340
851.3765, 9564.654
851.8586, 9570.671
852.3407, 9581.786
852.8228, 9579.374
853.3049, 9559.309
853.7870, 9538.811
854.2692, 9530.040
854.7513, 9532.327
855.2334, 9554.931
855.7155, 9590.255
856.1976, 9595.003
856.6797, 9557.116
857.1619, 9517.024
857.6440, 9513.589
858.1261, 9538.172
858.6082, 9542.363
859.0903, 9516.861
859.5724, 9501.279
860.0546, 9505.924
860.5367, 9514.014
861.0188, 9514.056
861.5009, 9509.473
861.9830, 9509.399
862.4651, 9519.216
862.9473, 9520.854
863.4294, 9499.681
863.9115, 9480.942
864.3936, 9486.493
864.8757, 9502.134
865.3578, 9502.871
865.8400, 9482.958
866.3221, 9460.372
866.8042, 9437.739
867.2863, 9427.265
867.7684, 9458.309
868.2505, 9515.463
868.7327, 9553.078
869.2148, 9560.156
869.6969, 9550.589
870.1790, 9534.514
870.6611, 9514.396
871.1432, 9497.206
871.6254, 9481.869
872.1075, 9480.632
872.5896, 9503.450
873.0717, 9518.881
873.5538, 9499.968
874.0359, 9462.041
874.5181, 9447.483
875.0002, 9467.519
875.4823, 9486.461
875.9644, 9502.473
876.4465, 9519.260
876.9286, 9538.654
877.4108, 9559.572
877.8929, 9583.368
878.3750, 9609.539
878.8571, 9625.995
879.3392, 9615.266
879.8214, 9604.417
880.3035, 9615.447
880.7856, 9641.025
881.2677, 9669.817
881.7498, 9699.729
882.2319, 9734.067
882.7141, 9776.454
883.1962, 9820.044
883.6783, 9848.984
884.1604, 9866.524
884.6425, 9896.525
885.1246, 9942.306
885.6068, 9986.324
886.0889, 10019.21
886.5710, 10045.34
887.0531, 10074.07
887.5352, 10108.41
888.0173, 10127.53
888.4995, 10122.99
888.9816, 10117.78
889.4637, 10121.61
889.9458, 10125.90
890.4279, 10125.99
890.9100, 10120.87
891.3922, 10099.62
891.8743, 10052.18
892.3564, 9999.427
892.8385, 9940.295
893.3206, 9884.633
893.8027, 9840.153
894.2849, 9806.622
894.7670, 9781.437
895.2491, 9763.690
895.7312, 9752.817
896.2133, 9754.491
896.6954, 9759.052
897.1776, 9750.557
897.6597, 9731.066
898.1418, 9704.611
898.6239, 9673.884
899.1060, 9664.831
899.5881, 9720.921
900.0703, 9817.436
900.5524, 9827.657
901.0345, 9746.309
901.5166, 9700.541
901.9987, 9726.486
902.4808, 9763.763
902.9630, 9760.989
903.4451, 9731.116
903.9272, 9729.077
904.4093, 9776.500
904.8914, 9806.939
905.3735, 9807.779
905.8557, 9804.658
906.3378, 9812.856
906.8199, 9821.753
907.3020, 9812.770
907.7841, 9781.963
908.2662, 9760.345
908.7484, 9760.273
909.2305, 9765.176
909.7126, 9774.061
910.1947, 9778.905
910.6768, 9761.713
911.1589, 9729.138
911.6411, 9717.612
912.1232, 9756.493
912.6053, 9801.045
913.0874, 9802.777
913.5695, 9781.063
914.0516, 9763.360
914.5338, 9755.183
915.0159, 9767.293
915.4980, 9804.985
915.9801, 9843.445
916.4622, 9842.727
916.9443, 9810.618
917.4265, 9798.624
917.9086, 9807.262
918.3907, 9829.452
918.8728, 9869.304
919.3549, 9896.046
919.8370, 9875.174
920.3192, 9815.936
920.8013, 9782.416
921.2834, 9792.240
921.7655, 9785.048
922.2476, 9748.313
922.7297, 9703.455
923.2119, 9655.966
923.6940, 9610.275
924.1761, 9576.056
924.6582, 9556.834
925.1403, 9534.688
925.6224, 9497.563
926.1046, 9468.293
926.5867, 9467.336
927.0688, 9472.405
927.5509, 9453.154
928.0330, 9412.326
928.5151, 9383.741
928.9973, 9386.851
929.4794, 9399.617
929.9615, 9417.436
930.4436, 9428.203
930.9257, 9408.961
931.4078, 9367.879
931.8900, 9335.020
932.3721, 9323.271
932.8542, 9318.585
933.3363, 9299.967
933.8184, 9277.699
934.3005, 9289.128
934.7827, 9326.494
935.2648, 9332.839
935.7469, 9292.433
936.2290, 9250.235
936.7111, 9248.579
937.1932, 9273.182
937.6754, 9270.321
938.1575, 9235.253
938.6396, 9213.133
939.1217, 9209.992
939.6038, 9216.928
940.0859, 9234.710
940.5681, 9253.136
941.0502, 9251.330
941.5323, 9222.876
942.0144, 9207.900
942.4965, 9215.078
942.9786, 9223.563
943.4608, 9235.239
943.9429, 9241.334
944.4250, 9231.803
944.9071, 9209.850
945.3892, 9189.644
945.8713, 9165.858
946.3535, 9156.921
946.8356, 9180.849
947.3177, 9208.003
947.7998, 9223.351
948.2819, 9225.557
948.7640, 9206.928
949.2462, 9167.175
949.7283, 9146.710
950.2104, 9196.671
950.6925, 9249.406
951.1746, 9231.511
951.6567, 9181.112
952.1389, 9160.072
952.6210, 9174.376
953.1031, 9199.592
953.5852, 9223.807
954.0673, 9239.601
954.5494, 9233.343
955.0316, 9211.844
955.5137, 9190.155
955.9958, 9170.160
956.4779, 9155.419
956.9600, 9147.242
957.4421, 9145.916
957.9243, 9153.840
958.4064, 9167.455
958.8885, 9167.283
959.3706, 9151.997
959.8527, 9147.805
960.3348, 9160.156
960.8170, 9181.071
961.2991, 9211.221
961.7812, 9236.937
962.2633, 9220.068
962.7454, 9140.762
963.2275, 9111.061
963.7097, 9157.339
964.1918, 9203.621
964.6739, 9236.644
965.1560, 9249.577
965.6381, 9223.523
966.1202, 9163.332
966.6024, 9131.391
967.0845, 9146.233
967.5666, 9161.938
968.0487, 9178.399
968.5308, 9190.390
969.0129, 9198.273
969.4951, 9198.449
969.9772, 9179.238
970.4593, 9136.424
970.9414, 9112.574
971.4235, 9131.682
971.9056, 9161.476
972.3878, 9200.652
972.8699, 9230.968
973.3520, 9227.811
973.8341, 9196.839
974.3162, 9164.569
974.7983, 9139.827
975.2805, 9124.948
975.7626, 9122.167
976.2447, 9129.819
976.7268, 9154.789
977.2089, 9186.602
977.6910, 9199.858
978.1732, 9189.440
978.6553, 9176.237
979.1374, 9177.143
979.6195, 9185.000
980.1016, 9192.040
980.5837, 9195.969
981.0659, 9187.183
981.5480, 9166.615
982.0301, 9147.259
982.5122, 9135.400
982.9943, 9132.958
983.4764, 9148.226
983.9586, 9176.212
984.4407, 9183.639
984.9228, 9171.012
985.4049, 9169.762
985.8870, 9189.515
986.3691, 9205.306
986.8513, 9195.000
987.3334, 9168.746
987.8155, 9157.159
988.2976, 9161.797
988.7797, 9172.134
989.2618, 9190.884
989.7440, 9204.551
990.2261, 9205.240
990.7082, 9202.756
991.1903, 9210.618
991.6724, 9228.370
992.1545, 9236.780
992.6367, 9233.518
993.1188, 9225.148
993.6009, 9206.361
994.0830, 9190.225
994.5651, 9185.293
995.0472, 9187.992
995.5294, 9190.688
996.0115, 9192.187
996.4936, 9198.903
996.9757, 9220.275
997.4578, 9235.025
997.9399, 9227.352
998.4221, 9219.221
998.9042, 9233.398
999.3863, 9263.727
999.8684, 9284.792
1000.351, 9288.957
1000.833, 9290.888
1001.315, 9290.713
1001.797, 9293.705
1002.279, 9309.001
1002.761, 9326.049
1003.243, 9331.162
1003.725, 9322.756
1004.207, 9306.441
1004.690, 9266.370
1005.172, 9245.412
1005.654, 9297.876
1006.136, 9357.965
1006.618, 9348.283
1007.100, 9292.241
1007.582, 9253.860
1008.064, 9252.971
1008.547, 9264.809
1009.029, 9273.825
1009.511, 9284.682
1009.993, 9309.597
1010.475, 9336.171
1010.957, 9337.964
1011.439, 9319.025
1011.921, 9310.967
1012.403, 9330.597
1012.886, 9355.940
1013.368, 9363.094
1013.850, 9359.362
1014.332, 9354.190
1014.814, 9350.227
1015.296, 9357.193
1015.778, 9375.308
1016.260, 9387.313
1016.742, 9378.254
1017.225, 9362.854
1017.707, 9373.713
1018.189, 9399.896
1018.671, 9392.749
1019.153, 9355.243
1019.635, 9340.964
1020.117, 9369.656
1020.599, 9411.106
1021.082, 9434.447
1021.564, 9445.590
1022.046, 9469.192
1022.528, 9502.886
1023.010, 9507.159
1023.492, 9475.813
1023.974, 9449.848
1024.456, 9450.868
1024.938, 9462.928
1025.421, 9461.228
1025.903, 9447.708
1026.385, 9446.988
1026.867, 9460.063
1027.349, 9479.579
1027.831, 9507.596
1028.313, 9525.198
1028.795, 9517.554
1029.278, 9494.939
1029.760, 9478.806
1030.242, 9468.438
1030.724, 9472.419
1031.206, 9498.011
1031.688, 9512.112
1032.170, 9502.915
1032.652, 9484.270
1033.135, 9461.788
1033.617, 9442.872
1034.099, 9460.112
1034.581, 9537.496
1035.063, 9578.975
1035.545, 9565.175
1036.027, 9554.290
1036.509, 9575.431
1036.991, 9597.864
1037.474, 9582.018
1037.956, 9533.614
1038.438, 9513.423
1038.920, 9542.896
1039.402, 9558.601
1039.884, 9543.231
1040.366, 9533.489
1040.848, 9554.285
1041.330, 9584.004
1041.813, 9587.014
1042.295, 9560.649
1042.777, 9565.193
1043.259, 9637.356
1043.741, 9686.067
1044.223, 9690.256
1044.705, 9682.464
1045.187, 9674.756
1045.670, 9669.034
1046.152, 9669.433
1046.634, 9677.561
1047.116, 9680.676
1047.598, 9669.881
1048.080, 9664.819
1048.562, 9672.860
1049.044, 9685.273
1049.526, 9702.129
1050.009, 9717.169
1050.491, 9714.960
1050.973, 9688.313
1051.455, 9669.565
1051.937, 9659.748
1052.419, 9663.796
1052.901, 9694.814
1053.383, 9730.870
1053.865, 9756.535
1054.348, 9770.560
1054.830, 9771.501
1055.312, 9752.311
1055.794, 9741.764
1056.276, 9754.671
1056.758, 9768.571
1057.240, 9769.986
1057.722, 9769.200
1058.205, 9779.438
1058.687, 9798.518
1059.169, 9813.124
1059.651, 9821.150
1060.133, 9821.578
1060.615, 9800.996
1061.097, 9787.199
1061.579, 9806.096
1062.062, 9835.135
1062.544, 9842.563
1063.026, 9829.485
1063.508, 9825.378
1063.990, 9843.039
1064.472, 9864.004
1064.954, 9884.478
1065.436, 9902.479
1065.918, 9917.234
1066.401, 9928.269
1066.883, 9937.140
1067.365, 9942.897
1067.847, 9936.829
1068.329, 9898.972
1068.811, 9874.602
1069.293, 9894.460
1069.775, 9924.762
1070.257, 9941.416
1070.740, 9949.129
1071.222, 9958.918
1071.704, 9972.566
1072.186, 9984.225
1072.668, 9986.249
1073.150, 9992.582
1073.632, 10018.22
1074.114, 10043.12
1074.596, 10044.40
1075.079, 10034.16
1075.561, 10038.72
1076.043, 10062.75
1076.525, 10081.01
1077.007, 10075.23
1077.489, 10070.16
1077.971, 10081.87
1078.453, 10096.66
1078.936, 10102.49
1079.418, 10101.43
1079.900, 10097.72
1080.382, 10092.45
1080.864, 10094.57
1081.346, 10116.56
1081.828, 10136.50
1082.310, 10132.26
1082.792, 10129.56
1083.275, 10169.22
1083.757, 10225.74
1084.239, 10229.72
1084.721, 10161.90
1085.203, 10123.95
1085.685, 10198.35
1086.167, 10267.04
1086.649, 10251.57
1087.131, 10213.64
1087.614, 10211.66
1088.096, 10237.53
1088.578, 10259.05
1089.060, 10268.27
1089.542, 10275.95
1090.024, 10283.62
1090.506, 10294.40
1090.988, 10312.04
1091.471, 10331.83
1091.953, 10357.96
1092.435, 10380.58
1092.917, 10368.16
1093.399, 10306.11
1093.881, 10280.43
1094.363, 10361.00
1094.845, 10438.07
1095.328, 10456.78
1095.810, 10449.65
1096.292, 10440.77
1096.774, 10433.54
1097.256, 10428.07
1097.738, 10424.38
1098.220, 10422.37
1098.702, 10406.94
1099.184, 10412.29
1099.667, 10476.98
1100.149, 10548.52
1100.631, 10582.86
1101.113, 10585.06
1101.595, 10571.08
1102.077, 10537.74
1102.559, 10523.99
1103.041, 10548.67
1103.523, 10582.54
1104.006, 10618.82
1104.488, 10656.37
1104.970, 10699.09
1105.452, 10741.47
1105.934, 10770.85
1106.416, 10784.74
1106.898, 10790.57
1107.380, 10780.95
1107.863, 10774.98
1108.345, 10776.08
1108.827, 10785.16
1109.309, 10807.33
1109.791, 10836.89
1110.273, 10860.11
1110.755, 10873.62
1111.237, 10892.22
1111.719, 10929.29
1112.202, 10954.90
1112.684, 10947.99
1113.166, 10941.36
1113.648, 10961.89
1114.130, 10998.34
1114.612, 11027.17
1115.094, 11050.45
1115.576, 11054.36
1116.058, 11013.16
1116.541, 10992.04
1117.023, 11007.15
1117.505, 11038.98
1117.987, 11081.75
1118.469, 11129.78
1118.951, 11172.85
1119.433, 11212.12
1119.915, 11237.86
1120.398, 11244.34
1120.880, 11249.19
1121.362, 11254.07
1121.844, 11259.18
1122.326, 11261.59
1122.808, 11267.42
1123.290, 11288.92
1123.772, 11326.92
1124.255, 11361.91
1124.737, 11395.89
1125.219, 11417.76
1125.701, 11417.85
1126.183, 11429.77
1126.665, 11478.63
1127.147, 11535.73
1127.629, 11551.90
1128.111, 11531.18
1128.594, 11556.55
1129.076, 11639.94
1129.558, 11688.87
1130.040, 11686.97
1130.522, 11672.86
1131.004, 11661.44
1131.486, 11664.53
1131.968, 11700.77
1132.450, 11763.72
1132.933, 11819.73
1133.415, 11868.66
1133.897, 11892.68
1134.379, 11889.02
1134.861, 11908.77
1135.343, 11975.59
1135.825, 12047.56
1136.307, 12078.21
1136.790, 12079.13
1137.272, 12076.60
1137.754, 12073.70
1138.236, 12090.83
1138.718, 12127.49
1139.200, 12166.52
1139.682, 12201.68
1140.164, 12234.17
1140.646, 12264.31
1141.129, 12294.42
1141.611, 12330.42
1142.093, 12369.47
1142.575, 12404.39
1143.057, 12435.19
1143.539, 12462.86
1144.021, 12488.15
1144.503, 12513.61
1144.985, 12541.93
1145.468, 12567.94
1145.950, 12575.05
1146.432, 12583.15
1146.914, 12629.63
1147.396, 12698.96
1147.878, 12759.59
1148.360, 12803.42
1148.842, 12826.98
1149.325, 12820.57
1149.807, 12828.29
1150.289, 12910.27
1150.771, 12997.18
1151.253, 13008.47
1151.735, 12992.20
1152.217, 13019.95
1152.699, 13091.09
1153.182, 13167.92
1153.664, 13242.79
1154.146, 13295.96
1154.628, 13290.21
1155.110, 13293.17
1155.592, 13353.50
1156.074, 13432.36
1156.556, 13498.75
1157.038, 13548.61
1157.521, 13577.33
1158.003, 13578.91
1158.485, 13595.66
1158.967, 13648.95
1159.449, 13701.17
1159.931, 13736.97
1160.413, 13772.43
1160.895, 13820.04
1161.377, 13874.39
1161.860, 13926.71
1162.342, 13977.44
1162.824, 14019.72
1163.306, 14048.98
1163.788, 14078.67
1164.270, 14112.13
1164.752, 14142.56
1165.234, 14161.61
1165.717, 14183.36
1166.199, 14229.41
1166.681, 14295.78
1167.163, 14340.28
1167.645, 14349.55
1168.127, 14405.05
1168.609, 14526.93
1169.091, 14625.45
1169.573, 14663.86
1170.056, 14682.31
1170.538, 14720.07
1171.020, 14767.43
1171.502, 14789.35
1171.984, 14788.58
1172.466, 14818.58
1172.948, 14880.18
1173.430, 14956.65
1173.912, 15042.27
##END=



