##NAMES=Barysilite
##RRUFFID=R100057
##IDEAL CHEMISTRY=Pb^2+^_8_Mn^2+^(Si_2_O_7_)_3_
##LOCALITY=Langban, Filipstad, Varmland, Sweden
##OWNER=RRUFF
##SOURCE=William W Pinch
##DESCRIPTION=Aggregate of colorless plates
##STATUS=The identification of this mineral has been confirmed by single-crystal X-ray diffraction.
##URL=rruff.info/R100057
91.53320, 603.6803
92.01532, 604.9208
92.49744, 603.8646
92.97955, 608.5570
93.46167, 611.8853
93.94379, 609.2137
94.42590, 603.5740
94.90802, 597.4391
95.39014, 591.6984
95.87225, 585.9371
96.35437, 581.9756
96.83649, 579.7931
97.31860, 580.0149
97.80072, 583.6028
98.28284, 590.2485
98.76495, 599.2401
99.24707, 610.7412
99.72919, 623.3021
100.2113, 640.7095
100.6934, 665.7905
101.1755, 696.3026
101.6577, 728.2440
102.1398, 759.7156
102.6219, 793.2205
103.1040, 812.0934
103.5861, 818.6738
104.0682, 813.8640
104.5504, 796.0213
105.0325, 765.8576
105.5146, 727.3984
105.9967, 685.3038
106.4788, 636.7993
106.9609, 591.5445
107.4431, 548.7922
107.9252, 509.5814
108.4073, 475.7085
108.8894, 447.9333
109.3715, 425.3319
109.8536, 406.4745
110.3358, 391.1186
110.8179, 377.9787
111.3000, 366.7576
111.7821, 357.3601
112.2642, 348.9738
112.7463, 341.7917
113.2285, 335.2708
113.7106, 328.9020
114.1927, 322.6646
114.6748, 316.4697
115.1569, 310.3149
115.6390, 304.2423
116.1212, 297.9294
116.6033, 291.1547
117.0854, 284.1400
117.5675, 277.0605
118.0496, 269.9592
118.5317, 262.8517
119.0139, 255.9016
119.4960, 249.0995
119.9781, 242.5074
120.4602, 235.9660
120.9423, 229.6158
121.4244, 223.7266
121.9066, 218.5102
122.3887, 213.9885
122.8708, 209.7752
123.3529, 205.9515
123.8350, 202.2581
124.3171, 198.3449
124.7993, 194.3083
125.2814, 190.8104
125.7635, 188.6093
126.2456, 188.0660
126.7277, 187.2266
127.2098, 185.8348
127.6920, 184.2369
128.1741, 182.7569
128.6562, 181.4592
129.1383, 180.3055
129.6204, 179.2512
130.1025, 178.2766
130.5847, 177.4631
131.0668, 176.9027
131.5489, 176.5416
132.0310, 176.2367
132.5131, 176.1562
132.9952, 175.8671
133.4774, 175.1141
133.9595, 173.8894
134.4416, 172.2160
134.9237, 170.0772
135.4058, 167.4387
135.8879, 164.5069
136.3701, 160.7838
136.8522, 157.1289
137.3343, 154.1312
137.8164, 151.9054
138.2985, 150.0658
138.7806, 147.9109
139.2628, 145.1678
139.7449, 142.5986
140.2270, 140.1992
140.7091, 137.9995
141.1912, 136.0554
141.6733, 134.4003
142.1555, 132.9572
142.6376, 131.4932
143.1197, 129.9130
143.6018, 128.4168
144.0839, 127.1419
144.5660, 125.9514
145.0482, 124.6196
145.5303, 123.0045
146.0124, 121.1459
146.4945, 119.3120
146.9766, 117.3427
147.4587, 115.5470
147.9409, 114.1020
148.4230, 112.9665
148.9051, 111.9532
149.3872, 110.9612
149.8693, 109.9892
150.3514, 108.9966
150.8336, 107.8310
151.3157, 106.7387
151.7978, 105.8982
152.2799, 105.3038
152.7620, 105.0047
153.2441, 105.1494
153.7263, 105.6131
154.2084, 106.2556
154.6905, 106.8614
155.1726, 107.6349
155.6547, 109.0796
156.1368, 111.3801
156.6190, 114.0706
157.1011, 116.7341
157.5832, 119.5249
158.0653, 122.7897
158.5474, 126.6550
159.0295, 131.1347
159.5117, 136.4138
159.9938, 142.7759
160.4759, 149.8407
160.9580, 157.5830
161.4401, 165.9034
161.9222, 174.5580
162.4044, 183.2338
162.8865, 191.8411
163.3686, 201.3712
163.8507, 212.6986
164.3328, 224.1837
164.8149, 235.2164
165.2971, 245.7597
165.7792, 255.7886
166.2613, 265.3307
166.7434, 274.0724
167.2255, 283.1310
167.7076, 292.7693
168.1898, 302.5381
168.6719, 312.2381
169.1540, 321.8252
169.6361, 331.0263
170.1182, 339.3875
170.6003, 346.3629
171.0825, 353.8758
171.5646, 361.9563
172.0467, 370.6151
172.5288, 379.8725
173.0109, 389.7378
173.4930, 400.1603
173.9752, 411.3219
174.4573, 423.2468
174.9394, 435.2928
175.4215, 447.2448
175.9036, 459.2409
176.3857, 471.4171
176.8679, 483.8090
177.3500, 496.6635
177.8321, 510.3042
178.3142, 524.8229
178.7963, 539.4392
179.2784, 553.4676
179.7606, 567.1335
180.2427, 581.3992
180.7248, 597.2197
181.2069, 613.1345
181.6890, 628.3244
182.1711, 642.8388
182.6533, 655.4182
183.1354, 665.1376
183.6175, 672.0472
184.0996, 675.7010
184.5817, 676.1309
185.0638, 672.8890
185.5460, 665.3163
186.0281, 653.2747
186.5102, 637.0548
186.9923, 616.5146
187.4744, 590.2833
187.9565, 563.1367
188.4387, 534.5860
188.9208, 506.0509
189.4029, 478.6125
189.8850, 452.4773
190.3671, 427.5677
190.8492, 403.1848
191.3314, 378.8675
191.8135, 356.4096
192.2956, 335.7808
192.7777, 316.9305
193.2598, 300.0340
193.7419, 285.1807
194.2241, 271.9249
194.7062, 259.2170
195.1883, 246.8369
195.6704, 235.3275
196.1525, 224.7537
196.6346, 215.0777
197.1168, 206.3582
197.5989, 198.6399
198.0810, 191.7028
198.5631, 184.9540
199.0452, 178.0839
199.5273, 171.7652
200.0095, 166.1909
200.4916, 161.2382
200.9737, 156.7353
201.4558, 152.6390
201.9379, 148.8372
202.4200, 144.8810
202.9022, 140.4809
203.3843, 136.4547
203.8664, 133.1976
204.3485, 130.5477
204.8306, 128.1193
205.3127, 125.8235
205.7949, 123.5740
206.2770, 121.1539
206.7591, 118.3509
207.2412, 115.8051
207.7233, 114.0090
208.2054, 112.8546
208.6876, 111.7410
209.1697, 110.5027
209.6518, 109.1109
210.1339, 107.5044
210.6160, 105.5740
211.0981, 103.7571
211.5803, 102.4410
212.0624, 101.6283
212.5445, 100.9729
213.0266, 100.6303
213.5087, 100.2207
213.9908, 99.29388
214.4730, 97.71076
214.9551, 96.04218
215.4372, 94.94930
215.9193, 94.50354
216.4014, 94.16428
216.8836, 93.94242
217.3657, 93.67950
217.8478, 93.21851
218.3299, 92.52013
218.8120, 91.76253
219.2941, 91.13593
219.7763, 90.57597
220.2584, 90.38152
220.7405, 90.87373
221.2226, 91.55760
221.7047, 92.13625
222.1868, 92.52338
222.6690, 92.76846
223.1511, 92.91298
223.6332, 92.83949
224.1153, 92.94624
224.5974, 93.52222
225.0795, 94.10641
225.5617, 94.24010
226.0438, 93.83530
226.5259, 93.31633
227.0080, 93.48527
227.4901, 94.98686
227.9722, 96.00053
228.4544, 96.16183
228.9365, 96.07217
229.4186, 96.14498
229.9007, 96.51118
230.3828, 97.08810
230.8649, 97.72602
231.3471, 98.36569
231.8292, 99.19587
232.3113, 100.3879
232.7934, 101.6506
233.2755, 102.7630
233.7576, 103.6555
234.2398, 104.4016
234.7219, 105.1078
235.2040, 105.7884
235.6861, 106.3896
236.1682, 106.8587
236.6503, 107.2788
237.1325, 107.7379
237.6146, 108.2543
238.0967, 108.7647
238.5788, 109.1909
239.0609, 109.5936
239.5430, 109.7081
240.0252, 109.1609
240.5073, 108.4975
240.9894, 108.4136
241.4715, 109.0699
241.9536, 109.7870
242.4357, 109.5273
242.9179, 107.9428
243.4000, 106.9566
243.8821, 107.3530
244.3642, 108.1571
244.8463, 108.2535
245.3284, 107.4008
245.8106, 106.2157
246.2927, 105.3334
246.7748, 104.7481
247.2569, 104.4509
247.7390, 104.6743
248.2211, 105.0857
248.7033, 105.2297
249.1854, 105.0050
249.6675, 104.7858
250.1496, 105.0296
250.6317, 105.6621
251.1138, 106.1821
251.5960, 106.4288
252.0781, 106.5335
252.5602, 106.6887
253.0423, 106.9310
253.5244, 107.1063
254.0065, 107.0087
254.4887, 106.7255
254.9708, 106.4860
255.4529, 106.6053
255.9350, 106.6968
256.4171, 106.1191
256.8992, 104.7317
257.3813, 103.2414
257.8635, 102.2599
258.3456, 101.5113
258.8277, 100.5129
259.3098, 99.15331
259.7919, 97.46546
260.2740, 95.41605
260.7562, 92.92630
261.2383, 90.41828
261.7204, 88.17204
262.2025, 86.03393
262.6846, 83.79398
263.1667, 81.37249
263.6489, 78.84895
264.1310, 76.26700
264.6131, 73.58162
265.0952, 71.03252
265.5773, 68.65565
266.0594, 66.51591
266.5416, 64.77503
267.0237, 63.57354
267.5058, 62.52129
267.9879, 60.99450
268.4700, 58.84760
268.9521, 56.92181
269.4343, 55.67268
269.9164, 54.67606
270.3985, 53.61086
270.8806, 52.38549
271.3627, 51.22647
271.8448, 50.50414
272.3270, 50.33461
272.8091, 49.97767
273.2912, 49.06343
273.7733, 48.02238
274.2554, 47.05931
274.7375, 46.21296
275.2197, 45.51352
275.7018, 45.02641
276.1839, 44.78860
276.6660, 44.53288
277.1481, 44.27637
277.6302, 43.95075
278.1124, 43.47107
278.5945, 42.85417
279.0766, 42.24414
279.5587, 41.77744
280.0408, 41.46117
280.5229, 41.21289
281.0051, 41.04496
281.4872, 40.94241
281.9693, 40.97493
282.4514, 41.08928
282.9335, 41.13020
283.4156, 40.96746
283.8978, 40.59899
284.3799, 40.11520
284.8620, 39.12951
285.3441, 38.43560
285.8262, 38.55700
286.3083, 39.18968
286.7905, 39.66066
287.2726, 39.44552
287.7547, 38.62719
288.2368, 38.01170
288.7189, 37.81681
289.2010, 37.57482
289.6832, 36.97274
290.1653, 36.27893
290.6474, 35.94918
291.1295, 36.30622
291.6116, 37.12208
292.0938, 37.43899
292.5759, 36.77304
293.0580, 36.28343
293.5401, 36.26242
294.0222, 36.49599
294.5043, 36.78888
294.9865, 37.06117
295.4686, 37.25464
295.9507, 37.19757
296.4328, 36.66541
296.9149, 36.28274
297.3970, 36.16347
297.8792, 36.18026
298.3613, 36.27090
298.8434, 36.40391
299.3255, 36.50287
299.8076, 36.39558
300.2897, 35.86272
300.7719, 35.63451
301.2540, 35.97475
301.7361, 36.41155
302.2182, 36.69780
302.7003, 36.76823
303.1824, 36.65034
303.6646, 36.27916
304.1467, 35.43569
304.6288, 35.16230
305.1109, 35.93575
305.5930, 36.82424
306.0751, 37.43905
306.5573, 37.76743
307.0394, 37.98850
307.5215, 38.28316
308.0036, 38.67418
308.4857, 38.81476
308.9678, 38.38385
309.4500, 38.00853
309.9321, 37.87379
310.4142, 37.93384
310.8963, 38.04820
311.3784, 38.10712
311.8605, 38.14501
312.3427, 38.44358
312.8248, 39.60556
313.3069, 40.31063
313.7890, 40.00078
314.2711, 39.20142
314.7532, 38.56372
315.2354, 38.40852
315.7175, 38.63696
316.1996, 38.99759
316.6817, 39.71478
317.1638, 40.19853
317.6459, 40.30044
318.1281, 40.21680
318.6102, 40.04636
319.0923, 39.84092
319.5744, 39.72540
320.0565, 39.94462
320.5386, 40.70247
321.0208, 41.32691
321.5029, 41.82080
321.9850, 42.17474
322.4671, 42.34685
322.9492, 42.35337
323.4313, 42.28502
323.9135, 42.26096
324.3956, 42.32553
324.8777, 42.19954
325.3598, 41.60713
325.8419, 41.07865
326.3240, 40.86383
326.8062, 40.89632
327.2883, 40.94276
327.7704, 40.81104
328.2525, 40.51670
328.7346, 40.33550
329.2167, 40.39939
329.6989, 40.43230
330.1810, 40.42498
330.6631, 40.33297
331.1452, 40.06086
331.6273, 39.53283
332.1094, 38.87450
332.5916, 38.49508
333.0737, 38.59317
333.5558, 38.64122
334.0379, 38.56034
334.5200, 38.38972
335.0021, 38.11523
335.4843, 37.73931
335.9664, 37.39418
336.4485, 37.34724
336.9306, 37.76899
337.4127, 37.97540
337.8948, 37.75391
338.3770, 37.42114
338.8591, 37.14740
339.3412, 36.95100
339.8233, 36.76072
340.3055, 36.49673
340.7876, 36.15129
341.2697, 35.81920
341.7518, 35.46533
342.2339, 35.16657
342.7160, 34.93671
343.1982, 34.78405
343.6803, 34.72356
344.1624, 34.78082
344.6445, 34.93591
345.1266, 35.10824
345.6087, 35.40012
346.0909, 35.52829
346.5730, 35.29419
347.0551, 34.90801
347.5372, 34.62999
348.0193, 34.56541
348.5014, 34.64729
348.9836, 34.76247
349.4657, 34.91345
349.9478, 35.08819
350.4299, 35.37658
350.9120, 35.63076
351.3941, 35.70039
351.8763, 35.56256
352.3584, 35.39711
352.8405, 35.37415
353.3226, 35.49523
353.8047, 35.70371
354.2868, 36.04826
354.7690, 36.42713
355.2511, 36.78150
355.7332, 37.11377
356.2153, 37.43864
356.6974, 37.82914
357.1795, 38.23088
357.6617, 38.39823
358.1438, 38.21991
358.6259, 38.02982
359.1080, 38.04507
359.5901, 38.16870
360.0722, 38.24064
360.5544, 38.16180
361.0365, 38.05566
361.5186, 38.07377
362.0007, 38.21374
362.4828, 38.51740
362.9649, 39.25491
363.4471, 40.01827
363.9292, 40.28708
364.4113, 39.91393
364.8934, 39.47443
365.3755, 39.40911
365.8576, 39.66523
366.3398, 39.95537
366.8219, 40.21842
367.3040, 40.49519
367.7861, 40.83045
368.2682, 41.21923
368.7503, 41.62697
369.2325, 42.12752
369.7146, 42.61498
370.1967, 42.88731
370.6788, 42.90898
371.1609, 42.82517
371.6430, 42.59257
372.1252, 42.33623
372.6073, 42.47760
373.0894, 43.63301
373.5715, 44.75768
374.0536, 44.86816
374.5357, 44.12031
375.0179, 43.42744
375.5000, 43.19979
375.9821, 43.34060
376.4642, 43.63328
376.9463, 44.19228
377.4284, 44.62169
377.9106, 44.75544
378.3927, 44.66765
378.8748, 44.41326
379.3569, 43.97983
379.8390, 43.59969
380.3211, 43.63499
380.8033, 44.19715
381.2854, 44.51191
381.7675, 44.35860
382.2496, 44.05719
382.7317, 43.82088
383.2138, 43.67432
383.6960, 43.60158
384.1781, 43.61533
384.6602, 43.69991
385.1423, 43.62601
385.6244, 43.31500
386.1065, 42.96597
386.5887, 42.68482
387.0708, 42.40338
387.5529, 41.98480
388.0350, 41.36421
388.5171, 40.62432
388.9992, 39.94398
389.4814, 39.37425
389.9635, 38.79270
390.4456, 38.22223
390.9277, 37.62529
391.4098, 36.94703
391.8919, 36.19596
392.3741, 35.43867
392.8562, 34.73910
393.3383, 34.08901
393.8204, 33.54683
394.3025, 33.17653
394.7846, 32.83883
395.2668, 32.46449
395.7489, 32.08949
396.2310, 31.79078
396.7131, 31.61655
397.1952, 31.53658
397.6773, 31.46459
398.1595, 31.55189
398.6416, 31.37473
399.1237, 30.66150
399.6058, 29.82829
400.0879, 29.16809
400.5700, 28.77045
401.0522, 28.63827
401.5343, 28.89390
402.0164, 29.65821
402.4985, 30.07536
402.9806, 29.80627
403.4627, 29.46029
403.9449, 29.26489
404.4270, 29.20424
404.9091, 29.19449
405.3912, 29.20475
405.8733, 29.21784
406.3554, 29.13399
406.8376, 28.82792
407.3197, 28.74201
407.8018, 29.26460
408.2839, 29.99418
408.7660, 30.51686
409.2481, 30.71926
409.7303, 30.82221
410.2124, 31.11520
410.6945, 31.57147
411.1766, 31.72863
411.6587, 31.22072
412.1408, 30.73889
412.6230, 30.98230
413.1051, 31.86340
413.5872, 32.76638
414.0693, 33.39714
414.5514, 33.90506
415.0335, 34.55548
415.5157, 35.38134
415.9978, 36.14122
416.4799, 36.62716
416.9620, 36.93346
417.4441, 37.36394
417.9262, 37.97484
418.4084, 38.65190
418.8905, 39.32115
419.3726, 40.00438
419.8547, 40.76397
420.3368, 41.62976
420.8189, 42.55436
421.3011, 43.47621
421.7832, 44.41969
422.2653, 45.25630
422.7474, 45.96291
423.2295, 46.56291
423.7116, 47.05158
424.1938, 47.44310
424.6759, 47.78421
425.1580, 48.07668
425.6401, 48.33890
426.1222, 48.93888
426.6043, 50.24903
427.0865, 51.40864
427.5686, 52.09151
428.0507, 52.53399
428.5328, 53.06321
429.0149, 53.80675
429.4970, 54.68824
429.9792, 55.61149
430.4613, 56.76882
430.9434, 57.53116
431.4255, 57.66975
431.9076, 57.69087
432.3897, 57.88383
432.8719, 58.22822
433.3540, 58.54438
433.8361, 58.69197
434.3182, 58.68794
434.8003, 58.66014
435.2824, 58.67507
435.7646, 58.55275
436.2467, 58.37410
436.7288, 57.99991
437.2109, 57.20910
437.6930, 55.92788
438.1751, 54.49428
438.6573, 53.33284
439.1394, 52.46520
439.6215, 51.57394
440.1036, 50.59058
440.5857, 49.60133
441.0678, 48.68180
441.5500, 47.80683
442.0321, 46.88519
442.5142, 45.90546
442.9963, 44.83355
443.4784, 43.48446
443.9605, 41.78941
444.4427, 40.36780
444.9248, 39.72851
445.4069, 39.46814
445.8890, 38.84494
446.3711, 37.67221
446.8532, 36.56946
447.3354, 35.89147
447.8175, 35.53069
448.2996, 35.31641
448.7817, 35.24258
449.2638, 35.11086
449.7459, 34.68981
450.2281, 33.95672
450.7102, 33.21730
451.1923, 32.36297
451.6744, 31.61085
452.1565, 31.14992
452.6386, 30.91530
453.1208, 30.69169
453.6029, 30.35635
454.0850, 29.99008
454.5671, 29.81917
455.0492, 30.07420
455.5313, 30.21637
456.0135, 30.03121
456.4956, 29.87047
456.9777, 30.14651
457.4598, 30.82450
457.9419, 31.41164
458.4240, 31.38412
458.9062, 30.72820
459.3883, 30.45933
459.8704, 30.92976
460.3525, 31.41523
460.8346, 31.67704
461.3167, 31.89532
461.7989, 32.35131
462.2810, 33.15868
462.7631, 34.06723
463.2452, 34.66146
463.7273, 34.87549
464.2094, 35.16671
464.6916, 35.64521
465.1737, 36.16702
465.6558, 36.61895
466.1379, 37.03179
466.6200, 37.53716
467.1021, 38.30035
467.5843, 39.16107
468.0664, 39.74648
468.5485, 40.01311
469.0306, 40.33775
469.5127, 40.91211
469.9948, 41.63657
470.4770, 42.32371
470.9591, 42.93944
471.4412, 43.62556
471.9233, 44.50330
472.4054, 45.48862
472.8875, 46.38432
473.3697, 47.14611
473.8518, 47.97895
474.3339, 49.08952
474.8160, 50.47924
475.2981, 51.82422
475.7802, 52.87787
476.2624, 54.13884
476.7445, 55.98861
477.2266, 58.18746
477.7087, 60.30244
478.1908, 62.17995
478.6729, 63.83018
479.1551, 65.24124
479.6372, 66.22637
480.1193, 67.42387
480.6014, 68.94398
481.0835, 70.55177
481.5656, 72.24908
482.0478, 73.92410
482.5299, 75.30363
483.0120, 76.14767
483.4941, 76.67464
483.9762, 77.67013
484.4583, 79.20137
484.9405, 81.09164
485.4226, 83.63012
485.9047, 86.27000
486.3868, 88.41007
486.8689, 90.04604
487.3510, 91.90454
487.8332, 94.80151
488.3153, 98.48580
488.7974, 101.7383
489.2795, 104.2734
489.7616, 106.9638
490.2437, 110.4317
490.7259, 114.3870
491.2080, 118.5436
491.6901, 122.9958
492.1722, 127.2943
492.6543, 131.0443
493.1364, 134.3622
493.6186, 137.4811
494.1007, 140.4154
494.5828, 143.5001
495.0649, 147.2342
495.5470, 151.7063
496.0291, 155.8231
496.5113, 159.3413
496.9934, 162.7117
497.4755, 166.2361
497.9576, 169.8287
498.4397, 173.1826
498.9218, 176.1080
499.4040, 178.9168
499.8861, 182.3439
500.3682, 187.3849
500.8503, 191.1167
501.3324, 192.7071
501.8145, 193.8742
502.2967, 195.7813
502.7788, 198.2615
503.2609, 200.4457
503.7430, 201.7451
504.2251, 202.2806
504.7072, 202.5401
505.1894, 202.6638
505.6715, 202.1713
506.1536, 201.1629
506.6357, 199.3637
507.1178, 196.3533
507.5999, 192.1273
508.0821, 187.4044
508.5642, 182.7911
509.0463, 178.0995
509.5284, 172.6363
510.0105, 166.2566
510.4926, 159.6129
510.9748, 153.0396
511.4569, 146.5330
511.9390, 140.0589
512.4211, 133.6871
512.9032, 127.2976
513.3853, 120.5342
513.8674, 113.8096
514.3495, 107.9995
514.8317, 103.2468
515.3138, 98.99091
515.7959, 94.67354
516.2780, 90.26478
516.7601, 86.05656
517.2422, 81.93821
517.7244, 78.08674
518.2065, 74.57200
518.6886, 71.35530
519.1707, 68.40614
519.6528, 65.71190
520.1349, 63.19843
520.6171, 60.73864
521.0992, 58.24888
521.5813, 56.15682
522.0634, 54.77547
522.5455, 53.50553
523.0276, 52.23378
523.5098, 50.90172
523.9919, 49.37756
524.4740, 47.50013
524.9561, 45.68093
525.4382, 44.63853
525.9203, 44.39637
526.4025, 43.90118
526.8846, 42.77835
527.3667, 41.50960
527.8488, 40.55642
528.3309, 39.87725
528.8130, 39.19764
529.2952, 38.34008
529.7773, 37.52362
530.2594, 36.99908
530.7415, 36.71239
531.2236, 36.37222
531.7057, 35.82196
532.1879, 35.23245
532.6700, 34.93931
533.1521, 35.07572
533.6342, 35.22698
534.1163, 35.58468
534.5984, 35.78650
535.0806, 35.48637
535.5627, 34.81264
536.0448, 34.19019
536.5269, 33.90297
537.0090, 33.76662
537.4911, 33.17852
537.9733, 31.80099
538.4554, 30.70567
538.9375, 30.20500
539.4196, 29.85458
539.9017, 29.41819
540.3839, 28.88092
540.8660, 28.31644
541.3481, 27.75418
541.8302, 27.20583
542.3123, 26.67210
542.7944, 26.14055
543.2766, 25.75034
543.7587, 25.64231
544.2408, 25.63799
544.7229, 25.50680
545.2050, 25.25487
545.6871, 24.85316
546.1693, 24.04174
546.6514, 23.23133
547.1335, 22.96008
547.6156, 23.18607
548.0977, 23.39418
548.5798, 23.25688
549.0620, 22.89909
549.5441, 22.74375
550.0262, 23.06601
550.5083, 23.22703
550.9904, 23.07534
551.4725, 22.87418
551.9547, 22.85453
552.4368, 22.98796
552.9189, 23.08217
553.4010, 22.99958
553.8831, 22.76038
554.3652, 22.41102
554.8474, 21.84948
555.3295, 21.44049
555.8116, 21.46963
556.2937, 21.55304
556.7758, 21.41120
557.2579, 21.03374
557.7401, 20.60033
558.2222, 20.14911
558.7043, 19.73660
559.1864, 19.47045
559.6685, 19.35545
560.1506, 19.29449
560.6328, 19.26408
561.1149, 19.23791
561.5970, 19.13651
562.0791, 18.90736
562.5612, 18.78174
563.0433, 18.94888
563.5255, 19.12659
564.0076, 19.05412
564.4897, 18.75607
564.9718, 18.41956
565.4539, 18.16014
565.9360, 17.96198
566.4182, 17.77408
566.9003, 17.58649
567.3824, 17.42733
567.8645, 17.29863
568.3466, 17.19467
568.8287, 17.07775
569.3109, 16.97624
569.7930, 17.00090
570.2751, 17.30192
570.7572, 17.68694
571.2393, 17.68515
571.7214, 17.25681
572.2036, 16.93621
572.6857, 16.95992
573.1678, 17.09050
573.6499, 17.01394
574.1320, 16.73704
574.6141, 16.55894
575.0963, 16.62766
575.5784, 16.77561
576.0605, 16.89585
576.5426, 16.97318
577.0247, 16.98244
577.5068, 16.91012
577.9890, 16.77411
578.4711, 16.59817
578.9532, 16.32685
579.4353, 16.16216
579.9174, 16.09934
580.3995, 16.13224
580.8817, 16.38741
581.3638, 16.71401
581.8459, 16.79886
582.3280, 16.47248
582.8101, 16.02264
583.2922, 15.99267
583.7744, 16.42917
584.2565, 16.57535
584.7386, 16.15082
585.2207, 15.67580
585.7029, 15.49599
586.1850, 15.54889
586.6671, 15.70166
587.1492, 16.03762
587.6313, 16.30971
588.1135, 16.29585
588.5956, 16.08588
589.0777, 15.86789
589.5598, 15.68760
590.0419, 15.56784
590.5240, 15.55222
591.0062, 15.64958
591.4883, 15.64606
591.9704, 15.42244
592.4525, 15.25492
592.9346, 15.21527
593.4167, 15.26592
593.8989, 15.40770
594.3810, 15.61633
594.8631, 15.76778
595.3452, 15.68487
595.8273, 15.39965
596.3094, 15.30591
596.7916, 15.50406
597.2737, 15.66369
597.7558, 15.56530
598.2379, 15.39463
598.7200, 15.35260
599.2021, 15.47044
599.6843, 15.61561
600.1664, 15.81581
600.6485, 15.95662
601.1306, 15.77745
601.6127, 15.30860
602.0948, 14.98318
602.5770, 15.08373
603.0591, 15.43853
603.5412, 15.57130
604.0233, 15.25854
604.5054, 15.08499
604.9875, 15.16198
605.4697, 15.27755
605.9518, 15.27919
606.4339, 15.20427
606.9160, 15.19324
607.3981, 15.33622
607.8802, 15.52989
608.3624, 15.53870
608.8445, 15.32735
609.3266, 15.21816
609.8087, 15.32547
610.2908, 15.46353
610.7729, 15.50165
611.2551, 15.46052
611.7372, 15.39961
612.2193, 15.34522
612.7014, 15.26130
613.1835, 15.06680
613.6656, 14.83159
614.1478, 14.73702
614.6299, 14.82678
615.1120, 14.93462
615.5941, 14.87803
616.0762, 14.65566
616.5583, 14.56395
617.0405, 14.75203
617.5226, 14.88320
618.0047, 14.86877
618.4868, 14.79355
618.9689, 14.72719
619.4510, 14.68822
619.9332, 14.67677
620.4153, 14.69425
620.8974, 14.73917
621.3795, 14.82041
621.8616, 14.95308
622.3438, 15.04608
622.8259, 15.09131
623.3080, 15.05440
623.7901, 14.83063
624.2722, 14.39943
624.7543, 14.16363
625.2365, 14.38526
625.7186, 14.71296
626.2007, 14.88449
626.6828, 14.91800
627.1649, 14.90120
627.6470, 14.87045
628.1292, 14.81878
628.6113, 14.72299
629.0934, 14.54988
629.5755, 14.47109
630.0576, 14.60268
630.5397, 14.70696
631.0219, 14.66047
631.5040, 14.56611
631.9861, 14.58715
632.4682, 14.77435
632.9503, 14.97088
633.4324, 15.04758
633.9146, 15.01853
634.3967, 14.89238
634.8788, 14.65416
635.3609, 14.48393
635.8430, 14.53757
636.3251, 14.70498
636.8073, 14.62703
637.2894, 14.07855
637.7715, 13.84959
638.2536, 14.39274
638.7357, 15.02418
639.2178, 15.17712
639.7000, 14.94558
640.1821, 14.75441
640.6642, 14.84024
641.1463, 15.04174
641.6284, 14.99496
642.1105, 14.62391
642.5927, 14.41821
643.0748, 14.52040
643.5569, 14.66885
644.0390, 14.76797
644.5211, 14.79698
645.0032, 14.68618
645.4854, 14.33392
645.9675, 14.04821
646.4496, 14.09218
646.9317, 14.32711
647.4138, 14.51186
647.8959, 14.60898
648.3781, 14.65036
648.8602, 14.64532
649.3423, 14.61694
649.8244, 14.67933
650.3065, 15.03793
650.7886, 15.17259
651.2708, 14.80683
651.7529, 14.44538
652.2350, 14.51894
652.7171, 14.89482
653.1992, 15.09379
653.6813, 14.79798
654.1635, 14.36988
654.6456, 14.44397
655.1277, 14.96869
655.6098, 15.28811
656.0919, 15.25330
656.5740, 15.05938
657.0562, 14.81118
657.5383, 14.53239
658.0204, 14.37081
658.5025, 14.40993
658.9846, 14.46289
659.4667, 14.42823
659.9489, 14.41050
660.4310, 14.57585
660.9131, 14.89664
661.3952, 15.16552
661.8773, 15.23514
662.3594, 15.13088
662.8416, 14.90818
663.3237, 14.50785
663.8058, 14.19787
664.2879, 13.95290
664.7700, 13.89668
665.2521, 14.23812
665.7343, 14.84356
666.2164, 15.25789
666.6985, 15.30459
667.1806, 15.19264
667.6627, 14.96364
668.1448, 14.70818
668.6270, 14.62712
669.1091, 14.75076
669.5912, 14.92088
670.0733, 15.00870
670.5554, 15.01646
671.0375, 14.94825
671.5197, 14.61637
672.0018, 14.52594
672.4839, 14.99052
672.9660, 15.46993
673.4481, 15.55162
673.9302, 15.30736
674.4124, 15.07541
674.8945, 15.00874
675.3766, 15.05998
675.8587, 15.21931
676.3408, 15.45642
676.8229, 15.64790
677.3051, 15.77685
677.7872, 15.78302
678.2693, 15.55640
678.7514, 15.13550
679.2335, 14.97249
679.7156, 15.32539
680.1978, 15.56110
680.6799, 15.45296
681.1620, 15.29667
681.6441, 15.36414
682.1262, 15.63114
682.6083, 15.89548
683.0905, 16.03638
683.5726, 16.09258
684.0547, 16.10164
684.5368, 16.06370
685.0189, 16.14351
685.5010, 16.39960
685.9832, 16.71483
686.4653, 16.97351
686.9474, 17.20594
687.4295, 17.55046
687.9116, 18.05286
688.3937, 18.60934
688.8759, 19.22793
689.3580, 19.86158
689.8401, 20.46924
690.3222, 21.04333
690.8043, 21.57355
691.2864, 22.04840
691.7686, 22.50410
692.2507, 23.03894
692.7328, 23.67027
693.2149, 24.25310
693.6970, 24.64006
694.1791, 25.15706
694.6613, 26.29821
695.1434, 27.70542
695.6255, 28.53195
696.1076, 28.36007
696.5897, 28.18685
697.0718, 28.45450
697.5540, 28.97709
698.0361, 29.54455
698.5182, 30.13879
699.0003, 30.83124
699.4824, 31.66703
699.9645, 32.61391
700.4467, 33.62847
700.9288, 34.79417
701.4109, 35.68431
701.8930, 35.97020
702.3751, 36.35363
702.8572, 37.31714
703.3394, 38.55295
703.8215, 39.52568
704.3036, 40.07594
704.7857, 40.55181
705.2678, 41.29536
705.7499, 41.99884
706.2321, 42.28748
706.7142, 42.12651
707.1963, 41.54405
707.6784, 40.53699
708.1605, 39.18849
708.6426, 37.65570
709.1248, 35.94747
709.6069, 34.02088
710.0890, 31.62338
710.5711, 29.29013
711.0532, 27.11770
711.5353, 25.15192
712.0175, 23.45011
712.4996, 22.01498
712.9817, 20.81694
713.4638, 19.90384
713.9459, 19.16657
714.4280, 18.42204
714.9102, 17.70043
715.3923, 17.21945
715.8744, 17.09014
716.3565, 17.11022
716.8386, 16.98406
717.3207, 16.69165
717.8029, 16.40319
718.2850, 16.08498
718.7671, 15.81766
719.2492, 15.60740
719.7313, 15.46349
720.2134, 15.41134
720.6956, 15.44568
721.1777, 15.49799
721.6598, 15.60206
722.1419, 15.65178
722.6240, 15.40313
723.1061, 14.95944
723.5883, 14.74969
724.0704, 14.90719
724.5525, 15.23350
725.0346, 15.56075
725.5167, 15.88160
725.9988, 15.94930
726.4810, 15.56855
726.9631, 15.20928
727.4452, 14.84475
727.9273, 14.58561
728.4094, 14.58661
728.8915, 14.77917
729.3737, 14.90013
729.8558, 14.79541
730.3379, 14.62610
730.8200, 14.53858
731.3021, 14.52537
731.7842, 14.59950
732.2664, 14.75983
732.7485, 14.86537
733.2306, 14.79452
733.7127, 14.60214
734.1948, 14.50491
734.6769, 14.53894
735.1591, 14.60535
735.6412, 14.81004
736.1233, 14.93550
736.6054, 14.80170
737.0875, 14.52578
737.5696, 14.32749
738.0518, 14.27811
738.5339, 14.29640
739.0160, 14.33832
739.4981, 14.39540
739.9802, 14.43548
740.4623, 14.46527
740.9445, 14.57539
741.4266, 14.82885
741.9087, 15.10129
742.3908, 15.15486
742.8729, 14.92153
743.3550, 14.76413
743.8372, 14.75651
744.3193, 14.73791
744.8014, 14.62229
745.2835, 14.49906
745.7656, 14.50106
746.2477, 14.63458
746.7299, 14.70569
747.2120, 14.50037
747.6941, 14.25812
748.1762, 14.34798
748.6583, 14.63959
749.1404, 14.64839
749.6226, 14.24293
750.1047, 13.86117
750.5868, 13.97750
751.0689, 14.53613
751.5510, 14.94366
752.0331, 15.23262
752.5153, 15.30169
752.9974, 14.90569
753.4795, 14.48460
753.9616, 14.31127
754.4437, 14.34535
754.9258, 14.43253
755.4080, 14.59107
755.8901, 14.66513
756.3722, 14.43477
756.8543, 14.10753
757.3364, 14.01001
757.8185, 14.15193
758.3007, 14.36513
758.7828, 14.55977
759.2649, 14.69311
759.7470, 14.63443
760.2291, 14.30632
760.7112, 14.16791
761.1934, 14.33456
761.6755, 14.52789
762.1576, 14.68059
762.6397, 14.75601
763.1218, 14.64501
763.6039, 14.30292
764.0861, 14.11308
764.5682, 14.32831
765.0503, 14.63350
765.5324, 14.81349
766.0145, 14.88885
766.4966, 14.92784
766.9788, 14.94961
767.4609, 14.92056
767.9430, 14.77687
768.4251, 14.56508
768.9072, 14.55457
769.3893, 14.79931
769.8715, 14.96226
770.3536, 14.93842
770.8357, 14.83968
771.3178, 14.72293
771.7999, 14.60894
772.2820, 14.61015
772.7642, 14.89066
773.2463, 15.07342
773.7284, 14.98138
774.2105, 14.80780
774.6926, 14.68218
775.1747, 14.63301
775.6569, 14.70445
776.1390, 14.93313
776.6211, 15.14558
777.1032, 15.02959
777.5853, 14.66368
778.0674, 14.53668
778.5496, 14.71397
779.0317, 14.84454
779.5138, 14.73068
779.9959, 14.51149
780.4780, 14.42398
780.9601, 14.48574
781.4423, 14.62116
781.9244, 14.89767
782.4065, 15.16198
782.8886, 15.51607
783.3707, 15.74009
783.8528, 15.45019
784.3350, 14.70901
784.8171, 14.16920
785.2992, 14.31467
785.7813, 14.76724
786.2634, 15.15016
786.7455, 15.42691
787.2277, 15.38621
787.7098, 14.99537
788.1919, 14.70778
788.6740, 14.91632
789.1561, 15.44761
789.6382, 15.65326
790.1204, 15.38608
790.6025, 15.14522
791.0846, 14.86567
791.5667, 14.71826
792.0488, 14.92136
792.5309, 15.24755
793.0131, 15.31167
793.4952, 15.01280
793.9773, 14.73802
794.4594, 14.57673
794.9415, 14.59510
795.4236, 15.06078
795.9058, 15.72499
796.3879, 15.96421
796.8700, 15.61635
797.3521, 15.14258
797.8342, 15.00470
798.3163, 15.15852
798.7985, 15.39487
799.2806, 15.73347
799.7627, 16.04451
800.2448, 16.30837
800.7269, 16.52319
801.2090, 16.68447
801.6912, 16.79342
802.1733, 16.87143
802.6554, 16.91201
803.1375, 16.93193
803.6196, 16.79104
804.1017, 16.75909
804.5839, 17.13086
805.0660, 17.74642
805.5481, 18.25152
806.0302, 18.51688
806.5123, 18.69814
806.9944, 18.95304
807.4766, 19.24060
807.9587, 19.44986
808.4408, 19.58505
808.9229, 19.73703
809.4050, 19.93719
809.8871, 20.17206
810.3693, 20.43043
810.8514, 20.71218
811.3335, 20.98198
811.8156, 21.14852
812.2977, 21.45931
812.7798, 22.15202
813.2620, 22.81434
813.7441, 23.12341
814.2262, 23.17801
814.7083, 23.29395
815.1904, 23.58084
815.6725, 23.87405
816.1547, 24.08413
816.6368, 24.25115
817.1189, 24.39929
817.6010, 24.54750
818.0831, 24.74168
818.5652, 25.00031
819.0474, 25.27375
819.5295, 25.50344
820.0116, 25.69002
820.4937, 25.84790
820.9758, 25.98535
821.4579, 26.05595
821.9401, 26.08578
822.4222, 25.96861
822.9043, 25.53391
823.3864, 24.79884
823.8685, 24.17959
824.3506, 23.73142
824.8328, 23.32006
825.3149, 23.03819
825.7970, 22.68722
826.2791, 22.03897
826.7612, 21.21619
827.2433, 20.49700
827.7255, 19.97189
828.2076, 19.61922
828.6897, 19.54971
829.1718, 19.57397
829.6539, 19.37166
830.1360, 18.95965
830.6182, 18.45210
831.1003, 17.89151
831.5824, 17.43070
832.0645, 17.29383
832.5466, 17.43902
833.0287, 17.31258
833.5109, 16.75110
833.9930, 16.42567
834.4751, 16.65046
834.9572, 16.93846
835.4393, 16.85885
835.9214, 16.52771
836.4036, 16.27014
836.8857, 16.09792
837.3678, 16.02571
837.8499, 16.17524
838.3320, 16.31684
838.8141, 16.21544
839.2963, 16.00294
839.7784, 15.96018
840.2605, 16.16603
840.7426, 16.40259
841.2247, 16.48355
841.7068, 16.45874
842.1890, 16.40244
842.6711, 16.32368
843.1532, 16.27267
843.6353, 16.26229
844.1174, 16.28708
844.5995, 16.35479
845.0817, 16.43968
845.5638, 16.39743
846.0459, 16.10542
846.5280, 16.04213
847.0101, 16.47817
847.4922, 16.83905
847.9744, 16.68091
848.4565, 16.32710
848.9386, 16.31825
849.4207, 16.76128
849.9028, 17.06346
850.3849, 16.96895
850.8671, 16.79291
851.3492, 16.65141
851.8313, 16.57959
852.3134, 16.63907
852.7955, 16.81580
853.2776, 17.00652
853.7598, 17.15871
854.2419, 17.25156
854.7240, 17.20807
855.2061, 17.07424
855.6882, 17.04221
856.1703, 17.13461
856.6525, 17.27104
857.1346, 17.41633
857.6167, 17.53853
858.0988, 17.55406
858.5809, 17.42240
859.0630, 17.46773
859.5452, 17.83495
860.0273, 18.12032
860.5094, 18.11680
860.9915, 18.04802
861.4736, 18.07476
861.9557, 18.20396
862.4379, 18.45653
862.9200, 18.94490
863.4021, 19.40429
863.8842, 19.73820
864.3663, 20.00704
864.8484, 20.25605
865.3306, 20.48635
865.8127, 20.67042
866.2948, 20.79723
866.7769, 20.95897
867.2590, 21.23588
867.7411, 21.61472
868.2233, 22.02975
868.7054, 22.50707
869.1875, 23.23390
869.6696, 24.26793
870.1517, 25.35646
870.6339, 26.23904
871.1160, 26.99770
871.5981, 28.02401
872.0802, 29.41114
872.5623, 30.74420
873.0444, 31.94206
873.5266, 33.13849
874.0087, 34.32377
874.4908, 35.59793
874.9729, 37.15828
875.4550, 39.07823
875.9371, 40.88028
876.4193, 42.35845
876.9014, 43.86937
877.3835, 45.64168
877.8656, 47.45018
878.3477, 48.95250
878.8298, 50.22618
879.3120, 51.78832
879.7941, 54.02492
880.2762, 56.26602
880.7583, 57.74125
881.2404, 58.81903
881.7225, 60.06527
882.2047, 61.55129
882.6868, 63.35606
883.1689, 65.51507
883.6510, 67.57584
884.1331, 68.83373
884.6152, 69.47604
885.0974, 71.00362
885.5795, 73.55392
886.0616, 75.99903
886.5437, 78.19060
887.0258, 79.93289
887.5079, 81.03732
887.9901, 81.56983
888.4722, 81.80424
888.9543, 81.77413
889.4364, 81.36942
889.9185, 80.72054
890.4006, 79.56346
890.8828, 77.67519
891.3649, 75.28938
891.8470, 72.47678
892.3291, 69.32533
892.8112, 66.52802
893.2933, 64.53968
893.7755, 62.78645
894.2576, 60.77217
894.7397, 58.87350
895.2218, 57.61126
895.7039, 56.93395
896.1860, 56.50245
896.6682, 56.15658
897.1503, 55.81165
897.6324, 55.26509
898.1145, 54.65210
898.5966, 54.42030
899.0787, 54.54420
899.5609, 54.65319
900.0430, 54.62834
900.5251, 54.58370
901.0072, 54.58044
901.4893, 54.69755
901.9714, 55.38969
902.4536, 56.88061
902.9357, 58.11174
903.4178, 58.85746
903.8999, 59.57842
904.3820, 60.57792
904.8641, 61.66156
905.3463, 62.54866
905.8284, 63.26326
906.3105, 63.59743
906.7926, 63.10502
907.2747, 62.78185
907.7568, 63.42462
908.2390, 63.96599
908.7211, 63.34536
909.2032, 61.78540
909.6853, 60.12674
910.1674, 58.55669
910.6495, 57.39711
911.1317, 57.21256
911.6138, 57.27327
912.0959, 56.63447
912.5780, 55.57407
913.0601, 54.82994
913.5422, 54.60332
914.0244, 54.65554
914.5065, 54.82403
914.9886, 55.06112
915.4707, 55.20952
915.9528, 55.31457
916.4349, 55.79482
916.9171, 56.71210
917.3992, 57.32880
917.8813, 57.20938
918.3634, 56.71075
918.8455, 56.47374
919.3276, 56.54153
919.8098, 56.04606
920.2919, 54.75987
920.7740, 53.50527
921.2561, 52.65662
921.7382, 51.65642
922.2203, 49.88538
922.7025, 47.57155
923.1846, 45.62104
923.6667, 44.25116
924.1488, 42.75205
924.6309, 40.85563
925.1130, 39.04726
925.5952, 37.51190
926.0773, 36.20064
926.5594, 35.12487
927.0415, 34.24259
927.5236, 33.29320
928.0057, 32.06914
928.4879, 30.89423
928.9700, 29.93910
929.4521, 29.17755
929.9342, 28.68546
930.4163, 28.34313
930.8984, 27.83275
931.3806, 27.04100
931.8627, 26.20802
932.3448, 25.49684
932.8269, 24.95452
933.3090, 24.83044
933.7911, 24.98363
934.2733, 24.75770
934.7554, 24.04307
935.2375, 23.29642
935.7196, 22.81884
936.2017, 22.53223
936.6838, 22.31898
937.1660, 22.18850
937.6481, 21.91088
938.1302, 21.44288
938.6123, 21.01039
939.0944, 20.66702
939.5765, 20.43475
940.0587, 20.37742
940.5408, 20.45530
941.0229, 20.38604
941.5050, 20.16685
941.9871, 19.80574
942.4692, 19.00183
942.9514, 18.40160
943.4335, 18.40890
943.9156, 18.68238
944.3977, 18.82944
944.8798, 18.82296
945.3619, 18.69664
945.8441, 18.31430
946.3262, 17.99989
946.8083, 17.93612
947.2904, 17.92849
947.7725, 17.77034
948.2546, 17.54041
948.7368, 17.45679
949.2189, 17.58748
949.7010, 17.74773
950.1831, 17.85827
950.6652, 17.90362
951.1473, 17.88698
951.6295, 17.78711
952.1116, 17.49308
952.5937, 17.05446
953.0758, 16.74618
953.5579, 16.73146
954.0400, 16.84631
954.5222, 16.87860
955.0043, 16.85848
955.4864, 16.91151
955.9685, 17.01577
956.4506, 16.96053
956.9327, 16.68341
957.4149, 16.37809
957.8970, 16.20337
958.3791, 16.15637
958.8612, 16.26432
959.3433, 16.54538
959.8254, 16.71661
960.3076, 16.75947
960.7897, 16.67597
961.2718, 16.42058
961.7539, 16.13387
962.2360, 15.99120
962.7181, 15.98840
963.2003, 16.04422
963.6824, 16.22585
964.1645, 16.32676
964.6466, 16.28490
965.1287, 16.21247
965.6108, 16.17118
966.0930, 16.13486
966.5751, 16.08629
967.0572, 16.03589
967.5393, 15.85177
968.0214, 15.33854
968.5035, 14.93347
968.9857, 14.77276
969.4678, 14.74584
969.9499, 14.86122
970.4320, 15.01717
970.9141, 14.97753
971.3962, 14.65376
971.8784, 14.44548
972.3605, 14.70768
972.8426, 14.96222
973.3247, 14.77926
973.8068, 14.45573
974.2889, 14.42353
974.7711, 14.64772
975.2532, 14.76276
975.7353, 14.58557
976.2174, 14.36558
976.6995, 14.31558
977.1816, 14.36819
977.6638, 14.50966
978.1459, 14.65829
978.6280, 14.57818
979.1101, 14.25633
979.5922, 13.97371
980.0743, 13.94589
980.5565, 13.98098
981.0386, 13.68990
981.5207, 13.20375
982.0028, 12.99168
982.4849, 13.06696
982.9670, 13.34431
983.4492, 13.79717
983.9313, 14.14642
984.4134, 14.10812
984.8955, 13.79841
985.3776, 13.57429
985.8597, 13.43711
986.3419, 13.33641
986.8240, 13.26250
987.3061, 13.27530
987.7882, 13.42871
988.2703, 13.59844
988.7524, 13.63854
989.2346, 13.55493
989.7167, 13.40059
990.1988, 13.13083
990.6809, 12.91659
991.1630, 12.73275
991.6451, 12.69141
992.1273, 12.93877
992.6094, 13.28164
993.0915, 13.42070
993.5736, 13.34256
994.0557, 13.31094
994.5378, 13.41979
995.0200, 13.43617
995.5021, 13.27366
995.9842, 13.08268
996.4663, 12.91964
996.9484, 12.79063
997.4305, 12.70307
997.9127, 12.65883
998.3948, 12.64257
998.8769, 12.73974
999.3590, 12.74667
999.8411, 12.45713
1000.323, 12.18589
1000.805, 12.23709
1001.287, 12.47821
1001.770, 12.61215
1002.252, 12.57164
1002.734, 12.49824
1003.216, 12.39368
1003.698, 12.33977
1004.180, 12.48781
1004.662, 12.63531
1005.144, 12.46808
1005.627, 12.11211
1006.109, 12.00326
1006.591, 12.30703
1007.073, 12.55823
1007.555, 12.33672
1008.037, 12.00672
1008.519, 11.91057
1009.001, 11.95126
1009.483, 11.97472
1009.966, 11.96373
1010.448, 11.97441
1010.930, 12.03551
1011.412, 12.07017
1011.894, 11.95206
1012.376, 11.79203
1012.858, 11.76866
1013.340, 11.84482
1013.823, 11.95878
1014.305, 12.07076
1014.787, 12.04408
1015.269, 11.79058
1015.751, 11.51360
1016.233, 11.54111
1016.715, 11.74927
1017.197, 11.76697
1017.679, 11.63336
1018.162, 11.59424
1018.644, 11.68958
1019.126, 11.69553
1019.608, 11.45591
1020.090, 11.10512
1020.572, 10.79533
1021.054, 10.56505
1021.536, 10.72924
1022.018, 11.27793
1022.501, 11.93313
1022.983, 12.64981
1023.465, 13.02916
1023.947, 12.69244
1024.429, 12.16155
1024.911, 12.82080
1025.393, 14.72351
1025.875, 15.03138
1026.358, 13.52870
1026.840, 12.18032
1027.322, 11.46813
1027.804, 11.15246
1028.286, 11.09685
1028.768, 11.22050
1029.250, 11.31660
1029.732, 11.36841
1030.214, 11.54488
1030.697, 11.92462
1031.179, 12.14193
1031.661, 12.04840
1032.143, 11.89625
1032.625, 11.90479
1033.107, 11.98305
1033.589, 11.83988
1034.071, 11.35407
1034.553, 11.21773
1035.036, 11.64016
1035.518, 11.95564
1036.000, 11.97056
1036.482, 11.85940
1036.964, 11.69965
1037.446, 11.54157
1037.928, 11.55248
1038.410, 11.81964
1038.893, 11.94730
1039.375, 11.84827
1039.857, 11.74660
1040.339, 11.62550
1040.821, 11.59156
1041.303, 11.79249
1041.785, 12.13404
1042.267, 12.33284
1042.750, 12.32206
1043.232, 12.39145
1043.714, 12.63770
1044.196, 12.83651
1044.678, 13.00039
1045.160, 13.04033
1045.642, 12.81127
1046.124, 12.42414
1046.606, 12.14292
1047.089, 12.00222
1047.571, 11.88846
1048.053, 11.69543
1048.535, 11.65603
1049.017, 11.93302
1049.499, 12.29430
1049.981, 12.68222
1050.463, 12.98808
1050.945, 12.94060
1051.428, 12.43358
1051.910, 12.07897
1052.392, 12.01576
1052.874, 12.08893
1053.356, 12.39433
1053.838, 12.68180
1054.320, 12.80284
1054.802, 12.74845
1055.285, 12.41495
1055.767, 11.73557
1056.249, 11.48986
1056.731, 12.38453
1057.213, 13.07972
1057.695, 12.84294
1058.177, 12.45216
1058.659, 12.59369
1059.141, 13.00026
1059.624, 13.04460
1060.106, 12.61912
1060.588, 12.35584
1061.070, 12.63717
1061.552, 12.87457
1062.034, 12.80709
1062.516, 12.63532
1062.998, 12.44580
1063.480, 12.29700
1063.963, 12.27705
1064.445, 12.39411
1064.927, 12.52683
1065.409, 12.71032
1065.891, 12.79346
1066.373, 12.63281
1066.855, 12.42796
1067.337, 12.24768
1067.820, 12.17116
1068.302, 12.38538
1068.784, 12.86136
1069.266, 13.15676
1069.748, 12.97324
1070.230, 12.80910
1070.712, 12.94407
1071.194, 13.11927
1071.677, 13.19441
1072.159, 13.15283
1072.641, 12.91220
1073.123, 12.52787
1073.605, 12.32640
1074.087, 12.52237
1074.569, 12.68464
1075.051, 12.50236
1075.533, 12.33194
1076.016, 12.56183
1076.498, 12.87337
1076.980, 12.75837
1077.462, 12.28821
1077.944, 12.00406
1078.426, 12.13353
1078.908, 12.29521
1079.390, 12.32662
1079.873, 12.31471
1080.355, 12.27295
1080.837, 12.25056
1081.319, 12.37746
1081.801, 12.56746
1082.283, 12.50604
1082.765, 12.04108
1083.247, 11.71951
1083.729, 11.95668
1084.212, 12.20796
1084.694, 12.06886
1085.176, 11.85681
1085.658, 11.98520
1086.140, 12.30484
1086.622, 12.36896
1087.104, 12.06112
1087.586, 11.76344
1088.068, 11.54311
1088.551, 11.49077
1089.033, 11.86561
1089.515, 12.23312
1089.997, 12.12149
1090.479, 11.75185
1090.961, 11.58427
1091.443, 11.69580
1091.925, 11.83463
1092.408, 11.93567
1092.890, 12.00682
1093.372, 12.03154
1093.854, 12.04776
1094.336, 12.15092
1094.818, 12.22658
1095.300, 12.05710
1095.782, 11.65980
1096.265, 11.34600
1096.747, 11.18631
1097.229, 11.15708
1097.711, 11.37273
1098.193, 11.57810
1098.675, 11.62172
1099.157, 11.57400
1099.639, 11.46681
1100.121, 11.34827
1100.604, 11.38791
1101.086, 11.70824
1101.568, 11.91446
1102.050, 11.90111
1102.532, 11.75593
1103.014, 11.36166
1103.496, 10.98573
1103.978, 10.85954
1104.460, 10.94756
1104.943, 11.15769
1105.425, 11.52728
1105.907, 11.71842
1106.389, 11.46925
1106.871, 11.31163
1107.353, 11.50255
1107.835, 11.73145
1108.317, 11.75978
1108.800, 11.68918
1109.282, 11.74822
1109.764, 11.96337
1110.246, 11.96865
1110.728, 11.49047
1111.210, 11.16189
1111.692, 11.20056
1112.174, 11.25194
1112.656, 11.08813
1113.139, 10.88158
1113.621, 10.87953
1114.103, 11.05816
1114.585, 11.13080
1115.067, 11.02092
1115.549, 10.93795
1116.031, 10.83074
1116.513, 10.82859
1116.995, 11.10487
1117.478, 11.35801
1117.960, 11.25435
1118.442, 10.93518
1118.924, 10.87159
1119.406, 11.17186
1119.888, 11.28500
1120.370, 11.04331
1120.852, 10.98157
1121.335, 11.35037
1121.817, 11.67420
1122.299, 11.60370
1122.781, 11.33948
1123.263, 11.25211
1123.745, 11.34693
1124.227, 11.34070
1124.709, 11.18202
1125.192, 11.12492
1125.674, 11.26415
1126.156, 11.29059
1126.638, 11.00518
1127.120, 10.68765
1127.602, 10.68501
1128.084, 10.92624
1128.566, 11.06281
1129.048, 11.08341
1129.531, 11.11999
1130.013, 11.19772
1130.495, 11.09632
1130.977, 10.69847
1131.459, 10.46314
1131.941, 10.82060
1132.423, 10.53528
1132.905, 10.57226
1133.387, 10.67323
1133.870, 10.57164
1134.352, 11.00652
1134.834, 11.23297
1135.316, 11.10943
1135.798, 10.95165
1136.280, 10.93109
1136.762, 10.96020
1137.244, 10.93492
1137.727, 10.86203
1138.209, 10.67985
1138.691, 10.46635
1139.173, 10.65755
1139.655, 11.20620
1140.137, 11.57263
1140.619, 11.57582
1141.101, 11.43085
1141.583, 11.27520
1142.066, 11.19875
1142.548, 11.47937
1143.030, 11.86716
1143.512, 11.78580
1143.994, 11.37750
1144.476, 11.05933
1144.958, 10.91909
1145.440, 10.88667
1145.922, 10.93042
1146.405, 11.00990
1146.887, 11.06745
1147.369, 11.15946
1147.851, 11.45762
1148.333, 11.76397
1148.815, 11.74224
1149.297, 11.46952
1149.779, 11.18439
1150.262, 10.96950
1150.744, 10.87067
1151.226, 10.83890
1151.708, 11.05954
1152.190, 12.12754
1152.672, 13.02260
1153.154, 12.58125
1153.636, 11.58029
1154.119, 11.19748
1154.601, 11.45279
1155.083, 11.65727
1155.565, 11.62588
1156.047, 11.51752
1156.529, 11.29798
1157.011, 11.12301
1157.493, 11.06732
1157.975, 11.07819
1158.458, 11.16881
1158.940, 11.27158
1159.422, 11.22151
1159.904, 10.98571
1160.386, 10.89720
1160.868, 11.12117
1161.350, 11.28243
1161.832, 11.27481
1162.314, 11.28743
1162.797, 11.48071
1163.279, 11.64743
1163.761, 11.52888
1164.243, 11.19571
1164.725, 10.96894
1165.207, 10.81193
1165.689, 10.93168
1166.171, 11.50775
1166.654, 11.79876
1167.136, 11.54659
1167.618, 11.20887
1168.100, 11.05794
1168.582, 11.07312
1169.064, 11.25624
1169.546, 11.57215
1170.028, 11.68187
1170.510, 11.58108
1170.993, 11.40808
1171.475, 11.17368
1171.957, 11.15714
1172.439, 11.47091
1172.921, 11.80788
1173.403, 11.89233
1173.885, 11.81413
1174.367, 11.72676
1174.849, 11.63209
1175.332, 11.47970
1175.814, 11.32731
1176.296, 11.47175
1176.778, 11.89256
1177.260, 12.16727
1177.742, 12.09335
1178.224, 11.91848
1178.706, 11.84892
1179.189, 11.84703
1179.671, 11.93990
1180.153, 12.01676
1180.635, 11.83167
1181.117, 11.51827
1181.599, 11.42265
1182.081, 11.57877
1182.563, 11.71307
1183.046, 11.70167
1183.528, 11.63289
1184.010, 11.47854
1184.492, 11.37665
1184.974, 11.46875
1185.456, 11.62206
1185.938, 11.71979
1186.420, 11.75426
1186.902, 11.69201
1187.385, 11.51389
1187.867, 11.56188
1188.349, 12.26819
1188.831, 12.65402
1189.313, 12.21615
1189.795, 11.80653
1190.277, 11.96483
1190.759, 12.23534
1191.241, 12.09308
1191.724, 11.68442
1192.206, 11.60075
1192.688, 11.93852
1193.170, 12.20388
1193.652, 12.42650
1194.134, 12.44712
1194.616, 12.14345
1195.098, 11.96356
1195.581, 12.21091
1196.063, 12.54204
1196.545, 12.45772
1197.027, 12.08146
1197.509, 11.95541
1197.991, 12.06479
1198.473, 12.23116
1198.955, 12.42440
1199.438, 12.38134
1199.920, 12.05065
1200.402, 11.75314
1200.884, 11.70001
1201.366, 11.81955
1201.848, 12.15164
1202.330, 12.50018
1202.812, 12.41082
1203.294, 12.08735
1203.776, 11.87983
1204.259, 11.84765
1204.741, 12.04908
1205.223, 12.46249
1205.705, 12.84500
1206.187, 13.10034
1206.669, 13.17643
1207.151, 12.85357
1207.633, 12.53772
1208.116, 12.62441
1208.598, 12.83992
1209.080, 12.86905
1209.562, 12.73404
1210.044, 12.54280
1210.526, 12.29691
1211.008, 12.24161
1211.490, 12.63737
1211.973, 12.90266
1212.455, 12.82493
1212.937, 12.72757
1213.419, 12.77723
1213.901, 12.84119
1214.383, 12.74182
1214.865, 12.56904
1215.347, 12.66457
1215.829, 13.10993
1216.312, 13.22692
1216.794, 12.92546
1217.276, 12.74582
1217.758, 12.78818
1218.240, 12.93539
1218.722, 13.14823
1219.204, 13.31038
1219.686, 13.26716
1220.168, 13.44655
1220.651, 13.26361
1221.133, 13.56167
1221.615, 13.66393
1222.097, 13.58934
1222.579, 13.44197
1223.061, 13.27677
1223.543, 13.24561
1224.025, 13.41930
1224.508, 13.60481
1224.990, 13.65944
1225.472, 13.61170
1225.954, 13.38712
1226.436, 13.16372
1226.918, 13.12742
1227.400, 13.25224
1227.882, 13.52510
1228.365, 13.89271
1228.847, 14.19705
1229.329, 14.40949
1229.811, 14.48781
1230.293, 14.30966
1230.775, 14.15138
1231.257, 14.09725
1231.739, 14.09749
1232.221, 14.16163
1232.703, 14.23062
1233.186, 14.21753
1233.668, 14.13914
1234.150, 14.11160
1234.632, 14.15776
1235.114, 14.16119
1235.596, 14.10980
1236.078, 14.04606
1236.560, 13.95709
1237.043, 14.05030
1237.525, 14.47845
1238.007, 14.92262
1238.489, 14.93710
1238.971, 15.12408
1239.453, 14.77057
1239.935, 15.00894
1240.417, 14.92353
1240.900, 14.60886
1241.382, 14.51833
1241.864, 14.70954
1242.346, 14.91447
1242.828, 15.00321
1243.310, 15.07732
1243.792, 15.25024
1244.274, 15.40348
1244.756, 15.38306
1245.239, 15.35469
1245.721, 15.46106
1246.203, 15.68017
1246.685, 16.05931
1247.167, 16.51645
1247.649, 16.67150
1248.131, 16.37739
1248.613, 16.05931
1249.095, 15.64254
1249.578, 15.40352
1250.060, 15.48794
1250.542, 15.59542
1251.024, 15.53453
1251.506, 15.49516
1251.988, 15.73796
1252.470, 15.81726
1252.952, 15.99551
1253.435, 16.26709
1253.917, 16.38140
1254.399, 16.67989
1254.881, 16.83505
1255.363, 16.79596
1255.845, 16.74659
1256.327, 16.77321
1256.809, 16.84100
1257.292, 16.91589
1257.774, 17.01602
1258.256, 17.17134
1258.738, 17.36344
1259.220, 17.64905
1259.702, 17.90564
1260.184, 17.83254
1260.666, 17.55089
1261.148, 17.55742
1261.630, 17.98973
1262.113, 18.28057
1262.595, 18.07287
1263.077, 17.92017
1263.559, 18.02515
1264.041, 18.16322
1264.523, 18.24500
1265.005, 18.29170
1265.487, 18.29778
1265.970, 18.30220
1266.452, 18.41377
1266.934, 18.42569
1267.416, 18.42089
1267.898, 18.52756
1268.380, 18.45326
1268.862, 18.48907
1269.344, 18.66795
1269.827, 19.00299
1270.309, 19.41186
1270.791, 19.85694
1271.273, 20.15390
1271.755, 19.86379
1272.237, 19.37858
1272.719, 19.45477
1273.201, 19.84620
1273.683, 20.23910
1274.166, 20.51887
1274.648, 20.40333
1275.130, 19.97792
1275.612, 19.95582
1276.094, 20.75400
1276.576, 21.29695
1277.058, 20.87597
1277.540, 20.50985
1278.022, 20.51298
1278.505, 20.78216
1278.987, 21.55892
1279.469, 22.31060
1279.951, 22.34822
1280.433, 21.86160
1280.915, 21.62173
1281.397, 21.64375
1281.879, 21.88076
1282.362, 22.36570
1282.844, 22.68093
1283.326, 22.75870
1283.808, 22.73748
1284.290, 22.67557
1284.772, 22.62820
1285.254, 22.62755
1285.736, 22.67291
##END=



