##NAMES=Bastnasite-(Ce)
##RRUFFID=R060737
##IDEAL CHEMISTRY=CeCO_3_F
##LOCALITY=Zagi Mountain, near Hammedabad, Khaffor Dehri, NW Frontier Provence, Pakistan
##OWNER=RRUFF
##SOURCE=Herb Obodda
##DESCRIPTION=Reddish-brown fragment
##STATUS=The identification of this mineral has been confirmed by X-ray diffraction and chemical analysis
##URL=rruff.info/R060737
##MEASURED CHEMISTRY=(Ce_0.55_Nd_0.27_La_0.18_)_Î£=1_CO_3_F_1.00_
83.436, 0.000
83.918, 86.616
84.400, 83.741
84.882, 81.902
85.364, 81.000
85.846, 80.948
86.329, 82.735
86.811, 84.605
87.293, 84.601
87.775, 82.560
88.257, 82.424
88.739, 89.831
89.221, 101.087
89.703, 109.166
90.185, 109.041
90.668, 104.244
91.150, 98.655
91.632, 92.183
92.114, 86.354
92.596, 83.020
93.078, 82.003
93.560, 82.071
94.042, 82.793
94.525, 83.989
95.007, 84.965
95.489, 85.356
95.971, 85.518
96.453, 86.356
96.935, 87.868
97.417, 90.067
97.899, 94.088
98.381, 100.177
98.864, 103.498
99.346, 101.313
99.828, 93.470
100.310, 86.662
100.792, 80.111
101.274, 75.374
101.756, 76.253
102.238, 84.494
102.720, 94.213
103.203, 103.277
103.685, 112.629
104.167, 118.003
104.649, 116.241
105.131, 109.104
105.613, 110.222
106.095, 123.092
106.577, 141.176
107.060, 159.372
107.542, 175.185
108.024, 194.242
108.506, 216.312
108.988, 240.309
109.470, 272.321
109.952, 306.528
110.434, 350.393
110.916, 411.927
111.399, 499.180
111.881, 597.806
112.363, 704.899
112.845, 826.760
113.327, 942.979
113.809, 1056.628
114.291, 1163.519
114.773, 1254.782
115.256, 1316.365
115.738, 1368.015
116.220, 1419.960
116.702, 1458.879
117.184, 1514.448
117.666, 1600.003
118.148, 1713.865
118.630, 1843.623
119.112, 1989.200
119.595, 2144.533
120.077, 2302.378
120.559, 2474.676
121.041, 2638.123
121.523, 2783.982
122.005, 2912.414
122.487, 3008.398
122.969, 3061.917
123.451, 3074.192
123.934, 3046.791
124.416, 2965.556
124.898, 2849.962
125.380, 2720.344
125.862, 2573.122
126.344, 2428.032
126.826, 2304.934
127.308, 2204.106
127.790, 2119.935
128.273, 2050.901
128.755, 1996.422
129.237, 1957.010
129.719, 1936.655
130.201, 1928.427
130.683, 1918.693
131.165, 1907.206
131.648, 1897.098
132.130, 1892.732
132.612, 1893.421
133.094, 1892.834
133.576, 1889.091
134.058, 1882.276
134.540, 1872.394
135.022, 1858.346
135.504, 1843.844
135.986, 1833.699
136.469, 1827.873
136.951, 1826.724
137.433, 1832.083
137.915, 1844.778
138.397, 1855.954
138.879, 1866.864
139.361, 1875.191
139.843, 1872.663
140.326, 1853.443
140.808, 1837.334
141.290, 1837.285
141.772, 1859.179
142.254, 1879.295
142.736, 1894.338
143.218, 1905.392
143.700, 1919.623
144.182, 1936.018
144.665, 1956.642
145.147, 1982.589
145.629, 2013.030
146.111, 2050.746
146.593, 2098.931
147.075, 2160.151
147.557, 2213.192
148.039, 2253.559
148.521, 2287.626
149.004, 2323.282
149.486, 2362.619
149.968, 2400.849
150.450, 2437.315
150.932, 2471.699
151.414, 2504.595
151.896, 2525.206
152.378, 2545.479
152.861, 2586.874
153.343, 2652.149
153.825, 2738.065
154.307, 2843.322
154.789, 2971.172
155.271, 3115.447
155.753, 3296.832
156.235, 3498.697
156.717, 3669.032
157.200, 3818.375
157.682, 3922.378
158.164, 3967.051
158.646, 3899.792
159.128, 3821.231
159.610, 3747.129
160.092, 3678.845
160.574, 3630.119
161.057, 3625.270
161.539, 3633.930
162.021, 3628.275
162.503, 3606.342
162.985, 3562.266
163.467, 3493.277
163.949, 3399.723
164.431, 3282.065
164.913, 3117.366
165.396, 2933.376
165.878, 2768.032
166.360, 2646.482
166.842, 2542.958
167.324, 2439.567
167.806, 2332.632
168.288, 2233.913
168.770, 2148.142
169.253, 2075.223
169.735, 2014.667
170.217, 1972.594
170.699, 1940.458
171.181, 1910.050
171.663, 1878.956
172.145, 1851.720
172.627, 1833.697
173.109, 1823.225
173.592, 1813.665
174.074, 1798.878
174.556, 1782.886
175.038, 1771.865
175.520, 1768.188
176.002, 1768.577
176.484, 1770.815
176.966, 1774.556
177.449, 1777.191
177.931, 1773.897
178.413, 1768.028
178.895, 1767.093
179.377, 1778.063
179.859, 1792.527
180.341, 1794.218
180.823, 1782.931
181.305, 1772.661
181.788, 1777.546
182.270, 1794.573
182.752, 1813.687
183.234, 1829.710
183.716, 1845.156
184.198, 1867.508
184.680, 1897.822
185.162, 1928.039
185.645, 1947.164
186.127, 1956.686
186.609, 1967.705
187.091, 1982.697
187.573, 2002.778
188.055, 2034.482
188.537, 2081.481
189.019, 2131.367
189.501, 2167.491
189.984, 2190.345
190.466, 2205.608
190.948, 2221.010
191.430, 2234.272
191.912, 2224.551
192.394, 2186.795
192.876, 2131.046
193.358, 2073.985
193.840, 2015.639
194.323, 1959.183
194.805, 1906.006
195.287, 1856.210
195.769, 1813.332
196.251, 1777.133
196.733, 1748.068
197.215, 1729.362
197.697, 1722.285
198.180, 1717.932
198.662, 1708.850
199.144, 1694.455
199.626, 1683.037
200.108, 1674.970
200.590, 1671.097
201.072, 1676.637
201.554, 1693.408
202.036, 1713.705
202.519, 1730.518
203.001, 1743.209
203.483, 1756.421
203.965, 1770.984
204.447, 1786.893
204.929, 1803.583
205.411, 1820.989
205.893, 1839.341
206.376, 1862.506
206.858, 1894.878
207.340, 1912.425
207.822, 1904.048
208.304, 1869.250
208.786, 1845.485
209.268, 1835.630
209.750, 1833.037
210.232, 1830.104
210.714, 1827.490
211.197, 1822.718
211.679, 1813.373
212.161, 1798.110
212.643, 1789.999
213.125, 1788.872
213.607, 1795.226
214.089, 1810.033
214.572, 1833.745
215.054, 1865.128
215.536, 1906.437
216.018, 1962.680
216.500, 2005.975
216.982, 2029.284
217.464, 2043.850
217.946, 2073.016
218.428, 2122.371
218.911, 2174.119
219.393, 2220.263
219.875, 2256.306
220.357, 2299.044
220.839, 2352.607
221.321, 2411.005
221.803, 2460.398
222.285, 2492.090
222.767, 2529.248
223.250, 2583.910
223.732, 2665.948
224.214, 2741.804
224.696, 2809.339
225.178, 2870.363
225.660, 2934.175
226.142, 2997.595
226.624, 3067.885
227.107, 3149.445
227.589, 3250.172
228.071, 3344.672
228.553, 3424.147
229.035, 3496.217
229.517, 3597.542
229.999, 3748.331
230.481, 3903.544
230.963, 4035.281
231.445, 4132.795
231.928, 4231.984
232.410, 4336.617
232.892, 4446.673
233.374, 4551.833
233.856, 4651.325
234.338, 4747.569
234.820, 4844.580
235.303, 4949.161
235.785, 5039.373
236.267, 5108.823
236.749, 5160.188
237.231, 5214.638
237.713, 5273.126
238.195, 5332.958
238.677, 5391.970
239.159, 5449.411
239.641, 5507.095
240.124, 5563.326
240.606, 5618.522
241.088, 5685.377
241.570, 5762.493
242.052, 5851.916
242.534, 5955.687
243.016, 6077.303
243.498, 6206.317
243.981, 6339.053
244.463, 6475.625
244.945, 6629.089
245.427, 6801.076
245.909, 6987.901
246.391, 7187.238
246.873, 7393.180
247.355, 7622.278
247.837, 7878.369
248.320, 8161.281
248.802, 8463.200
249.284, 8788.784
249.766, 9124.061
250.248, 9457.221
250.730, 9778.325
251.212, 10117.160
251.694, 10478.730
252.176, 10859.960
252.659, 11273.000
253.141, 11732.170
253.623, 12209.220
254.105, 12687.700
254.587, 13173.780
255.069, 13640.120
255.551, 14087.520
256.033, 14513.310
256.516, 14900.430
256.998, 15263.860
257.480, 15573.150
257.962, 15795.080
258.444, 15916.960
258.926, 15984.180
259.408, 16010.290
259.890, 15995.440
260.372, 15904.850
260.855, 15727.750
261.337, 15484.710
261.819, 15194.440
262.301, 14845.260
262.783, 14470.110
263.265, 14064.290
263.747, 13630.550
264.229, 13209.780
264.711, 12805.340
265.194, 12414.490
265.676, 12037.900
266.158, 11679.820
266.640, 11336.820
267.122, 11005.560
267.604, 10683.680
268.086, 10419.260
268.569, 10221.860
269.051, 10062.700
269.533, 9907.460
270.015, 9750.133
270.497, 9620.633
270.979, 9531.275
271.461, 9480.354
271.943, 9435.608
272.425, 9399.724
272.908, 9365.293
273.390, 9331.095
273.872, 9303.543
274.354, 9245.746
274.836, 9146.684
275.318, 9007.570
275.800, 8842.337
276.282, 8650.638
276.764, 8434.048
277.247, 8188.038
277.729, 7910.084
278.211, 7618.485
278.693, 7309.150
279.175, 6986.342
279.657, 6681.704
280.139, 6396.176
280.621, 6125.558
281.103, 5864.515
281.586, 5612.710
282.068, 5377.267
282.550, 5159.949
283.032, 4960.571
283.514, 4779.617
283.996, 4618.280
284.478, 4470.249
284.960, 4331.843
285.443, 4202.447
285.925, 4075.331
286.407, 3946.231
286.889, 3818.903
287.371, 3710.985
287.853, 3624.237
288.335, 3542.814
288.817, 3448.559
289.299, 3343.794
289.782, 3249.217
290.264, 3176.931
290.746, 3115.985
291.228, 3027.891
291.710, 2910.382
292.192, 2831.949
292.674, 2810.011
293.156, 2774.355
293.638, 2725.726
294.121, 2625.248
294.603, 2591.707
295.085, 2531.351
295.567, 2469.894
296.049, 2445.785
296.531, 2377.750
297.013, 2326.808
297.496, 2278.207
297.978, 2224.632
298.460, 2171.939
298.942, 2131.566
299.424, 2102.339
299.906, 2076.135
300.388, 2047.146
300.870, 2016.925
301.352, 1989.311
301.835, 1965.651
302.317, 1943.880
302.799, 1922.620
303.281, 1901.508
303.763, 1877.983
304.245, 1847.184
304.727, 1813.856
305.209, 1785.099
305.691, 1761.690
306.174, 1743.686
306.656, 1735.482
307.138, 1733.606
307.620, 1726.191
308.102, 1698.228
308.584, 1664.899
309.066, 1642.939
309.548, 1637.783
310.030, 1636.925
310.513, 1635.069
310.995, 1630.907
311.477, 1621.293
311.959, 1599.107
312.441, 1574.171
312.923, 1553.975
313.405, 1539.661
313.887, 1529.795
314.370, 1529.271
314.852, 1532.098
315.334, 1527.214
315.816, 1498.488
316.298, 1469.488
316.780, 1454.500
317.262, 1458.149
317.744, 1463.127
318.226, 1461.153
318.709, 1456.810
319.191, 1456.460
319.673, 1468.239
320.155, 1479.053
320.637, 1482.021
321.119, 1474.919
321.601, 1471.264
322.083, 1477.430
322.565, 1487.519
323.048, 1495.166
323.530, 1493.660
324.012, 1494.952
324.494, 1502.155
324.976, 1515.651
325.458, 1532.181
325.940, 1558.508
326.422, 1584.194
326.905, 1600.524
327.387, 1590.584
327.869, 1589.004
328.351, 1604.777
328.833, 1637.543
329.315, 1663.493
329.797, 1678.359
330.279, 1689.556
330.762, 1702.113
331.244, 1716.105
331.726, 1731.344
332.208, 1747.025
332.690, 1763.680
333.172, 1784.926
333.654, 1810.281
334.136, 1840.575
334.618, 1878.262
335.100, 1928.889
335.583, 1971.908
336.065, 2004.485
336.547, 2028.808
337.029, 2050.990
337.511, 2067.039
337.993, 2090.078
338.475, 2128.850
338.957, 2186.001
339.440, 2242.398
339.922, 2297.444
340.404, 2351.198
340.886, 2403.538
341.368, 2452.729
341.850, 2507.854
342.332, 2575.805
342.814, 2657.061
343.297, 2726.177
343.779, 2779.968
344.261, 2830.898
344.743, 2902.672
345.225, 2994.512
345.707, 3079.207
346.189, 3143.920
346.671, 3192.367
347.153, 3243.694
347.635, 3298.143
348.118, 3351.844
348.600, 3407.085
349.082, 3460.157
349.564, 3496.484
350.046, 3507.692
350.528, 3500.793
351.010, 3487.127
351.492, 3466.752
351.975, 3441.042
352.457, 3414.162
352.939, 3382.609
353.421, 3338.999
353.903, 3276.581
354.385, 3207.049
354.867, 3140.899
355.349, 3077.939
355.832, 3016.904
356.314, 2959.702
356.796, 2902.893
357.278, 2842.198
357.760, 2771.764
358.242, 2706.712
358.724, 2659.833
359.206, 2625.813
359.688, 2591.014
360.171, 2550.153
360.653, 2505.669
361.135, 2458.267
361.617, 2406.438
362.099, 2356.410
362.581, 2307.611
363.063, 2262.165
363.545, 2223.359
364.027, 2199.007
364.510, 2175.357
364.992, 2146.425
365.474, 2110.531
365.956, 2076.743
366.438, 2049.741
366.920, 2024.691
367.402, 1996.461
367.884, 1956.091
368.366, 1921.587
368.849, 1900.303
369.331, 1892.443
369.813, 1874.643
370.295, 1838.474
370.777, 1799.333
371.259, 1767.393
371.741, 1742.903
372.224, 1726.100
372.706, 1720.220
373.188, 1722.455
373.670, 1718.841
374.152, 1705.585
374.634, 1693.104
375.116, 1686.995
375.598, 1687.781
376.080, 1692.942
376.562, 1703.657
377.045, 1717.389
377.527, 1727.726
378.009, 1733.603
378.491, 1742.239
378.973, 1758.008
379.455, 1780.794
379.937, 1801.932
380.419, 1821.424
380.902, 1840.038
381.384, 1857.067
381.866, 1873.060
382.348, 1894.799
382.830, 1925.473
383.312, 1963.486
383.794, 2004.507
384.276, 2048.370
384.759, 2094.850
385.241, 2141.586
385.723, 2190.686
386.205, 2245.884
386.687, 2311.408
387.169, 2379.952
387.651, 2438.669
388.133, 2489.996
388.615, 2547.685
389.098, 2623.213
389.580, 2708.344
390.062, 2793.427
390.544, 2879.115
391.026, 2962.118
391.508, 3043.194
391.990, 3119.891
392.472, 3188.536
392.954, 3241.808
393.437, 3290.246
393.919, 3340.645
394.401, 3394.009
394.883, 3443.866
395.365, 3495.596
395.847, 3539.663
396.329, 3565.262
396.811, 3560.678
397.293, 3546.923
397.776, 3526.292
398.258, 3498.999
398.740, 3472.690
399.222, 3467.306
399.704, 3449.730
400.186, 3398.534
400.668, 3279.746
401.151, 3177.687
401.633, 3101.174
402.115, 3044.971
402.597, 2990.691
403.079, 2944.954
403.561, 2890.352
404.043, 2814.840
404.525, 2708.840
405.007, 2620.964
405.490, 2556.256
405.972, 2503.308
406.454, 2443.170
406.936, 2374.302
407.418, 2306.490
407.900, 2242.234
408.382, 2182.087
408.864, 2127.350
409.346, 2078.863
409.828, 2030.774
410.311, 1974.383
410.793, 1912.390
411.275, 1858.504
411.757, 1818.655
412.239, 1786.231
412.721, 1748.703
413.203, 1706.650
413.685, 1666.406
414.168, 1633.401
414.650, 1604.488
415.132, 1575.435
415.614, 1544.967
416.096, 1515.254
416.578, 1486.894
417.060, 1460.248
417.542, 1436.461
418.025, 1422.859
418.507, 1407.362
418.989, 1377.165
419.471, 1330.152
419.953, 1291.773
420.435, 1282.434
420.917, 1283.654
421.399, 1277.099
421.881, 1246.621
422.364, 1219.940
422.846, 1207.914
423.328, 1207.930
423.810, 1201.327
424.292, 1180.641
424.774, 1156.662
425.256, 1134.708
425.738, 1114.356
426.220, 1096.449
426.703, 1081.536
427.185, 1068.712
427.667, 1056.504
428.149, 1044.771
428.631, 1034.003
429.113, 1025.204
429.595, 1018.814
430.077, 1006.486
430.560, 985.274
431.042, 964.127
431.524, 954.909
432.006, 958.653
432.488, 960.375
432.970, 957.683
433.452, 950.200
433.934, 933.188
434.417, 906.602
434.899, 883.344
435.381, 876.070
435.863, 879.628
436.345, 877.915
436.827, 867.513
437.309, 856.460
437.791, 856.199
438.273, 863.180
438.755, 867.849
439.238, 865.597
439.720, 858.770
440.202, 846.874
440.684, 829.933
441.166, 817.431
441.648, 821.544
442.130, 830.534
442.612, 832.277
443.095, 816.754
443.577, 800.347
444.059, 787.466
444.541, 777.999
445.023, 771.523
445.505, 772.235
445.987, 772.534
446.469, 768.293
446.952, 755.341
447.434, 746.536
447.916, 747.364
448.398, 750.364
448.880, 744.710
449.362, 723.063
449.844, 704.625
450.326, 693.624
450.808, 689.819
451.290, 690.118
451.773, 696.396
452.255, 702.772
452.737, 703.746
453.219, 698.631
453.701, 696.196
454.183, 698.993
454.665, 702.914
455.147, 698.587
455.630, 686.286
456.112, 673.714
456.594, 664.140
457.076, 657.491
457.558, 654.651
458.040, 655.899
458.522, 657.962
459.004, 657.535
459.487, 655.724
459.969, 654.697
460.451, 656.012
460.933, 657.592
461.415, 658.359
461.897, 658.090
462.379, 655.777
462.861, 646.030
463.343, 637.159
463.826, 636.303
464.308, 648.281
464.790, 658.375
465.272, 662.969
465.754, 662.761
466.236, 658.904
466.718, 643.823
467.200, 633.065
467.682, 633.837
468.165, 646.353
468.647, 648.669
469.129, 630.784
469.611, 612.945
470.093, 610.171
470.575, 629.960
471.057, 642.882
471.539, 645.045
472.022, 640.396
472.504, 637.899
472.986, 637.984
473.468, 637.571
473.950, 634.737
474.432, 630.021
474.914, 628.074
475.396, 629.509
475.878, 629.011
476.361, 616.409
476.843, 596.828
477.325, 587.424
477.807, 596.862
478.289, 612.056
478.771, 618.931
479.253, 618.555
479.735, 614.862
480.217, 605.329
480.700, 596.315
481.182, 595.025
481.664, 603.848
482.146, 610.562
482.628, 605.842
483.110, 597.106
483.592, 592.863
484.074, 601.373
484.556, 608.160
485.039, 608.222
485.521, 602.366
486.003, 598.729
486.485, 598.937
486.967, 600.110
487.449, 601.302
487.931, 603.653
488.414, 602.811
488.896, 597.068
489.378, 589.856
489.860, 586.227
490.342, 586.739
490.824, 588.557
491.306, 591.928
491.788, 595.883
492.270, 595.339
492.753, 589.991
493.235, 584.197
493.717, 582.121
494.199, 582.454
494.681, 581.204
495.163, 577.644
495.645, 572.992
496.127, 567.640
496.609, 562.191
497.092, 558.370
497.574, 557.128
498.056, 557.627
498.538, 559.993
499.020, 564.070
499.502, 567.466
499.984, 569.845
500.466, 570.693
500.948, 569.309
501.431, 562.137
501.913, 558.165
502.395, 560.268
502.877, 566.444
503.359, 572.944
503.841, 584.440
504.323, 590.118
504.805, 584.864
505.288, 568.294
505.770, 557.779
506.252, 554.173
506.734, 554.951
507.216, 559.784
507.698, 569.533
508.180, 574.553
508.662, 573.013
509.145, 567.557
509.627, 561.668
510.109, 555.566
510.591, 551.753
511.073, 552.844
511.555, 556.661
512.037, 559.842
512.519, 562.333
513.001, 562.216
513.484, 553.814
513.966, 543.505
514.448, 540.099
514.930, 549.528
515.412, 558.840
515.894, 560.902
516.376, 557.768
516.858, 553.600
517.341, 548.820
517.823, 543.990
518.305, 537.982
518.787, 530.151
519.269, 528.094
519.751, 536.565
520.233, 547.308
520.715, 555.301
521.197, 561.888
521.680, 562.122
522.162, 552.433
522.644, 538.762
523.126, 535.281
523.608, 544.004
524.090, 550.248
524.572, 546.984
525.054, 536.638
525.536, 528.688
526.019, 523.070
526.501, 521.143
526.983, 528.099
527.465, 539.253
527.947, 543.087
528.429, 535.090
528.911, 525.990
529.393, 525.946
529.875, 531.990
530.358, 538.352
530.840, 546.267
531.322, 550.524
531.804, 545.499
532.286, 531.641
532.768, 521.824
533.250, 522.354
533.732, 525.765
534.214, 527.606
534.697, 526.825
535.179, 525.581
535.661, 521.926
536.143, 518.881
536.625, 521.946
537.107, 534.004
537.589, 544.621
538.071, 551.861
538.554, 555.555
539.036, 552.262
539.518, 540.839
540.000, 531.666
540.482, 535.993
540.964, 549.338
541.446, 553.912
541.928, 546.570
542.411, 538.330
542.893, 543.236
543.375, 555.778
543.857, 564.730
544.339, 562.945
544.821, 558.673
545.303, 557.078
545.785, 557.667
546.268, 558.390
546.750, 559.579
547.232, 559.782
547.714, 557.199
548.196, 549.473
548.678, 546.817
549.160, 553.106
549.642, 562.994
550.124, 572.395
550.606, 583.815
551.089, 588.986
551.571, 584.499
552.053, 574.282
552.535, 569.765
553.017, 571.444
553.499, 575.400
553.981, 580.904
554.463, 587.356
554.945, 592.015
555.428, 594.902
555.910, 595.768
556.392, 591.200
556.874, 585.065
557.356, 585.459
557.838, 596.667
558.320, 608.657
558.802, 613.457
559.284, 613.369
559.767, 612.909
560.249, 612.439
560.731, 613.242
561.213, 616.482
561.695, 622.068
562.177, 626.988
562.659, 632.750
563.141, 636.113
563.624, 634.336
564.106, 621.942
564.588, 619.649
565.070, 632.460
565.552, 649.554
566.034, 654.502
566.516, 645.386
566.998, 640.308
567.481, 645.050
567.963, 655.362
568.445, 660.006
568.927, 659.624
569.409, 661.766
569.891, 674.345
570.373, 691.107
570.855, 702.213
571.338, 707.056
571.820, 709.641
572.302, 709.966
572.784, 710.827
573.266, 715.479
573.748, 728.930
574.230, 740.065
574.712, 739.880
575.194, 735.503
575.677, 742.313
576.159, 779.859
576.641, 806.514
577.123, 807.253
577.605, 784.076
578.087, 781.112
578.569, 805.059
579.051, 834.157
579.533, 854.877
580.016, 867.241
580.498, 875.397
580.980, 878.028
581.462, 882.436
581.944, 901.389
582.426, 930.392
582.908, 953.342
583.390, 959.444
583.872, 964.205
584.355, 985.680
584.837, 1019.203
585.319, 1051.098
585.801, 1075.431
586.283, 1095.154
586.765, 1110.950
587.247, 1122.429
587.729, 1134.260
588.211, 1144.944
588.694, 1157.999
589.176, 1176.171
589.658, 1205.352
590.140, 1227.984
590.622, 1241.586
591.104, 1250.497
591.586, 1261.625
592.068, 1275.312
592.551, 1288.961
593.033, 1301.449
593.515, 1313.664
593.997, 1328.816
594.479, 1346.598
594.961, 1363.552
595.443, 1376.327
595.925, 1387.562
596.407, 1401.785
596.890, 1419.657
597.372, 1435.812
597.854, 1447.456
598.336, 1455.573
598.818, 1461.068
599.300, 1463.146
599.782, 1464.005
600.265, 1461.215
600.747, 1457.977
601.229, 1460.825
601.711, 1474.799
602.193, 1487.081
602.675, 1493.546
603.157, 1495.484
603.639, 1504.193
604.121, 1522.487
604.604, 1535.500
605.086, 1531.369
605.568, 1512.862
606.050, 1496.647
606.532, 1483.690
607.014, 1470.838
607.496, 1455.573
607.978, 1438.047
608.460, 1418.911
608.943, 1398.207
609.425, 1375.797
609.907, 1352.741
610.389, 1327.587
610.871, 1297.379
611.353, 1254.086
611.835, 1212.960
612.317, 1178.156
612.799, 1150.036
613.282, 1126.132
613.764, 1111.503
614.246, 1094.489
614.728, 1068.050
615.210, 1030.408
615.692, 998.609
616.174, 973.251
616.656, 951.012
617.138, 928.521
617.621, 906.063
618.103, 884.273
618.585, 863.310
619.067, 843.953
619.549, 827.723
620.031, 813.953
620.513, 800.901
620.995, 789.904
621.477, 777.657
621.960, 760.689
622.442, 740.119
622.924, 721.780
623.406, 703.292
623.888, 690.863
624.370, 690.016
624.852, 704.688
625.334, 710.231
625.817, 705.664
626.299, 693.295
626.781, 669.290
627.263, 630.908
627.745, 601.735
628.227, 589.592
628.709, 595.369
629.191, 596.795
629.674, 594.106
630.156, 574.972
630.638, 577.072
631.120, 570.663
631.602, 563.905
632.084, 568.994
632.566, 552.252
633.048, 555.992
633.531, 568.916
634.013, 571.549
634.495, 562.203
634.977, 553.614
635.459, 545.246
635.941, 539.688
636.423, 539.124
636.905, 546.531
637.387, 549.699
637.870, 547.296
638.352, 542.780
638.834, 540.217
639.316, 539.560
639.798, 540.167
640.280, 542.753
640.762, 545.036
641.244, 542.291
641.726, 536.173
642.209, 531.899
642.691, 534.706
643.173, 538.110
643.655, 537.610
644.137, 533.381
644.619, 528.058
645.101, 519.880
645.583, 513.000
646.065, 510.501
646.548, 514.339
647.030, 513.601
647.512, 504.938
647.994, 496.064
648.476, 495.242
648.958, 503.684
649.440, 506.303
649.922, 499.349
650.404, 491.297
650.887, 497.285
651.369, 513.495
651.851, 525.316
652.333, 524.822
652.815, 520.924
653.297, 522.854
653.779, 528.734
654.261, 533.085
654.744, 530.106
655.226, 528.218
655.708, 533.511
656.190, 546.749
656.672, 552.370
657.154, 542.242
657.636, 533.074
658.118, 534.220
658.601, 548.196
659.083, 559.028
659.565, 566.596
660.047, 571.339
660.529, 571.360
661.011, 568.188
661.493, 570.196
661.975, 579.744
662.458, 592.371
662.940, 606.566
663.422, 619.898
663.904, 627.679
664.386, 623.357
664.868, 617.766
665.350, 617.962
665.832, 621.239
666.314, 618.204
666.797, 598.040
667.279, 581.250
667.761, 573.891
668.243, 575.728
668.725, 577.898
669.207, 580.370
669.689, 583.110
670.171, 585.791
670.653, 588.582
671.135, 593.390
671.618, 600.576
672.100, 607.046
672.582, 608.592
673.064, 607.909
673.546, 609.569
674.028, 616.085
674.510, 621.201
674.992, 619.615
675.474, 615.277
675.957, 613.606
676.439, 617.865
676.921, 622.248
677.403, 625.105
677.885, 627.727
678.367, 633.963
678.849, 645.035
679.331, 655.313
679.814, 660.336
680.296, 663.699
680.778, 678.489
681.260, 704.669
681.742, 738.682
682.224, 779.543
682.706, 826.382
683.188, 874.791
683.670, 924.454
684.153, 992.543
684.635, 1120.151
685.117, 1249.609
685.599, 1338.807
686.081, 1387.549
686.563, 1378.956
687.045, 1290.759
687.528, 1165.157
688.010, 1038.363
688.492, 905.311
688.974, 799.471
689.456, 728.158
689.938, 681.560
690.420, 647.711
690.902, 625.092
691.384, 606.922
691.867, 593.616
692.349, 580.469
692.831, 557.627
693.313, 529.974
693.795, 511.677
694.277, 517.970
694.759, 526.825
695.241, 528.758
695.723, 523.364
696.206, 515.547
696.688, 501.447
697.170, 490.590
697.652, 489.034
698.134, 497.609
698.616, 497.439
699.098, 486.779
699.580, 475.552
700.062, 473.491
700.545, 477.839
701.027, 480.565
701.509, 480.682
701.991, 479.742
702.473, 476.811
702.955, 474.478
703.437, 476.628
703.919, 490.508
704.402, 498.440
704.884, 489.684
705.366, 473.827
705.848, 466.011
706.330, 469.642
706.812, 475.041
707.294, 481.109
707.776, 487.795
708.258, 495.727
708.741, 504.975
709.223, 512.940
709.705, 520.687
710.187, 525.065
710.669, 514.508
711.151, 493.381
711.633, 481.451
712.115, 497.513
712.597, 520.540
713.080, 536.846
713.562, 545.572
714.044, 555.409
714.526, 567.800
715.008, 582.185
715.490, 598.269
715.972, 616.535
716.455, 634.230
716.937, 650.648
717.419, 668.889
717.901, 693.211
718.383, 722.225
718.865, 750.050
719.347, 775.292
719.829, 800.726
720.311, 825.275
720.794, 852.580
721.276, 888.245
721.758, 941.538
722.240, 990.227
722.722, 1017.723
723.204, 1038.533
723.686, 1076.781
724.168, 1142.064
724.651, 1207.865
725.133, 1262.528
725.615, 1321.400
726.097, 1423.304
726.579, 1569.199
727.061, 1731.036
727.543, 1919.468
728.025, 2098.400
728.507, 2209.290
728.990, 2256.556
729.472, 2253.209
729.954, 2157.494
730.436, 2055.507
730.918, 1990.999
731.400, 1966.767
731.882, 1985.140
732.364, 2056.438
732.846, 2162.922
733.328, 2296.785
733.811, 2457.127
734.293, 2674.765
734.775, 2961.611
735.257, 3251.337
735.739, 3533.890
736.221, 3780.124
736.703, 3888.296
737.185, 3851.450
737.667, 3685.111
738.150, 3330.771
738.632, 2892.190
739.114, 2471.808
739.596, 2076.102
740.078, 1737.412
740.560, 1469.227
741.042, 1262.213
741.524, 1106.131
742.007, 1017.124
742.489, 941.028
742.971, 875.665
743.453, 820.424
743.935, 776.365
744.417, 742.874
744.899, 714.612
745.381, 691.379
745.864, 670.923
746.346, 650.749
746.828, 631.087
747.310, 612.742
747.792, 593.673
748.274, 578.244
748.756, 568.972
749.238, 564.828
749.721, 562.487
750.203, 565.232
750.685, 563.939
751.167, 556.945
751.649, 544.206
752.131, 518.880
752.613, 480.284
753.095, 456.822
753.577, 474.463
754.060, 510.609
754.542, 529.354
755.024, 532.829
755.506, 533.963
755.988, 536.376
756.470, 541.385
756.952, 552.215
757.434, 569.540
757.916, 578.974
758.399, 577.147
758.881, 571.120
759.363, 563.090
759.845, 552.799
760.327, 547.995
760.809, 549.562
761.291, 550.202
761.773, 541.794
762.255, 528.678
762.738, 519.509
763.220, 515.385
763.702, 512.247
764.184, 508.388
764.666, 503.753
765.148, 498.009
765.630, 489.344
766.112, 484.056
766.594, 485.941
767.077, 487.788
767.559, 480.745
768.041, 462.234
768.523, 455.711
769.005, 465.280
769.487, 479.533
769.969, 486.533
770.451, 487.179
770.934, 482.937
771.416, 471.932
771.898, 462.078
772.380, 458.451
772.862, 459.378
773.344, 462.551
773.826, 472.385
774.308, 477.869
774.791, 476.496
775.273, 471.479
775.755, 467.199
776.237, 463.162
776.719, 464.753
777.201, 476.081
777.683, 488.254
778.165, 482.618
778.648, 465.190
779.130, 453.695
779.612, 458.554
780.094, 468.554
780.576, 481.801
781.058, 494.640
781.540, 498.143
782.022, 478.225
782.504, 463.606
782.987, 461.048
783.469, 467.129
783.951, 470.593
784.433, 471.160
784.915, 471.251
785.397, 471.388
785.879, 471.994
786.361, 474.471
786.843, 478.342
787.326, 481.567
787.808, 484.182
788.290, 484.831
788.772, 481.514
789.254, 474.853
789.736, 469.865
790.218, 468.081
790.700, 466.486
791.182, 463.466
791.665, 459.609
792.147, 460.051
792.629, 465.020
793.111, 470.233
793.593, 474.609
794.075, 476.911
794.557, 472.860
795.039, 463.384
795.521, 456.337
796.004, 456.923
796.486, 460.371
796.968, 464.715
797.450, 469.887
797.932, 473.498
798.414, 475.114
798.896, 475.759
799.378, 475.448
799.860, 474.340
800.343, 475.780
800.825, 479.872
801.307, 482.430
801.789, 477.320
802.271, 470.209
802.753, 470.521
803.235, 478.643
803.718, 483.893
804.200, 475.958
804.682, 467.844
805.164, 469.534
805.646, 483.667
806.128, 489.632
806.610, 484.821
807.092, 477.481
807.574, 472.252
808.057, 469.193
808.539, 469.583
809.021, 473.527
809.503, 477.260
809.985, 475.793
810.467, 473.577
810.949, 476.709
811.431, 464.397
811.914, 484.025
812.396, 495.899
812.878, 500.437
813.360, 475.665
813.842, 488.741
814.324, 486.649
814.806, 483.936
815.288, 502.338
815.770, 481.829
816.253, 499.897
816.735, 502.566
817.217, 512.282
817.699, 506.738
818.181, 505.907
818.663, 520.341
819.145, 526.323
819.627, 519.022
820.109, 529.186
820.592, 508.145
821.074, 517.023
821.556, 522.596
822.038, 523.923
822.520, 522.171
823.002, 517.086
823.484, 511.088
823.966, 505.412
824.448, 500.806
824.931, 498.414
825.413, 498.381
825.895, 500.871
826.377, 507.308
826.859, 515.384
827.341, 524.236
827.823, 536.816
828.305, 539.504
828.787, 528.443
829.270, 515.211
829.752, 509.367
830.234, 510.165
830.716, 512.792
831.198, 517.024
831.680, 521.399
832.162, 525.698
832.644, 528.972
833.127, 529.137
833.609, 524.365
834.091, 523.824
834.573, 536.132
835.055, 547.903
835.537, 549.958
836.019, 539.735
836.501, 535.383
836.984, 538.008
837.466, 541.073
837.948, 536.884
838.430, 529.156
838.912, 525.760
839.394, 527.698
839.876, 530.514
840.358, 532.044
840.841, 533.032
841.323, 533.651
841.805, 533.274
842.287, 535.985
842.769, 544.800
843.251, 551.538
843.733, 546.706
844.215, 532.234
844.697, 532.550
845.180, 548.780
845.662, 564.870
846.144, 569.127
846.626, 565.782
847.108, 556.799
847.590, 541.747
848.072, 531.931
848.554, 533.839
849.036, 539.165
849.519, 544.203
850.001, 548.915
850.483, 554.174
850.965, 560.167
851.447, 565.674
851.929, 570.213
852.411, 573.458
852.893, 574.542
853.375, 573.527
853.858, 571.603
854.340, 566.805
854.822, 563.549
855.304, 564.703
855.786, 570.758
856.268, 578.700
856.750, 589.468
857.232, 600.064
857.714, 609.053
858.197, 616.511
858.679, 622.599
859.161, 627.269
859.643, 630.694
860.125, 631.140
860.607, 631.677
861.089, 634.922
861.571, 640.790
862.054, 647.730
862.536, 654.902
863.018, 663.643
863.500, 674.161
863.982, 686.630
864.464, 700.926
864.946, 717.183
865.428, 736.287
865.911, 767.151
866.393, 795.190
866.875, 791.730
867.357, 764.975
867.839, 743.662
868.321, 738.054
868.803, 742.071
869.285, 763.356
869.767, 792.519
870.250, 800.232
870.732, 781.517
871.214, 758.812
871.696, 736.407
872.178, 716.837
872.660, 707.192
873.142, 705.165
873.624, 703.096
874.106, 696.410
874.589, 690.002
875.071, 688.938
875.553, 689.780
876.035, 684.204
876.517, 664.054
876.999, 652.682
877.481, 655.489
877.963, 665.846
878.445, 671.905
878.928, 674.426
879.410, 678.442
879.892, 686.016
880.374, 693.607
880.856, 697.276
881.338, 699.258
881.820, 702.622
882.302, 711.532
882.784, 716.765
883.267, 716.783
883.749, 714.011
884.231, 710.516
884.713, 706.261
885.195, 703.189
885.677, 701.362
886.159, 701.772
886.641, 707.295
887.124, 714.916
887.606, 720.200
888.088, 721.430
888.570, 723.976
889.052, 732.758
889.534, 740.697
890.016, 741.961
890.498, 734.579
890.981, 733.849
891.463, 740.657
891.945, 749.010
892.427, 754.089
892.909, 756.987
893.391, 758.116
893.873, 757.693
894.355, 761.110
894.838, 773.277
895.320, 788.076
895.802, 805.407
896.284, 824.933
896.766, 827.708
897.248, 808.225
897.730, 792.587
898.212, 798.802
898.694, 817.479
899.177, 824.169
899.659, 821.190
900.141, 819.341
900.623, 826.112
901.105, 834.004
901.587, 838.347
902.069, 840.197
902.551, 845.520
903.033, 855.888
903.516, 866.193
903.998, 876.198
904.480, 884.229
904.962, 884.018
905.444, 877.973
905.926, 876.109
906.408, 886.038
906.890, 895.668
907.372, 893.389
907.855, 886.346
908.337, 887.144
908.819, 905.427
909.301, 915.769
909.783, 912.440
910.265, 906.750
910.747, 917.961
911.229, 941.854
911.711, 955.836
912.194, 954.247
912.676, 950.122
913.158, 954.687
913.640, 962.186
914.122, 966.483
914.604, 964.257
915.086, 965.412
915.568, 972.370
916.051, 979.510
916.533, 981.086
917.015, 978.139
917.497, 982.483
917.979, 994.362
918.461, 1006.379
918.943, 1012.896
919.425, 1017.079
919.907, 1020.840
920.390, 1024.428
920.872, 1030.588
921.354, 1044.208
921.836, 1052.305
922.318, 1039.569
922.800, 1019.047
923.282, 1076.993
923.764, 1205.918
924.247, 1288.480
924.729, 1232.849
925.211, 1137.273
925.693, 1080.876
926.175, 1056.125
926.657, 1042.281
927.139, 1039.742
927.621, 1041.802
928.104, 1049.469
928.586, 1059.399
929.068, 1065.941
929.550, 1069.093
930.032, 1067.743
930.514, 1059.353
930.996, 1054.456
931.478, 1070.353
931.960, 1092.936
932.443, 1103.952
932.925, 1090.378
933.407, 1084.616
933.889, 1091.543
934.371, 1103.578
934.853, 1116.028
935.335, 1128.812
935.817, 1134.986
936.299, 1134.194
936.782, 1133.668
937.264, 1143.964
937.746, 1154.162
938.228, 1150.433
938.710, 1131.606
939.192, 1121.383
939.674, 1128.382
940.156, 1137.358
940.638, 1142.988
941.121, 1146.009
941.603, 1150.785
942.085, 1156.963
942.567, 1160.526
943.049, 1157.541
943.531, 1152.872
944.013, 1152.284
944.495, 1153.147
944.977, 1149.269
945.460, 1133.541
945.942, 1120.970
946.424, 1112.748
946.906, 1108.932
947.388, 1113.373
947.870, 1123.813
948.352, 1122.720
948.834, 1103.868
949.317, 1085.212
949.799, 1082.090
950.281, 1087.035
950.763, 1092.186
951.245, 1095.940
951.727, 1101.826
952.209, 1113.803
952.691, 1120.985
953.174, 1112.556
953.656, 1091.438
954.138, 1073.840
954.620, 1060.379
955.102, 1055.072
955.584, 1068.533
956.066, 1084.315
956.548, 1090.234
957.031, 1086.913
957.513, 1086.106
957.995, 1089.531
958.477, 1093.162
958.959, 1097.643
959.441, 1099.669
959.923, 1085.783
960.405, 1061.837
960.887, 1049.167
961.370, 1064.470
961.852, 1078.801
962.334, 1071.449
962.816, 1055.218
963.298, 1048.489
963.780, 1057.191
964.262, 1060.267
964.744, 1055.523
965.226, 1048.604
965.709, 1045.660
966.191, 1045.154
966.673, 1044.015
967.155, 1041.920
967.637, 1038.225
968.119, 1033.391
968.601, 1026.054
969.083, 1013.210
969.565, 995.639
970.048, 986.227
970.530, 986.138
971.012, 987.440
971.494, 986.564
971.976, 984.435
972.458, 981.813
972.940, 979.223
973.422, 977.983
973.904, 984.926
974.387, 985.338
974.869, 970.632
975.351, 950.396
975.833, 938.942
976.315, 936.620
976.797, 936.549
977.279, 938.336
977.761, 938.866
978.244, 933.471
978.726, 925.492
979.208, 919.689
979.690, 917.962
980.172, 912.362
980.654, 898.872
981.136, 885.112
981.618, 875.657
982.101, 869.783
982.583, 858.838
983.065, 843.492
983.547, 834.109
984.029, 844.809
984.511, 857.118
984.993, 855.519
985.475, 843.429
985.957, 832.977
986.440, 825.232
986.922, 819.718
987.404, 817.159
987.886, 815.490
988.368, 809.756
988.850, 801.915
989.332, 799.154
989.814, 804.278
990.296, 809.347
990.779, 811.898
991.261, 810.494
991.743, 802.536
992.225, 786.208
992.707, 776.109
993.189, 773.706
993.671, 770.870
994.153, 759.170
994.635, 744.527
995.118, 739.167
995.600, 741.493
996.082, 743.041
996.564, 741.097
997.046, 736.582
997.528, 727.591
998.010, 717.445
998.492, 714.805
998.974, 719.955
999.457, 721.098
999.939, 714.491
1000.421, 707.110
1000.903, 706.803
1001.385, 709.945
1001.867, 711.908
1002.349, 711.140
1002.831, 711.735
1003.314, 716.890
1003.796, 718.780
1004.278, 709.945
1004.760, 692.826
1005.242, 683.032
1005.724, 679.896
1006.206, 676.744
1006.688, 666.924
1007.171, 658.465
1007.653, 656.513
1008.135, 660.067
1008.617, 664.709
1009.099, 671.208
1009.581, 675.976
1010.063, 678.088
1010.545, 678.936
1011.027, 682.687
1011.510, 686.217
1011.992, 681.366
1012.474, 662.870
1012.956, 650.785
1013.438, 659.115
1013.920, 670.273
1014.402, 672.807
1014.884, 666.835
1015.367, 664.715
1015.849, 666.528
1016.331, 668.139
1016.813, 665.481
1017.295, 662.537
1017.777, 664.300
1018.259, 669.146
1018.741, 672.049
1019.223, 671.402
1019.706, 669.841
1020.188, 667.215
1020.670, 664.570
1021.152, 663.119
1021.634, 663.006
1022.116, 665.997
1022.598, 673.288
1023.080, 677.034
1023.563, 664.894
1024.045, 653.366
1024.527, 658.129
1025.009, 679.877
1025.491, 685.437
1025.973, 672.569
1026.455, 659.509
1026.937, 655.523
1027.419, 657.200
1027.901, 662.924
1028.384, 669.989
1028.866, 671.698
1029.348, 655.856
1029.830, 648.949
1030.312, 658.826
1030.794, 673.541
1031.276, 677.534
1031.758, 672.113
1032.241, 668.068
1032.723, 666.511
1033.205, 666.825
1033.687, 672.269
1034.169, 676.452
1034.651, 671.161
1035.133, 656.581
1035.615, 655.708
1036.098, 673.460
1036.580, 687.166
1037.062, 687.115
1037.544, 679.700
1038.026, 672.084
1038.508, 666.583
1038.990, 668.738
1039.472, 689.837
1039.954, 702.965
1040.437, 697.815
1040.919, 686.753
1041.401, 678.919
1041.883, 674.368
1042.365, 672.753
1042.847, 674.087
1043.329, 677.038
1043.811, 681.496
1044.293, 686.467
1044.776, 691.525
1045.258, 696.513
1045.740, 700.312
1046.222, 701.769
1046.704, 705.798
1047.186, 714.926
1047.668, 724.198
1048.150, 724.958
1048.633, 720.282
1049.115, 715.861
1049.597, 712.321
1050.079, 711.610
1050.561, 715.206
1051.043, 721.369
1051.525, 730.448
1052.007, 742.002
1052.490, 746.050
1052.972, 743.090
1053.454, 742.191
1053.936, 751.528
1054.418, 762.336
1054.900, 767.951
1055.382, 769.888
1055.864, 771.591
1056.346, 773.395
1056.828, 774.299
1057.311, 773.444
1057.793, 773.992
1058.275, 781.242
1058.757, 791.898
1059.239, 799.014
1059.721, 801.820
1060.203, 808.146
1060.685, 825.878
1061.168, 842.302
1061.650, 852.963
1062.132, 858.575
1062.614, 857.222
1063.096, 850.832
1063.578, 856.335
1064.060, 885.050
1064.542, 915.621
1065.025, 929.575
1065.507, 937.842
1065.989, 953.206
1066.471, 977.129
1066.953, 1005.370
1067.435, 1039.016
1067.917, 1072.446
1068.399, 1096.288
1068.881, 1120.527
1069.364, 1164.676
1069.846, 1224.598
1070.328, 1282.496
1070.810, 1338.121
1071.292, 1384.001
1071.774, 1419.584
1072.256, 1444.923
1072.738, 1458.056
1073.220, 1460.426
1073.703, 1455.398
1074.185, 1442.128
1074.667, 1437.014
1075.149, 1455.853
1075.631, 1482.023
1076.113, 1498.347
1076.595, 1508.035
1077.077, 1553.696
1077.559, 1638.056
1078.042, 1723.574
1078.524, 1788.985
1079.006, 1859.629
1079.488, 1960.961
1079.970, 2087.946
1080.452, 2235.369
1080.934, 2403.375
1081.416, 2585.427
1081.899, 2773.604
1082.381, 2992.416
1082.863, 3250.502
1083.345, 3554.808
1083.827, 3921.783
1084.309, 4348.688
1084.791, 4846.902
1085.273, 5394.444
1085.755, 6045.214
1086.238, 6808.688
1086.720, 7681.495
1087.202, 8649.761
1087.684, 9712.959
1088.166, 10936.340
1088.648, 12308.090
1089.130, 13892.180
1089.612, 15712.570
1090.094, 17784.689
1090.577, 20076.490
1091.059, 22603.141
1091.541, 25608.750
1092.023, 29024.350
1092.505, 33143.770
1092.987, 37983.539
1093.469, 43647.270
1093.951, 50958.148
1094.434, 58963.109
1094.916, 66360.922
1095.398, 74636.781
1095.880, 77863.422
1096.362, 75172.680
1096.844, 68807.453
1097.326, 58957.031
1097.808, 46813.738
1098.291, 36356.160
1098.773, 27541.609
1099.255, 20525.930
1099.737, 15747.350
1100.219, 12135.660
1100.701, 9602.625
1101.183, 7819.649
1101.665, 6428.954
1102.147, 5423.265
1102.630, 4632.021
1103.112, 4043.607
1103.594, 3573.578
1104.076, 3199.533
1104.558, 2887.927
1105.040, 2625.666
1105.522, 2408.841
1106.004, 2228.426
1106.486, 2087.182
1106.969, 1960.997
1107.451, 1842.749
1107.933, 1737.936
1108.415, 1661.421
1108.897, 1601.465
1109.379, 1542.919
1109.861, 1482.078
1110.343, 1426.504
1110.826, 1378.121
1111.308, 1331.591
1111.790, 1282.386
1112.272, 1234.625
1112.754, 1200.114
1113.236, 1176.044
1113.718, 1153.233
1114.200, 1127.997
1114.682, 1103.397
1115.165, 1080.417
1115.647, 1057.931
1116.129, 1033.797
1116.611, 1008.670
1117.093, 991.235
1117.575, 981.429
1118.057, 972.742
1118.539, 962.941
1119.021, 951.024
1119.504, 935.842
1119.986, 918.274
1120.468, 899.169
1120.950, 878.187
1121.432, 860.249
1121.914, 846.372
1122.396, 835.184
1122.878, 825.208
1123.361, 817.471
1123.843, 814.545
1124.325, 816.706
1124.807, 813.292
1125.289, 802.381
1125.771, 793.005
1126.253, 789.574
1126.735, 786.377
1127.218, 770.133
1127.700, 749.465
1128.182, 739.445
1128.664, 747.700
1129.146, 744.012
1129.628, 740.325
1130.110, 736.639
1130.592, 732.952
1131.074, 729.266
1131.557, 725.572
1132.039, 721.886
1132.521, 718.199
1133.003, 714.512
1133.485, 710.826
1133.967, 707.139
1134.449, 703.453
1134.931, 699.766
1135.413, 696.080
1135.896, 692.386
1136.378, 688.699
1136.860, 672.200
1137.342, 687.037
1137.824, 701.776
1138.306, 697.521
1138.788, 682.748
1139.270, 670.928
1139.752, 661.994
1140.235, 661.332
1140.717, 670.372
1141.199, 679.515
1141.681, 677.762
1142.163, 674.726
1142.645, 680.415
1143.127, 693.752
1143.609, 698.922
1144.092, 695.007
1144.574, 689.014
1145.056, 682.470
1145.538, 675.685
1146.020, 666.135
1146.502, 658.065
1146.984, 659.057
1147.466, 673.714
1147.948, 676.372
1148.431, 662.143
1148.913, 650.716
1149.395, 653.428
1149.877, 661.697
1150.359, 656.816
1150.841, 646.522
1151.323, 646.656
1151.805, 673.904
1152.287, 686.690
1152.770, 677.809
1153.252, 663.538
1153.734, 651.361
1154.216, 643.933
1154.698, 654.488
1155.180, 677.727
1155.662, 694.318
1156.144, 693.086
1156.627, 687.840
1157.109, 678.744
1157.591, 670.602
1158.073, 670.682
1158.555, 676.590
1159.037, 675.117
1159.519, 666.670
1160.001, 664.324
1160.484, 687.281
1160.966, 703.123
1161.448, 695.145
1161.930, 675.841
1162.412, 667.274
1162.894, 668.158
1163.376, 666.930
1163.858, 661.723
1164.340, 657.641
1164.823, 657.530
1165.305, 660.364
1165.787, 667.872
1166.269, 677.538
1166.751, 678.550
1167.233, 671.271
1167.715, 667.059
1168.197, 669.631
1168.679, 672.957
1169.162, 670.401
1169.644, 667.535
1170.126, 670.678
1170.608, 679.440
1171.090, 683.649
1171.572, 683.127
1172.054, 679.879
1172.536, 672.115
1173.019, 666.906
1173.501, 674.478
1173.983, 686.871
1174.465, 694.022
1174.947, 694.764
1175.429, 693.195
1175.911, 689.152
1176.393, 684.083
1176.875, 677.125
1177.358, 671.457
1177.840, 672.568
1178.322, 677.201
1178.804, 679.018
1179.286, 675.302
1179.768, 673.519
1180.250, 673.764
1180.732, 676.037
1181.214, 683.272
1181.697, 690.456
1182.179, 688.166
1182.661, 680.123
1183.143, 678.976
1183.625, 691.713
1184.107, 700.234
1184.589, 702.828
1185.071, 701.760
1185.554, 697.019
1186.036, 691.421
1186.518, 690.025
1187.000, 692.378
1187.482, 693.465
1187.964, 692.829
1188.446, 689.196
1188.928, 680.477
1189.411, 673.274
1189.893, 680.448
1190.375, 693.599
1190.857, 695.426
1191.339, 684.631
1191.821, 682.056
1192.303, 701.062
1192.785, 711.475
1193.267, 703.815
1193.750, 687.037
1194.232, 671.664
1194.714, 660.125
1195.196, 658.901
1195.678, 670.575
1196.160, 678.610
1196.642, 677.231
1197.124, 675.299
1197.606, 675.417
1198.089, 677.506
1198.571, 682.758
1199.053, 689.550
1199.535, 694.050
1200.017, 694.654
1200.499, 695.303
1200.981, 696.413
1201.463, 698.582
1201.945, 703.279
1202.428, 708.268
1202.910, 707.256
1203.392, 701.523
1203.874, 694.005
1204.356, 683.612
1204.838, 676.138
1205.320, 672.167
1205.802, 671.748
1206.285, 676.614
1206.767, 684.467
1207.249, 687.313
1207.731, 686.459
1208.213, 685.753
1208.695, 683.049
1209.177, 687.195
1209.659, 703.311
1210.141, 719.842
1210.624, 726.538
1211.106, 725.982
1211.588, 728.843
1212.070, 733.157
1212.552, 731.014
1213.034, 708.237
1213.516, 694.230
1213.998, 694.911
1214.480, 703.111
1214.963, 717.101
1215.445, 732.105
1215.927, 727.615
1216.409, 707.338
1216.891, 694.567
1217.373, 708.822
1217.855, 718.016
1218.337, 713.581
1218.820, 706.227
1219.302, 710.218
1219.784, 721.592
1220.266, 730.377
1220.748, 735.675
1221.230, 735.445
1221.712, 723.315
1222.194, 712.704
1222.677, 705.609
1223.159, 702.389
1223.641, 706.592
1224.123, 714.321
1224.605, 714.657
1225.087, 707.195
1225.569, 701.749
1226.051, 703.487
1226.533, 705.938
1227.016, 708.082
1227.498, 709.683
1227.980, 710.696
1228.462, 710.799
1228.944, 707.943
1229.426, 701.897
1229.908, 700.297
1230.390, 711.107
1230.872, 717.170
1231.355, 712.309
1231.837, 703.636
1232.319, 706.013
1232.801, 712.910
1233.283, 708.838
1233.765, 690.143
1234.247, 682.840
1234.729, 698.704
1235.212, 712.500
1235.694, 716.111
1236.176, 714.366
1236.658, 717.022
1237.140, 719.949
1237.622, 713.860
1238.104, 695.076
1238.586, 684.468
1239.068, 684.841
1239.551, 691.174
1240.033, 703.576
1240.515, 717.530
1240.997, 728.069
1241.479, 734.229
1241.961, 733.611
1242.443, 724.221
1242.925, 715.856
1243.407, 708.133
1243.890, 704.631
1244.372, 708.041
1244.854, 714.430
1245.336, 718.485
1245.818, 721.252
1246.300, 724.635
1246.782, 730.084
1247.264, 729.071
1247.747, 719.531
1248.229, 713.785
1248.711, 719.949
1249.193, 728.760
1249.675, 730.226
1250.157, 726.568
1250.639, 719.348
1251.121, 707.134
1251.604, 704.533
1252.086, 712.799
1252.568, 720.208
1253.050, 720.699
1253.532, 718.200
1254.014, 714.331
1254.496, 711.054
1254.978, 711.891
1255.460, 717.820
1255.943, 716.979
1256.425, 709.131
1256.907, 704.149
1257.389, 709.119
1257.871, 715.632
1258.353, 718.379
1258.835, 718.132
1259.317, 716.087
1259.799, 712.271
1260.281, 704.919
1260.764, 694.559
1261.246, 689.257
1261.728, 700.138
1262.210, 707.880
1262.692, 695.730
1263.174, 680.095
1263.656, 677.849
1264.138, 688.063
1264.621, 691.425
1265.103, 688.859
1265.585, 686.303
1266.067, 686.854
1266.549, 687.994
1267.031, 690.689
1267.513, 691.703
1267.995, 686.417
1268.478, 676.736
1268.960, 674.045
1269.442, 677.304
1269.924, 681.869
1270.406, 688.193
1270.888, 691.866
1271.370, 692.461
1271.852, 690.155
1272.334, 683.463
1272.817, 674.403
1273.299, 667.196
1273.781, 662.554
1274.263, 662.382
1274.745, 673.455
1275.227, 678.859
1275.709, 675.171
1276.191, 672.322
1276.673, 682.665
1277.156, 696.722
1277.638, 697.454
1278.120, 688.460
1278.602, 679.742
1279.084, 674.064
1279.566, 665.591
1280.048, 652.367
1280.530, 645.012
1281.013, 660.638
1281.495, 678.938
1281.977, 673.881
1282.459, 655.127
1282.941, 644.042
1283.423, 643.307
1283.905, 643.006
1284.387, 642.791
1284.870, 644.009
1285.352, 651.750
1285.834, 656.951
1286.316, 650.375
1286.798, 638.117
1287.280, 629.028
1287.762, 622.992
1288.244, 624.971
1288.726, 634.370
1289.208, 641.842
1289.691, 639.026
1290.173, 636.039
1290.655, 639.543
1291.137, 643.586
1291.619, 640.647
1292.101, 632.377
1292.583, 631.481
1293.065, 637.292
1293.548, 643.860
1294.030, 650.499
1294.512, 654.312
1294.994, 655.214
1295.476, 653.046
1295.958, 646.777
1296.440, 637.462
1296.922, 624.441
1297.405, 611.878
1297.887, 609.229
1298.369, 626.855
1298.851, 639.935
1299.333, 647.580
1299.815, 650.331
1300.297, 648.664
1300.779, 642.581
##END=



