##NAMES=Bastnasite-(Ce)
##RRUFFID=R060629
##IDEAL CHEMISTRY=CeCO_3_F
##LOCALITY=Pakistan
##OWNER=RRUFF
##SOURCE=Gemological Institute of America
##DESCRIPTION=Orange gemmy fragment
##STATUS=The identification of this mineral has been confirmed by X-ray diffraction and chemical analysis
##URL=rruff.info/R060629
##MEASURED CHEMISTRY=(Ce_0.53_Nd_0.25_La_0.22_)_Î£=1_CO_3_F_1.00_
137.8526, 2052.626
138.3347, 2063.997
138.8168, 2080.643
139.2989, 2117.457
139.7810, 2186.493
140.2631, 2255.913
140.7453, 2294.868
141.2274, 2281.765
141.7095, 2284.945
142.1916, 2318.292
142.6737, 2384.872
143.1558, 2459.227
143.6380, 2549.651
144.1201, 2643.524
144.6022, 2723.544
145.0843, 2758.943
145.5664, 2792.079
146.0485, 2869.862
146.5307, 3033.121
147.0128, 3150.745
147.4949, 3196.892
147.9770, 3198.149
148.4591, 3218.793
148.9412, 3304.142
149.4234, 3373.575
149.9055, 3395.642
150.3876, 3301.328
150.8697, 3240.307
151.3518, 3232.200
151.8339, 3270.507
152.3161, 3310.693
152.7982, 3359.052
153.2803, 3402.459
153.7624, 3431.948
154.2445, 3439.323
154.7266, 3440.049
155.2087, 3429.040
155.6909, 3403.156
156.1730, 3401.375
156.6551, 3447.277
157.1372, 3516.941
157.6193, 3583.368
158.1014, 3635.711
158.5836, 3685.148
159.0657, 3734.909
159.5478, 3782.075
160.0299, 3837.588
160.5120, 3915.587
160.9941, 4004.836
161.4763, 4082.023
161.9584, 4141.374
162.4405, 4183.386
162.9226, 4208.585
163.4047, 4218.008
163.8868, 4209.726
164.3690, 4188.918
164.8511, 4152.437
165.3332, 4085.689
165.8153, 3958.672
166.2974, 3805.458
166.7795, 3661.975
167.2617, 3538.112
167.7438, 3429.549
168.2259, 3336.025
168.7080, 3257.926
169.1901, 3181.042
169.6722, 3095.770
170.1544, 3005.251
170.6365, 2914.726
171.1186, 2808.947
171.6007, 2713.075
172.0828, 2656.775
172.5649, 2645.632
173.0471, 2645.753
173.5292, 2625.926
174.0113, 2592.480
174.4934, 2562.819
174.9755, 2554.389
175.4576, 2554.037
175.9397, 2539.090
176.4219, 2502.034
176.9040, 2460.786
177.3861, 2439.509
177.8682, 2435.073
178.3503, 2428.173
178.8324, 2397.965
179.3146, 2355.215
179.7967, 2325.538
180.2788, 2317.000
180.7609, 2322.198
181.2430, 2334.102
181.7251, 2352.456
182.2073, 2367.164
182.6894, 2365.087
183.1715, 2350.233
183.6536, 2339.646
184.1357, 2339.636
184.6178, 2347.126
185.1000, 2352.889
185.5821, 2356.325
186.0642, 2362.915
186.5463, 2384.474
187.0284, 2418.696
187.5105, 2444.455
187.9927, 2452.809
188.4748, 2445.130
188.9569, 2424.792
189.4390, 2388.086
189.9211, 2349.223
190.4032, 2333.872
190.8854, 2342.716
191.3675, 2346.411
191.8496, 2326.982
192.3317, 2286.066
192.8138, 2245.656
193.2959, 2205.544
193.7781, 2168.904
194.2602, 2144.160
194.7423, 2132.976
195.2244, 2122.741
195.7065, 2102.754
196.1886, 2072.575
196.6708, 2052.253
197.1529, 2049.599
197.6350, 2056.015
198.1171, 2036.740
198.5992, 1984.436
199.0813, 1934.334
199.5634, 1917.518
200.0456, 1937.466
200.5277, 1963.039
201.0098, 1992.381
201.4919, 2023.641
201.9740, 2037.145
202.4561, 2026.881
202.9383, 2012.251
203.4204, 2017.867
203.9025, 2050.646
204.3846, 2071.844
204.8667, 2062.660
205.3488, 2022.787
205.8310, 2019.473
206.3131, 2064.441
206.7952, 2128.833
207.2773, 2172.859
207.7594, 2192.408
208.2415, 2204.425
208.7237, 2213.060
209.2058, 2217.391
209.6879, 2224.387
210.1700, 2234.089
210.6521, 2246.468
211.1342, 2261.823
211.6164, 2280.721
212.0985, 2300.935
212.5806, 2320.360
213.0627, 2336.225
213.5448, 2362.133
214.0269, 2404.837
214.5091, 2455.337
214.9912, 2485.366
215.4733, 2483.581
215.9554, 2481.817
216.4375, 2499.842
216.9196, 2546.330
217.4018, 2585.945
217.8839, 2613.148
218.3660, 2631.181
218.8481, 2656.268
219.3302, 2687.498
219.8123, 2726.809
220.2945, 2777.793
220.7766, 2848.979
221.2587, 2910.688
221.7408, 2957.298
222.2229, 2990.137
222.7050, 3018.253
223.1871, 3031.678
223.6693, 3052.571
224.1514, 3104.972
224.6335, 3213.124
225.1156, 3301.783
225.5977, 3352.828
226.0798, 3364.537
226.5620, 3392.061
227.0441, 3439.878
227.5262, 3498.795
228.0083, 3559.515
228.4904, 3618.017
228.9725, 3685.465
229.4547, 3767.810
229.9368, 3868.399
230.4189, 3957.109
230.9010, 4026.858
231.3831, 4090.925
231.8652, 4169.428
232.3474, 4277.860
232.8295, 4376.567
233.3116, 4449.753
233.7937, 4488.269
234.2758, 4540.024
234.7579, 4608.157
235.2401, 4687.477
235.7222, 4769.726
236.2043, 4857.404
236.6864, 4943.746
237.1685, 5022.987
237.6507, 5083.335
238.1328, 5170.021
238.6149, 5289.592
239.0970, 5433.183
239.5791, 5583.788
240.0612, 5754.896
240.5434, 5913.820
241.0255, 6038.856
241.5076, 6094.934
241.9897, 6200.668
242.4718, 6376.992
242.9539, 6599.978
243.4360, 6799.898
243.9182, 6972.034
244.4003, 7128.130
244.8824, 7270.978
245.3645, 7384.666
245.8466, 7519.453
246.3287, 7691.867
246.8109, 7887.906
247.2930, 8045.272
247.7751, 8139.749
248.2572, 8227.052
248.7393, 8341.653
249.2214, 8497.264
249.7036, 8644.741
250.1857, 8769.735
250.6678, 8879.977
251.1499, 9036.774
251.6320, 9279.314
252.1141, 9516.125
252.5963, 9670.877
253.0784, 9690.374
253.5605, 9756.127
254.0426, 9904.998
254.5247, 10124.58
255.0068, 10319.70
255.4890, 10488.48
255.9711, 10635.50
256.4532, 10765.36
256.9353, 10877.25
257.4174, 10976.41
257.8995, 11071.08
258.3817, 11158.31
258.8638, 11206.29
259.3459, 11213.23
259.8280, 11183.41
260.3101, 11118.74
260.7922, 11016.63
261.2744, 10887.53
261.7565, 10738.16
262.2386, 10565.89
262.7207, 10352.25
263.2028, 10082.74
263.6849, 9790.437
264.1671, 9502.787
264.6492, 9224.209
265.1313, 8941.508
265.6134, 8650.820
266.0955, 8353.107
266.5776, 8081.080
267.0598, 7840.663
267.5419, 7620.703
268.0240, 7405.802
268.5061, 7195.044
268.9882, 6998.316
269.4703, 6819.712
269.9525, 6659.113
270.4346, 6504.162
270.9167, 6349.791
271.3988, 6207.638
271.8809, 6092.487
272.3630, 6007.475
272.8452, 5935.246
273.3273, 5874.312
273.8094, 5824.738
274.2915, 5772.569
274.7736, 5718.369
275.2557, 5660.712
275.7379, 5599.718
276.2200, 5535.996
276.7021, 5464.311
277.1842, 5382.307
277.6663, 5290.860
278.1484, 5191.978
278.6305, 5085.681
279.1126, 4972.537
279.5948, 4850.548
280.0769, 4718.462
280.5590, 4595.146
281.0411, 4491.633
281.5232, 4405.194
282.0053, 4309.445
282.4875, 4200.786
282.9696, 4092.133
283.4517, 3999.675
283.9338, 3923.413
284.4159, 3858.233
284.8980, 3809.671
285.3802, 3773.283
285.8623, 3719.589
286.3444, 3643.567
286.8265, 3568.782
287.3086, 3532.965
287.7907, 3532.926
288.2729, 3527.991
288.7550, 3493.426
289.2371, 3438.478
289.7192, 3398.408
290.2013, 3374.394
290.6834, 3362.582
291.1656, 3364.583
291.6477, 3377.764
292.1298, 3386.877
292.6119, 3378.612
293.0940, 3361.275
293.5761, 3358.703
294.0583, 3373.380
294.5404, 3391.734
295.0225, 3403.145
295.5046, 3406.659
295.9867, 3398.670
296.4688, 3353.924
296.9510, 3301.313
297.4331, 3309.008
297.9152, 3386.110
298.3973, 3467.486
298.8794, 3481.941
299.3615, 3447.504
299.8437, 3414.016
300.3258, 3406.948
300.8079, 3413.556
301.2900, 3417.919
301.7721, 3419.440
302.2542, 3417.642
302.7364, 3419.061
303.2185, 3416.934
303.7006, 3397.116
304.1827, 3329.815
304.6648, 3254.031
305.1469, 3214.598
305.6291, 3216.075
306.1112, 3224.031
306.5933, 3217.966
307.0754, 3200.600
307.5575, 3176.559
308.0396, 3143.757
308.5218, 3107.761
309.0039, 3066.792
309.4860, 3019.327
309.9681, 2990.052
310.4502, 3024.407
310.9323, 3079.430
311.4145, 3095.517
311.8966, 3002.559
312.3787, 2900.425
312.8608, 2853.838
313.3429, 2869.577
313.8250, 2880.292
314.3072, 2846.404
314.7893, 2793.980
315.2714, 2753.349
315.7535, 2742.940
316.2356, 2738.642
316.7177, 2729.111
317.1999, 2713.060
317.6820, 2703.887
318.1641, 2713.597
318.6462, 2728.777
319.1283, 2736.126
319.6104, 2720.744
320.0926, 2708.527
320.5747, 2712.489
321.0568, 2734.327
321.5389, 2742.048
322.0210, 2713.184
322.5031, 2675.926
322.9852, 2654.807
323.4673, 2668.992
323.9495, 2681.917
324.4316, 2686.526
324.9137, 2682.482
325.3958, 2680.385
325.8779, 2678.259
326.3600, 2679.629
326.8422, 2686.910
327.3243, 2695.523
327.8064, 2716.078
328.2885, 2760.218
328.7706, 2825.922
329.2527, 2861.047
329.7349, 2834.804
330.2170, 2806.172
330.6991, 2819.147
331.1812, 2908.641
331.6633, 2973.684
332.1454, 2992.093
332.6276, 2973.468
333.1097, 2988.547
333.5918, 3060.978
334.0739, 3130.529
334.5560, 3149.945
335.0381, 3095.795
335.5203, 3070.351
336.0024, 3091.683
336.4845, 3147.177
336.9666, 3188.510
337.4487, 3210.090
337.9308, 3232.978
338.4130, 3274.556
338.8951, 3338.526
339.3772, 3386.432
339.8593, 3410.705
340.3414, 3421.304
340.8235, 3443.975
341.3057, 3479.944
341.7878, 3515.840
342.2699, 3538.311
342.7520, 3549.850
343.2341, 3574.581
343.7162, 3616.904
344.1984, 3669.045
344.6805, 3722.573
345.1626, 3777.242
345.6447, 3822.581
346.1268, 3848.344
346.6089, 3859.883
347.0911, 3868.160
347.5732, 3871.113
348.0553, 3881.981
348.5374, 3934.564
349.0195, 4014.718
349.5016, 4069.674
349.9838, 4050.728
350.4659, 3995.768
350.9480, 3961.303
351.4301, 3951.964
351.9122, 3951.638
352.3943, 3957.234
352.8765, 3960.929
353.3586, 3946.279
353.8407, 3890.263
354.3228, 3822.181
354.8049, 3771.926
355.2870, 3741.895
355.7692, 3706.287
356.2513, 3636.940
356.7334, 3554.934
357.2155, 3488.023
357.6976, 3462.310
358.1797, 3441.361
358.6619, 3403.862
359.1440, 3349.699
359.6261, 3297.943
360.1082, 3253.502
360.5903, 3216.272
361.0724, 3186.151
361.5546, 3169.075
362.0367, 3153.086
362.5188, 3136.912
363.0009, 3119.987
363.4830, 3097.279
363.9651, 3064.971
364.4473, 3028.352
364.9294, 2990.575
365.4115, 2931.414
365.8936, 2895.488
366.3757, 2902.234
366.8578, 2940.768
367.3399, 2957.159
367.8221, 2933.528
368.3042, 2903.915
368.7863, 2883.893
369.2684, 2881.194
369.7505, 2874.675
370.2326, 2862.055
370.7148, 2846.205
371.1969, 2834.151
371.6790, 2825.426
372.1611, 2821.570
372.6432, 2823.226
373.1253, 2830.383
373.6075, 2843.506
374.0896, 2864.026
374.5717, 2888.664
375.0538, 2913.793
375.5359, 2940.708
376.0180, 2961.797
376.5002, 2970.700
376.9823, 2968.214
377.4644, 2975.409
377.9465, 2992.875
378.4286, 3017.995
378.9107, 3053.348
379.3929, 3097.859
379.8750, 3130.677
380.3571, 3138.085
380.8392, 3130.582
381.3213, 3138.418
381.8034, 3162.157
382.2856, 3191.131
382.7677, 3220.355
383.2498, 3247.385
383.7319, 3263.848
384.2140, 3251.843
384.6961, 3243.005
385.1783, 3294.424
385.6604, 3397.594
386.1425, 3483.839
386.6246, 3491.485
387.1067, 3461.927
387.5888, 3447.903
388.0710, 3466.747
388.5531, 3495.450
389.0352, 3523.353
389.5173, 3548.903
389.9994, 3567.491
390.4815, 3568.078
390.9637, 3566.617
391.4458, 3575.427
391.9279, 3601.254
392.4100, 3624.452
392.8921, 3633.019
393.3742, 3634.687
393.8564, 3643.165
394.3385, 3680.804
394.8206, 3709.108
395.3027, 3707.619
395.7848, 3662.689
396.2669, 3636.699
396.7491, 3653.548
397.2312, 3685.314
397.7133, 3699.678
398.1954, 3683.100
398.6775, 3665.943
399.1596, 3655.172
399.6418, 3651.231
400.1239, 3640.140
400.6060, 3624.752
401.0881, 3599.287
401.5702, 3556.975
402.0523, 3492.615
402.5345, 3426.824
403.0166, 3359.226
403.4987, 3292.649
403.9808, 3242.734
404.4629, 3214.822
404.9450, 3186.338
405.4272, 3137.540
405.9093, 3067.521
406.3914, 3012.572
406.8735, 2978.537
407.3556, 2956.739
407.8377, 2934.484
408.3199, 2911.509
408.8020, 2884.706
409.2841, 2853.481
409.7662, 2816.837
410.2483, 2770.123
410.7304, 2711.852
411.2126, 2652.454
411.6946, 2598.146
412.1768, 2551.581
412.6589, 2518.084
413.1410, 2508.640
413.6231, 2509.024
414.1052, 2507.549
414.5873, 2503.923
415.0695, 2493.138
415.5516, 2457.547
416.0337, 2418.002
416.5158, 2399.411
416.9979, 2444.767
417.4800, 2477.757
417.9622, 2450.291
418.4443, 2374.731
418.9264, 2310.243
419.4085, 2271.129
419.8906, 2253.839
420.3727, 2259.753
420.8549, 2320.197
421.3370, 2355.111
421.8191, 2333.136
422.3012, 2277.258
422.7833, 2242.502
423.2654, 2254.009
423.7476, 2263.180
424.2297, 2252.992
424.7118, 2214.798
425.1939, 2189.091
425.6760, 2180.522
426.1581, 2181.019
426.6403, 2181.174
427.1224, 2181.624
427.6045, 2180.265
428.0866, 2177.045
428.5687, 2171.820
429.0508, 2160.941
429.5330, 2141.885
430.0151, 2125.272
430.4972, 2122.879
430.9793, 2134.114
431.4614, 2142.604
431.9435, 2147.701
432.4257, 2145.448
432.9078, 2118.017
433.3899, 2067.694
433.8720, 2029.342
434.3541, 2035.155
434.8362, 2068.066
435.3184, 2097.402
435.8005, 2122.716
436.2826, 2131.660
436.7647, 2090.757
437.2468, 2022.853
437.7289, 1981.795
438.2111, 2022.532
438.6932, 2079.366
439.1753, 2097.898
439.6574, 2074.235
440.1395, 2048.111
440.6216, 2039.949
441.1038, 2039.506
441.5859, 2036.298
442.0680, 2019.796
442.5501, 2007.966
443.0322, 2011.397
443.5143, 2026.591
443.9965, 2031.252
444.4786, 2000.092
444.9607, 1973.767
445.4428, 1974.806
445.9249, 2038.277
446.4070, 2070.846
446.8892, 2056.457
447.3713, 2016.193
447.8534, 1991.887
448.3355, 1985.411
448.8176, 1992.045
449.2997, 2016.982
449.7819, 2063.019
450.2640, 2081.249
450.7461, 2065.096
451.2282, 2036.131
451.7103, 2018.305
452.1924, 2011.716
452.6746, 2007.933
453.1567, 2006.439
453.6388, 2005.202
454.1209, 1995.439
454.6030, 1977.226
455.0851, 1964.342
455.5673, 1967.892
456.0494, 1984.240
456.5315, 2009.140
457.0136, 2047.782
457.4957, 2078.469
457.9778, 2070.701
458.4599, 2037.447
458.9420, 2011.477
459.4242, 2021.205
459.9063, 2037.089
460.3884, 2035.173
460.8705, 2012.197
461.3526, 1987.222
461.8347, 1964.578
462.3169, 1946.705
462.7990, 1936.036
463.2811, 1931.318
463.7632, 1936.050
464.2453, 1960.240
464.7274, 2000.377
465.2096, 2021.863
465.6917, 2000.760
466.1738, 1978.588
466.6559, 1976.080
467.1380, 2010.146
467.6201, 2031.247
468.1023, 2036.115
468.5844, 2029.907
469.0665, 2023.370
469.5486, 2018.974
470.0307, 2005.934
470.5128, 1971.967
470.9950, 1919.830
471.4771, 1906.013
471.9592, 1937.335
472.4413, 1978.267
472.9234, 1988.487
473.4055, 1973.140
473.8877, 1967.106
474.3698, 1985.252
474.8519, 2009.968
475.3340, 2006.422
475.8161, 1979.163
476.2982, 1958.025
476.7804, 1978.606
477.2625, 2009.180
477.7446, 2004.352
478.2267, 1947.468
478.7088, 1896.879
479.1909, 1895.764
479.6731, 1925.172
480.1552, 1954.904
480.6373, 1978.528
481.1194, 1995.950
481.6015, 2006.696
482.0836, 2010.814
482.5658, 2010.226
483.0479, 1999.735
483.5300, 1988.077
484.0121, 1981.713
484.4942, 1995.843
484.9763, 1992.418
485.4585, 1951.887
485.9406, 1895.766
486.4227, 1892.967
486.9048, 1976.691
487.3869, 2043.106
487.8690, 2036.823
488.3512, 1949.410
488.8333, 1911.329
489.3154, 1934.081
489.7975, 1976.326
490.2796, 1989.671
490.7617, 1975.905
491.2439, 1960.454
491.7260, 1947.161
492.2081, 1939.040
492.6902, 1949.099
493.1723, 1974.543
493.6544, 1990.739
494.1366, 1969.191
494.6187, 1931.624
495.1008, 1908.330
495.5829, 1905.721
496.0650, 1911.551
496.5471, 1920.430
497.0293, 1931.443
497.5114, 1943.134
497.9935, 1959.930
498.4756, 1972.964
498.9577, 1976.001
499.4398, 1968.612
499.9220, 1964.634
500.4041, 1969.930
500.8862, 1977.399
501.3683, 1982.030
501.8504, 1983.019
502.3325, 1982.116
502.8146, 1977.681
503.2968, 1971.803
503.7789, 1970.043
504.2610, 1973.451
504.7431, 1978.531
505.2252, 1984.956
505.7073, 1992.773
506.1895, 1995.797
506.6716, 1993.157
507.1537, 1989.118
507.6358, 1991.547
508.1179, 1998.328
508.6000, 1993.547
509.0822, 1963.298
509.5643, 1931.405
510.0464, 1943.077
510.5285, 1989.551
511.0106, 2029.111
511.4927, 2031.360
511.9749, 2015.057
512.4570, 1997.837
512.9391, 1981.242
513.4212, 1968.147
513.9033, 1961.095
514.3854, 1958.169
514.8676, 1956.955
515.3497, 1953.961
515.8318, 1955.454
516.3139, 1968.213
516.7960, 1990.740
517.2781, 2001.232
517.7603, 1991.305
518.2424, 1976.687
518.7245, 1964.557
519.2066, 1955.463
519.6887, 1947.167
520.1708, 1937.298
520.6530, 1930.550
521.1351, 1937.825
521.6172, 1961.678
522.0993, 1980.865
522.5814, 1988.928
523.0635, 1986.890
523.5457, 1975.873
524.0278, 1955.599
524.5099, 1935.920
524.9920, 1924.956
525.4741, 1920.789
525.9562, 1918.605
526.4384, 1915.495
526.9205, 1919.909
527.4026, 1951.200
527.8847, 1995.605
528.3668, 2024.557
528.8489, 2014.518
529.3311, 1993.479
529.8132, 1974.322
530.2953, 1957.683
530.7774, 1943.940
531.2595, 1935.355
531.7416, 1928.452
532.2238, 1920.738
532.7059, 1901.085
533.1880, 1896.014
533.6701, 1911.266
534.1522, 1939.671
534.6343, 1966.521
535.1165, 1995.032
535.5986, 2014.979
536.0807, 2023.759
536.5628, 2021.304
537.0449, 1998.860
537.5270, 1950.717
538.0092, 1909.269
538.4913, 1913.219
538.9734, 1952.650
539.4555, 1985.279
539.9376, 2003.013
540.4197, 2009.630
540.9019, 2008.032
541.3840, 1999.141
541.8661, 1985.924
542.3482, 1956.152
542.8303, 1932.306
543.3124, 1937.080
543.7946, 1973.129
544.2767, 2006.181
544.7588, 2023.713
545.2409, 2031.509
545.7230, 2034.315
546.2051, 2027.759
546.6873, 2022.434
547.1694, 2018.665
547.6515, 2016.781
548.1336, 2018.457
548.6157, 2027.896
549.0978, 2033.635
549.5800, 2032.441
550.0621, 2024.369
550.5442, 2004.538
551.0263, 1967.016
551.5084, 1936.973
551.9905, 1948.907
552.4727, 1996.193
552.9548, 2024.378
553.4369, 2018.723
553.9190, 1999.796
554.4011, 2000.697
554.8832, 2014.788
555.3654, 2018.652
555.8475, 1979.869
556.3296, 1938.342
556.8117, 1934.961
557.2938, 1971.875
557.7759, 2007.594
558.2581, 2025.383
558.7402, 2032.153
559.2223, 2033.231
559.7044, 2019.466
560.1865, 2013.212
560.6686, 2028.647
561.1508, 2051.743
561.6329, 2050.985
562.1150, 2002.642
562.5971, 1970.779
563.0792, 1982.636
563.5613, 2036.822
564.0435, 2058.711
564.5256, 2041.673
565.0077, 2016.488
565.4898, 2010.509
565.9719, 2020.919
566.4540, 2023.758
566.9362, 2012.860
567.4183, 2001.116
567.9004, 2006.927
568.3824, 2026.368
568.8646, 2048.134
569.3467, 2082.471
569.8288, 2105.791
570.3109, 2084.552
570.7930, 2023.819
571.2751, 1984.582
571.7573, 2017.807
572.2394, 2067.444
572.7215, 2095.575
573.2036, 2083.544
573.6857, 2074.278
574.1678, 2068.649
574.6500, 2068.821
575.1321, 2080.126
575.6142, 2113.487
576.0963, 2134.815
576.5784, 2133.027
577.0605, 2112.896
577.5427, 2098.551
578.0248, 2089.320
578.5069, 2089.179
578.9890, 2106.810
579.4711, 2136.889
579.9532, 2156.975
580.4354, 2164.711
580.9175, 2166.500
581.3996, 2168.006
581.8817, 2168.433
582.3638, 2166.089
582.8459, 2154.661
583.3281, 2146.233
583.8102, 2149.758
584.2923, 2162.912
584.7744, 2177.704
585.2565, 2205.357
585.7386, 2222.382
586.2208, 2210.767
586.7029, 2153.849
587.1850, 2132.159
587.6671, 2166.481
588.1492, 2216.188
588.6313, 2246.463
589.1135, 2254.101
589.5956, 2252.483
590.0777, 2238.171
590.5598, 2221.135
591.0419, 2230.580
591.5240, 2265.195
592.0062, 2287.669
592.4883, 2265.757
592.9704, 2223.141
593.4525, 2210.283
593.9346, 2226.158
594.4167, 2246.042
594.8989, 2252.441
595.3810, 2253.161
595.8631, 2257.882
596.3452, 2273.988
596.8273, 2281.683
597.3094, 2262.626
597.7916, 2233.069
598.2737, 2218.085
598.7558, 2233.982
599.2379, 2250.842
599.7200, 2264.575
600.2021, 2275.256
600.6843, 2283.572
601.1664, 2291.248
601.6485, 2292.505
602.1306, 2281.531
602.6127, 2258.389
603.0948, 2238.571
603.5770, 2222.305
604.0591, 2211.615
604.5412, 2215.080
605.0233, 2226.744
605.5054, 2228.352
605.9875, 2209.520
606.4697, 2186.688
606.9518, 2174.948
607.4339, 2171.601
607.9160, 2169.476
608.3981, 2158.209
608.8802, 2153.488
609.3624, 2171.134
609.8445, 2215.607
610.3266, 2236.629
610.8087, 2208.368
611.2908, 2170.451
611.7729, 2146.735
612.2551, 2144.008
612.7372, 2136.908
613.2193, 2121.635
613.7014, 2105.832
614.1835, 2103.959
614.6656, 2116.506
615.1478, 2125.198
615.6299, 2120.026
616.1120, 2111.226
616.5941, 2125.792
617.0762, 2159.494
617.5583, 2184.674
618.0405, 2179.679
618.5226, 2159.977
619.0047, 2138.029
619.4868, 2114.136
619.9689, 2096.600
620.4510, 2096.959
620.9332, 2101.211
621.4153, 2096.659
621.8974, 2057.239
622.3795, 2040.283
622.8616, 2060.074
623.3438, 2100.538
623.8259, 2129.072
624.3080, 2146.534
624.7901, 2148.821
625.2722, 2128.067
625.7543, 2090.885
626.2365, 2074.456
626.7186, 2079.643
627.2007, 2088.057
627.6828, 2086.836
628.1649, 2078.879
628.6470, 2068.440
629.1292, 2055.226
629.6113, 2045.039
630.0934, 2046.773
630.5755, 2052.644
631.0576, 2052.866
631.5397, 2040.144
632.0219, 2026.123
632.5040, 2010.939
632.9861, 1996.673
633.4682, 1989.847
633.9503, 1993.313
634.4324, 2000.438
634.9146, 2009.272
635.3967, 2019.902
635.8788, 2037.746
636.3609, 2066.291
636.8430, 2088.130
637.3251, 2083.964
637.8073, 2059.337
638.2894, 2042.849
638.7715, 2037.493
639.2536, 2039.202
639.7357, 2049.449
640.2178, 2062.673
640.7000, 2069.019
641.1821, 2060.394
641.6642, 2048.836
642.1463, 2035.760
642.6284, 2024.148
643.1105, 2022.694
643.5927, 2042.981
644.0748, 2064.574
644.5569, 2084.230
645.0390, 2102.778
645.5211, 2101.425
646.0032, 2069.624
646.4854, 2039.561
646.9675, 2041.032
647.4496, 2073.752
647.9317, 2084.824
648.4138, 2066.713
648.8959, 2041.918
649.3781, 2038.486
649.8602, 2050.700
650.3423, 2064.317
650.8244, 2075.785
651.3065, 2085.254
651.7886, 2095.097
652.2708, 2103.246
652.7529, 2104.256
653.2350, 2086.545
653.7171, 2070.283
654.1992, 2064.763
654.6813, 2071.117
655.1635, 2075.786
655.6456, 2080.710
656.1277, 2081.445
656.6098, 2070.324
657.0919, 2042.739
657.5740, 2042.951
658.0562, 2079.291
658.5382, 2121.274
659.0203, 2126.670
659.5024, 2104.592
659.9846, 2089.000
660.4667, 2090.625
660.9488, 2099.744
661.4309, 2104.873
661.9130, 2109.542
662.3951, 2122.315
662.8773, 2165.061
663.3594, 2199.503
663.8415, 2202.175
664.3236, 2173.061
664.8057, 2157.122
665.2878, 2171.605
665.7700, 2182.694
666.2521, 2171.594
666.7342, 2132.412
667.2163, 2106.035
667.6984, 2095.047
668.1805, 2089.750
668.6627, 2072.856
669.1448, 2049.746
669.6269, 2054.690
670.1090, 2105.032
670.5911, 2158.586
671.0732, 2162.381
671.5554, 2134.971
672.0375, 2115.072
672.5196, 2126.286
673.0017, 2142.185
673.4838, 2154.680
673.9659, 2162.651
674.4481, 2161.402
674.9302, 2128.471
675.4123, 2109.916
675.8944, 2129.105
676.3765, 2191.958
676.8586, 2220.487
677.3408, 2206.237
677.8229, 2182.451
678.3050, 2176.669
678.7871, 2186.262
679.2692, 2195.252
679.7513, 2201.136
680.2335, 2209.007
680.7156, 2227.082
681.1977, 2250.447
681.6798, 2270.676
682.1619, 2287.641
682.6440, 2297.817
683.1262, 2292.155
683.6083, 2278.310
684.0904, 2276.626
684.5725, 2308.216
685.0546, 2332.440
685.5367, 2339.076
686.0189, 2329.386
686.5010, 2320.261
686.9831, 2313.798
687.4652, 2300.372
687.9473, 2271.715
688.4294, 2229.937
688.9116, 2184.142
689.3937, 2133.317
689.8758, 2095.018
690.3579, 2097.695
690.8400, 2117.906
691.3221, 2121.038
691.8043, 2091.393
692.2864, 2062.110
692.7685, 2045.938
693.2506, 2039.055
693.7327, 2035.731
694.2148, 2026.174
694.6970, 2033.947
695.1791, 2075.918
695.6612, 2133.811
696.1433, 2145.073
696.6254, 2100.985
697.1075, 2059.159
697.5897, 2044.558
698.0718, 2049.736
698.5539, 2051.667
699.0360, 2050.649
699.5181, 2051.183
700.0002, 2050.684
700.4824, 2056.538
700.9645, 2084.153
701.4466, 2140.433
701.9287, 2176.099
702.4108, 2152.727
702.8929, 2112.029
703.3751, 2089.588
703.8572, 2102.370
704.3393, 2107.536
704.8214, 2101.775
705.3035, 2091.405
705.7856, 2086.737
706.2678, 2088.425
706.7499, 2085.269
707.2320, 2072.297
707.7141, 2056.733
708.1962, 2047.437
708.6783, 2045.701
709.1605, 2056.455
709.6426, 2096.975
710.1247, 2139.030
710.6068, 2157.907
711.0889, 2156.627
711.5710, 2160.610
712.0532, 2198.052
712.5353, 2222.563
713.0174, 2206.575
713.4995, 2140.011
713.9816, 2106.930
714.4637, 2114.396
714.9459, 2140.634
715.4280, 2170.623
715.9101, 2203.890
716.3922, 2246.024
716.8743, 2300.900
717.3564, 2345.056
717.8386, 2339.549
718.3207, 2307.548
718.8028, 2289.415
719.2849, 2300.050
719.7670, 2322.955
720.2491, 2353.243
720.7313, 2390.228
721.2134, 2432.144
721.6955, 2480.597
722.1776, 2532.228
722.6597, 2591.359
723.1418, 2652.541
723.6240, 2688.448
724.1061, 2693.652
724.5882, 2708.260
725.0703, 2761.638
725.5524, 2836.961
726.0345, 2883.820
726.5167, 2904.057
726.9988, 2920.618
727.4809, 2954.877
727.9630, 2989.374
728.4451, 3006.499
728.9272, 3001.875
729.4094, 2996.604
729.8915, 2992.069
730.3736, 2992.548
730.8557, 3001.079
731.3378, 3020.297
731.8199, 3041.113
732.3021, 3062.821
732.7842, 3087.146
733.2663, 3115.772
733.7484, 3148.992
734.2305, 3189.908
734.7126, 3244.686
735.1948, 3294.751
735.6769, 3330.831
736.1590, 3343.896
736.6411, 3313.747
737.1232, 3207.269
737.6053, 3080.877
738.0875, 2942.662
738.5696, 2801.328
739.0517, 2689.502
739.5338, 2629.502
740.0159, 2566.611
740.4980, 2477.114
740.9802, 2366.209
741.4623, 2296.567
741.9444, 2271.440
742.4265, 2253.394
742.9086, 2208.482
743.3907, 2154.702
743.8729, 2140.357
744.3550, 2167.352
744.8371, 2187.391
745.3192, 2156.027
745.8013, 2110.061
746.2834, 2081.316
746.7656, 2078.282
747.2477, 2082.594
747.7298, 2092.677
748.2119, 2108.344
748.6940, 2133.481
749.1761, 2175.785
749.6582, 2193.124
750.1403, 2176.250
750.6224, 2143.875
751.1046, 2119.042
751.5867, 2101.823
752.0688, 2094.502
752.5509, 2103.436
753.0330, 2113.593
753.5151, 2108.798
753.9973, 2095.448
754.4794, 2087.291
754.9615, 2093.719
755.4436, 2100.907
755.9257, 2108.385
756.4078, 2114.018
756.8900, 2105.064
757.3721, 2072.632
757.8542, 2050.495
758.3363, 2055.746
758.8184, 2081.919
759.3005, 2101.056
759.7827, 2113.401
760.2648, 2124.238
760.7469, 2143.003
761.2290, 2158.823
761.7111, 2152.103
762.1932, 2120.850
762.6754, 2104.604
763.1575, 2141.561
763.6396, 2182.323
764.1217, 2191.171
764.6038, 2152.331
765.0859, 2130.742
765.5681, 2131.463
766.0502, 2140.632
766.5323, 2146.893
767.0144, 2150.185
767.4965, 2149.021
767.9786, 2142.830
768.4608, 2133.913
768.9429, 2120.051
769.4250, 2106.459
769.9071, 2102.299
770.3892, 2119.747
770.8713, 2132.153
771.3535, 2125.911
771.8356, 2109.210
772.3177, 2096.651
772.7998, 2092.938
773.2819, 2084.423
773.7640, 2064.317
774.2462, 2041.901
774.7283, 2045.056
775.2104, 2072.671
775.6925, 2093.959
776.1746, 2093.497
776.6567, 2082.164
777.1389, 2067.901
777.6210, 2054.175
778.1031, 2053.432
778.5852, 2100.565
779.0673, 2134.955
779.5494, 2112.450
780.0316, 2034.614
780.5137, 2004.420
780.9958, 2047.392
781.4779, 2094.259
781.9600, 2114.873
782.4421, 2111.013
782.9243, 2102.220
783.4064, 2088.281
783.8885, 2074.388
784.3706, 2060.988
784.8527, 2051.956
785.3348, 2057.434
785.8170, 2079.284
786.2991, 2092.913
786.7812, 2070.075
787.2633, 2045.537
787.7454, 2049.127
788.2275, 2101.918
788.7097, 2124.799
789.1918, 2104.683
789.6739, 2075.875
790.1560, 2075.944
790.6381, 2102.177
791.1202, 2112.225
791.6024, 2097.887
792.0845, 2082.272
792.5666, 2097.074
793.0487, 2125.120
793.5308, 2138.790
794.0129, 2122.926
794.4951, 2105.573
794.9772, 2093.739
795.4593, 2087.605
795.9414, 2088.496
796.4235, 2103.598
796.9056, 2108.502
797.3878, 2096.902
797.8699, 2077.593
798.3520, 2065.798
798.8341, 2061.283
799.3162, 2064.354
799.7983, 2081.641
800.2805, 2097.186
800.7626, 2088.934
801.2447, 2065.436
801.7268, 2046.858
802.2089, 2040.088
802.6910, 2040.141
803.1732, 2048.825
803.6553, 2063.253
804.1374, 2075.858
804.6195, 2088.208
805.1016, 2093.780
805.5837, 2087.738
806.0659, 2074.456
806.5480, 2066.359
807.0301, 2063.415
807.5122, 2065.158
807.9943, 2082.896
808.4764, 2096.549
808.9586, 2079.197
809.4407, 2035.078
809.9228, 2008.962
810.4049, 2026.501
810.8870, 2052.947
811.3691, 2076.974
811.8513, 2098.621
812.3334, 2114.600
812.8155, 2125.686
813.2976, 2127.215
813.7797, 2107.456
814.2618, 2076.909
814.7440, 2062.727
815.2261, 2065.700
815.7082, 2079.053
816.1903, 2111.385
816.6724, 2143.079
817.1545, 2159.017
817.6367, 2155.446
818.1188, 2144.969
818.6009, 2120.333
819.0830, 2099.612
819.5651, 2097.352
820.0472, 2115.422
820.5294, 2123.011
821.0115, 2118.327
821.4936, 2111.292
821.9757, 2112.881
822.4578, 2118.209
822.9399, 2115.414
823.4221, 2099.087
823.9042, 2095.164
824.3863, 2140.178
824.8684, 2189.749
825.3505, 2199.784
825.8326, 2137.275
826.3148, 2104.946
826.7969, 2112.662
827.2790, 2133.794
827.7611, 2137.000
828.2432, 2125.533
828.7253, 2128.740
829.2075, 2155.385
829.6896, 2177.663
830.1717, 2160.659
830.6538, 2125.310
831.1359, 2098.705
831.6180, 2087.185
832.1002, 2086.719
832.5823, 2102.645
833.0644, 2126.012
833.5465, 2150.974
834.0286, 2183.526
834.5107, 2186.231
834.9929, 2143.467
835.4750, 2095.468
835.9571, 2117.531
836.4392, 2183.786
836.9213, 2215.974
837.4034, 2173.108
837.8855, 2123.957
838.3676, 2117.485
838.8497, 2131.693
839.3318, 2132.307
839.8140, 2084.827
840.2961, 2067.532
840.7782, 2102.476
841.2603, 2157.225
841.7424, 2166.772
842.2245, 2132.275
842.7067, 2109.982
843.1888, 2118.065
843.6709, 2138.103
844.1530, 2154.556
844.6351, 2164.739
845.1172, 2163.213
845.5994, 2132.615
846.0815, 2107.411
846.5636, 2100.682
847.0457, 2105.737
847.5278, 2109.160
848.0099, 2109.443
848.4921, 2113.188
848.9742, 2122.547
849.4563, 2135.124
849.9384, 2147.862
850.4205, 2160.011
850.9026, 2169.580
851.3848, 2182.122
851.8669, 2184.569
852.3490, 2157.708
852.8311, 2114.400
853.3132, 2085.839
853.7953, 2078.830
854.2775, 2086.033
854.7596, 2112.481
855.2417, 2149.176
855.7238, 2173.209
856.2059, 2184.849
856.6880, 2186.239
857.1702, 2170.529
857.6523, 2154.745
858.1344, 2168.262
858.6165, 2199.337
859.0986, 2218.559
859.5807, 2196.851
860.0629, 2180.071
860.5450, 2191.513
861.0271, 2218.054
861.5092, 2224.325
861.9913, 2200.964
862.4734, 2195.420
862.9556, 2229.766
863.4377, 2280.353
863.9198, 2296.988
864.4019, 2286.088
864.8840, 2272.523
865.3661, 2260.242
865.8483, 2256.073
866.3304, 2269.002
866.8125, 2293.565
867.2946, 2312.949
867.7767, 2334.301
868.2589, 2334.771
868.7410, 2300.093
869.2231, 2248.555
869.7052, 2234.499
870.1873, 2254.309
870.6694, 2265.320
871.1516, 2243.518
871.6337, 2212.090
872.1158, 2193.816
872.5979, 2185.317
873.0800, 2178.620
873.5621, 2172.507
874.0443, 2166.278
874.5264, 2156.948
875.0085, 2148.281
875.4906, 2152.528
875.9727, 2171.244
876.4548, 2187.698
876.9370, 2198.063
877.4191, 2201.498
877.9012, 2189.507
878.3833, 2169.314
878.8654, 2159.561
879.3475, 2182.625
879.8297, 2201.961
880.3118, 2204.466
880.7939, 2192.807
881.2760, 2170.684
881.7581, 2126.431
882.2402, 2109.216
882.7224, 2140.527
883.2045, 2190.114
883.6866, 2186.533
884.1687, 2145.129
884.6508, 2123.030
885.1329, 2160.177
885.6151, 2200.014
886.0972, 2201.082
886.5793, 2180.150
887.0614, 2172.097
887.5435, 2191.952
888.0256, 2205.718
888.5078, 2207.827
888.9899, 2202.944
889.4720, 2199.372
889.9541, 2196.922
890.4362, 2193.807
890.9183, 2189.192
891.4005, 2184.501
891.8826, 2183.544
892.3647, 2182.908
892.8468, 2177.103
893.3289, 2151.824
893.8110, 2138.903
894.2932, 2145.963
894.7753, 2163.119
895.2574, 2176.935
895.7395, 2187.366
896.2216, 2194.115
896.7037, 2196.917
897.1859, 2196.325
897.6680, 2188.199
898.1501, 2178.361
898.6322, 2177.156
899.1143, 2193.008
899.5964, 2207.617
900.0786, 2216.938
900.5607, 2222.087
901.0428, 2223.744
901.5249, 2221.809
902.0070, 2216.289
902.4891, 2206.336
902.9713, 2196.358
903.4534, 2189.765
903.9355, 2187.610
904.4176, 2193.895
904.8997, 2213.261
905.3818, 2227.437
905.8640, 2221.924
906.3461, 2211.136
906.8282, 2208.875
907.3103, 2221.421
907.7924, 2222.995
908.2745, 2209.947
908.7567, 2196.826
909.2388, 2199.806
909.7209, 2213.858
910.2030, 2226.709
910.6851, 2237.059
911.1672, 2245.075
911.6494, 2252.463
912.1315, 2256.500
912.6136, 2253.271
913.0957, 2239.468
913.5778, 2234.155
914.0599, 2240.307
914.5421, 2247.970
915.0242, 2249.146
915.5063, 2245.738
915.9884, 2246.427
916.4705, 2251.222
916.9526, 2252.979
917.4348, 2242.742
917.9169, 2230.771
918.3990, 2222.876
918.8811, 2219.604
919.3632, 2226.504
919.8453, 2254.026
920.3275, 2271.260
920.8096, 2255.577
921.2917, 2217.645
921.7738, 2211.880
922.2559, 2235.317
922.7380, 2256.945
923.2202, 2251.211
923.7023, 2241.733
924.1844, 2249.163
924.6665, 2271.205
925.1486, 2284.840
925.6307, 2286.291
926.1129, 2281.957
926.5950, 2271.592
927.0771, 2257.679
927.5591, 2248.388
928.0413, 2243.480
928.5234, 2241.892
929.0055, 2247.831
929.4876, 2252.078
929.9697, 2239.712
930.4518, 2220.002
930.9340, 2215.796
931.4161, 2252.612
931.8982, 2275.653
932.3803, 2275.538
932.8624, 2260.037
933.3445, 2238.393
933.8267, 2212.682
934.3088, 2201.189
934.7909, 2213.483
935.2730, 2231.458
935.7551, 2240.238
936.2372, 2242.828
936.7194, 2243.691
937.2015, 2247.502
937.6836, 2242.590
938.1657, 2219.272
938.6478, 2198.132
939.1299, 2209.239
939.6121, 2249.470
940.0942, 2278.498
940.5763, 2291.196
941.0584, 2289.597
941.5405, 2264.423
942.0226, 2231.652
942.5048, 2208.052
942.9869, 2197.352
943.4690, 2194.212
943.9511, 2201.725
944.4332, 2211.057
944.9153, 2217.561
945.3975, 2221.047
945.8796, 2215.091
946.3617, 2199.610
946.8438, 2186.740
947.3259, 2184.340
947.8080, 2190.369
948.2902, 2209.909
948.7723, 2243.525
949.2544, 2254.816
949.7365, 2220.020
950.2186, 2192.964
950.7007, 2199.596
951.1829, 2231.798
951.6650, 2246.994
952.1471, 2245.947
952.6292, 2235.641
953.1113, 2208.643
953.5934, 2183.965
954.0756, 2185.203
954.5577, 2203.034
955.0398, 2201.443
955.5219, 2147.066
956.0040, 2120.813
956.4861, 2147.741
956.9683, 2202.757
957.4504, 2232.184
957.9325, 2238.495
958.4146, 2235.704
958.8967, 2225.440
959.3788, 2213.528
959.8610, 2208.164
960.3431, 2202.781
960.8252, 2186.725
961.3073, 2135.765
961.7894, 2115.072
962.2715, 2134.421
962.7537, 2171.702
963.2358, 2207.761
963.7179, 2239.715
964.2000, 2252.546
964.6821, 2242.500
965.1642, 2226.167
965.6464, 2209.132
966.1285, 2195.499
966.6106, 2191.745
967.0927, 2203.895
967.5748, 2196.684
968.0569, 2160.040
968.5391, 2128.948
969.0212, 2131.536
969.5033, 2158.134
969.9854, 2180.007
970.4675, 2196.209
970.9496, 2203.331
971.4318, 2191.867
971.9139, 2177.848
972.3960, 2171.358
972.8781, 2171.293
973.3602, 2166.005
973.8423, 2153.588
974.3245, 2143.009
974.8066, 2137.930
975.2887, 2135.982
975.7708, 2132.476
976.2529, 2128.193
976.7350, 2125.321
977.2172, 2119.143
977.6993, 2121.075
978.1814, 2151.574
978.6635, 2185.607
979.1456, 2178.941
979.6277, 2119.653
980.1099, 2089.237
980.5920, 2103.034
981.0741, 2132.577
981.5562, 2148.387
982.0383, 2153.488
982.5204, 2151.579
983.0026, 2141.865
983.4847, 2130.804
983.9668, 2115.195
984.4489, 2103.444
984.9310, 2103.680
985.4131, 2117.453
985.8953, 2117.985
986.3774, 2104.737
986.8595, 2088.752
987.3416, 2077.323
987.8237, 2068.342
988.3058, 2054.656
988.7880, 2037.943
989.2701, 2039.885
989.7522, 2080.833
990.2343, 2120.235
990.7164, 2148.905
991.1985, 2166.448
991.6807, 2168.335
992.1628, 2155.994
992.6449, 2141.833
993.1270, 2132.310
993.6091, 2121.045
994.0912, 2094.162
994.5734, 2064.100
995.0555, 2055.883
995.5376, 2088.619
996.0197, 2111.056
996.5018, 2118.677
996.9839, 2115.859
997.4661, 2100.575
997.9482, 2079.609
998.4303, 2077.588
998.9124, 2101.909
999.3945, 2123.918
999.8766, 2127.090
1000.359, 2119.607
1000.841, 2105.683
1001.323, 2084.184
1001.805, 2067.119
1002.287, 2053.110
1002.769, 2049.508
1003.251, 2071.790
1003.734, 2102.788
1004.216, 2111.905
1004.698, 2101.303
1005.180, 2086.198
1005.662, 2059.958
1006.144, 2046.250
1006.626, 2059.403
1007.108, 2087.419
1007.591, 2092.610
1008.073, 2074.688
1008.555, 2063.699
1009.037, 2071.101
1009.519, 2083.252
1010.001, 2085.040
1010.483, 2081.504
1010.965, 2080.350
1011.447, 2094.584
1011.930, 2090.864
1012.412, 2057.740
1012.894, 2022.599
1013.376, 2014.332
1013.858, 2028.243
1014.340, 2036.369
1014.822, 2036.564
1015.304, 2039.878
1015.786, 2066.681
1016.269, 2089.006
1016.751, 2077.806
1017.233, 2032.537
1017.715, 2023.695
1018.197, 2063.753
1018.679, 2097.187
1019.161, 2096.133
1019.643, 2077.129
1020.125, 2071.777
1020.608, 2076.605
1021.090, 2081.601
1021.572, 2082.047
1022.054, 2082.649
1022.536, 2087.431
1023.018, 2091.400
1023.500, 2086.108
1023.982, 2070.944
1024.465, 2059.299
1024.947, 2053.576
1025.429, 2048.535
1025.911, 2037.624
1026.393, 2025.197
1026.875, 2015.702
1027.357, 2009.833
1027.839, 2006.897
1028.322, 2003.450
1028.804, 2008.798
1029.286, 2037.641
1029.768, 2079.998
1030.250, 2078.437
1030.732, 2040.489
1031.214, 2010.912
1031.696, 2022.506
1032.178, 2042.126
1032.661, 2056.279
1033.143, 2064.285
1033.625, 2065.261
1034.107, 2056.922
1034.589, 2052.182
1035.071, 2053.942
1035.553, 2059.397
1036.035, 2071.968
1036.517, 2083.268
1037.000, 2075.560
1037.482, 2032.822
1037.964, 2009.057
1038.446, 2028.814
1038.928, 2057.150
1039.410, 2074.669
1039.892, 2081.319
1040.374, 2069.303
1040.857, 2039.775
1041.339, 2018.925
1041.821, 2040.725
1042.303, 2064.164
1042.785, 2048.455
1043.267, 2003.767
1043.749, 1993.030
1044.231, 2032.770
1044.714, 2067.282
1045.196, 2085.794
1045.678, 2088.923
1046.160, 2065.391
1046.642, 2029.054
1047.124, 2012.144
1047.606, 2031.607
1048.088, 2052.586
1048.570, 2066.970
1049.052, 2075.166
1049.535, 2076.224
1050.017, 2069.781
1050.499, 2064.110
1050.981, 2059.409
1051.463, 2051.804
1051.945, 2033.494
1052.427, 2014.973
1052.909, 2002.749
1053.392, 1997.955
1053.874, 2008.480
1054.356, 2048.747
1054.838, 2070.057
1055.320, 2053.980
1055.802, 2020.603
1056.284, 2010.505
1056.766, 2014.902
1057.249, 2009.067
1057.731, 1972.792
1058.213, 1953.314
1058.695, 1989.497
1059.177, 2035.720
1059.659, 2051.049
1060.141, 2031.937
1060.623, 2025.384
1061.105, 2032.434
1061.588, 2041.200
1062.070, 2044.780
1062.552, 2043.968
1063.034, 2033.042
1063.516, 2015.333
1063.998, 2019.982
1064.480, 2066.752
1064.962, 2093.853
1065.444, 2080.139
1065.927, 2046.390
1066.409, 2026.538
1066.891, 2019.753
1067.373, 2024.620
1067.855, 2045.298
1068.337, 2066.442
1068.819, 2082.407
1069.301, 2096.353
1069.783, 2111.850
1070.266, 2129.930
1070.748, 2135.303
1071.230, 2127.616
1071.712, 2123.112
1072.194, 2137.477
1072.676, 2157.214
1073.158, 2169.954
1073.640, 2176.841
1074.123, 2189.153
1074.605, 2210.702
1075.087, 2228.080
1075.569, 2235.200
1076.051, 2242.919
1076.533, 2272.873
1077.015, 2317.271
1077.497, 2357.219
1077.979, 2382.536
1078.462, 2417.809
1078.944, 2469.379
1079.426, 2535.527
1079.908, 2612.910
1080.390, 2701.710
1080.872, 2831.627
1081.354, 3002.219
1081.836, 3182.099
1082.318, 3333.417
1082.801, 3507.598
1083.283, 3736.610
1083.765, 4022.192
1084.247, 4360.843
1084.729, 4765.313
1085.211, 5175.285
1085.693, 5580.836
1086.175, 5986.760
1086.658, 6406.776
1087.140, 6828.722
1087.622, 7227.213
1088.104, 7588.226
1088.586, 7972.295
1089.068, 8380.895
1089.550, 8824.536
1090.032, 9312.733
1090.515, 9840.578
1090.997, 10386.57
1091.479, 10951.89
1091.961, 11525.19
1092.443, 12118.79
1092.925, 12707.48
1093.407, 13273.35
1093.889, 13834.73
1094.371, 14444.94
1094.854, 15135.05
1095.336, 15722.45
1095.818, 16223.14
1096.300, 16431.45
1096.782, 16186.19
1097.264, 15510.70
1097.746, 14339.87
1098.228, 12627.92
1098.710, 10950.63
1099.193, 9303.737
1099.675, 7836.427
1100.157, 6603.037
1100.639, 5601.038
1101.121, 4802.432
1101.603, 4182.231
1102.085, 3683.246
1102.567, 3304.102
1103.050, 3006.766
1103.532, 2799.534
1104.014, 2648.359
1104.496, 2533.434
1104.978, 2452.223
1105.460, 2368.909
1105.942, 2281.205
1106.424, 2198.403
1106.906, 2108.676
1107.389, 2041.662
1107.871, 2028.445
1108.353, 2058.611
1108.835, 2072.675
1109.317, 2068.261
1109.799, 2062.100
1110.281, 2060.112
1110.763, 2053.972
1111.245, 2026.269
1111.728, 1990.317
1112.210, 1966.668
1112.692, 1966.911
1113.174, 1957.843
1113.656, 1934.696
1114.138, 1908.393
1114.620, 1880.847
1115.102, 1856.714
1115.585, 1856.130
1116.067, 1873.776
1116.549, 1886.268
1117.031, 1877.345
1117.513, 1868.410
1117.995, 1867.362
1118.477, 1868.385
1118.959, 1860.176
1119.442, 1844.127
1119.924, 1839.559
1120.406, 1850.811
1120.888, 1854.067
1121.370, 1816.665
1121.852, 1775.946
1122.334, 1764.083
1122.816, 1778.696
1123.298, 1793.067
1123.781, 1808.356
1124.263, 1812.245
1124.745, 1794.806
1125.227, 1771.510
1125.709, 1758.571
1126.191, 1753.500
1126.673, 1752.285
1127.155, 1758.591
1127.637, 1760.391
1128.120, 1757.001
1128.602, 1750.845
1129.084, 1737.442
1129.566, 1725.210
1130.048, 1739.113
1130.530, 1774.652
1131.012, 1796.719
1131.494, 1777.714
1131.977, 1761.457
1132.459, 1759.413
1132.941, 1764.970
1133.423, 1767.783
1133.905, 1767.471
1134.387, 1761.277
1134.869, 1747.580
1135.351, 1734.325
1135.833, 1729.179
1136.316, 1723.189
1136.798, 1705.745
1137.280, 1679.421
1137.762, 1683.841
1138.244, 1718.183
1138.726, 1752.946
1139.208, 1782.001
1139.690, 1795.004
1140.172, 1768.589
1140.655, 1725.586
1141.137, 1704.502
1141.619, 1712.910
1142.101, 1722.779
1142.583, 1734.219
1143.065, 1740.183
1143.547, 1729.324
1144.029, 1712.428
1144.512, 1700.160
1144.994, 1693.754
1145.476, 1698.542
1145.958, 1721.506
1146.440, 1741.758
1146.922, 1757.689
1147.404, 1763.727
1147.886, 1743.007
1148.369, 1708.041
1148.851, 1680.942
1149.333, 1665.126
1149.815, 1664.821
1150.297, 1699.863
1150.779, 1724.142
1151.261, 1708.151
1151.743, 1665.745
1152.225, 1654.580
1152.708, 1667.863
1153.190, 1677.197
1153.672, 1659.285
1154.154, 1648.177
1154.636, 1661.520
1155.118, 1684.047
1155.600, 1703.159
1156.082, 1718.872
1156.564, 1733.862
1157.047, 1748.094
1157.529, 1748.189
1158.011, 1706.187
1158.493, 1664.505
1158.975, 1656.238
1159.457, 1669.858
1159.939, 1669.261
1160.421, 1652.338
1160.903, 1650.331
1161.386, 1673.884
1161.868, 1695.786
1162.350, 1686.681
1162.832, 1663.158
1163.314, 1636.872
1163.796, 1607.408
1164.278, 1607.388
1164.760, 1646.266
1165.243, 1668.443
1165.725, 1635.672
1166.207, 1589.033
1166.689, 1590.587
1167.171, 1618.086
1167.653, 1631.361
1168.135, 1596.256
1168.617, 1593.100
1169.099, 1634.081
1169.582, 1674.042
1170.064, 1665.752
1170.546, 1633.090
1171.028, 1618.032
1171.510, 1620.503
1171.992, 1632.935
1172.474, 1671.666
1172.956, 1693.033
1173.438, 1687.149
1173.921, 1665.880
1174.403, 1641.214
1174.885, 1616.114
1175.367, 1599.336
1175.849, 1592.374
1176.331, 1589.548
1176.813, 1596.524
1177.295, 1597.369
1177.778, 1582.159
1178.260, 1559.191
1178.742, 1558.012
1179.224, 1572.675
1179.706, 1577.022
1180.188, 1555.159
1180.670, 1539.417
1181.152, 1549.417
1181.635, 1568.159
1182.117, 1588.917
1182.599, 1610.288
1183.081, 1595.426
1183.563, 1548.786
1184.045, 1516.559
1184.527, 1539.636
1185.009, 1568.580
1185.491, 1584.758
1185.974, 1587.287
1186.456, 1570.572
1186.938, 1533.082
1187.420, 1507.760
1187.902, 1496.883
1188.384, 1502.078
1188.866, 1549.839
1189.348, 1590.986
1189.830, 1580.758
1190.313, 1533.117
1190.795, 1500.139
1191.277, 1481.902
1191.759, 1480.786
1192.241, 1501.409
1192.723, 1520.912
1193.205, 1512.248
1193.687, 1494.758
1194.170, 1488.798
1194.652, 1496.248
1195.134, 1492.475
1195.616, 1474.430
1196.098, 1470.247
1196.580, 1500.093
1197.062, 1535.076
1197.544, 1537.673
1198.026, 1525.510
1198.509, 1526.157
1198.991, 1551.788
1199.473, 1562.636
1199.955, 1557.352
1200.437, 1544.663
1200.919, 1524.567
1201.401, 1504.966
1201.883, 1497.464
1202.365, 1498.940
1202.848, 1501.457
1203.330, 1510.109
1203.812, 1501.532
1204.294, 1468.765
1204.776, 1437.086
1205.258, 1436.653
1205.740, 1451.741
1206.222, 1462.138
1206.705, 1466.440
1207.187, 1469.236
1207.669, 1470.338
1208.151, 1472.921
1208.633, 1479.627
1209.115, 1483.407
1209.597, 1467.692
1210.079, 1444.380
1210.562, 1432.630
1211.044, 1436.630
1211.526, 1445.047
1212.008, 1458.896
1212.490, 1471.365
1212.972, 1483.186
1213.454, 1487.736
1213.936, 1458.451
1214.418, 1415.281
1214.901, 1400.063
1215.383, 1442.292
1215.865, 1470.199
1216.347, 1476.372
1216.829, 1470.888
1217.311, 1454.119
1217.793, 1433.491
1218.275, 1428.919
1218.757, 1435.145
1219.240, 1436.169
1219.722, 1416.096
1220.204, 1406.947
1220.686, 1415.573
1221.168, 1427.465
1221.650, 1426.093
1222.132, 1418.006
1222.614, 1421.896
1223.097, 1435.736
1223.579, 1439.753
1224.061, 1413.679
1224.543, 1396.593
1225.025, 1400.294
1225.507, 1406.800
1225.989, 1376.726
1226.471, 1332.639
1226.953, 1330.574
1227.436, 1378.728
1227.918, 1420.114
1228.400, 1441.399
1228.882, 1446.744
1229.364, 1432.982
1229.846, 1409.039
1230.328, 1390.771
1230.810, 1377.409
1231.292, 1367.351
1231.775, 1361.080
1232.257, 1354.996
1232.739, 1352.280
1233.221, 1341.796
1233.703, 1308.797
1234.185, 1271.457
1234.667, 1290.605
1235.149, 1343.841
1235.632, 1373.625
1236.114, 1344.956
1236.596, 1322.497
1237.078, 1313.904
1237.560, 1312.587
1238.042, 1314.956
1238.524, 1320.454
1239.006, 1329.549
1239.489, 1340.704
1239.971, 1348.686
1240.453, 1354.967
1240.935, 1351.580
1241.417, 1334.793
1241.899, 1314.627
1242.381, 1298.681
1242.863, 1287.887
1243.345, 1284.432
1243.828, 1287.887
1244.310, 1295.155
1244.792, 1311.810
1245.274, 1322.271
1245.756, 1323.217
1246.238, 1319.125
1246.720, 1316.028
1247.202, 1312.492
1247.684, 1303.166
1248.167, 1287.620
1248.649, 1283.096
1249.131, 1305.756
1249.613, 1311.937
1250.095, 1283.626
1250.577, 1245.998
1251.059, 1241.398
1251.541, 1254.941
1252.023, 1261.909
1252.506, 1256.750
1252.988, 1251.835
1253.470, 1245.239
1253.952, 1249.462
1254.434, 1281.165
1254.916, 1309.151
1255.398, 1258.225
1255.880, 1173.372
1256.363, 1134.555
1256.845, 1186.754
1257.327, 1205.502
1257.809, 1177.444
1258.291, 1153.973
1258.773, 1173.079
1259.255, 1206.196
1259.737, 1213.853
1260.219, 1202.597
1260.702, 1183.289
1261.184, 1143.544
1261.666, 1135.128
1262.148, 1164.215
1262.630, 1194.758
1263.112, 1203.792
1263.594, 1196.147
1264.076, 1165.177
1264.558, 1123.456
1265.041, 1104.796
1265.523, 1117.939
1266.005, 1127.215
1266.487, 1129.894
1266.969, 1129.944
1267.451, 1134.438
1267.933, 1134.890
1268.415, 1114.186
1268.898, 1082.266
1269.380, 1081.226
1269.862, 1118.772
1270.344, 1131.094
1270.826, 1106.058
1271.308, 1079.311
1271.790, 1092.361
1272.272, 1109.384
1272.755, 1094.247
1273.237, 1057.269
1273.719, 1044.493
1274.201, 1056.406
1274.683, 1064.677
1275.165, 1063.128
1275.647, 1056.650
1276.129, 1040.814
1276.611, 1029.442
1277.094, 1036.812
1277.576, 1057.059
1278.058, 1059.582
1278.540, 1046.586
1279.022, 1039.907
1279.504, 1048.992
1279.986, 1055.118
1280.468, 1043.001
1280.950, 1028.195
1281.433, 1022.411
1281.915, 1022.630
1282.397, 1006.122
1282.879, 979.1810
1283.361, 972.2735
1283.843, 1010.715
1284.325, 1039.053
1284.807, 1027.669
1285.290, 1010.108
1285.772, 1007.925
1286.254, 1015.908
1286.736, 1010.099
1287.218, 995.2836
1287.700, 987.7700
1288.182, 999.9376
1288.664, 1011.466
1289.146, 1022.235
1289.629, 1027.041
1290.111, 1020.038
1290.593, 1004.537
1291.075, 981.6884
##END=



