##NAMES=Bavenite
##RRUFFID=R060128
##IDEAL CHEMISTRY=Ca_4_Be_2+x_Al_2-x_Si_9_O_26-x_(OH)_2+x_ (x = 0 to 1)
##LOCALITY=Foot mine, Kings Mountain, Cleveland County, North Carolina, USA
##OWNER=RRUFF
##SOURCE=University of Arizona Mineral Museum
##DESCRIPTION=White bladed radial aggregate
##STATUS=The identification of this mineral is confirmed by single-crystal X-ray diffraction and chemical analysis.
##URL=rruff.info/R060128
##MEASURED CHEMISTRY=Ca_4.00_Be_2.00_(Al_1.98_Fe^3+^_0.02_)_Î£=2_Si_9.00_O_26_(OH)_2_
90.26367, 15.31025
90.74579, 15.13676
91.22791, 15.18542
91.71002, 15.43675
92.19214, 15.72335
92.67426, 16.03552
93.15637, 16.29397
93.63850, 16.26948
94.12061, 15.72110
94.60273, 14.88315
95.08485, 14.28452
95.56696, 13.94069
96.04908, 13.76814
96.53120, 13.69775
97.01331, 13.72890
97.49543, 13.82616
97.97755, 14.01452
98.45966, 14.28436
98.94178, 14.49020
99.42390, 14.63530
99.90602, 14.70960
100.3881, 14.66285
100.8703, 14.45203
101.3524, 14.27236
101.8345, 14.24746
102.3166, 14.43037
102.7987, 14.55448
103.2808, 14.64476
103.7630, 14.66194
104.2451, 14.38883
104.7272, 13.60622
105.2093, 12.81953
105.6914, 12.35385
106.1735, 12.35528
106.6557, 12.44326
107.1378, 12.66175
107.6199, 13.02422
108.1020, 13.09197
108.5841, 12.42920
109.0662, 11.70116
109.5484, 11.49565
110.0305, 12.28467
110.5126, 13.12426
110.9947, 13.94691
111.4768, 14.84025
111.9590, 15.33155
112.4411, 14.97818
112.9232, 14.29732
113.4053, 13.96453
113.8874, 14.19318
114.3695, 14.70725
114.8517, 15.46674
115.3338, 16.60488
115.8159, 17.62603
116.2980, 18.27444
116.7801, 18.70632
117.2622, 19.25724
117.7444, 20.08022
118.2265, 21.05319
118.7086, 22.09943
119.1907, 23.24424
119.6728, 24.41555
120.1549, 25.38587
120.6371, 26.27835
121.1192, 27.59847
121.6013, 29.87374
122.0834, 32.64137
122.5655, 35.37359
123.0477, 37.78735
123.5298, 40.21046
124.0119, 42.94975
124.4940, 45.99322
124.9761, 49.18512
125.4582, 52.40757
125.9404, 55.66841
126.4225, 58.95756
126.9046, 62.54848
127.3867, 66.08070
127.8688, 68.79788
128.3509, 70.62724
128.8331, 72.35064
129.3152, 74.79116
129.7973, 77.87981
130.2794, 81.19750
130.7615, 84.53627
131.2436, 87.95248
131.7258, 91.56950
132.2079, 95.37390
132.6900, 99.43239
133.1721, 104.0533
133.6542, 109.2257
134.1364, 114.2088
134.6185, 118.5143
135.1006, 122.1909
135.5827, 125.9616
136.0648, 129.7840
136.5469, 133.8682
137.0291, 138.9104
137.5112, 145.0854
137.9933, 151.3616
138.4754, 156.9267
138.9575, 161.4716
139.4396, 166.9275
139.9218, 173.4751
140.4039, 181.0645
140.8860, 189.3361
141.3681, 198.0916
141.8502, 207.8056
142.3323, 218.8537
142.8145, 232.1638
143.2966, 245.0789
143.7787, 258.7134
144.2608, 273.0243
144.7429, 278.8158
145.2251, 273.9775
145.7072, 262.5390
146.1893, 247.7048
146.6714, 225.5508
147.1535, 205.8811
147.6356, 190.7522
148.1178, 180.5654
148.5999, 172.4472
149.0820, 166.9960
149.5641, 163.4037
150.0462, 160.8052
150.5283, 160.0176
151.0105, 159.4410
151.4926, 157.2010
151.9747, 154.2176
152.4568, 152.1776
152.9389, 151.0559
153.4210, 150.6168
153.9032, 149.9833
154.3853, 149.1664
154.8674, 147.6158
155.3495, 147.0126
155.8316, 146.0298
156.3138, 145.0311
156.7959, 144.5613
157.2780, 143.1174
157.7601, 142.6392
158.2422, 142.6642
158.7243, 142.8536
159.2065, 142.6991
159.6886, 141.8304
160.1707, 141.1344
160.6528, 141.0386
161.1349, 141.3254
161.6170, 141.4230
162.0992, 140.9331
162.5813, 140.3040
163.0634, 139.8133
163.5455, 139.4334
164.0276, 139.3141
164.5097, 139.7860
164.9919, 140.6633
165.4740, 141.2200
165.9561, 140.8474
166.4382, 140.1145
166.9203, 139.5210
167.4025, 139.1428
167.8846, 139.0075
168.3667, 139.2292
168.8488, 139.7609
169.3309, 140.3006
169.8130, 140.9265
170.2952, 141.3847
170.7773, 141.3438
171.2594, 140.1891
171.7415, 138.8788
172.2236, 138.2158
172.7057, 138.1699
173.1879, 138.3486
173.6700, 138.6202
174.1521, 138.9007
174.6342, 139.0515
175.1163, 138.8436
175.5984, 138.5639
176.0806, 138.5961
176.5627, 138.9409
177.0448, 139.3209
177.5269, 139.5752
178.0090, 139.6840
178.4911, 139.6043
178.9733, 139.0331
179.4554, 138.3512
179.9375, 138.2796
180.4196, 138.8807
180.9017, 139.5543
181.3839, 139.7309
181.8660, 139.4707
182.3481, 138.9842
182.8302, 137.9923
183.3123, 136.8796
183.7944, 136.7186
184.2766, 137.6750
184.7587, 138.8364
185.2408, 139.0053
185.7229, 138.3246
186.2050, 137.6640
186.6871, 137.4219
187.1693, 137.5376
187.6514, 137.8545
188.1335, 138.4139
188.6156, 139.0188
189.0977, 139.3007
189.5798, 139.2803
190.0620, 139.4106
190.5441, 139.9947
191.0262, 140.9694
191.5083, 141.9052
191.9904, 142.7804
192.4725, 143.6372
192.9547, 144.4832
193.4368, 145.3187
193.9189, 146.3594
194.4010, 147.8327
194.8831, 149.7055
195.3652, 151.4548
195.8474, 153.0589
196.3295, 154.5105
196.8116, 155.9768
197.2937, 157.5321
197.7758, 158.4140
198.2579, 157.9411
198.7401, 156.0833
199.2222, 154.2893
199.7043, 152.6709
200.1864, 151.1871
200.6685, 149.7160
201.1507, 148.2410
201.6328, 146.8868
202.1149, 145.7731
202.5970, 144.9275
203.0791, 143.9705
203.5612, 142.7388
204.0434, 141.4860
204.5255, 141.0271
205.0076, 141.5507
205.4897, 142.2197
205.9718, 142.4892
206.4539, 142.2719
206.9361, 142.1998
207.4182, 142.3754
207.9003, 142.7122
208.3824, 142.9141
208.8645, 142.9214
209.3466, 142.9533
209.8288, 143.0678
210.3109, 143.1757
210.7930, 143.8005
211.2751, 145.1757
211.7572, 147.0497
212.2393, 148.5316
212.7215, 149.4936
213.2036, 150.3122
213.6857, 151.3451
214.1678, 152.8867
214.6499, 153.6191
215.1321, 153.2955
215.6142, 152.0893
216.0963, 150.6962
216.5784, 148.9742
217.0605, 147.3422
217.5426, 146.0900
218.0248, 145.3378
218.5069, 144.6500
218.9890, 144.0116
219.4711, 143.4104
219.9532, 142.7552
220.4353, 141.9573
220.9175, 141.2431
221.3996, 140.7552
221.8817, 140.5580
222.3638, 140.4288
222.8459, 140.3306
223.3280, 140.2841
223.8102, 140.3931
224.2923, 140.6656
224.7744, 141.0797
225.2565, 141.6405
225.7386, 142.4187
226.2208, 143.1517
226.7029, 143.7358
227.1850, 144.2431
227.6671, 145.0824
228.1492, 146.5690
228.6313, 147.9398
229.1135, 148.7041
229.5956, 148.6329
230.0777, 148.4880
230.5598, 148.3494
231.0419, 148.1859
231.5240, 147.8277
232.0062, 147.1988
232.4883, 146.4828
232.9704, 145.7538
233.4525, 144.8847
233.9346, 144.2961
234.4167, 144.1028
234.8989, 144.2267
235.3810, 144.2811
235.8631, 144.1041
236.3452, 144.0693
236.8273, 144.4368
237.3095, 145.4964
237.7916, 146.3036
238.2737, 146.6587
238.7558, 146.7135
239.2379, 147.1400
239.7200, 148.1479
240.2022, 149.2417
240.6843, 150.1608
241.1664, 150.8145
241.6485, 151.4890
242.1306, 152.1788
242.6127, 152.9039
243.0949, 153.7334
243.5770, 154.8016
244.0591, 155.7988
244.5412, 156.5451
245.0233, 156.9320
245.5054, 157.3438
245.9876, 157.8780
246.4697, 158.4360
246.9518, 158.7211
247.4339, 158.7179
247.9160, 158.4657
248.3981, 157.9385
248.8803, 156.9401
249.3624, 156.1278
249.8445, 155.5561
250.3266, 155.1628
250.8087, 154.7660
251.2909, 154.2854
251.7730, 153.9291
252.2551, 153.8160
252.7372, 154.0555
253.2193, 154.2346
253.7014, 154.2654
254.1836, 154.2713
254.6657, 154.5912
255.1478, 155.4892
255.6299, 156.2374
256.1120, 156.4719
256.5941, 155.9348
257.0763, 155.7663
257.5584, 156.2696
258.0405, 156.9519
258.5226, 156.7761
259.0047, 155.4347
259.4868, 153.8699
259.9690, 152.4145
260.4511, 151.0809
260.9332, 149.7890
261.4153, 148.4663
261.8974, 147.2325
262.3795, 146.3625
262.8617, 146.0265
263.3438, 145.6130
263.8259, 144.7586
264.3080, 143.2972
264.7901, 142.7673
265.2722, 143.6659
265.7544, 144.9048
266.2365, 144.7265
266.7186, 142.5922
267.2007, 140.6961
267.6829, 139.7476
268.1650, 139.7835
268.6471, 140.0005
269.1292, 140.4384
269.6113, 141.0012
270.0934, 141.6255
270.5756, 142.3853
271.0577, 142.9259
271.5398, 143.0194
272.0219, 142.6921
272.5040, 142.8779
272.9861, 143.6565
273.4683, 144.7635
273.9504, 145.9872
274.4325, 147.3467
274.9146, 148.6829
275.3967, 149.9619
275.8788, 151.1922
276.3610, 152.3174
276.8431, 153.2723
277.3252, 154.2853
277.8073, 155.7531
278.2894, 157.7671
278.7715, 159.2193
279.2537, 159.9662
279.7358, 159.9768
280.2179, 159.0601
280.7000, 157.1343
281.1821, 154.6314
281.6642, 151.6348
282.1464, 148.1392
282.6285, 145.0174
283.1106, 142.3731
283.5927, 140.2186
284.0748, 138.7184
284.5569, 137.9209
285.0391, 137.2855
285.5212, 136.3064
286.0033, 135.0425
286.4854, 134.2616
286.9675, 134.1631
287.4496, 134.4281
287.9318, 134.4308
288.4139, 134.1663
288.8960, 133.8660
289.3781, 133.6579
289.8602, 133.5288
290.3424, 133.4233
290.8245, 133.3517
291.3066, 133.2679
291.7887, 133.0996
292.2708, 132.8516
292.7530, 132.5632
293.2351, 132.1926
293.7172, 131.7946
294.1993, 131.5685
294.6814, 131.5400
295.1635, 131.5946
295.6457, 131.5958
296.1278, 131.5562
296.6099, 131.5321
297.0920, 131.4963
297.5741, 131.5028
298.0562, 131.7527
298.5384, 132.2715
299.0205, 132.6996
299.5026, 132.5035
299.9847, 131.9130
300.4668, 131.5378
300.9489, 131.8567
301.4311, 132.4102
301.9132, 132.4743
302.3953, 132.0706
302.8774, 131.6944
303.3595, 131.7782
303.8416, 132.1582
304.3238, 132.5684
304.8059, 133.0563
305.2880, 133.4006
305.7701, 133.1497
306.2522, 132.4203
306.7343, 131.9407
307.2165, 132.3819
307.6986, 133.2838
308.1807, 134.0787
308.6628, 134.6347
309.1449, 135.0503
309.6270, 135.3725
310.1092, 135.6167
310.5913, 135.8248
311.0734, 136.0984
311.5555, 136.3033
312.0376, 136.2498
312.5197, 135.7486
313.0019, 135.4086
313.4840, 135.7892
313.9661, 136.5713
314.4482, 137.1062
314.9304, 137.0572
315.4125, 136.7208
315.8946, 136.1600
316.3767, 135.2828
316.8588, 134.6915
317.3409, 134.9116
317.8231, 135.4866
318.3052, 135.8130
318.7873, 135.3498
319.2694, 134.9186
319.7515, 134.8141
320.2336, 135.0574
320.7158, 135.6016
321.1979, 137.0758
321.6800, 138.5473
322.1621, 139.1669
322.6442, 137.8461
323.1263, 136.6043
323.6085, 135.6860
324.0906, 135.1320
324.5727, 135.3740
325.0548, 137.7522
325.5369, 140.1261
326.0190, 141.1966
326.5012, 139.3139
326.9833, 137.9350
327.4654, 137.3561
327.9475, 137.4907
328.4296, 137.9996
328.9117, 139.2758
329.3939, 140.5788
329.8760, 141.5916
330.3581, 141.9720
330.8402, 142.6953
331.3223, 143.8917
331.8044, 145.3939
332.2866, 146.8815
332.7687, 148.3644
333.2508, 149.7958
333.7329, 151.2591
334.2150, 152.8984
334.6971, 153.8166
335.1793, 153.7077
335.6614, 153.1840
336.1435, 153.0086
336.6256, 153.2142
337.1077, 153.6905
337.5899, 154.4229
338.0720, 155.4177
338.5541, 156.5791
339.0362, 157.9218
339.5183, 159.4290
340.0005, 161.0820
340.4826, 162.9069
340.9647, 164.8394
341.4468, 166.9365
341.9289, 169.0934
342.4110, 171.0690
342.8932, 172.8699
343.3753, 174.3301
343.8574, 175.0911
344.3395, 175.2216
344.8216, 175.8611
345.3037, 177.3327
345.7859, 178.9243
346.2680, 179.5543
346.7501, 179.2277
347.2322, 177.9940
347.7143, 175.6218
348.1964, 172.3365
348.6786, 168.7360
349.1607, 164.7406
349.6428, 160.7746
350.1249, 157.0920
350.6070, 153.7572
351.0891, 150.9093
351.5713, 148.8568
352.0534, 147.2446
352.5355, 145.3908
353.0176, 143.3441
353.4997, 141.6850
353.9818, 141.2399
354.4640, 141.4064
354.9461, 141.2182
355.4282, 140.1303
355.9103, 138.9450
356.3924, 138.3495
356.8745, 138.2602
357.3567, 138.3528
357.8388, 138.5965
358.3209, 138.8554
358.8030, 138.9794
359.2851, 138.8594
359.7672, 138.8299
360.2494, 139.1849
360.7315, 139.7480
361.2136, 140.1884
361.6957, 140.2179
362.1779, 140.2309
362.6600, 140.4371
363.1421, 140.8750
363.6242, 141.3299
364.1063, 141.6601
364.5884, 142.0072
365.0706, 142.5130
365.5527, 143.3938
366.0348, 144.2347
366.5169, 144.8233
366.9990, 145.1900
367.4811, 145.8768
367.9633, 147.6319
368.4454, 149.2447
368.9275, 150.0017
369.4096, 149.0662
369.8917, 148.4268
370.3738, 148.2544
370.8560, 148.3936
371.3381, 148.4089
371.8202, 148.1904
372.3023, 147.9990
372.7844, 147.9565
373.2665, 148.1271
373.7487, 148.1908
374.2308, 148.1438
374.7129, 147.9949
375.1950, 147.6575
375.6771, 146.9387
376.1592, 146.6705
376.6414, 147.2109
377.1235, 148.4580
377.6056, 149.3718
378.0877, 149.8979
378.5698, 150.3000
379.0519, 150.8453
379.5341, 151.5318
380.0162, 152.0774
380.4983, 152.4107
380.9804, 152.6007
381.4625, 152.7529
381.9446, 152.8705
382.4268, 153.0279
382.9089, 153.2874
383.3910, 153.6240
383.8731, 154.0202
384.3553, 154.5090
384.8374, 154.8726
385.3195, 154.7735
385.8016, 154.3263
386.2837, 153.8659
386.7658, 153.4180
387.2480, 153.1027
387.7301, 153.2172
388.2122, 153.7370
388.6943, 154.1103
389.1764, 153.5390
389.6585, 152.7070
390.1407, 152.5436
390.6228, 153.7365
391.1049, 155.0415
391.5870, 155.6070
392.0691, 155.6095
392.5512, 155.5813
393.0334, 155.7420
393.5155, 155.9673
393.9976, 156.1598
394.4797, 156.2668
394.9618, 156.4796
395.4439, 156.7662
395.9261, 157.2197
396.4082, 157.9603
396.8903, 159.1756
397.3724, 160.5316
397.8545, 162.0399
398.3366, 163.7104
398.8188, 165.1638
399.3009, 166.1297
399.7830, 167.0329
400.2651, 168.1254
400.7472, 169.2641
401.2293, 170.8344
401.7115, 173.1319
402.1936, 175.8546
402.6757, 178.0980
403.1578, 179.7914
403.6399, 181.1298
404.1220, 182.1816
404.6042, 182.9632
405.0863, 183.4790
405.5684, 183.9096
406.0505, 183.7797
406.5326, 182.3485
407.0147, 179.4902
407.4969, 176.1926
407.9790, 172.5832
408.4611, 168.7502
408.9432, 164.9037
409.4254, 161.0244
409.9075, 157.5576
410.3896, 154.9592
410.8717, 153.0854
411.3538, 151.2027
411.8359, 149.0884
412.3181, 147.2739
412.8002, 146.9135
413.2823, 147.6548
413.7644, 148.0562
414.2465, 147.0795
414.7286, 145.4491
415.2108, 143.9812
415.6929, 142.7204
416.1750, 141.8072
416.6571, 141.6269
417.1392, 141.7880
417.6213, 141.7415
418.1035, 140.9764
418.5856, 140.3099
419.0677, 140.3000
419.5498, 140.8114
420.0319, 141.3383
420.5140, 141.7394
420.9962, 142.0525
421.4783, 142.2656
421.9604, 142.2813
422.4425, 142.4578
422.9246, 143.1364
423.4067, 143.9440
423.8889, 144.3765
424.3710, 143.7604
424.8531, 143.4032
425.3352, 143.7126
425.8173, 144.6906
426.2994, 145.3834
426.7816, 145.4747
427.2637, 145.5957
427.7458, 146.2101
428.2279, 147.6668
428.7100, 148.7467
429.1921, 149.1701
429.6743, 149.2975
430.1564, 150.0245
430.6385, 151.5108
431.1206, 152.9830
431.6028, 154.1574
432.0849, 155.0465
432.5670, 155.6510
433.0491, 155.9209
433.5312, 156.1191
434.0133, 156.5309
434.4955, 157.1319
434.9776, 157.7636
435.4597, 158.4083
435.9418, 159.0379
436.4239, 159.4472
436.9060, 159.7036
437.3882, 160.2603
437.8703, 161.4035
438.3524, 163.0226
438.8345, 165.0284
439.3166, 167.4470
439.7987, 169.9973
440.2809, 172.2079
440.7630, 174.4595
441.2451, 177.3203
441.7272, 182.1632
442.2093, 186.6377
442.6914, 189.0356
443.1736, 189.6846
443.6557, 190.8323
444.1378, 193.7649
444.6199, 197.1512
445.1020, 200.2546
445.5841, 203.4284
446.0663, 205.4186
446.5484, 206.2600
447.0305, 205.7800
447.5126, 203.6408
447.9947, 199.1294
448.4768, 193.8905
448.9590, 188.0152
449.4411, 181.5060
449.9232, 175.3936
450.4053, 169.6170
450.8874, 164.2306
451.3695, 159.2291
451.8517, 154.4331
452.3338, 150.7482
452.8159, 148.5110
453.2980, 147.1751
453.7801, 145.5517
454.2622, 143.6100
454.7444, 142.0295
455.2265, 141.2722
455.7086, 141.1526
456.1907, 140.9420
456.6729, 140.6348
457.1550, 140.2828
457.6371, 139.8954
458.1192, 139.4970
458.6013, 139.1578
459.0834, 138.9678
459.5656, 138.7153
460.0477, 137.9626
460.5298, 136.9183
461.0119, 136.2360
461.4940, 136.5156
461.9761, 137.0956
462.4583, 137.5003
462.9404, 137.6909
463.4225, 137.7426
463.9046, 137.4026
464.3867, 137.0741
464.8688, 137.1459
465.3510, 138.4841
465.8331, 139.3575
466.3152, 139.0148
466.7973, 137.8487
467.2794, 137.2810
467.7615, 137.9548
468.2437, 138.6875
468.7258, 139.0700
469.2079, 138.9947
469.6900, 139.0174
470.1721, 139.0271
470.6542, 139.2563
471.1364, 140.0707
471.6185, 141.7044
472.1006, 142.9643
472.5827, 143.5289
473.0648, 143.6552
473.5469, 144.1040
474.0291, 144.8882
474.5112, 145.8492
474.9933, 146.9115
475.4754, 148.0782
475.9575, 149.3161
476.4396, 150.6030
476.9218, 152.1328
477.4039, 154.3085
477.8860, 156.8714
478.3681, 159.1908
478.8503, 160.9720
479.3324, 162.5430
479.8145, 163.9895
480.2966, 165.4492
480.7787, 167.3482
481.2608, 170.1526
481.7430, 173.3336
482.2251, 176.6938
482.7072, 180.3274
483.1893, 183.4201
483.6714, 185.0626
484.1535, 186.3063
484.6357, 188.2119
485.1178, 191.1414
485.5999, 194.5396
486.0820, 198.2560
486.5641, 202.3470
487.0462, 207.3529
487.5284, 214.9154
488.0105, 221.1914
488.4926, 224.3758
488.9747, 223.8219
489.4568, 224.1689
489.9389, 225.5346
490.4211, 227.5862
490.9032, 230.3108
491.3853, 233.8239
491.8674, 236.2644
492.3495, 237.1161
492.8316, 236.8156
493.3138, 236.2642
493.7959, 235.4422
494.2780, 234.1397
494.7601, 232.0059
495.2422, 229.3663
495.7243, 226.8654
496.2065, 224.5028
496.6886, 222.2126
497.1707, 219.8022
497.6528, 217.4158
498.1349, 215.2299
498.6170, 213.1797
499.0992, 211.4770
499.5813, 210.5563
500.0634, 210.0710
500.5455, 209.1618
501.0276, 207.1153
501.5097, 204.9831
501.9919, 203.1738
502.4740, 201.7662
502.9561, 200.4001
503.4382, 199.1029
503.9203, 197.7842
504.4025, 196.3805
504.8846, 194.9461
505.3667, 193.3703
505.8488, 191.7234
506.3309, 189.8968
506.8130, 187.5350
507.2952, 184.4856
507.7773, 181.6370
508.2594, 179.4865
508.7415, 177.8656
509.2236, 175.5633
509.7057, 172.5235
510.1879, 169.5303
510.6700, 167.2782
511.1521, 165.5768
511.6342, 163.8195
512.1163, 161.9124
512.5984, 160.0000
513.0806, 158.0753
513.5627, 156.2695
514.0448, 154.8564
514.5269, 154.2814
515.0090, 153.8701
515.4911, 153.1231
515.9733, 152.0943
516.4554, 151.2133
516.9375, 150.6029
517.4196, 150.2102
517.9017, 150.0301
518.3839, 150.1508
518.8660, 150.2603
519.3481, 150.2567
519.8302, 150.2585
520.3123, 150.4023
520.7944, 150.8013
521.2766, 151.1401
521.7587, 151.3643
522.2408, 151.4969
522.7229, 151.5746
523.2050, 151.5260
523.6871, 151.6971
524.1693, 152.3972
524.6514, 153.5611
525.1335, 154.4642
525.6156, 155.0872
526.0977, 155.5977
526.5798, 156.1178
527.0620, 156.6671
527.5441, 157.2886
528.0262, 157.9762
528.5083, 158.7668
528.9904, 159.7267
529.4725, 160.8127
529.9547, 161.9182
530.4368, 162.9091
530.9189, 163.9529
531.4010, 165.2015
531.8831, 166.6659
532.3652, 168.0132
532.8474, 169.6331
533.3295, 170.7837
533.8116, 170.9864
534.2937, 169.7392
534.7758, 168.2715
535.2579, 166.5381
535.7401, 164.6436
536.2222, 162.7905
536.7043, 160.9569
537.1865, 159.1470
537.6686, 157.3322
538.1507, 155.5405
538.6328, 154.0571
539.1149, 152.9348
539.5970, 151.7127
540.0792, 149.8332
540.5613, 147.5418
541.0434, 146.2983
541.5255, 146.2438
542.0076, 146.3476
542.4897, 145.4288
542.9719, 143.9412
543.4540, 142.8069
543.9361, 142.4296
544.4182, 142.2293
544.9003, 141.7357
545.3824, 141.0817
545.8646, 140.5642
546.3467, 140.3561
546.8288, 140.2610
547.3109, 140.2537
547.7930, 140.3324
548.2751, 140.2768
548.7573, 139.9400
549.2394, 139.5482
549.7215, 139.2136
550.2036, 138.9125
550.6857, 138.7324
551.1678, 138.7067
551.6500, 138.7716
552.1321, 138.8232
552.6142, 138.8433
553.0963, 138.9991
553.5784, 139.4062
554.0605, 139.9098
554.5427, 140.0323
555.0248, 139.7964
555.5069, 139.6075
555.9890, 139.7862
556.4711, 140.1468
556.9532, 140.3201
557.4354, 140.2922
557.9175, 140.3290
558.3996, 140.6986
558.8817, 141.2063
559.3638, 141.6371
559.8459, 141.8988
560.3281, 142.1543
560.8102, 142.5105
561.2923, 142.8902
561.7744, 143.1695
562.2565, 143.2236
562.7386, 143.2856
563.2208, 143.3136
563.7029, 143.3529
564.1850, 143.7652
564.6671, 144.7403
565.1492, 145.7449
565.6313, 146.4999
566.1135, 146.9734
566.5956, 147.6168
567.0777, 148.5134
567.5598, 149.2693
568.0419, 149.1715
568.5240, 148.4662
569.0062, 148.5606
569.4883, 150.0039
569.9704, 151.6755
570.4525, 152.3137
570.9346, 152.0485
571.4167, 151.2013
571.8989, 149.1704
572.3810, 147.2248
572.8631, 146.5018
573.3452, 146.8038
573.8273, 146.6931
574.3094, 145.1595
574.7916, 143.4426
575.2737, 142.1781
575.7558, 141.4783
576.2379, 141.0962
576.7200, 141.3003
577.2021, 141.5918
577.6843, 141.5165
578.1664, 140.9546
578.6485, 140.3652
579.1306, 139.7519
579.6127, 139.1731
580.0948, 138.7115
580.5770, 138.3675
581.0591, 138.1763
581.5412, 138.1944
582.0233, 138.3538
582.5054, 138.6353
582.9875, 138.9908
583.4697, 139.0735
583.9518, 138.2713
584.4340, 137.2711
584.9161, 136.8890
585.3982, 137.2745
585.8803, 137.6879
586.3624, 137.8582
586.8445, 137.8313
587.3267, 137.6467
587.8088, 137.0785
588.2909, 136.6545
588.7730, 136.5263
589.2551, 136.5534
589.7372, 136.4776
590.2194, 136.1205
590.7015, 136.0314
591.1836, 136.4641
591.6657, 137.2694
592.1478, 137.6677
592.6299, 137.6307
593.1121, 137.3653
593.5942, 136.7746
594.0763, 136.0347
594.5584, 135.9234
595.0405, 136.4883
595.5226, 137.0708
596.0048, 137.0895
596.4869, 136.7599
596.9690, 136.3288
597.4511, 135.7055
597.9332, 135.3763
598.4153, 135.9596
598.8975, 136.9297
599.3796, 137.5159
599.8617, 137.1832
600.3438, 136.8203
600.8259, 136.5938
601.3080, 136.4986
601.7902, 136.5400
602.2723, 136.8591
602.7544, 137.0675
603.2365, 136.9253
603.7186, 136.4446
604.2007, 136.4681
604.6829, 137.0910
605.1650, 137.7448
605.6471, 137.8925
606.1292, 137.6531
606.6113, 137.5342
607.0934, 137.5941
607.5756, 137.7576
608.0577, 138.0719
608.5398, 138.4139
609.0219, 138.5590
609.5040, 138.3170
609.9861, 138.0345
610.4683, 137.9007
610.9504, 137.8702
611.4325, 137.8406
611.9146, 137.8430
612.3967, 137.7913
612.8788, 137.5820
613.3610, 137.2480
613.8431, 137.1627
614.3252, 137.4037
614.8073, 137.7703
615.2894, 138.2271
615.7715, 138.7873
616.2537, 139.0873
616.7358, 139.0823
617.2179, 139.0172
617.7000, 139.1109
618.1821, 139.3433
618.6642, 139.6648
619.1464, 140.0941
619.6285, 140.5154
620.1106, 140.8772
620.5927, 141.1383
621.0748, 141.2295
621.5569, 140.8032
622.0391, 140.5271
622.5212, 140.8513
623.0033, 141.5773
623.4854, 142.0942
623.9675, 142.1154
624.4496, 142.0996
624.9318, 142.1711
625.4139, 142.3300
625.8960, 142.5163
626.3781, 142.7778
626.8602, 142.9572
627.3423, 142.9823
627.8245, 142.8518
628.3066, 142.3850
628.7887, 141.5020
629.2708, 140.7647
629.7529, 141.0324
630.2350, 141.8645
630.7172, 142.1828
631.1993, 141.5580
631.6815, 140.9135
632.1636, 141.2077
632.6457, 141.9358
633.1278, 142.2984
633.6099, 141.5963
634.0920, 140.9480
634.5742, 140.7574
635.0563, 140.9140
635.5384, 140.9590
636.0205, 140.8432
636.5026, 140.6652
636.9847, 140.3819
637.4669, 140.0218
637.9490, 140.0368
638.4311, 140.4899
638.9132, 141.0419
639.3953, 141.5555
639.8774, 141.9971
640.3596, 142.1369
640.8417, 141.9481
641.3238, 141.7413
641.8059, 141.7522
642.2880, 141.9465
642.7701, 142.3259
643.2523, 143.0097
643.7344, 143.5540
644.2165, 143.5891
644.6986, 143.4018
645.1807, 143.3741
645.6628, 143.8154
646.1450, 144.1336
646.6271, 144.1484
647.1092, 144.0105
647.5913, 144.0990
648.0734, 144.4536
648.5555, 144.9284
649.0377, 145.4911
649.5198, 146.1419
650.0019, 146.9098
650.4840, 147.8031
650.9661, 148.6491
651.4482, 149.4802
651.9304, 150.1502
652.4125, 150.1562
652.8946, 149.5065
653.3767, 149.2873
653.8588, 150.6649
654.3409, 152.5075
654.8231, 153.8741
655.3052, 154.4735
655.7873, 154.9480
656.2694, 155.3683
656.7515, 155.7606
657.2336, 156.1022
657.7158, 156.1006
658.1979, 156.7428
658.6800, 158.3385
659.1621, 160.3408
659.6442, 161.6726
660.1263, 162.3154
660.6085, 163.3407
661.0906, 165.3084
661.5727, 167.5373
662.0548, 168.7599
662.5369, 169.1870
663.0190, 169.6251
663.5012, 170.4647
663.9833, 171.5181
664.4654, 172.6798
664.9475, 173.9340
665.4296, 175.2558
665.9117, 176.6670
666.3939, 178.1236
666.8760, 179.7053
667.3581, 181.5183
667.8402, 182.8105
668.3223, 183.5213
668.8044, 183.8319
669.2866, 183.8296
669.7687, 183.5082
670.2508, 183.1033
670.7329, 182.6875
671.2150, 181.8934
671.6971, 180.0842
672.1793, 177.5555
672.6614, 175.0808
673.1435, 172.7687
673.6256, 170.6706
674.1077, 168.8640
674.5898, 167.2565
675.0720, 165.7300
675.5541, 164.1431
676.0362, 162.7255
676.5183, 161.2803
677.0004, 160.0761
677.4825, 159.9866
677.9647, 162.2317
678.4468, 163.1862
678.9290, 161.4570
679.4111, 157.6987
679.8932, 154.8382
680.3753, 152.9051
680.8574, 151.6507
681.3395, 151.2786
681.8217, 151.3858
682.3038, 151.1647
682.7859, 150.6157
683.2680, 149.9175
683.7501, 149.0105
684.2322, 148.1182
684.7144, 147.3639
685.1965, 146.7476
685.6786, 146.4191
686.1607, 146.7055
686.6428, 147.1006
687.1249, 147.2299
687.6071, 146.9123
688.0892, 146.7796
688.5713, 146.9651
689.0534, 147.1254
689.5355, 146.6925
690.0176, 145.7043
690.4998, 145.1596
690.9819, 145.3321
691.4640, 145.7440
691.9461, 145.8088
692.4282, 145.6135
692.9103, 145.3405
693.3925, 144.9584
693.8746, 144.6348
694.3567, 144.3980
694.8388, 144.2944
695.3209, 144.4336
695.8030, 145.3183
696.2852, 145.8879
696.7673, 145.7039
697.2494, 144.9776
697.7315, 144.8855
698.2136, 145.6397
698.6957, 146.3260
699.1779, 146.5003
699.6600, 146.2863
700.1421, 146.2210
700.6242, 146.2989
701.1063, 146.4074
701.5884, 146.4487
702.0706, 146.4877
702.5527, 146.5816
703.0348, 146.7360
703.5169, 147.0110
703.9990, 147.7619
704.4811, 148.4120
704.9633, 148.4747
705.4454, 147.5397
705.9275, 147.0697
706.4096, 147.2940
706.8917, 147.7332
707.3738, 147.9588
707.8560, 147.9269
708.3381, 148.0597
708.8202, 148.3931
709.3023, 148.8796
709.7844, 149.5278
710.2665, 150.2804
710.7487, 151.0078
711.2308, 151.6976
711.7129, 152.2866
712.1950, 152.4912
712.6771, 152.6288
713.1592, 153.1815
713.6414, 154.9775
714.1235, 156.4081
714.6056, 156.7502
715.0877, 156.5545
715.5698, 156.9268
716.0519, 158.1309
716.5341, 159.1870
717.0162, 159.7788
717.4983, 160.1158
717.9804, 160.7437
718.4625, 161.6607
718.9446, 162.7755
719.4268, 164.2027
719.9089, 165.6908
720.3910, 166.9156
720.8731, 167.9101
721.3552, 168.8655
721.8373, 169.8954
722.3195, 170.8847
722.8016, 171.6100
723.2837, 172.0577
723.7658, 173.1099
724.2479, 175.1636
724.7300, 177.3091
725.2122, 179.1877
725.6943, 180.8012
726.1765, 182.0284
726.6586, 182.8619
727.1407, 183.4391
727.6228, 183.9576
728.1049, 184.3005
728.5870, 184.0744
729.0692, 183.2355
729.5513, 182.3448
730.0334, 182.0419
730.5155, 181.7332
730.9976, 180.9098
731.4797, 179.4981
731.9619, 177.5302
732.4440, 174.3415
732.9261, 171.0842
733.4082, 168.6390
733.8903, 167.2792
734.3724, 165.8363
734.8546, 164.1998
735.3367, 162.6416
735.8188, 161.4888
736.3009, 160.7193
736.7830, 160.2529
737.2651, 160.1020
737.7473, 160.1513
738.2294, 160.4283
738.7115, 160.7902
739.1936, 161.0190
739.6757, 160.8591
740.1578, 160.7942
740.6400, 161.0327
741.1221, 161.4263
741.6042, 161.6815
742.0863, 161.5605
742.5684, 161.8620
743.0505, 162.8437
743.5327, 164.1850
744.0148, 165.1037
744.4969, 165.6366
744.9790, 166.4140
745.4611, 167.9751
745.9432, 169.5191
746.4254, 169.7155
746.9075, 169.0439
747.3896, 168.7404
747.8717, 169.8883
748.3538, 170.9856
748.8359, 171.4250
749.3181, 171.2611
749.8002, 170.8941
750.2823, 170.4555
750.7644, 169.6248
751.2465, 168.2053
751.7286, 166.3281
752.2108, 164.6867
752.6929, 163.2773
753.1750, 161.9077
753.6571, 160.3732
754.1392, 158.8649
754.6213, 157.7064
755.1035, 156.8644
755.5856, 156.2117
756.0677, 156.0093
756.5498, 155.6780
757.0319, 154.6313
757.5140, 152.8210
757.9962, 151.8150
758.4783, 152.2621
758.9604, 152.6925
759.4425, 152.3601
759.9246, 151.2948
760.4067, 150.7234
760.8889, 150.6991
761.3710, 150.7060
761.8531, 150.3955
762.3352, 149.8412
762.8173, 149.0424
763.2994, 148.0237
763.7816, 147.2824
764.2637, 147.2206
764.7458, 147.4999
765.2279, 148.0292
765.7100, 148.9822
766.1921, 149.1914
766.6743, 147.9873
767.1564, 146.7967
767.6385, 146.6597
768.1206, 147.7520
768.6027, 148.1304
769.0848, 147.6856
769.5670, 146.4383
770.0491, 147.0128
770.5312, 147.3394
771.0133, 147.4312
771.4954, 146.5856
771.9775, 146.9505
772.4597, 146.8303
772.9418, 146.6902
773.4240, 147.2256
773.9061, 146.5163
774.3882, 147.0409
774.8703, 147.0730
775.3524, 147.3305
775.8345, 147.0998
776.3167, 147.0199
776.7988, 147.4284
777.2809, 147.5664
777.7630, 147.2796
778.2451, 147.5514
778.7272, 146.8250
779.2094, 146.9746
779.6915, 147.5021
780.1736, 147.2398
780.6557, 147.5205
781.1378, 147.5945
781.6199, 147.1467
782.1021, 147.7576
782.5842, 148.0459
783.0663, 147.8601
783.5484, 147.5173
784.0305, 147.3528
784.5126, 147.3690
784.9948, 147.4429
785.4769, 147.5684
785.9590, 147.7086
786.4411, 147.9056
786.9232, 148.0664
787.4053, 147.9629
787.8875, 147.3675
788.3696, 146.9843
788.8517, 147.3598
789.3338, 148.0286
789.8159, 148.4683
790.2980, 148.5654
790.7802, 148.5408
791.2623, 148.3356
791.7444, 148.0940
792.2265, 148.0307
792.7086, 148.1326
793.1907, 148.1715
793.6729, 148.0801
794.1550, 148.0387
794.6371, 148.3129
795.1192, 148.7579
795.6013, 149.1552
796.0834, 149.5030
796.5656, 149.6795
797.0477, 149.4282
797.5298, 149.0857
798.0119, 149.0896
798.4940, 149.7207
798.9761, 150.0297
799.4583, 149.8613
799.9404, 149.5136
800.4225, 149.3803
800.9046, 149.4310
801.3867, 149.5103
801.8688, 149.6198
802.3510, 149.6238
802.8331, 149.3071
803.3152, 148.8270
803.7973, 148.3863
804.2794, 147.8478
804.7615, 147.6642
805.2437, 148.3041
805.7258, 149.1353
806.2079, 149.4885
806.6900, 149.2640
807.1721, 148.8925
807.6542, 148.3340
808.1364, 147.8732
808.6185, 148.0683
809.1006, 148.6799
809.5827, 148.9673
810.0648, 148.6886
810.5469, 148.3173
811.0291, 148.1520
811.5112, 148.1138
811.9933, 148.1091
812.4754, 148.1165
812.9575, 148.1751
813.4396, 148.4064
813.9218, 148.5727
814.4039, 148.3446
814.8860, 147.6886
815.3681, 147.1139
815.8502, 146.6321
816.3323, 146.4283
816.8145, 147.0969
817.2966, 148.0984
817.7787, 148.3784
818.2608, 147.4487
818.7429, 146.6508
819.2251, 146.6756
819.7072, 147.1139
820.1893, 147.6039
820.6714, 148.3257
821.1536, 148.6153
821.6357, 148.3354
822.1178, 147.8662
822.5999, 147.5876
823.0820, 147.4819
823.5641, 147.4160
824.0463, 147.3613
824.5284, 147.4447
825.0105, 147.8552
825.4926, 148.4328
825.9747, 149.0537
826.4568, 149.8158
826.9390, 150.1964
827.4211, 149.7346
827.9032, 149.1160
828.3853, 148.7678
828.8674, 148.7202
829.3495, 148.8750
829.8317, 149.2930
830.3138, 149.6404
830.7959, 149.5309
831.2780, 149.1238
831.7601, 148.6730
832.2422, 148.1993
832.7244, 147.9700
833.2065, 148.3968
833.6886, 148.9691
834.1707, 149.3205
834.6528, 149.3877
835.1349, 149.2684
835.6171, 148.8281
836.0992, 148.4318
836.5813, 148.3672
837.0634, 148.6061
837.5455, 148.7236
838.0276, 148.7164
838.5098, 148.6656
838.9919, 148.5306
839.4740, 148.4465
839.9561, 148.6593
840.4382, 149.1724
840.9203, 149.4564
841.4025, 149.0462
841.8846, 148.6456
842.3667, 148.5596
842.8488, 148.7841
843.3309, 149.1474
843.8130, 149.7091
844.2952, 150.0828
844.7773, 149.9590
845.2594, 149.5127
845.7415, 149.0477
846.2236, 148.5972
846.7057, 148.3483
847.1879, 148.4931
847.6700, 148.7897
848.1521, 149.2518
848.6342, 149.8077
849.1163, 149.9314
849.5984, 149.3421
850.0806, 148.8603
850.5627, 148.7502
851.0448, 148.9402
851.5269, 149.2867
852.0090, 149.7613
852.4911, 150.1380
852.9733, 150.2645
853.4554, 150.2781
853.9375, 150.2476
854.4196, 150.2035
854.9017, 150.2226
855.3839, 150.4948
855.8660, 150.6120
856.3481, 150.3859
856.8302, 150.0160
857.3123, 150.0591
857.7944, 150.5785
858.2766, 150.6004
858.7587, 149.6895
859.2408, 148.5916
859.7229, 148.4855
860.2050, 148.9988
860.6871, 149.3742
861.1693, 149.2403
861.6514, 149.1189
862.1335, 149.2546
862.6156, 149.4899
863.0977, 149.5913
863.5798, 149.4518
864.0620, 149.5132
864.5441, 149.8698
865.0262, 150.2942
865.5083, 150.5519
865.9904, 150.6436
866.4726, 150.5397
866.9547, 150.1974
867.4368, 149.8657
867.9189, 149.6894
868.4011, 149.6209
868.8832, 149.6098
869.3653, 149.6328
869.8474, 149.7874
870.3295, 150.1810
870.8116, 150.5335
871.2938, 150.5818
871.7759, 150.3586
872.2580, 150.2405
872.7401, 150.2391
873.2222, 150.2362
873.7043, 150.1272
874.1865, 149.9776
874.6686, 149.8940
875.1507, 149.8844
875.6328, 149.7025
876.1149, 148.9731
876.5970, 148.4050
877.0792, 148.2866
877.5613, 148.5802
878.0434, 148.9910
878.5255, 149.5309
879.0076, 149.8591
879.4897, 149.6151
879.9719, 149.1415
880.4540, 148.8569
880.9361, 148.7503
881.4182, 148.7829
881.9003, 149.2332
882.3824, 149.4918
882.8646, 149.0487
883.3467, 148.3099
883.8288, 148.4369
884.3109, 149.6404
884.7930, 150.3951
885.2751, 149.9412
885.7573, 148.4231
886.2394, 149.8119
886.7215, 150.6054
887.2036, 150.8357
887.6857, 148.8160
888.1678, 149.7018
888.6500, 149.4232
889.1321, 149.0968
889.6142, 150.3915
890.0963, 148.6991
890.5784, 149.9680
891.0605, 150.0549
891.5427, 150.6828
892.0248, 150.1391
892.5069, 149.9572
892.9890, 150.9474
893.4711, 151.2886
893.9532, 150.6100
894.4354, 151.2723
894.9175, 149.5389
895.3996, 149.9077
895.8817, 151.1836
896.3638, 150.5639
896.8459, 151.2476
897.3281, 151.4349
897.8102, 149.3664
898.2923, 151.2210
898.7744, 151.3790
899.2565, 149.7948
899.7386, 151.5150
900.2208, 150.1711
900.7029, 149.9209
901.1850, 150.4937
901.6671, 150.2085
902.1492, 151.2761
902.6313, 151.0405
903.1135, 150.6884
903.5956, 150.8445
904.0777, 149.5606
904.5598, 150.9481
905.0419, 150.5109
905.5240, 150.9807
906.0062, 151.6560
906.4883, 150.7572
906.9704, 151.5249
907.4525, 149.7082
907.9346, 150.0540
908.4167, 150.1669
908.8989, 151.6621
909.3810, 149.8579
909.8631, 150.1436
910.3452, 151.3192
910.8273, 151.2497
911.3094, 151.7007
911.7916, 150.6106
912.2737, 150.9683
912.7558, 150.9269
913.2380, 152.2645
913.7201, 152.5135
914.2022, 151.4496
914.6843, 150.3912
915.1664, 151.8280
915.6486, 150.8999
916.1307, 151.2952
916.6128, 151.6062
917.0949, 152.0875
917.5770, 152.3748
918.0591, 152.4784
918.5413, 151.8483
919.0234, 152.1657
919.5055, 152.1033
919.9876, 152.0254
920.4697, 152.4761
920.9518, 151.9527
921.4340, 152.3950
921.9161, 152.4519
922.3982, 152.6851
922.8803, 152.5363
923.3624, 152.5056
923.8445, 152.8569
924.3267, 152.9967
924.8088, 152.8040
925.2909, 153.0484
925.7730, 153.1908
926.2551, 153.4281
926.7372, 152.5067
927.2194, 151.7852
927.7015, 151.3454
928.1836, 151.2228
928.6657, 151.6196
929.1478, 152.5360
929.6299, 152.8990
930.1121, 152.6339
930.5942, 152.2122
931.0763, 151.8605
931.5584, 151.6788
932.0405, 151.8574
932.5226, 152.4032
933.0048, 152.8393
933.4869, 152.9907
933.9690, 153.0891
934.4511, 153.2151
934.9332, 153.3476
935.4153, 153.3581
935.8975, 153.2504
936.3796, 153.1487
936.8617, 153.1101
937.3438, 153.1001
937.8259, 153.0488
938.3080, 153.0042
938.7902, 153.0648
939.2723, 153.3875
939.7544, 153.6277
940.2365, 153.6697
940.7186, 153.7045
941.2007, 154.0840
941.6829, 154.7615
942.1650, 155.1598
942.6471, 155.1905
943.1292, 155.0604
943.6113, 154.7832
944.0934, 154.5524
944.5756, 154.6229
945.0577, 155.1196
945.5398, 155.3538
946.0219, 155.1265
946.5040, 154.8900
946.9861, 154.9329
947.4683, 155.1716
947.9504, 155.0157
948.4325, 154.5195
948.9146, 154.1528
949.3967, 154.2955
949.8788, 154.5715
950.3610, 154.7642
950.8431, 154.8694
951.3252, 154.8790
951.8073, 154.7930
952.2894, 154.6122
952.7715, 154.2917
953.2537, 153.9465
953.7358, 153.8200
954.2179, 153.8435
954.7000, 153.7109
955.1821, 153.3236
955.6642, 152.9623
956.1464, 152.7435
956.6285, 152.6944
957.1106, 152.9036
957.5927, 153.4856
958.0748, 153.7595
958.5569, 153.6342
959.0391, 153.4412
959.5212, 153.3777
960.0033, 153.4166
960.4855, 153.5424
960.9676, 153.7230
961.4497, 153.7838
961.9318, 153.4543
962.4139, 153.1635
962.8961, 153.1365
963.3782, 153.3169
963.8603, 153.5921
964.3424, 154.0543
964.8245, 154.1563
965.3066, 153.6679
965.7888, 153.1022
966.2709, 153.3563
966.7530, 154.0340
967.2351, 154.3368
967.7172, 153.9760
968.1993, 153.6417
968.6815, 153.6298
969.1636, 153.7031
969.6457, 153.6024
970.1278, 153.2643
970.6099, 153.7776
971.0920, 155.2157
971.5742, 156.4702
972.0563, 156.6166
972.5384, 156.2284
973.0205, 155.8067
973.5026, 155.4562
973.9847, 155.5125
974.4669, 156.5601
974.9490, 157.4160
975.4311, 157.7366
975.9132, 157.8082
976.3953, 158.2652
976.8774, 159.0777
977.3596, 159.7137
977.8417, 160.0410
978.3238, 160.2206
978.8059, 160.2110
979.2880, 160.2414
979.7701, 160.5890
980.2523, 161.4154
980.7344, 162.1756
981.2165, 162.8494
981.6986, 163.4717
982.1807, 164.0373
982.6628, 164.5745
983.1450, 165.3152
983.6271, 166.1964
984.1092, 166.8308
984.5913, 166.7038
985.0734, 166.5641
985.5555, 166.9514
986.0377, 167.6283
986.5198, 167.9238
987.0019, 167.6829
987.4840, 167.5749
987.9661, 167.7192
988.4482, 167.9819
988.9304, 168.1717
989.4125, 168.3508
989.8946, 168.6612
990.3767, 169.1556
990.8588, 169.6068
991.3409, 169.9160
991.8231, 170.1533
992.3052, 170.2533
992.7873, 170.2395
993.2694, 170.9070
993.7515, 172.2758
994.2336, 173.7324
994.7158, 175.0021
995.1979, 176.1240
995.6800, 177.1207
996.1621, 178.0236
996.6442, 178.8962
997.1263, 179.8549
997.6085, 180.6538
998.0906, 181.4004
998.5727, 181.8054
999.0548, 181.3791
999.5369, 180.2344
1000.019, 179.1784
1000.501, 178.3276
1000.983, 177.1348
1001.465, 174.7507
1001.948, 172.2074
1002.430, 170.3127
1002.912, 169.1192
1003.394, 168.1349
1003.876, 167.4750
1004.358, 166.5949
1004.840, 165.1319
1005.322, 163.4829
1005.804, 162.3705
1006.287, 161.6886
1006.769, 161.1620
1007.251, 160.9046
1007.733, 160.4681
1008.215, 159.3361
1008.697, 158.2286
1009.179, 157.8967
1009.661, 158.4433
1010.144, 158.5542
1010.626, 158.1658
1011.108, 157.6298
1011.590, 157.0489
1012.072, 156.5929
1012.554, 156.4836
1013.036, 156.6912
1013.518, 156.9138
1014.000, 157.2449
1014.483, 157.3295
1014.965, 157.0105
1015.447, 156.4891
1015.929, 156.0635
1016.411, 155.7758
1016.893, 155.8596
1017.375, 156.5273
1017.857, 157.0203
1018.340, 156.6243
1018.822, 156.0231
1019.304, 155.8822
1019.786, 156.3198
1020.268, 156.2088
1020.750, 155.4310
1021.232, 154.8489
1021.714, 155.2613
1022.196, 156.0491
1022.679, 156.2677
1023.161, 156.0514
1023.643, 155.7811
1024.125, 155.3264
1024.607, 155.2180
1025.089, 155.7507
1025.571, 156.4189
1026.053, 156.3580
1026.536, 155.7042
1027.018, 155.6362
1027.500, 156.3302
1027.982, 156.9431
1028.464, 156.6804
1028.946, 156.1940
1029.428, 156.0087
1029.910, 156.1508
1030.392, 156.1563
1030.875, 155.9976
1031.357, 155.7706
1031.839, 155.4099
1032.321, 155.1439
1032.803, 155.6994
1033.285, 156.6107
1033.767, 156.8329
1034.249, 155.5585
1034.732, 154.5509
1035.214, 154.2463
1035.696, 154.3492
1036.178, 154.8250
1036.660, 155.6625
1037.142, 155.8361
1037.624, 155.3658
1038.106, 154.9151
1038.589, 154.9698
1039.071, 155.1788
1039.553, 155.3666
1040.035, 155.4900
1040.517, 155.4320
1040.999, 155.1098
1041.481, 154.7981
1041.963, 154.4727
1042.445, 154.3333
1042.927, 154.8493
1043.410, 155.6776
1043.892, 156.0682
1044.374, 155.8614
1044.856, 155.8697
1045.338, 156.8908
1045.820, 157.6440
1046.302, 157.4270
1046.784, 156.4871
1047.267, 156.0049
1047.749, 155.9809
1048.231, 156.6801
1048.713, 157.4698
1049.195, 158.0115
1049.677, 158.3185
1050.159, 157.6880
1050.641, 158.2681
1051.124, 158.3635
1051.606, 158.4385
1052.088, 159.1890
1052.570, 158.6948
1053.052, 159.4346
1053.534, 159.6818
1054.016, 160.1544
1054.498, 160.1390
1054.980, 159.2326
1055.463, 160.0139
1055.945, 160.6436
1056.427, 160.8506
1056.909, 160.7842
1057.391, 160.6463
1057.873, 160.4430
1058.355, 160.1861
1058.837, 159.8596
1059.319, 159.6785
1059.802, 159.9431
1060.284, 160.3137
1060.766, 160.5721
1061.248, 160.7054
1061.730, 160.6575
1062.212, 160.3863
1062.694, 160.1520
1063.176, 160.0329
1063.659, 160.0334
1064.141, 160.2107
1064.623, 160.4950
1065.105, 160.7737
1065.587, 161.0338
1066.069, 161.2349
1066.551, 161.3682
1067.033, 161.4505
1067.516, 161.4645
1067.998, 161.4315
1068.480, 161.4961
1068.962, 161.6364
1069.444, 161.7353
1069.926, 161.5367
1070.408, 161.4924
1070.890, 161.9591
1071.372, 162.6505
1071.854, 163.2183
1072.337, 163.6978
1072.819, 163.6263
1073.301, 162.9241
1073.783, 162.0222
1074.265, 161.1831
1074.747, 160.4564
1075.229, 159.8531
1075.711, 159.3932
1076.194, 159.2739
1076.676, 159.7418
1077.158, 159.9345
1077.640, 159.5857
1078.122, 158.9169
1078.604, 158.0794
1079.086, 157.2664
1079.568, 156.9737
1080.051, 157.4714
1080.533, 157.7790
1081.015, 157.3183
1081.497, 156.8270
1081.979, 156.6790
1082.461, 156.8192
1082.943, 156.8336
1083.425, 156.7594
1083.907, 156.8820
1084.390, 157.5608
1084.872, 158.1606
1085.354, 158.1165
1085.836, 157.8414
1086.318, 157.9023
1086.800, 158.4316
1087.282, 158.7349
1087.764, 158.7675
1088.247, 158.8342
1088.729, 159.2617
1089.211, 159.7905
1089.693, 160.1367
1090.175, 160.3207
1090.657, 160.4540
1091.139, 160.4712
1091.621, 160.6138
1092.104, 160.9557
1092.586, 161.3455
1093.068, 161.5368
1093.550, 161.6290
1094.032, 161.8869
1094.514, 162.3422
1094.996, 162.7496
1095.478, 163.1843
1095.960, 163.3080
1096.443, 162.8958
1096.925, 162.1549
1097.407, 161.7317
1097.889, 161.5656
1098.371, 161.2106
1098.853, 160.4988
1099.335, 159.7415
1099.817, 158.8259
1100.299, 158.2193
1100.782, 158.5370
1101.264, 159.8126
1101.746, 160.2487
1102.228, 159.8071
1102.710, 159.0617
1103.192, 158.1071
1103.674, 157.2421
1104.156, 156.8544
1104.639, 156.7907
1105.121, 156.8035
1105.603, 156.8722
1106.085, 156.9984
1106.567, 157.2370
1107.049, 157.3825
1107.531, 157.1950
1108.013, 156.8354
1108.495, 156.6251
1108.978, 156.5329
1109.460, 156.4056
1109.942, 155.9673
1110.424, 155.8126
1110.906, 156.1497
1111.388, 156.6455
1111.870, 156.9122
1112.352, 156.9592
1112.834, 156.7131
1113.317, 156.1840
1113.799, 155.8954
1114.281, 156.4789
1114.763, 157.0291
1115.245, 157.1055
1115.727, 156.8284
1116.209, 156.3289
1116.691, 155.6263
1117.174, 155.5703
1117.656, 156.4754
1118.138, 157.3101
1118.620, 156.9398
1119.102, 156.3040
1119.584, 156.3794
1120.066, 156.8611
1120.548, 157.1487
1121.031, 157.2528
1121.513, 156.6230
1121.995, 156.9408
1122.477, 156.8788
1122.959, 156.8012
1123.441, 157.2523
1123.923, 156.7292
1124.405, 157.1719
1124.887, 157.2291
1125.370, 157.4627
1125.852, 157.3143
1126.334, 157.2839
1126.816, 157.6356
1127.298, 157.7757
1127.780, 157.1831
1128.262, 157.4343
1128.744, 157.5168
1129.227, 157.6970
1129.709, 158.0696
1130.191, 158.4315
1130.673, 158.5559
1131.155, 158.5245
1131.637, 158.6414
1132.119, 158.9083
1132.601, 159.2945
1133.083, 160.0786
1133.566, 160.2525
1134.048, 160.7055
1134.530, 160.9643
1135.012, 161.0395
1135.494, 160.3810
1135.976, 160.6699
1136.458, 160.5791
1136.940, 160.4728
1137.422, 160.8951
1137.905, 160.3433
1138.387, 160.7572
1138.869, 160.7856
1139.351, 160.9904
1139.833, 160.8132
1140.315, 160.7540
1140.797, 158.6900
1141.279, 157.8512
1141.762, 157.1610
1142.244, 156.4629
1142.726, 156.7860
1143.208, 156.9150
1143.690, 156.8603
1144.172, 156.0719
1144.654, 156.2310
1145.136, 156.3478
1145.619, 156.8212
1146.101, 156.7024
1146.583, 156.3869
1147.065, 156.4225
1147.547, 157.0196
1148.029, 157.1712
1148.511, 156.7060
1148.993, 156.3286
1149.475, 156.4451
1149.958, 156.6829
1150.440, 156.2470
1150.922, 155.5338
1151.404, 155.3074
1151.886, 156.1207
1152.368, 156.5140
1152.850, 156.2789
1153.332, 155.8819
1153.814, 155.5242
1154.297, 155.2630
1154.779, 155.3383
1155.261, 155.6319
1155.743, 155.8089
1156.225, 155.7522
1156.707, 155.5302
1157.189, 155.0405
1157.671, 154.5818
1158.154, 154.4542
1158.636, 154.5698
1159.118, 154.6002
1159.600, 154.5422
1160.082, 154.4113
1160.564, 153.9684
1161.046, 153.7890
1161.528, 154.1572
1162.010, 154.7099
1162.493, 155.0393
1162.975, 155.1775
1163.457, 155.3930
1163.939, 155.6828
1164.421, 155.8131
1164.903, 155.4952
1165.385, 155.1541
1165.867, 154.9149
1166.349, 154.8093
1166.832, 154.9883
1167.314, 155.4153
1167.796, 155.5809
1168.278, 155.4279
1168.760, 155.1672
1169.242, 154.7805
1169.724, 154.4930
1170.206, 154.2728
1170.689, 154.0514
1171.171, 154.5606
1171.653, 154.8218
1172.135, 154.8484
1172.617, 153.9375
1173.099, 154.2371
1173.581, 154.0517
1174.063, 153.8463
1174.546, 154.3162
1175.028, 153.5416
1175.510, 154.0010
1175.992, 153.9678
1176.474, 154.1600
1176.956, 153.8641
1177.438, 153.7189
1177.920, 153.4667
1178.402, 153.8981
1178.885, 154.3902
1179.367, 154.9021
1179.849, 155.2563
1180.331, 155.4497
1180.813, 155.5570
1181.295, 155.6093
1181.777, 155.5780
1182.259, 155.1597
1182.742, 154.8101
1183.224, 154.7012
1183.706, 155.2780
1184.188, 155.6067
1184.670, 155.7008
1185.152, 154.8574
1185.634, 155.2246
1186.116, 155.1066
1186.599, 154.9688
1187.081, 155.5063
1187.563, 154.7993
1188.045, 155.3262
1188.527, 155.3605
1189.009, 155.6202
1189.491, 155.3918
1189.973, 155.3141
1190.455, 155.7248
1190.938, 155.8651
1191.420, 155.5805
1191.902, 155.8546
1192.384, 155.1305
1192.866, 155.2823
1193.348, 155.8120
1193.830, 155.5519
1194.312, 155.8349
1194.794, 155.9111
1195.277, 155.0473
1195.759, 155.8182
1196.241, 155.8822
1196.723, 155.2202
1197.205, 155.9351
1197.687, 155.3732
1198.169, 155.2671
1198.651, 155.2741
1199.134, 155.1259
1199.616, 155.3802
1200.098, 155.8475
1200.580, 156.0363
1201.062, 155.7474
1201.544, 155.4439
1202.026, 155.1049
1202.508, 154.9225
1202.990, 155.1386
1203.473, 155.5578
1203.955, 156.0150
1204.437, 156.4557
1204.919, 156.7390
1205.401, 156.8493
1205.883, 156.7942
1206.365, 156.5456
1206.847, 156.2481
1207.329, 156.0671
1207.812, 155.9023
1208.294, 155.5248
1208.776, 155.0277
1209.258, 154.8604
1209.740, 155.2455
1210.222, 155.4308
1210.704, 155.2746
1211.186, 155.1621
1211.669, 155.7085
1212.151, 156.3774
1212.633, 156.4293
1213.115, 155.9384
1213.597, 155.5049
1214.079, 155.1155
1214.561, 155.0038
1215.043, 155.2254
1215.526, 155.6243
1216.008, 156.2677
1216.490, 156.8364
1216.972, 156.8449
1217.454, 156.3561
1217.936, 156.0023
1218.418, 155.7554
1218.900, 155.9503
1219.382, 156.7593
1219.865, 157.5069
1220.347, 157.3450
1220.829, 156.7809
1221.311, 156.2758
1221.793, 155.9037
1222.275, 155.8042
1222.757, 156.0592
1223.239, 156.2749
1223.722, 156.3927
1224.204, 156.3801
1224.686, 155.9737
1225.168, 155.5860
1225.650, 155.7849
1226.132, 156.5211
1226.614, 156.7987
1227.096, 156.5505
1227.578, 156.1233
1228.061, 155.5376
1228.543, 155.0475
1229.025, 154.8745
1229.507, 154.9675
1229.989, 155.3541
1230.471, 156.0033
1230.953, 156.6375
1231.435, 157.2760
1231.917, 157.7520
1232.400, 158.0318
1232.882, 158.1153
1233.364, 157.9596
1233.846, 157.6465
1234.328, 157.1625
1234.810, 156.5669
1235.292, 156.1497
1235.774, 155.9131
1236.257, 155.9531
1236.739, 156.3496
1237.221, 156.7415
1237.703, 156.8354
1238.185, 156.7914
1238.667, 156.7240
1239.149, 156.6357
1239.631, 156.4894
1240.114, 156.2893
1240.596, 156.0258
1241.078, 155.6543
1241.560, 155.4750
1242.042, 155.8920
1242.524, 156.4128
1243.006, 156.6986
1243.488, 156.8066
1243.970, 157.0172
1244.453, 157.2934
1244.935, 157.2739
1245.417, 156.8064
1245.899, 156.4323
1246.381, 156.4792
1246.863, 156.7544
1247.345, 157.3141
1247.827, 157.9026
1248.309, 157.3988
1248.792, 156.1109
1249.274, 155.3746
1249.756, 155.5495
1250.238, 156.0299
1250.720, 156.8764
1251.202, 157.5561
1251.684, 157.8368
1252.166, 157.8162
1252.649, 157.6602
1253.131, 157.4214
1253.613, 157.2503
1254.095, 157.1784
1254.577, 157.1707
1255.059, 157.2338
1255.541, 157.3317
1256.023, 157.4609
1256.505, 157.6057
1256.988, 157.7795
1257.470, 157.9325
1257.952, 157.9809
1258.434, 157.9250
1258.916, 157.6013
1259.398, 156.7566
1259.880, 156.2057
1260.362, 156.2586
1260.844, 156.6702
1261.327, 157.3714
1261.809, 158.0004
1262.291, 157.8978
1262.773, 156.8791
1263.255, 156.1209
1263.737, 155.6839
1264.219, 155.4796
1264.701, 155.4416
1265.184, 155.7310
1265.666, 157.0414
1266.148, 158.4865
1266.630, 158.8577
1267.112, 158.0075
1267.594, 157.6776
1268.076, 157.8914
1268.558, 158.4917
1269.041, 159.5487
1269.523, 160.5188
1270.005, 161.0847
1270.487, 161.1628
1270.969, 160.3498
1271.451, 158.9057
1271.933, 158.2039
1272.415, 158.2419
1272.897, 158.5381
1273.380, 159.0476
1273.862, 159.3648
1274.344, 158.9125
1274.826, 158.4510
1275.308, 158.5433
1275.790, 158.9720
1276.272, 158.9748
1276.754, 158.6382
1277.237, 158.4929
1277.719, 158.6948
1278.201, 158.6489
1278.683, 157.5968
1279.165, 156.7866
1279.647, 156.7803
1280.129, 157.2258
1280.611, 157.4585
1281.094, 157.5038
1281.576, 157.3170
1282.058, 156.8678
1282.540, 156.8565
1283.022, 157.9287
1283.504, 158.7418
1283.986, 158.9864
1284.468, 158.7500
1284.950, 157.7357
1285.432, 156.5437
1285.915, 156.2814
1286.397, 157.0439
1286.879, 157.6008
1287.361, 157.7718
1287.843, 157.9424
1288.325, 158.2006
1288.807, 158.4621
1289.289, 158.6861
1289.772, 158.8198
1290.254, 158.6916
1290.736, 158.3859
1291.218, 158.5293
1291.700, 159.2094
1292.182, 159.4087
1292.664, 158.9128
1293.146, 158.3777
1293.629, 158.3102
1294.111, 158.4465
1294.593, 158.7962
1295.075, 159.1341
1295.557, 158.7855
1296.039, 157.8682
1296.521, 157.8228
1297.003, 158.8196
1297.485, 159.7516
1297.968, 159.9168
1298.450, 159.8616
1298.932, 159.8088
1299.414, 159.6715
1299.896, 159.1667
1300.378, 158.4901
1300.860, 158.2160
1301.342, 158.3739
1301.824, 158.7395
1302.307, 159.1345
##END=



