##NAMES=Bavenite
##RRUFFID=R060065
##IDEAL CHEMISTRY=Ca_4_Be_2+x_Al_2-x_Si_9_O_26-x_(OH)_2+x_ (x = 0 to 1)
##LOCALITY=Tittling, Bavarian Forest, Bavaria, Germany
##OWNER=RRUFF
##SOURCE=University of Arizona Mineral Museum
##DESCRIPTION=White radial aggregate of bladed crystals
##STATUS=The identification of this mineral is confirmed by single-crystal X-ray diffraction and chemical analysis.
##URL=rruff.info/R060065
##MEASURED CHEMISTRY=Ca_4.00_Be_2.00_Al_2.00_Si_9.00_O_26_(OH)_2_ ; Be not measured but assumed by stoichiometry
93.88477, 34.14748
94.36688, 32.74198
94.84900, 32.68687
95.33112, 34.04967
95.81323, 37.14997
96.29535, 43.22484
96.77747, 51.42332
97.25958, 58.57236
97.74170, 64.45799
98.22382, 69.33980
98.70593, 73.15698
99.18805, 75.81751
99.67017, 78.89183
100.1523, 83.43618
100.6344, 89.45875
101.1165, 96.05660
101.5986, 103.0487
102.0807, 110.5273
102.5629, 118.7611
103.0450, 128.1602
103.5271, 137.5810
104.0092, 145.8301
104.4913, 152.6052
104.9734, 159.2959
105.4556, 166.3650
105.9377, 173.7929
106.4198, 180.7459
106.9019, 187.2417
107.3840, 193.2025
107.8661, 198.3786
108.3483, 202.3288
108.8304, 206.1237
109.3125, 209.9795
109.7946, 213.8363
110.2767, 218.0046
110.7588, 222.5272
111.2410, 227.3801
111.7231, 232.5416
112.2052, 238.5988
112.6873, 244.5428
113.1694, 249.9906
113.6515, 254.3452
114.1337, 259.2127
114.6158, 265.2846
115.0979, 272.0918
115.5800, 278.3538
116.0621, 283.4349
116.5442, 288.0465
117.0264, 292.5327
117.5085, 296.8363
117.9906, 301.2814
118.4727, 306.0955
118.9548, 311.2168
119.4369, 316.2138
119.9191, 320.9664
120.4012, 325.5410
120.8833, 329.9670
121.3654, 333.2828
121.8475, 337.2115
122.3296, 343.3495
122.8118, 351.7391
123.2939, 359.9854
123.7760, 365.8827
124.2581, 370.5776
124.7402, 376.0686
125.2223, 383.0141
125.7045, 391.2245
126.1866, 400.6075
126.6687, 411.2282
127.1508, 422.5923
127.6329, 434.3809
128.1150, 446.4865
128.5972, 458.9916
129.0793, 472.3300
129.5614, 485.9550
130.0435, 498.5981
130.5256, 510.0355
131.0077, 520.6692
131.4899, 530.8856
131.9720, 540.7092
132.4541, 550.2755
132.9362, 557.6492
133.4183, 562.3459
133.9004, 566.9607
134.3826, 571.4026
134.8647, 575.9099
135.3468, 581.0745
135.8289, 586.9865
136.3110, 592.9940
136.7931, 598.3168
137.2753, 602.8837
137.7574, 608.3304
138.2395, 615.1202
138.7216, 623.0082
139.2037, 630.9984
139.6858, 638.9408
140.1680, 647.3431
140.6501, 656.4465
141.1322, 665.8781
141.6143, 677.5645
142.0964, 692.0336
142.5785, 709.3405
143.0607, 728.9057
143.5428, 751.0929
144.0249, 775.2257
144.5070, 801.6741
144.9891, 833.0198
145.4712, 861.5244
145.9534, 885.9118
146.4355, 908.7480
146.9176, 918.9479
147.3997, 914.6514
147.8818, 898.9604
148.3639, 876.4261
148.8461, 842.8748
149.3282, 807.4759
149.8103, 773.4295
150.2924, 739.7151
150.7745, 708.8788
151.2566, 681.3837
151.7388, 656.7147
152.2209, 634.3682
152.7030, 614.5536
153.1851, 596.7365
153.6672, 580.8021
154.1493, 566.8844
154.6315, 554.9167
155.1136, 545.2684
155.5957, 537.6191
156.0778, 530.6594
156.5599, 524.1851
157.0420, 518.3036
157.5242, 513.0312
158.0063, 508.3058
158.4884, 504.3399
158.9705, 501.1701
159.4526, 498.7856
159.9347, 497.0289
160.4169, 496.2829
160.8990, 495.9118
161.3811, 495.4558
161.8632, 494.5567
162.3453, 493.7755
162.8274, 493.5317
163.3096, 493.7563
163.7917, 493.5341
164.2738, 491.7255
164.7559, 489.5876
165.2380, 488.3598
165.7201, 489.3958
166.2023, 490.6872
166.6844, 491.1374
167.1665, 490.7157
167.6486, 490.2909
168.1307, 490.2996
168.6128, 490.5945
169.0949, 490.9822
169.5771, 491.3403
170.0592, 491.7971
170.5413, 492.5313
171.0234, 493.5810
171.5055, 494.5497
171.9876, 495.3975
172.4698, 495.9637
172.9519, 495.9601
173.4340, 494.8715
173.9161, 493.3328
174.3982, 491.9244
174.8803, 490.6661
175.3625, 489.6258
175.8446, 488.9664
176.3267, 488.5885
176.8088, 488.2597
177.2909, 487.6897
177.7730, 487.1447
178.2552, 487.0512
178.7373, 487.5139
179.2194, 488.1614
179.7015, 488.6040
180.1836, 488.8944
180.6657, 489.2295
181.1479, 489.8927
181.6300, 490.6633
182.1121, 491.1061
182.5942, 491.1718
183.0763, 490.8911
183.5584, 490.1070
184.0406, 488.8948
184.5227, 487.7916
185.0048, 487.2325
185.4869, 487.0528
185.9690, 486.7853
186.4511, 486.4072
186.9333, 485.8442
187.4154, 484.8647
187.8975, 483.4838
188.3796, 482.1152
188.8617, 480.8083
189.3438, 479.6720
189.8260, 479.2870
190.3081, 479.9344
190.7902, 481.1366
191.2723, 481.9210
191.7544, 482.2831
192.2365, 482.5059
192.7187, 482.6531
193.2008, 482.7693
193.6829, 483.2610
194.1650, 484.1991
194.6471, 485.5747
195.1292, 487.5928
195.6114, 490.3500
196.0935, 492.8736
196.5756, 493.9772
197.0577, 493.6876
197.5398, 494.2013
198.0219, 496.2340
198.5041, 499.2345
198.9862, 500.9768
199.4683, 501.2930
199.9504, 501.1719
200.4325, 501.4002
200.9146, 501.9847
201.3968, 502.6588
201.8789, 503.4503
202.3610, 504.2791
202.8431, 504.7906
203.3252, 505.0064
203.8073, 504.8531
204.2895, 504.0477
204.7716, 502.4436
205.2537, 501.3389
205.7358, 501.0252
206.2179, 501.4504
206.7000, 502.2493
207.1822, 503.4629
207.6643, 504.9599
208.1464, 506.7379
208.6285, 508.9280
209.1106, 510.7569
209.5927, 511.8228
210.0749, 512.2546
210.5570, 513.7256
211.0391, 516.5341
211.5212, 519.7734
212.0033, 522.5250
212.4854, 524.5515
212.9676, 526.9211
213.4497, 529.9786
213.9318, 533.6918
214.4139, 537.1292
214.8960, 540.4885
215.3781, 543.2999
215.8603, 545.0413
216.3424, 545.4111
216.8245, 545.5566
217.3066, 545.7499
217.7887, 545.9869
218.2708, 545.8201
218.7529, 545.2302
219.2351, 544.2639
219.7172, 542.9116
220.1993, 540.9393
220.6814, 539.1492
221.1635, 537.7511
221.6456, 536.7374
222.1278, 535.7640
222.6099, 534.7323
223.0920, 533.8400
223.5741, 533.3154
224.0562, 533.2153
224.5383, 533.3198
225.0205, 533.5422
225.5026, 533.8726
225.9847, 534.7161
226.4668, 536.4509
226.9489, 538.2842
227.4310, 539.2743
227.9132, 538.9334
228.3953, 538.8123
228.8774, 539.1872
229.3595, 540.0684
229.8416, 541.3461
230.3237, 543.1573
230.8059, 545.2505
231.2880, 547.4173
231.7701, 549.7573
232.2522, 552.0455
232.7343, 554.6791
233.2164, 557.7679
233.6986, 558.3046
234.1807, 555.1052
234.6628, 550.5603
235.1449, 546.9354
235.6270, 544.2953
236.1091, 542.5357
236.5913, 541.8729
237.0734, 542.3399
237.5555, 542.3945
238.0376, 541.7246
238.5197, 540.9547
239.0018, 540.7059
239.4840, 541.2580
239.9661, 541.8003
240.4482, 542.1857
240.9303, 542.4166
241.4124, 542.7153
241.8945, 543.0502
242.3767, 543.4919
242.8588, 544.1885
243.3409, 545.6193
243.8230, 546.3479
244.3051, 545.7899
244.7872, 544.0076
245.2694, 543.3851
245.7515, 544.6416
246.2336, 546.2517
246.7157, 546.9279
247.1978, 546.1823
247.6799, 545.4762
248.1621, 545.0071
248.6442, 544.7662
249.1263, 544.7001
249.6084, 545.1031
250.0905, 545.3315
250.5726, 544.7859
251.0548, 542.8915
251.5369, 541.4759
252.0190, 540.9492
252.5011, 541.1866
252.9832, 541.1077
253.4653, 540.5602
253.9475, 539.8978
254.4296, 539.3331
254.9117, 538.7890
255.3938, 538.5067
255.8759, 538.5945
256.3580, 538.9694
256.8401, 539.1422
257.3223, 538.9398
257.8044, 538.7870
258.2865, 539.1023
258.7686, 540.3822
259.2507, 540.7295
259.7328, 539.4583
260.2150, 537.1556
260.6971, 536.2817
261.1792, 537.3906
261.6613, 538.9672
262.1434, 540.2165
262.6255, 541.1851
263.1077, 541.6852
263.5898, 541.6888
264.0719, 541.2282
264.5540, 540.2339
265.0361, 538.2899
265.5182, 536.6810
266.0004, 536.2333
266.4825, 537.3616
266.9646, 538.0538
267.4467, 538.1059
267.9288, 537.7154
268.4109, 537.3434
268.8931, 536.8996
269.3752, 536.6596
269.8573, 536.7782
270.3394, 537.3075
270.8215, 537.9650
271.3036, 538.8686
271.7858, 539.7776
272.2679, 540.0483
272.7500, 539.4768
273.2321, 539.0299
273.7142, 539.1629
274.1964, 539.9323
274.6785, 540.8821
275.1606, 542.1176
275.6427, 543.4003
276.1248, 544.2044
276.6069, 544.3863
277.0891, 544.8540
277.5712, 546.1011
278.0533, 548.1412
278.5354, 549.8793
279.0175, 551.2906
279.4996, 552.4454
279.9818, 553.5517
280.4639, 554.6639
280.9460, 555.0802
281.4281, 554.3258
281.9102, 552.5300
282.3923, 551.0616
282.8745, 549.9512
283.3566, 549.0562
283.8387, 548.4330
284.3208, 548.0978
284.8029, 547.1262
285.2850, 544.8394
285.7672, 541.7072
286.2493, 540.0717
286.7314, 540.1442
287.2135, 540.4811
287.6956, 539.4271
288.1777, 537.0995
288.6599, 535.3280
289.1420, 534.7054
289.6241, 534.8452
290.1062, 534.6099
290.5883, 533.9681
291.0704, 533.4210
291.5526, 533.6658
292.0347, 534.4914
292.5168, 534.5917
292.9989, 533.3833
293.4810, 531.6945
293.9631, 531.2318
294.4453, 531.9408
294.9274, 532.7953
295.4095, 533.1564
295.8916, 533.0679
296.3737, 532.5855
296.8558, 531.5806
297.3380, 530.4641
297.8201, 529.8403
298.3022, 529.6561
298.7843, 529.5876
299.2664, 529.5413
299.7485, 529.4626
300.2307, 529.2298
300.7128, 528.8249
301.1949, 528.3253
301.6770, 527.8038
302.1591, 527.2642
302.6412, 526.7049
303.1234, 526.0120
303.6055, 525.3495
304.0876, 524.8434
304.5697, 524.4794
305.0518, 524.5603
305.5339, 525.8478
306.0161, 527.7936
306.4982, 529.2282
306.9803, 529.2993
307.4624, 528.7830
307.9445, 528.2673
308.4266, 527.7610
308.9088, 527.6512
309.3909, 528.4868
309.8730, 529.8292
310.3551, 531.0490
310.8372, 532.1741
311.3193, 532.9044
311.8015, 532.7379
312.2836, 531.7872
312.7657, 531.0710
313.2478, 531.2343
313.7299, 531.8958
314.2120, 532.7066
314.6942, 533.7499
315.1763, 534.7024
315.6584, 535.3990
316.1405, 535.8715
316.6226, 536.1968
317.1047, 536.0206
317.5869, 535.9540
318.0690, 536.4781
318.5511, 538.0137
319.0332, 539.5339
319.5153, 540.5543
319.9974, 541.2731
320.4796, 542.1282
320.9617, 543.7618
321.4438, 545.1724
321.9259, 545.7667
322.4080, 545.1530
322.8901, 544.7003
323.3723, 544.4601
323.8544, 544.6233
324.3365, 545.4661
324.8186, 548.2263
325.3007, 550.5680
325.7828, 551.5754
326.2650, 550.9193
326.7471, 550.6817
327.2292, 551.3733
327.7113, 552.4401
328.1934, 553.3569
328.6755, 553.2948
329.1577, 553.9493
329.6398, 555.9249
330.1219, 559.2159
330.6040, 561.7956
331.0861, 563.3909
331.5682, 564.4694
332.0504, 565.2808
332.5325, 565.2985
333.0146, 565.8542
333.4967, 567.1910
333.9788, 569.1628
334.4609, 571.0519
334.9431, 572.7029
335.4252, 574.5120
335.9073, 576.7978
336.3894, 580.1133
336.8715, 582.3940
337.3536, 583.1127
337.8358, 583.1371
338.3179, 584.3744
338.8000, 587.1348
339.2821, 590.2672
339.7642, 593.4021
340.2463, 596.5236
340.7285, 599.5400
341.2105, 602.2002
341.6927, 605.1259
342.1748, 609.2580
342.6569, 614.7634
343.1390, 620.2045
343.6211, 625.0641
344.1032, 629.4551
344.5854, 633.8808
345.0675, 638.2937
345.5496, 642.6017
346.0317, 647.0308
346.5138, 651.4816
346.9959, 654.4532
347.4781, 655.5435
347.9602, 655.0668
348.4423, 653.7911
348.9244, 651.7087
349.4065, 648.4592
349.8886, 643.5056
350.3708, 637.1671
350.8529, 630.2445
351.3350, 622.6084
351.8171, 615.2100
352.2992, 609.7461
352.7813, 605.8419
353.2635, 601.8705
353.7456, 596.3482
354.2277, 590.4377
354.7098, 585.7768
355.1919, 582.5152
355.6740, 580.0358
356.1562, 578.1549
356.6383, 576.6808
357.1204, 575.2448
357.6025, 573.4376
358.0846, 571.7772
358.5667, 570.7459
359.0489, 570.2960
359.5310, 569.9897
360.0131, 569.7165
360.4952, 569.3896
360.9773, 568.8972
361.4594, 567.8057
361.9416, 567.0563
362.4237, 567.3868
362.9058, 568.4728
363.3879, 569.2824
363.8700, 569.3000
364.3521, 569.0383
364.8343, 568.7601
365.3164, 568.4396
365.7985, 568.2676
366.2806, 568.4053
366.7627, 568.7048
367.2448, 568.9250
367.7270, 568.8869
368.2091, 568.9105
368.6912, 569.0795
369.1733, 569.4000
369.6554, 569.8676
370.1375, 570.6373
370.6197, 571.4680
371.1018, 572.1799
371.5839, 573.0218
372.0660, 573.3733
372.5481, 572.9594
373.0302, 571.8945
373.5124, 571.0253
373.9945, 570.2158
374.4766, 569.7614
374.9587, 569.9528
375.4408, 571.2119
375.9229, 571.8344
376.4051, 571.4832
376.8872, 570.6608
377.3693, 570.4058
377.8514, 570.7273
378.3335, 571.6173
378.8156, 573.3663
379.2978, 576.0202
379.7799, 577.7901
380.2620, 578.5975
380.7441, 578.8183
381.2262, 578.5462
381.7083, 577.8199
382.1905, 577.9787
382.6726, 579.8801
383.1547, 582.7139
383.6368, 583.8967
384.1189, 583.4093
384.6010, 582.9139
385.0832, 584.0303
385.5653, 586.2019
386.0474, 587.8563
386.5295, 588.5540
387.0116, 588.9359
387.4937, 589.7015
387.9759, 590.8227
388.4580, 592.2014
388.9401, 593.7406
389.4222, 595.5316
389.9043, 597.7791
390.3864, 600.5635
390.8686, 603.3662
391.3507, 605.7524
391.8328, 607.9417
392.3149, 610.2223
392.7970, 613.1225
393.2791, 615.7708
393.7613, 617.5178
394.2434, 618.4782
394.7255, 619.4212
395.2076, 620.8775
395.6897, 622.3207
396.1718, 623.3190
396.6540, 623.2457
397.1361, 623.5618
397.6182, 624.9154
398.1003, 626.8995
398.5824, 628.5920
399.0645, 630.0640
399.5467, 631.0175
400.0288, 631.1512
400.5109, 630.0070
400.9930, 629.5822
401.4751, 630.6630
401.9572, 632.0079
402.4394, 632.3420
402.9215, 631.1692
403.4036, 629.7966
403.8857, 628.3122
404.3678, 626.7581
404.8499, 625.6123
405.3321, 625.1589
405.8142, 624.5905
406.2963, 623.3802
406.7784, 621.4372
407.2605, 619.3442
407.7426, 617.1257
408.2248, 614.7819
408.7069, 612.2499
409.1890, 609.5523
409.6711, 606.8527
410.1532, 604.1161
410.6353, 601.4034
411.1175, 599.0654
411.5996, 597.1154
412.0817, 595.5330
412.5638, 594.4169
413.0459, 593.6952
413.5280, 593.0798
414.0102, 592.6666
414.4923, 592.1133
414.9744, 590.7294
415.4565, 588.6594
415.9386, 586.6959
416.4207, 585.2359
416.9029, 584.2044
417.3850, 583.5178
417.8671, 583.1765
418.3492, 583.1202
418.8313, 583.4951
419.3134, 584.0930
419.7956, 584.5851
420.2777, 584.4425
420.7598, 584.4928
421.2419, 585.3338
421.7240, 586.9255
422.2061, 588.3487
422.6883, 589.0108
423.1704, 589.5531
423.6525, 590.4488
424.1346, 592.2236
424.6167, 593.7383
425.0988, 594.6238
425.5810, 595.1055
426.0631, 595.7607
426.5452, 596.7264
427.0273, 597.7424
427.5094, 598.8322
427.9915, 600.1103
428.4737, 600.8000
428.9558, 600.1857
429.4379, 599.7333
429.9200, 601.1106
430.4021, 605.0098
430.8842, 608.6229
431.3664, 611.3226
431.8485, 613.4120
432.3306, 616.1552
432.8127, 619.6900
433.2948, 623.2451
433.7769, 626.2292
434.2591, 628.6932
434.7412, 631.5135
435.2233, 634.7931
435.7054, 638.1921
436.1875, 641.1223
436.6696, 643.7115
437.1518, 646.7380
437.6339, 650.9104
438.1160, 655.4828
438.5981, 658.8907
439.0802, 661.2588
439.5623, 664.0269
440.0444, 668.3975
440.5266, 673.7570
441.0087, 679.3825
441.4908, 685.1419
441.9729, 691.1228
442.4550, 696.9213
442.9371, 703.0186
443.4193, 710.3834
443.9014, 721.0634
444.3835, 731.6977
444.8656, 740.2787
445.3477, 746.6595
445.8298, 752.8223
446.3120, 759.6036
446.7941, 766.2366
447.2762, 772.0491
447.7583, 778.8241
448.2404, 782.6133
448.7225, 782.7370
449.2047, 779.5970
449.6868, 774.2609
450.1689, 766.4577
450.6510, 756.7199
451.1331, 744.9853
451.6152, 730.7988
452.0974, 717.0125
452.5795, 703.4200
453.0616, 690.4932
453.5437, 678.1616
454.0258, 666.4041
454.5079, 656.1599
454.9901, 647.7658
455.4722, 640.9193
455.9543, 634.5865
456.4364, 628.7921
456.9185, 623.5508
457.4006, 618.5311
457.8828, 614.0289
458.3649, 611.1426
458.8470, 610.1379
459.3291, 609.6022
459.8112, 607.9683
460.2933, 605.6624
460.7755, 603.6629
461.2576, 602.5463
461.7397, 601.6838
462.2218, 600.4332
462.7039, 598.8906
463.1860, 597.5373
463.6682, 596.4887
464.1503, 595.8161
464.6324, 595.6913
465.1145, 596.3605
465.5966, 596.8442
466.0787, 596.6717
466.5609, 596.1658
467.0430, 595.7421
467.5251, 594.8920
468.0072, 594.7414
468.4893, 596.0431
468.9714, 598.6614
469.4536, 600.2219
469.9357, 599.7838
470.4178, 599.2819
470.8999, 599.7858
471.3820, 601.7688
471.8641, 603.5363
472.3463, 605.0762
472.8284, 606.3953
473.3105, 607.5267
473.7926, 608.4484
474.2747, 609.2645
474.7568, 609.9836
475.2390, 610.6221
475.7211, 610.9954
476.2032, 611.0424
476.6853, 611.7747
477.1674, 614.5244
477.6495, 618.6102
478.1317, 621.9260
478.6138, 624.0858
479.0959, 625.8597
479.5780, 627.7578
480.0601, 629.9283
480.5422, 632.6775
481.0244, 637.0193
481.5065, 641.3746
481.9886, 644.0528
482.4707, 645.3121
482.9528, 647.1992
483.4349, 651.1974
483.9171, 655.9374
484.3992, 660.3779
484.8813, 664.2242
485.3634, 668.1151
485.8455, 671.8695
486.3276, 675.8030
486.8098, 680.3677
487.2919, 686.2797
487.7740, 692.1241
488.2561, 697.4637
488.7382, 702.3770
489.2203, 707.5167
489.7025, 712.7234
490.1846, 718.3015
490.6667, 724.6563
491.1488, 732.0292
491.6309, 738.5583
492.1130, 744.0652
492.5952, 748.9409
493.0773, 754.0137
493.5594, 759.3019
494.0415, 764.1172
494.5236, 768.0530
495.0057, 771.5159
495.4879, 775.7098
495.9700, 780.5632
496.4521, 785.2743
496.9342, 789.0564
497.4163, 792.4120
497.8984, 796.0910
498.3806, 800.3159
498.8627, 804.4305
499.3448, 807.9615
499.8269, 811.0999
500.3090, 814.1560
500.7911, 817.4890
501.2733, 820.5089
501.7554, 823.2241
502.2375, 825.5109
502.7196, 826.8115
503.2017, 826.8356
503.6838, 825.9745
504.1660, 824.4448
504.6481, 822.3561
505.1302, 819.2697
505.6123, 815.1892
506.0944, 810.1013
506.5765, 803.9052
507.0587, 796.1282
507.5408, 788.5499
508.0229, 781.5745
508.5050, 774.9360
508.9871, 767.1707
509.4692, 758.1132
509.9514, 749.1199
510.4335, 741.0150
510.9156, 733.6096
511.3977, 726.2079
511.8798, 718.7519
512.3619, 711.4992
512.8441, 704.5028
513.3262, 697.8329
513.8083, 691.6387
514.2904, 685.9344
514.7725, 680.7566
515.2546, 676.3369
515.7368, 672.5012
516.2189, 668.6929
516.7010, 663.8914
517.1831, 659.6461
517.6652, 657.3297
518.1473, 657.1027
518.6295, 656.1400
519.1116, 652.5076
519.5937, 648.5418
520.0758, 645.9423
520.5579, 645.9520
521.0400, 645.8923
521.5222, 645.8467
522.0043, 645.7094
522.4864, 645.1904
522.9685, 643.9244
523.4506, 643.1557
523.9327, 643.3591
524.4149, 644.4034
524.8970, 645.2463
525.3791, 645.8087
525.8612, 646.6302
526.3433, 648.1498
526.8254, 650.2966
527.3076, 652.8099
527.7897, 655.7458
528.2718, 658.5746
528.7539, 660.4676
529.2360, 661.7758
529.7181, 663.4143
530.2003, 666.0531
530.6824, 668.7924
531.1645, 670.7791
531.6466, 672.1699
532.1287, 673.6893
532.6108, 675.7213
533.0930, 677.9428
533.5751, 680.2750
534.0572, 682.7588
534.5393, 684.9952
535.0214, 686.8702
535.5035, 688.4847
535.9857, 689.9103
536.4678, 691.6500
536.9499, 692.4456
537.4320, 691.9453
537.9141, 690.5651
538.3962, 689.3712
538.8784, 688.5447
539.3605, 687.2515
539.8426, 685.1160
540.3247, 682.2266
540.8068, 679.4322
541.2889, 676.7747
541.7711, 673.8619
542.2532, 670.1693
542.7353, 665.9850
543.2174, 662.1865
543.6995, 658.9351
544.1816, 655.8785
544.6638, 652.8745
545.1459, 649.7796
545.6280, 646.3854
546.1101, 641.9203
546.5922, 637.7502
547.0743, 634.8256
547.5565, 632.8995
548.0386, 631.0479
548.5207, 628.7692
549.0028, 626.6473
549.4849, 625.0139
549.9670, 624.0405
550.4492, 622.9156
550.9313, 621.4358
551.4134, 619.9610
551.8955, 618.7627
552.3776, 617.9571
552.8597, 617.1459
553.3419, 616.2958
553.8240, 615.4389
554.3061, 614.6039
554.7882, 613.7880
555.2703, 613.1245
555.7524, 612.7365
556.2346, 612.5240
556.7167, 612.2768
557.1988, 611.9908
557.6809, 611.6024
558.1630, 610.8645
558.6451, 610.0649
559.1273, 609.5886
559.6094, 609.4700
560.0915, 609.6964
560.5736, 610.6573
561.0557, 611.7985
561.5378, 612.4805
562.0200, 612.1093
562.5021, 611.7043
562.9842, 611.5321
563.4663, 611.5195
563.9484, 611.4417
564.4305, 611.1927
564.9127, 610.9904
565.3948, 610.8417
565.8769, 610.7464
566.3590, 611.0932
566.8411, 612.1683
567.3232, 613.0557
567.8054, 612.9843
568.2875, 611.9603
568.7696, 611.1003
569.2517, 610.4612
569.7338, 610.0744
570.2159, 610.0420
570.6981, 610.3028
571.1802, 610.6719
571.6623, 611.2547
572.1444, 611.7151
572.6265, 611.5380
573.1086, 610.9169
573.5908, 610.4594
574.0729, 610.6818
574.5550, 610.9741
575.0371, 610.9013
575.5192, 610.4166
576.0013, 610.0976
576.4835, 610.3592
576.9656, 610.6239
577.4477, 610.4940
577.9298, 609.6014
578.4119, 609.0164
578.8940, 608.8936
579.3762, 608.9411
579.8583, 608.6824
580.3404, 607.9900
580.8225, 607.6820
581.3046, 608.1165
581.7867, 608.8835
582.2689, 608.7897
582.7510, 607.8846
583.2331, 607.0359
583.7152, 606.7803
584.1973, 606.8612
584.6794, 606.8173
585.1616, 606.6517
585.6437, 606.6641
586.1258, 607.6327
586.6079, 608.5720
587.0900, 608.3439
587.5721, 606.0771
588.0542, 604.4554
588.5363, 604.8250
589.0184, 606.1789
589.5005, 607.2618
589.9827, 608.4816
590.4648, 608.6833
590.9469, 607.2130
591.4290, 604.6956
591.9111, 603.1607
592.3932, 602.7574
592.8754, 602.9334
593.3575, 603.7527
593.8396, 605.0536
594.3217, 605.2888
594.8038, 604.3674
595.2859, 603.6617
595.7681, 604.6839
596.2502, 606.6928
596.7323, 608.0221
597.2144, 608.4432
597.6965, 608.3553
598.1786, 607.7529
598.6608, 606.9645
599.1429, 606.4349
599.6250, 606.5110
600.1071, 606.6116
600.5892, 606.4638
601.0714, 606.1775
601.5535, 606.0102
602.0356, 605.9736
602.5177, 606.0878
602.9998, 606.4336
603.4819, 606.9842
603.9641, 607.2775
604.4462, 607.1989
604.9283, 607.1278
605.4104, 607.3642
605.8925, 607.9083
606.3746, 608.0717
606.8568, 607.7884
607.3389, 607.5205
607.8210, 607.9763
608.3031, 608.8266
608.7852, 609.1329
609.2673, 608.5490
609.7495, 607.7803
610.2316, 607.4941
610.7137, 607.4777
611.1958, 607.3483
611.6779, 606.4397
612.1600, 605.9176
612.6422, 606.5813
613.1243, 608.1462
613.6064, 609.1680
614.0885, 608.9472
614.5706, 608.6879
615.0527, 608.7575
615.5349, 609.1680
616.0170, 609.6680
616.4991, 610.3232
616.9812, 610.9095
617.4633, 611.2396
617.9454, 611.3222
618.4276, 611.2650
618.9097, 611.0125
619.3918, 610.9148
619.8739, 611.4881
620.3560, 612.5316
620.8381, 613.5983
621.3203, 614.6979
621.8024, 615.5286
622.2845, 615.5006
622.7666, 615.0629
623.2487, 615.1698
623.7308, 617.1738
624.2130, 618.7828
624.6951, 618.8698
625.1772, 617.5536
625.6593, 616.7391
626.1414, 616.4714
626.6235, 616.7070
627.1057, 617.5750
627.5878, 619.1632
628.0699, 620.4544
628.5520, 621.5156
629.0341, 622.0821
629.5162, 621.5880
629.9984, 620.2805
630.4805, 619.4379
630.9626, 619.2069
631.4447, 619.5172
631.9268, 620.6897
632.4089, 622.2858
632.8911, 623.5026
633.3732, 623.9904
633.8553, 624.1100
634.3374, 623.6854
634.8195, 623.0499
635.3016, 622.9450
635.7838, 624.3162
636.2659, 625.4398
636.7480, 625.5972
637.2301, 624.9459
637.7122, 624.8895
638.1943, 625.7267
638.6765, 626.5731
639.1586, 626.9619
639.6407, 626.9055
640.1228, 627.0611
640.6049, 627.4442
641.0870, 627.9498
641.5692, 628.5281
642.0513, 629.1487
642.5334, 629.7113
643.0155, 630.1678
643.4976, 630.7200
643.9797, 631.6565
644.4619, 632.7466
644.9440, 633.6897
645.4261, 633.9808
645.9082, 634.5933
646.3903, 636.0616
646.8724, 638.0225
647.3546, 639.6783
647.8367, 640.9983
648.3188, 641.9945
648.8009, 642.4685
649.2830, 642.6147
649.7651, 643.5138
650.2473, 645.3181
650.7294, 647.1183
651.2115, 648.5050
651.6936, 649.5266
652.1757, 650.3075
652.6578, 650.8644
653.1400, 651.4750
653.6221, 652.3391
654.1042, 653.3998
654.5863, 654.5855
655.0684, 655.8856
655.5505, 657.2852
656.0327, 658.8840
656.5148, 660.5177
656.9969, 662.0130
657.4790, 663.1416
657.9611, 664.4454
658.4432, 666.0784
658.9254, 667.8064
659.4075, 669.2629
659.8896, 670.3535
660.3717, 671.5134
660.8538, 672.8312
661.3359, 674.2635
661.8181, 675.5003
662.3002, 676.6215
662.7823, 678.4221
663.2644, 681.6459
663.7465, 685.5302
664.2286, 689.2841
664.7108, 692.8165
665.1929, 695.8541
665.6750, 697.4102
666.1571, 699.0764
666.6392, 702.1213
667.1213, 706.7974
667.6035, 710.8425
668.0856, 713.1484
668.5677, 715.3464
669.0498, 718.3715
669.5319, 722.6136
670.0140, 726.3596
670.4962, 729.6055
670.9783, 732.4445
671.4604, 734.9855
671.9425, 737.2254
672.4246, 739.0838
672.9067, 740.5056
673.3889, 741.5868
673.8710, 742.5459
674.3531, 743.2167
674.8352, 743.2661
675.3173, 742.6525
675.7994, 741.2750
676.2816, 738.6716
676.7637, 735.2833
677.2458, 732.0748
677.7279, 729.3344
678.2100, 726.6779
678.6921, 723.9660
679.1743, 721.2275
679.6564, 718.8377
680.1385, 717.0546
680.6206, 714.7783
681.1027, 711.3431
681.5848, 706.9848
682.0670, 702.4913
682.5491, 697.8578
683.0312, 693.8290
683.5133, 691.7118
683.9954, 690.1682
684.4775, 686.9297
684.9597, 681.7303
685.4418, 676.8267
685.9239, 673.6808
686.4060, 671.2921
686.8881, 668.8150
687.3702, 665.9355
687.8524, 663.3847
688.3345, 661.2520
688.8166, 659.4071
689.2987, 657.7536
689.7808, 656.3776
690.2629, 654.7863
690.7451, 652.7451
691.2272, 650.7911
691.7093, 649.7972
692.1914, 649.6785
692.6735, 650.0805
693.1556, 651.4871
693.6378, 652.4694
694.1199, 650.8639
694.6020, 647.6024
695.0841, 644.9111
695.5662, 644.2219
696.0483, 643.8456
696.5305, 643.1210
697.0126, 642.1025
697.4947, 641.2149
697.9768, 640.4517
698.4589, 639.8610
698.9410, 639.4636
699.4232, 639.2568
699.9053, 639.1960
700.3874, 639.2760
700.8695, 639.5499
701.3516, 640.3802
701.8337, 641.3983
702.3159, 641.3768
702.7980, 640.2891
703.2801, 639.3391
703.7622, 639.7822
704.2443, 640.5693
704.7264, 640.5721
705.2086, 639.3726
705.6907, 638.5096
706.1728, 638.3232
706.6549, 638.7303
707.1370, 639.7198
707.6191, 641.8927
708.1013, 643.1678
708.5834, 643.2158
709.0655, 642.7968
709.5476, 642.9024
710.0297, 643.4974
710.5118, 644.0598
710.9940, 644.5150
711.4761, 644.8223
711.9582, 644.6569
712.4403, 644.3314
712.9224, 644.5156
713.4045, 645.9064
713.8867, 647.3609
714.3688, 648.3588
714.8509, 648.9899
715.3330, 649.4991
715.8151, 649.7567
716.2972, 650.1213
716.7794, 650.7116
717.2615, 651.4600
717.7436, 652.0885
718.2257, 652.5515
718.7078, 653.1445
719.1899, 654.1089
719.6721, 655.2297
720.1542, 655.8724
720.6363, 656.0759
721.1184, 656.2297
721.6005, 656.6725
722.0826, 657.1039
722.5648, 657.0964
723.0469, 656.6763
723.5290, 656.5501
724.0111, 656.9040
724.4932, 657.6817
724.9753, 659.0802
725.4575, 661.3033
725.9396, 662.5715
726.4217, 662.5305
726.9038, 662.2370
727.3859, 662.5594
727.8680, 663.4375
728.3502, 663.7635
728.8323, 663.4488
729.3144, 663.0422
729.7965, 663.1077
730.2786, 663.4109
730.7607, 663.6065
731.2429, 663.6317
731.7250, 663.5301
732.2071, 663.3187
732.6892, 662.9833
733.1713, 662.5140
733.6534, 662.2795
734.1356, 661.2396
734.6177, 658.7303
735.0998, 656.0455
735.5819, 655.1185
736.0640, 656.1525
736.5461, 656.5683
737.0283, 655.7653
737.5104, 654.6124
737.9925, 654.6337
738.4746, 655.3745
738.9567, 655.6053
739.4388, 654.5157
739.9210, 653.3559
740.4031, 653.0549
740.8852, 653.2740
741.3673, 653.3659
741.8494, 652.7130
742.3315, 652.4933
742.8137, 653.1611
743.2958, 654.3381
743.7779, 654.9298
744.2600, 654.7647
744.7421, 654.7983
745.2242, 655.4104
745.7064, 656.3801
746.1885, 656.9863
746.6706, 657.3577
747.1527, 658.1137
747.6348, 660.2715
748.1169, 662.4289
748.5991, 663.1207
749.0812, 662.6581
749.5633, 662.5527
750.0454, 663.6328
750.5275, 664.8275
751.0096, 665.7728
751.4918, 666.4641
751.9739, 667.0332
752.4560, 667.4639
752.9381, 667.7714
753.4202, 667.9346
753.9023, 667.9661
754.3845, 668.0040
754.8666, 668.0361
755.3487, 667.9153
755.8308, 667.7589
756.3129, 667.2608
756.7950, 665.8514
757.2772, 663.5268
757.7593, 661.5105
758.2414, 660.3576
758.7235, 659.5739
759.2056, 658.8621
759.6877, 658.1852
760.1699, 657.8854
760.6520, 658.1485
761.1341, 658.4384
761.6162, 658.6749
762.0983, 658.7371
762.5804, 657.0738
763.0626, 653.5050
763.5447, 650.1053
764.0268, 648.9528
764.5089, 648.9391
764.9910, 648.6337
765.4731, 647.7242
765.9553, 647.0970
766.4374, 647.2658
766.9195, 647.7374
767.4016, 648.1588
767.8837, 648.6591
768.3658, 648.6483
768.8480, 647.9121
769.3301, 647.0172
769.8122, 646.5486
770.2943, 646.4629
770.7764, 646.3439
771.2585, 646.1368
771.7407, 645.9310
772.2228, 645.9742
772.7049, 646.0228
773.1870, 645.6407
773.6691, 644.4422
774.1512, 643.5999
774.6334, 643.6667
775.1155, 644.2766
775.5976, 645.1016
776.0797, 646.6619
776.5618, 647.2286
777.0439, 646.3972
777.5261, 645.1219
778.0082, 644.6073
778.4903, 644.7947
778.9724, 645.2377
779.4545, 645.9719
779.9366, 646.5102
780.4188, 645.8036
780.9009, 644.6852
781.3830, 644.5391
781.8651, 646.6826
782.3472, 648.3144
782.8293, 648.0048
783.3115, 646.8992
783.7936, 646.6703
784.2757, 647.9678
784.7578, 648.4532
785.2399, 647.5527
785.7220, 646.2794
786.2041, 646.3483
786.6862, 647.5884
787.1683, 648.8715
787.6505, 649.9711
788.1326, 650.8639
788.6147, 651.5079
789.0968, 651.9481
789.5789, 652.2576
790.0610, 652.6670
790.5432, 652.6728
791.0253, 651.5800
791.5074, 650.2119
791.9895, 649.9510
792.4716, 651.2674
792.9537, 652.0739
793.4359, 651.7868
793.9180, 651.3229
794.4001, 652.9278
794.8822, 655.9794
795.3643, 657.5391
795.8464, 656.1572
796.3286, 654.1081
796.8107, 653.3229
797.2928, 653.2162
797.7749, 652.7894
798.2570, 651.3154
798.7391, 650.0540
799.2213, 649.1882
799.7034, 648.6483
800.1855, 648.3836
800.6676, 648.4514
801.1497, 648.3935
801.6318, 648.0220
802.1140, 647.6476
802.5961, 648.0049
803.0782, 648.8142
803.5603, 649.2370
804.0424, 648.7783
804.5245, 648.1552
805.0067, 647.5588
805.4888, 647.1764
805.9709, 647.3173
806.4530, 648.7639
806.9351, 649.8120
807.4172, 650.2488
807.8994, 650.2317
808.3815, 649.8666
808.8636, 649.1229
809.3457, 648.8752
809.8278, 649.4445
810.3099, 650.3201
810.7921, 650.8510
811.2742, 651.1247
811.7563, 651.3363
812.2384, 651.8226
812.7205, 651.8828
813.2026, 650.8512
813.6848, 649.3119
814.1669, 648.2120
814.6490, 647.4297
815.1311, 647.5316
815.6132, 649.0344
816.0953, 650.8450
816.5775, 650.8532
817.0596, 649.3200
817.5417, 648.2065
818.0238, 648.1716
818.5059, 648.3514
818.9880, 647.4641
819.4702, 646.3069
819.9523, 646.1102
820.4344, 648.7705
820.9165, 650.4268
821.3986, 649.1781
821.8807, 647.0946
822.3629, 646.9462
822.8450, 649.3837
823.3271, 650.6818
823.8092, 650.1019
824.2913, 648.8689
824.7734, 648.6103
825.2556, 649.1208
825.7377, 649.9477
826.2198, 651.1772
826.7019, 652.0450
827.1840, 651.6852
827.6661, 650.8219
828.1483, 650.2944
828.6304, 650.5923
829.1125, 650.7563
829.5946, 650.6161
830.0767, 650.5381
830.5588, 651.1455
831.0410, 652.4187
831.5231, 653.0202
832.0052, 652.6833
832.4873, 652.1746
832.9694, 652.4394
833.4515, 653.0475
833.9337, 653.3303
834.4158, 653.0309
834.8979, 652.7605
835.3800, 652.7478
835.8621, 652.8355
836.3442, 652.8338
836.8264, 652.5228
837.3085, 652.8210
837.7906, 653.9014
838.2727, 655.0420
838.7548, 655.4441
839.2369, 655.3083
839.7191, 655.3805
840.2012, 655.7643
840.6833, 655.9630
841.1654, 655.2663
841.6475, 654.4468
842.1296, 654.2048
842.6118, 654.7799
843.0939, 655.4588
843.5760, 656.5746
844.0581, 657.3035
844.5402, 656.8509
845.0223, 655.1810
845.5045, 654.6344
845.9866, 655.2615
846.4687, 656.0321
846.9508, 655.9091
847.4329, 655.5593
847.9150, 656.0743
848.3972, 657.4958
848.8793, 658.3742
849.3614, 657.5648
849.8435, 656.5886
850.3256, 656.1205
850.8077, 656.1565
851.2899, 656.8496
851.7720, 658.4471
852.2541, 659.6960
852.7362, 659.6484
853.2183, 658.7650
853.7004, 658.0586
854.1826, 657.5799
854.6647, 657.6360
855.1468, 659.1021
855.6289, 660.5455
856.1110, 660.9337
856.5931, 660.3806
857.0753, 660.1727
857.5574, 660.7014
858.0395, 660.9561
858.5216, 660.4007
859.0037, 659.4577
859.4858, 659.8587
859.9680, 661.4563
860.4501, 662.6540
860.9322, 662.3787
861.4143, 661.7355
861.8964, 661.7436
862.3785, 662.2473
862.8607, 662.8829
863.3428, 664.3082
863.8249, 664.8112
864.3070, 663.4244
864.7891, 661.3089
865.2712, 661.0468
865.7534, 662.8552
866.2355, 664.1553
866.7176, 664.3290
867.1997, 663.8605
867.6818, 663.0452
868.1639, 662.1732
868.6461, 661.8665
869.1282, 662.8278
869.6103, 663.4463
870.0924, 662.5268
870.5745, 661.2377
871.0566, 661.1388
871.5388, 663.0201
872.0209, 663.6475
872.5030, 662.5671
872.9851, 660.9591
873.4672, 659.9088
873.9493, 659.4529
874.4315, 659.9774
874.9136, 661.7213
875.3957, 662.9548
875.8778, 662.0644
876.3599, 660.4800
876.8420, 659.3076
877.3242, 658.5927
877.8063, 658.8217
878.2884, 660.5430
878.7705, 662.2098
879.2526, 662.4039
879.7347, 661.3959
880.2169, 661.7256
880.6990, 663.3701
881.1811, 664.7797
881.6632, 664.4562
882.1453, 663.6504
882.6274, 663.5311
883.1096, 664.1182
883.5917, 664.4761
884.0738, 664.2753
884.5559, 664.0105
885.0380, 663.8396
885.5201, 663.7377
886.0023, 663.5628
886.4844, 663.3190
886.9665, 663.0531
887.4486, 662.7589
887.9307, 662.4938
888.4128, 662.2616
888.8950, 662.1176
889.3771, 662.2020
889.8592, 662.7186
890.3413, 663.3038
890.8234, 664.0258
891.3055, 664.6896
891.7877, 664.8567
892.2698, 664.4828
892.7519, 664.0472
893.2340, 663.6427
893.7161, 663.2535
894.1982, 662.4717
894.6804, 661.7880
895.1625, 662.2360
895.6446, 664.8820
896.1267, 666.9029
896.6088, 666.6638
897.0909, 665.7178
897.5731, 665.5612
898.0552, 666.4637
898.5373, 667.2261
899.0194, 667.8619
899.5015, 668.2249
899.9836, 668.0052
900.4658, 667.4582
900.9479, 667.0455
901.4300, 666.8131
901.9121, 666.8924
902.3942, 667.5248
902.8763, 668.3478
903.3585, 669.2156
903.8406, 670.1218
904.3227, 670.7539
904.8048, 671.1441
905.2869, 671.1289
905.7690, 670.3685
906.2512, 669.2520
906.7333, 668.9362
907.2154, 669.2538
907.6975, 669.4527
908.1796, 668.7970
908.6617, 668.2484
909.1439, 668.3110
909.6260, 668.9180
910.1081, 669.7897
910.5902, 671.0749
911.0723, 672.2618
911.5544, 673.3459
912.0366, 674.1145
912.5187, 673.8426
913.0008, 672.8798
913.4829, 672.5176
913.9650, 673.3109
914.4471, 674.2218
914.9293, 674.6336
915.4114, 674.7474
915.8935, 674.7717
916.3756, 674.6223
916.8577, 674.6190
917.3398, 674.7805
917.8220, 675.0403
918.3041, 675.2390
918.7862, 675.4683
919.2683, 676.3639
919.7504, 677.9490
920.2325, 679.0808
920.7147, 678.3290
921.1968, 677.2961
921.6789, 677.2361
922.1610, 678.2960
922.6431, 679.1633
923.1252, 679.8480
923.6074, 680.2523
924.0895, 680.3134
924.5716, 680.0767
925.0537, 679.4551
925.5358, 678.5993
926.0179, 678.2760
926.5001, 679.5783
926.9822, 680.8581
927.4643, 680.6728
927.9464, 679.7433
928.4285, 679.7538
928.9106, 681.4315
929.3928, 682.8035
929.8749, 683.5430
930.3570, 684.0551
930.8391, 685.0889
931.3212, 686.4651
931.8033, 687.2631
932.2855, 687.1677
932.7676, 687.2633
933.2497, 688.6799
933.7318, 690.4307
934.2139, 691.5847
934.6960, 691.7986
935.1782, 692.1669
935.6603, 692.6937
936.1424, 693.3600
936.6245, 694.2814
937.1066, 695.3527
937.5887, 696.0620
938.0709, 696.4559
938.5530, 696.8503
939.0351, 697.2528
939.5172, 697.9203
939.9993, 699.3510
940.4814, 701.2877
940.9636, 702.3255
941.4457, 701.9265
941.9278, 701.9110
942.4099, 702.7708
942.8920, 704.1645
943.3741, 705.7650
943.8563, 707.3526
944.3384, 708.2720
944.8205, 708.2695
945.3026, 707.6678
945.7847, 705.8085
946.2668, 703.8825
946.7490, 703.3766
947.2311, 705.2223
947.7132, 705.9885
948.1953, 705.4182
948.6774, 704.5276
949.1595, 704.2273
949.6417, 704.3212
950.1238, 704.4016
950.6059, 704.4299
951.0880, 704.1868
951.5701, 703.2781
952.0522, 702.3228
952.5344, 701.6877
953.0165, 701.3284
953.4986, 700.8940
953.9807, 700.3014
954.4628, 700.0328
954.9449, 700.4297
955.4271, 700.9989
955.9092, 700.7747
956.3913, 700.0139
956.8734, 699.3391
957.3555, 699.0876
957.8376, 698.7781
958.3198, 698.3994
958.8019, 697.7692
959.2840, 696.5901
959.7661, 694.7066
960.2482, 693.1293
960.7303, 691.9020
961.2125, 691.0583
961.6946, 690.7458
962.1767, 690.7725
962.6588, 690.9756
963.1409, 691.3333
963.6230, 691.4158
964.1052, 690.7867
964.5873, 690.1702
965.0694, 689.8969
965.5515, 689.8832
966.0336, 689.4981
966.5157, 688.7432
966.9979, 688.4553
967.4800, 689.2855
967.9621, 690.3410
968.4442, 690.7521
968.9263, 690.6091
969.4084, 690.0691
969.8906, 688.5421
970.3727, 687.5212
970.8548, 687.1660
971.3369, 687.2625
971.8190, 687.6775
972.3011, 688.3698
972.7833, 689.0616
973.2654, 689.7400
973.7475, 690.0541
974.2296, 689.1273
974.7117, 688.1550
975.1938, 688.3317
975.6760, 689.7877
976.1581, 690.6324
976.6402, 690.4324
977.1223, 690.3514
977.6044, 690.9209
978.0865, 691.8414
978.5687, 692.1530
979.0508, 692.0457
979.5329, 692.2215
980.0150, 692.8955
980.4971, 694.0743
980.9792, 696.2403
981.4614, 698.7060
981.9435, 700.4838
982.4256, 701.2625
982.9077, 702.3254
983.3898, 703.8066
983.8719, 705.3218
984.3540, 706.3914
984.8361, 707.2332
985.3182, 708.4112
985.8004, 709.9411
986.2825, 710.9965
986.7646, 709.9417
987.2467, 709.6664
987.7288, 711.8607
988.2109, 715.8777
988.6931, 718.2354
989.1752, 718.8763
989.6573, 719.5768
990.1394, 721.1930
990.6215, 722.8547
991.1036, 723.2068
991.5858, 723.0080
992.0679, 723.5013
992.5500, 725.4523
993.0321, 727.5818
993.5142, 730.3855
993.9963, 732.5965
994.4785, 732.3913
994.9606, 730.2382
995.4427, 729.8266
995.9248, 731.3076
996.4069, 734.1067
996.8890, 739.3751
997.3712, 744.4205
997.8533, 746.8972
998.3354, 747.0136
998.8175, 748.0085
999.2996, 750.4188
999.7817, 752.3371
1000.264, 753.0842
1000.746, 753.2433
1001.228, 753.7689
1001.710, 754.5347
1002.192, 755.4074
1002.674, 756.7880
1003.157, 757.0199
1003.639, 754.6369
1004.121, 751.3391
1004.603, 748.4553
1005.085, 746.0013
1005.567, 743.8171
1006.049, 741.9187
1006.531, 740.0795
1007.013, 738.1442
1007.496, 736.1760
1007.978, 734.0068
1008.460, 731.8015
1008.942, 730.0839
1009.424, 729.6269
1009.906, 728.8599
1010.388, 727.4174
1010.870, 725.6474
1011.353, 723.9693
1011.835, 722.4476
1012.317, 721.7645
1012.799, 722.1777
1013.281, 722.5163
1013.763, 721.6515
1014.245, 720.5004
1014.727, 719.9423
1015.209, 720.0954
1015.692, 719.9365
1016.174, 719.4757
1016.656, 718.6884
1017.138, 717.3416
1017.620, 715.8529
1018.102, 715.1270
1018.584, 714.9828
1019.066, 714.8952
1019.549, 714.4909
1020.031, 714.3464
1020.513, 714.8051
1020.995, 715.4041
1021.477, 715.5837
1021.959, 715.3292
1022.441, 715.0819
1022.923, 714.8500
1023.405, 714.8759
1023.888, 715.6349
1024.370, 716.5338
1024.852, 717.0242
1025.334, 717.0795
1025.816, 717.1151
1026.298, 717.2070
1026.780, 717.1815
1027.262, 716.9297
1027.745, 716.6219
1028.227, 716.7875
1028.709, 717.1934
1029.191, 717.0845
1029.673, 715.8521
1030.155, 715.0731
1030.637, 715.8789
1031.119, 717.1113
1031.601, 717.9037
1032.084, 718.2548
1032.566, 718.1628
1033.048, 717.6279
1033.530, 716.6308
1034.012, 715.0059
1034.494, 713.0461
1034.976, 710.5311
1035.458, 707.8926
1035.941, 706.5551
1036.423, 707.9614
1036.905, 708.8159
1037.387, 708.6094
1037.869, 707.9329
1038.351, 707.5580
1038.833, 707.4186
1039.315, 707.4282
1039.797, 707.6044
1040.280, 707.3428
1040.762, 705.3472
1041.244, 703.6688
1041.726, 703.8155
1042.208, 705.4966
1042.690, 706.4389
1043.172, 706.5809
1043.654, 706.5349
1044.136, 706.4836
1044.619, 706.4366
1045.101, 706.4456
1045.583, 706.4556
1046.065, 706.3508
1046.547, 705.6935
1047.029, 705.8262
1047.511, 707.1905
1047.993, 708.6390
1048.476, 709.1867
1048.958, 709.0559
1049.440, 708.9388
1049.922, 708.9084
1050.404, 709.3206
1050.886, 711.2249
1051.368, 712.7077
1051.850, 712.3864
1052.333, 711.1729
1052.815, 710.8431
1053.297, 711.5154
1053.779, 711.6917
1054.261, 711.0515
1054.743, 710.4039
1055.225, 710.7045
1055.707, 711.3908
1056.189, 711.8436
1056.672, 711.9734
1057.154, 712.1575
1057.636, 712.3769
1058.118, 712.7793
1058.600, 713.5099
1059.082, 714.3712
1059.564, 715.1819
1060.046, 715.7126
1060.528, 715.1794
1061.011, 712.3386
1061.493, 710.2978
1061.975, 711.4361
1062.457, 713.0087
1062.939, 712.5638
1063.421, 709.8913
1063.903, 708.8427
1064.385, 709.4278
1064.868, 710.0399
1065.350, 709.4911
1065.832, 708.5990
1066.314, 708.1384
1066.796, 707.9219
1067.278, 707.2242
1067.760, 705.5422
1068.242, 704.6642
1068.724, 704.9739
1069.207, 705.6876
1069.689, 706.1456
1070.171, 706.2187
1070.653, 705.2302
1071.135, 703.1263
1071.617, 702.1436
1072.099, 704.4711
1072.581, 706.4547
1073.063, 706.5795
1073.546, 705.5792
1074.028, 706.0899
1074.510, 707.7765
1074.992, 708.3842
1075.474, 706.7519
1075.956, 705.2949
1076.438, 706.2300
1076.920, 707.8229
1077.403, 708.3841
1077.885, 707.7737
1078.367, 706.9063
1078.849, 705.7142
1079.331, 704.8772
1079.813, 704.9501
1080.295, 705.5037
1080.777, 706.3196
1081.260, 707.1506
1081.742, 707.4291
1082.224, 706.5179
1082.706, 705.7679
1083.188, 705.2455
1083.670, 704.8773
1084.152, 704.4039
1084.634, 704.0399
1085.116, 704.6202
1085.599, 706.0873
1086.081, 707.4562
1086.563, 708.4937
1087.045, 709.0240
1087.527, 708.8372
1088.009, 708.2188
1088.491, 707.6066
1088.973, 707.0283
1089.455, 707.1661
1089.938, 708.2346
1090.420, 709.4640
1090.902, 710.3544
1091.384, 711.0251
1091.866, 711.5402
1092.348, 711.9139
1092.830, 712.2302
1093.312, 712.4437
1093.794, 712.8918
1094.277, 713.8094
1094.759, 714.8467
1095.241, 715.4935
1095.723, 715.9132
1096.205, 716.4461
1096.687, 717.6321
1097.169, 717.5961
1097.651, 715.4552
1098.134, 713.6465
1098.616, 714.2792
1099.098, 716.4608
1099.580, 717.0307
1100.062, 716.3366
1100.544, 715.8212
1101.026, 716.3908
1101.508, 716.9525
1101.990, 717.2864
1102.473, 717.3580
1102.955, 717.0372
1103.437, 716.3478
1103.919, 715.7582
1104.401, 715.3021
1104.883, 714.7188
1105.365, 713.3991
1105.847, 712.2805
1106.329, 712.1779
1106.812, 712.8217
1107.294, 713.1325
1107.776, 713.0498
1108.258, 712.9703
1108.740, 712.9697
1109.222, 712.9363
1109.704, 712.9030
1110.186, 712.6641
1110.669, 711.9480
1111.151, 710.6943
1111.633, 709.1449
1112.115, 706.8741
1112.597, 705.5076
1113.079, 705.8254
1113.561, 707.0140
1114.043, 707.9837
1114.526, 708.5569
1115.008, 708.2175
1115.490, 706.3704
1115.972, 705.1194
1116.454, 705.6010
1116.936, 705.8575
1117.418, 704.3668
1117.900, 701.7782
1118.382, 701.5856
1118.865, 703.3104
1119.347, 704.8068
1119.829, 705.0927
1120.311, 704.8932
1120.793, 704.0084
1121.275, 703.1334
1121.757, 703.1465
1122.239, 704.1225
1122.721, 703.9982
1123.204, 702.7508
1123.686, 701.6282
1124.168, 701.7112
1124.650, 702.0190
1125.132, 701.6357
1125.614, 700.9746
1126.096, 701.1871
1126.578, 702.5254
1127.061, 703.6057
1127.543, 704.3304
1128.025, 704.4689
1128.507, 703.1335
1128.989, 701.5441
1129.471, 701.0235
1129.953, 701.6296
1130.435, 702.8109
1130.917, 705.2382
1131.400, 706.1359
1131.882, 704.4700
1132.364, 702.1055
1132.846, 701.7955
1133.328, 702.7123
1133.810, 703.5301
1134.292, 704.0504
1134.774, 704.4101
1135.256, 704.5220
1135.739, 704.6725
1136.221, 704.9822
1136.703, 705.3688
1137.185, 705.5762
1137.667, 705.6948
1138.149, 706.0287
1138.631, 706.7675
1139.113, 707.3760
1139.596, 707.7174
1140.078, 707.7511
1140.560, 707.2473
1141.042, 706.3922
1141.524, 706.5158
1142.006, 707.4220
1142.488, 707.9720
1142.970, 707.1507
1143.453, 706.6487
1143.935, 708.0151
1144.417, 709.6434
1144.899, 709.9227
1145.381, 708.7440
1145.863, 707.5646
1146.345, 706.4100
1146.827, 705.9061
1147.309, 706.9736
1147.792, 708.3345
1148.274, 709.3538
1148.756, 709.9050
1149.238, 709.7627
1149.720, 708.7239
1150.202, 708.0340
1150.684, 707.7623
1151.166, 707.7783
1151.648, 708.3818
1152.131, 708.8819
1152.613, 708.2562
1153.095, 706.9147
1153.577, 706.6168
1154.059, 707.8266
1154.541, 708.7305
1155.023, 709.0530
1155.505, 709.1624
1155.988, 709.5751
1156.470, 709.9431
1156.952, 709.5373
1157.434, 708.4166
1157.916, 708.3643
1158.398, 710.3521
1158.880, 711.3284
1159.362, 710.4206
1159.844, 708.6508
1160.327, 707.1566
1160.809, 705.9873
1161.291, 705.2269
1161.773, 704.8879
1162.255, 704.9666
1162.737, 705.7675
1163.219, 706.3775
1163.701, 706.4186
1164.183, 706.2026
1164.666, 706.4591
1165.148, 706.9552
1165.630, 707.2197
1166.112, 707.2084
1166.594, 706.6321
1167.076, 704.7587
1167.558, 703.2264
1168.040, 702.7849
1168.523, 703.2065
1169.005, 704.2841
1169.487, 705.6209
1169.969, 705.8166
1170.451, 703.6822
1170.933, 702.1377
1171.415, 702.7549
1171.897, 703.6855
1172.380, 703.8036
1172.862, 703.3036
1173.344, 703.3115
1173.826, 703.7582
1174.308, 704.3329
1174.790, 705.0846
1175.272, 705.6612
1175.754, 705.9772
1176.236, 706.0038
1176.719, 705.5919
1177.201, 704.7695
1177.683, 704.1171
1178.165, 703.6856
1178.647, 703.8898
1179.129, 705.7701
1179.611, 707.4039
1180.093, 707.8816
1180.575, 707.6104
1181.058, 706.9064
1181.540, 705.7772
1182.022, 704.6559
1182.504, 703.5830
1182.986, 703.2112
1183.468, 704.8077
1183.950, 706.3383
1184.432, 706.4709
1184.915, 705.8293
1185.397, 705.3498
1185.879, 705.0380
1186.361, 704.9435
1186.843, 705.0737
1187.325, 705.3287
1187.807, 705.7665
1188.289, 706.1791
1188.771, 706.3356
1189.254, 706.3772
1189.736, 706.7067
1190.218, 707.3568
1190.700, 707.5172
1191.182, 707.0447
1191.664, 706.6257
1192.146, 707.0634
1192.628, 707.5790
1193.110, 707.4685
1193.593, 706.9435
1194.075, 706.8063
1194.557, 707.0847
1195.039, 707.4745
1195.521, 707.9437
1196.003, 708.3644
1196.485, 708.8450
1196.967, 709.0402
1197.450, 708.2472
1197.932, 706.7966
1198.414, 706.6791
1198.896, 707.9908
1199.378, 709.5858
1199.860, 711.3369
1200.342, 712.5371
1200.824, 711.9299
1201.307, 710.9189
1201.789, 710.9040
1202.271, 711.8243
1202.753, 712.2516
1203.235, 712.1544
1203.717, 712.0059
1204.199, 711.9711
1204.681, 711.8494
1205.163, 711.1078
1205.646, 710.4202
1206.128, 710.8195
1206.610, 712.2680
1207.092, 712.1426
1207.574, 710.3077
1208.056, 709.0417
1208.538, 709.3182
1209.020, 709.9831
1209.502, 709.8070
1209.985, 709.4737
1210.467, 710.0155
1210.949, 711.4769
1211.431, 711.2633
1211.913, 709.2242
1212.395, 708.0308
1212.877, 709.1071
1213.359, 710.6512
1213.842, 711.2856
1214.324, 711.2350
1214.806, 710.4525
1215.288, 708.8519
1215.770, 708.9991
1216.252, 710.9668
1216.734, 712.6737
1217.216, 713.1309
1217.698, 713.0032
1218.181, 712.4563
1218.663, 711.9159
1219.145, 711.9916
1219.627, 712.7724
1220.109, 712.8998
1220.591, 712.3474
1221.073, 711.9344
1221.555, 712.0523
1222.037, 712.4905
1222.520, 713.3828
1223.002, 714.3157
1223.484, 714.8339
1223.966, 714.9365
1224.448, 714.4371
1224.930, 713.3458
1225.412, 712.6335
1225.894, 713.0280
1226.377, 713.7338
1226.859, 714.3243
1227.341, 714.8514
1227.823, 715.5203
1228.305, 716.4347
1228.787, 715.8957
1229.269, 714.0042
1229.751, 712.7846
1230.234, 714.2419
1230.716, 715.7449
1231.198, 715.6246
1231.680, 714.6935
1232.162, 713.8054
1232.644, 712.9323
1233.126, 712.6232
1233.608, 712.8597
1234.090, 713.5008
1234.573, 715.1129
1235.055, 716.3611
1235.537, 716.1257
1236.019, 715.4817
1236.501, 715.7156
1236.983, 716.7814
1237.465, 716.4531
1237.947, 714.9030
1238.429, 713.7162
1238.912, 714.0076
1239.394, 714.6176
1239.876, 715.3493
1240.358, 715.9359
1240.840, 715.9637
1241.322, 715.5455
1241.804, 715.6935
1242.286, 716.3564
1242.769, 717.0557
1243.251, 717.7603
1243.733, 718.1418
1244.215, 717.9355
1244.697, 717.5971
1245.179, 717.6561
1245.661, 717.9662
1246.143, 717.6168
1246.625, 716.8022
1247.108, 716.6321
1247.590, 718.6689
1248.072, 719.8280
1248.554, 719.2706
1249.036, 718.2001
1249.518, 717.8508
1250.000, 717.9423
1250.482, 717.4725
1250.964, 716.6588
1251.447, 716.4713
1251.929, 718.2858
1252.411, 719.1100
1252.893, 718.1896
1253.375, 717.2703
1253.857, 718.7048
1254.339, 721.0394
1254.821, 721.0642
1255.304, 719.4063
1255.786, 718.5818
1256.268, 720.2241
1256.750, 720.8947
1257.232, 720.1154
1257.714, 719.2557
1258.196, 719.8821
1258.678, 720.9842
1259.161, 720.9965
1259.643, 720.2693
1260.125, 720.0642
1260.607, 720.7923
1261.089, 721.1844
1261.571, 721.1036
1262.053, 721.0333
1262.535, 721.2805
1263.017, 721.8227
1263.500, 722.8775
1263.982, 724.1628
1264.464, 725.0609
1264.946, 725.6281
1265.428, 725.1857
1265.910, 723.6165
1266.392, 722.5339
1266.874, 724.0184
1267.356, 725.6149
1267.839, 725.1721
1268.321, 723.6793
1268.803, 723.0197
1269.285, 723.2330
1269.767, 723.5105
1270.249, 723.8207
1270.731, 724.1969
1271.213, 724.9698
1271.696, 725.4816
1272.178, 724.9552
1272.660, 724.2899
1273.142, 724.7291
1273.624, 726.0793
1274.106, 726.1277
1274.588, 725.0004
1275.070, 724.2281
1275.552, 724.7991
1276.035, 725.6528
1276.517, 726.8694
1276.999, 727.7131
1277.481, 727.0424
1277.963, 725.4343
1278.445, 725.0459
1278.927, 725.6744
1279.409, 726.1863
1279.891, 726.0178
1280.374, 725.7803
1280.856, 725.3209
1281.338, 725.3116
1281.820, 726.8390
1282.302, 728.9740
1282.784, 729.8920
1283.266, 729.8862
1283.748, 729.9109
1284.230, 730.0117
1284.713, 730.7217
1285.195, 732.3324
1285.677, 733.3282
1286.159, 731.9073
1286.641, 729.7620
1287.123, 728.5356
1287.605, 728.1801
1288.087, 728.7234
1288.570, 730.5939
1289.052, 731.1691
1289.534, 730.3461
1290.016, 729.6173
1290.498, 730.1358
1290.980, 730.9376
1291.462, 731.4866
1291.944, 731.7941
1292.427, 731.8422
1292.909, 731.6036
1293.391, 731.7067
1293.873, 732.1082
1294.355, 732.4033
1294.837, 732.2391
1295.319, 732.1269
1295.801, 732.5550
1296.283, 732.8818
1296.766, 732.6309
1297.248, 731.8731
1297.730, 730.4456
1298.212, 728.7945
1298.694, 728.5493
1299.176, 731.8027
1299.658, 733.5908
1300.140, 732.5920
1300.622, 731.3762
1301.105, 731.6203
1301.587, 732.7596
1302.069, 733.8902
1302.551, 734.8655
1303.033, 735.3885
1303.515, 735.3134
1303.997, 734.7975
1304.479, 733.7281
1304.962, 732.6541
1305.444, 731.9309
1305.926, 731.5963
##END=



