##NAMES=Bavenite
##RRUFFID=R060790
##IDEAL CHEMISTRY=Ca_4_Be_2+x_Al_2-x_Si_9_O_26-x_(OH)_2+x_ (x = 0 to 1)
##LOCALITY=Londonderry, West Australia, Australia
##OWNER=RRUFF
##SOURCE=Michael Scott
##DESCRIPTION=Colorless platy aggregate with a hexagonal outline associated with quartz
##STATUS=The identification of this mineral is confirmed by single-crystal X-ray diffraction and chemical analysis.
##URL=rruff.info/R060790
##MEASURED CHEMISTRY=Ca_3.96_Be_2.00_(Al_1.10_Be_0.90_)_Î£=2_Si_9.00_O_25.1_(OH)_2.90_
136.4733, 1001.431
136.9554, 1078.662
137.4376, 1135.810
137.9197, 1162.265
138.4018, 1210.212
138.8839, 1288.616
139.3660, 1393.922
139.8481, 1522.716
140.3303, 1674.127
140.8124, 1846.288
141.2945, 2034.498
141.7766, 2229.017
142.2587, 2461.904
142.7408, 2766.905
143.2230, 3116.933
143.7051, 3448.680
144.1872, 3736.893
144.6693, 4013.221
145.1514, 4344.149
145.6335, 4753.729
146.1157, 5100.834
146.5978, 5329.494
147.0799, 5443.801
147.5620, 5457.223
148.0441, 5361.795
148.5262, 5169.984
149.0084, 4908.551
149.4905, 4564.943
149.9726, 4208.100
150.4547, 3866.794
150.9368, 3542.414
151.4189, 3253.323
151.9010, 3010.479
152.3832, 2804.003
152.8653, 2617.771
153.3474, 2452.384
153.8295, 2304.209
154.3116, 2168.746
154.7937, 2046.505
155.2759, 1942.664
155.7580, 1868.511
156.2401, 1809.167
156.7222, 1749.813
157.2043, 1687.427
157.6864, 1631.900
158.1686, 1594.826
158.6507, 1577.387
159.1328, 1566.364
159.6149, 1561.877
160.0970, 1560.280
160.5791, 1557.616
161.0613, 1552.340
161.5434, 1550.788
162.0255, 1558.883
162.5076, 1575.804
162.9897, 1606.299
163.4718, 1668.557
163.9540, 1736.137
164.4361, 1791.096
164.9182, 1828.343
165.4003, 1853.963
165.8824, 1873.752
166.3645, 1885.041
166.8467, 1899.734
167.3288, 1915.208
167.8109, 1937.985
168.2930, 1977.034
168.7751, 2035.540
169.2572, 2101.072
169.7394, 2152.179
170.2215, 2181.479
170.7036, 2217.358
171.1857, 2284.495
171.6678, 2350.253
172.1499, 2387.094
172.6321, 2386.258
173.1142, 2361.919
173.5963, 2339.068
174.0784, 2325.762
174.5605, 2292.917
175.0426, 2215.550
175.5248, 2129.961
176.0069, 2065.810
176.4890, 2032.388
176.9711, 2018.250
177.4532, 2002.660
177.9353, 1983.187
178.4175, 1967.918
178.8996, 1950.262
179.3817, 1926.705
179.8638, 1926.333
180.3459, 1918.631
180.8280, 1903.991
181.3102, 1861.635
181.7923, 1855.068
182.2744, 1834.160
182.7565, 1812.664
183.2386, 1811.134
183.7207, 1772.812
184.2029, 1770.962
184.6850, 1754.555
185.1671, 1744.812
185.6492, 1720.638
186.1313, 1700.922
186.6134, 1695.641
187.0956, 1662.384
187.5777, 1646.668
188.0598, 1635.947
188.5419, 1631.872
189.0240, 1640.281
189.5061, 1678.172
189.9883, 1694.474
190.4704, 1673.285
190.9525, 1640.994
191.4346, 1615.336
191.9167, 1602.371
192.3988, 1600.309
192.8810, 1605.213
193.3631, 1611.609
193.8452, 1638.032
194.3273, 1702.438
194.8094, 1772.748
195.2915, 1825.849
195.7737, 1855.510
196.2558, 1870.056
196.7379, 1882.031
197.2200, 1891.192
197.7021, 1897.927
198.1842, 1903.240
198.6664, 1906.060
199.1485, 1906.331
199.6306, 1903.746
200.1127, 1897.048
200.5948, 1881.950
201.0770, 1846.261
201.5591, 1829.702
202.0412, 1849.160
202.5233, 1872.013
203.0054, 1877.759
203.4875, 1862.661
203.9697, 1835.194
204.4518, 1804.772
204.9339, 1767.329
205.4160, 1737.987
205.8981, 1716.809
206.3802, 1701.969
206.8624, 1694.101
207.3445, 1692.427
207.8266, 1693.797
208.3087, 1693.872
208.7908, 1690.029
209.2729, 1694.087
209.7551, 1718.083
210.2372, 1739.065
210.7193, 1739.571
211.2014, 1722.379
211.6835, 1705.878
212.1656, 1710.090
212.6478, 1739.679
213.1299, 1768.483
213.6120, 1805.113
214.0941, 1833.628
214.5762, 1844.246
215.0583, 1839.308
215.5405, 1828.876
216.0226, 1821.447
216.5047, 1816.960
216.9868, 1816.363
217.4689, 1820.255
217.9510, 1827.428
218.4332, 1841.214
218.9153, 1858.513
219.3974, 1871.275
219.8795, 1870.720
220.3616, 1856.411
220.8437, 1859.607
221.3259, 1906.988
221.8080, 1946.359
222.2901, 1957.124
222.7722, 1949.383
223.2543, 1945.214
223.7364, 1961.131
224.2186, 1994.734
224.7007, 2018.231
225.1828, 2021.437
225.6649, 2024.748
226.1470, 2031.010
226.6291, 2040.444
227.1113, 2051.305
227.5934, 2061.449
228.0755, 2074.119
228.5576, 2107.023
229.0397, 2197.418
229.5218, 2258.033
230.0040, 2261.180
230.4861, 2231.074
230.9682, 2193.916
231.4503, 2161.391
231.9324, 2135.187
232.4145, 2122.475
232.8967, 2140.806
233.3788, 2142.458
233.8609, 2107.835
234.3430, 2060.928
234.8251, 2023.306
235.3072, 2003.095
235.7894, 1996.832
236.2715, 2001.707
236.7536, 2031.385
237.2357, 2040.530
237.7178, 2009.412
238.1999, 1966.419
238.6821, 1930.263
239.1642, 1906.296
239.6463, 1892.001
240.1284, 1887.673
240.6105, 1900.151
241.0926, 1898.348
241.5748, 1863.090
242.0569, 1823.939
242.5390, 1800.045
243.0211, 1792.957
243.5032, 1787.951
243.9853, 1768.592
244.4675, 1733.162
244.9496, 1698.099
245.4317, 1649.308
245.9138, 1615.320
246.3959, 1624.575
246.8780, 1668.325
247.3602, 1703.177
247.8423, 1681.011
248.3244, 1604.818
248.8065, 1560.453
249.2886, 1574.527
249.7707, 1592.682
250.2529, 1582.902
250.7350, 1554.002
251.2171, 1532.035
251.6992, 1538.215
252.1813, 1564.832
252.6634, 1579.187
253.1456, 1575.397
253.6277, 1569.149
254.1098, 1568.771
254.5919, 1571.586
255.0740, 1572.868
255.5561, 1569.146
256.0382, 1563.550
256.5204, 1564.985
257.0025, 1578.171
257.4846, 1582.877
257.9667, 1552.639
258.4488, 1513.072
258.9309, 1497.976
259.4131, 1527.029
259.8952, 1566.397
260.3773, 1570.029
260.8594, 1534.609
261.3415, 1511.582
261.8236, 1532.188
262.3058, 1570.480
262.7879, 1595.262
263.2700, 1603.298
263.7521, 1599.720
264.2342, 1580.850
264.7163, 1549.957
265.1985, 1531.553
265.6806, 1537.316
266.1627, 1554.288
266.6448, 1565.477
267.1269, 1570.711
267.6090, 1572.664
268.0912, 1578.990
268.5733, 1582.819
269.0554, 1561.038
269.5375, 1499.199
270.0196, 1435.227
270.5017, 1422.122
270.9839, 1455.116
271.4660, 1487.499
271.9481, 1505.166
272.4302, 1516.533
272.9123, 1531.514
273.3944, 1551.285
273.8766, 1575.624
274.3587, 1609.083
274.8408, 1650.618
275.3229, 1673.669
275.8050, 1662.508
276.2871, 1643.232
276.7693, 1633.596
277.2514, 1633.847
277.7335, 1636.219
278.2156, 1632.547
278.6977, 1626.612
279.1798, 1645.940
279.6620, 1722.773
280.1441, 1787.914
280.6262, 1807.591
281.1083, 1794.567
281.5904, 1776.126
282.0725, 1764.242
282.5547, 1759.351
283.0368, 1763.557
283.5189, 1798.941
284.0010, 1815.326
284.4831, 1790.670
284.9652, 1750.477
285.4474, 1724.693
285.9295, 1723.176
286.4116, 1735.045
286.8937, 1742.628
287.3758, 1743.584
287.8579, 1744.357
288.3401, 1747.497
288.8222, 1748.725
289.3043, 1740.574
289.7864, 1663.794
290.2685, 1723.664
290.7506, 1752.012
291.2328, 1750.532
291.7149, 1629.892
292.1970, 1663.125
292.6791, 1634.692
293.1612, 1603.731
293.6433, 1658.620
294.1255, 1555.310
294.6076, 1583.277
295.0897, 1579.948
295.5718, 1574.763
296.0539, 1569.345
296.5360, 1559.378
297.0182, 1536.776
297.5003, 1511.419
297.9824, 1497.556
298.4645, 1502.948
298.9466, 1517.994
299.4287, 1521.396
299.9109, 1508.424
300.3930, 1495.990
300.8751, 1486.569
301.3572, 1479.861
301.8393, 1476.872
302.3214, 1477.791
302.8036, 1478.836
303.2857, 1478.176
303.7678, 1476.053
304.2499, 1463.221
304.7320, 1426.232
305.2141, 1390.289
305.6963, 1372.839
306.1784, 1372.944
306.6605, 1380.525
307.1426, 1392.487
307.6247, 1407.307
308.1068, 1420.524
308.5890, 1431.683
309.0711, 1441.489
309.5532, 1450.644
310.0353, 1458.859
310.5174, 1464.865
310.9995, 1472.187
311.4817, 1474.813
311.9638, 1461.399
312.4459, 1432.408
312.9280, 1407.768
313.4101, 1396.322
313.8922, 1398.709
314.3744, 1413.252
314.8565, 1452.524
315.3386, 1485.369
315.8207, 1496.757
316.3028, 1490.443
316.7849, 1468.277
317.2671, 1424.944
317.7492, 1384.877
318.2313, 1400.238
318.7134, 1504.310
319.1955, 1569.469
319.6776, 1555.293
320.1598, 1508.656
320.6419, 1471.576
321.1240, 1452.088
321.6061, 1441.952
322.0882, 1432.152
322.5703, 1421.122
323.0525, 1421.783
323.5346, 1451.397
324.0167, 1474.427
324.4988, 1463.989
324.9809, 1432.537
325.4630, 1414.343
325.9452, 1434.077
326.4273, 1483.169
326.9094, 1510.376
327.3915, 1493.252
327.8736, 1480.436
328.3557, 1480.324
328.8379, 1486.755
329.3200, 1492.236
329.8021, 1494.070
330.2842, 1496.116
330.7663, 1505.000
331.2484, 1522.056
331.7306, 1541.878
332.2127, 1566.811
332.6948, 1592.109
333.1769, 1615.619
333.6590, 1637.011
334.1411, 1657.329
334.6233, 1677.882
335.1054, 1698.369
335.5875, 1717.047
336.0696, 1738.802
336.5517, 1750.314
337.0338, 1724.278
337.5160, 1685.096
337.9981, 1684.305
338.4802, 1764.587
338.9623, 1875.055
339.4444, 1936.764
339.9265, 1945.715
340.4087, 1959.249
340.8908, 2008.418
341.3729, 2074.637
341.8550, 2122.151
342.3371, 2139.650
342.8192, 2163.528
343.3014, 2224.611
343.7835, 2307.263
344.2656, 2372.408
344.7477, 2407.804
345.2298, 2429.563
345.7119, 2462.482
346.1941, 2512.792
346.6762, 2534.785
347.1583, 2506.217
347.6404, 2459.047
348.1225, 2424.415
348.6046, 2401.277
349.0868, 2362.696
349.5689, 2283.840
350.0510, 2166.848
350.5331, 2072.618
351.0152, 2005.479
351.4973, 1952.240
351.9795, 1921.659
352.4616, 1900.081
352.9437, 1866.069
353.4258, 1810.142
353.9079, 1744.400
354.3900, 1694.703
354.8722, 1665.033
355.3543, 1645.281
355.8364, 1638.501
356.3185, 1637.053
356.8006, 1643.060
357.2827, 1652.497
357.7649, 1649.312
358.2470, 1605.269
358.7291, 1520.761
359.2112, 1486.715
359.6933, 1540.175
360.1754, 1596.516
360.6576, 1615.432
361.1397, 1612.189
361.6218, 1615.210
362.1039, 1638.916
362.5860, 1671.997
363.0681, 1701.929
363.5503, 1730.441
364.0324, 1737.187
364.5145, 1696.944
364.9966, 1642.590
365.4787, 1618.497
365.9608, 1631.827
366.4430, 1648.751
366.9251, 1647.215
367.4072, 1636.598
367.8893, 1642.605
368.3714, 1674.253
368.8535, 1699.508
369.3357, 1678.387
369.8178, 1607.628
370.2999, 1560.882
370.7820, 1553.316
371.2641, 1560.981
371.7462, 1575.592
372.2284, 1592.813
372.7105, 1602.184
373.1926, 1596.491
373.6747, 1580.086
374.1568, 1570.682
374.6389, 1583.106
375.1211, 1583.978
375.6032, 1556.491
376.0853, 1523.925
376.5674, 1511.928
377.0495, 1525.235
377.5316, 1546.016
378.0138, 1552.127
378.4959, 1541.539
378.9780, 1526.163
379.4601, 1490.304
379.9422, 1464.578
380.4243, 1467.261
380.9065, 1488.975
381.3886, 1508.194
381.8707, 1511.976
382.3528, 1505.706
382.8349, 1500.808
383.3170, 1495.498
383.7992, 1498.032
384.2813, 1525.185
384.7634, 1554.496
385.2455, 1559.593
385.7276, 1532.819
386.2097, 1509.400
386.6919, 1515.875
387.1740, 1545.798
387.6561, 1582.621
388.1382, 1627.431
388.6203, 1665.262
389.1024, 1673.568
389.5846, 1654.960
390.0667, 1651.779
390.5488, 1682.784
391.0309, 1719.183
391.5130, 1738.594
391.9951, 1744.480
392.4773, 1751.028
392.9594, 1764.115
393.4415, 1786.753
393.9236, 1829.753
394.4057, 1925.763
394.8878, 2000.054
395.3700, 2033.697
395.8521, 2053.191
396.3342, 2082.664
396.8163, 2126.064
397.2984, 2171.034
397.7805, 2203.162
398.2627, 2220.737
398.7448, 2243.017
399.2269, 2279.259
399.7090, 2310.338
400.1911, 2332.618
400.6732, 2345.425
401.1554, 2347.460
401.6375, 2336.949
402.1196, 2318.450
402.6017, 2298.840
403.0838, 2277.860
403.5659, 2257.880
404.0481, 2245.623
404.5302, 2228.926
405.0123, 2193.293
405.4944, 2137.940
405.9765, 2084.986
406.4586, 2043.708
406.9408, 2011.993
407.4229, 1989.688
407.9050, 1977.276
408.3871, 1962.786
408.8692, 1937.327
409.3513, 1901.735
409.8335, 1865.130
410.3156, 1820.414
410.7977, 1782.696
411.2798, 1755.456
411.7619, 1739.477
412.2440, 1739.120
412.7262, 1755.778
413.2083, 1778.513
413.6904, 1789.484
414.1725, 1783.854
414.6546, 1778.748
415.1367, 1769.015
415.6189, 1764.262
416.1010, 1777.127
416.5831, 1799.622
417.0652, 1809.627
417.5473, 1789.116
418.0294, 1750.076
418.5116, 1732.778
418.9937, 1740.887
419.4758, 1761.736
419.9579, 1801.531
420.4400, 1846.863
420.9221, 1889.230
421.4043, 1927.577
421.8864, 1956.104
422.3685, 1966.634
422.8506, 1963.978
423.3327, 1959.225
423.8148, 1951.051
424.2970, 1952.568
424.7791, 1979.754
425.2612, 2028.160
425.7433, 2068.202
426.2254, 2095.941
426.7076, 2117.071
427.1897, 2130.490
427.6718, 2139.975
428.1539, 2152.161
428.6360, 2169.548
429.1181, 2193.367
429.6003, 2226.924
430.0824, 2278.999
430.5645, 2320.602
431.0466, 2342.323
431.5287, 2363.424
432.0108, 2394.599
432.4930, 2435.130
432.9751, 2478.808
433.4572, 2519.689
433.9393, 2561.729
434.4214, 2621.114
434.9035, 2705.039
435.3857, 2789.746
435.8678, 2861.983
436.3499, 2936.292
436.8320, 3022.508
437.3141, 3121.850
437.7962, 3239.390
438.2784, 3376.998
438.7605, 3535.956
439.2426, 3727.985
439.7247, 3962.080
440.2068, 4187.907
440.6889, 4347.774
441.1711, 4462.333
441.6532, 4641.019
442.1353, 4951.340
442.6174, 5259.082
443.0995, 5489.957
443.5816, 5678.560
444.0638, 5895.150
444.5459, 6163.480
445.0280, 6434.071
445.5101, 6633.053
445.9922, 6748.845
446.4743, 6827.979
446.9565, 6915.004
447.4386, 6927.692
447.9207, 6819.226
448.4028, 6608.756
448.8849, 6338.393
449.3670, 6028.765
449.8492, 5679.558
450.3313, 5268.356
450.8134, 4770.381
451.2955, 4322.669
451.7776, 3966.219
452.2597, 3663.151
452.7419, 3381.276
453.2240, 3120.526
453.7061, 2896.555
454.1882, 2731.035
454.6703, 2601.470
455.1524, 2470.432
455.6346, 2336.305
456.1167, 2222.170
456.5988, 2144.699
457.0809, 2095.932
457.5630, 2047.037
458.0451, 1994.583
458.5273, 1946.910
459.0093, 1900.874
459.4915, 1863.137
459.9736, 1842.367
460.4557, 1839.201
460.9378, 1847.213
461.4199, 1862.003
461.9020, 1883.594
462.3842, 1897.258
462.8663, 1900.695
463.3484, 1898.296
463.8305, 1890.254
464.3126, 1877.769
464.7947, 1861.577
465.2769, 1841.839
465.7590, 1820.309
466.2411, 1796.027
466.7232, 1770.175
467.2053, 1754.790
467.6874, 1757.172
468.1696, 1757.260
468.6517, 1731.438
469.1338, 1688.088
469.6159, 1657.773
470.0980, 1657.266
470.5801, 1659.043
471.0623, 1642.062
471.5444, 1614.943
472.0265, 1598.265
472.5086, 1599.624
472.9907, 1609.274
473.4728, 1612.704
473.9550, 1608.371
474.4371, 1602.306
474.9192, 1594.581
475.4013, 1585.366
475.8834, 1571.537
476.3655, 1556.658
476.8477, 1546.561
477.3298, 1543.795
477.8119, 1549.250
478.2940, 1567.652
478.7761, 1601.820
479.2582, 1630.425
479.7404, 1643.304
480.2225, 1655.457
480.7046, 1683.551
481.1867, 1724.515
481.6688, 1755.060
482.1509, 1754.856
482.6331, 1747.518
483.1152, 1755.504
483.5973, 1779.050
484.0794, 1817.052
484.5615, 1871.003
485.0436, 1934.319
485.5258, 1994.399
486.0079, 2056.479
486.4900, 2103.520
486.9721, 2120.764
487.4542, 2134.987
487.9363, 2164.084
488.4185, 2207.110
488.9006, 2255.010
489.3827, 2302.781
489.8648, 2349.006
490.3469, 2384.876
490.8290, 2398.950
491.3112, 2435.466
491.7933, 2530.479
492.2754, 2634.650
492.7575, 2708.077
493.2396, 2750.702
493.7217, 2798.719
494.2039, 2869.010
494.6860, 2957.506
495.1681, 3064.335
495.6502, 3187.617
496.1323, 3311.615
496.6144, 3430.028
497.0966, 3539.543
497.5787, 3627.708
498.0608, 3679.134
498.5429, 3738.123
499.0250, 3817.394
499.5071, 3899.119
499.9893, 3973.004
500.4714, 4035.753
500.9535, 4083.679
501.4356, 4113.053
501.9177, 4126.944
502.3998, 4139.870
502.8820, 4156.848
503.3641, 4160.930
503.8462, 4142.164
504.3283, 4112.394
504.8104, 4086.717
505.2925, 4064.573
505.7747, 4016.302
506.2568, 3907.017
506.7389, 3768.708
507.2210, 3653.683
507.7031, 3563.697
508.1852, 3469.904
508.6674, 3357.031
509.1495, 3230.158
509.6316, 3104.404
510.1137, 2972.726
510.5958, 2853.172
511.0779, 2754.471
511.5601, 2662.977
512.0422, 2563.912
512.5243, 2460.964
513.0064, 2374.244
513.4885, 2322.459
513.9706, 2291.763
514.4528, 2226.121
514.9349, 2105.459
515.4170, 2005.922
515.8991, 1960.115
516.3812, 1933.810
516.8633, 1905.646
517.3455, 1873.960
517.8276, 1837.399
518.3097, 1788.597
518.7918, 1738.463
519.2739, 1702.107
519.7560, 1678.926
520.2382, 1660.729
520.7203, 1643.940
521.2024, 1629.073
521.6845, 1617.564
522.1666, 1615.321
522.6487, 1605.386
523.1309, 1578.723
523.6130, 1552.244
524.0951, 1539.449
524.5772, 1536.137
525.0593, 1529.144
525.5414, 1510.982
526.0236, 1483.515
526.5057, 1443.457
526.9878, 1383.723
527.4699, 1355.947
527.9520, 1389.234
528.4341, 1439.037
528.9163, 1463.250
529.3984, 1466.252
529.8805, 1479.275
530.3626, 1531.434
530.8447, 1580.912
531.3268, 1589.395
531.8090, 1565.711
532.2911, 1530.548
532.7732, 1489.775
533.2553, 1464.469
533.7374, 1494.207
534.2195, 1608.393
534.7017, 1675.192
535.1838, 1657.390
535.6659, 1634.786
536.1480, 1634.023
536.6301, 1650.397
537.1122, 1677.342
537.5944, 1714.844
538.0765, 1743.317
538.5586, 1725.526
539.0407, 1668.403
539.5228, 1647.100
540.0049, 1686.676
540.4871, 1725.356
540.9692, 1710.171
541.4513, 1649.320
541.9334, 1593.563
542.4155, 1539.997
542.8976, 1496.944
543.3798, 1468.545
543.8619, 1452.150
544.3440, 1447.803
544.8261, 1453.814
545.3082, 1461.055
545.7903, 1461.698
546.2725, 1455.514
546.7546, 1432.347
547.2367, 1369.510
547.7188, 1327.849
548.2009, 1343.598
548.6830, 1375.654
549.1652, 1382.500
549.6473, 1357.293
550.1294, 1327.466
550.6115, 1305.971
551.0936, 1292.880
551.5757, 1290.187
552.0579, 1297.490
552.5400, 1308.395
553.0221, 1321.692
553.5042, 1332.931
553.9863, 1329.582
554.4684, 1288.187
554.9506, 1269.827
555.4327, 1292.097
555.9148, 1322.241
556.3969, 1350.840
556.8790, 1368.847
557.3611, 1356.365
557.8433, 1295.223
558.3254, 1216.205
558.8075, 1183.603
559.2896, 1200.519
559.7717, 1212.092
560.2538, 1206.724
560.7360, 1193.447
561.2181, 1177.237
561.7002, 1159.284
562.1823, 1147.045
562.6644, 1138.640
563.1465, 1139.416
563.6287, 1164.908
564.1108, 1198.291
564.5929, 1204.326
565.0750, 1175.090
565.5571, 1143.442
566.0392, 1153.298
566.5214, 1207.797
567.0035, 1225.797
567.4856, 1177.625
567.9677, 1137.367
568.4498, 1133.305
568.9319, 1145.322
569.4141, 1148.248
569.8962, 1136.555
570.3783, 1136.908
570.8604, 1186.817
571.3425, 1251.344
571.8246, 1264.842
572.3068, 1227.047
572.7889, 1191.610
573.2710, 1189.605
573.7531, 1208.408
574.2352, 1213.979
574.7173, 1194.100
575.1995, 1181.549
575.6816, 1176.317
576.1637, 1177.801
576.6458, 1195.811
577.1279, 1219.591
577.6100, 1222.612
578.0922, 1186.279
578.5743, 1139.699
579.0564, 1134.893
579.5385, 1167.036
580.0206, 1168.895
580.5027, 1117.040
580.9849, 1063.005
581.4670, 1056.117
581.9491, 1093.159
582.4312, 1116.520
582.9133, 1123.107
583.3954, 1119.706
583.8776, 1100.669
584.3597, 1076.913
584.8418, 1057.109
585.3239, 1044.930
585.8060, 1046.769
586.2881, 1074.659
586.7703, 1119.888
587.2524, 1130.235
587.7345, 1091.497
588.2166, 1065.450
588.6987, 1082.566
589.1808, 1112.283
589.6630, 1122.004
590.1451, 1111.161
590.6272, 1096.496
591.1093, 1069.210
591.5914, 1051.771
592.0735, 1069.758
592.5557, 1112.153
593.0378, 1155.822
593.5199, 1191.586
594.0020, 1209.235
594.4841, 1186.625
594.9662, 1112.909
595.4484, 1070.385
595.9305, 1081.954
596.4126, 1094.397
596.8947, 1082.387
597.3768, 1062.381
597.8589, 1057.689
598.3411, 1074.668
598.8232, 1093.734
599.3053, 1103.616
599.7874, 1107.319
600.2695, 1109.257
600.7516, 1109.735
601.2338, 1107.498
601.7159, 1101.698
602.1980, 1092.971
602.6801, 1082.034
603.1622, 1060.674
603.6443, 1053.605
604.1265, 1082.214
604.6086, 1103.156
605.0907, 1087.671
605.5728, 1049.009
606.0549, 1013.577
606.5370, 987.1859
607.0192, 981.7164
607.5013, 1029.338
607.9834, 1108.826
608.4655, 1143.531
608.9476, 1118.676
609.4297, 1090.803
609.9119, 1105.840
610.3940, 1155.092
610.8761, 1184.956
611.3582, 1192.158
611.8403, 1183.618
612.3224, 1152.607
612.8046, 1111.573
613.2867, 1055.685
613.7688, 996.4292
614.2509, 969.1495
614.7330, 1007.218
615.2151, 1066.863
615.6973, 1071.445
616.1794, 1027.432
616.6615, 995.3856
617.1436, 988.0414
617.6257, 1001.963
618.1078, 1039.255
618.5900, 1099.476
619.0721, 1146.976
619.5542, 1182.004
620.0363, 1205.379
620.5184, 1209.255
621.0005, 1206.686
621.4827, 1211.503
621.9648, 1224.297
622.4469, 1233.788
622.9290, 1225.271
623.4111, 1212.526
623.8932, 1182.624
624.3754, 1268.455
624.8575, 1322.760
625.3396, 1347.240
625.8217, 1252.558
626.3038, 1311.747
626.7859, 1309.272
627.2681, 1304.273
627.7502, 1359.893
628.2323, 1399.321
628.7144, 1431.143
629.1965, 1459.287
629.6786, 1493.922
630.1608, 1534.654
630.6429, 1565.271
631.1250, 1568.928
631.6071, 1551.622
632.0892, 1532.115
632.5714, 1509.588
633.0535, 1492.572
633.5356, 1484.978
634.0177, 1482.798
634.4998, 1482.771
634.9819, 1485.688
635.4641, 1481.325
635.9462, 1464.569
636.4283, 1445.214
636.9104, 1427.819
637.3925, 1410.411
637.8746, 1388.206
638.3568, 1360.829
638.8389, 1335.132
639.3210, 1320.651
639.8031, 1313.816
640.2852, 1294.207
640.7673, 1257.450
641.2495, 1237.583
641.7316, 1253.017
642.2137, 1284.814
642.6958, 1307.943
643.1779, 1322.838
643.6600, 1327.798
644.1422, 1312.534
644.6243, 1298.064
645.1064, 1301.045
645.5885, 1308.880
646.0706, 1299.720
646.5527, 1269.012
647.0349, 1235.602
647.5170, 1214.500
647.9991, 1206.669
648.4812, 1222.266
648.9633, 1265.592
649.4454, 1299.982
649.9276, 1309.571
650.4097, 1305.302
650.8918, 1302.834
651.3739, 1303.073
651.8560, 1299.359
652.3381, 1278.767
652.8203, 1267.769
653.3024, 1292.762
653.7845, 1328.773
654.2666, 1334.611
654.7487, 1302.488
655.2308, 1271.349
655.7130, 1293.023
656.1951, 1345.697
656.6772, 1343.937
657.1593, 1283.348
657.6414, 1231.973
658.1235, 1215.649
658.6057, 1220.427
659.0878, 1227.309
659.5699, 1235.569
660.0520, 1251.368
660.5341, 1279.006
661.0162, 1309.177
661.4984, 1341.629
661.9805, 1373.051
662.4626, 1396.932
662.9447, 1413.176
663.4268, 1431.993
663.9089, 1471.426
664.3911, 1516.703
664.8732, 1523.694
665.3553, 1494.731
665.8374, 1485.820
666.3195, 1518.531
666.8016, 1572.524
667.2838, 1623.536
667.7659, 1670.998
668.2480, 1719.180
668.7301, 1779.729
669.2122, 1826.605
669.6943, 1836.657
670.1765, 1840.631
670.6586, 1873.123
671.1407, 1936.546
671.6228, 2002.693
672.1049, 2050.573
672.5870, 2092.706
673.0692, 2150.247
673.5513, 2219.678
674.0334, 2286.335
674.5155, 2346.720
674.9976, 2392.299
675.4797, 2412.451
675.9619, 2407.246
676.4440, 2389.802
676.9261, 2357.091
677.4082, 2316.069
677.8903, 2256.188
678.3724, 2198.130
678.8546, 2170.438
679.3367, 2165.114
679.8188, 2132.109
680.3009, 2020.556
680.7830, 1901.746
681.2651, 1849.155
681.7473, 1836.395
682.2294, 1807.256
682.7115, 1749.907
683.1936, 1683.244
683.6757, 1622.185
684.1578, 1567.674
684.6400, 1530.608
685.1221, 1527.820
685.6042, 1494.982
686.0863, 1383.174
686.5684, 1277.102
687.0505, 1247.491
687.5327, 1273.886
688.0148, 1284.477
688.4969, 1250.627
688.9790, 1217.745
689.4611, 1218.201
689.9432, 1225.694
690.4254, 1197.562
690.9075, 1140.071
691.3896, 1105.425
691.8717, 1130.608
692.3538, 1182.418
692.8359, 1183.063
693.3181, 1128.689
693.8002, 1091.380
694.2823, 1082.332
694.7644, 1085.745
695.2465, 1098.321
695.7286, 1114.272
696.2108, 1114.127
696.6929, 1087.711
697.1750, 1066.204
697.6571, 1054.152
698.1392, 1048.789
698.6213, 1048.747
699.1035, 1053.722
699.5856, 1066.736
700.0677, 1089.799
700.5498, 1108.037
701.0319, 1100.136
701.5140, 1073.778
701.9962, 1054.145
702.4783, 1025.887
702.9604, 1042.183
703.4425, 1051.147
703.9246, 1053.175
704.4067, 1027.490
704.8889, 1037.590
705.3710, 1033.349
705.8531, 1028.520
706.3352, 1043.657
706.8173, 1022.003
707.2994, 1036.823
707.7816, 1037.083
708.2637, 1029.428
708.7458, 1025.954
709.2279, 1028.089
709.7100, 1032.967
710.1921, 1042.677
710.6743, 1052.283
711.1564, 1044.660
711.6385, 1015.358
712.1206, 983.9916
712.6027, 972.0392
713.0848, 977.8315
713.5670, 982.3246
714.0491, 982.1381
714.5312, 990.6827
715.0133, 1015.617
715.4954, 1046.166
715.9775, 1078.572
716.4597, 1110.198
716.9418, 1123.174
717.4239, 1102.092
717.9060, 1077.927
718.3881, 1056.093
718.8702, 1041.087
719.3524, 1043.390
719.8345, 1058.459
720.3166, 1065.530
720.7987, 1048.862
721.2808, 1027.711
721.7629, 1041.590
722.2451, 1083.396
722.7272, 1098.466
723.2093, 1075.718
723.6914, 1054.800
724.1735, 1064.486
724.6556, 1092.272
725.1378, 1101.270
725.6199, 1083.805
726.1020, 1062.007
726.5841, 1015.976
727.0662, 987.4008
727.5483, 1010.747
728.0305, 1057.429
728.5126, 1080.215
728.9947, 1066.321
729.4768, 1051.646
729.9589, 1055.541
730.4410, 1071.846
730.9232, 1100.347
731.4053, 1134.870
731.8874, 1160.998
732.3695, 1173.259
732.8516, 1168.956
733.3337, 1140.755
733.8159, 1091.168
734.2980, 1049.943
734.7801, 1013.096
735.2622, 1000.666
735.7443, 1030.620
736.2264, 1073.458
736.7086, 1101.784
737.1907, 1115.898
737.6728, 1114.633
738.1549, 1081.486
738.6370, 1053.938
739.1191, 1039.459
739.6013, 1037.732
740.0834, 1062.398
740.5655, 1101.129
741.0476, 1110.720
741.5297, 1058.247
742.0118, 994.2654
742.4940, 988.7562
742.9761, 1021.095
743.4582, 1031.225
743.9403, 1012.094
744.4224, 982.8433
744.9045, 952.4791
745.3867, 926.9841
745.8688, 922.5890
746.3509, 947.6451
746.8330, 965.8000
747.3151, 982.0120
747.7972, 984.0181
748.2794, 938.3821
748.7615, 889.4086
749.2436, 909.6749
749.7257, 1016.244
750.2078, 1080.046
750.6899, 1020.137
751.1721, 951.2635
751.6542, 950.8109
752.1363, 987.7621
752.6184, 1012.750
753.1005, 1013.864
753.5826, 1005.905
754.0648, 999.4739
754.5469, 993.8667
755.0290, 984.0051
755.5111, 971.6097
755.9932, 975.4702
756.4753, 1001.730
756.9575, 1030.042
757.4396, 1044.070
757.9217, 1045.640
758.4038, 1044.282
758.8859, 1039.352
759.3680, 1032.772
759.8502, 1032.842
760.3323, 1022.848
760.8144, 981.2332
761.2965, 927.1982
761.7786, 898.5131
762.2607, 906.5972
762.7429, 921.8389
763.2250, 944.6108
763.7071, 958.0311
764.1892, 938.3626
764.6713, 899.1226
765.1534, 866.3125
765.6356, 849.8632
766.1177, 853.4651
766.5998, 896.8763
767.0819, 959.9869
767.5640, 970.0280
768.0461, 927.9375
768.5283, 884.1293
769.0104, 850.5418
769.4925, 832.8763
769.9746, 841.7469
770.4567, 873.7032
770.9388, 881.0325
771.4210, 839.1848
771.9031, 814.7272
772.3852, 835.7239
772.8673, 855.9214
773.3494, 834.5438
773.8315, 792.0953
774.3137, 785.0497
774.7958, 840.0562
775.2779, 892.0489
775.7600, 921.2720
776.2421, 926.8606
776.7242, 884.7539
777.2064, 821.5430
777.6885, 805.4785
778.1706, 860.8058
778.6527, 925.3422
779.1348, 926.1559
779.6169, 880.7154
780.0991, 839.1794
780.5812, 802.5439
781.0633, 787.4385
781.5454, 800.6676
782.0275, 829.5995
782.5096, 863.7568
782.9918, 901.7634
783.4739, 921.8774
783.9560, 920.3723
784.4381, 907.8348
784.9202, 873.6928
785.4023, 840.4165
785.8845, 818.1741
786.3666, 808.0550
786.8487, 813.8813
787.3308, 845.3663
787.8129, 872.4581
788.2950, 888.7397
788.7772, 893.4011
789.2593, 876.0683
789.7414, 848.8229
790.2235, 836.9943
790.7056, 848.7934
791.1877, 865.4667
791.6699, 869.3551
792.1520, 865.7448
792.6341, 866.8576
793.1162, 871.3116
793.5983, 868.4025
794.0804, 854.7750
794.5626, 841.7969
795.0447, 840.8690
795.5268, 850.6829
796.0089, 865.9542
796.4910, 892.9554
796.9731, 902.5204
797.4553, 883.1645
797.9374, 855.8406
798.4195, 830.7220
798.9016, 809.3660
799.3837, 796.8074
799.8658, 800.1537
800.3480, 796.4998
800.8301, 774.3019
801.3122, 753.4297
801.7943, 744.3513
802.2764, 743.7448
802.7585, 742.7130
803.2407, 740.0890
803.7228, 751.5914
804.2049, 802.0370
804.6870, 859.4490
805.1691, 896.7014
805.6512, 911.8756
806.1334, 889.9683
806.6155, 835.0776
807.0976, 792.6704
807.5797, 800.6391
808.0618, 838.8504
808.5439, 862.8760
809.0261, 872.6329
809.5082, 863.7523
809.9903, 831.0400
810.4724, 803.9799
810.9545, 800.2371
811.4366, 811.5063
811.9188, 820.2353
812.4009, 823.9597
812.8830, 834.1720
813.3651, 858.9673
813.8472, 879.6331
814.3293, 895.9108
814.8115, 902.7158
815.2936, 890.8843
815.7757, 862.0517
816.2578, 836.9883
816.7399, 822.8751
817.2220, 811.4097
817.7042, 792.5853
818.1863, 779.0647
818.6684, 786.7061
819.1505, 812.1804
819.6326, 844.8579
820.1147, 883.1812
820.5969, 904.9636
821.0790, 868.0432
821.5611, 804.2476
822.0432, 786.1480
822.5253, 809.2443
823.0074, 822.8412
823.4896, 807.4010
823.9717, 790.0024
824.4538, 807.0980
824.9359, 851.9149
825.4180, 873.5685
825.9001, 870.7957
826.3823, 846.9100
826.8644, 788.5128
827.3465, 742.0022
827.8286, 752.3991
828.3107, 804.9662
828.7928, 834.5767
829.2749, 829.2057
829.7570, 820.1680
830.2391, 794.9427
830.7213, 780.0051
831.2034, 796.8776
831.6855, 826.5022
832.1676, 844.6902
832.6497, 848.2908
833.1318, 834.4948
833.6140, 773.7145
834.0961, 726.2266
834.5782, 744.7798
835.0603, 790.1205
835.5424, 813.3464
836.0245, 808.3514
836.5067, 790.6506
836.9888, 765.6010
837.4709, 742.7725
837.9530, 737.3668
838.4351, 742.0659
838.9172, 731.1826
839.3994, 708.8917
839.8815, 722.3752
840.3636, 794.9507
840.8457, 877.9818
841.3278, 903.4821
841.8099, 874.8910
842.2921, 825.8163
842.7742, 747.9027
843.2563, 716.1889
843.7384, 767.6031
844.2205, 826.2631
844.7026, 814.1084
845.1848, 748.1453
845.6669, 735.3285
846.1490, 834.8670
846.6311, 879.0434
847.1132, 797.3792
847.5953, 727.7616
848.0775, 745.0013
848.5596, 805.9194
849.0417, 844.6696
849.5238, 853.0515
850.0059, 857.3368
850.4880, 867.0867
850.9702, 870.4173
851.4523, 854.1970
851.9344, 833.0988
852.4165, 829.4362
852.8986, 839.3073
853.3807, 833.1807
853.8629, 786.3113
854.3450, 743.8768
854.8271, 752.5785
855.3092, 787.4348
855.7913, 818.6772
856.2734, 840.6215
856.7556, 847.5497
857.2377, 837.4213
857.7198, 817.8909
858.2019, 793.0388
858.6840, 767.2544
859.1661, 757.2426
859.6483, 762.0626
860.1304, 770.7084
860.6125, 780.8126
861.0946, 792.2028
861.5767, 806.1982
862.0588, 818.9640
862.5410, 815.5941
863.0231, 790.2277
863.5052, 777.4236
863.9873, 784.1040
864.4694, 791.1808
864.9515, 789.1882
865.4337, 783.4510
865.9158, 779.7722
866.3979, 776.6730
866.8800, 788.2512
867.3621, 837.7866
867.8442, 869.6223
868.3264, 867.6077
868.8085, 850.2190
869.2906, 819.3160
869.7727, 785.0784
870.2548, 775.0897
870.7369, 804.9973
871.2191, 817.8391
871.7012, 832.8936
872.1833, 840.6172
872.6654, 841.4041
873.1475, 814.4777
873.6296, 823.3374
874.1118, 817.8552
874.5939, 811.7855
875.0760, 825.6816
875.5581, 802.7861
876.0402, 816.3657
876.5223, 815.3853
877.0045, 821.0681
877.4866, 812.3216
877.9687, 808.0318
878.4508, 818.1766
878.9329, 792.1273
879.4150, 811.3554
879.8972, 851.2231
880.3793, 875.5632
880.8614, 883.4795
881.3435, 870.9225
881.8256, 836.0682
882.3077, 803.0251
882.7899, 796.6301
883.2720, 805.8563
883.7541, 780.1722
884.2362, 710.2579
884.7183, 692.9326
885.2004, 752.9175
885.6826, 811.5137
886.1647, 826.7788
886.6468, 820.0861
887.1289, 829.1595
887.6110, 859.2672
888.0931, 859.2463
888.5753, 799.0707
889.0574, 760.2060
889.5395, 780.1395
890.0216, 806.6413
890.5037, 788.6785
890.9858, 745.3898
891.4680, 741.2474
891.9501, 805.0154
892.4322, 851.9203
892.9143, 869.3405
893.3964, 868.4869
893.8785, 828.5266
894.3607, 788.9588
894.8428, 810.3654
895.3249, 891.8859
895.8070, 951.4724
896.2891, 957.5580
896.7712, 933.1325
897.2534, 856.4591
897.7355, 780.8474
898.2176, 767.7061
898.6997, 802.5736
899.1818, 840.9987
899.6639, 867.6139
900.1461, 878.6248
900.6282, 864.5367
901.1103, 838.3931
901.5924, 803.5856
902.0745, 772.8953
902.5566, 787.0633
903.0388, 841.5869
903.5209, 863.7984
904.0030, 797.1051
904.4851, 713.8951
904.9672, 740.1368
905.4493, 840.3621
905.9315, 905.9690
906.4136, 931.3688
906.8957, 930.4662
907.3778, 908.0124
907.8599, 887.3760
908.3420, 895.3762
908.8242, 924.2818
909.3063, 944.8867
909.7884, 956.9753
910.2705, 966.9625
910.7526, 976.4443
911.2347, 977.4125
911.7169, 962.4758
912.1990, 943.6092
912.6811, 944.9896
913.1632, 969.1667
913.6453, 977.9920
914.1274, 965.8644
914.6096, 954.9428
915.0917, 951.2374
915.5738, 949.2492
916.0559, 944.2951
916.5380, 937.3174
917.0201, 932.2179
917.5023, 929.9602
917.9844, 927.4324
918.4665, 921.5142
918.9486, 919.4050
919.4307, 929.2495
919.9128, 940.4389
920.3950, 940.4208
920.8771, 929.7071
921.3592, 920.3485
921.8413, 917.6281
922.3234, 910.2418
922.8055, 885.1038
923.2877, 866.0259
923.7698, 866.4308
924.2519, 883.4069
924.7340, 915.5657
925.2161, 964.1058
925.6982, 1000.052
926.1804, 1015.664
926.6625, 1014.671
927.1446, 990.8699
927.6267, 957.4236
928.1088, 922.2435
928.5909, 889.5334
929.0731, 864.6436
929.5552, 848.2825
930.0373, 846.3466
930.5194, 881.7556
931.0015, 915.0150
931.4836, 893.3626
931.9658, 852.4246
932.4479, 861.9799
932.9300, 921.9056
933.4121, 965.2162
933.8942, 949.9479
934.3763, 913.7780
934.8585, 877.3962
935.3406, 854.6897
935.8227, 881.2001
936.3048, 938.5179
936.7869, 971.7394
937.2690, 964.7401
937.7512, 942.8671
938.2333, 921.2888
938.7154, 906.5823
939.1975, 916.6102
939.6796, 941.0822
940.1617, 950.3179
940.6439, 943.4526
941.1260, 937.5321
941.6081, 940.4613
942.0902, 946.5778
942.5723, 947.9152
943.0544, 947.2084
943.5366, 956.0586
944.0187, 972.4612
944.5008, 982.4780
944.9829, 983.4872
945.4650, 975.7623
945.9471, 958.3361
946.4293, 938.8021
946.9114, 930.5618
947.3935, 933.2507
947.8756, 943.0807
948.3577, 960.5332
948.8398, 974.2740
949.3220, 982.0701
949.8041, 976.7252
950.2862, 947.7285
950.7683, 909.6069
951.2504, 909.9666
951.7325, 954.5350
952.2147, 983.6619
952.6968, 996.3500
953.1789, 986.0583
953.6610, 943.4430
954.1431, 896.3995
954.6252, 875.1307
955.1074, 875.8235
955.5895, 876.5200
956.0716, 879.0724
956.5537, 874.8115
957.0358, 862.7514
957.5179, 843.9225
958.0001, 814.8345
958.4822, 784.8727
958.9643, 768.0121
959.4464, 764.1369
959.9285, 754.9680
960.4106, 724.4586
960.8928, 727.0316
961.3749, 798.1071
961.8570, 858.0436
962.3391, 853.4992
962.8212, 816.1902
963.3033, 802.9435
963.7855, 818.2065
964.2676, 826.0098
964.7497, 828.2699
965.2318, 819.9417
965.7139, 793.7346
966.1960, 763.2090
966.6782, 720.1388
967.1603, 682.8663
967.6424, 704.0405
968.1245, 813.5944
968.6066, 872.6089
969.0887, 833.2365
969.5709, 801.2307
970.0530, 809.7535
970.5351, 828.7596
971.0172, 837.7120
971.4993, 837.3002
971.9814, 830.8984
972.4636, 814.2236
972.9457, 804.2861
973.4278, 807.8785
973.9099, 812.6272
974.3920, 812.2708
974.8741, 812.3907
975.3563, 824.0603
975.8384, 842.0759
976.3205, 842.5107
976.8026, 813.3944
977.2847, 785.2144
977.7668, 760.4565
978.2490, 742.3689
978.7311, 732.5671
979.2132, 730.1445
979.6953, 735.2166
980.1774, 746.9883
980.6595, 761.2380
981.1417, 772.2668
981.6238, 794.2957
982.1059, 864.8681
982.5880, 911.3196
983.0701, 855.2168
983.5522, 768.6534
984.0344, 757.7770
984.5165, 825.5417
984.9986, 877.2502
985.4807, 876.5874
985.9628, 868.2430
986.4449, 860.4699
986.9271, 857.5359
987.4092, 871.6021
987.8913, 887.9507
988.3734, 875.1415
988.8555, 832.9675
989.3376, 816.6095
989.8198, 891.1772
990.3019, 935.2853
990.7840, 865.5201
991.2661, 778.7045
991.7482, 749.5334
992.2303, 760.3163
992.7125, 771.3434
993.1946, 775.2381
993.6767, 786.1207
994.1588, 815.4242
994.6409, 845.6633
995.1230, 867.3678
995.6052, 887.8998
996.0873, 907.0479
996.5694, 932.0836
997.0515, 984.6597
997.5336, 1067.969
998.0157, 1125.322
998.4979, 1112.270
998.9800, 1090.969
999.4621, 1090.894
999.9442, 1099.182
1000.426, 1100.196
1000.908, 1100.786
1001.391, 1120.185
1001.873, 1163.128
1002.355, 1203.443
1002.837, 1228.068
1003.319, 1249.168
1003.801, 1281.969
1004.283, 1306.965
1004.765, 1295.760
1005.247, 1263.973
1005.730, 1249.223
1006.212, 1261.412
1006.694, 1276.020
1007.176, 1298.424
1007.658, 1300.604
1008.140, 1233.160
1008.622, 1166.479
1009.104, 1190.780
1009.587, 1266.811
1010.069, 1289.762
1010.551, 1230.200
1011.033, 1171.981
1011.515, 1155.437
1011.997, 1143.763
1012.479, 1112.017
1012.961, 1080.646
1013.443, 1071.765
1013.926, 1079.337
1014.408, 1086.177
1014.890, 1088.382
1015.372, 1088.627
1015.854, 1082.766
1016.336, 1081.656
1016.818, 1109.828
1017.300, 1128.817
1017.783, 1082.693
1018.265, 1003.295
1018.747, 978.0250
1019.229, 1033.211
1019.711, 1056.151
1020.193, 972.7983
1020.675, 894.0471
1021.157, 866.0977
1021.639, 866.5408
1022.122, 891.0297
1022.604, 923.0389
1023.086, 930.1204
1023.568, 903.9789
1024.050, 876.3416
1024.532, 843.6464
1025.014, 827.8671
1025.496, 850.2898
1025.979, 881.1746
1026.461, 904.8362
1026.943, 916.2375
1027.425, 906.9066
1027.907, 873.9042
1028.389, 837.1675
1028.871, 770.0851
1029.353, 741.5534
1029.835, 812.5630
1030.318, 891.0610
1030.800, 901.7676
1031.282, 874.2160
1031.764, 875.7677
1032.246, 918.4374
1032.728, 939.3184
1033.210, 919.3287
1033.692, 891.8632
1034.175, 849.7105
1034.657, 817.1351
1035.139, 817.3890
1035.621, 834.7050
1036.103, 840.1824
1036.585, 831.0342
1037.067, 824.5828
1037.549, 827.5702
1038.031, 824.6436
1038.514, 799.6255
1038.996, 783.7887
1039.478, 811.5542
1039.960, 848.9876
1040.442, 833.0115
1040.924, 757.7581
1041.406, 732.4807
1041.888, 806.7463
1042.370, 837.8475
1042.853, 766.3740
1043.335, 719.7447
1043.817, 789.5209
1044.299, 892.1046
1044.781, 905.4496
1045.263, 832.4721
1045.745, 780.0381
1046.227, 744.5051
1046.710, 743.4879
1047.192, 797.2198
1047.674, 843.2535
1048.156, 850.4490
1048.638, 842.9060
1049.120, 851.8474
1049.602, 873.3683
1050.084, 875.7966
1050.567, 855.1847
1051.049, 830.6694
1051.531, 798.4459
1052.013, 785.5413
1052.495, 808.9162
1052.977, 834.3580
1053.459, 822.4385
1053.941, 785.8465
1054.423, 779.0552
1054.906, 804.6796
1055.388, 817.0823
1055.870, 813.9036
1056.352, 789.8922
1056.834, 739.2953
1057.316, 705.2899
1057.798, 731.3069
1058.280, 787.4674
1058.762, 795.9373
1059.245, 761.8639
1059.727, 729.6512
1060.209, 702.0836
1060.691, 697.5604
1061.173, 720.5835
1061.655, 758.5882
1062.137, 805.3234
1062.619, 845.3075
1063.102, 847.1462
1063.584, 820.8963
1064.066, 789.0391
1064.548, 759.2397
1065.030, 766.7716
1065.512, 813.1580
1065.994, 858.7877
1066.476, 881.5048
1066.958, 887.7953
1067.441, 874.5436
1067.923, 857.0094
1068.405, 868.5079
1068.887, 894.8706
1069.369, 899.4001
1069.851, 884.2354
1070.333, 882.4825
1070.815, 908.1456
1071.297, 932.6814
1071.780, 922.9663
1072.262, 908.3325
1072.744, 928.9173
1073.226, 957.5334
1073.708, 951.4089
1074.190, 920.7745
1074.672, 898.7922
1075.154, 895.5042
1075.637, 906.7151
1076.119, 941.9180
1076.601, 975.9179
1077.083, 992.5042
1077.565, 1001.705
1078.047, 1012.217
1078.529, 1022.022
1079.011, 1022.143
1079.493, 1013.601
1079.976, 1018.652
1080.458, 1061.496
1080.940, 1090.357
1081.422, 1082.212
1081.904, 1064.164
1082.386, 1050.302
1082.868, 1035.940
1083.350, 1012.297
1083.833, 981.3315
1084.315, 955.0025
1084.797, 919.7228
1085.279, 920.2858
1085.761, 992.9089
1086.243, 1057.042
1086.725, 1092.617
1087.207, 1108.571
1087.689, 1111.912
1088.172, 1100.875
1088.654, 1064.413
1089.136, 986.3912
1089.618, 969.6492
1090.100, 1047.081
1090.582, 1091.758
1091.064, 1068.247
1091.546, 1032.381
1092.028, 1018.787
1092.511, 1013.587
1092.993, 987.3752
1093.475, 944.2288
1093.957, 958.6297
1094.439, 1035.255
1094.921, 1081.372
1095.403, 1082.927
1095.885, 1095.898
1096.368, 1148.151
1096.850, 1194.277
1097.332, 1177.589
1097.814, 1125.104
1098.296, 1110.486
1098.778, 1125.624
1099.260, 1136.888
1099.742, 1142.036
1100.224, 1148.001
1100.707, 1155.951
1101.189, 1156.720
1101.671, 1144.519
1102.153, 1118.645
1102.635, 1061.966
1103.117, 1002.279
1103.599, 988.3149
1104.081, 1005.092
1104.563, 1024.595
1105.046, 1037.468
1105.528, 1035.840
1106.010, 1016.269
1106.492, 982.1427
1106.974, 913.9397
1107.456, 856.8130
1107.938, 852.6130
1108.420, 872.6084
1108.903, 891.4407
1109.385, 905.0195
1109.867, 916.9008
1110.349, 928.3206
1110.831, 917.7524
1111.313, 847.9054
1111.795, 798.8539
1112.277, 809.5565
1112.760, 831.4486
1113.242, 837.2289
1113.724, 834.8093
1114.206, 844.2426
1114.688, 862.7318
1115.170, 842.0700
1115.652, 737.5836
1116.134, 687.9001
1116.616, 728.7170
1117.099, 758.5312
1117.581, 740.9864
1118.063, 708.8677
1118.545, 686.2293
1119.027, 673.8828
1119.509, 673.6826
1119.991, 685.6366
1120.473, 716.2462
1120.955, 769.3955
1121.438, 788.9052
1121.920, 761.9897
1122.402, 727.2202
1122.884, 704.4885
1123.366, 700.6573
1123.848, 733.1075
1124.330, 784.6858
1124.812, 808.6986
1125.295, 807.6208
1125.777, 780.0931
1126.259, 734.6598
1126.741, 704.8817
1127.223, 700.7714
1127.705, 705.5196
1128.187, 709.7504
1128.669, 709.6552
1129.151, 686.3918
1129.634, 669.0261
1130.116, 717.3760
1130.598, 784.2873
1131.080, 777.4433
1131.562, 704.6414
1132.044, 651.4559
1132.526, 646.9249
1133.008, 662.9992
1133.490, 717.9413
1133.973, 751.3406
1134.455, 709.6201
1134.937, 657.5506
1135.419, 651.9771
1135.901, 674.6985
1136.383, 681.4848
1136.865, 667.1976
1137.347, 671.2794
1137.830, 711.3786
1138.312, 738.9105
1138.794, 750.3115
1139.276, 746.8707
1139.758, 715.5795
1140.240, 694.4503
1140.722, 727.6855
1141.204, 797.1056
1141.687, 841.0071
1142.169, 858.9347
1142.651, 858.1454
1143.133, 838.7449
1143.615, 790.6278
1144.097, 711.2643
1144.579, 663.6050
1145.061, 688.0577
1145.543, 736.3435
1146.026, 741.1956
1146.508, 723.9150
1146.990, 746.1608
1147.472, 782.0991
1147.954, 752.2502
1148.436, 675.6080
1148.918, 643.1165
1149.400, 676.9918
1149.882, 712.6495
1150.365, 707.8065
1150.847, 696.0782
1151.329, 705.8250
1151.811, 716.5087
1152.293, 703.0861
1152.775, 684.8954
1153.257, 685.6681
1153.739, 706.1989
1154.222, 744.2667
1154.704, 811.3428
1155.186, 839.9628
1155.668, 775.6306
1156.150, 733.5461
1156.632, 765.3794
1157.114, 796.6342
1157.596, 783.4056
1158.078, 752.5015
1158.561, 743.6152
1159.043, 752.5015
1159.525, 736.2570
1160.007, 687.3163
1160.489, 662.7441
1160.971, 668.0203
1161.453, 680.2080
1161.935, 693.4731
1162.417, 695.7043
1162.900, 676.6999
1163.382, 647.7360
1163.864, 619.8356
1164.346, 600.3997
1164.828, 622.6947
1165.310, 668.5499
1165.792, 686.0807
1166.274, 673.8155
1166.757, 653.4869
1167.239, 633.7300
1167.721, 620.4199
1168.203, 623.7162
1168.685, 624.0027
1169.167, 597.8810
1169.649, 571.1602
1170.131, 568.4888
1170.614, 578.2023
1171.096, 583.8749
1171.578, 585.2175
1172.060, 590.9391
1172.542, 606.5515
1173.024, 612.0645
1173.506, 600.8135
1173.988, 584.9855
1174.470, 557.4146
1174.953, 540.4060
1175.435, 549.8846
1175.917, 571.8356
1176.399, 588.8336
1176.881, 600.1871
1177.363, 598.1507
1177.845, 581.9113
1178.327, 579.9008
1178.809, 593.2988
1179.292, 592.4688
1179.774, 570.6228
1180.256, 569.9258
1180.738, 621.2707
1181.220, 675.0217
1181.702, 651.3684
1182.184, 598.1177
1182.666, 604.7166
1183.149, 632.7106
1183.631, 601.9993
1184.113, 534.4254
1184.595, 508.0537
1185.077, 538.0767
1185.559, 564.8148
1186.041, 552.9733
1186.523, 550.4307
1187.005, 594.2459
1187.488, 630.4835
1187.970, 622.6544
1188.452, 600.7115
1188.934, 591.3348
1189.416, 592.7581
1189.898, 600.9147
1190.380, 611.5281
1190.862, 618.7514
1191.344, 623.9282
1191.827, 627.1748
1192.309, 622.6814
1192.791, 628.1758
1193.273, 629.6672
1193.755, 630.9952
1194.237, 637.8953
1194.719, 576.3654
1195.201, 648.5245
1195.684, 689.1634
1196.166, 699.9751
1196.648, 591.6251
1197.130, 637.1477
1197.612, 621.0052
1198.094, 602.3340
1198.576, 669.5135
1199.058, 578.4953
1199.541, 644.3137
1200.023, 647.5255
1200.505, 679.3907
1200.987, 649.2099
1201.469, 638.1931
1201.951, 689.2421
1202.433, 705.9248
1202.915, 668.6016
1203.397, 702.2880
1203.880, 609.1028
1204.362, 627.2493
1204.844, 693.4305
1205.326, 659.2269
1205.808, 694.0478
1206.290, 702.5804
1206.772, 591.6433
1207.254, 688.4759
1207.736, 695.4549
1208.219, 610.1743
1208.701, 699.8879
1209.183, 627.3259
1209.665, 612.6865
1210.147, 641.6373
1210.629, 625.1468
1211.111, 680.2999
1211.593, 666.4335
1212.076, 646.4009
1212.558, 653.2792
1213.040, 583.8994
1213.522, 655.9937
1214.004, 631.4492
1214.486, 654.9417
1214.968, 689.3224
1215.450, 597.3601
1215.932, 563.3373
1216.415, 543.0965
1216.897, 539.0721
1217.379, 551.2609
1217.861, 583.4417
1218.343, 657.7384
1218.825, 674.5552
1219.307, 600.2288
1219.789, 550.0556
1220.271, 585.9290
1220.754, 628.4056
1221.236, 581.4164
1221.718, 500.1040
1222.200, 523.9976
1222.682, 605.9637
1223.164, 611.6784
1223.646, 567.2012
1224.128, 561.9526
1224.611, 595.2505
1225.093, 596.1871
1225.575, 538.8098
1226.057, 497.3688
1226.539, 527.1434
1227.021, 561.9455
1227.503, 570.9908
1227.985, 577.5819
1228.468, 600.6443
1228.950, 625.4558
1229.432, 635.8658
1229.914, 633.9272
1230.396, 624.1374
1230.878, 604.7812
1231.360, 596.8678
1231.842, 602.5676
1232.324, 601.2855
1232.807, 589.7266
1233.289, 534.6073
1233.771, 608.0458
1234.253, 649.9636
1234.735, 662.0543
1235.217, 554.9836
1235.699, 601.7851
1236.181, 586.9218
1236.663, 569.5296
1237.146, 637.9913
1237.628, 548.2524
1238.110, 615.3493
1238.592, 619.8405
1239.074, 652.9845
1239.556, 624.0829
1240.038, 614.3451
1240.520, 666.6734
1241.003, 684.6383
1241.485, 648.5939
1241.967, 683.5597
1242.449, 591.6530
1242.931, 611.0787
1243.413, 678.5388
1243.895, 645.6144
1244.377, 681.7142
1244.859, 691.5260
1245.342, 581.8712
1245.824, 626.9811
1246.306, 636.4426
1246.788, 664.6556
1247.270, 705.1194
1247.752, 701.5983
1248.234, 617.0078
1248.716, 553.6127
1249.198, 612.1403
1249.681, 684.5713
1250.163, 716.3206
1250.645, 717.2945
1251.127, 669.6186
1251.609, 614.1313
1252.091, 618.4594
1252.573, 668.3766
1253.055, 684.2253
1253.538, 653.0745
1254.020, 658.0738
1254.502, 708.7039
1254.984, 732.3644
1255.466, 715.4374
1255.948, 710.9110
1256.430, 742.0560
1256.912, 769.0133
1257.395, 753.9051
1257.877, 720.9930
1258.359, 689.7432
1258.841, 675.1297
1259.323, 719.6484
1259.805, 780.6963
1260.287, 785.6027
1260.769, 753.6173
1261.251, 750.6037
1261.734, 788.2843
1262.216, 821.1805
1262.698, 865.8928
1263.180, 855.8342
1263.662, 734.0057
1264.144, 676.1047
1264.626, 751.9440
1265.108, 834.4313
1265.590, 842.9660
1266.073, 812.0544
1266.555, 782.3206
1267.037, 763.8514
1267.519, 799.7486
1268.001, 865.0564
1268.483, 887.1091
1268.965, 881.5931
1269.447, 917.3660
1269.930, 983.5503
1270.412, 979.2415
1270.894, 863.1016
1271.376, 788.8174
1271.858, 871.7623
1272.340, 933.0660
1272.822, 937.9553
##END=



