##NAMES=Bavenite
##RRUFFID=R060128
##IDEAL CHEMISTRY=Ca_4_Be_2+x_Al_2-x_Si_9_O_26-x_(OH)_2+x_ (x = 0 to 1)
##LOCALITY=Foot mine, Kings Mountain, Cleveland County, North Carolina, USA
##OWNER=RRUFF
##SOURCE=University of Arizona Mineral Museum
##DESCRIPTION=White bladed radial aggregate
##STATUS=The identification of this mineral is confirmed by single-crystal X-ray diffraction and chemical analysis.
##URL=rruff.info/R060128
##MEASURED CHEMISTRY=Ca_4.00_Be_2.00_(Al_1.98_Fe^3+^_0.02_)_Î£=2_Si_9.00_O_26_(OH)_2_
92.02539, 280.2223
92.50751, 295.4288
92.98962, 304.6510
93.47174, 298.5809
93.95386, 285.7213
94.43597, 271.5514
94.91809, 258.3436
95.40021, 246.2885
95.88232, 235.0974
96.36444, 224.6657
96.84656, 215.2858
97.32867, 207.3142
97.81078, 200.4157
98.29290, 194.0910
98.77502, 187.8510
99.25713, 181.3955
99.73925, 175.1377
100.2214, 168.3879
100.7035, 162.3354
101.1856, 157.4017
101.6677, 153.6144
102.1498, 150.8731
102.6320, 149.1005
103.1141, 148.5487
103.5962, 148.5729
104.0783, 150.0077
104.5604, 151.6720
105.0425, 152.5567
105.5247, 152.5458
106.0068, 151.0076
106.4889, 146.2884
106.9710, 138.1434
107.4531, 129.7588
107.9352, 122.1743
108.4173, 115.3868
108.8995, 109.3381
109.3816, 104.0203
109.8637, 99.53699
110.3458, 95.95729
110.8279, 93.34528
111.3100, 91.36246
111.7922, 89.63650
112.2743, 88.17820
112.7564, 86.98557
113.2385, 86.12930
113.7206, 85.46925
114.2027, 84.91788
114.6849, 84.44824
115.1670, 84.03252
115.6491, 83.58145
116.1312, 83.01669
116.6133, 82.50229
117.0954, 82.09427
117.5776, 81.74745
118.0597, 81.37927
118.5418, 80.92001
119.0239, 80.36477
119.5060, 79.99428
119.9881, 79.63981
120.4703, 79.56939
120.9524, 80.15656
121.4345, 81.25002
121.9166, 82.19896
122.3987, 82.33699
122.8808, 81.49285
123.3630, 80.96165
123.8451, 80.84582
124.3272, 80.98753
124.8093, 81.28509
125.2914, 81.74242
125.7735, 82.24004
126.2557, 82.62357
126.7378, 82.91814
127.2199, 83.23905
127.7020, 83.72343
128.1841, 84.28291
128.6662, 84.61058
129.1483, 84.55247
129.6305, 84.36393
130.1126, 84.27040
130.5947, 84.26170
131.0768, 84.21935
131.5589, 83.98393
132.0410, 83.51192
132.5232, 83.20690
133.0053, 83.10639
133.4874, 83.20251
133.9695, 83.60926
134.4516, 84.31385
134.9337, 85.08401
135.4159, 85.53357
135.8980, 85.35937
136.3801, 85.44282
136.8622, 86.00515
137.3443, 86.70576
137.8264, 87.20767
138.3086, 87.38989
138.7907, 87.43776
139.2728, 87.85864
139.7549, 88.69050
140.2370, 89.88994
140.7191, 91.44164
141.2013, 93.36453
141.6834, 95.68962
142.1655, 98.41933
142.6476, 101.5765
143.1297, 105.2131
143.6118, 110.2223
144.0939, 114.6954
144.5761, 118.5826
145.0582, 121.5766
145.5403, 122.2409
146.0224, 119.3198
146.5045, 113.2303
146.9866, 106.2677
147.4688, 97.51659
147.9509, 88.75370
148.4330, 81.60064
148.9151, 76.12756
149.3972, 71.79031
149.8793, 68.70851
150.3615, 66.45193
150.8436, 64.64535
151.3257, 63.28864
151.8078, 62.24152
152.2899, 61.19816
152.7720, 60.07772
153.2542, 59.10452
153.7363, 58.33943
154.2184, 57.74896
154.7005, 57.28402
155.1826, 56.93849
155.6647, 56.70052
156.1469, 56.45830
156.6290, 56.27802
157.1111, 56.02146
157.5932, 55.54023
158.0753, 54.94405
158.5574, 54.46913
159.0396, 54.33989
159.5217, 54.61269
160.0038, 54.71216
160.4859, 54.58298
160.9680, 54.35987
161.4501, 54.01094
161.9323, 53.58805
162.4144, 53.24183
162.8965, 53.14410
163.3786, 53.37958
163.8607, 53.51046
164.3428, 53.47469
164.8250, 53.38775
165.3071, 53.32125
165.7892, 53.28863
166.2713, 53.28117
166.7534, 53.30312
167.2355, 53.36512
167.7177, 53.36863
168.1998, 53.22298
168.6819, 53.04099
169.1640, 52.97974
169.6461, 53.08596
170.1282, 53.25925
170.6104, 53.41493
171.0925, 53.55590
171.5746, 53.60774
172.0567, 53.56934
172.5388, 53.42241
173.0209, 53.07064
173.5031, 52.33995
173.9852, 51.62243
174.4673, 51.22121
174.9494, 51.12138
175.4315, 51.19366
175.9136, 51.45983
176.3958, 51.90773
176.8779, 52.13862
177.3600, 51.89880
177.8421, 51.58018
178.3242, 51.38085
178.8063, 51.31658
179.2885, 51.33431
179.7706, 51.43525
180.2527, 51.68696
180.7348, 51.71737
181.2169, 51.23445
181.6990, 50.72633
182.1812, 50.48006
182.6633, 50.52455
183.1454, 50.66929
183.6275, 50.64674
184.1096, 50.38025
184.5917, 50.09458
185.0738, 49.74230
185.5560, 49.40706
186.0381, 49.16321
186.5202, 49.02374
187.0023, 48.93073
187.4844, 48.78236
187.9665, 48.46966
188.4487, 48.28319
188.9308, 48.30323
189.4129, 48.40445
189.8950, 48.46428
190.3771, 48.44269
190.8592, 48.39904
191.3414, 48.45443
191.8235, 48.67678
192.3056, 48.86951
192.7877, 48.98128
193.2698, 49.06008
193.7519, 49.17059
194.2341, 49.33698
194.7162, 49.53912
195.1983, 49.75145
195.6804, 49.99768
196.1625, 50.18718
196.6446, 50.24685
197.1268, 50.22974
197.6089, 50.27494
198.0910, 50.46841
198.5731, 50.67762
199.0552, 50.67057
199.5373, 50.40984
200.0195, 50.17209
200.5016, 50.08887
200.9837, 50.14975
201.4658, 50.33378
201.9479, 50.79958
202.4300, 51.21119
202.9122, 51.14163
203.3943, 50.53343
203.8764, 49.93735
204.3585, 49.82902
204.8406, 50.20478
205.3227, 50.57053
205.8048, 50.75117
206.2870, 50.92886
206.7691, 51.24879
207.2512, 51.72497
207.7333, 52.23902
208.2154, 52.61836
208.6975, 52.80964
209.1797, 53.18574
209.6618, 54.02874
210.1439, 54.93102
210.6260, 55.62453
211.1081, 56.08038
211.5902, 56.51936
212.0724, 57.30219
212.5545, 58.65136
213.0366, 59.64043
213.5187, 60.14453
214.0008, 60.35136
214.4829, 60.33323
214.9651, 60.11830
215.4472, 59.73176
215.9293, 59.21203
216.4114, 58.57632
216.8935, 57.73978
217.3756, 56.56285
217.8578, 55.32189
218.3399, 54.11914
218.8220, 53.01672
219.3041, 52.10425
219.7862, 51.55650
220.2683, 51.69299
220.7505, 51.58278
221.2326, 51.05633
221.7147, 50.41762
222.1968, 49.86056
222.6789, 49.44379
223.1610, 49.16510
223.6432, 49.03716
224.1253, 49.21009
224.6074, 49.21678
225.0895, 48.87103
225.5716, 48.46384
226.0537, 48.25987
226.5358, 48.31966
227.0180, 48.53005
227.5001, 48.75981
227.9822, 49.04736
228.4643, 49.20991
228.9464, 49.08778
229.4285, 48.90326
229.9107, 48.93288
230.3928, 49.24428
230.8749, 49.61221
231.3570, 49.72567
231.8391, 49.55997
232.3212, 49.43554
232.8034, 49.47899
233.2855, 49.56052
233.7676, 49.51694
234.2497, 49.31495
234.7318, 49.01306
235.2139, 48.57448
235.6961, 48.02438
236.1782, 47.68844
236.6603, 47.68748
237.1424, 47.93855
237.6245, 48.36799
238.1066, 49.02152
238.5888, 49.67673
239.0709, 50.19678
239.5530, 50.57845
240.0351, 50.72231
240.5172, 50.45237
240.9993, 49.94918
241.4815, 49.48983
241.9636, 48.99962
242.4457, 48.80117
242.9278, 49.42118
243.4099, 50.50322
243.8920, 51.29803
244.3742, 51.33678
244.8563, 50.89675
245.3384, 50.59599
245.8205, 50.45826
246.3026, 50.41524
246.7847, 50.52985
247.2668, 50.69350
247.7490, 50.72637
248.2311, 50.54387
248.7132, 50.18110
249.1953, 49.69076
249.6774, 48.99639
250.1595, 48.33187
250.6417, 47.69168
251.1238, 47.16063
251.6059, 46.91637
252.0880, 47.15160
252.5701, 47.58203
253.0522, 47.42596
253.5344, 46.30168
254.0165, 45.33649
254.4986, 45.00932
254.9807, 44.94416
255.4628, 44.68535
255.9449, 44.00051
256.4271, 43.15602
256.9092, 42.82059
257.3913, 43.35540
257.8734, 43.72456
258.3555, 43.57372
258.8376, 43.25898
259.3198, 43.13767
259.8019, 43.35168
260.2840, 43.72060
260.7661, 43.84594
261.2482, 43.52441
261.7303, 43.34588
262.2125, 43.45913
262.6946, 43.67035
263.1767, 43.84289
263.6588, 43.92827
264.1409, 43.92714
264.6230, 43.82122
265.1052, 43.49509
265.5873, 43.29397
266.0694, 43.36210
266.5515, 43.45548
267.0336, 43.34620
267.5157, 43.00551
267.9979, 42.62903
268.4800, 42.53030
268.9621, 42.91851
269.4442, 43.13244
269.9263, 43.11419
270.4084, 43.00234
270.8906, 42.83917
271.3727, 42.65547
271.8548, 42.51168
272.3369, 42.48954
272.8190, 42.63739
273.3011, 42.75063
273.7833, 42.81150
274.2654, 42.86025
274.7475, 42.91047
275.2296, 42.96804
275.7117, 43.03241
276.1938, 43.09050
276.6760, 43.11497
277.1581, 43.32120
277.6402, 44.00321
278.1223, 44.55645
278.6044, 44.58867
279.0865, 44.20945
279.5686, 43.84292
280.0508, 43.84658
280.5329, 44.23157
281.0150, 44.43067
281.4971, 44.32072
281.9792, 44.19090
282.4613, 44.25063
282.9435, 44.38342
283.4256, 44.27127
283.9077, 43.67137
284.3898, 42.66343
284.8719, 42.00683
285.3540, 41.91004
285.8362, 41.86443
286.3183, 41.70251
286.8004, 41.50390
287.2825, 41.46560
287.7646, 41.71535
288.2467, 42.11517
288.7289, 42.17006
289.2110, 41.59230
289.6931, 41.05653
290.1752, 40.61885
290.6573, 40.29639
291.1394, 40.15028
291.6216, 40.21178
292.1037, 40.37912
292.5858, 40.44631
293.0679, 40.38935
293.5500, 40.27773
294.0321, 40.05504
294.5143, 39.80793
294.9964, 39.64909
295.4785, 39.60768
295.9606, 39.59895
296.4427, 39.49235
296.9248, 39.22293
297.4070, 39.06093
297.8891, 39.09337
298.3712, 39.19041
298.8533, 39.26035
299.3354, 39.28320
299.8175, 39.24218
300.2997, 39.10081
300.7818, 38.83409
301.2639, 38.65868
301.7460, 38.64709
302.2281, 38.66877
302.7102, 38.63452
303.1924, 38.54393
303.6745, 38.43980
304.1566, 38.33327
304.6387, 38.23778
305.1208, 38.28810
305.6029, 38.65280
306.0851, 38.98615
306.5672, 39.11703
307.0493, 39.07153
307.5314, 38.93521
308.0135, 38.73161
308.4956, 38.49351
308.9778, 38.36894
309.4599, 38.39311
309.9420, 38.46132
310.4241, 38.58459
310.9062, 38.72555
311.3883, 38.80324
311.8705, 38.77841
312.3526, 38.69271
312.8347, 38.64807
313.3168, 38.70783
313.7989, 38.65937
314.2810, 38.27879
314.7632, 37.82934
315.2453, 37.72445
315.7274, 38.09121
316.2095, 38.58747
316.6916, 38.74816
317.1737, 38.50257
317.6559, 38.21126
318.1380, 37.70776
318.6201, 37.28530
319.1022, 37.34312
319.5843, 37.89883
320.0664, 38.42521
320.5485, 38.37207
321.0306, 37.67978
321.5128, 37.35234
321.9949, 37.72702
322.4770, 38.16907
322.9591, 38.22002
323.4412, 37.93737
323.9233, 37.70905
324.4055, 37.80968
324.8876, 38.18555
325.3697, 38.42405
325.8518, 38.49277
326.3339, 38.48605
326.8160, 38.37915
327.2982, 38.22371
327.7803, 38.13476
328.2624, 38.17266
328.7445, 38.29169
329.2266, 38.37092
329.7087, 38.39309
330.1909, 38.41371
330.6730, 38.44385
331.1551, 38.47757
331.6372, 38.50174
332.1193, 38.51218
332.6014, 38.52610
333.0836, 38.55775
333.5657, 38.57890
334.0478, 38.72894
334.5299, 39.13372
335.0120, 39.58881
335.4941, 39.92924
335.9763, 40.13477
336.4584, 40.28837
336.9405, 40.46899
337.4226, 40.68274
337.9047, 40.81763
338.3868, 40.79322
338.8690, 40.77597
339.3511, 40.81324
339.8332, 40.92484
340.3153, 41.16184
340.7974, 41.57399
341.2795, 42.12466
341.7617, 42.57220
342.2438, 42.86493
342.7259, 43.13235
343.2080, 43.37273
343.6901, 43.61339
344.1722, 43.93557
344.6544, 44.37718
345.1365, 44.80790
345.6186, 44.94966
346.1007, 44.52559
346.5828, 44.21517
347.0649, 44.13670
347.5471, 44.10793
348.0292, 44.02110
348.5113, 43.83529
348.9934, 43.47840
349.4755, 42.83943
349.9576, 41.80517
350.4398, 40.94623
350.9219, 40.33786
351.4040, 39.80497
351.8861, 39.24790
352.3682, 38.68724
352.8503, 38.21556
353.3325, 37.91645
353.8146, 37.77633
354.2967, 37.57282
354.7788, 37.11343
355.2609, 36.81016
355.7430, 36.88702
356.2252, 37.13748
356.7073, 37.25803
357.1894, 37.10290
357.6715, 36.78379
358.1536, 36.57886
358.6357, 36.55101
359.1179, 36.55410
359.5999, 36.63977
360.0821, 36.71606
360.5642, 36.67585
361.0463, 36.51472
361.5284, 36.35194
362.0105, 36.35130
362.4926, 36.57826
362.9748, 36.71425
363.4569, 36.66734
363.9390, 36.62170
364.4211, 36.68789
364.9032, 36.82814
365.3853, 36.91981
365.8675, 36.85687
366.3496, 36.66242
366.8317, 36.55490
367.3138, 36.51578
367.7959, 36.60395
368.2780, 36.91093
368.7602, 37.31659
369.2423, 37.69424
369.7244, 37.99031
370.2065, 38.19768
370.6886, 38.30360
371.1707, 38.31050
371.6529, 38.19911
372.1350, 37.84440
372.6171, 37.46659
373.0992, 37.24503
373.5813, 37.18677
374.0634, 37.11180
374.5456, 36.76255
375.0277, 36.11540
375.5098, 35.73087
375.9919, 35.82464
376.4740, 35.97558
376.9561, 35.94916
377.4383, 35.82447
377.9204, 35.81455
378.4025, 36.13836
378.8846, 36.60551
379.3667, 36.60391
379.8488, 35.88515
380.3310, 35.34414
380.8131, 35.56238
381.2952, 36.04047
381.7773, 36.26636
382.2594, 36.08277
382.7415, 35.75928
383.2237, 35.53507
383.7058, 35.40965
384.1879, 35.45973
384.6700, 35.84944
385.1521, 36.27412
385.6342, 36.43298
386.1164, 36.34214
386.5985, 36.26900
387.0806, 36.42389
387.5627, 36.69627
388.0448, 36.80262
388.5269, 36.68215
389.0091, 36.52430
389.4912, 36.47841
389.9733, 36.49916
390.4554, 36.48531
390.9375, 36.35595
391.4196, 36.24038
391.9018, 36.29885
392.3839, 36.50867
392.8660, 36.64544
393.3481, 36.56247
393.8302, 36.39722
394.3123, 36.43022
394.7945, 36.71584
395.2766, 36.99824
395.7587, 37.18933
396.2408, 37.30898
396.7229, 37.34243
397.2050, 37.27059
397.6872, 37.26334
398.1693, 37.07272
398.6514, 37.67360
399.1335, 38.09420
399.6156, 38.34419
400.0977, 37.91262
400.5798, 38.36116
401.0620, 38.45702
401.5441, 38.53838
402.0262, 39.11078
402.5083, 38.77834
402.9904, 39.34293
403.4725, 39.69361
403.9547, 39.98828
404.4368, 40.36385
404.9189, 40.74448
405.4010, 41.05386
405.8831, 41.26369
406.3652, 41.35470
406.8474, 41.30715
407.3295, 41.15877
407.8116, 40.72124
408.2937, 39.67156
408.7758, 38.65529
409.2579, 38.08051
409.7401, 37.87699
410.2222, 37.70694
410.7043, 37.30920
411.1864, 36.72541
411.6685, 36.31321
412.1506, 36.30925
412.6328, 36.19037
413.1149, 35.73784
413.5970, 35.19690
414.0791, 34.84641
414.5612, 34.77929
415.0433, 34.86342
415.5255, 34.91482
416.0076, 34.94719
416.4897, 34.89839
416.9718, 34.61074
417.4539, 34.37276
417.9360, 34.36453
418.4182, 34.54058
418.9003, 34.71250
419.3824, 34.72009
419.8645, 34.61684
420.3466, 34.66822
420.8287, 34.98169
421.3109, 35.22329
421.7930, 35.20543
422.2751, 35.07009
422.7572, 34.96278
423.2393, 34.92068
423.7214, 34.92426
424.2036, 34.92610
424.6857, 34.93127
425.1678, 35.08173
425.6499, 35.48546
426.1320, 35.95128
426.6141, 36.34826
427.0963, 36.67013
427.5784, 36.85169
428.0605, 36.69342
428.5426, 36.44777
429.0247, 36.55489
429.5068, 37.05738
429.9890, 37.57657
430.4711, 37.87236
430.9532, 38.00296
431.4353, 38.18721
431.9174, 38.47794
432.3995, 38.74522
432.8817, 38.93628
433.3638, 39.05495
433.8459, 39.07553
434.3280, 38.97300
434.8101, 38.87492
435.2922, 38.95626
435.7744, 39.24656
436.2565, 39.63553
436.7386, 40.24886
437.2207, 40.85654
437.7028, 41.28044
438.1849, 41.54004
438.6671, 41.75302
439.1492, 41.98712
439.6313, 42.25228
440.1134, 42.60294
440.5955, 43.09055
441.0776, 43.60418
441.5598, 44.05636
442.0418, 44.56642
442.5240, 45.29623
443.0061, 46.26617
443.4882, 47.31584
443.9703, 48.22643
444.4524, 48.96486
444.9345, 49.73216
445.4167, 50.73960
445.8988, 51.56336
446.3809, 52.04215
446.8630, 52.21795
447.3451, 52.23003
447.8272, 52.18855
448.3094, 51.94403
448.7915, 51.05431
449.2736, 49.31376
449.7557, 47.51345
450.2378, 45.63525
450.7199, 43.89855
451.2021, 42.52204
451.6842, 41.51215
452.1663, 40.59733
452.6484, 39.50748
453.1305, 38.31919
453.6126, 37.42853
454.0948, 36.94180
454.5769, 36.56598
455.0590, 36.09865
455.5411, 35.60649
456.0232, 35.21237
456.5053, 34.94546
456.9875, 34.78393
457.4696, 34.80489
457.9517, 34.94613
458.4338, 34.86729
458.9159, 34.35743
459.3980, 33.77461
459.8802, 33.76269
460.3623, 34.38584
460.8444, 34.77398
461.3265, 34.64108
461.8086, 34.29741
462.2907, 33.92135
462.7729, 33.56966
463.2550, 33.41297
463.7371, 33.61267
464.2192, 34.07647
464.7013, 34.27185
465.1834, 33.79443
465.6656, 33.58166
466.1477, 33.52929
466.6298, 33.99097
467.1119, 34.27236
467.5940, 34.38316
468.0761, 33.81239
468.5583, 34.12173
469.0404, 34.07836
469.5225, 34.02052
470.0046, 34.45372
470.4867, 33.98208
470.9688, 34.40749
471.4510, 34.47483
471.9331, 34.70604
472.4152, 34.58237
472.8973, 35.06624
473.3794, 35.23270
473.8615, 34.94715
474.3437, 34.69948
474.8258, 34.46531
475.3079, 34.39801
475.7900, 34.73893
476.2721, 35.39819
476.7542, 35.90715
477.2364, 35.80408
477.7185, 35.38307
478.2006, 35.34288
478.6827, 35.73835
479.1648, 36.20908
479.6469, 36.64360
480.1291, 37.00256
480.6112, 37.19045
481.0933, 37.10388
481.5754, 37.12466
482.0575, 37.52147
482.5396, 38.13980
483.0217, 38.69825
483.5038, 39.14029
483.9860, 39.54708
484.4681, 39.99397
484.9502, 40.48226
485.4323, 40.97395
485.9144, 41.38289
486.3965, 41.88355
486.8787, 42.58076
487.3608, 43.41916
487.8429, 44.36359
488.3250, 45.40197
488.8071, 46.34624
489.2892, 46.81873
489.7714, 46.51213
490.2535, 46.49499
490.7356, 46.86503
491.2177, 47.38094
491.6998, 48.04519
492.1819, 48.75266
492.6641, 49.30340
493.1462, 49.56164
493.6283, 49.59438
494.1104, 49.61562
494.5925, 49.69832
495.0746, 49.57035
495.5568, 49.03048
496.0389, 48.35155
496.5210, 47.60668
497.0031, 46.84589
497.4852, 46.31754
497.9673, 46.37901
498.4495, 46.79728
498.9316, 46.91344
499.4137, 46.66223
499.8958, 46.31050
500.3779, 45.98621
500.8600, 45.66405
501.3422, 45.27167
501.8243, 44.70719
502.3064, 44.28509
502.7885, 44.27960
503.2706, 44.49038
503.7527, 44.57639
504.2349, 44.46447
504.7170, 44.19686
505.1991, 43.77552
505.6812, 43.18356
506.1633, 42.77466
506.6454, 42.78663
507.1276, 42.69779
507.6097, 42.20210
508.0918, 41.51406
508.5739, 41.00463
509.0560, 40.80510
509.5381, 40.70228
510.0203, 40.34616
510.5024, 39.64315
510.9845, 39.00637
511.4666, 38.47615
511.9487, 37.97414
512.4308, 37.42085
512.9130, 36.87769
513.3951, 36.46202
513.8772, 36.23402
514.3593, 36.15916
514.8414, 36.22854
515.3235, 36.47844
515.8057, 36.59439
516.2878, 36.46153
516.7699, 36.20691
517.2520, 35.89790
517.7341, 35.55252
518.2162, 35.28362
518.6984, 35.13718
519.1805, 35.09247
519.6626, 35.16639
520.1447, 35.34651
520.6268, 35.46743
521.1089, 35.41175
521.5911, 35.29535
522.0732, 35.42153
522.5553, 35.91171
523.0374, 36.24813
523.5195, 36.23260
524.0016, 36.10597
524.4838, 36.04527
524.9659, 36.07605
525.4480, 36.18591
525.9301, 36.37705
526.4122, 36.62388
526.8943, 36.79795
527.3765, 36.87531
527.8586, 36.90467
528.3407, 36.76851
528.8228, 36.67281
529.3049, 36.76918
529.7870, 37.08113
530.2692, 37.56892
530.7513, 38.28578
531.2334, 39.15861
531.7155, 39.72448
532.1976, 39.84679
532.6797, 39.97682
533.1619, 40.41673
533.6440, 40.90464
534.1261, 41.18665
534.6082, 41.22125
535.0903, 41.07903
535.5724, 40.76510
536.0546, 40.31590
536.5367, 39.77916
537.0188, 39.15372
537.5009, 38.53098
537.9830, 37.96959
538.4651, 37.47020
538.9473, 37.03161
539.4294, 36.74280
539.9115, 36.39552
540.3936, 35.74619
540.8757, 35.09145
541.3578, 34.90386
541.8400, 35.22205
542.3221, 35.55970
542.8042, 35.39972
543.2863, 34.73225
543.7684, 34.17760
544.2505, 33.63180
544.7326, 33.02868
545.2147, 33.41871
545.6968, 33.62847
546.1790, 33.66762
546.6611, 33.02522
547.1432, 33.26291
547.6253, 33.14789
548.1074, 33.01842
548.5895, 33.37998
549.0717, 32.83670
549.5538, 33.19047
550.0359, 33.18616
550.5180, 33.34573
551.0001, 33.15043
551.4822, 33.06474
551.9644, 33.33403
552.4465, 33.40677
552.9286, 33.17061
553.4107, 33.34060
553.8928, 32.78493
554.3749, 32.86604
554.8571, 33.22189
555.3392, 33.00357
555.8213, 33.18006
556.3034, 33.20618
556.7855, 32.54898
557.2676, 33.08014
557.7498, 33.09737
558.2319, 32.70515
558.7140, 32.68982
559.1961, 32.67794
559.6782, 32.62059
560.1603, 32.51705
560.6425, 32.46359
561.1246, 32.50759
561.6067, 32.53335
562.0888, 32.51247
562.5709, 32.45360
563.0530, 32.36092
563.5352, 32.23486
564.0173, 32.09533
564.4994, 31.87381
564.9815, 31.64866
565.4636, 31.72676
565.9457, 32.18805
566.4279, 32.69695
566.9100, 33.10764
567.3921, 33.36920
567.8742, 33.35245
568.3563, 32.83293
568.8384, 32.41112
569.3206, 32.38976
569.8027, 32.52703
570.2848, 32.51320
570.7669, 32.31383
571.2490, 32.09182
571.7311, 31.97269
572.2133, 31.96305
572.6954, 32.15073
573.1775, 32.88133
573.6596, 33.32774
574.1417, 33.25272
574.6238, 32.95488
575.1060, 32.63186
575.5881, 32.34111
576.0702, 32.12820
576.5523, 32.04206
577.0344, 32.06272
577.5165, 32.13759
577.9987, 32.29018
578.4808, 32.39949
578.9629, 32.46774
579.4450, 32.42006
579.9271, 32.09129
580.4092, 31.41092
580.8914, 30.93859
581.3735, 31.04140
581.8556, 31.36125
582.3377, 31.51838
582.8198, 31.50082
583.3019, 31.44044
583.7841, 31.40654
584.2662, 31.39658
584.7483, 31.40661
585.2304, 31.49973
585.7125, 31.50429
586.1946, 31.32143
586.6768, 31.14276
587.1589, 31.09444
587.6410, 31.15285
588.1231, 31.22013
588.6052, 31.23305
589.0873, 31.24272
589.5695, 31.40439
590.0516, 31.76371
590.5337, 31.93793
591.0158, 31.79024
591.4979, 31.50480
591.9800, 31.17019
592.4622, 30.81940
592.9443, 30.59583
593.4264, 30.61891
593.9085, 30.71763
594.3906, 30.78240
594.8727, 30.81161
595.3549, 30.78655
595.8370, 30.69733
596.3191, 30.59917
596.8012, 30.54830
597.2833, 30.53476
597.7654, 30.64954
598.2476, 31.09200
598.7297, 31.41334
599.2118, 31.43303
599.6939, 31.27065
600.1760, 31.05152
600.6581, 30.82398
601.1403, 30.63732
601.6224, 30.57952
602.1045, 30.64141
602.5866, 30.59627
603.0687, 30.37395
603.5508, 30.19954
604.0330, 30.21255
604.5151, 30.32667
604.9972, 30.46151
605.4793, 30.62824
605.9614, 30.72049
606.4435, 30.57797
606.9257, 30.38186
607.4078, 30.46874
607.8899, 30.82127
608.3720, 31.02232
608.8541, 30.76915
609.3362, 30.24206
609.8184, 30.01722
610.3005, 30.41891
610.7826, 30.64593
611.2647, 30.61299
611.7468, 30.48759
612.2289, 30.32677
612.7111, 30.16608
613.1932, 30.05924
613.6753, 30.04257
614.1574, 30.07697
614.6395, 30.06706
615.1216, 30.00153
615.6038, 30.06665
616.0859, 30.40507
616.5680, 30.72595
617.0501, 30.71772
617.5322, 30.48066
618.0143, 30.35416
618.4965, 30.52172
618.9786, 30.68801
619.4607, 30.66581
619.9428, 30.52116
620.4249, 30.31122
620.9070, 30.06540
621.3892, 29.98231
621.8713, 30.30418
622.3534, 31.02367
622.8355, 31.50084
623.3176, 31.62764
623.7997, 31.63369
624.2819, 31.41852
624.7640, 31.18723
625.2461, 31.13709
625.7282, 31.28077
626.2103, 31.47870
626.6924, 31.74668
627.1745, 31.94901
627.6566, 31.55841
628.1387, 30.50103
628.6208, 29.94480
629.1030, 30.57692
629.5851, 31.62034
630.0672, 31.85469
630.5493, 31.25010
631.0314, 30.78483
631.5135, 30.68302
631.9957, 30.68291
632.4778, 30.64054
632.9599, 30.56875
633.4420, 30.53246
633.9241, 30.55326
634.4063, 30.55343
634.8884, 30.38465
635.3705, 29.99750
635.8526, 29.85592
636.3347, 30.08298
636.8168, 30.39404
637.2990, 30.82213
637.7811, 31.20732
638.2632, 31.31576
638.7453, 31.08701
639.2274, 30.82858
639.7095, 30.71569
640.1917, 30.72755
640.6738, 30.89176
641.1559, 31.19546
641.6380, 31.37715
642.1201, 31.25915
642.6022, 30.99596
643.0844, 30.94468
643.5665, 31.25539
644.0486, 31.47402
644.5307, 31.58449
645.0128, 31.61924
645.4949, 31.51679
645.9771, 31.36709
646.4592, 31.36197
646.9413, 31.59106
647.4234, 31.86436
647.9055, 31.82153
648.3876, 31.47495
648.8698, 31.50834
649.3519, 32.15093
649.8340, 32.77236
650.3161, 32.93251
650.7982, 32.81625
651.2803, 32.78027
651.7625, 32.85897
652.2446, 32.99051
652.7267, 33.21710
653.2088, 33.44282
653.6909, 33.53342
654.1730, 33.50657
654.6552, 33.49823
655.1373, 33.59431
655.6194, 33.74799
656.1015, 33.82088
656.5836, 33.72252
657.0657, 33.77768
657.5479, 34.23891
658.0300, 34.63079
658.5121, 34.62909
658.9942, 34.42847
659.4763, 34.43764
659.9584, 34.82714
660.4406, 35.33895
660.9227, 35.82341
661.4048, 36.24201
661.8869, 36.45886
662.3690, 36.44994
662.8511, 36.41758
663.3333, 36.47627
663.8154, 36.64092
664.2975, 36.97373
664.7796, 37.76796
665.2617, 38.31472
665.7438, 38.24836
666.2260, 38.23550
666.7081, 38.83546
667.1902, 39.87482
667.6723, 40.84198
668.1544, 41.49484
668.6365, 41.87164
669.1187, 41.99750
669.6008, 41.87992
670.0829, 41.67228
670.5650, 41.36660
671.0471, 41.05157
671.5292, 40.79025
672.0114, 40.57406
672.4935, 40.38107
672.9756, 40.31833
673.4577, 40.09109
673.9398, 39.49900
674.4219, 38.78305
674.9041, 38.11817
675.3862, 37.54992
675.8683, 37.13527
676.3504, 36.92623
676.8325, 36.79371
677.3146, 36.38530
677.7968, 35.60589
678.2789, 35.02106
678.7610, 34.79823
679.2431, 34.63708
679.7252, 34.30969
680.2073, 33.91935
680.6895, 33.70783
681.1716, 33.83241
681.6537, 33.87205
682.1358, 33.51091
682.6179, 32.95306
683.1000, 32.43166
683.5822, 31.99871
684.0643, 31.72512
684.5464, 31.67352
685.0285, 31.76255
685.5106, 31.74278
685.9927, 31.48881
686.4749, 31.42096
686.9570, 31.82468
687.4391, 32.14751
687.9212, 32.08620
688.4033, 31.78672
688.8854, 31.51343
689.3676, 31.33590
689.8497, 31.26299
690.3318, 31.41610
690.8139, 31.65136
691.2960, 31.59399
691.7781, 31.21881
692.2603, 30.90992
692.7424, 30.90018
693.2245, 31.10948
693.7066, 31.34220
694.1887, 31.72286
694.6708, 31.86432
695.1530, 31.48711
695.6351, 31.17561
696.1172, 31.30123
696.5993, 31.66179
697.0814, 31.76538
697.5635, 31.41168
698.0457, 30.89090
698.5278, 31.34263
699.0099, 31.61408
699.4920, 31.71492
699.9741, 31.13421
700.4562, 31.43359
700.9384, 31.38027
701.4205, 31.31248
701.9026, 31.73573
702.3847, 31.25414
702.8668, 31.80730
703.3489, 31.78145
703.8311, 31.65773
704.3132, 31.34186
704.7953, 30.97902
705.2774, 30.77897
705.7595, 30.80831
706.2416, 30.98003
706.7238, 31.28411
707.2059, 31.66264
707.6880, 31.84226
708.1701, 31.79852
708.6522, 31.69596
709.1343, 31.55231
709.6164, 31.44406
710.0985, 31.49899
710.5806, 31.72942
711.0627, 32.01506
711.5449, 32.49014
712.0270, 32.86621
712.5091, 32.94795
712.9912, 32.87080
713.4733, 32.82731
713.9554, 32.86176
714.4376, 32.88244
714.9197, 32.77053
715.4018, 32.58378
715.8839, 32.55180
716.3660, 32.68654
716.8481, 32.89466
717.3303, 33.17675
717.8124, 33.48135
718.2945, 33.82093
718.7766, 34.17942
719.2587, 34.26076
719.7408, 33.68664
720.2230, 33.24715
720.7051, 33.36069
721.1872, 33.71474
721.6693, 33.91164
722.1514, 33.92544
722.6335, 34.03394
723.1157, 34.47367
723.5978, 35.10908
724.0799, 35.59747
724.5620, 35.94196
725.0441, 36.12676
725.5262, 36.10379
726.0084, 35.99748
726.4905, 35.86190
726.9726, 35.72196
727.4547, 35.67354
727.9368, 35.67704
728.4189, 35.84204
728.9011, 36.48993
729.3832, 37.10415
729.8653, 37.11549
730.3474, 36.61436
730.8295, 36.06040
731.3116, 35.70430
731.7938, 35.45321
732.2759, 35.10263
732.7580, 34.64889
733.2401, 34.46302
733.7222, 34.69587
734.2043, 34.87469
734.6865, 34.66343
735.1686, 34.24224
735.6507, 34.02399
736.1328, 34.08529
736.6149, 34.08549
737.0970, 33.90601
737.5792, 33.68906
738.0613, 33.49707
738.5434, 33.35037
739.0255, 33.28780
739.5076, 33.31670
739.9897, 33.35917
740.4719, 33.30556
740.9540, 33.17654
741.4361, 33.11257
741.9182, 33.10977
742.4003, 33.20397
742.8824, 33.46611
743.3646, 33.76517
743.8467, 33.87675
744.3288, 33.79505
744.8109, 33.90437
745.2930, 34.44822
745.7751, 34.94056
746.2573, 35.16780
746.7394, 35.24564
747.2215, 35.32482
747.7036, 35.41856
748.1857, 35.41356
748.6678, 35.16740
749.1500, 34.85848
749.6321, 34.98065
750.1142, 35.53364
750.5963, 35.84323
751.0784, 35.75256
751.5605, 35.45925
752.0427, 35.03874
752.5248, 34.54110
753.0069, 34.23786
753.4890, 34.34768
753.9711, 34.29568
754.4532, 33.88452
754.9354, 33.39772
755.4175, 32.99126
755.8996, 32.68363
756.3817, 32.46206
756.8638, 32.32188
757.3459, 32.24549
757.8281, 32.25916
758.3102, 32.32174
758.7923, 32.25404
759.2744, 32.03849
759.7565, 31.81837
760.2386, 31.63045
760.7208, 31.54050
761.2029, 31.70876
761.6850, 32.28657
762.1671, 32.49377
762.6492, 31.97876
763.1313, 31.54336
763.6135, 31.52300
764.0956, 31.66111
764.5777, 31.64770
765.0598, 31.45636
765.5419, 31.31227
766.0240, 31.40581
766.5062, 31.58921
766.9883, 31.66031
767.4704, 31.63732
767.9525, 31.60246
768.4346, 31.57686
768.9167, 31.48433
769.3989, 31.22018
769.8810, 30.84835
770.3631, 30.78682
770.8452, 31.29423
771.3273, 31.64214
771.8094, 31.60730
772.2916, 31.57656
772.7737, 31.85831
773.2558, 32.27664
773.7379, 32.41187
774.2200, 32.07141
774.7021, 31.76917
775.1843, 31.97020
775.6664, 32.33456
776.1485, 32.37792
776.6306, 32.13071
777.1127, 31.86346
777.5948, 31.69401
778.0770, 31.60755
778.5591, 31.60180
779.0412, 31.68467
779.5233, 31.66974
780.0054, 31.49792
780.4875, 31.35167
780.9697, 31.28174
781.4518, 31.27170
781.9339, 31.35696
782.4160, 31.51886
782.8981, 31.54689
783.3802, 31.19706
783.8624, 30.92359
784.3445, 30.99811
784.8266, 31.26063
785.3087, 31.58136
785.7908, 31.88837
786.2729, 32.03960
786.7551, 31.92797
787.2372, 31.65868
787.7193, 31.40550
788.2014, 31.17044
788.6835, 31.07230
789.1656, 31.15198
789.6478, 31.27372
790.1299, 31.37487
790.6120, 31.45067
791.0941, 31.47643
791.5762, 31.40863
792.0583, 31.42406
792.5404, 31.71394
793.0225, 31.89034
793.5046, 31.64146
793.9868, 31.23360
794.4689, 31.04139
794.9510, 31.13288
795.4331, 31.27668
795.9152, 31.30823
796.3973, 31.27826
796.8795, 31.27775
797.3616, 31.29361
797.8437, 31.21676
798.3258, 31.01120
798.8079, 30.92841
799.2900, 31.23251
799.7722, 31.82327
800.2543, 32.13145
800.7364, 32.06726
801.2185, 31.90622
801.7006, 31.48524
802.1827, 31.15545
802.6649, 31.13466
803.1470, 31.30773
803.6291, 31.46943
804.1112, 31.58188
804.5933, 31.66632
805.0754, 31.70029
805.5576, 31.73659
806.0397, 31.90195
806.5218, 32.10455
807.0039, 32.09272
807.4860, 31.79184
807.9681, 31.40461
808.4503, 31.13788
808.9324, 30.98380
809.4145, 30.90734
809.8966, 30.91008
810.3787, 30.99588
810.8608, 31.22835
811.3430, 31.42442
811.8251, 31.34174
812.3072, 31.05182
812.7893, 31.04856
813.2714, 31.68438
813.7535, 32.07631
814.2357, 31.95760
814.7178, 31.68742
815.1999, 31.44174
815.6820, 31.25370
816.1641, 31.12904
816.6462, 31.06956
817.1284, 31.08761
817.6105, 31.27724
818.0926, 31.51847
818.5747, 31.57019
819.0568, 31.44387
819.5389, 31.23828
820.0211, 30.98084
820.5032, 30.75819
820.9853, 30.66746
821.4674, 30.70547
821.9495, 30.82374
822.4316, 31.03693
822.9138, 31.30531
823.3959, 31.79178
823.8780, 32.15840
824.3601, 32.08006
824.8422, 31.71961
825.3243, 31.51717
825.8065, 31.62029
826.2886, 31.70339
826.7707, 31.65174
827.2528, 31.51932
827.7349, 31.22216
828.2170, 30.90891
828.6992, 30.95881
829.1813, 31.47817
829.6634, 32.01453
830.1455, 32.07213
830.6276, 31.75961
831.1097, 31.36032
831.5919, 30.88093
832.0740, 30.64038
832.5561, 30.76184
833.0382, 31.02739
833.5203, 31.27250
834.0024, 31.47693
834.4846, 31.48329
834.9667, 31.03591
835.4488, 30.81180
835.9309, 31.04711
836.4130, 31.28895
836.8951, 31.26987
837.3773, 31.10548
837.8594, 31.01913
838.3415, 31.06471
838.8236, 31.13808
839.3057, 31.20795
839.7878, 31.26240
840.2700, 31.27451
840.7521, 31.26600
841.2342, 31.30155
841.7163, 31.38826
842.1984, 31.43585
842.6805, 31.34608
843.1627, 31.17610
843.6448, 31.11917
844.1269, 31.18107
844.6090, 31.12866
845.0911, 30.86015
845.5732, 30.70726
846.0554, 30.96381
846.5375, 31.46201
847.0196, 31.71503
847.5017, 31.59031
847.9838, 31.51607
848.4659, 31.53766
848.9481, 31.55451
849.4302, 31.53685
849.9123, 31.48809
850.3944, 31.38906
850.8765, 31.24938
851.3586, 31.16682
851.8408, 31.27862
852.3229, 31.37928
852.8050, 31.21176
853.2871, 30.94620
853.7692, 30.85969
854.2513, 30.99042
854.7335, 31.36141
855.2156, 31.71829
855.6977, 31.89488
856.1798, 31.90087
856.6619, 31.22530
857.1440, 31.42983
857.6262, 31.28163
858.1083, 31.11900
858.5904, 31.44738
859.0725, 30.76876
859.5546, 30.85956
860.0367, 31.14455
860.5189, 31.27589
861.0010, 31.14658
861.4831, 31.01545
861.9652, 30.92107
862.4473, 30.84022
862.9294, 30.74293
863.4116, 30.64410
863.8937, 30.60438
864.3758, 30.67903
864.8579, 30.68632
865.3400, 30.35698
865.8221, 30.01530
866.3043, 30.09877
866.7864, 30.48506
867.2685, 30.83457
867.7506, 31.01804
868.2327, 31.01015
868.7148, 30.70686
869.1970, 30.24160
869.6791, 30.12417
870.1612, 30.35496
870.6433, 30.37956
871.1254, 30.02190
871.6075, 29.74396
872.0897, 29.95538
872.5718, 30.46505
873.0539, 30.64692
873.5360, 30.34920
874.0181, 30.07165
874.5002, 29.56570
874.9823, 29.37761
875.4644, 30.04130
875.9465, 30.90202
876.4286, 31.18451
876.9108, 30.84365
877.3929, 30.45831
877.8750, 30.16509
878.3571, 29.94668
878.8392, 29.79992
879.3214, 29.71931
879.8035, 29.72463
880.2856, 29.79085
880.7677, 29.84551
881.2498, 29.85181
881.7319, 29.84131
882.2141, 29.84752
882.6962, 29.86946
883.1783, 29.89825
883.6604, 29.93588
884.1425, 30.02578
884.6246, 30.19106
885.1068, 30.33913
885.5889, 30.38033
886.0710, 30.30892
886.5531, 30.03032
887.0352, 29.36852
887.5173, 29.02601
887.9995, 29.24594
888.4816, 29.58263
888.9637, 29.84393
889.4458, 30.00825
889.9279, 30.02332
890.4100, 29.85933
890.8922, 29.66616
891.3743, 29.33731
891.8564, 29.13091
892.3385, 29.28278
892.8206, 29.54511
893.3027, 29.65722
893.7849, 29.59003
894.2670, 29.40527
894.7491, 29.04276
895.2312, 28.77270
895.7133, 29.01136
896.1954, 29.42349
896.6776, 29.39861
897.1597, 28.99270
897.6418, 28.65385
898.1239, 28.57654
898.6060, 28.64462
899.0881, 28.75613
899.5703, 28.88336
900.0524, 28.83529
900.5345, 28.59641
901.0166, 28.51828
901.4987, 28.72642
901.9808, 28.93272
902.4630, 28.88201
902.9451, 28.66753
903.4272, 28.62087
903.9093, 28.81843
904.3914, 29.00852
904.8735, 29.27404
905.3557, 29.42586
905.8378, 29.25648
906.3199, 29.03426
906.8020, 29.13605
907.2841, 29.54441
907.7662, 29.71129
908.2484, 29.25269
908.7305, 28.85245
909.2126, 28.85466
909.6947, 28.98195
910.1768, 29.00895
910.6589, 28.92929
911.1411, 28.74386
911.6232, 28.44556
912.1053, 28.33787
912.5874, 28.86697
913.0695, 29.63395
913.5516, 30.08768
914.0338, 30.23757
914.5159, 30.13022
914.9980, 29.79561
915.4801, 29.33347
915.9622, 28.77868
916.4443, 28.28345
916.9265, 28.28322
917.4086, 28.77624
917.8907, 29.09759
918.3728, 29.18234
918.8549, 29.20964
919.3370, 29.25915
919.8192, 29.29325
920.3013, 29.26505
920.7834, 29.17438
921.2655, 28.99981
921.7476, 28.53296
922.2297, 28.34351
922.7119, 28.80309
923.1940, 29.27082
923.6761, 29.34660
924.1582, 29.17663
924.6403, 29.04911
925.1224, 28.97772
925.6046, 29.02085
926.0867, 29.38115
926.5688, 29.64708
927.0509, 29.51940
927.5330, 29.22761
928.0151, 28.99325
928.4973, 28.87199
928.9794, 28.91580
929.4615, 29.23403
929.9436, 29.48611
930.4257, 29.25611
930.9078, 28.84593
931.3900, 28.68328
931.8721, 28.75558
932.3542, 28.94676
932.8363, 29.19944
933.3184, 29.38383
933.8005, 29.34155
934.2827, 29.16740
934.7648, 29.11119
935.2469, 29.16374
935.7290, 29.26641
936.2111, 29.41588
936.6932, 29.45472
937.1754, 29.26002
937.6575, 29.00429
938.1396, 29.02462
938.6217, 29.35140
939.1038, 29.56934
939.5859, 29.64292
940.0681, 29.70889
940.5502, 29.84059
941.0323, 29.91760
941.5144, 29.75466
941.9965, 29.44955
942.4786, 29.43811
942.9608, 29.95268
943.4429, 30.26668
943.9250, 30.28720
944.4071, 30.17890
944.8892, 29.91974
945.3713, 29.62404
945.8535, 29.35846
946.3356, 29.15882
946.8177, 29.18631
947.2998, 29.71454
947.7819, 30.13998
948.2640, 30.07838
948.7462, 29.85987
949.2283, 29.73271
949.7104, 29.71412
950.1925, 29.81306
950.6746, 30.01629
951.1567, 30.14107
951.6389, 29.96756
952.1210, 29.70806
952.6031, 29.66623
953.0852, 29.73924
953.5673, 29.68696
954.0494, 29.49725
954.5316, 29.30754
955.0137, 29.18897
955.4958, 29.14880
955.9779, 29.27033
956.4600, 29.48684
956.9421, 29.45133
957.4242, 29.16860
957.9063, 28.73894
958.3884, 28.15505
958.8705, 27.82321
959.3527, 28.13358
959.8348, 28.81283
960.3169, 29.02111
960.7990, 28.64152
961.2811, 28.43385
961.7632, 28.46993
962.2454, 28.51126
962.7275, 28.46862
963.2096, 28.40102
963.6917, 28.40099
964.1738, 28.45006
964.6559, 28.33314
965.1381, 27.82593
965.6202, 27.51818
966.1023, 27.45301
966.5844, 27.55444
967.0665, 27.88596
967.5486, 28.31326
968.0308, 28.70927
968.5129, 29.06071
968.9950, 29.21087
969.4771, 28.92434
969.9592, 28.70127
970.4413, 28.84952
970.9235, 29.00127
971.4056, 28.75838
971.8877, 28.31526
972.3698, 28.11660
972.8519, 28.28180
973.3340, 28.49728
973.8162, 28.55942
974.2983, 28.62778
974.7804, 28.91345
975.2625, 29.24067
975.7446, 29.29980
976.2267, 29.14405
976.7089, 29.09242
977.1910, 29.29769
977.6731, 29.57316
978.1552, 29.74246
978.6373, 29.84428
979.1194, 29.89506
979.6016, 29.94241
980.0837, 30.15532
980.5658, 30.54913
981.0479, 30.95695
981.5300, 31.27561
982.0121, 31.47923
982.4943, 31.40780
982.9764, 31.15369
983.4585, 31.31954
983.9406, 31.90570
984.4227, 32.33623
984.9048, 32.41488
985.3870, 32.50110
985.8691, 32.95206
986.3512, 33.60864
986.8333, 33.95376
987.3154, 33.96311
987.7975, 33.80997
988.2797, 33.43335
988.7618, 33.18292
989.2439, 33.24324
989.7260, 33.38869
990.2081, 33.34958
990.6902, 33.15233
991.1724, 33.03664
991.6545, 32.95005
992.1366, 33.08509
992.6187, 33.67781
993.1008, 34.15360
993.5829, 34.13324
994.0651, 33.93144
994.5472, 33.95128
995.0293, 34.19366
995.5114, 34.58477
995.9935, 35.29383
996.4756, 35.90557
996.9578, 36.30844
997.4399, 36.65952
997.9220, 37.15684
998.4041, 37.60907
998.8862, 37.67226
999.3683, 37.30288
999.8505, 36.91103
1000.333, 36.56110
1000.815, 36.25467
1001.297, 36.16188
1001.779, 35.96488
1002.261, 35.29679
1002.743, 34.35383
1003.225, 33.53751
1003.707, 32.94799
1004.190, 32.48102
1004.672, 32.12367
1005.154, 31.82856
1005.636, 31.65654
1006.118, 31.46064
1006.600, 31.01884
1007.082, 30.39618
1007.564, 29.75205
1008.046, 29.13776
1008.529, 28.83566
1009.011, 29.41175
1009.493, 30.10546
1009.975, 29.98436
1010.457, 29.41049
1010.939, 29.01666
1011.421, 28.86732
1011.903, 28.70087
1012.385, 28.38644
1012.868, 28.17210
1013.350, 28.49952
1013.832, 29.01665
1014.314, 29.01905
1014.796, 28.64952
1015.278, 28.32292
1015.760, 28.12371
1016.242, 27.99680
1016.725, 27.90905
1017.207, 27.88209
1017.689, 27.99951
1018.171, 28.19754
1018.653, 28.23305
1019.135, 28.12314
1019.617, 27.99474
1020.099, 27.87754
1020.581, 27.74517
1021.064, 27.56382
1021.546, 27.44706
1022.028, 27.71603
1022.510, 28.30825
1022.992, 28.37659
1023.474, 27.90292
1023.956, 27.79470
1024.438, 28.32430
1024.921, 28.82340
1025.403, 28.78733
1025.885, 28.38945
1026.367, 27.97893
1026.849, 27.54037
1027.331, 27.40970
1027.813, 27.65822
1028.295, 27.78463
1028.777, 27.60699
1029.260, 27.45014
1029.742, 27.61558
1030.224, 27.94399
1030.706, 27.95618
1031.188, 27.56176
1031.670, 27.33297
1032.152, 27.28217
1032.634, 27.37114
1033.116, 27.64687
1033.599, 27.96054
1034.081, 28.24280
1034.563, 28.43491
1035.045, 28.30991
1035.527, 27.66307
1036.009, 27.43725
1036.491, 27.93472
1036.973, 28.27492
1037.456, 28.18620
1037.938, 27.88778
1038.420, 27.41355
1038.902, 26.90162
1039.384, 26.87300
1039.866, 27.68291
1040.348, 27.96888
1040.830, 27.20050
1041.313, 26.66765
1041.795, 26.87577
1042.277, 27.28298
1042.759, 27.49176
1043.241, 27.54740
1043.723, 27.58500
1044.205, 27.60625
1044.687, 27.61091
1045.169, 27.61042
1045.651, 27.57781
1046.134, 27.47171
1046.616, 27.35969
1047.098, 27.29799
1047.580, 27.27534
1048.062, 27.23761
1048.544, 27.13355
1049.026, 27.17715
1049.508, 27.59802
1049.991, 27.90963
1050.473, 27.78964
1050.955, 27.63710
1051.437, 27.88916
1051.919, 28.36992
1052.401, 28.57685
1052.883, 28.41519
1053.365, 28.09113
1053.848, 27.27331
1054.330, 26.77906
1054.812, 27.28406
1055.294, 27.92625
1055.776, 27.83835
1056.258, 27.30401
1056.740, 27.19548
1057.222, 27.76765
1057.704, 28.08230
1058.187, 27.57341
1058.669, 27.14022
1059.151, 27.30787
1059.633, 27.58754
1060.115, 27.47467
1060.597, 27.14074
1061.079, 27.05281
1061.561, 27.32272
1062.043, 27.61266
1062.526, 27.94301
1063.008, 28.09658
1063.490, 27.89280
1063.972, 27.54562
1064.454, 27.13576
1064.936, 26.76672
1065.418, 26.59348
1065.900, 26.64760
1066.383, 26.87065
1066.865, 27.50271
1067.347, 27.95990
1067.829, 27.81907
1068.311, 27.52570
1068.793, 27.42737
1069.275, 27.48492
1069.757, 27.61343
1070.240, 27.78203
1070.722, 27.77781
1071.204, 27.30716
1071.686, 26.91300
1072.168, 26.85187
1072.650, 26.96639
1073.132, 27.16189
1073.614, 27.42154
1074.096, 27.82554
1074.578, 28.34121
1075.061, 28.59062
1075.543, 28.24030
1076.025, 27.87589
1076.507, 27.83600
1076.989, 27.83620
1077.471, 27.63697
1077.953, 27.33197
1078.435, 27.08346
1078.918, 26.91030
1079.400, 26.72972
1079.882, 26.43061
1080.364, 26.28839
1080.846, 26.57914
1081.328, 26.92215
1081.810, 27.10532
1082.292, 27.12829
1082.774, 26.90814
1083.257, 26.53404
1083.739, 26.39798
1084.221, 26.72681
1084.703, 27.01488
1085.185, 26.95879
1085.667, 26.86515
1086.149, 26.96395
1086.631, 27.11860
1087.114, 27.14650
1087.596, 27.06882
1088.078, 27.04411
1088.560, 27.14689
1089.042, 27.15908
1089.524, 26.76035
1090.006, 26.51901
1090.488, 27.04020
1090.970, 27.65221
1091.453, 27.53189
1091.935, 26.93984
1092.417, 26.69879
1092.899, 27.02776
1093.381, 27.37653
1093.863, 27.62029
1094.345, 27.73761
1094.827, 27.61735
1095.309, 27.45565
1095.792, 27.42108
1096.274, 27.47047
1096.756, 27.51773
1097.238, 27.54668
1097.720, 27.49173
1098.202, 27.30905
1098.684, 27.07235
1099.166, 26.61971
1099.649, 26.31168
1100.131, 26.53878
1100.613, 26.99664
1101.095, 27.26021
1101.577, 27.27996
1102.059, 27.13764
1102.541, 26.61864
1103.023, 26.32220
1103.505, 26.64475
1103.988, 26.92957
1104.470, 26.77938
1104.952, 26.43180
1105.434, 26.11074
1105.916, 25.85456
1106.398, 25.74236
1106.880, 25.84576
1107.362, 25.95195
1107.844, 26.02708
1108.327, 26.10066
1108.809, 26.16000
1109.291, 26.24344
1109.773, 26.47888
1110.255, 26.75631
1110.737, 26.73107
1111.219, 26.28758
1111.701, 25.90330
1112.184, 25.50697
1112.666, 25.32121
1113.148, 25.57033
1113.630, 25.86528
1114.112, 25.93760
1114.594, 25.88811
1115.076, 25.89788
1115.558, 25.96885
1116.041, 26.08253
1116.523, 26.36228
1117.005, 26.46491
1117.487, 26.16353
1117.969, 25.95985
1118.451, 26.23012
1118.933, 26.59109
1119.415, 26.48839
1119.897, 25.98471
1120.380, 25.78014
1120.862, 25.97093
1121.344, 26.24719
1121.826, 26.72360
1122.308, 27.01031
1122.790, 26.92543
1123.272, 26.67236
1123.754, 26.39458
1124.236, 26.13512
1124.719, 26.05033
1125.201, 26.17260
1125.683, 26.31466
1126.165, 26.50853
1126.647, 26.56960
1127.129, 26.38607
1127.611, 26.31905
1128.093, 26.67682
1128.576, 27.16306
1129.058, 27.19819
1129.540, 26.80734
1130.022, 26.49933
1130.504, 26.26215
1130.986, 26.34431
1131.468, 26.82770
1131.950, 27.15353
1132.432, 27.04070
1132.915, 26.72101
1133.397, 26.44124
1133.879, 26.22910
1134.361, 26.20192
1134.843, 26.34759
1135.325, 26.55191
1135.807, 26.79913
1136.289, 26.97331
1136.771, 27.03892
1137.254, 27.12708
1137.736, 27.36657
1138.218, 27.58471
1138.700, 27.38236
1139.182, 26.91433
1139.664, 26.69831
1140.146, 26.70251
1140.628, 26.75597
1141.111, 26.81069
1141.593, 26.83088
1142.075, 26.79801
1142.557, 26.71166
1143.039, 26.54929
1143.521, 26.35139
1144.003, 26.22063
1144.485, 26.09110
1144.968, 25.70717
1145.450, 25.20018
1145.932, 25.05405
1146.414, 25.39804
1146.896, 25.90597
1147.378, 26.48287
1147.860, 26.85159
1148.342, 26.56395
1148.824, 26.07210
1149.307, 25.86852
1149.789, 25.87926
1150.271, 25.96343
1150.753, 26.05589
1151.235, 26.02860
1151.717, 25.78243
1152.199, 25.64132
1152.681, 25.96502
1153.163, 26.25043
1153.646, 26.01858
1154.128, 25.69706
1154.610, 25.78652
1155.092, 26.15345
1155.574, 26.44294
1156.056, 26.59111
1156.538, 26.52747
1157.020, 25.91801
1157.503, 25.54590
1157.985, 25.96784
1158.467, 26.32265
1158.949, 25.91205
1159.431, 25.25040
1159.913, 25.05135
1160.395, 25.28271
1160.877, 25.42298
1161.359, 25.41769
1161.842, 25.36910
1162.324, 25.19327
1162.806, 25.10715
1163.288, 25.22644
1163.770, 25.38115
1164.252, 25.46854
1164.734, 25.48153
1165.216, 25.35955
1165.698, 25.06697
1166.181, 25.17306
1166.663, 25.84694
1167.145, 26.28503
1167.627, 26.35165
1168.109, 26.25110
1168.591, 26.03271
1169.073, 25.85192
1169.555, 25.89992
1170.037, 26.11654
1170.520, 26.32834
1171.002, 26.52874
1171.484, 26.37985
1171.966, 25.88238
1172.448, 25.65498
1172.930, 25.85769
1173.412, 26.08944
1173.894, 26.07972
1174.377, 25.97375
1174.859, 26.01342
1175.341, 26.11529
1175.823, 25.97955
1176.305, 25.72149
1176.787, 25.75891
1177.269, 26.04640
1177.751, 26.18102
1178.234, 25.58967
1178.716, 25.98806
1179.198, 26.20616
1179.680, 26.25366
1180.162, 25.61961
1180.644, 25.86565
1181.126, 25.75899
1181.608, 25.63786
1182.090, 26.00777
1182.573, 25.47282
1183.055, 25.83494
1183.537, 25.83898
1184.019, 26.00690
1184.501, 25.81995
1184.983, 25.74261
1185.465, 26.02025
1185.947, 25.96379
1186.429, 25.91452
1186.912, 25.79891
1187.394, 25.91812
1187.876, 26.28021
1188.358, 26.38744
1188.840, 25.89275
1189.322, 25.56758
1189.804, 25.57421
1190.286, 25.65242
1190.769, 25.73723
1191.251, 25.83283
1191.733, 25.99439
1192.215, 26.13993
1192.697, 26.00726
1193.179, 25.52185
1193.661, 25.45360
1194.143, 25.98419
1194.625, 26.20401
1195.108, 25.87521
1195.590, 25.70429
1196.072, 26.09002
1196.554, 26.50058
1197.036, 26.27059
1197.518, 25.68810
1198.000, 25.76464
1198.482, 26.38516
1198.964, 26.39497
1199.447, 25.84888
1199.929, 25.68633
1200.411, 26.07825
1200.893, 26.41214
1201.375, 26.33368
1201.857, 26.08238
1202.339, 25.89568
1202.821, 25.74793
1203.304, 25.52741
1203.786, 25.35349
1204.268, 25.29734
1204.750, 25.70810
1205.232, 25.93857
1205.714, 25.99844
1206.196, 25.37675
1206.678, 25.63515
1207.161, 25.54086
1207.643, 25.43210
1208.125, 25.81437
1208.607, 25.29181
1209.089, 25.66630
1209.571, 25.68270
1210.053, 25.86299
1210.535, 25.68840
1211.017, 25.62342
1211.500, 25.91344
1211.982, 26.00689
1212.464, 25.79145
1212.946, 25.98215
1213.428, 25.44720
1213.910, 25.54902
1214.392, 25.92559
1214.874, 25.72799
1215.356, 25.92519
1215.839, 25.97202
1216.321, 25.33554
1216.803, 25.88741
1217.285, 25.82479
1217.767, 26.01987
1218.249, 25.89791
1218.731, 25.89184
1219.213, 26.22976
1219.696, 26.54052
1220.178, 26.39623
1220.660, 25.98283
1221.142, 25.66385
1221.624, 25.45472
1222.106, 25.38573
1222.588, 25.47720
1223.070, 25.95878
1223.552, 26.71764
1224.035, 26.98188
1224.517, 26.38845
1224.999, 25.75001
1225.481, 25.91083
1225.963, 26.15183
1226.445, 25.60814
1226.927, 24.99270
1227.409, 25.14188
1227.891, 25.73119
1228.374, 26.26043
1228.856, 26.59933
1229.338, 26.61624
1229.820, 26.18910
1230.302, 25.73334
1230.784, 25.17163
1231.266, 24.83254
1231.748, 24.90636
1232.231, 25.14554
1232.713, 25.55042
1233.195, 25.89197
1233.677, 25.77162
1234.159, 25.26569
1234.641, 25.06684
1235.123, 25.23762
1235.605, 25.44836
1236.088, 25.72075
1236.570, 25.80838
1237.052, 25.62836
1237.534, 25.44078
1238.016, 25.40819
1238.498, 25.49012
1238.980, 25.68805
1239.462, 25.89441
1239.944, 25.72022
1240.427, 25.33795
1240.909, 25.30306
1241.391, 25.54252
1241.873, 25.65977
1242.355, 25.57623
1242.837, 25.47431
1243.319, 25.44428
1243.801, 25.45644
1244.283, 25.53139
1244.766, 25.58904
1245.248, 25.49695
1245.730, 25.42268
1246.212, 25.59797
1246.694, 25.88048
1247.176, 26.02362
1247.658, 26.00160
1248.140, 25.89455
1248.622, 25.67043
1249.105, 25.45058
1249.587, 25.10899
1250.069, 25.00447
1250.551, 25.37890
1251.033, 25.72092
1251.515, 25.67820
1251.997, 25.48801
1252.479, 25.51933
1252.962, 25.71382
1253.444, 25.70490
1253.926, 25.49940
1254.408, 25.49818
1254.890, 25.70589
1255.372, 25.81623
1255.854, 25.77038
1256.336, 25.84023
1256.818, 26.18539
1257.301, 26.54053
1257.783, 26.62294
1258.265, 26.53794
1258.747, 26.36823
1259.229, 26.16570
1259.711, 25.90637
1260.193, 25.71656
1260.675, 25.93100
1261.157, 26.45755
1261.640, 26.69322
1262.122, 26.39899
1262.604, 26.08712
1263.086, 25.84196
1263.568, 25.71074
1264.050, 25.77572
1264.532, 25.88168
1265.014, 25.90024
1265.497, 25.95378
1265.979, 26.26885
1266.461, 26.71152
1266.943, 26.64812
1267.425, 25.95280
1267.907, 25.79065
1268.389, 26.24302
1268.871, 26.23981
1269.354, 25.58186
1269.836, 25.12112
1270.318, 25.24575
1270.800, 25.64546
1271.282, 26.08137
1271.764, 26.41928
1272.246, 26.37962
1272.728, 26.13691
1273.210, 25.90927
1273.693, 25.76320
1274.175, 25.83258
1274.657, 26.06723
1275.139, 26.34518
1275.621, 26.61710
1276.103, 26.61674
1276.585, 25.91234
1277.067, 25.45244
1277.549, 25.60907
1278.032, 26.00260
1278.514, 26.79352
1278.996, 27.40438
1279.478, 27.23404
1279.960, 26.63167
1280.442, 26.24619
1280.924, 26.07500
1281.406, 26.04658
1281.889, 26.17898
1282.371, 26.34486
1282.853, 26.54248
1283.335, 26.61852
1283.817, 26.53190
1284.299, 26.43088
1284.781, 26.40837
1285.263, 26.44075
1285.745, 26.50180
1286.228, 26.59137
##END=



