##NAMES=Bavenite
##RRUFFID=R060790
##IDEAL CHEMISTRY=Ca_4_Be_2+x_Al_2-x_Si_9_O_26-x_(OH)_2+x_ (x = 0 to 1)
##LOCALITY=Londonderry, West Australia, Australia
##OWNER=RRUFF
##SOURCE=Michael Scott
##DESCRIPTION=Colorless platy aggregate with a hexagonal outline associated with quartz
##STATUS=The identification of this mineral is confirmed by single-crystal X-ray diffraction and chemical analysis.
##URL=rruff.info/R060790
##MEASURED CHEMISTRY=Ca_3.96_Be_2.00_(Al_1.10_Be_0.90_)_Î£=2_Si_9.00_O_25.1_(OH)_2.90_
137.9150, 8036.421
138.3971, 8209.869
138.8792, 8369.063
139.3613, 8516.553
139.8434, 8665.124
140.3256, 8812.460
140.8077, 8968.392
141.2898, 9147.286
141.7719, 9357.924
142.2540, 9563.750
142.7361, 9754.109
143.2183, 9929.920
143.7004, 10113.14
144.1825, 10312.52
144.6646, 10511.67
145.1467, 10689.64
145.6288, 10857.38
146.1110, 10989.66
146.5931, 11082.81
147.0752, 11143.24
147.5573, 11144.08
148.0394, 11075.27
148.5215, 10949.42
149.0037, 10785.82
149.4858, 10541.87
149.9679, 10301.50
150.4500, 10089.78
150.9321, 9919.378
151.4142, 9762.298
151.8964, 9613.739
152.3785, 9478.198
152.8606, 9369.215
153.3427, 9300.146
153.8248, 9248.752
154.3069, 9204.492
154.7890, 9170.000
155.2712, 9138.833
155.7533, 9104.891
156.2354, 9070.957
156.7175, 9054.758
157.1996, 9069.878
157.6817, 9098.596
158.1639, 9127.687
158.6460, 9156.380
159.1281, 9182.281
159.6102, 9202.902
160.0923, 9217.711
160.5744, 9232.640
161.0566, 9243.053
161.5387, 9255.819
162.0208, 9278.509
162.5029, 9319.722
162.9850, 9366.034
163.4671, 9412.407
163.9493, 9458.350
164.4314, 9500.573
164.9135, 9533.953
165.3956, 9562.916
165.8777, 9594.657
166.3598, 9645.847
166.8420, 9693.266
167.3241, 9715.082
167.8062, 9699.314
168.2883, 9687.786
168.7704, 9716.870
169.2525, 9772.912
169.7346, 9821.751
170.2168, 9832.516
170.6989, 9831.948
171.1810, 9848.188
171.6631, 9892.436
172.1452, 9945.052
172.6273, 9996.514
173.1095, 10044.44
173.5916, 10080.58
174.0737, 10095.87
174.5558, 10096.51
175.0379, 10091.88
175.5201, 10085.71
176.0022, 10073.68
176.4843, 10043.88
176.9664, 9998.373
177.4485, 9959.272
177.9306, 9940.983
178.4128, 9942.243
178.8949, 9960.410
179.3770, 10002.33
179.8591, 10056.96
180.3412, 10109.65
180.8233, 10161.00
181.3055, 10205.37
181.7876, 10231.80
182.2697, 10245.32
182.7518, 10264.72
183.2339, 10317.59
183.7160, 10380.62
184.1981, 10379.92
184.6803, 10305.32
185.1624, 10225.73
185.6445, 10244.08
186.1266, 10343.92
186.6087, 10416.48
187.0908, 10385.15
187.5730, 10278.36
188.0551, 10212.49
188.5372, 10196.26
189.0193, 10206.62
189.5014, 10209.37
189.9835, 10205.07
190.4657, 10208.88
190.9478, 10239.20
191.4299, 10290.66
191.9120, 10316.19
192.3941, 10306.45
192.8762, 10279.98
193.3584, 10272.22
193.8405, 10284.12
194.3226, 10299.99
194.8047, 10309.12
195.2868, 10311.95
195.7689, 10321.29
196.2511, 10343.19
196.7332, 10368.83
197.2153, 10365.18
197.6974, 10325.41
198.1795, 10297.44
198.6616, 10328.74
199.1437, 10424.71
199.6259, 10493.81
200.1080, 10518.21
200.5901, 10507.13
201.0722, 10491.77
201.5543, 10468.35
202.0364, 10452.92
202.5186, 10462.09
203.0007, 10499.10
203.4828, 10535.50
203.9649, 10565.39
204.4470, 10589.74
204.9291, 10614.82
205.4113, 10639.52
205.8934, 10666.84
206.3755, 10704.47
206.8576, 10758.28
207.3397, 10793.72
207.8218, 10797.14
208.3040, 10770.65
208.7861, 10758.62
209.2682, 10764.42
209.7503, 10779.83
210.2324, 10796.69
210.7145, 10815.25
211.1967, 10835.78
211.6788, 10859.63
212.1609, 10887.39
212.6430, 10912.38
213.1251, 10934.52
213.6072, 10954.38
214.0894, 10972.61
214.5715, 10989.09
215.0536, 11004.04
215.5357, 11014.89
216.0178, 11019.54
216.4999, 11037.44
216.9820, 11075.73
217.4642, 11119.31
217.9463, 11144.01
218.4284, 11138.80
218.9105, 11137.40
219.3926, 11153.37
219.8747, 11192.63
220.3569, 11219.41
220.8390, 11230.05
221.3211, 11230.86
221.8032, 11233.01
222.2853, 11238.15
222.7674, 11242.20
223.2496, 11242.88
223.7317, 11237.64
224.2138, 11239.43
224.6959, 11252.37
225.1780, 11270.66
225.6601, 11281.75
226.1423, 11278.85
226.6244, 11280.31
227.1065, 11295.37
227.5886, 11333.78
228.0707, 11357.89
228.5528, 11354.32
229.0350, 11340.61
229.5171, 11364.06
229.9992, 11454.85
230.4813, 11536.20
230.9634, 11571.81
231.4455, 11534.57
231.9276, 11513.00
232.4098, 11512.17
232.8919, 11526.26
233.3740, 11539.80
233.8561, 11557.93
234.3382, 11568.43
234.8203, 11563.46
235.3025, 11529.90
235.7846, 11510.07
236.2667, 11510.67
236.7488, 11525.37
237.2309, 11531.26
237.7130, 11518.12
238.1952, 11510.57
238.6773, 11523.05
239.1594, 11570.72
239.6415, 11606.44
240.1236, 11627.86
240.6057, 11636.40
241.0879, 11635.22
241.5700, 11611.10
242.0521, 11595.21
242.5342, 11608.55
243.0163, 11679.29
243.4984, 11717.88
243.9806, 11704.93
244.4627, 11655.21
244.9448, 11630.86
245.4269, 11643.40
245.9090, 11665.31
246.3911, 11681.60
246.8732, 11689.04
247.3554, 11696.41
247.8375, 11703.75
248.3196, 11711.01
248.8017, 11719.48
249.2838, 11733.60
249.7659, 11742.77
250.2481, 11739.50
250.7302, 11715.73
251.2123, 11698.91
251.6944, 11692.22
252.1765, 11694.77
252.6586, 11702.85
253.1408, 11725.91
253.6229, 11742.38
254.1050, 11735.82
254.5871, 11689.85
255.0692, 11662.80
255.5513, 11664.76
256.0334, 11689.62
256.5156, 11708.49
256.9977, 11715.58
257.4798, 11725.39
257.9619, 11750.06
258.4440, 11802.29
258.9261, 11834.59
259.4083, 11837.73
259.8904, 11817.10
260.3725, 11797.10
260.8546, 11770.15
261.3367, 11755.48
261.8188, 11767.98
262.3010, 11817.59
262.7831, 11865.00
263.2652, 11909.24
263.7473, 11948.46
264.2294, 11977.89
264.7115, 11998.94
265.1937, 12006.71
265.6758, 11993.59
266.1579, 11951.65
266.6400, 11918.76
267.1221, 11896.90
267.6042, 11887.24
268.0864, 11898.94
268.5685, 11942.13
269.0506, 11984.42
269.5327, 12003.06
270.0148, 11992.29
270.4969, 11985.49
270.9791, 11985.32
271.4612, 11991.54
271.9433, 12003.33
272.4254, 12021.20
272.9075, 12043.57
273.3896, 12071.36
273.8718, 12105.87
274.3539, 12135.63
274.8360, 12159.90
275.3181, 12178.82
275.8002, 12191.46
276.2823, 12195.91
276.7645, 12200.82
277.2466, 12211.52
277.7287, 12228.29
278.2108, 12247.37
278.6929, 12270.49
279.1750, 12293.46
279.6572, 12302.51
280.1393, 12294.36
280.6214, 12290.64
281.1035, 12309.12
281.5856, 12349.84
282.0677, 12377.37
282.5499, 12384.51
283.0320, 12383.21
283.5141, 12403.08
283.9962, 12446.52
284.4783, 12484.10
284.9604, 12494.02
285.4425, 12478.65
285.9247, 12471.13
286.4068, 12474.42
286.8889, 12485.31
287.3710, 12503.34
287.8531, 12528.54
288.3352, 12544.82
288.8174, 12535.48
289.2995, 12506.41
289.7816, 12493.80
290.2637, 12503.18
290.7458, 12520.22
291.2279, 12526.67
291.7101, 12522.58
292.1922, 12509.50
292.6743, 12480.96
293.1564, 12443.26
293.6385, 12418.27
294.1206, 12408.54
294.6028, 12406.83
295.0849, 12405.55
295.5670, 12405.03
296.0491, 12405.99
296.5312, 12416.09
297.0133, 12427.60
297.4955, 12414.78
297.9776, 12372.77
298.4597, 12337.15
298.9418, 12358.47
299.4239, 12421.02
299.9060, 12475.85
300.3882, 12494.70
300.8703, 12493.07
301.3524, 12491.25
301.8345, 12488.83
302.3166, 12492.17
302.7987, 12506.30
303.2809, 12529.89
303.7630, 12560.92
304.2451, 12610.07
304.7272, 12659.41
305.2093, 12684.32
305.6914, 12684.43
306.1736, 12679.88
306.6557, 12687.52
307.1378, 12700.67
307.6199, 12708.85
308.1020, 12700.33
308.5841, 12691.34
309.0663, 12699.53
309.5484, 12723.88
310.0305, 12744.58
310.5126, 12747.29
310.9947, 12740.70
311.4768, 12734.35
311.9590, 12724.38
312.4411, 12722.22
312.9232, 12741.59
313.4053, 12778.72
313.8874, 12809.55
314.3695, 12822.16
314.8516, 12823.83
315.3337, 12821.27
315.8159, 12820.51
316.2980, 12810.75
316.7801, 12772.40
317.2622, 12716.59
317.7443, 12686.10
318.2264, 12715.33
318.7086, 12764.70
319.1907, 12810.94
319.6728, 12860.45
320.1549, 12889.92
320.6370, 12874.25
321.1191, 12831.70
321.6013, 12810.90
322.0834, 12847.21
322.5655, 12890.19
323.0476, 12914.86
323.5297, 12904.68
324.0118, 12902.13
324.4940, 12912.04
324.9761, 12933.29
325.4582, 12963.82
325.9403, 13021.65
326.4224, 13072.41
326.9045, 13105.44
327.3867, 13117.74
327.8688, 13118.38
328.3509, 13089.08
328.8330, 13053.55
329.3151, 13044.81
329.7972, 13085.22
330.2794, 13127.32
330.7615, 13162.04
331.2436, 13189.71
331.7257, 13209.18
332.2078, 13218.67
332.6899, 13221.73
333.1721, 13221.98
333.6542, 13218.85
334.1363, 13213.21
334.6184, 13197.18
335.1005, 13171.34
335.5826, 13188.75
336.0648, 13271.78
336.5469, 13367.26
337.0290, 13429.65
337.5111, 13452.92
337.9932, 13459.45
338.4753, 13442.75
338.9575, 13411.73
339.4396, 13416.69
339.9217, 13466.77
340.4038, 13526.26
340.8859, 13569.57
341.3680, 13594.88
341.8502, 13620.01
342.3323, 13646.04
342.8144, 13673.99
343.2965, 13704.61
343.7786, 13738.24
344.2607, 13777.04
344.7429, 13831.41
345.2250, 13897.77
345.7071, 13942.31
346.1892, 13961.35
346.6713, 13962.06
347.1534, 13948.48
347.6355, 13922.44
348.1176, 13903.07
348.5998, 13910.39
349.0819, 13931.26
349.5640, 13928.11
350.0461, 13896.33
350.5282, 13852.62
351.0103, 13806.52
351.4925, 13761.68
351.9746, 13728.64
352.4567, 13719.85
352.9388, 13722.36
353.4209, 13717.67
353.9030, 13705.65
354.3852, 13695.66
354.8673, 13703.64
355.3494, 13717.54
355.8315, 13718.04
356.3136, 13684.96
356.7957, 13648.25
357.2779, 13631.85
357.7600, 13634.35
358.2421, 13644.57
358.7242, 13652.43
359.2063, 13666.81
359.6884, 13698.34
360.1706, 13770.61
360.6527, 13830.63
361.1348, 13846.37
361.6169, 13828.47
362.0990, 13809.58
362.5811, 13800.99
363.0633, 13794.92
363.5454, 13785.46
364.0275, 13765.73
364.5096, 13755.50
364.9917, 13759.01
365.4738, 13775.01
365.9560, 13801.43
366.4381, 13864.73
366.9202, 13914.11
367.4023, 13930.16
367.8844, 13902.71
368.3665, 13877.79
368.8487, 13847.07
369.3308, 13824.34
369.8129, 13825.73
370.2950, 13875.12
370.7771, 13917.47
371.2592, 13945.73
371.7414, 13959.71
372.2235, 13952.60
372.7056, 13905.35
373.1877, 13857.53
373.6698, 13843.11
374.1519, 13876.31
374.6341, 13903.38
375.1162, 13914.65
375.5983, 13914.99
376.0804, 13926.30
376.5625, 13952.99
377.0446, 13977.40
377.5267, 13987.64
378.0089, 13982.72
378.4910, 13976.82
378.9731, 13970.18
379.4552, 13964.68
379.9373, 13964.66
380.4194, 13970.57
380.9016, 13977.57
381.3837, 13980.99
381.8658, 13983.30
382.3479, 13996.40
382.8300, 14021.17
383.3121, 14053.71
383.7943, 14094.86
384.2764, 14141.03
384.7585, 14178.99
385.2406, 14200.44
385.7227, 14211.62
386.2048, 14218.24
386.6870, 14220.50
387.1691, 14227.51
387.6512, 14246.23
388.1333, 14273.60
388.6154, 14308.08
389.0975, 14360.76
389.5797, 14402.29
390.0618, 14390.56
390.5439, 14342.38
391.0260, 14314.37
391.5081, 14349.65
391.9902, 14409.56
392.4724, 14470.03
392.9545, 14534.49
393.4366, 14577.94
393.9187, 14567.96
394.4008, 14534.04
394.8829, 14523.23
395.3651, 14579.37
395.8472, 14635.77
396.3293, 14659.75
396.8114, 14642.40
397.2935, 14643.82
397.7756, 14696.50
398.2578, 14760.87
398.7399, 14801.57
399.2220, 14781.38
399.7041, 14776.42
400.1862, 14808.79
400.6683, 14871.97
401.1505, 14899.19
401.6326, 14862.73
402.1147, 14820.83
402.5968, 14807.88
403.0789, 14840.88
403.5610, 14862.97
404.0432, 14874.21
404.5253, 14872.37
405.0074, 14846.17
405.4895, 14784.50
405.9716, 14732.52
406.4537, 14710.35
406.9359, 14718.21
407.4180, 14737.15
407.9001, 14771.57
408.3822, 14804.98
408.8643, 14816.23
409.3464, 14805.87
409.8285, 14788.12
410.3106, 14760.31
410.7928, 14731.76
411.2749, 14733.89
411.7570, 14766.75
412.2391, 14795.06
412.7212, 14777.95
413.2033, 14735.18
413.6855, 14714.32
414.1676, 14728.81
414.6497, 14760.44
415.1318, 14796.83
415.6139, 14835.24
416.0960, 14866.04
416.5782, 14886.41
417.0603, 14895.37
417.5424, 14886.05
418.0245, 14853.61
418.5066, 14829.24
418.9887, 14830.32
419.4709, 14849.70
419.9530, 14878.04
420.4351, 14933.94
420.9172, 14978.18
421.3993, 14984.95
421.8814, 14956.47
422.3636, 14943.36
422.8457, 14972.98
423.3278, 15012.40
423.8099, 15040.51
424.2920, 15039.13
424.7741, 15046.87
425.2563, 15074.55
425.7384, 15113.29
426.2205, 15136.82
426.7026, 15136.67
427.1847, 15132.53
427.6668, 15129.14
428.1490, 15123.73
428.6311, 15131.16
429.1132, 15155.02
429.5953, 15187.24
430.0774, 15217.69
430.5595, 15245.88
431.0417, 15273.38
431.5238, 15298.41
432.0059, 15322.90
432.4880, 15357.35
432.9701, 15402.54
433.4522, 15452.25
433.9344, 15507.58
434.4165, 15565.41
434.8986, 15607.39
435.3807, 15624.96
435.8628, 15640.04
436.3449, 15691.15
436.8271, 15771.08
437.3092, 15847.10
437.7913, 15883.76
438.2734, 15912.95
438.7555, 15985.84
439.2376, 16107.47
439.7197, 16226.34
440.2018, 16298.55
440.6840, 16345.06
441.1661, 16394.64
441.6482, 16461.05
442.1303, 16528.87
442.6124, 16585.80
443.0945, 16635.44
443.5767, 16694.58
444.0588, 16782.82
444.5409, 16873.39
445.0230, 16951.23
445.5051, 17013.56
445.9872, 17065.25
446.4694, 17106.98
446.9515, 17138.96
447.4336, 17161.82
447.9157, 17208.89
448.3978, 17208.15
448.8799, 17130.90
449.3621, 16970.32
449.8442, 16827.49
450.3263, 16709.58
450.8084, 16600.25
451.2905, 16486.82
451.7726, 16369.66
452.2548, 16247.68
452.7369, 16112.67
453.2190, 15978.69
453.7011, 15884.62
454.1832, 15834.42
454.6653, 15791.50
455.1475, 15730.01
455.6296, 15656.93
456.1117, 15607.43
456.5938, 15584.42
457.0759, 15577.52
457.5580, 15586.15
458.0402, 15603.22
458.5223, 15606.83
459.0044, 15578.95
459.4865, 15543.47
459.9686, 15519.97
460.4507, 15510.48
460.9329, 15525.02
461.4150, 15601.00
461.8971, 15687.05
462.3792, 15735.90
462.8613, 15730.36
463.3434, 15707.86
463.8256, 15666.33
464.3077, 15622.44
464.7898, 15602.63
465.2719, 15638.14
465.7540, 15676.66
466.2361, 15704.61
466.7183, 15721.74
467.2004, 15724.13
467.6825, 15691.60
468.1646, 15658.46
468.6467, 15645.70
469.1288, 15656.71
469.6109, 15684.50
470.0930, 15743.30
470.5752, 15812.60
471.0573, 15835.52
471.5394, 15795.47
472.0215, 15754.51
472.5036, 15738.31
472.9857, 15746.46
473.4679, 15760.20
473.9500, 15781.96
474.4321, 15799.42
474.9142, 15795.18
475.3963, 15772.83
475.8784, 15754.26
476.3606, 15745.31
476.8427, 15743.52
477.3248, 15747.07
477.8069, 15755.48
478.2890, 15764.45
478.7711, 15768.89
479.2533, 15774.08
479.7354, 15786.68
480.2175, 15808.09
480.6996, 15833.02
481.1817, 15862.33
481.6638, 15891.21
482.1460, 15913.28
482.6281, 15916.70
483.1102, 15920.87
483.5923, 15925.43
484.0744, 15932.59
484.5565, 15960.15
485.0387, 16028.70
485.5208, 16103.98
486.0029, 16169.81
486.4850, 16225.51
486.9671, 16271.98
487.4492, 16305.62
487.9314, 16332.04
488.4135, 16360.89
488.8956, 16399.16
489.3777, 16423.44
489.8598, 16424.16
490.3419, 16405.86
490.8241, 16396.32
491.3062, 16395.02
491.7883, 16407.18
492.2704, 16442.34
492.7525, 16497.47
493.2346, 16551.02
493.7168, 16600.78
494.1989, 16644.12
494.6810, 16668.10
495.1631, 16679.37
495.6452, 16703.27
496.1273, 16764.35
496.6095, 16836.69
497.0916, 16880.44
497.5737, 16899.12
498.0558, 16933.33
498.5379, 17029.95
499.0201, 17142.39
499.5022, 17226.80
499.9843, 17267.98
500.4664, 17294.29
500.9485, 17308.40
501.4306, 17315.62
501.9127, 17324.82
502.3948, 17353.49
502.8770, 17368.59
503.3591, 17348.77
503.8412, 17290.80
504.3233, 17272.14
504.8054, 17325.15
505.2875, 17380.84
505.7697, 17390.46
506.2518, 17340.84
506.7339, 17288.56
507.2160, 17238.51
507.6981, 17186.27
508.1802, 17116.23
508.6624, 17026.46
509.1445, 16953.81
509.6266, 16926.65
510.1087, 16927.29
510.5908, 16892.24
511.0729, 16821.27
511.5551, 16748.47
512.0372, 16706.00
512.5193, 16681.41
513.0014, 16649.22
513.4835, 16596.22
513.9656, 16554.24
514.4478, 16566.37
514.9299, 16607.39
515.4120, 16626.00
515.8941, 16564.41
516.3762, 16505.43
516.8583, 16503.12
517.3405, 16559.72
517.8226, 16591.16
518.3047, 16544.95
518.7868, 16489.39
519.2689, 16470.08
519.7510, 16528.25
520.2332, 16562.64
520.7153, 16558.35
521.1974, 16536.79
521.6795, 16540.89
522.1616, 16584.51
522.6437, 16616.44
523.1259, 16617.10
523.6080, 16591.18
524.0901, 16575.45
524.5722, 16571.26
525.0543, 16569.86
525.5364, 16560.65
526.0186, 16547.17
526.5007, 16546.93
526.9828, 16564.86
527.4649, 16587.32
527.9470, 16594.87
528.4291, 16593.68
528.9113, 16599.46
529.3934, 16631.84
529.8755, 16664.24
530.3576, 16667.52
530.8397, 16646.33
531.3218, 16639.89
531.8040, 16678.13
532.2861, 16729.61
532.7682, 16774.34
533.2503, 16813.56
533.7324, 16839.45
534.2145, 16829.58
534.6967, 16814.34
535.1788, 16835.87
535.6609, 16931.03
536.1430, 17003.73
536.6251, 17030.32
537.1072, 17018.78
537.5894, 17014.39
538.0715, 17021.01
538.5536, 17022.65
539.0357, 17003.40
539.5178, 16965.31
539.9999, 16945.66
540.4821, 16947.87
540.9642, 16959.37
541.4463, 16971.76
541.9284, 16982.12
542.4105, 16981.22
542.8926, 16961.50
543.3748, 16934.41
543.8569, 16907.18
544.3390, 16882.04
544.8211, 16866.32
545.3032, 16872.52
545.7853, 16882.72
546.2675, 16884.68
546.7495, 16876.30
547.2316, 16867.34
547.7137, 16858.03
548.1959, 16851.04
548.6780, 16848.65
549.1601, 16862.57
549.6422, 16865.27
550.1243, 16844.46
550.6064, 16814.83
551.0886, 16816.19
551.5707, 16864.42
552.0528, 16901.91
552.5349, 16902.59
553.0170, 16871.50
553.4991, 16861.60
553.9813, 16876.42
554.4634, 16888.12
554.9455, 16861.80
555.4276, 16810.84
555.9097, 16786.18
556.3918, 16800.14
556.8740, 16825.51
557.3561, 16831.28
557.8382, 16827.09
558.3203, 16832.62
558.8024, 16874.85
559.2845, 16913.97
559.7667, 16918.38
560.2488, 16893.98
560.7309, 16880.22
561.2130, 16889.35
561.6951, 16913.04
562.1772, 16951.57
562.6594, 17021.49
563.1415, 17062.23
563.6236, 17058.42
564.1057, 17035.34
564.5878, 17015.87
565.0699, 16995.56
565.5521, 16993.17
566.0342, 17017.06
566.5163, 17056.69
566.9984, 17085.13
567.4805, 17101.92
567.9626, 17113.09
568.4448, 17119.97
568.9269, 17123.90
569.4090, 17132.19
569.8911, 17144.88
570.3732, 17148.26
570.8553, 17113.74
571.3375, 17068.69
571.8196, 17054.04
572.3017, 17088.94
572.7838, 17129.29
573.2659, 17156.11
573.7480, 17171.46
574.2302, 17179.31
574.7123, 17177.73
575.1944, 17171.66
575.6765, 17156.85
576.1586, 17135.56
576.6407, 17131.97
577.1229, 17168.88
577.6050, 17193.49
578.0871, 17171.62
578.5692, 17087.80
579.0513, 17053.32
579.5334, 17080.83
580.0156, 17127.09
580.4977, 17137.43
580.9798, 17116.74
581.4619, 17114.88
581.9440, 17151.01
582.4261, 17196.01
582.9083, 17197.99
583.3904, 17169.24
583.8725, 17151.44
584.3546, 17174.38
584.8367, 17210.44
585.3188, 17241.23
585.8010, 17265.43
586.2831, 17281.70
586.7652, 17289.54
587.2473, 17288.93
587.7294, 17276.21
588.2115, 17226.25
588.6937, 17215.81
589.1758, 17281.61
589.6579, 17367.92
590.1400, 17402.48
590.6221, 17360.95
591.1042, 17332.97
591.5864, 17341.03
592.0685, 17370.09
592.5506, 17369.37
593.0327, 17337.17
593.5148, 17309.45
593.9969, 17306.82
594.4791, 17323.23
594.9612, 17345.60
595.4433, 17373.74
595.9254, 17399.41
596.4075, 17417.75
596.8896, 17429.25
597.3718, 17432.54
597.8539, 17422.59
598.3360, 17416.96
598.8181, 17421.94
599.3002, 17437.09
599.7823, 17461.53
600.2645, 17521.90
600.7466, 17560.91
601.2287, 17560.15
601.7108, 17527.56
602.1929, 17496.28
602.6750, 17457.47
603.1572, 17438.21
603.6393, 17461.78
604.1214, 17527.80
604.6035, 17545.52
605.0856, 17505.59
605.5677, 17463.63
606.0499, 17476.86
606.5320, 17532.16
607.0141, 17588.35
607.4962, 17641.64
607.9783, 17682.15
608.4604, 17670.05
608.9425, 17641.01
609.4246, 17660.61
609.9067, 17841.57
610.3889, 17994.50
610.8710, 18010.56
611.3531, 17914.38
611.8352, 17824.51
612.3173, 17750.24
612.7994, 17699.50
613.2816, 17675.60
613.7637, 17680.85
614.2458, 17704.59
614.7279, 17761.87
615.2100, 17812.72
615.6921, 17816.86
616.1743, 17771.88
616.6564, 17743.50
617.1385, 17739.72
617.6206, 17750.38
618.1027, 17767.36
618.5848, 17787.82
619.0670, 17802.02
619.5491, 17801.25
620.0312, 17797.76
620.5133, 17797.96
620.9954, 17804.10
621.4775, 17824.23
621.9597, 17872.74
622.4418, 17926.55
622.9239, 17975.96
623.4060, 18020.10
623.8881, 18057.42
624.3702, 18097.12
624.8524, 18121.32
625.3345, 18116.99
625.8166, 18072.26
626.2987, 18030.30
626.7808, 17986.52
627.2629, 17953.85
627.7451, 17955.07
628.2272, 17989.08
628.7093, 18026.84
629.1914, 18068.12
629.6735, 18099.37
630.1556, 18083.41
630.6378, 18035.03
631.1199, 18003.36
631.6020, 18042.20
632.0841, 18086.65
632.5662, 18073.49
633.0483, 18007.74
633.5305, 17965.46
634.0126, 17989.98
634.4947, 18035.33
634.9768, 18082.43
635.4589, 18145.03
635.9410, 18161.83
636.4232, 18106.54
636.9053, 18033.02
637.3874, 17991.60
637.8695, 17985.01
638.3516, 17998.13
638.8337, 18034.79
639.3159, 18079.30
639.7980, 18104.62
640.2801, 18113.28
640.7622, 18120.17
641.2443, 18132.48
641.7264, 18145.68
642.2086, 18153.48
642.6907, 18157.48
643.1728, 18162.98
643.6549, 18181.48
644.1370, 18196.06
644.6191, 18186.76
645.1013, 18146.35
645.5834, 18141.51
646.0655, 18227.43
646.5476, 18315.96
647.0297, 18351.88
647.5118, 18308.17
647.9940, 18283.46
648.4761, 18277.87
648.9582, 18290.54
649.4403, 18332.85
649.9224, 18401.49
650.4045, 18439.54
650.8867, 18421.48
651.3688, 18388.10
651.8509, 18406.95
652.3330, 18463.46
652.8151, 18512.80
653.2972, 18532.04
653.7794, 18537.03
654.2615, 18537.25
654.7436, 18532.96
655.2257, 18522.04
655.7078, 18488.57
656.1899, 18462.00
656.6721, 18460.35
657.1542, 18489.73
657.6363, 18508.89
658.1184, 18514.26
658.6005, 18514.88
659.0826, 18514.03
659.5648, 18510.60
660.0469, 18526.19
660.5290, 18566.89
661.0111, 18612.20
661.4932, 18630.39
661.9753, 18630.95
662.4575, 18641.71
662.9396, 18680.94
663.4217, 18719.79
663.9038, 18729.01
664.3859, 18719.78
664.8680, 18717.11
665.3502, 18715.95
665.8323, 18737.34
666.3144, 18801.53
666.7965, 18904.92
667.2786, 18986.73
667.7607, 19045.53
668.2429, 19082.15
668.7250, 19085.55
669.2071, 19052.71
669.6892, 19061.46
670.1713, 19116.18
670.6534, 19184.35
671.1355, 19249.04
671.6176, 19304.13
672.0997, 19322.18
672.5818, 19293.27
673.0640, 19267.02
673.5461, 19293.85
674.0282, 19348.97
674.5103, 19400.26
674.9924, 19461.70
675.4745, 19488.89
675.9567, 19441.40
676.4388, 19354.14
676.9209, 19301.47
677.4030, 19306.45
677.8851, 19314.53
678.3672, 19316.30
678.8494, 19312.54
679.3315, 19309.17
679.8136, 19307.45
680.2957, 19291.79
680.7778, 19243.68
681.2599, 19175.59
681.7421, 19123.44
682.2242, 19086.20
682.7063, 19062.34
683.1884, 19062.45
683.6705, 19067.80
684.1526, 19056.17
684.6348, 19020.62
685.1169, 18993.77
685.5990, 18997.96
686.0811, 19010.40
686.5632, 19011.31
687.0453, 18990.96
687.5275, 18978.59
688.0096, 18985.11
688.4917, 18990.25
688.9738, 18955.02
689.4559, 18875.19
689.9380, 18823.97
690.4202, 18823.56
690.9023, 18849.43
691.3844, 18861.50
691.8665, 18863.19
692.3486, 18867.51
692.8307, 18887.68
693.3129, 18906.42
693.7950, 18907.19
694.2771, 18893.47
694.7592, 18882.28
695.2413, 18878.51
695.7234, 18878.55
696.2056, 18886.00
696.6877, 18901.94
697.1698, 18895.22
697.6519, 18854.61
698.1340, 18814.04
698.6161, 18796.72
699.0983, 18802.55
699.5804, 18810.69
700.0625, 18821.83
700.5446, 18828.83
701.0267, 18817.64
701.5089, 18798.97
701.9910, 18795.03
702.4731, 18815.25
702.9552, 18832.64
703.4373, 18822.16
703.9194, 18801.66
704.4016, 18792.94
704.8837, 18809.49
705.3658, 18827.05
705.8479, 18844.19
706.3300, 18859.47
706.8121, 18871.21
707.2943, 18880.13
707.7764, 18882.41
708.2585, 18876.68
708.7406, 18864.21
709.2227, 18849.14
709.7048, 18831.27
710.1870, 18807.74
710.6691, 18747.57
711.1512, 18699.86
711.6333, 18740.08
712.1154, 18855.38
712.5975, 18949.53
713.0797, 18968.07
713.5618, 18961.93
714.0439, 18953.55
714.5260, 18942.17
715.0081, 18945.59
715.4902, 18968.89
715.9724, 18999.52
716.4545, 19033.91
716.9366, 19074.52
717.4187, 19087.70
717.9008, 19067.90
718.3829, 19042.82
718.8651, 19051.43
719.3472, 19076.68
719.8293, 19073.26
720.3114, 19024.44
720.7935, 18974.40
721.2756, 18939.11
721.7578, 18929.08
722.2399, 18958.22
722.7220, 19096.19
723.2041, 19193.25
723.6862, 19208.03
724.1683, 19174.70
724.6505, 19146.40
725.1326, 19121.16
725.6147, 19107.57
726.0968, 19111.13
726.5789, 19124.30
727.0610, 19125.17
727.5432, 19115.83
728.0253, 19114.24
728.5074, 19147.62
728.9895, 19181.51
729.4716, 19160.52
729.9537, 19098.72
730.4359, 19060.60
730.9180, 19097.95
731.4000, 19145.08
731.8821, 19176.04
732.3643, 19188.29
732.8464, 19177.29
733.3285, 19117.26
733.8106, 19073.43
734.2927, 19090.41
734.7748, 19168.86
735.2570, 19210.57
735.7391, 19211.74
736.2212, 19207.23
736.7033, 19233.55
737.1854, 19274.27
737.6675, 19296.05
738.1497, 19292.51
738.6318, 19288.70
739.1139, 19312.62
739.5960, 19337.93
740.0781, 19338.76
740.5602, 19292.71
741.0424, 19252.97
741.5245, 19208.70
742.0066, 19183.53
742.4887, 19218.96
742.9708, 19333.83
743.4529, 19391.28
743.9351, 19356.32
744.4172, 19290.03
744.8993, 19289.01
745.3814, 19339.27
745.8635, 19392.33
746.3456, 19429.18
746.8278, 19466.13
747.3099, 19541.33
747.7920, 19623.52
748.2741, 19648.46
748.7562, 19511.97
749.2383, 19412.60
749.7205, 19441.15
750.2026, 19544.56
750.6847, 19541.60
751.1668, 19398.59
751.6489, 19258.95
752.1310, 19162.20
752.6132, 19109.74
753.0953, 19117.38
753.5774, 19181.15
754.0595, 19259.02
754.5416, 19342.60
755.0237, 19417.20
755.5059, 19458.95
755.9880, 19471.04
756.4701, 19496.89
756.9522, 19603.71
757.4343, 19682.05
757.9164, 19660.88
758.3986, 19532.06
758.8807, 19435.46
759.3628, 19377.29
759.8449, 19340.18
760.3270, 19320.50
760.8091, 19316.37
761.2913, 19300.73
761.7734, 19272.87
762.2555, 19255.24
762.7376, 19271.98
763.2197, 19308.82
763.7018, 19354.74
764.1840, 19413.95
764.6661, 19446.82
765.1482, 19399.02
765.6303, 19340.18
766.1124, 19330.93
766.5945, 19401.69
767.0767, 19457.33
767.5588, 19498.29
768.0409, 19521.08
768.5230, 19508.47
769.0051, 19464.76
769.4872, 19455.87
769.9694, 19498.71
770.4515, 19547.24
770.9336, 19546.62
771.4157, 19516.86
771.8978, 19490.38
772.3799, 19474.73
772.8621, 19467.96
773.3442, 19472.67
773.8263, 19485.35
774.3084, 19502.05
774.7905, 19536.39
775.2726, 19547.64
775.7548, 19524.51
776.2369, 19483.94
776.7190, 19457.44
777.2011, 19444.63
777.6832, 19438.19
778.1653, 19434.29
778.6475, 19438.31
779.1296, 19460.14
779.6117, 19494.83
780.0938, 19531.48
780.5759, 19576.01
781.0580, 19608.72
781.5402, 19612.85
782.0223, 19597.64
782.5044, 19595.93
782.9865, 19612.08
783.4686, 19633.08
783.9507, 19660.29
784.4329, 19687.06
784.9150, 19690.02
785.3971, 19670.73
785.8792, 19651.95
786.3613, 19648.03
786.8434, 19649.33
787.3256, 19643.44
787.8077, 19632.69
788.2898, 19624.90
788.7719, 19618.43
789.2540, 19620.75
789.7361, 19640.83
790.2183, 19675.71
790.7004, 19698.29
791.1825, 19702.92
791.6646, 19707.97
792.1467, 19722.94
792.6288, 19744.17
793.1110, 19754.18
793.5930, 19753.34
794.0751, 19754.45
794.5573, 19777.29
795.0394, 19798.91
795.5215, 19783.36
796.0036, 19734.35
796.4857, 19708.51
796.9678, 19754.48
797.4500, 19803.07
797.9321, 19820.16
798.4142, 19804.38
798.8963, 19799.07
799.3784, 19807.35
799.8605, 19817.60
800.3427, 19817.86
800.8248, 19813.77
801.3069, 19833.25
801.7890, 19875.78
802.2711, 19913.65
802.7532, 19923.29
803.2354, 19920.82
803.7175, 19921.21
804.1996, 19926.75
804.6817, 19925.08
805.1638, 19909.02
805.6459, 19888.62
806.1281, 19867.10
806.6102, 19843.44
807.0923, 19825.75
807.5744, 19812.95
808.0565, 19811.49
808.5386, 19834.66
809.0208, 19871.99
809.5029, 19900.10
809.9850, 19917.32
810.4671, 19921.89
810.9492, 19908.05
811.4313, 19884.35
811.9135, 19848.50
812.3956, 19782.99
812.8777, 19777.70
813.3598, 19876.35
813.8419, 19982.84
814.3240, 20029.18
814.8062, 20012.78
815.2883, 19990.38
815.7704, 19962.49
816.2525, 19937.40
816.7346, 19922.76
817.2167, 19916.11
817.6989, 19913.99
818.1810, 19916.18
818.6631, 19922.47
819.1452, 19939.01
819.6273, 19955.95
820.1094, 19963.94
820.5916, 19957.48
821.0737, 19962.65
821.5558, 19983.93
822.0379, 20008.09
822.5200, 20022.76
823.0021, 20029.37
823.4843, 20036.74
823.9664, 20045.44
824.4485, 20054.57
824.9306, 20059.18
825.4127, 20065.54
825.8948, 20085.75
826.3770, 20131.12
826.8591, 20151.58
827.3412, 20093.15
827.8233, 20037.87
828.3054, 20042.58
828.7875, 20120.22
829.2697, 20210.23
829.7518, 20325.73
830.2339, 20403.31
830.7160, 20350.75
831.1981, 20221.25
831.6802, 20137.33
832.1624, 20115.61
832.6445, 20118.61
833.1266, 20143.69
833.6087, 20169.40
834.0908, 20174.39
834.5729, 20139.37
835.0551, 20132.12
835.5372, 20166.99
836.0193, 20208.89
836.5014, 20224.41
836.9835, 20215.49
837.4656, 20235.29
837.9478, 20288.97
838.4299, 20335.97
838.9120, 20334.23
839.3941, 20307.53
839.8762, 20280.95
840.3583, 20255.75
840.8405, 20247.31
841.3226, 20278.06
841.8047, 20313.95
842.2868, 20333.25
842.7689, 20333.09
843.2510, 20329.38
843.7332, 20321.09
844.2153, 20311.97
844.6974, 20297.82
845.1795, 20285.90
845.6616, 20302.24
846.1437, 20348.78
846.6259, 20393.40
847.1080, 20415.42
847.5901, 20426.03
848.0722, 20435.17
848.5543, 20446.33
849.0364, 20440.03
849.5186, 20401.24
850.0007, 20368.52
850.4828, 20371.91
850.9649, 20409.88
851.4470, 20428.96
851.9291, 20428.86
852.4113, 20426.74
852.8934, 20431.08
853.3755, 20443.92
853.8576, 20477.88
854.3397, 20533.66
854.8218, 20562.60
855.3039, 20506.44
855.7860, 20459.77
856.2681, 20477.70
856.7502, 20562.06
857.2324, 20600.85
857.7145, 20585.95
858.1966, 20566.10
858.6787, 20568.55
859.1608, 20589.23
859.6429, 20624.84
860.1251, 20672.54
860.6072, 20717.51
861.0893, 20761.68
861.5714, 20790.69
862.0535, 20787.83
862.5356, 20752.88
863.0178, 20737.49
863.4999, 20749.40
863.9820, 20765.43
864.4641, 20778.10
864.9462, 20786.70
865.4283, 20784.56
865.9105, 20773.19
866.3926, 20763.96
866.8747, 20767.21
867.3568, 20773.06
867.8389, 20779.16
868.3210, 20782.50
868.8032, 20769.73
869.2853, 20702.79
869.7674, 20662.98
870.2495, 20676.28
870.7316, 20729.26
871.2137, 20778.17
871.6959, 20823.53
872.1780, 20849.23
872.6601, 20841.16
873.1422, 20818.73
873.6243, 20804.96
874.1064, 20797.69
874.5886, 20791.48
875.0707, 20776.13
875.5528, 20769.62
876.0349, 20781.76
876.5170, 20804.56
876.9991, 20821.80
877.4813, 20829.48
877.9634, 20850.99
878.4455, 20898.46
878.9276, 20949.45
879.4097, 20962.46
879.8918, 20948.03
880.3740, 20931.66
880.8561, 20917.90
881.3382, 20911.92
881.8203, 20922.44
882.3024, 20940.56
882.7845, 20951.48
883.2667, 20941.42
883.7488, 20957.82
884.2309, 21016.89
884.7130, 21079.19
885.1951, 21082.78
885.6772, 21041.01
886.1594, 21008.08
886.6415, 20993.29
887.1236, 20994.27
887.6057, 21021.63
888.0878, 21057.70
888.5699, 21083.39
889.0521, 21090.19
889.5342, 21099.72
890.0163, 21117.56
890.4984, 21131.97
890.9805, 21130.45
891.4626, 21114.34
891.9448, 21101.29
892.4269, 21091.40
892.9090, 21096.79
893.3911, 21129.46
893.8732, 21181.13
894.3553, 21258.17
894.8375, 21367.36
895.3196, 21420.62
895.8017, 21336.91
896.2838, 21258.93
896.7659, 21261.93
897.2480, 21341.93
897.7302, 21361.97
898.2123, 21320.00
898.6944, 21270.61
899.1765, 21248.75
899.6586, 21242.18
900.1407, 21237.10
900.6229, 21233.92
901.1050, 21235.07
901.5871, 21243.48
902.0692, 21256.01
902.5513, 21278.15
903.0334, 21303.85
903.5156, 21298.91
903.9977, 21257.08
904.4798, 21235.26
904.9619, 21268.76
905.4440, 21316.83
905.9261, 21295.55
906.4083, 21234.83
906.8904, 21209.38
907.3725, 21296.40
907.8546, 21371.85
908.3367, 21390.44
908.8188, 21371.33
909.3010, 21342.80
909.7831, 21299.06
910.2652, 21272.01
910.7473, 21268.85
911.2294, 21279.37
911.7115, 21288.58
912.1937, 21300.27
912.6758, 21326.49
913.1579, 21379.81
913.6400, 21419.44
914.1221, 21420.95
914.6042, 21401.66
915.0864, 21375.02
915.5685, 21323.91
916.0506, 21323.38
916.5327, 21387.40
917.0148, 21460.08
917.4969, 21490.17
917.9790, 21489.25
918.4611, 21480.77
918.9432, 21467.17
919.4254, 21459.73
919.9075, 21462.38
920.3896, 21476.19
920.8717, 21504.09
921.3538, 21546.52
921.8359, 21588.98
922.3181, 21628.56
922.8002, 21676.44
923.2823, 21751.65
923.7644, 21834.98
924.2465, 21855.40
924.7286, 21824.76
925.2108, 21801.19
925.6929, 21822.21
926.1750, 21852.94
926.6571, 21886.63
927.1392, 21915.26
927.6213, 21908.76
928.1035, 21843.04
928.5856, 21810.53
929.0677, 21842.01
929.5498, 21905.60
930.0319, 21949.24
930.5140, 21973.49
930.9962, 21979.69
931.4783, 21964.43
931.9604, 21939.33
932.4425, 21904.63
932.9246, 21866.80
933.4067, 21831.42
933.8889, 21783.54
934.3710, 21778.90
934.8531, 21832.59
935.3352, 21897.94
935.8173, 21914.51
936.2994, 21900.19
936.7816, 21905.35
937.2637, 21935.95
937.7458, 21982.39
938.2279, 22056.96
938.7100, 22130.89
939.1921, 22182.16
939.6743, 22208.15
940.1564, 22224.49
940.6385, 22233.59
941.1206, 22225.62
941.6027, 22182.82
942.0848, 22122.02
942.5670, 22087.15
943.0491, 22078.43
943.5312, 22095.23
944.0133, 22166.51
944.4954, 22234.12
944.9775, 22273.52
945.4597, 22284.37
945.9418, 22269.34
946.4239, 22218.98
946.9060, 22171.25
947.3881, 22132.16
947.8702, 22104.04
948.3524, 22093.94
948.8345, 22098.00
949.3166, 22106.38
949.7987, 22116.57
950.2808, 22129.95
950.7629, 22153.65
951.2451, 22176.75
951.7272, 22187.91
952.2093, 22185.72
952.6914, 22171.25
953.1735, 22139.74
953.6556, 22112.50
954.1378, 22118.64
954.6199, 22141.01
955.1020, 22143.42
955.5841, 22123.28
956.0662, 22109.98
956.5483, 22130.48
957.0305, 22149.72
957.5126, 22142.95
957.9947, 22114.12
958.4768, 22115.79
958.9589, 22153.29
959.4410, 22182.90
959.9232, 22177.30
960.4053, 22157.67
960.8874, 22160.04
961.3695, 22176.69
961.8516, 22187.23
962.3337, 22167.63
962.8159, 22160.34
963.2980, 22189.52
963.7801, 22228.57
964.2622, 22233.78
964.7443, 22201.43
965.2264, 22183.28
965.7086, 22189.52
966.1907, 22202.00
966.6728, 22202.24
967.1549, 22195.98
967.6370, 22191.10
968.1191, 22190.01
968.6013, 22186.84
969.0834, 22165.80
969.5655, 22159.78
970.0476, 22204.20
970.5297, 22293.86
971.0118, 22289.07
971.4940, 22191.35
971.9761, 22107.72
972.4582, 22117.20
972.9403, 22166.49
973.4224, 22220.19
973.9045, 22273.42
974.3867, 22311.14
974.8688, 22320.62
975.3509, 22331.77
975.8330, 22352.08
976.3151, 22375.35
976.7972, 22382.89
977.2794, 22379.09
977.7615, 22391.25
978.2435, 22436.11
978.7256, 22472.81
979.2078, 22466.94
979.6899, 22437.81
980.1720, 22403.46
980.6541, 22351.99
981.1362, 22334.61
981.6183, 22357.11
982.1005, 22398.94
982.5826, 22466.56
983.0647, 22537.58
983.5468, 22527.08
984.0289, 22439.10
984.5110, 22368.53
984.9932, 22374.59
985.4753, 22406.60
985.9574, 22450.91
986.4395, 22500.05
986.9216, 22520.99
987.4037, 22508.58
987.8859, 22495.31
988.3680, 22490.64
988.8501, 22491.95
989.3322, 22500.13
989.8143, 22510.33
990.2964, 22511.90
990.7786, 22484.79
991.2607, 22476.60
991.7428, 22508.73
992.2249, 22556.01
992.7070, 22601.25
993.1891, 22645.47
993.6713, 22659.81
994.1534, 22640.30
994.6355, 22635.60
995.1176, 22714.52
995.5997, 22811.21
996.0818, 22850.73
996.5640, 22830.45
997.0461, 22824.82
997.5282, 22851.62
998.0103, 22882.14
998.4924, 22909.04
998.9745, 22931.71
999.4567, 22944.60
999.9388, 22950.70
1000.421, 22964.92
1000.903, 22992.88
1001.385, 23030.96
1001.867, 23092.99
1002.349, 23156.56
1002.831, 23186.14
1003.314, 23162.31
1003.796, 23155.95
1004.278, 23172.01
1004.760, 23197.27
1005.242, 23236.42
1005.724, 23270.12
1006.206, 23245.79
1006.688, 23162.41
1007.171, 23095.69
1007.653, 23089.89
1008.135, 23098.42
1008.617, 23101.67
1009.099, 23101.15
1009.581, 23107.15
1010.063, 23120.34
1010.545, 23122.49
1011.027, 23102.96
1011.510, 23076.16
1011.992, 23047.20
1012.474, 23025.73
1012.956, 23027.87
1013.438, 23101.14
1013.920, 23126.37
1014.402, 23074.95
1014.884, 23012.25
1015.367, 23006.09
1015.849, 23045.53
1016.331, 23070.64
1016.813, 23078.25
1017.295, 23081.60
1017.777, 23090.04
1018.259, 23097.32
1018.741, 23096.18
1019.223, 23089.08
1019.706, 23095.62
1020.188, 23121.97
1020.670, 23136.39
1021.152, 23121.37
1021.634, 23101.58
1022.116, 23121.51
1022.598, 23167.54
1023.080, 23213.04
1023.563, 23251.01
1024.045, 23284.69
1024.527, 23320.94
1025.009, 23346.76
1025.491, 23344.30
1025.973, 23313.02
1026.455, 23310.91
1026.937, 23339.20
1027.419, 23357.74
1027.901, 23326.38
1028.384, 23280.28
1028.866, 23238.99
1029.348, 23207.61
1029.830, 23212.51
1030.312, 23279.96
1030.794, 23323.43
1031.276, 23319.44
1031.758, 23288.48
1032.241, 23254.51
1032.723, 23225.54
1033.205, 23226.72
1033.687, 23279.61
1034.169, 23315.07
1034.651, 23274.18
1035.133, 23226.33
1035.615, 23230.16
1036.098, 23292.66
1036.580, 23289.92
1037.062, 23217.64
1037.544, 23168.19
1038.026, 23232.51
1038.508, 23327.97
1038.990, 23370.34
1039.472, 23369.05
1039.954, 23363.95
1040.437, 23368.02
1040.919, 23358.40
1041.401, 23325.47
1041.883, 23289.65
1042.365, 23288.54
1042.847, 23311.17
1043.329, 23320.46
1043.811, 23310.07
1044.293, 23290.86
1044.776, 23246.77
1045.258, 23216.94
1045.740, 23237.44
1046.222, 23305.22
1046.704, 23327.27
1047.186, 23298.59
1047.668, 23279.78
1048.150, 23309.30
1048.633, 23353.48
1049.115, 23370.62
1049.597, 23371.24
1050.079, 23376.85
1050.561, 23412.68
1051.043, 23420.48
1051.525, 23380.29
1052.007, 23340.20
1052.490, 23364.31
1052.972, 23433.35
1053.454, 23471.44
1053.936, 23473.45
1054.418, 23481.57
1054.900, 23529.60
1055.382, 23581.25
1055.864, 23623.49
1056.346, 23652.21
1056.828, 23642.25
1057.311, 23589.04
1057.793, 23553.10
1058.275, 23558.84
1058.757, 23575.08
1059.239, 23564.03
1059.721, 23541.58
1060.203, 23530.92
1060.685, 23547.67
1061.168, 23552.28
1061.650, 23541.09
1062.132, 23524.17
1062.614, 23506.05
1063.096, 23488.60
1063.578, 23472.46
1064.060, 23460.89
1064.542, 23470.37
1065.025, 23546.70
1065.507, 23603.98
1065.989, 23584.09
1066.471, 23532.23
1066.953, 23526.38
1067.435, 23570.48
1067.917, 23576.30
1068.399, 23525.28
1068.881, 23475.09
1069.364, 23485.03
1069.846, 23520.39
1070.328, 23546.65
1070.810, 23558.84
1071.292, 23577.18
1071.774, 23604.14
1072.256, 23631.63
1072.738, 23659.39
1073.220, 23681.03
1073.703, 23674.42
1074.185, 23650.50
1074.667, 23636.92
1075.149, 23647.57
1075.631, 23662.47
1076.113, 23685.70
1076.595, 23703.04
1077.077, 23697.18
1077.559, 23669.86
1078.042, 23665.39
1078.524, 23684.53
1079.006, 23709.52
1079.488, 23738.04
1079.970, 23759.33
1080.452, 23764.49
1080.934, 23755.63
1081.416, 23743.78
1081.899, 23728.42
1082.381, 23707.91
1082.863, 23675.83
1083.345, 23658.08
1083.827, 23699.06
1084.309, 23768.57
1084.791, 23826.29
1085.273, 23864.07
1085.755, 23896.24
1086.238, 23928.61
1086.720, 23949.35
1087.202, 23948.52
1087.684, 23935.14
1088.166, 23941.74
1088.648, 23962.60
1089.130, 23974.40
1089.612, 23958.61
1090.094, 23947.60
1090.577, 23963.14
1091.059, 23986.40
1091.541, 23994.99
1092.023, 23985.63
1092.505, 24008.40
1092.987, 24065.15
1093.469, 24111.86
1093.951, 24091.96
1094.434, 24067.52
1094.916, 24105.46
1095.398, 24186.95
1095.880, 24224.25
1096.362, 24185.97
1096.844, 24192.73
1097.326, 24282.44
1097.808, 24367.53
1098.291, 24294.27
1098.773, 24152.15
1099.255, 24106.36
1099.737, 24188.99
1100.219, 24250.47
1100.701, 24241.72
1101.183, 24221.49
1101.665, 24209.12
1102.147, 24202.21
1102.630, 24188.76
1103.112, 24172.73
1103.594, 24169.34
1104.076, 24182.05
1104.558, 24211.68
1105.040, 24284.46
1105.522, 24354.12
1106.004, 24373.60
1106.486, 24336.39
1106.969, 24330.02
1107.451, 24354.74
1107.933, 24360.79
1108.415, 24283.64
1108.897, 24201.76
1109.379, 24189.60
1109.861, 24225.68
1110.343, 24248.46
1110.826, 24257.36
1111.308, 24243.74
1111.790, 24201.80
1112.272, 24157.99
1112.754, 24136.72
1113.236, 24134.15
1113.718, 24146.03
1114.200, 24171.52
1114.682, 24206.42
1115.165, 24269.38
1115.647, 24306.23
1116.129, 24294.22
1116.611, 24254.56
1117.093, 24227.42
1117.575, 24210.89
1118.057, 24199.88
1118.539, 24192.49
1119.021, 24192.60
1119.504, 24207.58
1119.986, 24226.35
1120.468, 24248.44
1120.950, 24271.14
1121.432, 24253.92
1121.914, 24202.59
1122.396, 24165.85
1122.878, 24167.55
1123.361, 24193.35
1123.843, 24247.88
1124.325, 24315.63
1124.807, 24378.59
1125.289, 24441.92
1125.771, 24461.31
1126.253, 24431.23
1126.735, 24399.36
1127.218, 24398.78
1127.700, 24418.79
1128.182, 24456.67
1128.664, 24506.33
1129.146, 24545.44
1129.628, 24567.54
1130.110, 24589.19
1130.592, 24612.70
1131.074, 24634.74
1131.557, 24647.12
1132.039, 24657.06
1132.521, 24684.31
1133.003, 24732.98
1133.485, 24749.33
1133.967, 24696.98
1134.449, 24654.73
1134.931, 24648.92
1135.413, 24668.88
1135.896, 24703.82
1136.378, 24742.69
1136.860, 24751.06
1137.342, 24709.59
1137.824, 24667.19
1138.306, 24628.75
1138.788, 24608.67
1139.270, 24619.28
1139.752, 24656.13
1140.235, 24689.87
1140.717, 24719.41
1141.199, 24743.13
1141.681, 24763.13
1142.163, 24771.55
1142.645, 24755.92
1143.127, 24730.35
1143.609, 24709.62
1144.092, 24692.34
1144.574, 24701.21
1145.056, 24738.00
1145.538, 24777.48
1146.020, 24814.94
1146.502, 24837.19
1146.984, 24823.59
1147.466, 24787.08
1147.948, 24768.20
1148.431, 24773.18
1148.913, 24769.04
1149.395, 24748.49
1149.877, 24732.70
1150.359, 24744.56
1150.841, 24771.49
1151.323, 24803.94
1151.805, 24839.25
1152.287, 24862.55
1152.770, 24865.29
1153.252, 24877.40
1153.734, 24911.96
1154.216, 24947.51
1154.698, 24948.34
1155.180, 24928.52
1155.662, 24908.61
1156.144, 24891.50
1156.627, 24881.53
1157.109, 24875.69
1157.591, 24884.73
1158.073, 24920.63
1158.555, 24969.13
1159.037, 25007.93
1159.519, 25030.63
1160.001, 25016.47
1160.484, 24919.91
1160.966, 24864.70
1161.448, 24890.79
1161.930, 24941.00
1162.412, 24990.30
1162.894, 25030.96
1163.376, 25007.45
1163.858, 24933.88
1164.340, 24879.77
1164.823, 24903.40
1165.305, 24921.62
1165.787, 24909.44
1166.269, 24880.13
1166.751, 24834.30
1167.233, 24778.28
1167.715, 24781.49
1168.197, 24845.15
1168.679, 24914.05
1169.162, 24970.60
1169.644, 25004.31
1170.126, 24989.71
1170.608, 24955.88
1171.090, 24955.97
1171.572, 24988.65
1172.054, 25021.49
1172.536, 25048.92
1173.019, 25080.70
1173.501, 25140.10
1173.983, 25192.28
1174.465, 25205.23
1174.947, 25188.43
1175.429, 25181.88
1175.911, 25186.50
1176.393, 25184.14
1176.875, 25167.65
1177.358, 25155.65
1177.840, 25170.16
1178.322, 25195.08
1178.804, 25217.20
1179.286, 25236.00
1179.768, 25241.40
1180.250, 25230.61
1180.732, 25238.27
1181.214, 25291.23
1181.697, 25341.61
1182.179, 25317.53
1182.661, 25269.25
1183.143, 25270.62
1183.625, 25347.13
1184.107, 25376.37
1184.589, 25350.56
1185.071, 25321.55
1185.554, 25319.39
1186.036, 25329.06
1186.518, 25338.90
1187.000, 25345.33
1187.482, 25339.17
1187.964, 25296.17
1188.446, 25304.58
1188.928, 25380.70
1189.411, 25444.78
1189.893, 25413.09
1190.375, 25346.81
1190.857, 25339.01
1191.339, 25370.41
1191.821, 25376.44
1192.303, 25316.31
1192.785, 25296.63
1193.267, 25333.64
1193.750, 25384.64
1194.232, 25420.33
1194.714, 25433.54
1195.196, 25388.81
1195.678, 25302.15
1196.160, 25278.22
1196.642, 25398.54
1197.124, 25450.52
1197.606, 25381.77
1198.089, 25287.72
1198.571, 25295.65
1199.053, 25362.75
1199.535, 25425.85
1200.017, 25477.64
1200.499, 25522.35
1200.981, 25571.79
1201.463, 25591.94
1201.945, 25565.81
1202.428, 25523.55
1202.910, 25505.14
1203.392, 25508.04
1203.874, 25536.19
1204.356, 25595.11
1204.838, 25622.36
1205.320, 25582.91
1205.802, 25561.39
1206.285, 25594.97
1206.767, 25651.46
1207.249, 25665.13
1207.731, 25653.99
1208.213, 25654.02
1208.695, 25676.98
1209.177, 25696.64
1209.659, 25708.25
1210.141, 25717.67
1210.624, 25727.19
1211.106, 25736.45
1211.588, 25734.95
1212.070, 25734.11
1212.552, 25764.82
1213.034, 25866.46
1213.516, 25919.72
1213.998, 25895.49
1214.480, 25857.19
1214.963, 25845.06
1215.445, 25846.51
1215.927, 25819.62
1216.409, 25779.51
1216.891, 25766.13
1217.373, 25826.10
1217.855, 25861.27
1218.337, 25863.31
1218.820, 25843.66
1219.302, 25790.16
1219.784, 25729.28
1220.266, 25738.98
1220.748, 25801.03
1221.230, 25856.86
1221.712, 25889.43
1222.194, 25906.53
1222.677, 25906.68
1223.159, 25896.97
1223.641, 25877.62
1224.123, 25855.53
1224.605, 25837.58
1225.087, 25828.54
1225.569, 25848.36
1226.051, 25952.94
1226.533, 26009.11
1227.016, 25987.43
1227.498, 25946.54
1227.980, 25944.73
1228.462, 25973.59
1228.944, 26037.91
1229.426, 26126.11
1229.908, 26165.96
1230.390, 26082.63
1230.872, 26049.93
1231.355, 26107.81
1231.837, 26188.21
1232.319, 26201.68
1232.801, 26179.26
1233.283, 26168.19
1233.765, 26172.38
1234.247, 26183.85
1234.729, 26201.04
1235.212, 26221.58
1235.694, 26241.71
1236.176, 26272.48
1236.658, 26357.12
1237.140, 26446.91
1237.622, 26455.83
1238.104, 26375.30
1238.586, 26319.38
1239.068, 26305.79
1239.551, 26298.48
1240.033, 26288.33
1240.515, 26283.07
1240.997, 26302.34
1241.479, 26328.84
1241.961, 26338.94
1242.443, 26329.28
1242.925, 26311.90
1243.407, 26277.46
1243.890, 26277.20
1244.372, 26335.33
1244.854, 26411.01
1245.336, 26456.56
1245.818, 26481.47
1246.300, 26485.43
1246.782, 26462.61
1247.264, 26505.88
1247.747, 26638.46
1248.229, 26693.25
1248.711, 26579.08
1249.193, 26434.98
1249.675, 26419.51
1250.157, 26462.80
1250.639, 26480.47
1251.121, 26463.81
1251.604, 26483.26
1252.086, 26546.06
1252.568, 26571.46
1253.050, 26509.51
1253.532, 26437.18
1254.014, 26416.75
1254.496, 26434.21
1254.978, 26481.85
1255.460, 26558.13
1255.943, 26616.81
1256.425, 26657.20
1256.907, 26673.82
1257.389, 26648.33
1257.871, 26626.64
1258.353, 26661.04
1258.835, 26702.61
1259.317, 26699.80
1259.799, 26652.12
1260.281, 26611.51
1260.764, 26579.38
1261.246, 26573.70
1261.728, 26635.47
1262.210, 26674.83
1262.692, 26621.78
1263.174, 26542.77
1263.656, 26491.58
1264.138, 26467.46
1264.621, 26455.87
1265.103, 26458.21
1265.585, 26480.53
1266.067, 26551.71
1266.549, 26604.01
1267.031, 26578.71
1267.513, 26561.36
1267.995, 26632.82
1268.478, 26768.36
1268.960, 26837.80
1269.442, 26852.56
1269.924, 26861.70
1270.406, 26859.80
1270.888, 26895.86
1271.370, 26997.26
1271.852, 27095.76
1272.334, 27128.81
1272.817, 27115.88
1273.299, 27111.68
1273.781, 27111.96
1274.263, 27102.65
1274.745, 27069.31
1275.227, 27041.08
1275.709, 27017.20
1276.191, 27008.22
1276.673, 27040.05
1277.156, 27083.31
1277.638, 27079.47
1278.120, 27045.38
1278.602, 27028.38
1279.084, 27051.22
1279.566, 27062.48
1280.048, 27059.77
1280.530, 27050.21
1281.013, 27022.83
1281.495, 27004.97
1281.977, 27044.12
1282.459, 27113.06
1282.941, 27141.97
1283.423, 27111.49
1283.905, 27116.70
1284.387, 27164.50
1284.870, 27201.09
1285.352, 27155.54
1285.834, 27112.11
1286.316, 27153.62
1286.798, 27233.23
1287.280, 27261.11
1287.762, 27233.75
1288.244, 27226.70
1288.726, 27242.35
1289.208, 27252.77
1289.691, 27223.94
1290.173, 27204.24
1290.655, 27239.77
1291.137, 27283.17
1291.619, 27268.38
##END=



