##NAMES=Bayldonite
##RRUFFID=R110033
##IDEAL CHEMISTRY=Cu^2+^_3_Pb^2+^O(As^5+^O_3_OH)_2_(OH)_2_
##LOCALITY=Tsumeb, Namibia
##OWNER=RRUFF
##SOURCE=William W Pinch
##DESCRIPTION=Bright green tabular crystals associated with azurite, conichalcite, and wulfenite
##STATUS=The identification of this mineral has been confirmed by single-crystal X-ray diffraction.
##URL=rruff.info/R110033
157.0243, 963.9166
157.5064, 1024.393
157.9885, 1084.912
158.4706, 1148.627
158.9528, 1210.475
159.4349, 1267.777
159.9170, 1317.821
160.3991, 1367.395
160.8812, 1417.502
161.3633, 1468.426
161.8455, 1520.918
162.3276, 1576.851
162.8097, 1633.130
163.2918, 1688.732
163.7739, 1740.862
164.2560, 1795.018
164.7382, 1852.892
165.2203, 1914.544
165.7024, 1980.200
166.1845, 2050.122
166.6666, 2124.351
167.1487, 2202.145
167.6309, 2285.671
168.1130, 2371.451
168.5951, 2456.887
169.0772, 2542.344
169.5593, 2627.805
170.0414, 2715.684
170.5236, 2803.219
171.0057, 2886.014
171.4878, 2964.718
171.9699, 3037.758
172.4520, 3105.298
172.9341, 3167.193
173.4163, 3216.997
173.8984, 3249.674
174.3805, 3267.303
174.8626, 3272.777
175.3447, 3268.768
175.8268, 3252.778
176.3090, 3219.939
176.7911, 3170.453
177.2732, 3111.654
177.7553, 3036.619
178.2374, 2943.922
178.7195, 2844.586
179.2017, 2738.134
179.6838, 2629.679
180.1659, 2528.774
180.6480, 2434.565
181.1301, 2346.690
181.6122, 2263.280
182.0944, 2184.270
182.5765, 2111.491
183.0586, 2045.714
183.5407, 1986.340
184.0228, 1928.464
184.5049, 1871.989
184.9871, 1819.148
185.4692, 1774.008
185.9513, 1735.496
186.4334, 1700.859
186.9155, 1669.084
187.3976, 1639.839
187.8798, 1611.199
188.3619, 1582.709
188.8440, 1556.249
189.3261, 1535.817
189.8082, 1520.864
190.2903, 1507.151
190.7725, 1492.603
191.2546, 1477.266
191.7367, 1463.003
192.2188, 1450.249
192.7009, 1437.536
193.1830, 1422.484
193.6652, 1405.161
194.1473, 1387.259
194.6294, 1369.050
195.1115, 1350.698
195.5936, 1334.834
196.0757, 1321.964
196.5579, 1310.947
197.0400, 1299.788
197.5221, 1288.466
198.0042, 1277.259
198.4863, 1265.504
198.9684, 1253.212
199.4506, 1243.891
199.9327, 1238.489
200.4148, 1235.375
200.8969, 1231.454
201.3790, 1226.761
201.8611, 1220.965
202.3433, 1212.856
202.8254, 1201.975
203.3075, 1194.406
203.7896, 1191.324
204.2717, 1191.203
204.7538, 1190.269
205.2360, 1188.264
205.7181, 1186.320
206.2002, 1185.208
206.6823, 1185.074
207.1644, 1184.524
207.6465, 1182.996
208.1287, 1181.196
208.6108, 1181.570
209.0929, 1184.852
209.5750, 1188.256
210.0571, 1189.420
210.5392, 1187.283
211.0214, 1188.214
211.5035, 1193.970
211.9856, 1202.774
212.4677, 1208.208
212.9498, 1208.906
213.4319, 1209.403
213.9140, 1212.829
214.3962, 1220.351
214.8783, 1226.581
215.3604, 1230.316
215.8425, 1232.532
216.3246, 1237.214
216.8067, 1245.436
217.2889, 1254.097
217.7710, 1261.486
218.2531, 1267.538
218.7352, 1272.391
219.2173, 1275.530
219.6994, 1277.491
220.1816, 1280.731
220.6637, 1285.664
221.1458, 1291.156
221.6279, 1296.529
222.1100, 1301.945
222.5921, 1306.921
223.0743, 1311.567
223.5564, 1315.766
224.0385, 1319.224
224.5206, 1322.088
225.0027, 1323.947
225.4848, 1324.331
225.9670, 1322.431
226.4491, 1321.107
226.9312, 1320.765
227.4133, 1321.204
227.8954, 1321.601
228.3775, 1322.713
228.8597, 1322.701
229.3418, 1320.206
229.8239, 1313.984
230.3060, 1308.286
230.7881, 1304.316
231.2702, 1301.182
231.7524, 1294.604
232.2345, 1283.053
232.7166, 1270.311
233.1987, 1258.762
233.6808, 1249.323
234.1629, 1239.054
234.6451, 1227.771
235.1272, 1215.465
235.6093, 1201.816
236.0914, 1186.244
236.5735, 1170.146
237.0556, 1154.261
237.5378, 1138.629
238.0199, 1123.107
238.5020, 1107.303
238.9841, 1091.554
239.4662, 1077.910
239.9483, 1067.354
240.4305, 1057.597
240.9126, 1047.274
241.3947, 1035.698
241.8768, 1025.126
242.3589, 1015.835
242.8410, 1007.643
243.3232, 999.6526
243.8053, 991.4648
244.2874, 984.0632
244.7695, 978.0470
245.2516, 973.7188
245.7337, 970.0056
246.2159, 967.2840
246.6980, 965.0575
247.1801, 961.7616
247.6622, 956.7817
248.1443, 951.5765
248.6264, 946.8182
249.1086, 942.4105
249.5907, 938.6179
250.0728, 935.6268
250.5549, 933.2108
251.0370, 930.7675
251.5191, 928.2567
252.0013, 925.8134
252.4834, 923.3234
252.9655, 920.2881
253.4476, 918.7321
253.9297, 919.3990
254.4118, 921.2295
254.8940, 921.7895
255.3761, 920.4838
255.8582, 918.9504
256.3403, 917.8565
256.8224, 917.3287
257.3046, 916.7922
257.7867, 916.2924
258.2688, 915.7313
258.7509, 914.7978
259.2330, 913.0460
259.7151, 911.8158
260.1973, 911.7330
260.6794, 913.0792
261.1615, 914.2677
261.6436, 915.1422
262.1257, 915.9899
262.6078, 917.4434
263.0900, 919.9564
263.5721, 921.9928
264.0542, 922.6678
264.5363, 921.5674
265.0184, 922.2638
265.5005, 925.4673
265.9827, 929.6765
266.4648, 932.4488
266.9469, 932.8152
267.4290, 934.5804
267.9111, 939.5685
268.3932, 948.0695
268.8754, 954.2274
269.3575, 957.0914
269.8396, 959.0301
270.3217, 963.1100
270.8038, 969.8046
271.2859, 976.6586
271.7681, 982.9886
272.2502, 988.7726
272.7323, 994.4273
273.2144, 999.6956
273.6965, 1005.147
274.1786, 1011.452
274.6608, 1018.832
275.1429, 1026.188
275.6250, 1033.173
276.1071, 1039.858
276.5892, 1046.896
277.0714, 1053.965
277.5535, 1062.003
278.0356, 1072.142
278.5177, 1084.555
278.9998, 1097.216
279.4819, 1109.762
279.9641, 1122.263
280.4462, 1134.339
280.9283, 1145.861
281.4104, 1157.654
281.8925, 1170.406
282.3746, 1184.118
282.8568, 1198.716
283.3389, 1213.950
283.8210, 1230.284
284.3031, 1249.279
284.7852, 1271.220
285.2673, 1294.309
285.7495, 1317.552
286.2316, 1341.021
286.7137, 1365.123
287.1958, 1389.578
287.6779, 1415.234
288.1600, 1444.000
288.6422, 1475.898
289.1243, 1509.804
289.6064, 1543.823
290.0885, 1578.611
290.5706, 1616.104
291.0527, 1656.326
291.5349, 1699.590
292.0170, 1747.073
292.4991, 1798.191
292.9812, 1851.615
293.4633, 1905.222
293.9454, 1960.062
294.4276, 2018.779
294.9097, 2080.833
295.3918, 2147.232
295.8739, 2220.117
296.3560, 2298.263
296.8381, 2379.420
297.3203, 2462.360
297.8024, 2546.610
298.2845, 2631.960
298.7666, 2718.669
299.2487, 2807.259
299.7308, 2901.642
300.2130, 3000.052
300.6951, 3095.834
301.1772, 3184.394
301.6593, 3269.538
302.1414, 3358.225
302.6235, 3449.626
303.1057, 3541.660
303.5878, 3630.281
304.0699, 3717.940
304.5520, 3807.397
305.0341, 3899.856
305.5162, 3993.998
305.9984, 4089.107
306.4805, 4184.678
306.9626, 4283.543
307.4447, 4388.048
307.9268, 4496.131
308.4089, 4603.818
308.8911, 4711.097
309.3732, 4816.379
309.8553, 4919.438
310.3374, 5019.317
310.8195, 5114.992
311.3016, 5210.427
311.7838, 5297.577
312.2659, 5370.536
312.7480, 5427.851
313.2301, 5470.149
313.7122, 5500.511
314.1943, 5516.847
314.6765, 5513.955
315.1586, 5486.686
315.6407, 5441.778
316.1228, 5381.783
316.6049, 5306.187
317.0870, 5220.040
317.5692, 5121.069
318.0513, 5014.584
318.5334, 4908.551
319.0155, 4802.468
319.4976, 4699.961
319.9797, 4602.198
320.4619, 4508.901
320.9440, 4424.294
321.4261, 4349.447
321.9082, 4284.622
322.3903, 4230.436
322.8724, 4190.851
323.3546, 4157.931
323.8367, 4130.889
324.3188, 4109.515
324.8009, 4090.458
325.2830, 4075.005
325.7651, 4060.837
326.2473, 4046.524
326.7294, 4036.333
327.2115, 4021.106
327.6936, 4002.158
328.1757, 3978.516
328.6578, 3944.286
329.1400, 3899.119
329.6221, 3843.846
330.1042, 3778.357
330.5863, 3701.568
331.0684, 3615.817
331.5505, 3519.828
332.0327, 3415.514
332.5148, 3307.820
332.9969, 3194.910
333.4790, 3080.357
333.9611, 2962.725
334.4432, 2840.046
334.9254, 2721.302
335.4075, 2608.127
335.8896, 2498.745
336.3717, 2390.665
336.8538, 2283.607
337.3359, 2180.702
337.8180, 2083.111
338.3001, 1991.255
338.7823, 1905.912
339.2644, 1828.270
339.7465, 1756.667
340.2286, 1689.992
340.7107, 1629.089
341.1928, 1571.495
341.6750, 1518.174
342.1571, 1468.115
342.6392, 1420.124
343.1213, 1373.502
343.6034, 1330.511
344.0855, 1293.076
344.5677, 1261.308
345.0498, 1229.629
345.5319, 1196.826
346.0140, 1165.169
346.4961, 1140.147
346.9782, 1121.615
347.4604, 1103.448
347.9425, 1081.345
348.4246, 1056.699
348.9067, 1035.478
349.3888, 1018.204
349.8709, 1003.260
350.3531, 989.3489
350.8352, 976.2803
351.3173, 963.4056
351.7994, 949.6669
352.2815, 936.0817
352.7636, 924.5153
353.2458, 914.9568
353.7279, 905.9551
354.2100, 895.8745
354.6921, 885.5615
355.1742, 876.6345
355.6563, 870.5737
356.1385, 864.9042
356.6206, 856.6330
357.1027, 846.3165
357.5848, 836.9669
358.0669, 830.5512
358.5490, 825.7713
359.0312, 821.5310
359.5133, 817.7803
359.9954, 814.0656
360.4775, 810.2633
360.9596, 806.2955
361.4417, 802.0577
361.9239, 797.6029
362.4060, 792.7700
362.8881, 787.1017
363.3702, 780.1961
363.8523, 774.4153
364.3344, 770.9532
364.8166, 768.8705
365.2987, 767.0814
365.7808, 765.8755
366.2629, 764.4481
366.7450, 762.7578
367.2271, 760.7902
367.7093, 758.0101
368.1914, 752.4913
368.6735, 747.2982
369.1556, 744.4265
369.6377, 747.3547
370.1198, 748.3658
370.6020, 746.0029
371.0841, 741.3401
371.5662, 738.2637
372.0483, 737.2932
372.5304, 737.3056
373.0125, 738.1074
373.4947, 740.4461
373.9768, 741.2663
374.4589, 739.8106
374.9410, 737.4517
375.4231, 736.3845
375.9052, 736.8441
376.3874, 737.9821
376.8695, 739.8424
377.3516, 742.4213
377.8337, 743.9004
378.3158, 743.9765
378.7979, 743.9044
379.2801, 744.5949
379.7622, 746.0253
380.2443, 749.2219
380.7264, 755.0699
381.2085, 762.2863
381.6906, 767.1630
382.1728, 769.6295
382.6549, 772.1418
383.1370, 776.6116
383.6191, 782.5485
384.1012, 787.7662
384.5833, 791.9255
385.0655, 795.8705
385.5476, 800.0465
386.0297, 804.7771
386.5118, 811.0607
386.9939, 820.7966
387.4760, 831.8699
387.9582, 841.2315
388.4403, 848.8918
388.9224, 855.9101
389.4045, 862.8635
389.8866, 869.7332
390.3687, 876.5303
390.8509, 883.0244
391.3330, 889.6169
391.8151, 896.9254
392.2972, 904.7161
392.7793, 912.1400
393.2614, 918.2424
393.7436, 924.1221
394.2257, 930.4842
394.7078, 936.9266
395.1899, 945.0390
395.6720, 956.5951
396.1541, 969.9542
396.6363, 982.4830
397.1184, 993.4795
397.6005, 1003.591
398.0826, 1012.461
398.5647, 1019.768
399.0468, 1028.589
399.5290, 1041.308
400.0111, 1054.478
400.4932, 1065.320
400.9753, 1071.489
401.4574, 1078.498
401.9395, 1086.963
402.4217, 1096.653
402.9038, 1106.489
403.3859, 1117.352
403.8680, 1127.081
404.3501, 1134.309
404.8322, 1137.930
405.3144, 1142.799
405.7965, 1149.255
406.2786, 1156.481
406.7607, 1162.614
407.2428, 1167.069
407.7249, 1173.558
408.2071, 1182.671
408.6892, 1194.688
409.1713, 1211.338
409.6534, 1232.776
410.1355, 1258.500
410.6176, 1288.214
411.0998, 1321.914
411.5819, 1359.052
412.0640, 1399.773
412.5461, 1443.561
413.0282, 1491.393
413.5103, 1542.652
413.9925, 1594.637
414.4746, 1645.330
414.9567, 1696.495
415.4388, 1750.254
415.9209, 1807.376
416.4030, 1865.897
416.8852, 1923.972
417.3673, 1983.032
417.8494, 2045.512
418.3315, 2111.710
418.8136, 2182.694
419.2957, 2259.613
419.7779, 2341.992
420.2600, 2431.397
420.7421, 2527.383
421.2242, 2631.155
421.7063, 2741.269
422.1884, 2860.436
422.6706, 2983.841
423.1527, 3113.656
423.6348, 3247.418
424.1169, 3380.892
424.5990, 3523.833
425.0811, 3658.208
425.5633, 3781.143
426.0454, 3894.250
426.5275, 3986.124
427.0096, 4065.490
427.4917, 4117.393
427.9738, 4130.631
428.4560, 4106.229
428.9381, 4040.510
429.4202, 3928.530
429.9023, 3777.011
430.3844, 3597.402
430.8665, 3384.051
431.3487, 3161.495
431.8308, 2937.609
432.3129, 2712.567
432.7950, 2499.640
433.2771, 2298.235
433.7592, 2113.277
434.2414, 1948.743
434.7235, 1804.256
435.2056, 1675.576
435.6877, 1562.948
436.1698, 1464.565
436.6519, 1375.764
437.1341, 1296.583
437.6162, 1226.521
438.0983, 1166.488
438.5804, 1114.150
439.0625, 1065.621
439.5446, 1020.278
440.0268, 978.5710
440.5089, 940.8853
440.9910, 906.9830
441.4731, 876.9550
441.9552, 851.8284
442.4373, 829.4203
442.9195, 808.3271
443.4016, 788.4760
443.8837, 769.8315
444.3658, 752.7054
444.8479, 736.5121
445.3300, 720.9304
445.8122, 704.1500
446.2943, 690.0325
446.7764, 680.3842
447.2585, 673.8230
447.7406, 666.8203
448.2227, 657.7055
448.7049, 649.5648
449.1870, 643.6136
449.6691, 640.4963
450.1512, 635.9356
450.6333, 629.1445
451.1154, 621.8489
451.5976, 615.5325
452.0797, 610.1733
452.5618, 606.2462
453.0439, 604.3973
453.5260, 603.7626
454.0081, 601.3054
454.4903, 596.7381
454.9724, 592.1727
455.4545, 588.6125
455.9366, 586.0300
456.4187, 584.1441
456.9008, 583.0322
457.3830, 582.1946
457.8651, 581.0668
458.3472, 579.7395
458.8293, 578.5988
459.3114, 577.9197
459.7935, 577.3007
460.2757, 575.7988
460.7578, 573.6998
461.2399, 572.4308
461.7220, 573.7250
462.2041, 575.7978
462.6862, 576.7784
463.1684, 576.0975
463.6505, 575.7070
464.1326, 576.7429
464.6147, 578.6245
465.0968, 580.6262
465.5789, 582.5313
466.0611, 584.4960
466.5432, 586.3156
467.0253, 588.0834
467.5074, 590.7780
467.9895, 595.1155
468.4716, 599.9389
468.9538, 604.6918
469.4359, 609.2122
469.9180, 613.9015
470.4001, 618.9157
470.8822, 624.0264
471.3643, 628.6768
471.8465, 632.2230
472.3286, 637.2119
472.8107, 644.6694
473.2928, 654.0692
473.7749, 663.0049
474.2570, 671.3275
474.7392, 679.7109
475.2213, 688.3294
475.7034, 697.3118
476.1855, 707.7330
476.6676, 719.9168
477.1497, 732.8943
477.6319, 745.0351
478.1140, 756.7422
478.5961, 769.1545
479.0782, 782.6451
479.5603, 797.1813
480.0424, 812.9886
480.5246, 830.0353
481.0067, 847.4404
481.4888, 864.4368
481.9709, 881.6539
482.4530, 899.7404
482.9352, 919.3055
483.4173, 938.5020
483.8994, 955.9543
484.3815, 972.7818
484.8636, 990.5091
485.3457, 1010.634
485.8279, 1030.435
486.3100, 1049.473
486.7921, 1067.764
487.2742, 1084.544
487.7563, 1099.647
488.2384, 1113.633
488.7206, 1126.984
489.2027, 1140.745
489.6848, 1150.682
490.1669, 1155.414
490.6490, 1157.775
491.1311, 1162.548
491.6133, 1170.104
492.0954, 1177.140
492.5775, 1182.140
493.0596, 1185.973
493.5417, 1192.741
494.0238, 1202.465
494.5060, 1211.330
494.9881, 1216.742
495.4702, 1219.039
495.9523, 1219.015
496.4344, 1216.582
496.9165, 1212.556
497.3987, 1209.231
497.8808, 1204.755
498.3629, 1195.701
498.8450, 1179.220
499.3271, 1158.926
499.8092, 1137.778
500.2914, 1115.053
500.7735, 1088.523
501.2556, 1054.036
501.7377, 1017.366
502.2198, 981.8414
502.7019, 947.7645
503.1841, 914.1576
503.6662, 880.5203
504.1483, 847.3655
504.6304, 815.5146
505.1125, 784.0453
505.5946, 756.0961
506.0768, 732.7901
506.5589, 713.3478
507.0410, 693.1861
507.5231, 671.6813
508.0052, 651.2561
508.4873, 632.4962
508.9695, 615.6273
509.4516, 602.2164
509.9337, 592.6884
510.4158, 584.8510
510.8979, 576.1555
511.3800, 566.8925
511.8622, 558.8074
512.3443, 552.6276
512.8264, 547.4171
513.3085, 541.9042
513.7906, 536.2142
514.2728, 530.7905
514.7549, 525.9017
515.2370, 521.3828
515.7191, 516.8745
516.2012, 512.2945
516.6833, 508.7603
517.1655, 507.8282
517.6476, 507.5811
518.1297, 506.3663
518.6118, 502.4694
519.0939, 499.3033
519.5760, 497.8157
520.0582, 497.4081
520.5403, 496.5208
521.0224, 494.1961
521.5045, 492.7586
521.9866, 493.1021
522.4688, 495.2240
522.9509, 496.6476
523.4330, 497.0064
523.9151, 497.5206
524.3972, 499.0590
524.8793, 501.6210
525.3615, 505.0720
525.8436, 509.5879
526.3257, 514.5178
526.8078, 518.7556
527.2899, 522.4716
527.7720, 526.4010
528.2542, 530.5886
528.7363, 535.2761
529.2184, 541.3439
529.7005, 548.4512
530.1826, 555.0446
530.6647, 559.7086
531.1469, 563.7030
531.6290, 567.9967
532.1111, 572.5836
532.5932, 578.0901
533.0753, 585.3318
533.5574, 593.3945
534.0396, 601.2073
534.5217, 607.4993
535.0038, 614.9083
535.4859, 624.1913
535.9680, 634.9141
536.4501, 646.0030
536.9323, 658.1195
537.4144, 669.4778
537.8965, 679.4476
538.3786, 687.9974
538.8607, 695.0258
539.3428, 700.2708
539.8250, 704.5977
540.3071, 709.6115
540.7892, 714.8563
541.2713, 716.2043
541.7534, 712.5743
542.2355, 706.0485
542.7177, 699.6151
543.1998, 692.7098
543.6819, 683.6841
544.1640, 670.7431
544.6461, 656.2230
545.1282, 641.4798
545.6104, 626.7636
546.0925, 613.1669
546.5746, 601.8915
547.0567, 591.5341
547.5388, 581.0061
548.0209, 569.9932
548.5031, 559.5143
548.9852, 549.0690
549.4673, 539.5219
549.9494, 531.8175
550.4315, 527.2711
550.9136, 522.4547
551.3958, 516.5729
551.8779, 510.2800
552.3600, 505.7506
552.8421, 503.3139
553.3242, 501.3717
553.8063, 499.1678
554.2885, 496.8326
554.7706, 495.6661
555.2527, 495.7816
555.7348, 495.8875
556.2169, 494.9180
556.6990, 493.0721
557.1812, 490.7296
557.6633, 487.8482
558.1454, 484.9041
558.6275, 482.1281
559.1096, 479.6568
559.5917, 477.6676
560.0739, 476.7334
560.5560, 475.8608
561.0381, 474.4779
561.5202, 472.7163
562.0023, 471.1206
562.4844, 470.1617
562.9666, 469.1000
563.4487, 467.3327
563.9308, 464.4212
564.4129, 463.0504
564.8950, 464.2743
565.3771, 465.8786
565.8593, 466.0458
566.3414, 464.5342
566.8235, 462.4148
567.3056, 459.4049
567.7877, 456.3871
568.2698, 455.1376
568.7520, 455.5611
569.2341, 456.2217
569.7162, 456.7707
570.1983, 457.0956
570.6804, 457.0558
571.1625, 456.6407
571.6447, 455.7536
572.1268, 453.5074
572.6089, 451.2407
573.0910, 450.5526
573.5731, 451.8376
574.0552, 452.9121
574.5374, 452.8768
575.0195, 452.1159
575.5016, 450.9910
575.9837, 448.4095
576.4658, 446.9020
576.9479, 447.2481
577.4301, 448.6519
577.9122, 449.6035
578.3943, 450.0332
578.8764, 450.1143
579.3585, 449.7880
579.8406, 449.1217
580.3228, 448.5487
580.8049, 448.0331
581.2870, 447.8346
581.7691, 448.6939
582.2512, 450.1121
582.7333, 449.5598
583.2155, 446.6674
583.6975, 444.1188
584.1796, 445.3827
584.6617, 448.4633
585.1439, 449.8869
585.6260, 447.7188
586.1081, 445.4968
586.5902, 445.7685
587.0723, 447.4804
587.5544, 448.5884
588.0366, 448.1480
588.5187, 447.3868
589.0008, 446.4068
589.4829, 445.2682
589.9650, 444.8860
590.4471, 445.9205
590.9293, 446.8220
591.4114, 446.6407
591.8935, 445.0684
592.3756, 444.7718
592.8577, 446.1469
593.3398, 447.7218
593.8220, 447.7292
594.3041, 446.4061
594.7862, 445.6619
595.2683, 445.9811
595.7504, 446.6362
596.2325, 446.7475
596.7147, 446.4452
597.1968, 446.0605
597.6789, 445.8000
598.1610, 445.4689
598.6431, 444.8878
599.1252, 444.1017
599.6074, 443.3084
600.0895, 443.1366
600.5716, 442.4956
601.0537, 440.3838
601.5358, 436.0519
602.0179, 433.8268
602.5001, 435.1720
602.9822, 437.2193
603.4643, 438.0479
603.9464, 437.7254
604.4285, 435.6186
604.9106, 430.9745
605.3928, 425.8108
605.8749, 423.2823
606.3570, 423.2245
606.8391, 423.6151
607.3212, 423.9981
607.8033, 424.2939
608.2855, 424.5782
608.7676, 424.7195
609.2497, 424.2480
609.7318, 422.0549
610.2139, 419.7622
610.6960, 419.0833
611.1782, 420.0030
611.6603, 420.0114
612.1424, 417.1358
612.6245, 413.8647
613.1066, 411.7069
613.5887, 410.9686
614.0709, 410.9840
614.5530, 412.5716
615.0351, 414.1891
615.5172, 413.9750
615.9993, 411.3410
616.4814, 409.6276
616.9636, 409.5392
617.4457, 410.2515
617.9278, 409.9292
618.4099, 408.7303
618.8920, 408.3011
619.3741, 409.8789
619.8563, 412.1969
620.3384, 413.7098
620.8205, 414.3806
621.3026, 414.0370
621.7847, 410.9698
622.2668, 408.0003
622.7490, 407.7097
623.2311, 410.5887
623.7132, 412.8354
624.1953, 413.2777
624.6774, 412.8592
625.1595, 412.1525
625.6417, 410.3929
626.1238, 410.0357
626.6059, 411.8597
627.0880, 414.2521
627.5701, 414.7688
628.0522, 413.1337
628.5344, 412.3911
629.0165, 413.3703
629.4986, 415.2940
629.9807, 416.8125
630.4628, 417.9634
630.9449, 418.9244
631.4271, 419.5111
631.9092, 420.1321
632.3913, 421.1671
632.8734, 422.6178
633.3555, 424.4532
633.8376, 426.9690
634.3198, 429.6252
634.8019, 432.1603
635.2840, 434.5707
635.7661, 436.7445
636.2482, 438.1833
636.7303, 439.8088
637.2125, 442.4827
637.6946, 447.1627
638.1767, 450.0158
638.6588, 450.5142
639.1409, 449.8413
639.6230, 450.0157
640.1052, 450.8933
640.5873, 449.8332
641.0694, 445.3488
641.5515, 440.0616
642.0336, 438.2531
642.5157, 439.0162
642.9979, 439.6796
643.4800, 438.6646
643.9621, 437.3000
644.4442, 436.5797
644.9263, 436.3843
645.4084, 435.9381
645.8906, 434.3182
646.3727, 432.9872
646.8548, 432.7537
647.3369, 433.7609
647.8190, 434.6748
648.3011, 435.4060
648.7833, 436.1692
649.2654, 437.1414
649.7475, 438.3576
650.2296, 439.6018
650.7117, 440.9661
651.1938, 441.9763
651.6760, 441.4059
652.1581, 439.9208
652.6402, 439.7723
653.1223, 442.1321
653.6044, 444.7538
654.0865, 445.4930
654.5687, 445.0739
655.0508, 444.9029
655.5329, 445.4353
656.0150, 446.3793
656.4971, 447.7079
656.9792, 449.3846
657.4614, 451.2732
657.9435, 453.9214
658.4256, 455.9909
658.9077, 456.9146
659.3898, 456.7416
659.8719, 456.5189
660.3541, 456.0792
660.8362, 456.3637
661.3183, 458.7272
661.8004, 462.4508
662.2825, 464.5786
662.7646, 464.8753
663.2468, 464.9064
663.7289, 466.2108
664.2110, 468.0230
664.6931, 469.1975
665.1752, 469.0147
665.6573, 469.4575
666.1395, 472.2627
666.6216, 475.8587
667.1037, 478.3101
667.5858, 477.8697
668.0679, 478.1495
668.5500, 479.4595
669.0322, 481.6264
669.5143, 484.4765
669.9964, 488.2949
670.4785, 491.3903
670.9606, 492.9055
671.4427, 493.5900
671.9249, 495.7923
672.4070, 499.2992
672.8891, 502.3455
673.3712, 502.9812
673.8533, 503.1090
674.3354, 505.0384
674.8176, 508.6964
675.2997, 512.6024
675.7818, 515.9813
676.2639, 519.3597
676.7460, 523.2773
677.2281, 528.1148
677.7103, 531.8086
678.1924, 533.4811
678.6745, 534.8264
679.1566, 537.0939
679.6387, 540.4443
680.1208, 543.9510
680.6030, 547.5244
681.0851, 551.4611
681.5672, 556.8898
682.0493, 563.2379
682.5314, 568.0799
683.0135, 570.2648
683.4957, 571.9772
683.9778, 575.4094
684.4599, 580.0245
684.9420, 584.6718
685.4241, 588.3809
685.9063, 592.7106
686.3884, 599.1526
686.8705, 606.8333
687.3526, 612.7229
687.8347, 615.3517
688.3168, 618.2074
688.7990, 621.9656
689.2811, 626.7025
689.7632, 632.9640
690.2453, 640.9841
690.7274, 648.7939
691.2095, 655.0596
691.6917, 660.1639
692.1738, 665.3261
692.6559, 670.4852
693.1380, 675.5211
693.6201, 679.3298
694.1022, 683.5234
694.5844, 690.0065
695.0665, 699.2906
695.5486, 708.7343
696.0307, 717.7097
696.5128, 726.2737
696.9949, 734.5961
697.4771, 742.8354
697.9592, 750.3408
698.4413, 756.4313
698.9234, 762.6133
699.4055, 771.2839
699.8876, 782.5243
700.3698, 791.9808
700.8519, 798.2109
701.3340, 804.0807
701.8161, 814.2949
702.2982, 827.3300
702.7803, 839.2557
703.2625, 847.0208
703.7446, 855.2169
704.2267, 867.0985
704.7088, 881.5951
705.1909, 896.3230
705.6730, 910.3047
706.1552, 924.6339
706.6373, 939.5676
707.1194, 955.0247
707.6015, 970.8359
708.0836, 987.0426
708.5657, 1003.018
709.0479, 1017.998
709.5300, 1032.666
710.0121, 1050.565
710.4942, 1071.637
710.9763, 1092.720
711.4584, 1111.337
711.9406, 1129.201
712.4227, 1148.527
712.9048, 1169.488
713.3869, 1190.845
713.8690, 1212.818
714.3511, 1234.377
714.8333, 1255.001
715.3154, 1274.057
715.7975, 1293.635
716.2796, 1314.094
716.7617, 1334.885
717.2438, 1356.291
717.7260, 1378.379
718.2081, 1398.676
718.6902, 1416.765
719.1723, 1433.563
719.6544, 1450.413
720.1365, 1466.578
720.6187, 1479.818
721.1008, 1489.083
721.5829, 1497.393
722.0650, 1507.003
722.5471, 1517.118
723.0292, 1526.898
723.5114, 1539.556
723.9935, 1547.206
724.4756, 1546.203
724.9577, 1540.409
725.4398, 1536.091
725.9219, 1533.819
726.4041, 1531.299
726.8862, 1528.004
727.3683, 1524.170
727.8504, 1520.661
728.3325, 1517.367
728.8146, 1513.462
729.2968, 1508.271
729.7789, 1502.590
730.2610, 1496.039
730.7431, 1489.536
731.2252, 1486.112
731.7073, 1488.719
732.1895, 1493.093
732.6716, 1497.186
733.1537, 1501.170
733.6358, 1507.435
734.1179, 1516.013
734.6000, 1527.064
735.0822, 1540.922
735.5643, 1557.429
736.0464, 1574.008
736.5285, 1590.561
737.0106, 1609.313
737.4927, 1630.942
737.9749, 1656.168
738.4570, 1686.869
738.9391, 1722.804
739.4212, 1761.554
739.9033, 1801.370
740.3854, 1843.609
740.8676, 1888.547
741.3497, 1935.321
741.8318, 1989.577
742.3139, 2054.419
742.7960, 2123.606
743.2781, 2192.947
743.7603, 2261.479
744.2424, 2337.195
744.7245, 2421.004
745.2066, 2510.215
745.6887, 2603.980
746.1708, 2702.196
746.6530, 2802.625
747.1351, 2904.044
747.6172, 3010.422
748.0993, 3126.359
748.5814, 3248.369
749.0635, 3370.971
749.5457, 3491.385
750.0278, 3617.510
750.5099, 3748.252
750.9920, 3884.033
751.4741, 4026.869
751.9562, 4178.908
752.4384, 4323.383
752.9205, 4455.834
753.4026, 4580.960
753.8847, 4706.967
754.3668, 4831.526
754.8489, 4948.587
755.3311, 5058.768
755.8132, 5155.686
756.2953, 5231.878
756.7774, 5290.280
757.2595, 5334.427
757.7416, 5369.576
758.2238, 5386.369
758.7059, 5378.906
759.1880, 5353.297
759.6701, 5321.343
760.1522, 5284.198
760.6343, 5235.990
761.1165, 5172.834
761.5986, 5099.520
762.0807, 5027.376
762.5628, 4955.509
763.0449, 4878.497
763.5270, 4790.680
764.0092, 4699.710
764.4913, 4611.686
764.9734, 4525.796
765.4555, 4438.125
765.9376, 4349.708
766.4197, 4257.937
766.9019, 4163.239
767.3840, 4065.210
767.8661, 3960.244
768.3482, 3846.425
768.8303, 3731.994
769.3124, 3620.512
769.7946, 3512.081
770.2767, 3402.672
770.7588, 3292.688
771.2409, 3185.812
771.7230, 3082.443
772.2051, 2984.587
772.6873, 2894.273
773.1694, 2811.071
773.6515, 2734.445
774.1336, 2665.121
774.6157, 2600.645
775.0978, 2539.079
775.5800, 2480.497
776.0621, 2430.128
776.5442, 2388.651
777.0263, 2353.382
777.5084, 2324.637
777.9905, 2301.224
778.4727, 2277.260
778.9548, 2252.993
779.4369, 2233.042
779.9190, 2220.487
780.4011, 2213.993
780.8832, 2211.974
781.3654, 2214.354
781.8475, 2222.294
782.3296, 2237.094
782.8117, 2256.929
783.2938, 2279.772
783.7759, 2305.031
784.2581, 2340.185
784.7402, 2385.300
785.2223, 2439.536
785.7044, 2503.461
786.1865, 2576.186
786.6686, 2654.407
787.1508, 2738.569
787.6329, 2836.177
788.1150, 2951.453
788.5971, 3085.973
789.0792, 3236.717
789.5613, 3404.523
790.0435, 3596.188
790.5256, 3815.448
791.0077, 4059.780
791.4898, 4330.813
791.9719, 4626.554
792.4540, 4949.391
792.9362, 5295.110
793.4183, 5662.103
793.9004, 6044.767
794.3825, 6444.815
794.8646, 6854.503
795.3467, 7276.670
795.8289, 7716.477
796.3110, 8165.580
796.7931, 8638.315
797.2752, 9137.625
797.7573, 9667.840
798.2394, 10230.16
798.7216, 10820.14
799.2037, 11446.01
799.6858, 12109.89
800.1679, 12816.75
800.6500, 13547.02
801.1321, 14313.52
801.6143, 15085.03
802.0964, 15854.81
802.5785, 16603.32
803.0606, 17319.16
803.5427, 18002.95
804.0248, 18588.62
804.5070, 19094.46
804.9891, 19454.90
805.4712, 19624.82
805.9533, 19597.38
806.4354, 19349.81
806.9175, 18845.53
807.3997, 18175.61
807.8818, 17371.55
808.3639, 16442.52
808.8460, 15499.83
809.3281, 14544.08
809.8102, 13615.05
810.2924, 12735.07
810.7745, 11910.12
811.2566, 11147.62
811.7387, 10456.53
812.2208, 9816.970
812.7029, 9224.215
813.1851, 8680.481
813.6672, 8187.111
814.1493, 7744.232
814.6314, 7343.284
815.1135, 6988.617
815.5956, 6672.986
816.0778, 6397.095
816.5599, 6158.638
817.0420, 5954.500
817.5241, 5783.926
818.0062, 5643.249
818.4883, 5531.704
818.9705, 5444.505
819.4526, 5377.820
819.9347, 5330.979
820.4168, 5306.640
820.8989, 5309.798
821.3810, 5332.409
821.8632, 5370.399
822.3453, 5423.057
822.8274, 5499.550
823.3095, 5599.208
823.7916, 5719.179
824.2737, 5855.650
824.7559, 6009.702
825.2380, 6184.503
825.7201, 6378.680
826.2022, 6588.395
826.6843, 6813.611
827.1664, 7049.545
827.6486, 7290.974
828.1307, 7538.800
828.6128, 7800.862
829.0949, 8079.013
829.5770, 8371.318
830.0591, 8679.772
830.5413, 9003.411
831.0234, 9344.808
831.5055, 9703.887
831.9876, 10078.79
832.4697, 10482.24
832.9518, 10894.84
833.4340, 11307.29
833.9161, 11716.10
834.3982, 12109.96
834.8803, 12519.61
835.3624, 12877.39
835.8445, 13166.14
836.3267, 13384.33
836.8088, 13521.11
837.2909, 13583.85
837.7730, 13525.68
838.2551, 13313.58
838.7372, 12964.05
839.2194, 12500.88
839.7015, 11931.43
840.1836, 11298.11
840.6657, 10583.28
841.1478, 9849.593
841.6299, 9126.574
842.1121, 8417.524
842.5942, 7756.164
843.0763, 7135.688
843.5584, 6565.513
844.0405, 6049.074
844.5226, 5585.002
845.0048, 5171.969
845.4869, 4809.058
845.9690, 4481.063
846.4511, 4187.600
846.9332, 3923.512
847.4153, 3688.255
847.8975, 3479.282
848.3796, 3289.313
848.8617, 3117.519
849.3438, 2962.829
849.8259, 2828.527
850.3080, 2710.339
850.7902, 2599.392
851.2723, 2496.498
851.7544, 2401.934
852.2365, 2316.829
852.7186, 2238.698
853.2007, 2162.281
853.6829, 2089.210
854.1650, 2023.353
854.6471, 1967.467
855.1292, 1916.662
855.6113, 1869.102
856.0934, 1825.141
856.5756, 1784.554
857.0577, 1747.576
857.5398, 1712.769
858.0219, 1679.461
858.5040, 1648.042
858.9861, 1619.954
859.4683, 1594.740
859.9504, 1570.645
860.4325, 1547.682
860.9146, 1525.050
861.3967, 1501.310
861.8788, 1478.172
862.3610, 1457.480
862.8431, 1440.422
863.3252, 1425.058
863.8073, 1411.967
864.2894, 1399.704
864.7715, 1386.851
865.2537, 1373.337
865.7358, 1361.111
866.2179, 1350.247
866.7000, 1340.583
867.1821, 1332.550
867.6642, 1325.311
868.1464, 1317.107
868.6285, 1307.013
869.1106, 1300.141
869.5927, 1301.215
870.0748, 1303.862
870.5569, 1303.661
871.0391, 1299.939
871.5212, 1297.329
872.0033, 1295.363
872.4854, 1296.334
872.9675, 1303.488
873.4496, 1314.466
873.9318, 1322.797
874.4139, 1328.629
874.8960, 1336.460
875.3781, 1350.540
875.8602, 1366.055
876.3423, 1379.662
876.8245, 1391.181
877.3066, 1404.838
877.7887, 1420.848
878.2708, 1438.697
878.7529, 1458.604
879.2350, 1480.015
879.7172, 1501.288
880.1993, 1522.409
880.6814, 1544.740
881.1635, 1569.912
881.6456, 1595.750
882.1277, 1620.966
882.6099, 1645.546
883.0920, 1669.468
883.5741, 1692.646
884.0562, 1715.326
884.5383, 1737.974
885.0204, 1760.102
885.5026, 1780.885
885.9847, 1800.257
886.4668, 1818.319
886.9489, 1836.381
887.4310, 1850.110
887.9131, 1854.120
888.3953, 1850.704
888.8774, 1843.398
889.3595, 1834.993
889.8416, 1819.857
890.3237, 1796.967
890.8058, 1767.643
891.2880, 1732.608
891.7701, 1692.012
892.2522, 1644.538
892.7343, 1589.058
893.2164, 1531.779
893.6985, 1478.316
894.1807, 1427.673
894.6628, 1377.517
895.1449, 1327.777
895.6270, 1278.733
896.1091, 1228.542
896.5912, 1180.447
897.0734, 1135.836
897.5555, 1095.253
898.0376, 1055.673
898.5197, 1017.248
899.0018, 980.8824
899.4839, 946.6953
899.9661, 915.6593
900.4482, 891.0878
900.9303, 871.9429
901.4124, 852.9577
901.8945, 829.7068
902.3766, 807.5343
902.8588, 788.7042
903.3409, 773.0574
903.8230, 759.1439
904.3051, 746.9279
904.7872, 736.1663
905.2693, 726.9095
905.7515, 718.6763
906.2336, 710.7382
906.7157, 702.9519
907.1978, 694.8837
907.6799, 685.4344
908.1620, 676.8629
908.6442, 669.7154
909.1263, 664.2637
909.6084, 661.0627
910.0905, 661.7000
910.5726, 660.0352
911.0547, 654.9345
911.5369, 648.7490
912.0190, 644.2875
912.5011, 641.2596
912.9832, 639.0616
913.4653, 637.7433
913.9474, 636.1970
914.4296, 633.5120
914.9117, 630.4280
915.3938, 627.4816
915.8759, 624.6053
916.3580, 622.2619
916.8401, 620.3494
917.3223, 619.1974
917.8044, 619.4621
918.2865, 620.6736
918.7686, 620.8834
919.2507, 620.2142
919.7328, 619.9177
920.2150, 622.0114
920.6971, 623.6197
921.1792, 622.1061
921.6613, 618.0433
922.1434, 616.2793
922.6255, 617.7982
923.1077, 619.5753
923.5898, 620.9209
924.0719, 621.8036
924.5540, 621.8406
925.0361, 621.2939
925.5182, 621.3114
926.0004, 622.8867
926.4825, 624.1771
926.9646, 623.6180
927.4467, 622.1740
927.9288, 621.2936
928.4109, 621.0381
928.8931, 621.5261
929.3752, 623.1282
929.8573, 624.7164
930.3394, 624.8318
930.8215, 623.8586
931.3036, 623.2726
931.7858, 623.2936
932.2679, 623.0375
932.7500, 621.7266
933.2321, 620.0309
933.7142, 618.7726
934.1964, 618.2875
934.6785, 615.7326
935.1606, 611.0457
935.6427, 604.4675
936.1248, 595.6260
936.6069, 585.1154
937.0891, 575.2881
937.5712, 565.9651
938.0533, 556.9031
938.5354, 549.0873
939.0175, 540.3272
939.4996, 528.9606
939.9818, 515.6776
940.4639, 502.6126
940.9460, 489.3960
941.4281, 478.1636
941.9102, 470.0066
942.3923, 462.8012
942.8745, 452.3885
943.3566, 440.0537
943.8387, 429.8047
944.3208, 422.8995
944.8029, 417.4443
945.2850, 413.8207
945.7672, 410.1855
946.2493, 404.4385
946.7314, 395.5783
947.2135, 388.7871
947.6956, 384.4423
948.1777, 380.9196
948.6599, 377.2742
949.1420, 373.5243
949.6241, 369.3771
950.1062, 364.9980
950.5883, 361.6606
951.0704, 361.0301
951.5526, 360.6430
952.0347, 359.2015
952.5168, 356.9556
952.9989, 354.9944
953.4810, 353.4860
953.9631, 351.4530
954.4453, 348.5733
954.9274, 345.1060
955.4095, 340.6617
955.8916, 336.0898
956.3737, 333.2596
956.8558, 333.8609
957.3380, 334.1980
957.8201, 332.6881
958.3022, 330.5496
958.7843, 328.9311
959.2664, 327.9679
959.7485, 326.6260
960.2307, 324.7977
960.7128, 323.2022
961.1949, 322.5936
961.6770, 322.5595
962.1591, 322.6141
962.6412, 322.7076
963.1234, 322.7217
963.6055, 322.6162
964.0876, 322.4005
964.5697, 321.9965
965.0518, 321.4910
965.5339, 321.5615
966.0161, 322.2007
966.4982, 321.7162
966.9803, 318.7530
967.4624, 315.5404
967.9445, 314.8620
968.4266, 315.6237
968.9088, 316.0325
969.3909, 315.7776
969.8730, 314.7813
970.3551, 312.4327
970.8372, 310.1588
971.3193, 309.8850
971.8015, 311.2867
972.2836, 310.9901
972.7657, 308.7024
973.2478, 306.1259
973.7299, 303.6590
974.2120, 302.1543
974.6942, 302.9040
975.1763, 305.9904
975.6584, 307.6784
976.1405, 307.3487
976.6226, 306.6122
977.1047, 305.8257
977.5869, 305.2153
978.0690, 305.7969
978.5511, 307.1893
979.0332, 307.9278
979.5153, 306.6027
979.9974, 305.6822
980.4796, 307.2791
980.9617, 309.7207
981.4438, 310.4576
981.9259, 308.2998
982.4080, 308.3389
982.8901, 311.3492
983.3723, 314.5272
983.8544, 314.5227
984.3365, 312.8781
984.8186, 312.7987
985.3007, 314.4935
985.7828, 315.3791
986.2650, 312.8522
986.7471, 310.8518
987.2292, 311.3825
987.7113, 313.8848
988.1934, 315.4675
988.6755, 316.1040
989.1577, 316.3266
989.6398, 316.1337
990.1219, 315.9449
990.6040, 316.5718
991.0861, 317.4727
991.5682, 317.7220
992.0504, 316.2896
992.5325, 315.3877
993.0146, 315.4036
993.4967, 315.6906
993.9788, 315.4780
994.4609, 314.8964
994.9431, 315.3263
995.4252, 316.8363
995.9073, 318.0970
996.3894, 318.1727
996.8715, 317.6105
997.3536, 316.6163
997.8358, 315.2724
998.3179, 314.0906
998.8000, 312.7912
999.2821, 312.5644
999.7642, 314.2689
1000.246, 316.4935
1000.728, 316.0130
1001.211, 313.7328
1001.693, 312.0368
1002.175, 312.0743
1002.657, 311.8527
1003.139, 310.0668
1003.621, 307.9501
1004.103, 306.5818
1004.585, 306.0051
1005.068, 305.9599
1005.550, 306.4591
1006.032, 307.3353
1006.514, 309.6960
1006.996, 311.5590
1007.478, 309.3669
1007.960, 303.9382
1008.442, 300.3857
1008.924, 302.0116
1009.407, 303.1837
1009.889, 302.6255
1010.371, 301.1433
1010.853, 300.4048
1011.335, 300.2955
1011.817, 300.0562
1012.299, 299.4245
1012.781, 299.0258
1013.263, 299.7238
1013.746, 300.6424
1014.228, 300.9049
1014.710, 300.3526
1015.192, 299.6392
1015.674, 298.5887
1016.156, 297.9914
1016.638, 298.6629
1017.120, 299.9525
1017.603, 300.3970
1018.085, 300.1964
1018.567, 300.0511
1019.049, 300.9199
1019.531, 301.0376
1020.013, 298.9164
1020.495, 296.3853
1020.977, 296.3400
1021.459, 298.8393
1021.942, 301.1509
1022.424, 302.9574
1022.906, 304.3816
1023.388, 305.8275
1023.870, 306.7925
1024.352, 306.3501
1024.834, 304.2609
1025.316, 303.6743
1025.799, 305.6548
1026.281, 307.2905
1026.763, 307.2329
1027.245, 306.2299
1027.727, 306.0188
1028.209, 306.5392
1028.691, 307.6208
1029.173, 309.5855
1029.656, 311.4808
1030.138, 312.7964
1030.620, 313.8349
1031.102, 314.9171
1031.584, 316.0454
1032.066, 316.9985
1032.548, 317.6735
1033.030, 319.1047
1033.512, 323.1616
1033.995, 327.7656
1034.477, 329.7389
1034.959, 329.5568
1035.441, 331.0964
1035.923, 337.0872
1036.405, 341.9892
1036.887, 344.3061
1037.369, 345.4939
1037.851, 348.7333
1038.334, 353.3935
1038.816, 357.1653
1039.298, 359.3534
1039.780, 361.4645
1040.262, 364.1008
1040.744, 367.3560
1041.226, 371.5562
1041.708, 376.8371
1042.191, 381.2445
1042.673, 384.9173
1043.155, 386.9901
1043.637, 385.5314
1044.119, 383.5240
1044.601, 385.5436
1045.083, 390.2344
1045.565, 394.4090
1046.047, 397.1038
1046.530, 399.2103
1047.012, 400.5457
1047.494, 401.7012
1047.976, 404.2321
1048.458, 407.3298
1048.940, 406.4746
1049.422, 401.4175
1049.904, 395.6307
1050.386, 390.5161
1050.869, 385.9974
1051.351, 382.2415
1051.833, 379.0520
1052.315, 375.6641
1052.797, 371.9597
1053.279, 369.0305
1053.761, 367.4582
1054.243, 365.8495
1054.726, 361.6930
1055.208, 356.6859
1055.690, 353.4627
1056.172, 353.5526
1056.654, 351.9845
1057.136, 347.2199
1057.618, 342.8683
1058.100, 341.6801
1058.583, 342.5405
1059.065, 340.8170
1059.547, 337.0063
1060.029, 333.3775
1060.511, 331.1310
1060.993, 329.3693
1061.475, 327.6414
1061.957, 326.2611
1062.439, 325.7958
1062.922, 326.3826
1063.404, 326.6834
1063.886, 326.5888
1064.368, 326.2552
1064.850, 326.1112
1065.332, 325.5905
1065.814, 323.3501
1066.296, 319.6388
1066.778, 318.5355
1067.261, 321.9297
1067.743, 324.1623
1068.225, 323.3290
1068.707, 321.3589
1069.189, 322.3926
1069.671, 325.0209
1070.153, 325.7545
1070.635, 323.2386
1071.118, 320.6938
1071.600, 318.3028
1072.082, 317.4917
1072.564, 319.7689
1073.046, 324.7207
1073.528, 327.2447
1074.010, 327.4402
1074.492, 326.9294
1074.974, 326.1786
1075.457, 325.4793
1075.939, 324.8127
1076.421, 324.4310
1076.903, 324.8260
1077.385, 326.3214
1077.867, 327.5485
1078.349, 328.3944
1078.831, 329.1618
1079.313, 330.6455
1079.796, 331.9434
1080.278, 331.1191
1080.760, 328.4944
1081.242, 326.8722
1081.724, 328.4609
1082.206, 329.3253
1082.688, 328.4060
1083.170, 326.7216
1083.652, 326.1922
1084.135, 326.5279
1084.617, 326.5792
1085.099, 326.0662
1085.581, 325.7795
1086.063, 327.2336
1086.545, 328.0456
1087.027, 326.2672
1087.509, 322.2999
1087.992, 320.3947
1088.474, 320.5760
1088.956, 320.7337
1089.438, 319.9819
1089.920, 318.9062
1090.402, 317.6642
1090.884, 316.6309
1091.366, 316.4269
1091.849, 317.6927
1092.331, 318.2328
1092.813, 317.9646
1093.295, 317.2486
1093.777, 315.9378
1094.259, 314.5577
1094.741, 314.2826
1095.223, 314.8225
1095.705, 315.1366
1096.188, 314.2375
1096.670, 313.9274
1097.152, 314.6104
1097.634, 315.8041
1098.116, 317.2607
1098.598, 318.7458
1099.080, 318.8520
1099.562, 317.4792
1100.044, 316.3391
1100.527, 316.6915
1101.009, 317.3532
1101.491, 317.3517
1101.973, 317.2007
1102.455, 319.1689
1102.937, 323.3086
1103.419, 325.2418
1103.901, 323.2378
1104.384, 321.3444
1104.866, 324.0602
1105.348, 328.4827
1105.830, 331.9541
1106.312, 334.1478
1106.794, 335.0423
1107.276, 334.2040
1107.758, 333.8412
1108.240, 335.3688
1108.723, 337.4382
1109.205, 337.3795
1109.687, 336.3971
1110.169, 336.9225
1110.651, 341.7469
1111.133, 344.0366
1111.615, 342.6375
1112.097, 340.0232
1112.579, 337.9471
1113.062, 336.2199
1113.544, 334.3040
1114.026, 332.1433
1114.508, 329.5811
1114.990, 326.1505
1115.472, 322.7960
1115.954, 320.2293
1116.436, 317.6164
1116.919, 313.6196
1117.401, 308.3577
1117.883, 303.9613
1118.365, 300.6187
1118.847, 297.6063
1119.329, 294.6813
1119.811, 291.6587
1120.293, 287.8589
1120.776, 283.8760
1121.258, 282.2564
1121.740, 283.4307
1122.222, 282.3664
1122.704, 277.5370
1123.186, 272.2609
1123.668, 269.6570
1124.150, 268.5006
1124.632, 267.8353
1125.115, 267.6288
1125.597, 266.0587
1126.079, 262.4271
1126.561, 259.8116
1127.043, 259.7932
1127.525, 260.7389
1128.007, 260.1060
1128.489, 258.4627
1128.971, 256.6508
1129.454, 254.4276
1129.936, 253.4966
1130.418, 254.9244
1130.900, 255.8173
1131.382, 253.8734
1131.864, 250.2872
1132.346, 248.8725
1132.828, 249.0004
1133.311, 248.5990
1133.793, 245.9909
1134.275, 243.7950
1134.757, 242.9506
1135.239, 242.3089
1135.721, 240.4624
1136.203, 237.6919
1136.685, 236.8112
1137.167, 237.6580
1137.650, 237.7429
1138.132, 234.2594
1138.614, 231.0817
1139.096, 230.5706
1139.578, 231.3606
1140.060, 231.3777
1140.542, 230.6092
1141.024, 229.7974
1141.506, 229.0125
1141.989, 228.4046
1142.471, 228.1849
1142.953, 228.1068
1143.435, 228.0947
1143.917, 228.0712
1144.399, 227.8041
1144.881, 227.3523
1145.363, 226.0697
1145.846, 223.5838
1146.328, 221.3221
1146.810, 221.3003
1147.292, 222.0847
1147.774, 222.0181
1148.256, 220.8130
1148.738, 220.5095
1149.220, 221.3694
1149.703, 222.2835
1150.185, 222.8733
1150.667, 223.3069
1151.149, 223.9607
1151.631, 224.5878
1152.113, 224.7365
1152.595, 224.0995
1153.077, 223.7733
1153.559, 223.9671
1154.042, 224.1417
1154.524, 223.9403
1155.006, 223.5953
1155.488, 223.8779
1155.970, 224.4146
1156.452, 224.2392
1156.934, 222.1214
1157.416, 221.0718
1157.898, 222.1103
1158.381, 223.1325
1158.863, 222.2503
1159.345, 220.0484
1159.827, 218.7879
1160.309, 218.3517
1160.791, 218.2952
1161.273, 219.2832
1161.755, 219.4301
1162.238, 217.9247
1162.720, 215.8125
1163.202, 213.9959
1163.684, 212.5126
1164.166, 211.7198
1164.648, 211.5538
1165.130, 211.3425
1165.612, 210.5076
1166.094, 209.7715
1166.577, 209.4997
1167.059, 209.4753
1167.541, 209.3873
1168.023, 209.2461
1168.505, 209.2238
1168.987, 209.3416
1169.469, 209.2883
1169.951, 208.0795
1170.433, 207.4005
1170.916, 208.9038
1171.398, 211.5501
1171.880, 212.7409
1172.362, 212.5014
1172.844, 212.2234
1173.326, 212.1321
1173.808, 212.2713
1174.290, 213.1088
1174.773, 213.8282
1175.255, 213.3052
1175.737, 214.3824
1176.219, 212.5475
1176.701, 215.1657
1177.183, 216.7471
1177.665, 216.2264
1178.147, 215.3029
1178.630, 215.7787
1179.112, 216.5341
1179.594, 216.1157
1180.076, 214.4781
1180.558, 214.7561
1181.040, 217.1799
1181.522, 219.2754
1182.004, 219.8984
1182.486, 220.2421
1182.969, 222.2649
1183.451, 224.3792
1183.933, 224.2682
1184.415, 221.1525
1184.897, 219.8726
1185.379, 220.7078
1185.861, 221.5191
1186.343, 221.0701
1186.825, 220.2338
1187.308, 220.1081
1187.790, 220.2725
1188.272, 220.1423
1188.754, 219.9599
1189.236, 218.4238
1189.718, 215.4329
1190.200, 211.6848
1190.682, 206.5968
1191.165, 201.8687
1191.647, 200.1453
1192.129, 200.3565
1192.611, 200.3732
1193.093, 200.1126
1193.575, 199.0137
1194.057, 197.0250
1194.539, 194.3521
1195.021, 189.9990
1195.504, 185.8315
1195.986, 185.0256
1196.468, 186.5460
1196.950, 187.3018
1197.432, 186.5268
1197.914, 185.4169
1198.396, 183.8928
1198.878, 182.5736
1199.360, 182.4032
1199.843, 182.5911
1200.325, 182.0073
1200.807, 180.7516
1201.289, 179.3327
1201.771, 177.1715
1202.253, 176.5461
1202.735, 178.0597
1203.217, 180.0309
1203.700, 180.6244
1204.182, 180.4722
1204.664, 180.8237
1205.146, 181.4752
1205.628, 180.3947
1206.110, 175.6898
1206.592, 173.0601
1207.074, 173.8179
1207.557, 175.6173
1208.039, 175.3522
1208.521, 174.3255
1209.003, 174.3693
1209.485, 175.6186
1209.967, 177.4643
1210.449, 180.6228
1210.931, 182.2525
1211.413, 181.3788
1211.896, 179.8425
1212.378, 180.2490
1212.860, 181.5308
1213.342, 182.0339
1213.824, 181.5788
1214.306, 181.7151
1214.788, 183.1581
1215.270, 183.5090
1215.752, 181.6620
1216.235, 179.6745
1216.717, 181.0804
1217.199, 183.9615
1217.681, 185.2917
1218.163, 184.5106
1218.645, 185.0081
1219.127, 187.5295
1219.609, 189.8226
1220.092, 191.3371
1220.574, 191.9647
1221.056, 190.7946
1221.538, 189.0140
1222.020, 188.2240
1222.502, 188.7430
1222.984, 190.5434
1223.466, 194.3706
1223.948, 196.6893
1224.431, 195.6642
1224.913, 193.6225
1225.395, 193.9910
1225.877, 195.4948
1226.359, 196.4076
1226.841, 196.3350
1227.323, 196.0540
1227.805, 195.5126
1228.287, 195.0170
1228.770, 194.7217
1229.252, 194.4850
1229.734, 194.2382
1230.216, 193.8709
1230.698, 193.1238
1231.180, 191.7751
1231.662, 191.2104
1232.144, 191.6012
1232.627, 191.7367
1233.109, 190.8083
1233.591, 189.7992
1234.073, 190.0870
1234.555, 190.9191
1235.037, 191.3144
1235.519, 191.1859
1236.001, 190.4947
1236.484, 189.1641
1236.966, 188.0145
1237.448, 187.4106
1237.930, 187.2577
1238.412, 188.3459
1238.894, 189.3612
1239.376, 187.9857
1239.858, 183.5174
1240.340, 182.0230
1240.823, 183.6342
1241.305, 185.7102
1241.787, 187.2392
1242.269, 188.1023
1242.751, 187.8018
1243.233, 186.9612
1243.715, 186.2113
1244.197, 185.4637
1244.679, 186.3424
1245.162, 188.8068
1245.644, 190.5359
1246.126, 189.8149
1246.608, 188.5936
1247.090, 188.0740
1247.572, 187.8396
1248.054, 187.4346
1248.536, 186.8589
1249.019, 185.6945
1249.501, 184.1036
1249.983, 183.8357
1250.465, 186.9832
1250.947, 190.2970
1251.429, 192.7476
1251.911, 194.0164
1252.393, 193.7088
1252.875, 191.8739
1253.358, 188.6343
1253.840, 184.3884
1254.322, 181.7113
1254.804, 182.8854
1255.286, 184.6784
1255.768, 186.6480
1256.250, 188.0896
1256.732, 188.3506
1257.214, 187.5143
1257.697, 185.7572
1258.179, 183.2894
1258.661, 181.0894
1259.143, 179.3180
1259.625, 178.3116
1260.107, 178.3181
1260.589, 178.6898
1261.071, 178.9720
1261.554, 179.1649
1262.036, 179.3644
1262.518, 179.4803
1263.000, 179.2181
1263.482, 178.6432
1263.964, 177.2492
1264.446, 174.6872
1264.928, 172.0731
1265.411, 170.4566
1265.893, 169.3923
1266.375, 167.8390
1266.857, 166.1066
1267.339, 165.0773
1267.821, 165.9377
1268.303, 165.6114
1268.785, 163.7360
1269.267, 161.8012
1269.750, 161.0571
1270.232, 160.9008
1270.714, 160.6425
1271.196, 160.3299
1271.678, 160.1363
1272.160, 160.2626
1272.642, 159.7383
1273.124, 158.4224
1273.606, 157.4778
1274.089, 158.2190
1274.571, 159.2418
1275.053, 159.4675
1275.535, 158.9960
1276.017, 157.9800
1276.499, 156.2673
1276.981, 155.2568
1277.463, 154.9709
1277.946, 154.8094
1278.428, 154.4352
1278.910, 154.0160
1279.392, 153.5850
1279.874, 153.2273
1280.356, 152.9480
1280.838, 152.7621
1281.320, 153.4753
1281.802, 154.9374
1282.285, 155.8238
1282.767, 154.5859
1283.249, 153.7258
1283.731, 154.3409
1284.213, 155.4782
1284.695, 156.4253
1285.177, 157.1972
1285.659, 158.1069
1286.141, 158.9612
1286.624, 158.9520
1287.106, 156.6594
1287.588, 155.0095
1288.070, 154.1274
1288.552, 154.3982
1289.034, 157.4765
1289.516, 161.3438
1289.998, 160.3796
1290.481, 156.4725
1290.963, 154.5267
1291.445, 157.8726
1291.927, 159.8557
1292.409, 160.3179
1292.891, 159.9412
1293.373, 158.6729
1293.855, 157.2863
1294.338, 156.7586
1294.820, 156.8361
1295.302, 157.0818
1295.784, 157.4620
1296.266, 157.9599
1296.748, 158.5944
1297.230, 159.0092
1297.712, 159.2055
1298.194, 158.8367
1298.677, 156.4556
1299.159, 154.1639
1299.641, 154.8626
1300.123, 158.6799
1300.605, 159.6747
1301.087, 158.1208
1301.569, 156.4783
1302.051, 156.1483
1302.533, 155.7072
1303.016, 154.6859
##END=



