##NAMES=Behierite
##RRUFFID=R060657
##IDEAL CHEMISTRY=TaBO_4_
##LOCALITY=Mount Ibity, Antsirabe, Madagascar
##OWNER=RRUFF
##SOURCE=Michael Scott
##DESCRIPTION=Gray deformed crystal
##STATUS=The identification of this mineral is confirmed by single-crystal X-ray diffraction and chemical analysis.
##URL=rruff.info/R060657
##MEASURED CHEMISTRY=(Ta_0.84_Nb_0.16_)_Î£=1_BO_4_; B not measured but estimated by difference and charge balance
121.7922, 66.44675
122.2743, 77.66136
122.7564, 99.27099
123.2385, 116.5782
123.7206, 123.5551
124.2027, 126.7330
124.6849, 134.9968
125.1670, 149.7615
125.6491, 164.5128
126.1312, 172.8202
126.6133, 177.7184
127.0954, 184.4839
127.5776, 196.7302
128.0597, 211.9194
128.5418, 224.1040
129.0239, 231.4774
129.5060, 239.7420
129.9881, 254.4587
130.4702, 272.4189
130.9524, 287.3831
131.4345, 295.4471
131.9166, 297.7095
132.3987, 298.7528
132.8808, 298.6634
133.3629, 296.9618
133.8451, 291.8171
134.3272, 285.0092
134.8093, 280.4193
135.2914, 281.6364
135.7735, 288.1192
136.2556, 292.4274
136.7378, 291.6604
137.2199, 291.7305
137.7020, 295.1001
138.1841, 301.0967
138.6662, 307.8635
139.1483, 313.9175
139.6305, 319.2373
140.1126, 324.9122
140.5947, 328.6680
141.0768, 335.0221
141.5589, 346.5790
142.0410, 362.3652
142.5232, 379.3621
143.0053, 394.8535
143.4874, 408.6144
143.9695, 423.0516
144.4516, 438.1032
144.9337, 453.8567
145.4159, 470.7321
145.8980, 488.5153
146.3801, 506.5131
146.8622, 524.4251
147.3443, 542.9847
147.8264, 557.3441
148.3086, 565.0407
148.7907, 571.5147
149.2728, 579.7116
149.7549, 589.4931
150.2370, 598.6071
150.7191, 604.7683
151.2013, 607.3618
151.6834, 609.1052
152.1655, 613.2531
152.6476, 614.2195
153.1297, 605.0096
153.6118, 587.2007
154.0940, 571.3770
154.5761, 569.7689
155.0582, 587.9057
155.5403, 597.2885
156.0224, 591.7119
156.5045, 582.9249
156.9867, 577.6627
157.4688, 577.0778
157.9509, 580.0735
158.4330, 586.1656
158.9151, 596.6494
159.3972, 603.9753
159.8793, 604.4404
160.3615, 604.3390
160.8436, 609.6537
161.3257, 620.8435
161.8078, 632.4304
162.2899, 637.9625
162.7720, 635.8660
163.2542, 638.8812
163.7363, 653.3751
164.2184, 669.6292
164.7005, 676.5942
165.1826, 672.9502
165.6647, 670.0329
166.1469, 681.0975
166.6290, 706.8013
167.1111, 726.9033
167.5932, 737.3126
168.0753, 742.5454
168.5574, 744.7922
169.0396, 743.9805
169.5217, 746.8715
170.0038, 763.5851
170.4859, 792.3953
170.9680, 814.0560
171.4501, 822.1351
171.9323, 823.3160
172.4144, 823.4255
172.8965, 822.5392
173.3786, 824.6934
173.8607, 837.1309
174.3428, 856.9698
174.8250, 870.7964
175.3071, 870.3747
175.7892, 864.9535
176.2713, 866.3785
176.7534, 876.0481
177.2355, 889.0424
177.7177, 904.5132
178.1998, 920.6661
178.6819, 931.6973
179.1640, 929.8793
179.6461, 924.5951
180.1283, 930.1128
180.6104, 948.8705
181.0925, 969.4754
181.5746, 982.9075
182.0567, 992.3042
182.5388, 1003.420
183.0210, 1018.711
183.5031, 1036.333
183.9852, 1053.442
184.4673, 1069.945
184.9494, 1086.785
185.4315, 1104.671
185.9137, 1123.285
186.3958, 1142.475
186.8779, 1162.872
187.3600, 1183.451
187.8421, 1203.831
188.3242, 1224.791
188.8064, 1242.046
189.2885, 1244.802
189.7706, 1244.229
190.2527, 1255.893
190.7348, 1289.574
191.2169, 1332.346
191.6991, 1365.609
192.1812, 1388.110
192.6633, 1406.180
193.1454, 1419.564
193.6275, 1431.117
194.1096, 1443.349
194.5918, 1456.143
195.0739, 1471.236
195.5560, 1492.623
196.0381, 1522.071
196.5202, 1549.610
197.0023, 1570.083
197.4845, 1587.021
197.9666, 1602.090
198.4487, 1614.447
198.9308, 1628.809
199.4129, 1652.844
199.8950, 1688.707
200.3771, 1723.089
200.8593, 1752.951
201.3414, 1778.739
201.8235, 1799.204
202.3056, 1813.264
202.7877, 1826.468
203.2698, 1847.485
203.7520, 1878.615
204.2341, 1902.839
204.7162, 1913.854
205.1983, 1916.676
205.6804, 1913.447
206.1625, 1904.465
206.6447, 1891.245
207.1268, 1876.126
207.6089, 1859.518
208.0910, 1836.410
208.5731, 1805.042
209.0552, 1766.607
209.5374, 1720.283
210.0195, 1666.504
210.5016, 1609.644
210.9837, 1549.979
211.4658, 1487.016
211.9479, 1436.714
212.4301, 1413.703
212.9122, 1393.433
213.3943, 1358.489
213.8764, 1310.180
214.3585, 1264.972
214.8406, 1239.261
215.3228, 1232.134
215.8049, 1219.414
216.2870, 1193.414
216.7691, 1168.224
217.2512, 1151.335
217.7333, 1141.919
218.2155, 1135.910
218.6976, 1131.675
219.1797, 1128.956
219.6618, 1124.924
220.1439, 1116.288
220.6260, 1111.134
221.1082, 1116.540
221.5903, 1128.165
222.0724, 1136.081
222.5545, 1132.400
223.0366, 1120.484
223.5187, 1113.607
224.0009, 1113.474
224.4830, 1115.725
224.9651, 1117.985
225.4472, 1120.993
225.9293, 1126.224
226.4114, 1135.207
226.8936, 1146.166
227.3757, 1154.725
227.8578, 1160.208
228.3399, 1164.881
228.8220, 1168.777
229.3041, 1172.752
229.7863, 1177.665
230.2684, 1183.634
230.7505, 1191.131
231.2326, 1201.876
231.7147, 1217.309
232.1968, 1230.668
232.6790, 1237.022
233.1611, 1241.483
233.6432, 1248.360
234.1253, 1258.883
234.6074, 1271.107
235.0895, 1285.024
235.5717, 1301.863
236.0538, 1310.098
236.5359, 1297.779
237.0180, 1281.214
237.5001, 1273.876
237.9822, 1277.722
238.4644, 1281.688
238.9465, 1273.694
239.4286, 1254.112
239.9107, 1239.051
240.3928, 1234.997
240.8749, 1232.912
241.3571, 1226.604
241.8392, 1216.002
242.3213, 1203.035
242.8034, 1186.755
243.2855, 1168.402
243.7676, 1155.867
244.2497, 1154.911
244.7319, 1152.219
245.2140, 1136.767
245.6961, 1111.555
246.1782, 1087.001
246.6603, 1068.572
247.1424, 1054.429
247.6246, 1038.389
248.1067, 1017.096
248.5888, 1001.892
249.0709, 1007.633
249.5530, 1023.934
250.0351, 1031.480
250.5173, 1019.687
250.9994, 998.0709
251.4815, 978.7459
251.9636, 961.4446
252.4457, 948.5408
252.9278, 943.5184
253.4100, 943.3483
253.8921, 944.3433
254.3742, 947.7519
254.8563, 949.3462
255.3384, 943.1526
255.8205, 929.4709
256.3027, 918.4193
256.7848, 916.6752
257.2669, 917.8549
257.7490, 911.2262
258.2311, 893.4162
258.7133, 877.5770
259.1954, 873.2932
259.6775, 878.2086
260.1596, 883.5651
260.6417, 888.1011
261.1238, 890.3025
261.6060, 886.2037
262.0880, 875.1095
262.5702, 868.7350
263.0523, 877.3488
263.5344, 892.7366
264.0165, 898.6124
264.4986, 890.7371
264.9807, 878.9255
265.4629, 873.0422
265.9450, 872.5473
266.4271, 873.2382
266.9092, 875.5006
267.3913, 877.9354
267.8734, 877.7106
268.3556, 874.6887
268.8377, 874.4733
269.3198, 882.6059
269.8019, 898.2910
270.2840, 910.3040
270.7661, 915.3321
271.2483, 919.6093
271.7304, 927.3384
272.2125, 937.9168
272.6946, 948.3735
273.1767, 957.2430
273.6588, 964.7133
274.1410, 971.5004
274.6231, 974.5211
275.1052, 980.7559
275.5873, 995.5621
276.0694, 1014.617
276.5515, 1029.154
277.0337, 1035.339
277.5158, 1038.416
277.9979, 1049.141
278.4800, 1073.138
278.9621, 1093.193
279.4442, 1103.078
279.9264, 1110.806
280.4085, 1124.856
280.8906, 1146.791
281.3727, 1171.689
281.8548, 1193.788
282.3369, 1211.586
282.8191, 1231.890
283.3012, 1256.732
283.7833, 1282.023
284.2654, 1306.478
284.7475, 1329.457
285.2296, 1351.241
285.7118, 1372.859
286.1939, 1394.268
286.6760, 1401.959
287.1581, 1387.293
287.6402, 1369.433
288.1223, 1353.590
288.6045, 1337.959
289.0866, 1319.703
289.5687, 1297.559
290.0508, 1270.490
290.5329, 1234.901
291.0150, 1181.262
291.4972, 1132.361
291.9793, 1090.308
292.4614, 1053.333
292.9435, 1019.864
293.4256, 989.4591
293.9077, 963.0268
294.3899, 942.9124
294.8720, 931.7579
295.3541, 919.3845
295.8362, 904.9868
296.3183, 889.9105
296.8004, 873.8033
297.2826, 857.3608
297.7647, 842.7147
298.2468, 831.5215
298.7289, 823.8117
299.2110, 819.9646
299.6931, 827.0332
300.1753, 829.2265
300.6574, 816.5115
301.1395, 795.6336
301.6216, 778.9034
302.1037, 773.5043
302.5858, 775.4750
303.0680, 775.3995
303.5501, 772.6854
304.0322, 769.4714
304.5143, 764.1379
304.9964, 759.8063
305.4785, 760.6637
305.9607, 768.6025
306.4428, 777.1616
306.9249, 779.6344
307.4070, 776.0376
307.8891, 769.4720
308.3712, 756.9307
308.8534, 745.5182
309.3355, 742.5025
309.8176, 747.6894
310.2997, 753.3611
310.7818, 755.9678
311.2639, 755.9637
311.7461, 753.4436
312.2282, 747.0843
312.7103, 742.5884
313.1924, 747.5152
313.6745, 758.7944
314.1566, 766.4095
314.6388, 766.6579
315.1209, 763.5258
315.6030, 759.0323
316.0851, 753.6024
316.5672, 751.4487
317.0493, 756.2405
317.5315, 765.3316
318.0136, 770.0526
318.4957, 768.1202
318.9778, 765.7285
319.4599, 764.7983
319.9420, 765.0936
320.4242, 766.6302
320.9063, 769.5853
321.3884, 772.5264
321.8705, 773.1227
322.3526, 770.5873
322.8347, 767.5661
323.3169, 761.9341
323.7990, 757.3776
324.2811, 758.4738
324.7632, 764.6924
325.2453, 769.9083
325.7274, 767.9539
326.2096, 758.2034
326.6917, 754.4896
327.1738, 760.7910
327.6559, 767.9232
328.1380, 773.7916
328.6201, 778.2700
329.1023, 781.8589
329.5844, 784.8615
330.0665, 786.7161
330.5486, 785.0901
331.0307, 773.0590
331.5128, 769.1652
331.9950, 781.8911
332.4771, 797.9871
332.9592, 805.7495
333.4413, 803.3406
333.9234, 798.4410
334.4055, 800.2743
334.8877, 809.8555
335.3698, 819.5396
335.8519, 830.7772
336.3340, 840.4843
336.8161, 847.9452
337.2982, 852.8730
337.7804, 854.7065
338.2625, 852.2250
338.7446, 846.8410
339.2267, 843.1639
339.7088, 842.7464
340.1909, 839.7725
340.6731, 829.0091
341.1552, 815.4696
341.6373, 803.9537
342.1194, 795.1591
342.6015, 789.6664
343.0836, 789.9290
343.5658, 795.1323
344.0479, 797.7406
344.5300, 794.1357
345.0121, 789.8328
345.4942, 793.4631
345.9763, 804.7232
346.4584, 809.6229
346.9406, 797.3074
347.4227, 778.4903
347.9048, 766.6690
348.3869, 763.1159
348.8690, 766.3486
349.3511, 777.9550
349.8333, 796.2534
350.3154, 807.0930
350.7975, 806.3307
351.2796, 802.7822
351.7617, 797.4401
352.2438, 792.4774
352.7260, 793.9312
353.2081, 805.0281
353.6902, 819.5247
354.1723, 824.0750
354.6544, 807.8273
355.1365, 799.1212
355.6187, 806.5067
356.1008, 815.6292
356.5829, 813.3954
357.0650, 799.7111
357.5471, 784.9470
358.0292, 778.9175
358.5114, 782.0358
358.9935, 785.7404
359.4756, 793.6201
359.9577, 798.1859
360.4398, 796.9446
360.9219, 791.3157
361.4041, 781.7964
361.8862, 767.9971
362.3683, 755.0333
362.8504, 755.7403
363.3325, 776.6927
363.8146, 792.1330
364.2968, 793.2362
364.7789, 790.6384
365.2610, 791.1921
365.7431, 795.3196
366.2252, 798.4663
366.7073, 795.6539
367.1895, 788.3119
367.6716, 784.2618
368.1537, 785.1216
368.6358, 786.6695
369.1179, 786.3709
369.6000, 784.8130
370.0822, 782.9891
370.5643, 781.5633
371.0464, 779.5136
371.5285, 774.4851
372.0106, 767.2173
372.4927, 762.7494
372.9749, 762.8948
373.4570, 767.0776
373.9391, 776.5093
374.4212, 794.3446
374.9033, 803.8537
375.3854, 794.0593
375.8676, 777.1638
376.3497, 765.8753
376.8318, 762.2044
377.3139, 763.9249
377.7960, 770.0588
378.2781, 780.7768
378.7603, 787.7925
379.2424, 795.1279
379.7245, 795.1955
380.2066, 779.0854
380.6887, 755.4964
381.1708, 738.0687
381.6530, 732.7533
382.1351, 735.6953
382.6172, 739.7115
383.0993, 746.8798
383.5814, 750.6580
384.0635, 747.3856
384.5457, 743.9967
385.0278, 744.9840
385.5099, 750.0313
385.9920, 755.7803
386.4741, 760.1606
386.9562, 763.0171
387.4384, 763.0158
387.9205, 758.5107
388.4026, 754.2217
388.8847, 751.5949
389.3668, 750.3704
389.8489, 750.5890
390.3311, 752.5264
390.8132, 754.8428
391.2953, 756.9125
391.7774, 758.5091
392.2595, 757.2095
392.7416, 750.7704
393.2238, 744.2116
393.7059, 744.6353
394.1880, 751.1213
394.6701, 754.8456
395.1522, 750.7869
395.6343, 744.8845
396.1165, 742.9606
396.5986, 744.9210
397.0807, 747.9318
397.5628, 750.6256
398.0449, 752.8737
398.5270, 754.1620
399.0092, 753.6824
399.4913, 753.4460
399.9734, 752.6074
400.4555, 752.7434
400.9376, 757.1855
401.4197, 765.8930
401.9019, 773.2640
402.3840, 772.1644
402.8661, 760.7922
403.3482, 754.6919
403.8303, 756.5463
404.3124, 760.9929
404.7946, 770.5298
405.2767, 780.7695
405.7588, 783.6164
406.2409, 774.3373
406.7230, 761.1898
407.2051, 760.5928
407.6873, 775.1014
408.1694, 790.5573
408.6515, 808.7748
409.1336, 823.0826
409.6157, 826.9065
410.0978, 821.1389
410.5800, 814.9195
411.0621, 813.0248
411.5442, 814.2613
412.0263, 816.8224
412.5084, 820.8104
412.9905, 824.4774
413.4727, 826.7095
413.9548, 827.8586
414.4369, 829.0471
414.9190, 829.4465
415.4011, 831.2512
415.8832, 835.4692
416.3654, 841.6621
416.8475, 850.5754
417.3296, 862.3910
417.8117, 871.9286
418.2938, 871.8205
418.7759, 858.7336
419.2581, 857.1425
419.7402, 878.0731
420.2223, 897.2618
420.7044, 900.6985
421.1865, 895.8653
421.6686, 899.1998
422.1508, 919.2080
422.6329, 945.1101
423.1150, 951.2022
423.5971, 926.5435
424.0792, 911.0693
424.5613, 914.6820
425.0435, 923.5908
425.5256, 930.8767
426.0077, 936.4723
426.4898, 943.3979
426.9719, 953.0291
427.4540, 965.6837
427.9361, 984.2286
428.4182, 1010.943
428.9004, 1032.785
429.3825, 1037.353
429.8646, 1036.653
430.3467, 1051.314
430.8288, 1088.655
431.3109, 1121.255
431.7931, 1126.005
432.2752, 1119.699
432.7573, 1132.268
433.2394, 1169.228
433.7215, 1216.181
434.2036, 1261.481
434.6858, 1304.811
435.1679, 1346.141
435.6500, 1383.481
436.1321, 1421.132
436.6142, 1457.193
437.0963, 1495.656
437.5785, 1542.012
438.0606, 1598.103
438.5427, 1662.807
439.0248, 1734.702
439.5069, 1816.294
439.9890, 1897.844
440.4712, 1973.791
440.9533, 2055.657
441.4354, 2150.400
441.9175, 2254.581
442.3996, 2360.707
442.8817, 2464.701
443.3639, 2569.263
443.8460, 2678.319
444.3281, 2792.015
444.8102, 2910.775
445.2923, 3033.495
445.7744, 3163.063
446.2566, 3299.542
446.7387, 3442.173
447.2208, 3597.269
447.7029, 3770.960
448.1850, 3956.043
448.6671, 4150.315
449.1493, 4350.658
449.6314, 4541.202
450.1135, 4709.199
450.5956, 4860.899
451.0777, 5023.560
451.5598, 5232.958
452.0420, 5403.789
452.5241, 5516.837
453.0062, 5595.014
453.4883, 5664.340
453.9704, 5724.626
454.4525, 5751.644
454.9347, 5722.257
455.4168, 5637.991
455.8989, 5522.776
456.3810, 5375.483
456.8631, 5194.598
457.3452, 4963.524
457.8274, 4711.817
458.3095, 4470.539
458.7916, 4246.290
459.2737, 4025.536
459.7558, 3784.421
460.2379, 3532.500
460.7201, 3312.471
461.2022, 3135.712
461.6843, 2975.023
462.1664, 2813.184
462.6485, 2652.706
463.1306, 2501.443
463.6128, 2352.978
464.0949, 2222.274
464.5770, 2122.632
465.0591, 2045.663
465.5412, 1978.344
466.0233, 1916.666
466.5055, 1856.772
466.9876, 1792.159
467.4697, 1719.315
467.9518, 1660.193
468.4339, 1626.085
468.9160, 1591.795
469.3982, 1544.536
469.8803, 1491.691
470.3624, 1446.250
470.8445, 1413.694
471.3266, 1389.349
471.8087, 1366.985
472.2909, 1347.000
472.7730, 1325.343
473.2551, 1300.632
473.7372, 1275.193
474.2193, 1249.257
474.7014, 1223.764
475.1836, 1201.659
475.6657, 1185.265
476.1478, 1171.422
476.6299, 1156.547
477.1120, 1141.176
477.5941, 1128.844
478.0763, 1121.576
478.5584, 1115.590
479.0405, 1104.997
479.5226, 1087.801
480.0047, 1072.359
480.4868, 1057.835
480.9690, 1045.962
481.4511, 1038.144
481.9332, 1033.807
482.4153, 1032.306
482.8974, 1033.459
483.3795, 1035.547
483.8617, 1034.523
484.3438, 1029.392
484.8259, 1024.027
485.3080, 1019.461
485.7901, 1014.183
486.2722, 1005.342
486.7544, 994.7696
487.2365, 988.5089
487.7186, 992.5034
488.2007, 1000.081
488.6828, 1000.741
489.1649, 994.7318
489.6471, 988.4437
490.1292, 984.4019
490.6113, 980.6407
491.0934, 972.3655
491.5755, 957.9602
492.0576, 951.2314
492.5398, 962.1083
493.0219, 974.7449
493.5040, 977.7045
493.9861, 972.2637
494.4682, 964.1119
494.9503, 956.1191
495.4325, 948.7893
495.9146, 943.6423
496.3967, 941.5860
496.8788, 939.7622
497.3609, 936.6063
497.8430, 934.9378
498.3252, 936.8933
498.8073, 941.7175
499.2894, 947.2839
499.7715, 953.4478
500.2536, 958.4347
500.7357, 957.9334
501.2179, 951.8600
501.7000, 948.1385
502.1821, 950.5018
502.6642, 954.3217
503.1463, 952.2949
503.6284, 944.4199
504.1106, 940.7758
504.5927, 948.8231
505.0748, 956.9404
505.5569, 956.1647
506.0390, 948.2907
506.5211, 938.3244
507.0033, 928.3638
507.4854, 920.5613
507.9675, 919.7966
508.4496, 930.6570
508.9317, 937.4096
509.4138, 934.2822
509.8959, 932.8989
510.3781, 943.2015
510.8602, 958.8159
511.3423, 964.6024
511.8244, 950.7452
512.3065, 931.2642
512.7886, 928.4446
513.2708, 941.4752
513.7529, 951.7319
514.2350, 955.9380
514.7171, 954.8464
515.1992, 945.6256
515.6813, 929.8297
516.1635, 920.6144
516.6456, 926.6093
517.1277, 932.8313
517.6098, 928.4864
518.0919, 918.5257
518.5740, 912.4028
519.0562, 913.4084
519.5383, 919.5195
520.0204, 929.2334
520.5025, 944.5322
520.9846, 951.9438
521.4667, 943.4036
521.9489, 935.2837
522.4310, 931.7907
522.9131, 931.6739
523.3952, 933.7081
523.8773, 937.7908
524.3594, 940.8465
524.8416, 936.6454
525.3237, 927.9095
525.8058, 930.4432
526.2879, 949.8819
526.7700, 964.9799
527.2521, 956.1756
527.7343, 929.3928
528.2164, 915.5968
528.6985, 921.4683
529.1806, 931.0576
529.6627, 941.6451
530.1448, 952.2068
530.6270, 961.7729
531.1091, 970.0975
531.5912, 976.5689
532.0733, 979.5820
532.5554, 980.2995
533.0375, 990.0193
533.5197, 1013.872
534.0018, 1037.624
534.4839, 1060.512
534.9660, 1080.260
535.4481, 1092.295
535.9302, 1097.079
536.4124, 1105.111
536.8945, 1122.839
537.3766, 1147.998
537.8587, 1178.192
538.3408, 1213.008
538.8229, 1247.763
539.3051, 1279.266
539.7872, 1311.245
540.2693, 1351.319
540.7514, 1399.961
541.2335, 1456.383
541.7156, 1525.345
542.1978, 1598.389
542.6799, 1667.739
543.1620, 1737.026
543.6441, 1814.398
544.1262, 1903.448
544.6083, 2005.118
545.0905, 2121.611
545.5726, 2254.988
546.0547, 2390.081
546.5368, 2522.977
547.0189, 2660.914
547.5010, 2810.115
547.9832, 2967.270
548.4653, 3123.875
548.9474, 3272.284
549.4295, 3426.236
549.9116, 3588.759
550.3937, 3763.846
550.8759, 3955.552
551.3580, 4165.534
551.8401, 4398.326
552.3222, 4656.188
552.8043, 4938.858
553.2864, 5271.303
553.7686, 5669.467
554.2507, 6105.217
554.7328, 6569.159
555.2149, 7071.595
555.6970, 7620.829
556.1791, 8217.738
556.6613, 8864.421
557.1434, 9576.043
557.6255, 10334.44
558.1076, 11106.15
558.5897, 11900.10
559.0718, 12636.05
559.5540, 13326.61
560.0361, 13905.74
560.5182, 14256.69
561.0003, 14404.91
561.4824, 14307.22
561.9645, 13894.89
562.4467, 13288.02
562.9288, 12519.40
563.4109, 11631.86
563.8930, 10671.14
564.3751, 9662.068
564.8572, 8652.872
565.3394, 7729.126
565.8215, 6884.904
566.3036, 6141.109
566.7857, 5517.766
567.2678, 4976.093
567.7499, 4495.047
568.2321, 4075.064
568.7142, 3720.979
569.1963, 3443.920
569.6784, 3206.817
570.1605, 2988.880
570.6426, 2792.674
571.1248, 2623.593
571.6069, 2482.765
572.0890, 2366.591
572.5711, 2276.225
573.0532, 2205.934
573.5353, 2124.350
574.0175, 2006.189
574.4996, 1914.454
574.9817, 1870.256
575.4638, 1837.638
575.9459, 1789.479
576.4280, 1728.027
576.9102, 1672.857
577.3923, 1636.948
577.8744, 1610.761
578.3565, 1577.756
578.8386, 1538.509
579.3207, 1502.508
579.8029, 1473.274
580.2850, 1445.190
580.7671, 1409.968
581.2492, 1367.115
581.7313, 1336.922
582.2134, 1333.656
582.6956, 1326.849
583.1777, 1299.444
583.6598, 1264.948
584.1419, 1242.523
584.6240, 1235.291
585.1061, 1229.001
585.5883, 1207.317
586.0704, 1173.994
586.5525, 1154.441
587.0346, 1152.661
587.5167, 1152.342
587.9988, 1151.097
588.4810, 1145.932
588.9631, 1131.598
589.4452, 1107.446
589.9273, 1087.279
590.4094, 1077.183
590.8915, 1070.940
591.3737, 1065.857
591.8558, 1060.224
592.3379, 1048.964
592.8200, 1029.999
593.3021, 1010.917
593.7842, 1004.325
594.2664, 1013.226
594.7485, 1013.765
595.2306, 999.1411
595.7127, 985.1863
596.1948, 977.9034
596.6769, 974.0276
597.1591, 968.7224
597.6412, 960.6592
598.1233, 955.7921
598.6054, 962.1674
599.0875, 971.9193
599.5696, 971.9515
600.0518, 962.6329
600.5339, 953.3969
601.0160, 949.3475
601.4981, 947.8848
601.9802, 943.3430
602.4623, 934.2935
602.9445, 925.5788
603.4266, 914.1089
603.9087, 906.1496
604.3908, 908.0110
604.8729, 914.2640
605.3550, 915.3788
605.8372, 907.6514
606.3193, 897.7662
606.8014, 892.3715
607.2835, 890.0751
607.7656, 886.6418
608.2477, 881.5712
608.7299, 876.9047
609.2120, 874.8175
609.6941, 873.2363
610.1762, 865.3575
610.6583, 840.2272
611.1404, 827.3343
611.6226, 836.6513
612.1047, 849.8917
612.5868, 858.3566
613.0689, 861.2433
613.5510, 858.6561
614.0331, 850.0294
614.5153, 839.8040
614.9974, 834.6073
615.4795, 833.7053
615.9616, 830.8416
616.4437, 824.3549
616.9258, 819.6932
617.4080, 821.3046
617.8901, 827.6049
618.3722, 832.4845
618.8543, 838.2271
619.3364, 838.9028
619.8185, 827.4669
620.3007, 815.5493
620.7828, 813.6429
621.2649, 819.5526
621.7470, 824.2552
622.2291, 822.7747
622.7112, 817.5226
623.1934, 811.3909
623.6755, 804.3481
624.1576, 801.9849
624.6397, 807.2411
625.1218, 811.9170
625.6039, 809.0567
626.0861, 800.9974
626.5682, 796.5219
627.0503, 797.3284
627.5324, 799.0673
628.0145, 801.1193
628.4966, 803.2364
628.9788, 805.7266
629.4609, 808.1172
629.9430, 808.9039
630.4251, 807.0735
630.9072, 803.7816
631.3893, 801.3132
631.8715, 799.7441
632.3535, 797.8309
632.8356, 794.4959
633.3177, 792.5659
633.7999, 795.4218
634.2820, 801.1392
634.7641, 804.2653
635.2462, 802.3248
635.7283, 801.6702
636.2104, 806.9717
636.6926, 812.7214
637.1747, 813.3813
637.6568, 809.1418
638.1389, 802.1669
638.6210, 793.1899
639.1031, 785.3827
639.5853, 786.9669
640.0674, 799.2712
640.5495, 807.6866
641.0316, 809.8638
641.5137, 809.4977
641.9958, 807.7662
642.4780, 805.4271
642.9601, 804.2545
643.4422, 804.6433
643.9243, 805.6017
644.4064, 810.2745
644.8885, 812.8588
645.3707, 804.8644
645.8528, 789.1180
646.3349, 776.8789
646.8170, 774.4923
647.2991, 776.9556
647.7813, 773.9019
648.2634, 764.5565
648.7455, 761.2292
649.2276, 767.9470
649.7097, 774.7319
650.1918, 774.3491
650.6740, 770.2439
651.1561, 769.9716
651.6382, 776.0507
652.1203, 780.1638
652.6024, 780.0012
653.0845, 776.8331
653.5667, 768.4326
654.0488, 758.0973
654.5309, 754.5124
655.0130, 761.9975
655.4951, 773.4296
655.9772, 777.4370
656.4594, 773.9644
656.9415, 770.7444
657.4236, 766.6924
657.9057, 767.0822
658.3878, 779.6059
658.8699, 795.9089
659.3521, 798.6719
659.8342, 784.1502
660.3163, 770.9161
660.7984, 759.7050
661.2805, 753.8700
661.7626, 761.0059
662.2448, 774.2105
662.7269, 779.5800
663.2090, 772.1323
663.6911, 760.4489
664.1732, 754.4875
664.6553, 753.6813
665.1375, 752.5087
665.6196, 750.4592
666.1017, 750.6129
666.5838, 755.6989
667.0659, 762.2692
667.5480, 763.9025
668.0302, 759.3341
668.5123, 758.9099
668.9944, 770.0914
669.4765, 778.3197
669.9586, 774.1856
670.4407, 764.0724
670.9229, 756.6633
671.4050, 754.0952
671.8871, 753.8618
672.3692, 755.0679
672.8513, 756.3801
673.3334, 753.0762
673.8156, 745.0851
674.2977, 738.2970
674.7798, 734.7227
675.2619, 732.6844
675.7440, 730.2379
676.2261, 727.2952
676.7083, 725.4359
677.1904, 723.4988
677.6725, 724.0167
678.1546, 728.6391
678.6367, 735.2333
679.1188, 743.1174
679.6010, 751.2730
680.0831, 756.9451
680.5652, 758.3136
681.0473, 756.4626
681.5294, 750.9384
682.0115, 743.1022
682.4937, 740.0861
682.9758, 743.7438
683.4579, 747.9747
683.9400, 747.9222
684.4221, 743.9547
684.9042, 738.0700
685.3864, 726.8853
685.8685, 719.3988
686.3506, 713.5646
686.8327, 713.5416
687.3148, 729.6429
687.7969, 752.6669
688.2791, 759.3223
688.7612, 735.9231
689.2433, 712.4643
689.7254, 716.7920
690.2075, 735.6044
690.6896, 746.1702
691.1718, 746.9449
691.6539, 746.4105
692.1360, 749.2923
692.6181, 754.1074
693.1002, 757.9681
693.5823, 761.0624
694.0645, 762.2749
694.5466, 759.9641
695.0287, 758.0654
695.5108, 758.6445
695.9929, 760.3917
696.4750, 761.2589
696.9572, 760.7253
697.4393, 761.9934
697.9214, 766.2888
698.4035, 772.8449
698.8856, 782.7261
699.3677, 794.0679
699.8499, 803.6075
700.3320, 810.1702
700.8141, 813.5386
701.2962, 811.9835
701.7783, 806.9292
702.2604, 808.7496
702.7426, 819.0980
703.2247, 827.9476
703.7068, 831.1083
704.1889, 833.3120
704.6710, 839.5677
705.1531, 849.8049
705.6353, 861.7005
706.1174, 881.1864
706.5995, 894.6685
707.0816, 895.3320
707.5637, 890.0840
708.0458, 883.0518
708.5280, 876.5048
709.0101, 874.8577
709.4922, 882.5311
709.9743, 891.9033
710.4564, 892.3436
710.9385, 884.7869
711.4207, 872.6709
711.9028, 856.2418
712.3849, 838.3848
712.8670, 820.3589
713.3491, 803.3021
713.8312, 791.2183
714.3134, 789.6335
714.7955, 781.8447
715.2776, 763.9456
715.7597, 744.3328
716.2418, 723.1851
716.7239, 703.7377
717.2061, 691.6608
717.6882, 688.7006
718.1703, 686.4188
718.6524, 678.5549
719.1345, 669.8263
719.6166, 664.8097
720.0988, 663.6945
720.5809, 667.2669
721.0630, 675.5703
721.5451, 684.2676
722.0272, 688.3831
722.5093, 688.0625
722.9915, 684.0661
723.4736, 674.1080
723.9557, 668.7592
724.4378, 675.3537
724.9199, 682.7654
725.4020, 676.4499
725.8842, 659.2529
726.3663, 650.3781
726.8484, 657.8483
727.3305, 665.9182
727.8126, 672.4969
728.2947, 675.5897
728.7769, 669.6542
729.2590, 658.2387
729.7411, 653.7471
730.2232, 664.2492
730.7053, 678.0084
731.1874, 678.2352
731.6696, 668.3686
732.1517, 661.1080
732.6338, 657.7866
733.1159, 657.2079
733.5980, 659.1679
734.0801, 662.4269
734.5623, 664.6332
735.0444, 666.3535
735.5265, 664.9314
736.0086, 654.3680
736.4907, 648.0717
736.9728, 655.1638
737.4550, 665.4301
737.9371, 666.7188
738.4192, 657.9481
738.9013, 649.1959
739.3834, 641.7303
739.8655, 638.6603
740.3477, 645.8381
740.8298, 657.8477
741.3119, 666.0750
741.7940, 668.5551
742.2761, 666.9340
742.7582, 661.7790
743.2404, 654.9236
743.7225, 651.5135
744.2046, 651.6880
744.6867, 652.0876
745.1688, 652.3073
745.6509, 652.2108
746.1331, 650.9113
746.6152, 649.4855
747.0973, 651.8193
747.5794, 661.1623
748.0615, 667.9461
748.5436, 671.5472
749.0258, 672.9603
749.5079, 672.6629
749.9900, 670.5037
750.4721, 664.9368
750.9542, 655.7071
751.4363, 648.8588
751.9185, 649.7513
752.4006, 654.4337
752.8827, 659.4689
753.3648, 663.9515
753.8469, 666.0771
754.3290, 665.2597
754.8112, 660.3699
755.2933, 648.7353
755.7754, 633.2183
756.2575, 629.4254
756.7396, 640.2024
757.2217, 650.7466
757.7039, 659.8043
758.1860, 665.7856
758.6681, 664.9025
759.1502, 659.8696
759.6323, 661.6951
760.1144, 678.1511
760.5966, 686.9729
761.0787, 677.2709
761.5608, 666.1854
762.0429, 664.8215
762.5250, 670.1008
763.0071, 675.7371
763.4893, 679.7853
763.9714, 682.0986
764.4535, 680.5225
764.9356, 678.2632
765.4177, 682.1867
765.8998, 690.5010
766.3820, 695.4739
766.8641, 694.6866
767.3462, 690.7659
767.8283, 686.0692
768.3104, 680.8011
768.7925, 675.4788
769.2747, 668.6709
769.7568, 667.4987
770.2389, 678.0245
770.7210, 687.6744
771.2031, 686.0524
771.6852, 676.3032
772.1674, 667.5374
772.6495, 657.9744
773.1316, 653.7411
773.6137, 660.9141
774.0958, 668.8748
774.5779, 669.9858
775.0601, 667.2826
775.5422, 666.3787
776.0243, 668.9162
776.5064, 673.5664
776.9885, 681.8712
777.4706, 690.0269
777.9528, 689.5036
778.4349, 683.3599
778.9170, 684.8312
779.3991, 697.1317
779.8812, 707.3124
780.3633, 702.1411
780.8455, 686.4772
781.3276, 681.8779
781.8097, 691.1368
782.2918, 699.8649
782.7739, 709.2530
783.2560, 711.9624
783.7382, 696.9304
784.2203, 673.2018
784.7024, 666.0435
785.1845, 683.2745
785.6666, 694.8881
786.1487, 692.4138
786.6309, 689.5291
787.1130, 694.5516
787.5951, 702.5665
788.0772, 706.0206
788.5593, 703.8719
789.0414, 701.5929
789.5236, 703.4807
790.0057, 706.2778
790.4878, 707.6182
790.9699, 706.7974
791.4520, 699.3990
791.9341, 686.2544
792.4163, 679.0634
792.8984, 686.9977
793.3805, 702.8023
793.8626, 709.3176
794.3447, 706.0718
794.8268, 704.0881
795.3090, 704.0793
795.7911, 705.8820
796.2732, 710.2722
796.7552, 715.5389
797.2374, 719.2198
797.7195, 722.1427
798.2016, 719.4978
798.6837, 699.2502
799.1658, 689.1758
799.6479, 706.3494
800.1301, 728.9127
800.6122, 736.8176
801.0943, 730.8582
801.5764, 724.3688
802.0585, 720.6300
802.5406, 720.1851
803.0228, 724.2175
803.5049, 731.1777
803.9870, 741.6511
804.4691, 753.3011
804.9512, 759.6710
805.4333, 757.8492
805.9155, 752.2769
806.3976, 747.2806
806.8797, 743.2198
807.3618, 740.7080
807.8439, 739.8762
808.3260, 745.4018
808.8082, 759.9639
809.2903, 774.2011
809.7724, 777.3630
810.2545, 771.0403
810.7366, 770.0900
811.2188, 777.3795
811.7009, 783.4450
812.1830, 789.5167
812.6651, 791.3022
813.1472, 780.5970
813.6293, 765.1678
814.1115, 762.0582
814.5936, 777.4436
815.0757, 787.9989
815.5578, 786.9713
816.0399, 782.0717
816.5220, 772.5118
817.0042, 764.3570
817.4863, 767.2156
817.9684, 781.2014
818.4505, 794.8265
818.9326, 802.2105
819.4147, 804.5736
819.8969, 798.7596
820.3790, 790.3267
820.8611, 792.0990
821.3432, 804.3259
821.8253, 816.9567
822.3074, 824.0344
822.7896, 829.2227
823.2717, 839.4240
823.7538, 854.2553
824.2359, 866.8072
824.7180, 876.6826
825.2001, 885.9313
825.6823, 895.0078
826.1644, 904.6935
826.6465, 915.8237
827.1286, 928.4324
827.6107, 942.7607
828.0928, 956.8021
828.5750, 976.1527
829.0571, 1014.019
829.5392, 1045.145
830.0213, 1047.750
830.5034, 1034.443
830.9855, 1034.067
831.4677, 1055.744
831.9498, 1071.290
832.4319, 1068.058
832.9140, 1060.335
833.3961, 1056.327
833.8782, 1054.130
834.3604, 1052.378
834.8425, 1049.406
835.3246, 1038.563
835.8067, 1010.461
836.2888, 979.6732
836.7709, 962.7721
837.2531, 956.2685
837.7352, 957.7300
838.2173, 963.6958
838.6994, 958.2177
839.1815, 932.0553
839.6636, 898.7327
840.1458, 878.0437
840.6279, 869.6896
841.1100, 871.0687
841.5921, 883.3700
842.0742, 893.2974
842.5563, 896.7930
843.0385, 895.6429
843.5206, 890.1565
844.0027, 881.5578
844.4848, 881.3032
844.9669, 897.3006
845.4490, 905.0317
845.9312, 893.9317
846.4133, 884.1594
846.8954, 890.1757
847.3775, 902.6090
847.8596, 904.5562
848.3417, 892.2550
848.8239, 885.7685
849.3060, 896.0260
849.7881, 904.4761
850.2702, 899.8041
850.7523, 891.1216
851.2344, 886.3256
851.7166, 887.3961
852.1987, 896.9864
852.6808, 921.1264
853.1629, 942.1193
853.6450, 941.1702
854.1271, 931.9631
854.6093, 931.8220
855.0914, 940.2414
855.5735, 951.8677
856.0556, 964.2919
856.5377, 973.6499
857.0198, 974.8760
857.5020, 970.7242
857.9841, 967.3284
858.4662, 964.9243
858.9483, 965.9042
859.4304, 970.7921
859.9125, 976.0034
860.3947, 979.4097
860.8768, 980.1476
861.3589, 973.8623
861.8410, 957.6122
862.3231, 955.6321
862.8052, 973.8212
863.2874, 989.9785
863.7695, 994.5516
864.2516, 995.2989
864.7337, 1002.231
865.2158, 1015.172
865.6979, 1021.893
866.1801, 1016.048
866.6622, 1013.206
867.1443, 1013.910
867.6264, 1018.400
868.1085, 1029.397
868.5906, 1043.410
869.0728, 1054.166
869.5549, 1060.546
870.0370, 1065.879
870.5191, 1068.411
871.0012, 1073.299
871.4833, 1087.236
871.9655, 1102.635
872.4476, 1108.424
872.9297, 1106.028
873.4118, 1107.177
873.8939, 1118.886
874.3760, 1131.468
874.8582, 1132.435
875.3403, 1131.893
875.8224, 1145.942
876.3045, 1171.142
876.7866, 1196.266
877.2687, 1216.964
877.7509, 1231.598
878.2330, 1234.937
878.7151, 1234.989
879.1972, 1251.328
879.6793, 1281.386
880.1614, 1312.375
880.6436, 1342.028
881.1257, 1370.086
881.6078, 1396.569
882.0899, 1421.100
882.5720, 1442.008
883.0541, 1459.114
883.5363, 1483.441
884.0184, 1516.446
884.5005, 1551.242
884.9826, 1587.601
885.4647, 1620.591
885.9468, 1643.594
886.4290, 1659.529
886.9111, 1683.599
887.3932, 1721.073
887.8753, 1755.836
888.3574, 1791.581
888.8395, 1819.187
889.3217, 1831.771
889.8038, 1835.597
890.2859, 1835.080
890.7680, 1830.190
891.2501, 1833.540
891.7322, 1861.138
892.2144, 1876.981
892.6965, 1862.571
893.1786, 1842.643
893.6607, 1838.116
894.1428, 1841.576
894.6249, 1833.662
895.1071, 1808.597
895.5892, 1783.611
896.0713, 1767.269
896.5534, 1752.712
897.0355, 1736.676
897.5176, 1718.490
897.9998, 1698.221
898.4819, 1675.247
898.9640, 1647.579
899.4461, 1613.557
899.9282, 1576.975
900.4103, 1537.337
900.8925, 1499.907
901.3746, 1474.307
901.8567, 1457.686
902.3388, 1441.777
902.8209, 1423.772
903.3030, 1403.193
903.7852, 1379.026
904.2673, 1353.076
904.7494, 1326.155
905.2315, 1300.452
905.7136, 1288.389
906.1957, 1289.771
906.6779, 1287.055
907.1600, 1271.582
907.6421, 1250.241
908.1242, 1230.924
908.6063, 1214.303
909.0884, 1208.174
909.5706, 1213.467
910.0527, 1211.113
910.5348, 1195.843
911.0169, 1180.299
911.4990, 1172.845
911.9811, 1172.089
912.4633, 1176.550
912.9454, 1189.407
913.4275, 1187.394
913.9096, 1163.626
914.3917, 1142.715
914.8738, 1131.505
915.3560, 1126.489
915.8381, 1125.101
916.3202, 1127.160
916.8023, 1131.600
917.2844, 1138.311
917.7665, 1147.676
918.2487, 1165.647
918.7308, 1179.009
919.2129, 1179.871
919.6950, 1175.662
920.1771, 1174.757
920.6592, 1177.195
921.1414, 1178.165
921.6235, 1172.842
922.1056, 1172.141
922.5877, 1179.373
923.0698, 1190.642
923.5519, 1208.245
924.0341, 1226.168
924.5162, 1231.712
924.9983, 1222.590
925.4804, 1222.093
925.9625, 1247.757
926.4446, 1272.653
926.9268, 1280.967
927.4089, 1283.959
927.8910, 1290.894
928.3731, 1302.782
928.8552, 1318.882
929.3373, 1339.148
929.8195, 1360.887
930.3016, 1383.408
930.7837, 1405.558
931.2658, 1423.715
931.7479, 1442.103
932.2300, 1471.290
932.7122, 1508.386
933.1943, 1534.943
933.6764, 1538.708
934.1585, 1544.864
934.6406, 1583.923
935.1227, 1637.178
935.6049, 1679.140
936.0870, 1710.642
936.5691, 1734.002
937.0512, 1752.007
937.5333, 1774.916
938.0154, 1810.649
938.4976, 1853.637
938.9797, 1897.935
939.4618, 1942.092
939.9439, 1982.113
940.4260, 2018.262
940.9081, 2050.833
941.3903, 2080.707
941.8724, 2121.343
942.3545, 2190.708
942.8366, 2271.442
943.3187, 2310.644
943.8008, 2317.964
944.2830, 2363.018
944.7651, 2451.373
945.2472, 2539.873
945.7293, 2609.224
946.2114, 2668.823
946.6935, 2727.761
947.1757, 2787.882
947.6578, 2859.886
948.1399, 2944.506
948.6220, 3019.927
949.1041, 3081.428
949.5862, 3147.124
950.0684, 3227.018
950.5505, 3315.179
951.0326, 3402.664
951.5147, 3489.913
951.9968, 3574.703
952.4789, 3654.893
952.9611, 3745.313
953.4432, 3850.106
953.9253, 3961.456
954.4074, 4075.955
954.8895, 4191.292
955.3716, 4302.525
955.8538, 4407.076
956.3359, 4525.739
956.8180, 4661.773
957.3001, 4802.174
957.7822, 4945.391
958.2643, 5089.317
958.7465, 5232.005
959.2286, 5374.385
959.7107, 5520.111
960.1928, 5671.163
960.6749, 5817.484
961.1570, 5954.141
961.6391, 6096.547
962.1212, 6258.553
962.6033, 6416.471
963.0854, 6549.238
963.5676, 6663.026
964.0497, 6777.931
964.5318, 6896.353
965.0139, 7011.208
965.4960, 7129.752
965.9781, 7235.556
966.4603, 7327.413
966.9424, 7402.045
967.4245, 7454.564
967.9066, 7487.099
968.3887, 7509.271
968.8708, 7524.666
969.3530, 7522.942
969.8351, 7506.930
970.3172, 7469.569
970.7993, 7403.686
971.2814, 7318.362
971.7635, 7218.729
972.2457, 7107.308
972.7278, 6994.723
973.2099, 6894.688
973.6920, 6769.273
974.1741, 6591.472
974.6563, 6412.358
975.1384, 6261.048
975.6205, 6118.405
976.1026, 5965.092
976.5847, 5799.657
977.0668, 5628.215
977.5490, 5436.070
978.0311, 5265.892
978.5132, 5151.757
978.9953, 5035.083
979.4774, 4873.110
979.9595, 4695.258
980.4417, 4539.298
980.9238, 4407.729
981.4059, 4279.997
981.8880, 4150.907
982.3701, 4024.851
982.8522, 3895.206
983.3344, 3775.750
983.8165, 3682.809
984.2986, 3601.912
984.7807, 3509.781
985.2628, 3406.114
985.7449, 3315.899
986.2271, 3257.165
986.7092, 3198.057
987.1913, 3118.911
987.6734, 3043.180
988.1555, 2994.903
988.6376, 2957.679
989.1198, 2901.735
989.6019, 2825.721
990.0840, 2761.996
990.5661, 2718.683
991.0482, 2695.276
991.5303, 2709.958
992.0125, 2726.518
992.4946, 2713.402
992.9767, 2685.211
993.4588, 2668.248
993.9409, 2665.554
994.4230, 2660.093
994.9052, 2634.374
995.3873, 2621.103
995.8694, 2649.622
996.3515, 2682.547
996.8336, 2692.436
997.3157, 2684.981
997.7979, 2669.338
998.2800, 2648.785
998.7621, 2633.029
999.2442, 2634.378
999.7263, 2628.163
1000.208, 2601.346
1000.691, 2563.511
1001.173, 2518.571
1001.655, 2469.801
1002.137, 2421.591
1002.619, 2374.354
1003.101, 2325.233
1003.583, 2272.506
1004.065, 2218.199
1004.547, 2166.854
1005.030, 2111.356
1005.512, 2041.646
1005.994, 1966.435
1006.476, 1897.192
1006.958, 1836.877
1007.440, 1787.338
1007.922, 1757.339
1008.404, 1725.041
1008.887, 1674.846
1009.369, 1623.925
1009.851, 1585.883
1010.333, 1555.567
1010.815, 1524.193
1011.297, 1490.752
1011.779, 1459.947
1012.261, 1433.302
1012.743, 1409.841
1013.226, 1392.010
1013.708, 1374.401
1014.190, 1354.149
1014.672, 1331.271
1015.154, 1303.268
1015.636, 1272.034
1016.118, 1248.077
1016.600, 1237.796
1017.083, 1229.634
1017.565, 1219.817
1018.047, 1210.033
1018.529, 1204.006
1019.011, 1196.904
1019.493, 1181.018
1019.975, 1157.459
1020.457, 1136.231
1020.939, 1122.577
1021.422, 1105.345
1021.904, 1073.040
1022.386, 1045.247
1022.868, 1036.966
1023.350, 1036.153
1023.832, 1030.017
1024.314, 1017.952
1024.796, 1003.278
1025.279, 983.1219
1025.761, 969.8690
1026.243, 972.3276
1026.725, 975.5325
1027.207, 976.8931
1027.689, 972.3611
1028.171, 953.6366
1028.653, 925.6358
1029.135, 906.3556
1029.618, 901.4109
1030.100, 895.9166
1030.582, 888.3936
1031.064, 878.5873
1031.546, 861.4988
1032.028, 846.3807
1032.510, 844.5671
1032.992, 850.6569
1033.474, 848.3311
1033.957, 833.4281
1034.439, 821.1701
1034.921, 815.3260
1035.403, 808.7487
1035.885, 796.8570
1036.367, 786.3327
1036.849, 781.9775
1037.331, 782.4676
1037.814, 785.4051
1038.296, 791.5648
1038.778, 796.0353
1039.260, 800.3751
1039.742, 800.5732
1040.224, 795.3451
1040.706, 786.5208
1041.188, 771.9883
1041.671, 756.5574
1042.153, 748.5995
1042.635, 748.5295
1043.117, 750.4861
1043.599, 759.5757
1044.081, 758.9202
1044.563, 740.1890
1045.045, 723.0712
1045.527, 717.3000
1046.010, 718.4039
1046.492, 721.8613
1046.974, 727.0663
1047.456, 723.5521
1047.938, 705.8246
1048.420, 699.6029
1048.902, 711.0281
1049.384, 721.8591
1049.866, 725.1650
1050.349, 723.1766
1050.831, 717.7159
1051.313, 709.4996
1051.795, 701.3215
1052.277, 692.7605
1052.759, 688.2698
1053.241, 688.8372
1053.723, 687.6733
1054.205, 681.8612
1054.688, 677.5708
1055.170, 680.3612
1055.652, 688.1144
1056.134, 696.2623
1056.616, 704.7328
1057.098, 713.1442
1057.580, 721.4023
1058.062, 714.4340
1058.545, 688.4077
1059.027, 662.7170
1059.509, 650.3871
1059.991, 647.5187
1060.473, 649.5695
1060.955, 655.2710
1061.437, 658.7357
1061.919, 660.5174
1062.401, 664.1512
1062.884, 669.9319
1063.366, 675.5403
1063.848, 679.8333
1064.330, 680.5538
1064.812, 672.6658
1065.294, 661.4554
1065.776, 656.9391
1066.258, 658.0567
1066.740, 663.2642
1067.223, 671.5690
1067.705, 682.2531
1068.187, 694.3973
1068.669, 701.8013
1069.151, 697.9335
1069.633, 689.3196
1070.115, 683.4227
1070.597, 677.8537
1071.080, 665.1112
1071.562, 650.9760
1072.044, 652.5676
1072.526, 669.9681
1073.008, 679.3442
1073.490, 664.7597
1073.972, 647.8016
1074.454, 639.7821
1074.937, 640.8074
1075.419, 659.0541
1075.901, 681.4953
1076.383, 692.0117
1076.865, 689.2667
1077.347, 676.1602
1077.829, 649.0325
1078.311, 633.3483
1078.793, 649.7504
1079.276, 667.6761
1079.758, 672.3693
1080.240, 671.0995
1080.722, 670.1060
1081.204, 669.1378
1081.686, 666.1755
1082.168, 660.7985
1082.650, 654.8116
1083.132, 643.3062
1083.615, 638.7274
1084.097, 651.1709
1084.579, 662.9455
1085.061, 663.8204
1085.543, 658.1280
1086.025, 650.0098
1086.507, 639.8642
1086.989, 636.7228
1087.472, 645.2169
1087.954, 650.1904
1088.436, 648.3906
1088.918, 648.5749
1089.400, 654.1164
1089.882, 662.7630
1090.364, 673.8584
1090.846, 685.0999
1091.328, 688.2148
1091.811, 682.1928
1092.293, 674.3261
1092.775, 663.3741
1093.257, 660.9067
1093.739, 670.8712
1094.221, 679.9816
1094.703, 679.4111
1095.185, 673.5229
1095.667, 668.1862
1096.150, 664.1834
1096.632, 667.8060
1097.114, 677.3595
1097.596, 680.3477
1098.078, 675.6600
1098.560, 668.6752
1099.042, 661.7796
1099.524, 657.4850
1100.007, 659.3907
1100.489, 663.0138
1100.971, 658.7219
1101.453, 651.7068
1101.935, 653.7863
1102.417, 662.4180
1102.899, 669.1151
1103.381, 671.8035
1103.864, 671.7628
1104.346, 668.4221
1104.828, 668.1317
1105.310, 682.2950
1105.792, 695.8013
1106.274, 692.6165
1106.756, 681.0192
1107.238, 668.9299
1107.720, 659.9210
1108.203, 661.0430
1108.685, 675.2958
1109.167, 684.6867
1109.649, 675.8550
1110.131, 669.6168
1110.613, 680.1262
1111.095, 690.0590
1111.577, 683.0757
1112.059, 669.3909
1112.542, 666.6400
1113.024, 675.3378
1113.506, 679.0306
1113.988, 670.7206
1114.470, 667.6885
1114.952, 675.8391
1115.434, 679.7443
1115.916, 670.0126
1116.399, 660.8114
1116.881, 665.8959
1117.363, 679.8532
1117.845, 687.9628
1118.327, 690.2231
1118.809, 684.9080
1119.291, 669.9693
1119.773, 662.6617
1120.255, 667.4597
1120.738, 669.4813
1121.220, 659.8881
1121.702, 649.0812
1122.184, 651.8832
1122.666, 662.9216
1123.148, 663.6216
1123.630, 656.7432
1124.112, 656.1174
1124.594, 661.2439
1125.077, 662.4337
1125.559, 657.1105
1126.041, 649.7559
1126.523, 642.5978
1127.005, 638.7332
1127.487, 644.7298
1127.969, 653.7358
1128.451, 656.0940
1128.934, 654.9846
1129.416, 657.7115
1129.898, 662.7788
1130.380, 662.4502
1130.862, 654.1316
1131.344, 642.9010
1131.826, 625.8484
1132.308, 613.8789
1132.791, 615.5826
1133.273, 621.1074
1133.755, 623.5399
1134.237, 624.5087
1134.719, 627.5579
1135.201, 632.5994
1135.683, 635.9368
1136.165, 634.7365
1136.647, 636.8314
1137.130, 649.6353
1137.612, 653.7711
1138.094, 638.7684
1138.576, 621.5897
1139.058, 614.4147
1139.540, 613.8215
1140.022, 612.1886
1140.504, 609.5668
1140.986, 618.6065
1141.469, 641.6620
1141.951, 648.2959
1142.433, 633.4265
1142.915, 625.7399
1143.397, 637.8422
1143.879, 650.6701
1144.361, 644.5491
1144.843, 630.1713
1145.326, 630.4271
1145.808, 639.4647
1146.290, 642.6514
1146.772, 639.7596
1147.254, 629.3479
1147.736, 614.2318
1148.218, 607.3094
1148.700, 614.8764
1149.182, 624.8436
1149.665, 627.5809
1150.147, 628.7977
1150.629, 632.9131
1151.111, 638.3065
1151.593, 646.1445
1152.075, 652.5839
1152.557, 648.1251
1153.039, 633.6820
1153.521, 628.4894
1154.004, 646.2908
1154.486, 655.0930
1154.968, 639.1198
1155.450, 626.4590
1155.932, 634.0342
1156.414, 640.9658
1156.896, 626.9049
1157.378, 605.3026
1157.861, 606.3940
1158.343, 631.2460
1158.825, 640.5084
1159.307, 631.3200
1159.789, 622.1216
1160.271, 614.5505
1160.753, 610.5414
1161.235, 610.9230
1161.718, 614.6292
1162.200, 621.4688
1162.682, 628.2646
1163.164, 626.2200
1163.646, 619.6505
1164.128, 624.3466
1164.610, 635.7086
1165.092, 637.3978
1165.574, 628.9233
1166.057, 618.8176
1166.539, 610.8814
1167.021, 612.0860
1167.503, 639.7259
1167.985, 662.1451
1168.467, 648.4907
1168.949, 625.2064
1169.431, 613.4920
1169.913, 610.2246
1170.396, 610.0696
1170.878, 611.4374
1171.360, 610.7217
1171.842, 604.0714
1172.324, 605.2969
1172.806, 629.8260
1173.288, 640.9606
1173.770, 620.8976
1174.253, 602.8911
1174.735, 607.4985
1175.217, 621.4266
1175.699, 626.6508
1176.181, 624.3381
1176.663, 620.7672
1177.145, 615.8071
1177.627, 615.4406
1178.109, 619.7534
1178.592, 615.2950
1179.074, 599.3902
1179.556, 591.0301
1180.038, 602.3073
1180.520, 621.7401
1181.002, 641.4264
1181.484, 654.5100
1181.966, 643.2429
1182.448, 621.7903
1182.931, 613.9267
1183.413, 616.2035
1183.895, 615.1486
1184.377, 608.4844
1184.859, 602.9005
1185.341, 600.8767
1185.823, 600.8903
1186.305, 606.6790
1186.788, 608.7718
1187.270, 594.6782
1187.752, 582.9633
1188.234, 594.7042
1188.716, 616.4731
1189.198, 622.9442
1189.680, 614.6099
1190.162, 612.4031
1190.645, 618.4961
1191.127, 622.3182
1191.609, 623.7188
1192.091, 618.2656
1192.573, 603.3942
1193.055, 594.5518
1193.537, 603.8519
1194.019, 619.9069
1194.501, 625.7352
1194.984, 623.6147
1195.466, 616.0950
1195.948, 606.7160
1196.430, 604.2363
1196.912, 608.1465
1197.394, 614.7747
1197.876, 622.5552
1198.358, 630.2394
1198.840, 639.1245
1199.323, 641.5112
1199.805, 623.4481
1200.287, 609.5502
1200.769, 620.6720
1201.251, 636.1920
1201.733, 637.0100
1202.215, 628.2709
1202.697, 620.7445
1203.180, 614.7896
1203.662, 615.0377
1204.144, 625.7881
1204.626, 628.7551
1205.108, 620.4154
1205.590, 616.5478
1206.072, 622.8660
1206.554, 626.5294
1207.036, 617.8419
1207.519, 606.7150
1208.001, 609.7230
1208.483, 620.7997
1208.965, 622.6539
1209.447, 619.1249
1209.929, 619.9779
1210.411, 624.6109
1210.893, 628.9264
1211.375, 631.6051
1211.858, 631.7119
1212.340, 627.8381
1212.822, 625.9709
1213.304, 633.4517
1213.786, 638.6575
1214.268, 629.8369
1214.750, 622.0027
1215.232, 634.3542
1215.714, 651.2207
1216.197, 641.2004
1216.679, 609.8716
1217.161, 603.9603
1217.643, 634.2391
1218.125, 649.0442
1218.607, 645.8616
1219.089, 637.4622
1219.571, 625.6614
1220.054, 621.2889
1220.536, 630.6008
1221.018, 644.6576
1221.500, 655.0382
1221.982, 660.0079
1222.464, 652.7482
1222.946, 639.9173
1223.428, 633.0193
1223.911, 631.0137
1224.393, 630.2319
1224.875, 630.1660
1225.357, 632.1922
1225.839, 636.9193
1226.321, 641.0557
1226.803, 644.4894
1227.285, 645.3981
1227.767, 639.5086
1228.250, 635.6135
1228.732, 640.9645
1229.214, 647.1432
1229.696, 646.5068
1230.178, 640.9153
1230.660, 634.8357
1231.142, 628.2598
1231.624, 622.8589
1232.106, 618.6570
1232.589, 616.8230
1233.071, 617.7665
1233.553, 627.1888
1234.035, 645.7408
1234.517, 656.3436
1234.999, 644.7901
1235.481, 631.9253
1235.963, 644.4214
1236.446, 661.9597
1236.928, 662.8500
1237.410, 657.4033
1237.892, 658.1506
1238.374, 662.4836
1238.856, 661.4478
1239.338, 654.9966
1239.820, 655.8334
1240.302, 672.0148
1240.785, 682.0631
##END=



