##NAMES=Behoite
##RRUFFID=R060659
##IDEAL CHEMISTRY=Be(OH)_2_
##LOCALITY=Mont St. Hilaire, Quebec, Canada
##OWNER=RRUFF
##SOURCE=Michael Scott
##DESCRIPTION=Tan colored reticulated groups
##STATUS=The identification of this mineral has been confirmed by single-crystal X-ray diffraction.
##URL=rruff.info/R060659
98.12226, 228.0156
98.60438, 226.8591
99.08649, 226.1719
99.56861, 225.9121
100.0507, 226.0165
100.5328, 226.2613
101.0150, 226.2135
101.4971, 225.4023
101.9792, 223.7970
102.4613, 222.5030
102.9434, 222.1053
103.4255, 222.0653
103.9077, 222.0186
104.3898, 221.8313
104.8719, 221.6473
105.3540, 221.8054
105.8361, 222.6023
106.3182, 223.1970
106.8004, 223.2283
107.2825, 223.0203
107.7646, 222.9445
108.2467, 223.2304
108.7288, 223.8393
109.2109, 224.3295
109.6931, 224.3471
110.1752, 224.5894
110.6573, 225.3819
111.1394, 226.5856
111.6215, 227.8121
112.1037, 228.7055
112.5858, 229.2049
113.0679, 229.8202
113.5500, 230.5153
114.0321, 231.3265
114.5142, 232.3814
114.9964, 233.6977
115.4785, 234.9633
115.9606, 235.7068
116.4427, 235.9593
116.9248, 236.3259
117.4069, 237.0532
117.8891, 237.9796
118.3712, 238.8182
118.8533, 239.5937
119.3354, 240.1019
119.8175, 240.0038
120.2996, 239.3644
120.7818, 238.9231
121.2639, 239.3827
121.7460, 240.7832
122.2281, 241.9533
122.7102, 242.3287
123.1923, 242.6492
123.6745, 243.3924
124.1566, 244.6144
124.6387, 245.8939
125.1208, 246.6050
125.6029, 246.4695
126.0850, 246.3067
126.5672, 246.0937
127.0493, 245.9354
127.5314, 245.9223
128.0135, 246.0894
128.4956, 246.3994
128.9778, 246.7541
129.4599, 246.9913
129.9420, 247.4716
130.4241, 248.3842
130.9062, 249.5355
131.3883, 250.6994
131.8705, 251.7961
132.3526, 252.7581
132.8347, 253.2137
133.3168, 253.0102
133.7989, 252.5966
134.2810, 252.3235
134.7632, 252.0861
135.2453, 251.3266
135.7274, 249.5544
136.2095, 246.9231
136.6916, 244.2713
137.1737, 241.5291
137.6559, 238.8375
138.1380, 236.2807
138.6201, 233.8333
139.1022, 231.6279
139.5843, 229.8660
140.0664, 228.3635
140.5486, 226.9128
141.0307, 225.3923
141.5128, 223.8631
141.9949, 222.5069
142.4770, 221.2432
142.9591, 220.3178
143.4413, 219.5842
143.9234, 219.8082
144.4055, 219.8348
144.8876, 219.6748
145.3697, 218.7564
145.8518, 218.8275
146.3340, 218.5081
146.8161, 218.1770
147.2982, 218.3998
147.7803, 217.6143
148.2624, 217.8372
148.7445, 217.6637
149.2267, 217.6780
149.7088, 217.2995
150.1909, 217.0481
150.6730, 217.1984
151.1551, 217.1331
151.6372, 216.7264
152.1194, 216.7787
152.6015, 216.0232
153.0836, 215.9848
153.5657, 216.2583
154.0478, 215.8935
154.5300, 215.9750
155.0121, 215.8926
155.4942, 215.0498
155.9763, 215.5415
156.4584, 215.4623
156.9405, 214.7969
157.4227, 215.2561
157.9048, 214.6809
158.3869, 214.4809
158.8690, 214.5643
159.3511, 214.3612
159.8332, 214.6212
160.3154, 214.4436
160.7975, 214.2310
161.2796, 214.1951
161.7617, 213.6754
162.2438, 214.0657
162.7259, 213.8418
163.2081, 213.9297
163.6902, 214.0918
164.1723, 213.7245
164.6544, 213.9267
165.1365, 213.2570
165.6186, 213.3249
166.1008, 213.3182
166.5829, 213.7845
167.0650, 213.1367
167.5471, 213.2017
168.0292, 213.5728
168.5113, 213.5262
168.9935, 213.6605
169.4756, 213.2767
169.9577, 213.3881
170.4398, 213.3686
170.9219, 213.8210
171.4040, 213.9087
171.8862, 213.5556
172.3683, 213.2089
172.8504, 213.7125
173.3325, 213.4187
173.8146, 213.5618
174.2967, 213.2626
174.7789, 213.3535
175.2610, 213.4426
175.7431, 214.0335
176.2252, 213.9428
176.7073, 213.8359
177.1894, 214.2786
177.6716, 213.7086
178.1537, 214.1426
178.6358, 214.1758
179.1179, 214.3924
179.6000, 214.2119
180.0822, 214.1540
180.5643, 214.4935
181.0464, 214.6129
181.5285, 214.3866
182.0106, 214.6149
182.4927, 214.0310
182.9749, 214.1599
183.4570, 214.5962
183.9391, 214.3899
184.4212, 214.6254
184.9033, 214.6927
185.3854, 213.9952
185.8676, 214.6277
186.3497, 214.6850
186.8318, 214.1517
187.3139, 214.7387
187.7960, 214.2868
188.2781, 214.2058
188.7603, 214.4038
189.2424, 214.3109
189.7245, 214.6766
190.2066, 214.6005
190.6887, 214.4849
191.1708, 214.5415
191.6530, 214.1101
192.1351, 214.5842
192.6172, 214.4398
193.0993, 214.6028
193.5814, 214.8356
194.0635, 214.5346
194.5457, 214.7987
195.0278, 214.1865
195.5099, 214.3075
195.9920, 214.3496
196.4741, 214.8602
196.9562, 214.2523
197.4384, 214.3530
197.9205, 214.7553
198.4026, 214.7355
198.8847, 214.8922
199.3668, 214.5264
199.8489, 214.6514
200.3311, 214.6412
200.8132, 214.7902
201.2953, 215.1287
201.7774, 215.3818
202.2595, 215.4780
202.7417, 215.5622
203.2238, 215.5757
203.7059, 215.6010
204.1880, 215.7768
204.6701, 216.1878
205.1522, 216.7616
205.6344, 217.1698
206.1165, 217.2402
206.5986, 217.3660
207.0807, 217.6745
207.5628, 218.0937
208.0449, 218.5150
208.5271, 218.9065
209.0092, 219.2230
209.4913, 219.2621
209.9734, 218.8590
210.4555, 218.4436
210.9376, 218.2303
211.4198, 218.1340
211.9019, 217.8900
212.3840, 217.3119
212.8661, 216.5504
213.3482, 216.0281
213.8303, 215.8177
214.3125, 215.7050
214.7946, 215.6125
215.2767, 215.5342
215.7588, 215.4238
216.2409, 215.1972
216.7230, 214.9815
217.2052, 214.9908
217.6873, 215.3058
218.1694, 215.6802
218.6515, 216.0778
219.1336, 216.4839
219.6157, 216.5677
220.0979, 216.7991
220.5800, 216.8286
221.0621, 216.6673
221.5442, 215.7430
222.0263, 215.8038
222.5084, 215.4699
222.9906, 215.1198
223.4727, 214.3619
223.9548, 214.1155
224.4369, 213.9482
224.9190, 213.7689
225.4011, 213.5565
225.8833, 213.3918
226.3654, 213.4099
226.8475, 213.6668
227.3296, 213.8320
227.8117, 213.7584
228.2939, 213.6190
228.7760, 213.5130
229.2581, 213.4608
229.7402, 213.4214
230.2223, 213.3458
230.7044, 213.2352
231.1866, 213.0806
231.6687, 212.7195
232.1508, 212.4295
232.6329, 212.4858
233.1150, 212.8979
233.5971, 213.3481
234.0793, 213.3303
234.5614, 212.5134
235.0435, 212.0574
235.5256, 212.2975
236.0077, 212.6245
236.4898, 212.2460
236.9720, 212.7007
237.4541, 212.9535
237.9362, 213.0154
238.4183, 212.3144
238.9004, 212.5985
239.3825, 212.4878
239.8647, 212.3609
240.3468, 212.7837
240.8289, 212.1937
241.3110, 212.6077
241.7931, 212.6209
242.2752, 212.8176
242.7574, 212.6170
243.2395, 212.5392
243.7216, 212.8586
244.2037, 212.9581
244.6858, 212.7118
245.1679, 212.9202
245.6501, 212.3163
246.1322, 212.4251
246.6143, 212.8414
247.0964, 212.6151
247.5785, 212.8307
248.0606, 212.8780
248.5428, 212.1605
249.0249, 212.7731
249.5070, 212.8104
249.9891, 212.2571
250.4712, 212.8241
250.9533, 212.3522
251.4355, 212.2512
251.9176, 212.4292
252.3997, 212.3163
252.8818, 212.6620
253.3639, 212.5659
253.8461, 212.4304
254.3282, 212.4671
254.8103, 212.0156
255.2924, 212.4698
255.7745, 212.3053
256.2566, 212.4484
256.7387, 212.6611
257.2209, 212.3402
257.7030, 212.5018
258.1851, 212.6329
258.6672, 212.7061
259.1493, 212.7580
259.6314, 212.7935
260.1136, 212.8179
260.5957, 212.8872
261.0778, 213.0857
261.5599, 213.3325
262.0420, 213.3904
262.5241, 213.0367
263.0063, 212.7536
263.4884, 212.9934
263.9705, 213.6897
264.4526, 214.2486
264.9348, 214.3185
265.4169, 214.1208
265.8990, 214.1334
266.3811, 214.4865
266.8632, 214.7826
267.3453, 214.6389
267.8275, 214.1222
268.3096, 213.7379
268.7917, 213.6224
269.2738, 213.7968
269.7559, 214.2882
270.2380, 215.1600
270.7202, 216.0114
271.2023, 216.5673
271.6844, 216.8563
272.1665, 217.0759
272.6486, 217.2889
273.1307, 217.4193
273.6129, 217.3809
274.0950, 217.1756
274.5771, 216.9712
275.0592, 216.8750
275.5413, 216.8738
276.0234, 216.8960
276.5056, 216.9511
276.9877, 217.0003
277.4698, 217.0646
277.9519, 217.1201
278.4340, 217.0498
278.9161, 216.7611
279.3983, 216.2820
279.8804, 215.6920
280.3625, 214.8349
280.8446, 214.1342
281.3267, 213.9059
281.8088, 213.6238
282.2910, 213.4467
282.7731, 213.1101
283.2552, 212.6246
283.7373, 211.4290
284.2194, 211.2385
284.7015, 210.6990
285.1837, 210.1821
285.6658, 210.2429
286.1479, 209.3485
286.6300, 209.4777
287.1121, 209.2521
287.5942, 209.2449
288.0764, 208.5169
288.5585, 208.7743
289.0406, 208.8423
289.5227, 208.7314
290.0048, 207.8806
290.4869, 208.0049
290.9691, 207.7503
291.4512, 207.4884
291.9333, 207.7744
292.4154, 207.0751
292.8975, 207.3696
293.3796, 207.2793
293.8618, 207.3776
294.3439, 207.0947
294.8260, 206.9407
295.3081, 207.1851
295.7902, 207.2222
296.2723, 206.9285
296.7545, 207.0895
297.2366, 206.4621
297.7187, 206.5425
298.2008, 206.9333
298.6829, 206.7020
299.1650, 206.9128
299.6472, 206.9670
300.1293, 206.2793
300.6114, 206.9053
301.0935, 206.9754
301.5756, 206.4745
302.0577, 207.0815
302.5399, 206.6776
303.0220, 206.6460
303.5041, 206.8969
303.9862, 206.8708
304.4683, 207.3034
304.9504, 207.3109
305.4326, 207.2882
305.9147, 207.7011
306.3968, 207.8544
306.8789, 207.5424
307.3610, 207.8645
307.8431, 207.0805
308.3253, 207.2852
308.8074, 207.9219
309.2895, 207.6855
309.7716, 208.0657
310.2537, 208.2244
310.7358, 207.3420
311.2180, 208.2965
311.7001, 208.4704
312.1822, 207.8426
312.6643, 208.7633
313.1465, 208.2666
313.6286, 208.2889
314.1107, 208.7042
314.5928, 208.7295
315.0749, 209.3945
315.5570, 209.4621
316.0392, 209.4852
316.5213, 209.7545
317.0034, 209.3628
317.4855, 210.2250
317.9676, 210.2468
318.4497, 210.7008
318.9319, 211.2602
319.4140, 211.0960
319.8961, 211.7176
320.3782, 211.1451
320.8603, 211.5895
321.3424, 211.9351
321.8246, 212.9341
322.3067, 213.2799
322.7888, 213.7346
323.2709, 213.8436
323.7530, 214.7308
324.2351, 215.6361
324.7173, 216.2562
325.1994, 217.0529
325.6815, 218.1935
326.1636, 219.5719
326.6457, 221.0390
327.1278, 222.5039
327.6100, 224.0424
328.0921, 225.9048
328.5742, 228.3245
329.0563, 230.5657
329.5384, 232.5314
330.0205, 234.2330
330.5027, 235.6402
330.9848, 236.7517
331.4669, 237.6564
331.9490, 238.5209
332.4311, 239.4152
332.9132, 239.9617
333.3954, 239.6937
333.8775, 239.3586
334.3596, 239.3329
334.8417, 239.6479
335.3238, 240.1429
335.8059, 240.6314
336.2881, 241.1098
336.7702, 241.8902
337.2523, 243.1539
337.7344, 244.5522
338.2165, 246.0431
338.6986, 247.5400
339.1808, 248.8807
339.6629, 249.9415
340.1450, 250.7741
340.6271, 251.5279
341.1092, 252.0120
341.5913, 252.7999
342.0735, 254.2697
342.5556, 256.0703
343.0377, 257.7504
343.5198, 259.0908
344.0019, 260.4068
344.4840, 262.2646
344.9662, 264.8207
345.4483, 267.2814
345.9304, 269.5552
346.4125, 271.5522
346.8946, 273.4539
347.3767, 275.2878
347.8589, 276.0866
348.3410, 274.8206
348.8231, 271.5140
349.3052, 267.3241
349.7873, 262.1992
350.2694, 256.3269
350.7516, 249.4819
351.2337, 241.9405
351.7158, 234.9415
352.1979, 229.0759
352.6800, 224.2781
353.1621, 220.4292
353.6443, 217.6498
354.1264, 215.5759
354.6085, 214.2007
355.0906, 213.3079
355.5727, 212.6412
356.0548, 212.1969
356.5370, 211.8462
357.0191, 210.7865
357.5012, 211.1790
357.9833, 211.3697
358.4654, 211.3695
358.9475, 210.6064
359.4297, 210.8283
359.9118, 210.6555
360.3939, 210.4666
360.8760, 210.8271
361.3581, 210.1750
361.8402, 210.5269
362.3224, 210.4780
362.8045, 210.6125
363.2866, 210.3498
363.7687, 210.2098
364.2509, 210.4672
364.7330, 210.5045
365.2151, 210.1961
365.6972, 210.3423
366.1793, 210.6138
366.6614, 211.2490
367.1436, 211.7449
367.6257, 212.1129
368.1078, 212.3836
368.5899, 212.3200
369.0720, 212.3635
369.5541, 212.8186
370.0363, 213.6806
370.5184, 215.0187
371.0005, 217.1523
371.4826, 219.5169
371.9647, 220.7786
372.4468, 220.4796
372.9290, 220.3632
373.4111, 221.1168
373.8932, 222.5050
374.3753, 224.1399
374.8574, 225.9374
375.3395, 227.8454
375.8217, 229.7947
376.3038, 231.7814
376.7859, 233.8191
377.2680, 235.7401
377.7501, 237.8295
378.2322, 240.4331
378.7144, 243.5177
379.1965, 246.6813
379.6786, 249.6822
380.1607, 252.5027
380.6428, 255.1115
381.1249, 257.2617
381.6071, 259.4824
382.0892, 261.9456
382.5713, 264.6240
383.0534, 267.4935
383.5355, 270.5758
384.0176, 273.7266
384.4998, 276.6591
384.9819, 279.2231
385.4640, 281.8107
385.9461, 284.5136
386.4282, 287.1859
386.9103, 289.6446
387.3925, 291.8795
387.8746, 294.0853
388.3567, 296.4420
388.8388, 298.9710
389.3209, 301.4990
389.8030, 303.9392
390.2852, 306.4825
390.7673, 309.2924
391.2494, 312.2575
391.7315, 315.1439
392.2136, 317.8017
392.6957, 320.3140
393.1779, 322.9804
393.6600, 326.2701
394.1421, 329.0132
394.6242, 330.8122
395.1063, 332.2407
395.5884, 333.9261
396.0706, 335.9756
396.5527, 337.8071
397.0348, 338.6380
397.5169, 338.2963
397.9990, 337.6113
398.4811, 336.8336
398.9633, 335.4632
399.4454, 333.2664
399.9275, 330.2900
400.4096, 326.6412
400.8917, 322.3232
401.3738, 317.4445
401.8560, 312.4680
402.3381, 307.4436
402.8202, 302.2274
403.3023, 296.7060
403.7844, 291.0095
404.2665, 285.1553
404.7487, 279.1231
405.2308, 273.2461
405.7129, 267.8669
406.1950, 262.9394
406.6771, 258.8114
407.1592, 256.2435
407.6414, 253.8226
408.1235, 250.4070
408.6056, 246.1542
409.0877, 242.0309
409.5698, 238.6154
410.0519, 235.7326
410.5341, 232.8916
411.0162, 230.0019
411.4983, 227.5066
411.9804, 226.0408
412.4626, 225.0780
412.9447, 223.7268
413.4268, 221.5893
413.9089, 219.4720
414.3910, 218.0558
414.8731, 217.2394
415.3553, 216.5588
415.8374, 215.9038
416.3195, 215.2626
416.8016, 214.6048
417.2837, 213.9246
417.7658, 213.2960
418.2480, 212.8513
418.7301, 212.4101
419.2122, 211.6859
419.6943, 210.6660
420.1764, 209.4192
420.6585, 209.8086
421.1407, 209.9963
421.6228, 209.9930
422.1049, 209.2269
422.5870, 209.4459
423.0691, 209.2701
423.5512, 209.0781
424.0334, 209.4356
424.5155, 208.7805
424.9976, 209.1294
425.4797, 209.0775
425.9618, 209.2090
426.4439, 208.9433
426.9261, 208.8003
427.4082, 209.0546
427.8903, 209.0889
428.3724, 208.7775
428.8545, 208.9207
429.3366, 208.2517
429.8188, 208.2953
430.3009, 208.6465
430.7830, 208.3551
431.2651, 208.5056
431.7472, 208.4877
432.2293, 207.7050
432.7115, 208.2525
433.1936, 208.2247
433.6757, 208.3170
434.1578, 208.9525
434.6399, 209.7410
435.1220, 210.2980
435.6042, 210.2858
436.0863, 210.2857
436.5684, 210.6074
437.0505, 211.1946
437.5326, 211.7966
438.0147, 212.2361
438.4969, 212.5578
438.9790, 212.9178
439.4611, 213.3159
439.9432, 213.7525
440.4253, 214.2637
440.9074, 214.8017
441.3896, 215.3275
441.8717, 215.8421
442.3538, 216.3098
442.8359, 216.7416
443.3180, 217.1189
443.8001, 217.2893
444.2823, 217.1867
444.7644, 216.9414
445.2465, 216.7645
445.7286, 216.5991
446.2107, 216.0902
446.6928, 214.8997
447.1750, 213.4844
447.6571, 212.3616
448.1392, 211.5016
448.6213, 210.4564
449.1034, 208.8751
449.5855, 207.0620
450.0677, 205.9082
450.5498, 205.6597
451.0319, 205.4067
451.5140, 204.7737
451.9961, 204.0810
452.4782, 203.7134
452.9604, 203.7431
453.4425, 204.0482
453.9246, 204.5529
454.4067, 205.2986
454.8888, 205.7905
455.3709, 206.0182
455.8531, 206.0551
456.3352, 205.8162
456.8173, 205.4279
457.2994, 205.0585
457.7815, 204.7863
458.2636, 204.6299
458.7458, 204.7122
459.2279, 205.5315
459.7100, 205.5050
460.1921, 204.0507
460.6742, 202.3106
461.1564, 200.8858
461.6385, 199.7903
462.1206, 198.7732
462.6027, 197.6457
463.0848, 196.4326
463.5670, 195.2432
464.0491, 194.0122
464.5312, 192.9546
465.0133, 192.2840
465.4954, 191.7404
465.9775, 191.0497
466.4597, 190.1369
466.9418, 189.1847
467.4239, 188.2428
467.9060, 187.3596
468.3881, 186.9203
468.8702, 187.1802
469.3524, 187.5011
469.8345, 187.2568
470.3166, 186.6298
470.7987, 186.1353
471.2808, 186.0173
471.7629, 185.9972
472.2451, 185.8093
472.7272, 185.4921
473.2093, 185.2455
473.6914, 185.1676
474.1735, 185.1798
474.6556, 185.1404
475.1378, 185.0608
475.6199, 184.5371
476.1020, 184.9186
476.5841, 185.0983
477.0662, 185.0870
477.5483, 184.3130
478.0305, 184.5239
478.5126, 184.3401
478.9947, 184.1402
479.4768, 184.4898
479.9589, 183.8267
480.4410, 184.1676
480.9232, 184.1077
481.4053, 184.2312
481.8874, 183.9576
482.3695, 183.8066
482.8516, 184.0529
483.3337, 184.0793
483.8159, 183.7599
484.2980, 183.8951
484.7801, 183.2181
485.2622, 183.2538
485.7443, 183.5971
486.2264, 183.2977
486.7086, 183.4401
487.1907, 183.4143
487.6728, 182.6237
488.1549, 183.1631
488.6370, 183.1273
489.1191, 182.5009
489.6013, 182.9948
490.0834, 182.4498
490.5655, 182.2757
491.0476, 182.3806
491.5297, 182.3400
492.0118, 181.9890
492.4940, 181.5438
492.9761, 181.3249
493.4582, 181.3269
493.9403, 180.9033
494.4224, 181.2774
494.9045, 181.4497
495.3867, 181.4310
495.8688, 180.6496
496.3509, 180.8531
496.8330, 180.6619
497.3151, 180.4546
497.7972, 180.7968
498.2794, 180.1262
498.7615, 180.4597
499.2436, 180.3924
499.7257, 180.5086
500.2078, 180.2275
500.6899, 180.0691
501.1721, 180.3081
501.6542, 180.3270
502.1363, 180.0002
502.6184, 180.1280
503.1005, 179.4436
503.5826, 179.4720
504.0648, 179.8078
504.5469, 179.5009
505.0290, 179.6360
505.5111, 179.6028
505.9932, 178.8047
506.4753, 179.3368
506.9575, 179.2936
507.4396, 178.6598
507.9217, 179.1463
508.4038, 178.5939
508.8859, 178.4123
509.3680, 178.5098
509.8502, 178.3164
510.3323, 178.5816
510.8144, 178.2857
511.2965, 178.0613
511.7787, 178.4838
512.2607, 178.7045
512.7429, 178.7342
513.2250, 178.0011
513.7071, 178.2530
514.1892, 178.1102
514.6713, 177.9512
515.1534, 178.3418
515.6356, 177.7196
516.1177, 178.1015
516.5998, 178.0825
517.0819, 178.2470
517.5640, 178.0143
518.0461, 177.9043
518.5283, 178.1917
519.0104, 178.2590
519.4925, 177.9806
519.9746, 178.1567
520.4567, 177.5207
520.9388, 177.5974
521.4210, 177.9816
521.9031, 177.7231
522.3852, 177.9066
522.8673, 177.9217
523.3494, 177.1720
523.8315, 177.7525
524.3137, 177.7576
524.7958, 177.1722
525.2779, 177.7071
525.7600, 177.2030
526.2421, 177.0699
526.7242, 177.2157
527.2064, 177.0706
527.6885, 177.3842
528.1706, 177.2560
528.6527, 177.0883
529.1348, 177.0928
529.6169, 176.6092
530.0991, 177.0312
530.5812, 176.8346
531.0633, 176.9455
531.5454, 177.1262
532.0275, 176.7731
532.5096, 176.9850
532.9918, 176.3207
533.4739, 176.3896
533.9560, 176.3795
534.4381, 176.8381
534.9202, 176.1780
535.4024, 176.2265
535.8845, 176.5767
536.3666, 176.5048
536.8488, 176.6093
537.3309, 176.1914
537.8130, 176.2643
538.2951, 175.8763
538.7772, 175.6259
539.2593, 175.8280
539.7415, 176.1740
540.2236, 176.3308
540.7057, 176.2134
541.1878, 175.9919
541.6699, 175.7562
542.1520, 175.5356
542.6342, 175.5974
543.1163, 176.1077
543.5984, 176.5393
544.0805, 176.4976
544.5626, 176.1488
545.0447, 175.7663
545.5269, 175.3216
546.0090, 174.9695
546.4911, 174.8629
546.9732, 174.8960
547.4553, 174.8223
547.9374, 174.5874
548.4196, 174.4463
548.9017, 174.7083
549.3838, 175.3919
549.8659, 175.6286
550.3480, 175.0949
550.8301, 174.5862
551.3123, 174.3219
551.7944, 174.2037
552.2765, 174.1427
552.7586, 174.0965
553.2407, 173.9856
553.7228, 173.6512
554.2050, 173.0632
554.6871, 172.8280
555.1692, 173.2612
555.6513, 173.6029
556.1334, 173.5603
556.6155, 173.2863
557.0977, 172.9379
557.5798, 172.5379
558.0619, 172.2100
558.5440, 172.0744
559.0261, 172.1052
559.5082, 172.2370
559.9904, 172.4915
560.4725, 172.7066
560.9546, 172.7307
561.4367, 172.6026
561.9188, 172.5476
562.4009, 172.7008
562.8831, 172.7602
563.3652, 172.5824
563.8473, 172.2572
564.3294, 171.8640
564.8115, 171.0566
565.2936, 171.4836
565.7758, 171.7087
566.2579, 171.7430
566.7400, 171.0143
567.2221, 171.2708
567.7042, 171.1324
568.1863, 170.9779
568.6685, 171.3730
569.1506, 170.7553
569.6327, 171.1417
570.1148, 171.1273
570.5969, 171.2963
571.0790, 171.0681
571.5612, 170.9626
572.0433, 171.2544
572.5254, 171.3262
573.0075, 171.0522
573.4896, 171.2329
573.9717, 170.6014
574.4539, 170.6825
574.9360, 171.0712
575.4181, 170.8173
575.9002, 171.0052
576.3823, 171.0248
576.8644, 170.2796
577.3466, 170.8645
577.8287, 170.8742
578.3108, 170.2933
578.7929, 170.8326
579.2750, 170.3331
579.7571, 170.2044
580.2393, 170.8893
580.7214, 171.4347
581.2035, 171.3991
581.6856, 170.8612
582.1677, 170.4350
582.6498, 170.6033
583.1320, 171.2098
583.6141, 171.0276
584.0962, 172.0535
584.5783, 172.6848
585.0604, 172.9422
585.5425, 171.7339
586.0247, 172.3968
586.5068, 172.2968
586.9889, 172.1564
587.4710, 173.0560
587.9531, 172.0128
588.4352, 172.8770
588.9174, 172.9668
589.3995, 173.3974
589.8816, 173.0603
590.3637, 172.9481
590.8458, 173.5851
591.3279, 173.7928
591.8101, 173.3310
592.2922, 173.7278
592.7743, 172.5646
593.2564, 172.7527
593.7385, 173.5186
594.2206, 173.0482
594.7028, 173.4121
595.1849, 172.6911
595.6670, 173.4961
596.1491, 173.9113
596.6312, 173.9571
597.1133, 172.5420
597.5955, 173.0026
598.0776, 172.7049
598.5597, 172.3715
599.0418, 173.0827
599.5239, 171.8557
600.0060, 172.5408
600.4882, 172.4560
600.9703, 172.7167
601.4524, 172.2144
601.9345, 171.9415
602.4166, 172.4225
602.8987, 172.4788
603.3809, 171.8702
603.8630, 172.1248
604.3451, 170.8242
604.8272, 170.8794
605.3093, 171.5170
605.7914, 170.9230
606.2736, 171.1679
606.7557, 171.0867
607.2378, 169.5408
607.7199, 170.5294
608.2020, 170.4151
608.6841, 169.1685
609.1663, 170.0559
609.6484, 168.9554
610.1305, 168.5580
610.6126, 168.6886
611.0947, 168.2592
611.5768, 168.7006
612.0590, 168.2937
612.5411, 167.8069
613.0232, 167.6441
613.5053, 166.5447
613.9874, 167.2812
614.4695, 167.0286
614.9517, 166.4818
615.4338, 165.9179
615.9159, 165.8242
616.3980, 166.4314
616.8801, 166.7164
617.3622, 166.4855
617.8444, 166.1776
618.3265, 165.9327
618.8086, 165.7474
619.2907, 165.6100
619.7728, 165.5131
620.2549, 165.4082
620.7371, 165.1499
621.2192, 164.7433
621.7013, 165.6033
622.1834, 166.0780
622.6655, 166.1883
623.1476, 164.8422
623.6298, 165.3766
624.1119, 165.1574
624.5940, 164.9073
625.0761, 165.7065
625.5582, 164.5722
626.0403, 165.3547
626.5225, 165.3720
627.0046, 165.7396
627.4867, 165.3488
627.9688, 164.6549
628.4509, 164.6415
628.9330, 164.5548
629.4152, 164.3740
629.8973, 164.1567
630.3794, 163.7796
630.8615, 163.4866
631.3436, 163.4736
631.8257, 163.6558
632.3079, 163.8143
632.7900, 163.8548
633.2721, 163.7973
633.7542, 163.5812
634.2364, 162.8736
634.7185, 163.3326
635.2006, 163.5897
635.6827, 163.6559
636.1649, 162.9593
636.6470, 163.2477
637.1291, 163.1414
637.6112, 163.0188
638.0933, 163.4459
638.5754, 162.8602
639.0576, 163.2786
639.5397, 163.2961
640.0218, 163.4971
640.5039, 163.3009
640.9860, 163.2274
641.4681, 163.5512
641.9503, 163.6550
642.4324, 163.4130
642.9145, 163.6257
643.3966, 163.0261
643.8787, 163.1393
644.3608, 163.5600
644.8430, 163.3380
645.3251, 163.5579
645.8072, 163.6095
646.2893, 162.8963
646.7714, 163.5132
647.2535, 163.5549
647.7357, 163.0060
648.2178, 163.5773
648.6999, 163.1098
649.1820, 163.0130
649.6641, 163.1954
650.1462, 163.0868
650.6284, 163.4369
651.1105, 163.3451
651.5926, 163.2139
652.0747, 163.2549
652.5568, 162.8077
653.0389, 163.2663
653.5211, 163.1061
654.0032, 163.2535
654.4853, 163.4706
654.9674, 163.1540
655.4495, 163.4024
655.9316, 162.7746
656.4138, 162.8799
656.8959, 162.9063
657.3780, 163.4014
657.8601, 162.7778
658.3422, 162.8628
658.8243, 163.2495
659.3065, 163.2140
659.7886, 163.3550
660.2707, 162.9736
660.7528, 163.0830
661.2349, 163.0571
661.7170, 163.4987
662.1992, 163.5712
662.6813, 163.1986
663.1634, 162.8279
663.6455, 163.3031
664.1276, 162.9766
664.6097, 163.3433
665.0919, 163.5567
665.5740, 163.6516
666.0561, 163.6248
666.5382, 163.5929
667.0203, 163.5902
667.5024, 163.6206
667.9846, 163.7159
668.4667, 163.8508
668.9488, 163.9527
669.4309, 163.9971
669.9130, 163.9643
670.3951, 163.8047
670.8773, 163.4834
671.3594, 163.3262
671.8415, 163.3425
672.3236, 163.5255
672.8057, 164.0689
673.2878, 164.6682
673.7700, 165.0430
674.2521, 165.1347
674.7342, 164.9990
675.2163, 164.5305
675.6984, 163.9149
676.1805, 163.4779
676.6627, 163.2227
677.1448, 163.3086
677.6269, 163.9112
678.1090, 164.6033
678.5911, 164.7401
679.0732, 164.1669
679.5554, 163.9211
680.0375, 164.2693
680.5196, 164.6267
681.0017, 164.8914
681.4838, 164.9828
681.9659, 164.7153
682.4481, 164.1023
682.9302, 163.5060
683.4123, 163.2452
683.8944, 163.2795
684.3765, 163.5187
684.8586, 164.0271
685.3408, 164.3382
685.8229, 164.2306
686.3050, 163.9258
686.7871, 163.7050
687.2692, 163.5659
687.7513, 163.3313
688.2335, 162.8436
688.7156, 162.3933
689.1977, 162.1337
689.6798, 162.0168
690.1619, 161.9512
690.6440, 161.9192
691.1262, 162.0002
691.6083, 162.3469
692.0904, 162.8713
692.5725, 162.8809
693.0546, 162.1751
693.5367, 161.5542
694.0189, 161.4369
694.5010, 161.3140
694.9831, 160.3228
695.4652, 160.7237
695.9473, 160.9228
696.4294, 160.9309
696.9116, 160.1762
697.3937, 160.4066
697.8758, 160.2422
698.3579, 160.0616
698.8400, 160.4306
699.3221, 159.7868
699.8043, 160.1471
700.2864, 160.1066
700.7685, 160.2495
701.2506, 159.9952
701.7327, 159.8636
702.2148, 160.1294
702.6970, 160.1751
703.1791, 159.8751
703.6612, 159.5530
704.1433, 159.5490
704.6254, 159.4121
705.1075, 159.2674
705.5897, 159.2978
706.0718, 159.3783
706.5539, 159.1853
707.0360, 158.6786
707.5181, 158.1973
708.0002, 158.0218
708.4824, 157.6037
708.9645, 157.8976
709.4466, 157.9896
709.9287, 157.8908
710.4108, 157.0291
710.8929, 157.1524
711.3751, 156.8810
711.8572, 156.5934
712.3393, 156.8554
712.8214, 156.1046
713.3035, 156.3579
713.7856, 156.2104
714.2678, 156.2463
714.7499, 155.8850
715.2320, 155.6464
715.7141, 155.8051
716.1962, 155.7439
716.6783, 155.3369
717.1605, 155.3844
717.6426, 154.6198
718.1247, 154.5679
718.6068, 154.3018
719.0889, 154.7444
719.5710, 154.9560
720.0532, 154.9489
720.5353, 154.0684
721.0174, 154.3158
721.4995, 154.1111
721.9816, 153.8880
722.4637, 154.2941
722.9459, 153.5406
723.4280, 153.9367
723.9101, 153.8739
724.3922, 154.0212
724.8743, 153.7137
725.3564, 153.5466
725.8386, 153.8345
726.3207, 153.8704
726.8028, 153.5105
727.2849, 153.6711
727.7670, 152.9018
728.2491, 152.9485
728.7313, 153.3473
729.2134, 153.0102
729.6955, 153.1792
730.1776, 153.1554
730.6597, 152.2559
731.1418, 152.5430
731.6240, 152.3717
732.1061, 152.7559
732.5882, 152.1334
733.0704, 152.5208
733.5525, 152.5134
734.0346, 152.6954
734.5167, 152.4861
734.9988, 152.4055
735.4810, 152.7281
735.9631, 152.8367
736.4452, 152.6055
736.9273, 152.8349
737.4094, 152.2580
737.8915, 152.3997
738.3737, 152.8550
738.8558, 152.6735
739.3379, 152.9399
739.8200, 153.0439
740.3021, 152.3891
740.7842, 153.0685
741.2664, 153.3003
741.7485, 153.4123
742.2306, 153.4276
742.7127, 153.4598
743.1948, 153.5311
743.6769, 153.5772
744.1591, 153.5431
744.6412, 153.5338
745.1233, 153.6287
745.6054, 153.7842
746.0875, 153.9083
746.5696, 153.9698
747.0518, 154.0036
747.5339, 153.9742
748.0160, 153.9606
748.4981, 154.1645
748.9802, 154.5557
749.4623, 154.8278
749.9445, 154.8180
750.4266, 154.6552
750.9087, 154.5659
751.3908, 154.5485
751.8729, 154.6244
752.3550, 154.9752
752.8372, 155.1759
753.3193, 155.0019
753.8014, 154.0685
754.2835, 154.6980
754.7656, 155.1067
755.2477, 155.3056
755.7299, 154.7228
756.2120, 155.1062
756.6941, 155.0758
757.1762, 155.0104
757.6583, 155.4757
758.1404, 154.9093
758.6226, 155.3281
759.1047, 155.3272
759.5868, 155.4908
760.0689, 155.2383
760.5510, 155.0896
761.0331, 155.3802
761.5153, 155.1068
761.9974, 154.8765
762.4795, 155.0693
762.9616, 155.5353
763.4437, 155.7639
763.9258, 155.4259
764.4080, 155.2384
764.8901, 155.7519
765.3722, 156.4661
765.8543, 156.7439
766.3364, 156.6426
766.8185, 156.6443
767.3007, 157.0144
767.7828, 157.5661
768.2649, 158.0328
768.7470, 158.4185
769.2291, 158.4929
769.7112, 158.1378
770.1934, 157.7516
770.6755, 157.5135
771.1576, 157.3632
771.6397, 157.2020
772.1218, 157.0248
772.6039, 156.8650
773.0861, 156.9605
773.5682, 156.8262
774.0503, 155.9607
774.5324, 154.8195
775.0145, 154.1075
775.4966, 153.9251
775.9788, 153.7590
776.4609, 153.1275
776.9430, 152.2706
777.4251, 151.7486
777.9072, 151.5589
778.3893, 151.5719
778.8715, 151.8410
779.3536, 151.9972
779.8357, 151.6723
780.3178, 150.9453
780.7999, 150.3607
781.2820, 150.0574
781.7642, 149.6882
782.2463, 149.0339
782.7284, 148.4942
783.2105, 148.5092
783.6926, 148.7930
784.1747, 148.7073
784.6569, 147.9958
785.1390, 147.1770
785.6211, 146.6322
786.1032, 146.3312
786.5853, 146.3523
787.0674, 146.6249
787.5496, 146.6266
788.0317, 146.1104
788.5138, 145.3970
788.9959, 144.9211
789.4780, 144.6851
789.9601, 144.6739
790.4423, 144.9811
790.9244, 145.0943
791.4065, 145.0243
791.8886, 144.1991
792.3707, 144.3668
792.8528, 144.1473
793.3350, 143.9194
793.8171, 144.2489
794.2992, 143.5733
794.7813, 143.9094
795.2634, 143.8525
795.7455, 143.9867
796.2277, 143.7315
796.7098, 143.6066
797.1919, 143.8868
797.6740, 143.9548
798.1561, 143.6847
798.6382, 143.8769
799.1204, 143.2647
799.6025, 143.3728
800.0846, 143.7963
800.5667, 143.5848
801.0488, 143.8229
801.5309, 143.1456
802.0131, 142.8043
802.4952, 142.7095
802.9773, 143.2868
803.4594, 143.6974
803.9415, 143.4617
804.4236, 142.9304
804.9058, 142.4689
805.3879, 142.1684
805.8700, 142.0261
806.3521, 142.0857
806.8342, 142.2390
807.3163, 142.3670
807.7985, 142.4522
808.2806, 142.3342
808.7627, 141.9788
809.2448, 141.8327
809.7269, 142.2748
810.2090, 143.0640
810.6912, 143.4492
811.1733, 143.2793
811.6554, 143.0669
812.1375, 142.6540
812.6196, 142.3853
813.1017, 142.5175
813.5839, 142.8048
814.0660, 142.9010
814.5481, 142.7527
815.0302, 142.6414
815.5123, 142.8472
815.9944, 142.9815
816.4766, 142.5765
816.9587, 141.9248
817.4408, 141.5885
817.9229, 141.6717
818.4050, 141.8836
818.8871, 141.9961
819.3693, 142.0422
819.8514, 142.0865
820.3335, 142.1243
820.8156, 142.3162
821.2977, 142.7677
821.7798, 143.1225
822.2620, 143.1109
822.7441, 142.8443
823.2262, 142.6632
823.7083, 142.7110
824.1904, 142.5061
824.6725, 141.4883
825.1547, 140.8173
825.6368, 141.3702
826.1189, 142.4088
826.6010, 142.9680
827.0831, 142.8685
827.5652, 142.5354
828.0474, 142.1137
828.5295, 141.7072
829.0116, 141.3805
829.4937, 141.1769
829.9758, 141.3315
830.4579, 141.8473
830.9401, 142.1704
831.4222, 141.8350
831.9044, 141.0959
832.3865, 140.7298
832.8686, 140.8190
833.3507, 140.8833
833.8328, 140.8798
834.3149, 140.8647
834.7971, 140.9158
835.2792, 140.9491
835.7613, 140.7858
836.2434, 140.3701
836.7255, 140.0730
837.2076, 140.0205
837.6898, 140.0247
838.1719, 140.0543
838.6540, 140.0549
839.1361, 139.8440
839.6182, 139.4931
840.1003, 139.4754
840.5825, 140.2735
841.0646, 141.2407
841.5467, 141.4285
842.0288, 141.0496
842.5109, 140.7693
842.9930, 140.6802
843.4752, 140.6130
843.9573, 140.4715
844.4394, 140.2632
844.9215, 139.9805
845.4036, 139.5716
845.8857, 139.3646
846.3679, 139.5094
846.8500, 139.5875
847.3321, 139.3739
847.8142, 139.0710
848.2963, 138.9279
848.7784, 138.9331
849.2606, 138.7948
849.7427, 138.2562
850.2248, 137.8170
850.7069, 137.6692
851.1890, 137.7191
851.6711, 138.0423
852.1533, 138.4740
852.6354, 138.5194
853.1175, 137.8823
853.5996, 137.2087
854.0817, 137.3994
854.5638, 138.0920
855.0460, 138.2732
855.5281, 137.9379
856.0102, 137.6794
856.4923, 137.7456
856.9744, 137.8783
857.4565, 137.7429
857.9387, 137.3482
858.4208, 136.9642
858.9029, 136.5468
859.3850, 136.2391
859.8671, 135.9912
860.3492, 135.9493
860.8314, 136.4850
861.3135, 137.2910
861.7956, 137.4826
862.2777, 136.6839
862.7598, 135.9564
863.2419, 135.4913
863.7241, 135.2686
864.2062, 135.3234
864.6883, 135.5941
865.1704, 136.0850
865.6525, 136.7536
866.1346, 137.2551
866.6168, 137.3468
867.0989, 137.0916
867.5810, 136.3522
868.0631, 135.3422
868.5452, 134.9047
869.0273, 135.1764
869.5095, 135.4685
869.9916, 135.2674
870.4737, 134.7759
870.9558, 134.5356
871.4379, 134.6050
871.9200, 134.5595
872.4022, 134.2624
872.8843, 134.1417
873.3664, 134.6356
873.8485, 135.2164
874.3306, 134.9756
874.8127, 133.8801
875.2949, 133.1277
875.7770, 132.9035
876.2591, 132.8927
876.7412, 133.1733
877.2233, 133.5008
877.7054, 133.6782
878.1876, 133.7139
878.6697, 133.7017
879.1518, 133.6788
879.6339, 133.6108
880.1160, 133.4228
880.5981, 133.2035
881.0803, 133.0813
881.5624, 133.0415
882.0445, 133.0064
882.5266, 132.9491
883.0087, 132.8923
883.4908, 132.8590
883.9730, 132.8456
884.4551, 132.8100
884.9372, 132.7419
885.4193, 132.8683
885.9014, 133.2976
886.3835, 133.6866
886.8657, 133.7994
887.3478, 133.6964
887.8299, 133.5385
888.3120, 133.3058
888.7941, 133.0725
889.2762, 132.9135
889.7584, 132.6619
890.2405, 132.1231
890.7226, 131.5678
891.2047, 131.2518
891.6868, 131.1910
892.1689, 131.2965
892.6511, 131.7463
893.1332, 132.0829
893.6153, 131.8856
894.0974, 131.5976
894.5795, 131.7922
895.0616, 132.3263
895.5438, 132.6676
896.0259, 132.5985
896.5080, 132.3490
896.9901, 132.0845
897.4722, 131.8510
897.9543, 131.7780
898.4365, 131.8460
898.9186, 131.9326
899.4007, 132.0033
899.8828, 132.1155
900.3649, 132.3246
900.8470, 132.6081
901.3292, 132.9337
901.8113, 133.3675
902.2934, 133.4776
902.7755, 133.1006
903.2576, 132.6966
903.7397, 132.5573
904.2219, 132.4767
904.7040, 132.0328
905.1861, 131.1234
905.6682, 130.6687
906.1503, 131.1358
906.6324, 131.4641
907.1146, 131.3273
907.5967, 131.0157
908.0788, 130.7250
908.5609, 130.4706
909.0430, 130.1992
909.5251, 129.8479
910.0073, 129.6634
910.4894, 129.9604
910.9715, 130.3483
911.4536, 130.5221
911.9357, 130.4509
912.4178, 130.0087
912.9000, 129.2381
913.3821, 128.6122
913.8642, 128.5689
914.3463, 128.8173
914.8284, 128.8319
915.3105, 128.6555
915.7927, 128.4642
916.2748, 128.2852
916.7569, 128.1284
917.2390, 127.9940
917.7211, 127.9176
918.2032, 127.9666
918.6854, 128.1458
919.1675, 128.3532
919.6496, 128.6456
920.1317, 128.7904
920.6138, 128.7194
921.0959, 128.4927
921.5781, 128.1134
922.0602, 127.6174
922.5423, 127.1843
923.0244, 126.8608
923.5065, 126.5050
923.9886, 125.9738
924.4708, 125.5647
924.9529, 125.5863
925.4350, 125.7021
925.9171, 125.4158
926.3992, 124.7175
926.8813, 124.1749
927.3635, 124.0610
927.8456, 124.1016
928.3277, 124.2006
928.8098, 124.3290
929.2919, 124.4790
929.7740, 124.6266
930.2562, 124.7384
930.7383, 124.7996
931.2205, 124.7700
931.7026, 123.9738
932.1847, 124.3501
932.6668, 124.5247
933.1489, 124.5083
933.6310, 123.7291
934.1132, 123.9349
934.5953, 123.7459
935.0774, 123.5408
935.5595, 123.8852
936.0416, 123.2170
936.5237, 123.5527
937.0059, 123.4876
937.4880, 123.6060
937.9701, 123.3272
938.4522, 123.1711
938.9343, 123.4123
939.4164, 123.4335
939.8986, 123.1089
940.3807, 123.2390
940.8628, 122.5568
941.3449, 122.5874
941.8270, 122.9254
942.3091, 122.6209
942.7913, 122.7582
943.2734, 122.7272
943.7555, 121.9314
944.2376, 122.4657
944.7197, 122.4247
945.2018, 121.7932
945.6840, 122.2819
946.1661, 121.7318
946.6482, 121.5524
947.1303, 121.6522
947.6124, 121.4610
948.0945, 121.7285
948.5767, 121.7777
949.0588, 121.7914
949.5409, 121.7873
950.0230, 121.7093
950.5051, 121.3968
950.9872, 121.0054
951.4694, 120.8507
951.9515, 120.9675
952.4336, 121.1349
952.9157, 121.2190
953.3978, 121.2264
953.8799, 121.1349
954.3621, 120.9822
954.8442, 120.8763
955.3263, 120.8168
955.8084, 120.7244
956.2905, 120.5677
956.7726, 120.4029
957.2548, 120.2798
957.7369, 120.2117
958.2190, 120.2911
958.7011, 120.5301
959.1832, 120.6438
959.6653, 120.5648
960.1475, 120.4876
960.6296, 120.5289
961.1117, 120.6299
961.5938, 120.3022
962.0759, 120.6884
962.5580, 120.8735
963.0402, 120.8685
963.5223, 120.1015
964.0044, 120.3203
964.4865, 120.1451
964.9686, 119.9545
965.4507, 120.3144
965.9329, 119.6622
966.4150, 120.0149
966.8971, 119.9677
967.3792, 120.1046
967.8613, 119.8451
968.3434, 119.7091
968.8256, 119.9713
969.3077, 120.0142
969.7898, 119.7122
970.2719, 119.8655
970.7540, 119.2075
971.2361, 119.2630
971.7183, 119.6268
972.2004, 119.3487
972.6825, 119.5133
973.1646, 119.5104
973.6467, 118.7435
974.1288, 119.3075
974.6110, 119.2971
975.0931, 118.6968
975.5752, 119.2176
976.0573, 118.7003
976.5394, 118.5547
977.0215, 118.6889
977.5037, 118.5330
977.9858, 118.8365
978.4679, 118.6990
978.9500, 118.5228
979.4321, 118.5196
979.9142, 118.0291
980.3964, 118.4451
980.8785, 118.2432
981.3606, 118.3496
981.8427, 118.5265
982.3248, 118.1705
982.8069, 118.3803
983.2891, 117.7147
983.7712, 117.7830
984.2533, 117.7732
984.7354, 118.2329
985.2175, 117.5747
985.6996, 117.6259
986.1818, 117.9795
986.6639, 117.9118
987.1460, 118.0214
987.6281, 117.6093
988.1102, 117.6889
988.5923, 117.6339
989.0745, 118.0473
989.5566, 118.0924
990.0387, 117.6931
990.5208, 117.2965
991.0029, 117.7467
991.4850, 117.3959
991.9672, 117.4785
992.4493, 117.1150
992.9314, 117.1382
993.4135, 117.1559
993.8956, 117.3723
994.3777, 116.9898
994.8599, 117.3859
995.3420, 117.3333
995.8241, 117.4138
996.3062, 117.4805
996.7883, 116.9447
997.2704, 116.9042
997.7526, 117.5721
998.2347, 117.1616
998.7168, 116.9698
999.1989, 116.9336
999.6810, 117.6289
1000.163, 117.6458
1000.645, 116.8517
1001.127, 117.5172
1001.609, 117.2860
1002.092, 117.3223
1002.574, 117.2620
1003.056, 117.2314
1003.538, 116.8352
1004.020, 116.9226
1004.502, 117.4034
1004.984, 117.2157
1005.466, 117.4836
1005.949, 116.9234
1006.431, 116.8560
1006.913, 116.9200
1007.395, 117.0325
1007.877, 116.7651
1008.359, 117.2596
1008.841, 117.2482
1009.323, 116.7985
1009.805, 116.8259
1010.288, 116.7750
1010.770, 117.5483
1011.252, 117.1903
1011.734, 116.7530
1012.216, 117.2139
1012.698, 117.3879
1013.180, 117.1739
1013.662, 117.5627
1014.145, 117.8857
1014.627, 117.7879
1015.109, 117.5391
1015.591, 117.7573
1016.073, 118.2838
1016.555, 118.6020
1017.037, 118.6552
1017.519, 118.5969
1018.001, 118.5000
1018.484, 118.5047
1018.966, 118.8701
1019.448, 119.1113
1019.930, 119.6930
1020.412, 120.0729
1020.894, 120.2619
1021.376, 119.6880
1021.858, 120.0992
1022.341, 120.1159
1022.823, 120.1161
1023.305, 120.6659
1023.787, 120.2030
1024.269, 120.7441
1024.751, 120.8844
1025.233, 121.2082
1025.715, 121.1347
1026.198, 121.1842
1026.680, 121.6308
1027.162, 121.8573
1027.644, 121.7382
1028.126, 122.0736
1028.608, 121.5968
1029.090, 121.8327
1029.572, 122.3762
1030.054, 122.2769
1030.536, 122.6196
1031.019, 122.7943
1031.501, 122.2038
1031.983, 122.9435
1032.465, 123.1079
1032.947, 122.6817
1033.429, 123.3758
1033.911, 123.0311
1034.393, 123.0571
1034.876, 123.3624
1035.358, 123.3766
1035.840, 123.8495
1036.322, 123.8805
1036.804, 123.8720
1037.286, 124.0358
1037.768, 123.7114
1038.250, 124.2927
1038.733, 124.2556
1039.215, 124.5257
1039.697, 124.8656
1040.179, 124.6717
1040.661, 125.0429
1041.143, 124.5378
1041.625, 124.7659
1042.107, 124.9151
1042.589, 125.5329
1043.072, 125.0324
1043.554, 125.2401
1044.036, 125.7401
1044.518, 125.9118
1045.000, 126.0498
1045.482, 126.1185
1045.964, 126.3070
1046.446, 126.8073
1046.928, 127.1869
1047.411, 127.1037
1047.893, 127.0787
1048.375, 127.6210
1048.857, 128.4933
1049.339, 129.1041
1049.821, 128.4485
1050.303, 129.0621
1050.785, 129.4739
1051.268, 129.6951
1051.750, 129.1531
1052.232, 129.5962
1052.714, 129.6445
1053.196, 129.6766
1053.678, 130.2583
1054.160, 129.8273
1054.642, 130.4003
1055.125, 130.5728
1055.607, 130.9285
1056.089, 130.8869
1056.571, 130.9680
1057.053, 131.6696
1057.535, 131.6462
1058.017, 131.6559
1058.499, 131.7724
1058.981, 131.5259
1059.464, 130.3330
1059.946, 129.3275
1060.428, 129.1351
1060.910, 129.1706
1061.392, 129.0576
1061.874, 128.7381
1062.356, 128.2070
1062.838, 127.4630
1063.320, 126.4686
1063.803, 124.9126
1064.285, 123.4887
1064.767, 122.4913
1065.249, 121.7741
1065.731, 121.3902
1066.213, 121.1279
1066.695, 120.5370
1067.177, 119.5418
1067.660, 118.8099
1068.142, 118.9453
1068.624, 118.9649
1069.106, 118.2591
1069.588, 117.3901
1070.070, 116.7678
1070.552, 116.3599
1071.034, 116.0714
1071.516, 115.8686
1071.999, 115.5811
1072.481, 114.8848
1072.963, 114.4222
1073.445, 114.8702
1073.927, 115.3085
1074.409, 114.7596
1074.891, 113.7651
1075.373, 113.3434
1075.855, 113.6039
1076.338, 113.7438
1076.820, 113.3197
1077.302, 112.9119
1077.784, 112.9082
1078.266, 112.9243
1078.748, 112.6429
1079.230, 112.1888
1079.713, 111.6981
1080.195, 111.2425
1080.677, 111.0537
1081.159, 111.4039
1081.641, 111.6363
1082.123, 111.3084
1082.605, 110.8886
1083.087, 110.6301
1083.569, 110.5461
1084.052, 110.7205
1084.534, 111.0723
1085.016, 111.2411
1085.498, 111.0433
1085.980, 110.8339
1086.462, 110.8210
1086.944, 110.7882
1087.426, 110.5726
1087.908, 110.2726
1088.391, 109.5509
1088.873, 109.9518
1089.355, 110.1509
1089.837, 110.1591
1090.319, 109.4044
1090.801, 109.6348
1091.283, 109.4705
1091.765, 109.2899
1092.248, 109.6588
1092.730, 109.0151
1093.212, 109.3754
1093.694, 109.3349
1094.176, 109.4779
1094.658, 109.2237
1095.140, 109.0921
1095.622, 109.3579
1096.104, 109.4036
1096.587, 109.1035
1097.069, 109.2582
1097.551, 108.6006
1098.033, 108.6557
1098.515, 109.0183
1098.997, 108.7384
1099.479, 108.9002
1099.961, 108.8938
1100.443, 108.1226
1100.926, 108.6813
1101.408, 108.6650
1101.890, 108.0580
1102.372, 108.5713
1102.854, 108.0457
1103.336, 107.8910
1103.818, 108.0153
1104.300, 107.8487
1104.783, 108.1406
1105.265, 107.9908
1105.747, 107.8015
1106.229, 107.7845
1106.711, 107.2793
1107.193, 107.6798
1107.675, 107.4617
1108.157, 107.5510
1108.640, 107.7100
1109.122, 107.3353
1109.604, 107.5257
1110.086, 106.8398
1110.568, 106.8872
1111.050, 106.8555
1111.532, 107.2926
1112.014, 106.6110
1112.496, 106.6379
1112.979, 106.9664
1113.461, 106.8729
1113.943, 106.9560
1114.425, 106.7225
1114.907, 106.7170
1115.389, 106.5775
1115.871, 106.3313
1116.353, 105.9840
1116.835, 105.4525
1117.318, 105.3305
1117.800, 105.9342
1118.282, 106.3660
1118.764, 106.4520
1119.246, 106.3992
1119.728, 106.2403
1120.210, 106.0856
1120.692, 106.1122
1121.175, 106.3172
1121.657, 106.5345
1122.139, 106.7946
1122.621, 106.9961
1123.103, 107.1643
1123.585, 107.1867
1124.067, 106.9919
1124.549, 106.6556
1125.031, 106.1759
1125.514, 105.6711
1125.996, 105.7787
1126.478, 106.6709
1126.960, 107.2107
1127.442, 107.2987
1127.924, 107.3687
1128.406, 107.5958
1128.888, 107.6198
1129.370, 107.0856
1129.853, 106.3001
1130.335, 106.0298
1130.817, 106.2721
1131.299, 106.1983
1131.781, 105.7866
1132.263, 105.5346
1132.745, 105.5431
1133.227, 105.7345
1133.710, 106.0946
1134.192, 106.3740
1134.674, 106.1285
1135.156, 105.5498
1135.638, 105.4784
1136.120, 105.8444
1136.602, 106.1129
1137.084, 106.2256
1137.567, 106.2843
1138.049, 106.3304
1138.531, 106.3981
1139.013, 106.5612
1139.495, 106.6630
1139.977, 106.2238
1140.459, 105.5207
1140.941, 105.3969
1141.423, 105.7622
1141.906, 106.1263
1142.388, 106.3418
1142.870, 106.4040
1143.352, 106.3002
1143.834, 106.1127
1144.316, 105.8941
1144.798, 105.6874
1145.280, 105.5975
1145.762, 105.5524
1146.245, 105.3757
1146.727, 105.0944
1147.209, 104.8961
1147.691, 104.8524
1148.173, 104.8394
1148.655, 104.7514
1149.137, 104.6675
1149.619, 104.6651
1150.102, 104.6994
1150.584, 104.6424
1151.066, 104.6097
1151.548, 104.9347
1152.030, 105.6091
1152.512, 106.0505
1152.994, 105.9352
1153.476, 105.6782
1153.958, 105.4074
1154.441, 105.1432
1154.923, 104.8562
1155.405, 104.6121
1155.887, 104.5268
1156.369, 104.5555
1156.851, 104.5005
1157.333, 104.2759
1157.815, 104.1581
1158.297, 104.4243
1158.780, 104.5111
1159.262, 103.9501
1159.744, 103.4382
1160.226, 103.6340
1160.708, 104.1625
1161.190, 104.2882
1161.672, 103.9717
1162.154, 103.6976
1162.637, 103.3643
1163.119, 103.2794
1163.601, 103.6508
1164.083, 103.9489
1164.565, 103.9628
1165.047, 103.7987
1165.529, 103.5201
1166.011, 103.1798
1166.494, 102.9980
1166.976, 103.0021
1167.458, 103.0417
1167.940, 103.1412
1168.422, 103.1094
1168.904, 102.8442
1169.386, 102.7679
1169.868, 103.1948
1170.350, 103.8399
1170.833, 104.2673
1171.315, 104.4770
1171.797, 104.4202
1172.279, 104.1163
1172.761, 103.7532
1173.243, 103.3638
1173.725, 103.0467
1174.207, 102.8390
1174.689, 102.7305
1175.172, 102.7417
1175.654, 102.7533
1176.136, 102.4576
1176.618, 102.0524
1177.100, 102.0963
1177.582, 102.4135
1178.064, 102.3476
1178.547, 101.8982
1179.029, 101.7864
1179.511, 102.3880
1179.993, 102.9991
1180.475, 102.9790
1180.957, 102.7219
1181.439, 102.5350
1181.921, 102.4072
1182.403, 102.3973
1182.885, 102.3999
1183.368, 102.1352
1183.850, 101.5868
1184.332, 101.2172
1184.814, 101.2656
1185.296, 100.9442
1185.778, 101.3826
1186.260, 101.6193
1186.742, 101.6649
1187.225, 100.9477
1187.707, 101.2156
1188.189, 101.0887
1188.671, 100.9457
1189.153, 101.3522
1189.635, 100.7460
1190.117, 101.1438
1190.599, 101.1408
1191.082, 101.3213
1191.564, 101.1045
1192.046, 101.0105
1192.528, 101.3137
1193.010, 101.3970
1193.492, 101.1345
1193.974, 101.0785
1194.456, 101.2237
1194.938, 101.2300
1195.421, 101.0613
1195.903, 100.8979
1196.385, 100.7966
1196.867, 100.6772
1197.349, 100.4621
1197.831, 100.2681
1198.313, 100.3242
1198.795, 100.5858
1199.277, 100.8786
1199.760, 101.1829
1200.242, 101.3977
1200.724, 101.5069
1201.206, 101.5164
1201.688, 101.4260
1202.170, 101.1797
1202.652, 100.6554
1203.134, 100.1498
1203.617, 100.0692
1204.099, 100.2173
1204.581, 100.3310
1205.063, 100.4506
1205.545, 100.7259
1206.027, 101.1182
1206.509, 101.4750
1206.991, 101.7614
1207.474, 101.7361
1207.956, 100.9478
1208.438, 100.2397
1208.920, 100.1117
1209.402, 100.1715
1209.884, 100.2027
1210.366, 100.1559
1210.848, 99.92706
1211.330, 99.54790
1211.813, 99.35793
1212.295, 99.48078
1212.777, 99.61975
1213.259, 99.80791
1213.741, 99.94390
1214.223, 99.99769
1214.705, 99.99928
1215.187, 99.96448
1215.669, 99.89458
1216.152, 99.78109
1216.634, 99.63068
1217.116, 99.57121
1217.598, 99.61421
1218.080, 99.60313
1218.562, 99.51965
1219.044, 99.46697
1219.526, 99.48250
1220.009, 99.47193
1220.491, 99.34138
1220.973, 99.22900
1221.455, 99.50661
1221.937, 99.92948
1222.419, 99.77699
1222.901, 99.25951
1223.383, 98.93041
1223.865, 98.84312
1224.348, 98.86530
1224.830, 98.93774
1225.312, 98.96025
1225.794, 98.75008
1226.276, 98.68324
1226.758, 99.17920
1227.240, 99.80994
1227.722, 100.3543
1228.204, 100.6836
1228.687, 100.6035
1229.169, 100.1904
1229.651, 99.67987
1230.133, 99.06438
1230.615, 98.66760
1231.097, 98.78484
1231.579, 98.77386
1232.061, 98.34195
1232.544, 97.97054
1233.026, 97.87127
1233.508, 97.95097
1233.990, 98.14834
1234.472, 98.41856
1234.954, 98.56129
1235.436, 98.55444
1235.918, 98.58516
1236.401, 98.66330
1236.883, 98.63451
1237.365, 98.45654
1237.847, 98.46966
1238.329, 98.86827
1238.811, 99.24586
1239.293, 99.08927
1239.775, 98.67256
1240.257, 98.54261
1240.740, 98.60938
1241.222, 98.76349
1241.704, 98.89977
1242.186, 98.70510
1242.668, 98.22240
1243.150, 97.88006
1243.632, 97.86292
1244.114, 98.01084
1244.596, 98.29207
1245.079, 98.60929
1245.561, 99.04386
1246.043, 99.34509
1246.525, 99.15506
1247.007, 98.77820
1247.489, 98.73459
1247.971, 98.98843
1248.453, 99.00082
1248.936, 98.62564
1249.418, 98.21852
1249.900, 97.58152
1250.382, 97.33401
1250.864, 97.81383
1251.346, 98.23257
1251.828, 98.10545
1252.310, 97.79510
1252.792, 97.79283
1253.275, 98.00639
1253.757, 98.05828
1254.239, 97.95734
1254.721, 97.68640
1255.203, 97.31775
1255.685, 97.59877
1256.167, 98.57278
1256.649, 99.13072
1257.131, 98.69395
1257.614, 98.05569
1258.096, 98.03768
1258.578, 98.18519
1259.060, 97.91588
1259.542, 97.54247
1260.024, 97.44202
1260.506, 97.53511
1260.988, 97.68649
1261.471, 97.83954
1261.953, 97.89639
1262.435, 97.81234
1262.917, 97.72126
1263.399, 97.62749
1263.881, 97.57360
1264.363, 97.47147
1264.845, 97.54122
1265.328, 97.97163
1265.810, 98.54531
1266.292, 99.07059
1266.774, 99.50563
1267.256, 99.68924
1267.738, 99.62155
1268.220, 99.15282
1268.702, 98.25426
1269.184, 98.05353
1269.667, 98.73134
1270.149, 99.35446
1270.631, 99.49300
1271.113, 99.18449
1271.595, 98.32054
1272.077, 97.40011
1272.559, 97.15519
1273.041, 97.34408
1273.523, 97.80993
1274.006, 98.32489
1274.488, 98.50576
1274.970, 98.40280
1275.452, 98.32922
1275.934, 98.36956
1276.416, 98.36037
1276.898, 98.22263
1277.380, 98.05630
1277.863, 97.54510
1278.345, 97.43865
1278.827, 98.59298
1279.309, 99.81011
1279.791, 100.1503
1280.273, 99.83294
1280.755, 99.28703
1281.237, 98.51625
1281.719, 97.79503
1282.202, 97.09518
1282.684, 96.89870
##END=



