##NAMES=Bellbergite
##RRUFFID=R100201
##IDEAL CHEMISTRY=(K,Ba,Sr)_2_Sr_2_Ca_2_(Ca,Na)_4_(Si,Al)_36_O_72_&#183;30H_2_O
##LOCALITY=Caspar quarry, Bellerberg volcano, Ettringen, Mayen, Eifel Mts, Rhineland-Palatinate, Germany
##OWNER=RRUFF
##SOURCE=JÃ¼rgen Wachsmuth, Ulm, Germany
##DESCRIPTION=Transparent colorless hexagonal dipyramidal crystals
##STATUS=The identification of this mineral has been confirmed by single-crystal X-ray diffraction.
##URL=rruff.info/R100201
180.2791, 45.50153
180.7612, 45.25067
181.2433, 44.48643
181.7255, 43.53606
182.2076, 43.16241
182.6897, 43.82954
183.1718, 44.22676
183.6539, 43.83183
184.1360, 43.17525
184.6181, 42.85315
185.1003, 43.17343
185.5824, 43.89500
186.0645, 44.15712
186.5466, 43.57447
187.0287, 42.95309
187.5108, 42.29317
187.9930, 41.68692
188.4751, 41.22919
188.9572, 40.97383
189.4393, 40.91500
189.9214, 41.03857
190.4035, 41.77507
190.8857, 42.21663
191.3678, 41.92600
191.8499, 41.24298
192.3320, 40.79142
192.8141, 40.98253
193.2962, 41.69534
193.7784, 41.97861
194.2605, 41.39215
194.7426, 40.95031
195.2247, 41.12580
195.7068, 41.75007
196.1889, 42.35141
196.6711, 42.69423
197.1532, 42.74388
197.6353, 42.47548
198.1174, 41.37992
198.5995, 40.45777
199.0816, 40.48138
199.5638, 41.30471
200.0459, 41.93776
200.5280, 41.74407
201.0101, 40.92486
201.4922, 40.20951
201.9743, 39.57903
202.4565, 39.09789
202.9386, 38.89164
203.4207, 38.96813
203.9028, 39.01818
204.3849, 38.80492
204.8670, 38.48748
205.3492, 38.29863
205.8313, 38.31552
206.3134, 38.42965
206.7955, 38.54218
207.2776, 38.67308
207.7597, 38.70777
208.2419, 38.55539
208.7240, 38.29315
209.2061, 37.95561
209.6882, 37.51614
210.1703, 37.08252
210.6524, 36.86769
211.1346, 36.96664
211.6167, 37.04505
212.0988, 37.09052
212.5809, 37.02985
213.0630, 36.68840
213.5451, 35.94159
214.0273, 35.11005
214.5094, 35.02719
214.9915, 36.39548
215.4736, 37.22935
215.9557, 36.81876
216.4378, 35.92287
216.9200, 35.30067
217.4021, 35.29688
217.8842, 35.67720
218.3663, 35.78161
218.8484, 35.34364
219.3305, 35.00014
219.8127, 34.90334
220.2948, 34.89927
220.7769, 34.82253
221.2590, 34.59782
221.7411, 34.27122
222.2232, 33.97207
222.7054, 33.42685
223.1875, 33.27678
223.6696, 34.00577
224.1517, 34.99030
224.6338, 35.45585
225.1159, 35.05627
225.5980, 34.10683
226.0802, 33.51896
226.5623, 33.85260
227.0444, 33.88839
227.5265, 33.14587
228.0086, 32.16796
228.4907, 31.73320
228.9729, 32.18967
229.4550, 33.16057
229.9371, 33.66689
230.4192, 33.50164
230.9013, 33.23726
231.3834, 32.91426
231.8656, 32.55201
232.3477, 32.15590
232.8298, 31.71545
233.3119, 31.29221
233.7940, 31.02662
234.2761, 30.90722
234.7583, 30.91452
235.2404, 31.20411
235.7225, 31.59421
236.2046, 31.75089
236.6867, 31.53689
237.1688, 31.11806
237.6510, 30.75097
238.1331, 30.42681
238.6152, 30.16136
239.0973, 29.96440
239.5794, 29.82956
240.0615, 29.74536
240.5437, 29.70963
241.0258, 29.72362
241.5079, 29.83818
241.9900, 30.06014
242.4721, 30.16609
242.9542, 29.95707
243.4364, 29.55927
243.9185, 29.28840
244.4006, 29.20194
244.8827, 29.27068
245.3648, 29.63365
245.8469, 30.22915
246.3290, 30.47361
246.8112, 29.70793
247.2933, 28.33727
247.7754, 27.65773
248.2575, 28.12473
248.7396, 28.82710
249.2217, 29.01129
249.7039, 28.81132
250.1860, 28.67367
250.6681, 28.96944
251.1502, 29.54172
251.6323, 29.78229
252.1144, 29.50575
252.5966, 29.14352
253.0787, 28.90469
253.5608, 28.78076
254.0429, 28.76173
254.5250, 28.93842
255.0071, 29.22154
255.4893, 29.22982
255.9714, 28.76567
256.4535, 28.33868
256.9356, 28.15224
257.4177, 28.15079
257.8998, 28.26739
258.3820, 28.53615
258.8641, 28.86444
259.3462, 28.87612
259.8283, 28.25947
260.3104, 27.84631
260.7925, 28.04392
261.2747, 28.53153
261.7568, 28.89129
262.2389, 28.91233
262.7210, 28.68774
263.2031, 28.47819
263.6852, 28.26928
264.1674, 28.10530
264.6495, 27.92747
265.1316, 27.81751
265.6137, 27.87188
266.0958, 28.13432
266.5779, 28.55368
267.0601, 29.04567
267.5422, 29.79113
268.0243, 30.25681
268.5064, 30.42706
268.9885, 30.30985
269.4706, 29.76045
269.9528, 28.75175
270.4349, 27.65953
270.9170, 27.26741
271.3991, 28.12141
271.8812, 28.61270
272.3633, 28.36074
272.8455, 27.93770
273.3276, 27.80919
273.8097, 28.07361
274.2918, 28.46895
274.7739, 28.60765
275.2560, 28.42925
275.7382, 28.09235
276.2202, 27.53512
276.7024, 26.90208
277.1845, 26.08512
277.6666, 25.17773
278.1487, 24.60755
278.6308, 25.01848
279.1129, 26.95924
279.5951, 27.94748
280.0772, 27.45518
280.5593, 26.65673
281.0414, 26.03120
281.5235, 25.66567
282.0056, 25.50482
282.4878, 25.52875
282.9699, 25.79118
283.4520, 25.83904
283.9341, 25.41302
284.4162, 25.05509
284.8983, 25.07093
285.3805, 25.35582
285.8626, 25.60959
286.3447, 25.61176
286.8268, 25.36408
287.3089, 24.92502
287.7910, 23.96275
288.2732, 23.17968
288.7553, 22.92983
289.2374, 23.00159
289.7195, 22.96673
290.2016, 22.55225
290.6837, 21.85372
291.1659, 21.39832
291.6480, 21.43089
292.1301, 21.42125
292.6122, 21.27970
293.0943, 21.04571
293.5764, 20.74092
294.0586, 20.36782
294.5407, 20.00771
295.0228, 19.88095
295.5049, 19.98122
295.9870, 20.35154
296.4691, 21.47596
296.9513, 22.66430
297.4334, 23.04533
297.9155, 22.35957
298.3976, 21.22641
298.8797, 20.69553
299.3618, 21.29718
299.8440, 21.53120
300.3261, 20.89970
300.8082, 20.21717
301.2903, 20.30828
301.7724, 21.25668
302.2545, 22.31448
302.7367, 22.56975
303.2188, 21.71423
303.7009, 21.20453
304.1830, 21.31698
304.6651, 21.51338
305.1472, 21.36807
305.6294, 20.93098
306.1115, 20.64227
306.5936, 20.93989
307.0757, 21.87866
307.5578, 22.27209
308.0399, 21.77971
308.5221, 21.18823
309.0042, 20.75026
309.4863, 20.48562
309.9684, 20.38345
310.4505, 20.44345
310.9326, 20.65491
311.4148, 20.95138
311.8969, 21.64244
312.3790, 22.05491
312.8611, 21.77056
313.3432, 21.14774
313.8253, 20.81009
314.3075, 21.06100
314.7896, 21.62815
315.2717, 21.80690
315.7538, 21.19478
316.2359, 20.77475
316.7180, 20.67115
317.2001, 20.77574
317.6823, 21.07334
318.1644, 21.54507
318.6465, 21.94265
319.1286, 21.85590
319.6107, 20.90537
320.0928, 20.39209
320.5750, 20.57586
321.0571, 21.00015
321.5392, 21.40995
322.0213, 21.73247
322.5034, 21.90678
322.9855, 21.85777
323.4677, 21.55118
323.9498, 21.22743
324.4319, 20.75156
324.9140, 20.38248
325.3961, 20.24444
325.8782, 20.32491
326.3604, 20.59804
326.8425, 21.09791
327.3246, 21.76929
327.8067, 21.97141
328.2888, 21.35977
328.7709, 20.74400
329.2531, 20.19119
329.7352, 19.79452
330.2173, 19.75156
330.6994, 20.17432
331.1815, 20.85310
331.6636, 21.22202
332.1458, 21.01550
332.6279, 20.80650
333.1100, 20.56805
333.5921, 20.35689
334.0742, 20.26683
334.5563, 20.31338
335.0385, 20.37300
335.5206, 20.26177
336.0027, 19.89800
336.4848, 19.55792
336.9669, 19.07946
337.4490, 18.74195
337.9312, 18.73125
338.4133, 19.04909
338.8954, 19.62331
339.3775, 20.45727
339.8596, 21.62466
340.3417, 22.12130
340.8239, 21.37613
341.3060, 20.65044
341.7881, 20.43237
342.2702, 20.57314
342.7523, 20.72175
343.2344, 20.66739
343.7166, 20.43388
344.1987, 20.13592
344.6808, 19.37753
345.1629, 19.02947
345.6450, 19.67245
346.1271, 20.56468
346.6093, 20.80354
347.0914, 20.07584
347.5735, 18.86862
348.0556, 18.08685
348.5377, 17.78337
349.0198, 17.86867
349.5020, 18.80933
349.9841, 19.73692
350.4662, 19.97408
350.9483, 19.50556
351.4304, 18.83478
351.9125, 18.49084
352.3947, 18.51228
352.8768, 18.60989
353.3589, 18.85841
353.8410, 19.10761
354.3231, 19.34271
354.8052, 19.53638
355.2874, 19.62983
355.7695, 19.56049
356.2516, 19.37961
356.7337, 19.38527
357.2158, 19.72274
357.6979, 20.06229
358.1800, 20.37177
358.6621, 20.64083
359.1443, 20.92233
359.6264, 21.23600
360.1085, 21.40421
360.5906, 20.99411
361.0727, 19.59221
361.5548, 18.70484
362.0370, 18.87000
362.5191, 19.26632
363.0012, 19.41093
363.4833, 19.25731
363.9654, 19.04095
364.4475, 18.97662
364.9297, 19.06766
365.4118, 19.27305
365.8939, 19.91441
366.3760, 20.30009
366.8581, 19.92857
367.3402, 19.11356
367.8224, 18.51653
368.3045, 18.59896
368.7866, 19.10541
369.2687, 19.24847
369.7508, 18.83232
370.2329, 18.48274
370.7151, 18.45379
371.1972, 18.56862
371.6793, 18.65993
372.1614, 18.67686
372.6435, 18.68687
373.1256, 18.78934
373.6078, 18.99349
374.0899, 19.15158
374.5720, 19.17457
375.0541, 19.19460
375.5362, 19.31777
376.0183, 19.53869
376.5005, 19.76987
376.9826, 20.04267
377.4647, 20.29278
377.9468, 20.21762
378.4289, 19.62289
378.9110, 19.09515
379.3932, 19.12112
379.8753, 19.48313
380.3574, 19.78768
380.8395, 19.89938
381.3216, 19.91245
381.8037, 19.87141
382.2859, 19.77106
382.7680, 19.87410
383.2501, 20.48130
383.7322, 21.23463
384.2143, 21.58689
384.6964, 21.47306
385.1786, 21.14643
385.6607, 20.59027
386.1428, 19.92831
386.6249, 19.47258
387.1070, 19.28705
387.5891, 19.35310
388.0713, 19.88123
388.5534, 20.81724
389.0355, 21.28135
389.5176, 20.63617
389.9997, 19.72433
390.4818, 19.39123
390.9640, 19.66706
391.4461, 20.15090
391.9282, 20.65658
392.4103, 21.13326
392.8924, 21.36060
393.3745, 21.25850
393.8567, 21.02035
394.3388, 20.60084
394.8209, 20.11095
395.3030, 19.75577
395.7851, 19.60418
396.2672, 19.64446
396.7494, 19.86368
397.2315, 20.29532
397.7136, 20.84633
398.1957, 21.92252
398.6778, 22.84750
399.1599, 22.85059
399.6420, 21.98903
400.1241, 21.11995
400.6063, 21.03460
401.0884, 21.76394
401.5705, 22.21519
402.0526, 22.29440
402.5347, 22.24610
403.0168, 22.00147
403.4990, 21.70727
403.9811, 21.67315
404.4632, 22.05635
404.9453, 22.55462
405.4274, 22.36835
405.9095, 20.65505
406.3917, 19.70028
406.8738, 19.97140
407.3559, 20.64920
407.8380, 21.29067
408.3201, 21.76216
408.8022, 22.01794
409.2844, 21.96969
409.7665, 21.59196
410.2486, 21.31354
410.7307, 21.13487
411.2128, 21.06919
411.6949, 21.21746
412.1771, 21.46032
412.6592, 21.60757
413.1413, 21.55701
413.6234, 21.38945
414.1055, 21.29278
414.5876, 21.31919
415.0698, 21.25441
415.5519, 20.87020
416.0340, 20.49722
416.5161, 20.43655
416.9982, 20.69975
417.4803, 20.93079
417.9625, 20.77979
418.4446, 20.30655
418.9267, 19.88452
419.4088, 19.44381
419.8909, 19.24163
420.3730, 19.65861
420.8552, 20.40552
421.3373, 20.88181
421.8194, 20.78909
422.3015, 20.44187
422.7836, 20.11542
423.2657, 19.81342
423.7479, 19.77953
424.2300, 20.26919
424.7121, 20.94203
425.1942, 21.24088
425.6763, 21.09468
426.1584, 20.95478
426.6406, 21.06570
427.1227, 21.29382
427.6048, 21.39063
428.0869, 21.30676
428.5690, 21.20887
429.0511, 21.23679
429.5333, 21.40075
430.0154, 21.62511
430.4975, 21.96191
430.9796, 22.31037
431.4617, 22.66514
431.9438, 22.98747
432.4260, 23.18241
432.9081, 23.19907
433.3902, 23.08006
433.8723, 22.90830
434.3544, 22.42810
434.8365, 22.34125
435.3187, 23.10475
435.8008, 23.98195
436.2829, 24.27186
436.7650, 23.96243
437.2471, 23.59842
437.7292, 23.70105
438.2114, 24.28555
438.6935, 24.74788
439.1756, 24.84434
439.6577, 25.09153
440.1398, 25.83372
440.6219, 26.72351
441.1040, 27.23434
441.5862, 27.14514
442.0683, 26.79082
442.5504, 26.80948
443.0325, 27.36953
443.5146, 27.78582
443.9967, 27.59566
444.4789, 27.58848
444.9610, 28.44223
445.4431, 29.92939
445.9252, 31.16215
446.4073, 31.42838
446.8894, 30.93883
447.3716, 30.41989
447.8537, 29.72386
448.3358, 29.37330
448.8179, 29.92739
449.3000, 30.80474
449.7821, 31.35315
450.2643, 31.37658
450.7464, 31.36594
451.2285, 31.82888
451.7106, 32.65554
452.1927, 33.24607
452.6748, 33.38751
453.1570, 33.45835
453.6391, 33.91658
454.1212, 34.66815
454.6033, 35.27696
455.0854, 35.63840
455.5675, 35.81573
456.0497, 35.72713
456.5318, 35.44541
457.0139, 35.38386
457.4960, 35.78753
457.9781, 36.50520
458.4602, 37.15718
458.9424, 37.82816
459.4245, 38.28356
459.9066, 38.32849
460.3887, 38.22190
460.8708, 38.14514
461.3529, 38.16292
461.8351, 38.41893
462.3172, 39.11478
462.7993, 40.27387
463.2814, 40.99943
463.7635, 41.19332
464.2456, 41.10212
464.7278, 40.42891
465.2099, 39.62440
465.6920, 39.35232
466.1741, 39.85645
466.6562, 40.71540
467.1383, 41.17162
467.6205, 40.98571
468.1026, 41.15810
468.5847, 42.35236
469.0668, 43.34219
469.5489, 43.33263
470.0310, 42.62535
470.5132, 42.11345
470.9953, 42.40301
471.4774, 43.19708
471.9595, 43.76974
472.4416, 44.11317
472.9237, 44.25998
473.4059, 44.00056
473.8880, 43.67774
474.3701, 43.70399
474.8522, 44.14339
475.3343, 44.38445
475.8164, 43.74482
476.2986, 42.63963
476.7807, 42.16211
477.2628, 42.52027
477.7449, 43.04491
478.2270, 43.27901
478.7091, 43.26464
479.1913, 43.22081
479.6734, 43.19289
480.1555, 43.09880
480.6376, 42.77455
481.1197, 42.36595
481.6018, 42.26320
482.0839, 42.61646
482.5660, 43.01552
483.0482, 42.85360
483.5303, 41.90013
484.0124, 41.20506
484.4945, 41.00296
484.9766, 40.82365
485.4587, 40.36079
485.9409, 39.71228
486.4230, 39.17560
486.9051, 38.92525
487.3872, 38.83519
487.8693, 38.55678
488.3514, 38.10642
488.8336, 37.40901
489.3157, 36.19780
489.7978, 34.98562
490.2799, 34.13095
490.7620, 33.62754
491.2441, 33.25483
491.7263, 32.89983
492.2084, 32.52785
492.6905, 31.93059
493.1726, 30.98504
493.6547, 30.11443
494.1368, 29.62743
494.6190, 29.24347
495.1011, 28.64338
495.5832, 27.74411
496.0653, 26.85928
496.5474, 26.18330
497.0295, 25.71257
497.5117, 25.52566
497.9938, 25.71850
498.4759, 25.83146
498.9580, 25.36432
499.4401, 24.45522
499.9222, 23.87090
500.4044, 23.80731
500.8865, 23.92049
501.3686, 24.24301
501.8507, 24.58698
502.3328, 24.45304
502.8149, 23.65134
503.2971, 22.73841
503.7792, 22.54281
504.2613, 23.36723
504.7434, 23.82897
505.2255, 23.73994
505.7076, 23.51733
506.1898, 23.35145
506.6719, 23.20632
507.1540, 22.94563
507.6361, 22.48994
508.1182, 21.96216
508.6003, 21.68141
509.0825, 21.79731
509.5646, 21.75717
510.0467, 21.25766
510.5288, 20.80344
511.0109, 20.79909
511.4930, 21.11804
511.9752, 21.24238
512.4573, 20.71597
512.9394, 19.86361
513.4215, 19.50025
513.9036, 19.71862
514.3857, 19.81739
514.8679, 19.37692
515.3500, 18.79592
515.8321, 18.60933
516.3142, 18.86700
516.7963, 19.15350
517.2784, 19.33939
517.7606, 19.42718
518.2427, 19.38292
518.7248, 19.21304
519.2069, 19.04897
519.6890, 18.97092
520.1711, 18.97183
520.6533, 19.02283
521.1354, 19.20998
521.6175, 19.32580
522.0996, 19.22693
522.5817, 19.10329
523.0638, 19.17202
523.5460, 19.45011
524.0281, 19.80874
524.5102, 20.18536
524.9923, 20.56532
525.4744, 20.33093
525.9565, 18.51640
526.4387, 17.36987
526.9208, 17.81560
527.4029, 18.86712
527.8850, 19.53085
528.3671, 19.54949
528.8492, 19.25932
529.3314, 18.91648
529.8135, 18.53731
530.2956, 18.28442
530.7777, 18.19230
531.2598, 18.17628
531.7419, 18.22676
532.2241, 18.30945
532.7062, 18.38273
533.1883, 18.47954
533.6704, 18.48241
534.1525, 18.24065
534.6346, 17.85197
535.1168, 17.51508
535.5989, 17.26697
536.0810, 17.16063
536.5631, 17.26681
537.0452, 17.59812
537.5273, 17.95697
538.0095, 18.56202
538.4916, 18.95092
538.9737, 18.79215
539.4558, 18.36447
539.9379, 18.12207
540.4200, 18.20034
540.9022, 18.31533
541.3843, 18.01545
541.8664, 17.16147
542.3485, 16.68304
542.8306, 16.89599
543.3127, 17.16419
543.7948, 17.37668
544.2769, 17.49155
544.7590, 17.40885
545.2411, 17.06093
545.7233, 16.72965
546.2054, 16.83906
546.6875, 17.35343
547.1696, 17.77989
547.6517, 18.15518
548.1339, 18.21932
548.6160, 17.30579
549.0981, 15.85045
549.5802, 15.15559
550.0623, 16.14028
550.5444, 17.22989
551.0266, 17.37109
551.5087, 16.85719
551.9908, 16.30259
552.4729, 15.88427
552.9550, 15.62466
553.4371, 15.57507
553.9193, 15.78328
554.4014, 15.91512
554.8835, 15.82992
555.3656, 15.83461
555.8477, 16.21284
556.3298, 16.69593
556.8120, 16.82540
557.2941, 16.44836
557.7762, 15.91956
558.2583, 15.81231
558.7404, 16.21680
559.2225, 16.26234
559.7047, 15.54638
560.1868, 14.97129
560.6689, 15.07975
561.1510, 15.56397
561.6331, 15.92713
562.1152, 16.04633
562.5974, 15.93376
563.0795, 15.36948
563.5616, 14.54986
564.0437, 14.26490
564.5258, 14.74958
565.0079, 15.42981
565.4901, 15.89460
565.9722, 16.10518
566.4543, 15.88589
566.9364, 14.52143
567.4185, 13.54594
567.9006, 13.85540
568.3828, 14.79012
568.8649, 15.39778
569.3470, 15.43776
569.8291, 15.34815
570.3112, 15.69168
570.7933, 16.52569
571.2755, 16.76724
571.7576, 15.95717
572.2397, 15.10386
572.7218, 14.17640
573.2039, 13.46640
573.6860, 13.42732
574.1682, 14.15003
574.6503, 14.94053
575.1324, 15.06740
575.6145, 14.68927
576.0966, 14.53366
576.5787, 14.69564
577.0609, 14.87957
577.5430, 14.90462
578.0251, 14.82616
578.5072, 14.78868
578.9893, 14.82534
579.4714, 14.83440
579.9536, 14.79534
580.4357, 14.69807
580.9178, 14.49324
581.3999, 14.19594
581.8820, 13.92588
582.3641, 13.77952
582.8463, 13.73372
583.3284, 13.65521
583.8105, 13.60470
584.2926, 13.42372
584.7747, 12.85186
585.2568, 12.33857
585.7390, 12.33599
586.2211, 12.77022
586.7032, 13.12348
587.1853, 12.91931
587.6674, 12.44811
588.1495, 12.60668
588.6317, 13.53042
589.1138, 14.23950
589.5959, 14.34161
590.0780, 14.15993
590.5601, 14.01425
591.0422, 13.90415
591.5244, 13.98376
592.0065, 14.59914
592.4886, 15.19026
592.9707, 15.13581
593.4528, 14.59164
593.9349, 14.18323
594.4171, 14.20633
594.8992, 14.33640
595.3813, 13.95330
595.8634, 12.69365
596.3455, 12.00838
596.8276, 12.17184
597.3098, 12.53400
597.7919, 13.05426
598.2740, 13.52637
598.7561, 13.57316
599.2382, 13.02137
599.7203, 12.37047
600.2025, 12.36841
600.6846, 12.99349
601.1667, 13.41486
601.6488, 13.46939
602.1309, 13.47492
602.6130, 13.71033
603.0952, 14.04306
603.5773, 14.19051
604.0594, 14.06761
604.5415, 13.85113
605.0236, 13.58041
605.5057, 13.29256
605.9879, 13.02604
606.4700, 12.79454
606.9521, 12.63836
607.4342, 12.59093
607.9163, 12.64924
608.3984, 12.79671
608.8806, 13.18313
609.3627, 13.44925
609.8448, 13.46665
610.3269, 13.42999
610.8090, 13.51244
611.2911, 13.70093
611.7733, 13.84451
612.2554, 13.81776
612.7375, 13.69429
613.2196, 13.67638
613.7017, 13.78465
614.1838, 13.76601
614.6660, 13.48810
615.1481, 13.11957
615.6302, 12.83112
616.1123, 12.61811
616.5944, 12.48708
617.0765, 12.30602
617.5587, 12.33214
618.0408, 13.04594
618.5229, 14.06170
619.0050, 14.48488
619.4871, 14.01080
619.9692, 13.15149
620.4514, 12.56659
620.9335, 12.26762
621.4156, 12.14158
621.8977, 12.30690
622.3798, 12.51442
622.8619, 12.69297
623.3441, 12.88277
623.8262, 13.21556
624.3083, 13.70851
624.7904, 14.00513
625.2725, 13.63704
625.7546, 12.85701
626.2367, 12.35738
626.7188, 12.18234
627.2009, 12.16510
627.6830, 12.24514
628.1652, 12.40698
628.6473, 12.61171
629.1294, 12.82288
629.6115, 13.17020
630.0936, 14.10377
630.5757, 14.81358
631.0579, 14.48112
631.5400, 13.42609
632.0221, 12.52145
632.5042, 12.20929
632.9863, 12.32485
633.4684, 12.62133
633.9506, 13.15565
634.4327, 13.60364
634.9148, 14.02226
635.3969, 14.24539
635.8790, 14.03444
636.3611, 13.63327
636.8433, 13.48628
637.3254, 13.76832
637.8075, 14.11030
638.2896, 14.29634
638.7717, 14.34132
639.2538, 14.28635
639.7360, 14.13432
640.2181, 13.76823
640.7002, 12.99607
641.1823, 12.03994
641.6644, 11.80826
642.1465, 13.29980
642.6287, 14.14547
643.1108, 13.88319
643.5929, 13.34439
644.0750, 12.92044
644.5571, 12.71007
645.0392, 12.85144
645.5214, 13.52914
646.0035, 14.23295
646.4856, 13.81155
646.9677, 12.27263
647.4498, 11.64627
647.9319, 12.66397
648.4141, 13.87706
648.8962, 14.02512
649.3783, 13.37102
649.8604, 12.89452
650.3425, 12.62801
650.8246, 12.60700
651.3068, 13.12665
651.7889, 13.75411
652.2710, 13.89182
652.7531, 13.51265
653.2352, 13.05926
653.7173, 12.88540
654.1995, 12.53330
654.6816, 12.18392
655.1637, 12.07765
655.6458, 11.66841
656.1279, 11.56833
656.6100, 11.70212
657.0922, 12.20977
657.5743, 12.94600
658.0564, 13.43485
658.5385, 13.34072
659.0206, 13.14664
659.5027, 13.43190
659.9849, 13.98600
660.4670, 14.17349
660.9491, 13.84114
661.4312, 13.33872
661.9133, 12.95615
662.3954, 12.69108
662.8776, 12.51702
663.3597, 12.42142
663.8418, 12.43817
664.3239, 12.74340
664.8060, 13.03340
665.2881, 12.98119
665.7703, 12.65391
666.2524, 12.43539
666.7345, 12.62501
667.2166, 12.97514
667.6987, 12.95916
668.1808, 12.59179
668.6630, 12.46954
669.1451, 12.83410
669.6272, 13.23323
670.1093, 13.18272
670.5914, 12.72365
671.0735, 12.44466
671.5557, 12.40367
672.0378, 12.48349
672.5199, 12.79053
673.0020, 13.11588
673.4841, 13.17441
673.9662, 12.97819
674.4484, 12.84110
674.9305, 13.06075
675.4126, 13.43333
675.8947, 13.13323
676.3768, 11.88006
676.8589, 11.23233
677.3411, 11.94136
677.8232, 12.85643
678.3053, 12.95537
678.7874, 12.46814
679.2695, 12.24520
679.7516, 12.83536
680.2338, 13.28602
680.7159, 12.75530
681.1980, 11.83031
681.6801, 11.51863
682.1622, 11.93952
682.6443, 12.41949
683.1265, 12.40178
683.6086, 11.99460
684.0907, 11.71381
684.5728, 11.55686
685.0549, 11.53327
685.5370, 11.89250
686.0192, 12.16557
686.5013, 11.96812
686.9834, 11.45493
687.4655, 11.09646
687.9476, 11.09834
688.4297, 11.25549
688.9119, 11.48927
689.3940, 11.72344
689.8761, 11.70688
690.3582, 11.40539
690.8403, 11.19666
691.3224, 11.41360
691.8046, 11.92824
692.2867, 12.11549
692.7688, 11.45902
693.2509, 11.31719
693.7330, 12.42809
694.2151, 13.40316
694.6973, 13.19357
695.1794, 12.18833
695.6615, 11.44649
696.1436, 11.44317
696.6257, 11.77772
697.1078, 12.20248
697.5900, 12.60888
698.0721, 12.52930
698.5542, 11.86773
699.0363, 11.17076
699.5184, 10.77908
700.0005, 10.65203
700.4827, 10.65985
700.9648, 10.95568
701.4469, 11.13601
701.9290, 10.95998
702.4111, 10.88899
702.8932, 11.43918
703.3754, 12.26223
703.8575, 12.59225
704.3396, 12.09020
704.8217, 11.32170
705.3038, 10.85961
705.7859, 10.70329
706.2681, 10.94307
706.7502, 11.65170
707.2323, 12.29511
707.7144, 12.60341
708.1965, 12.63790
708.6786, 12.51115
709.1607, 12.15586
709.6428, 11.84645
710.1249, 11.50151
710.6071, 11.30427
711.0892, 11.49587
711.5713, 11.86517
712.0534, 12.08529
712.5355, 12.04161
713.0176, 11.79396
713.4998, 11.20927
713.9819, 10.43230
714.4640, 10.39187
714.9461, 11.25154
715.4282, 11.82521
715.9103, 11.44896
716.3925, 10.70898
716.8746, 10.52031
717.3567, 10.93446
717.8388, 11.34835
718.3209, 11.83161
718.8030, 12.17359
719.2852, 12.18725
719.7673, 12.03873
720.2494, 11.94997
720.7315, 11.97262
721.2136, 12.02241
721.6957, 12.03588
722.1779, 12.00879
722.6600, 11.90281
723.1421, 11.70111
723.6242, 11.56139
724.1063, 11.53080
724.5884, 11.57322
725.0706, 11.62453
725.5527, 11.69711
726.0348, 11.94660
726.5169, 12.74473
726.9990, 13.27494
727.4811, 12.98702
727.9633, 12.46949
728.4454, 12.44828
728.9275, 12.89044
729.4096, 13.16788
729.8917, 12.81594
730.3738, 12.13263
730.8560, 11.73569
731.3381, 11.63221
731.8202, 11.64024
732.3023, 11.82697
732.7844, 11.87066
733.2665, 11.29820
733.7487, 10.40996
734.2308, 10.34859
734.7129, 11.74788
735.1950, 12.76736
735.6771, 12.90362
736.1592, 12.63941
736.6414, 12.19780
737.1235, 11.69625
737.6056, 11.24141
738.0877, 10.87301
738.5698, 10.72557
739.0519, 11.10882
739.5341, 11.94537
740.0162, 12.59591
740.4983, 13.07594
740.9804, 13.08629
741.4625, 12.19339
741.9446, 10.99032
742.4268, 10.63942
742.9089, 11.30485
743.3910, 11.86224
743.8731, 12.14816
744.3552, 12.38643
744.8373, 12.79564
745.3195, 13.17489
745.8016, 13.17161
746.2837, 12.74616
746.7658, 12.26727
747.2479, 12.02290
747.7300, 11.98927
748.2122, 12.23540
748.6943, 12.77073
749.1764, 12.87678
749.6585, 12.22375
750.1406, 11.40534
750.6227, 10.94867
751.1049, 10.86227
751.5870, 11.15322
752.0691, 12.19073
752.5512, 13.07381
753.0333, 13.65761
753.5154, 14.01744
753.9976, 14.19540
754.4797, 14.21032
754.9618, 14.05281
755.4439, 13.66919
755.9260, 13.28393
756.4081, 13.25436
756.8903, 13.48615
757.3724, 13.58796
757.8545, 13.50868
758.3366, 13.34271
758.8187, 13.09295
759.3008, 12.87228
759.7830, 12.99372
760.2651, 13.78249
760.7472, 14.13785
761.2293, 13.68335
761.7114, 13.24611
762.1935, 13.30318
762.6757, 13.51306
763.1578, 13.26830
763.6399, 12.46354
764.1220, 11.90008
764.6041, 12.45630
765.0862, 13.42575
765.5684, 13.67039
766.0505, 13.31753
766.5326, 13.11263
767.0147, 13.30573
767.4968, 13.48909
767.9789, 13.16848
768.4611, 12.37559
768.9432, 11.93148
769.4253, 12.10217
769.9074, 12.16490
770.3895, 11.73681
770.8716, 11.40858
771.3538, 11.74425
771.8359, 12.52782
772.3180, 13.02643
772.8001, 12.94458
773.2822, 12.65550
773.7643, 12.28709
774.2465, 11.93150
774.7286, 11.63112
775.2107, 11.45434
775.6928, 11.75033
776.1749, 12.76101
776.6570, 13.92989
777.1392, 14.08673
777.6213, 13.05674
778.1034, 12.26695
778.5855, 11.69952
779.0676, 11.43404
779.5497, 11.63284
780.0319, 12.08712
780.5140, 12.65440
780.9961, 13.36971
781.4782, 13.60362
781.9603, 12.71258
782.4424, 11.82457
782.9246, 11.71231
783.4067, 11.96316
783.8888, 11.90909
784.3709, 11.45983
784.8530, 11.05479
785.3351, 11.10062
785.8173, 11.34301
786.2994, 10.96983
786.7815, 9.979957
787.2636, 9.739834
787.7457, 10.70919
788.2278, 11.75388
788.7100, 11.95214
789.1921, 11.55477
789.6742, 11.57698
790.1563, 12.58556
790.6384, 12.95396
791.1205, 11.99920
791.6026, 10.98497
792.0847, 10.62865
792.5668, 10.69727
793.0490, 10.67784
793.5311, 10.42594
794.0132, 10.33746
794.4953, 10.92105
794.9774, 11.79360
795.4595, 12.32147
795.9417, 12.50719
796.4238, 12.40725
796.9059, 12.02740
797.3880, 11.56370
797.8701, 11.21234
798.3522, 10.97455
798.8344, 10.92182
799.3165, 11.29374
799.7986, 11.38830
800.2807, 10.66526
800.7628, 10.02069
801.2449, 10.10307
801.7271, 10.68736
802.2092, 11.11733
802.6913, 11.15681
803.1734, 11.23726
803.6555, 11.77275
804.1376, 12.31978
804.6198, 12.33493
805.1019, 11.92624
805.5840, 11.43558
806.0661, 11.02155
806.5482, 10.86422
807.0303, 11.40427
807.5125, 12.51055
807.9946, 12.80127
808.4767, 12.10690
808.9588, 11.56666
809.4409, 11.62090
809.9230, 11.87960
810.4052, 11.90848
810.8873, 11.70641
811.3694, 11.57701
811.8515, 11.59905
812.3336, 11.58608
812.8157, 11.45739
813.2979, 11.31673
813.7800, 11.28574
814.2621, 11.31415
814.7442, 11.25277
815.2263, 11.03708
815.7084, 10.72977
816.1906, 10.12956
816.6727, 9.573980
817.1548, 10.07726
817.6369, 11.49281
818.1190, 12.25323
818.6011, 11.61712
819.0833, 10.48863
819.5654, 10.19592
820.0475, 10.77765
820.5296, 11.08640
821.0117, 11.03943
821.4938, 10.89004
821.9760, 10.61619
822.4581, 10.33912
822.9402, 10.12753
823.4223, 9.992986
823.9044, 9.986813
824.3865, 10.16646
824.8687, 10.40388
825.3508, 10.69481
825.8329, 10.98755
826.3150, 11.33702
826.7971, 11.63571
827.2792, 11.51000
827.7614, 10.78535
828.2435, 10.13282
828.7256, 10.67529
829.2077, 11.98067
829.6898, 12.28008
830.1719, 11.52984
830.6541, 10.73204
831.1362, 10.19574
831.6183, 9.996902
832.1004, 10.33114
832.5825, 11.18302
833.0646, 11.47881
833.5468, 10.69648
834.0289, 10.16554
834.5110, 10.12822
834.9931, 10.29552
835.4752, 10.54439
835.9573, 10.84606
836.4395, 11.20381
836.9216, 11.70796
837.4037, 11.96557
837.8858, 11.43926
838.3679, 10.81842
838.8500, 10.95115
839.3322, 11.59346
839.8143, 12.00640
840.2964, 11.94043
840.7785, 11.73541
841.2606, 11.85285
841.7427, 12.10089
842.2249, 11.46737
842.7070, 9.887557
843.1891, 9.184634
843.6712, 10.05331
844.1533, 11.06541
844.6354, 10.91332
845.1176, 9.897720
845.5997, 9.502109
846.0818, 10.32147
846.5639, 10.82467
847.0460, 10.88083
847.5281, 10.77567
848.0103, 10.46672
848.4924, 10.15937
848.9745, 10.22053
849.4566, 10.72109
849.9387, 11.08314
850.4208, 10.87154
850.9030, 10.51519
851.3851, 10.33775
851.8672, 10.32799
852.3493, 10.48349
852.8314, 10.77622
853.3135, 11.11213
853.7957, 11.44661
854.2778, 11.68418
854.7599, 11.55329
855.2420, 11.06201
855.7241, 10.58411
856.2062, 10.12873
856.6884, 9.838190
857.1705, 9.799681
857.6526, 9.964471
858.1347, 10.27794
858.6168, 10.81178
859.0989, 11.16404
859.5811, 11.36426
860.0632, 11.35103
860.5453, 10.87461
861.0274, 10.35727
861.5095, 10.23405
861.9916, 10.43677
862.4738, 10.52540
862.9559, 10.26783
863.4380, 10.01400
863.9201, 10.12428
864.4022, 10.27425
864.8843, 9.866100
865.3665, 9.123468
865.8486, 8.929348
866.3307, 9.639524
866.8128, 10.53740
867.2949, 10.63890
867.7770, 11.04140
868.2592, 11.36342
868.7413, 11.08406
869.2234, 11.46215
869.7055, 11.13649
870.1876, 10.51447
870.6697, 9.866833
871.1519, 9.280704
871.6340, 9.289807
872.1161, 10.36316
872.5981, 11.13070
873.0803, 11.57206
873.5624, 11.64476
874.0445, 11.07447
874.5266, 10.23645
875.0087, 9.621709
875.4908, 9.295984
875.9730, 9.176729
876.4551, 9.292891
876.9372, 9.546994
877.4193, 10.08846
877.9014, 10.61580
878.3835, 10.62444
878.8657, 10.17499
879.3478, 9.824339
879.8299, 9.915135
880.3120, 10.20548
880.7941, 10.48155
881.2762, 10.67171
881.7584, 10.39444
882.2405, 9.681046
882.7226, 9.322459
883.2047, 9.710370
883.6868, 10.27801
884.1689, 10.21202
884.6511, 9.541242
885.1332, 9.205530
885.6153, 9.270756
886.0974, 9.509130
886.5795, 10.04236
887.0616, 10.52339
887.5438, 10.73205
888.0259, 10.67782
888.5080, 10.36106
888.9901, 9.581425
889.4722, 9.022212
889.9543, 8.955353
890.4365, 8.938549
890.9186, 8.617824
891.4007, 8.270373
891.8828, 8.364468
892.3649, 8.911579
892.8470, 9.383039
893.3292, 9.421906
893.8113, 9.333628
894.2934, 9.461645
894.7755, 9.644790
895.2576, 9.575816
895.7397, 9.257288
896.2219, 8.862281
896.7040, 8.477551
897.1861, 8.201757
897.6682, 8.272825
898.1503, 8.094645
898.6324, 8.638304
899.1146, 8.277033
899.5967, 8.197092
900.0788, 8.677139
900.5609, 9.202876
901.0430, 9.216489
901.5251, 9.592595
902.0073, 9.929780
902.4894, 9.846208
902.9715, 10.37316
903.4536, 10.28880
903.9357, 9.961126
904.4178, 9.378138
904.9000, 8.742003
905.3821, 8.295477
905.8642, 8.056244
906.3463, 8.084530
906.8284, 8.652719
907.3105, 9.181661
907.7927, 9.446791
908.2748, 9.506473
908.7569, 9.366872
909.2390, 9.088413
909.7211, 8.787978
910.2032, 8.501909
910.6854, 8.306855
911.1675, 8.262148
911.6496, 8.359429
912.1317, 8.691755
912.6138, 9.157107
913.0959, 9.394006
913.5781, 9.305959
914.0602, 9.154001
914.5423, 9.185579
915.0244, 9.331022
915.5065, 9.440183
915.9886, 9.514806
916.4708, 9.149751
916.9529, 8.146935
917.4350, 7.565118
917.9171, 8.154433
918.3992, 9.170672
918.8813, 9.188207
919.3635, 7.939331
919.8456, 7.811308
920.3277, 9.884698
920.8098, 11.30282
921.2919, 11.01582
921.7740, 10.27588
922.2562, 9.851012
922.7383, 9.674455
923.2204, 9.497915
923.7025, 9.266186
924.1846, 9.103053
924.6667, 9.074161
925.1489, 9.086071
925.6310, 9.148134
926.1131, 9.180978
926.5952, 9.017676
927.0773, 8.682933
927.5594, 8.471777
928.0416, 8.532846
928.5237, 8.804492
929.0058, 9.605163
929.4879, 10.38430
929.9700, 10.00463
930.4521, 8.724193
930.9343, 7.787263
931.4164, 7.720937
931.8985, 8.131951
932.3806, 8.727804
932.8627, 9.371821
933.3448, 9.509233
933.8270, 9.199146
934.3091, 9.169851
934.7912, 9.597265
935.2733, 9.928745
935.7554, 9.738265
936.2375, 9.276073
936.7197, 9.214205
937.2018, 9.714252
937.6839, 9.603471
938.1660, 8.495522
938.6481, 7.772809
939.1302, 8.100789
939.6124, 8.720724
940.0945, 8.735901
940.5766, 9.348870
941.0587, 10.01792
941.5408, 10.13277
942.0229, 11.18442
942.5051, 11.22297
942.9872, 10.93840
943.4693, 10.31232
943.9514, 9.752016
944.4335, 9.985357
944.9156, 11.04637
945.3978, 11.64680
945.8799, 10.82066
946.3620, 10.07275
946.8441, 10.34689
947.3262, 10.94609
947.8083, 11.20449
948.2905, 11.13763
948.7726, 10.96221
949.2547, 10.75464
949.7368, 10.70164
950.2189, 11.05179
950.7010, 11.57692
951.1832, 12.10385
951.6653, 12.52716
952.1474, 12.54021
952.6295, 12.14561
953.1116, 11.68608
953.5938, 11.36117
954.0759, 11.22258
954.5580, 11.49602
955.0400, 12.05610
955.5222, 12.10516
956.0043, 11.63669
956.4864, 11.57730
956.9685, 12.27604
957.4506, 13.02175
957.9327, 13.11878
958.4149, 12.69251
958.8970, 12.20044
959.3791, 11.54790
959.8612, 11.35794
960.3433, 11.88247
960.8254, 12.30024
961.3076, 12.14728
961.7897, 11.80055
962.2718, 11.75902
962.7539, 12.02666
963.2360, 12.36562
963.7181, 12.91872
964.2003, 13.31917
964.6824, 13.45781
965.1645, 13.52071
965.6466, 13.46298
966.1287, 13.45177
966.6108, 13.87124
967.0930, 14.82916
967.5751, 15.41788
968.0572, 15.02106
968.5393, 14.75824
969.0214, 15.32831
969.5035, 16.01668
969.9857, 16.11657
970.4678, 15.76555
970.9499, 15.45530
971.4320, 15.32883
971.9141, 15.33423
972.3962, 15.55560
972.8784, 15.78520
973.3605, 15.95076
973.8426, 15.94446
974.3247, 15.42992
974.8068, 14.54027
975.2889, 13.97071
975.7711, 14.13968
976.2532, 14.56783
976.7353, 14.84264
977.2174, 14.94541
977.6995, 14.73071
978.1816, 14.31151
978.6638, 14.13511
979.1459, 14.29046
979.6280, 14.37424
980.1101, 14.04350
980.5922, 13.49614
981.0743, 13.04639
981.5565, 12.73280
982.0386, 12.92371
982.5207, 13.62321
983.0028, 14.08560
983.4849, 14.01200
983.9670, 13.67496
984.4492, 13.31765
984.9313, 13.00447
985.4134, 13.13229
985.8955, 13.80629
986.3776, 14.07867
986.8597, 13.74599
987.3419, 13.43084
987.8240, 13.45685
988.3061, 13.60560
988.7882, 13.53588
989.2703, 13.25041
989.7524, 13.28563
990.2346, 14.00822
990.7167, 14.21544
991.1988, 13.42870
991.6809, 12.56958
992.1630, 12.16698
992.6451, 12.01470
993.1273, 11.68410
993.6094, 11.08900
994.0915, 10.95187
994.5736, 11.81676
995.0557, 12.39535
995.5378, 12.29233
996.0200, 11.97840
996.5021, 11.51789
996.9842, 11.15160
997.4663, 11.53915
997.9484, 12.98227
998.4305, 13.53398
998.9127, 11.66318
999.3948, 10.11112
999.8769, 10.39474
1000.359, 11.25243
1000.841, 11.59760
1001.323, 11.45665
1001.805, 11.16089
1002.287, 10.74856
1002.770, 10.62914
1003.252, 11.31021
1003.734, 12.04076
1004.216, 12.38719
1004.698, 12.38131
1005.180, 11.87686
1005.662, 11.08972
1006.144, 10.72686
1006.627, 11.14936
1007.109, 11.61008
1007.591, 11.43953
1008.073, 11.01776
1008.555, 10.65457
1009.037, 10.43439
1009.519, 10.58213
1010.001, 11.03885
1010.483, 11.39804
1010.966, 11.42728
1011.448, 11.26328
1011.930, 11.04804
1012.412, 10.76292
1012.894, 10.19542
1013.376, 9.530555
1013.858, 9.552123
1014.340, 10.32045
1014.823, 10.75572
1015.305, 10.02026
1015.787, 9.003861
1016.269, 9.485072
1016.751, 10.92290
1017.233, 11.04558
1017.715, 9.974401
1018.197, 9.354765
1018.679, 9.649164
1019.162, 10.27204
1019.644, 10.79231
1020.126, 11.15823
1020.608, 11.18860
1021.090, 10.91516
1021.572, 10.78998
1022.054, 10.83527
1022.536, 10.89303
1023.018, 10.92624
1023.501, 10.81378
1023.983, 10.38959
1024.465, 9.845271
1024.947, 9.820643
1025.429, 10.36007
1025.911, 10.96544
1026.393, 11.70846
1026.875, 11.99298
1027.358, 11.49962
1027.840, 10.84308
1028.322, 10.60829
1028.804, 10.71286
1029.286, 10.86462
1029.768, 11.14303
1030.250, 11.10010
1030.732, 10.56978
1031.214, 10.13842
1031.697, 9.974664
1032.179, 10.07462
1032.661, 10.56478
1033.143, 11.29221
1033.625, 11.43634
1034.107, 10.60495
1034.589, 10.19724
1035.071, 10.48331
1035.553, 10.71256
1036.036, 10.49931
1036.518, 10.26686
1037.000, 10.56714
1037.482, 10.36038
1037.964, 10.25409
1038.446, 10.52096
1038.928, 10.10843
1039.410, 10.55349
1039.893, 10.93907
1040.375, 10.85350
1040.857, 10.65936
1041.339, 10.77053
1041.821, 11.10333
1042.303, 11.20520
1042.785, 11.08343
1043.267, 10.70161
1043.750, 9.528733
1044.232, 8.754759
1044.714, 9.047236
1045.196, 9.737542
1045.678, 10.28955
1046.160, 10.67106
1046.642, 10.86161
1047.124, 10.74781
1047.606, 10.69565
1048.089, 11.06167
1048.571, 11.11798
1049.053, 10.12755
1049.535, 9.039305
1050.017, 8.843637
1050.499, 9.395189
1050.981, 9.898185
1051.463, 10.25243
1051.945, 10.48453
1052.428, 10.69450
1052.910, 10.66897
1053.392, 10.07171
1053.874, 9.380798
1054.356, 8.978393
1054.838, 8.907606
1055.320, 9.224033
1055.802, 10.09991
1056.285, 10.79685
1056.767, 11.22773
1057.249, 11.28501
1057.731, 10.69796
1058.213, 9.880603
1058.695, 9.111499
1059.177, 8.485311
1059.659, 8.129801
1060.141, 8.074411
1060.624, 8.290871
1061.106, 9.078538
1061.588, 9.761298
1062.070, 9.997067
1062.552, 9.961664
1063.034, 9.773706
1063.516, 9.487933
1063.998, 9.149497
1064.480, 8.744068
1064.963, 8.481433
1065.445, 8.538249
1065.927, 8.643942
1066.409, 8.610597
1066.891, 8.597090
1067.373, 8.813948
1067.855, 9.169650
1068.337, 9.491831
1068.820, 9.754211
1069.302, 9.665407
1069.784, 8.560518
1070.266, 7.746309
1070.748, 8.191355
1071.230, 8.989149
1071.712, 9.464025
1072.194, 9.559770
1072.677, 9.260846
1073.159, 8.579383
1073.641, 8.020523
1074.123, 7.849521
1074.605, 7.796562
1075.087, 7.725947
1075.569, 7.711843
1076.051, 7.855839
1076.533, 8.091783
1077.016, 8.335845
1077.498, 8.556199
1077.980, 8.617106
1078.462, 8.173573
1078.944, 7.977851
1079.426, 8.803273
1079.908, 9.623160
1080.390, 9.472794
1080.872, 8.810820
1081.354, 8.372811
1081.837, 8.283348
1082.319, 8.361381
1082.801, 8.612991
1083.283, 8.873393
1083.765, 9.009125
1084.247, 9.183956
1084.729, 9.734186
1085.211, 10.26575
1085.694, 10.04349
1086.176, 9.214294
1086.658, 8.903097
1087.140, 9.775491
1087.622, 10.35593
1088.104, 9.849801
1088.586, 9.051691
1089.068, 8.237299
1089.551, 7.576844
1090.033, 7.254643
1090.515, 7.237653
1090.997, 7.389025
1091.479, 7.708531
1091.961, 8.028141
1092.443, 8.400545
1092.925, 8.616391
1093.407, 8.423134
1093.890, 8.136352
1094.372, 8.016073
1094.854, 8.071133
1095.336, 8.305695
1095.818, 8.758849
1096.300, 8.999414
1096.782, 8.713145
1097.264, 8.424471
1097.746, 8.224521
1098.229, 8.210807
1098.711, 8.688980
1099.193, 9.312020
1099.675, 9.347754
1100.157, 8.696054
1100.639, 8.367422
1101.121, 8.968121
1101.603, 9.413031
1102.086, 9.310292
1102.568, 9.072427
1103.050, 9.060086
1103.532, 9.011351
1104.014, 8.324970
1104.496, 7.086936
1104.978, 6.561248
1105.460, 7.663547
1105.943, 8.301673
1106.425, 7.640120
1106.907, 7.066968
1107.389, 7.276604
1107.871, 7.825894
1108.353, 8.443989
1108.835, 8.993791
1109.317, 8.910794
1109.799, 7.724857
1110.281, 6.970716
1110.764, 6.919592
1111.246, 7.099573
1111.728, 7.414093
1112.210, 7.875250
1112.692, 8.766951
1113.174, 9.760263
1113.656, 9.937968
1114.138, 9.052768
1114.621, 8.467286
1115.103, 8.175651
1115.585, 8.215425
1116.067, 8.985140
1116.549, 9.558116
1117.031, 9.200513
1117.513, 8.476405
1117.995, 8.357137
1118.478, 8.854321
1118.960, 8.917571
1119.442, 8.186816
1119.924, 7.914153
1120.406, 8.500892
1120.888, 8.930690
1121.370, 8.668658
1121.852, 8.200894
1122.334, 8.051940
1122.817, 8.194958
1123.299, 8.540767
1123.781, 9.243061
1124.263, 9.477668
1124.745, 9.107332
1125.227, 8.701551
1125.709, 8.451915
1126.191, 8.106882
1126.673, 7.336616
1127.156, 6.556350
1127.638, 6.969000
1128.120, 8.644744
1128.602, 9.180445
1129.084, 8.448147
1129.566, 7.829244
1130.048, 7.595850
1130.530, 7.548923
1131.013, 7.591038
1131.495, 7.664856
1131.977, 7.669106
1132.459, 7.640262
1132.941, 7.762673
1133.423, 8.030568
1133.905, 8.410189
1134.387, 8.882642
1134.870, 9.181870
1135.352, 9.202957
1135.834, 8.927471
1136.316, 8.265888
1136.798, 7.493356
1137.280, 7.146965
1137.762, 7.194665
1138.244, 7.787661
1138.726, 8.704211
1139.208, 8.736527
1139.691, 7.743267
1140.173, 7.090815
1140.655, 7.672212
1141.137, 8.584822
1141.619, 8.819758
1142.101, 8.519471
1142.583, 7.588990
1143.065, 6.448091
1143.548, 6.026912
1144.030, 6.336009
1144.512, 6.939737
1144.994, 7.650426
1145.476, 8.250007
1145.958, 8.535460
1146.440, 8.667749
1146.922, 8.879776
1147.405, 8.980487
1147.887, 8.537374
1148.369, 7.856454
1148.851, 7.658837
1149.333, 7.996420
1149.815, 8.182232
1150.297, 7.796484
1150.779, 7.465792
1151.261, 7.799603
1151.744, 8.058698
1152.226, 7.456082
1152.708, 6.646530
1153.190, 6.482550
1153.672, 6.841397
1154.154, 7.084248
1154.636, 7.052646
1155.118, 7.028432
1155.600, 6.966668
1156.083, 7.099952
1156.565, 7.901053
1157.047, 8.523893
1157.529, 8.141917
1158.011, 7.312691
1158.493, 6.881539
1158.975, 6.894443
1159.457, 7.255647
1159.940, 8.578656
1160.422, 9.233379
1160.904, 8.901796
1161.386, 8.268840
1161.868, 7.149317
1162.350, 6.334883
1162.832, 6.776555
1163.314, 7.980047
1163.796, 8.353764
1164.279, 7.686811
1164.761, 7.355716
1165.243, 7.399548
1165.725, 7.694498
1166.207, 8.330808
1166.689, 8.840664
1167.171, 8.979526
1167.653, 8.761842
1168.135, 8.137592
1168.618, 7.217995
1169.100, 6.515091
1169.582, 6.037844
1170.064, 6.571242
1170.546, 8.150046
1171.028, 9.139138
1171.510, 8.994679
1171.992, 8.510088
1172.474, 8.303471
1172.957, 8.240218
1173.439, 8.046961
1173.921, 7.819065
1174.403, 8.023588
1174.885, 8.424739
1175.367, 7.980916
1175.849, 6.792825
1176.331, 6.267863
1176.814, 6.991540
1177.296, 7.858601
1177.778, 7.824529
1178.260, 7.520981
1178.742, 7.719709
1179.224, 8.073592
1179.706, 8.102378
1180.188, 7.906448
1180.671, 7.735000
1181.153, 7.648841
1181.635, 7.630516
1182.117, 7.689353
1182.599, 7.755738
1183.081, 7.782711
1183.563, 7.816902
1184.045, 7.791187
1184.527, 7.869009
1185.010, 8.338675
1185.492, 9.002728
1185.974, 9.440693
1186.456, 9.599825
1186.938, 9.447620
1187.420, 8.748186
1187.902, 8.087598
1188.384, 7.281960
1188.866, 6.883633
1189.349, 7.373164
1189.831, 8.146506
1190.313, 8.681014
1190.795, 8.956034
1191.277, 8.865939
1191.759, 8.327196
1192.241, 7.738166
1192.723, 6.951816
1193.206, 6.706048
1193.688, 7.284184
1194.170, 7.901735
1194.652, 8.100585
1195.134, 8.107783
1195.616, 8.246840
1196.098, 8.462715
1196.580, 8.483036
1197.063, 8.336674
1197.545, 8.341549
1198.027, 8.502501
1198.509, 8.621847
1198.991, 8.645327
1199.473, 8.671788
1199.955, 8.778337
1200.437, 8.843332
1200.919, 8.699392
1201.401, 8.411736
1201.884, 8.016375
1202.366, 7.602439
1202.848, 7.369333
1203.330, 7.274139
1203.812, 7.010860
1204.294, 6.551276
1204.776, 6.590881
1205.258, 7.954994
1205.741, 9.092343
1206.223, 8.618292
1206.705, 7.951881
1207.187, 8.394177
1207.669, 9.133911
1208.151, 9.004271
1208.633, 8.225262
1209.115, 7.848305
1209.598, 8.127417
1210.080, 8.336021
1210.562, 8.238303
1211.044, 8.250122
1211.526, 8.515378
1212.008, 8.839372
1212.490, 9.282710
1212.972, 9.570475
1213.454, 9.258596
1213.937, 8.534998
1214.419, 8.357110
1214.901, 8.881653
1215.383, 9.131331
1215.865, 9.041090
1216.347, 9.056311
1216.829, 9.280849
1217.311, 9.628220
1217.793, 10.08352
1218.276, 10.33970
1218.758, 9.854580
1219.240, 10.11960
1219.722, 10.05446
1220.204, 9.892033
1220.686, 10.10060
1221.168, 9.842636
1221.650, 9.861923
1222.133, 10.25197
1222.615, 10.26464
1223.097, 9.407663
1223.579, 8.743117
1224.061, 9.688758
1224.543, 10.80292
1225.025, 10.55853
1225.507, 9.768823
1225.990, 9.133726
1226.472, 8.869867
1226.954, 9.430055
1227.436, 10.71773
1227.918, 11.31558
1228.400, 10.40363
1228.882, 9.646268
1229.364, 9.674676
1229.846, 9.601052
1230.328, 8.795457
1230.811, 8.050936
1231.293, 7.980958
1231.775, 8.367238
1232.257, 8.862351
1232.739, 9.464234
1233.221, 9.872781
1233.703, 10.07859
1234.185, 10.08124
1234.668, 9.805390
1235.150, 9.828777
1235.632, 10.39027
1236.114, 10.84284
1236.596, 10.64444
1237.078, 10.23922
1237.560, 10.56494
1238.042, 11.25451
1238.525, 10.78719
1239.007, 9.690441
1239.489, 9.788365
1239.971, 10.95395
1240.453, 12.00445
1240.935, 12.53711
1241.417, 12.59216
1241.899, 12.06219
1242.381, 11.53189
1242.864, 11.59229
1243.346, 11.70471
1243.828, 11.28460
1244.310, 10.77731
1244.792, 10.62428
1245.274, 10.83371
1245.756, 11.50043
1246.238, 12.62194
1246.720, 13.08479
1247.203, 12.05980
1247.685, 11.44488
1248.167, 11.73619
1248.649, 11.88038
1249.131, 11.35834
1249.613, 10.93184
1250.095, 11.24962
1250.577, 11.94509
1251.059, 12.31729
1251.542, 12.38396
1252.024, 12.34053
1252.506, 12.18725
1252.988, 11.88653
1253.470, 11.46741
1253.952, 11.61363
1254.434, 12.48472
1254.916, 13.14439
1255.399, 12.90503
1255.881, 13.36314
1256.363, 12.70362
1256.845, 13.12636
1257.327, 12.59529
1257.809, 11.79648
1258.291, 11.97932
1258.773, 12.73242
1259.255, 12.72008
1259.738, 11.87809
1260.220, 11.79746
1260.702, 13.54970
1261.184, 14.68548
1261.666, 13.77664
1262.148, 12.97286
1262.630, 13.23734
1263.112, 13.78765
1263.594, 14.20496
1264.077, 14.43151
1264.559, 14.31611
1265.041, 13.91870
1265.523, 13.76578
1266.005, 13.90546
1266.487, 13.98947
1266.969, 13.98871
1267.451, 14.16667
1267.934, 14.59324
1268.416, 14.95899
1268.898, 15.09860
1269.380, 14.95513
1269.862, 14.33528
1270.344, 13.60664
1270.826, 13.53201
1271.308, 13.77955
1271.791, 13.72590
1272.273, 13.47700
1272.755, 13.30640
1273.237, 13.27551
1273.719, 13.39073
1274.201, 13.66338
1274.683, 13.92490
1275.165, 13.91515
1275.647, 14.14864
1276.130, 15.46388
1276.612, 16.32471
1277.094, 15.22926
1277.576, 13.74601
1278.058, 13.73804
1278.540, 13.11452
1279.022, 12.92051
1279.504, 13.34054
1279.986, 13.16331
1280.469, 14.17346
1280.951, 14.69727
1281.433, 14.51042
1281.915, 14.29257
1282.397, 14.28824
1282.879, 14.32438
1283.361, 14.25280
1283.843, 14.23322
1284.326, 14.45561
1284.808, 14.92033
##END=



