##NAMES=Belovite-(Ce)
##RRUFFID=R070163
##IDEAL CHEMISTRY=NaCeSr_3_(PO_4_)_3_F
##LOCALITY=Mochalin Log, Kyshtym, Chelyabinsk Oblast', Urals Region, Russia
##OWNER=RRUFF
##SOURCE=Michael Scott
##DESCRIPTION=Brownish red vitreous massive, associated with bastnasite-(La), R070142; 785 Raman signal was overwhelmed by fluorescence and is not posted.
##STATUS=The identification of this mineral has been confirmed only by single crystal X-ray diffraction.
##URL=rruff.info/R070163
157.8955, 3130.706
158.3776, 3127.828
158.8597, 3125.984
159.3418, 3124.984
159.8239, 3127.438
160.3060, 3137.770
160.7882, 3151.905
161.2703, 3162.644
161.7524, 3164.459
162.2345, 3163.877
162.7166, 3164.043
163.1987, 3162.958
163.6808, 3167.522
164.1630, 3186.398
164.6451, 3215.044
165.1272, 3238.604
165.6093, 3240.974
166.0914, 3238.572
166.5735, 3247.149
167.0557, 3284.724
167.5378, 3321.494
168.0199, 3328.887
168.5020, 3310.868
168.9841, 3302.098
169.4662, 3344.146
169.9484, 3405.460
170.4305, 3442.548
170.9126, 3410.258
171.3947, 3361.831
171.8768, 3353.329
172.3589, 3387.806
172.8411, 3425.183
173.3232, 3430.458
173.8053, 3414.102
174.2874, 3399.282
174.7695, 3399.028
175.2516, 3406.381
175.7338, 3412.189
176.2159, 3415.387
176.6980, 3418.092
177.1801, 3424.631
177.6622, 3433.444
178.1443, 3438.167
178.6264, 3428.565
179.1086, 3412.729
179.5907, 3409.038
180.0728, 3423.822
180.5549, 3444.896
181.0370, 3453.514
181.5191, 3450.938
182.0013, 3450.325
182.4834, 3463.603
182.9655, 3487.060
183.4476, 3509.162
183.9297, 3527.102
184.4118, 3542.151
184.8940, 3558.872
185.3761, 3577.675
185.8582, 3590.752
186.3403, 3585.033
186.8224, 3564.154
187.3046, 3551.706
187.7867, 3558.868
188.2688, 3579.281
188.7509, 3590.645
189.2330, 3591.844
189.7151, 3589.986
190.1973, 3593.032
190.6794, 3600.836
191.1615, 3609.515
191.6436, 3618.192
192.1257, 3626.759
192.6078, 3634.475
193.0900, 3641.657
193.5721, 3647.511
194.0542, 3650.199
194.5363, 3649.530
195.0184, 3648.838
195.5005, 3649.184
195.9826, 3650.581
196.4648, 3654.014
196.9469, 3659.077
197.4290, 3666.706
197.9111, 3681.617
198.3932, 3705.781
198.8753, 3725.981
199.3575, 3732.212
199.8396, 3723.186
200.3217, 3716.650
200.8038, 3713.326
201.2859, 3714.163
201.7680, 3724.713
202.2502, 3748.482
202.7323, 3770.808
203.2144, 3779.728
203.6965, 3772.813
204.1786, 3766.558
204.6607, 3762.285
205.1429, 3760.513
205.6250, 3764.957
206.1071, 3776.680
206.5892, 3792.083
207.0713, 3810.563
207.5534, 3835.297
208.0356, 3849.809
208.5177, 3847.920
208.9998, 3830.644
209.4819, 3817.543
209.9640, 3808.773
210.4461, 3803.930
210.9282, 3802.841
211.4104, 3805.880
211.8925, 3811.755
212.3746, 3822.337
212.8567, 3838.454
213.3388, 3844.572
213.8209, 3836.921
214.3031, 3823.626
214.7852, 3814.772
215.2673, 3809.266
215.7494, 3811.105
216.2315, 3823.887
216.7136, 3850.942
217.1958, 3872.051
217.6779, 3888.106
218.1600, 3897.731
218.6421, 3897.437
219.1242, 3882.347
219.6063, 3866.585
220.0885, 3854.638
220.5706, 3846.055
221.0527, 3843.819
221.5348, 3852.118
222.0169, 3864.955
222.4990, 3867.417
222.9812, 3853.427
223.4633, 3839.045
223.9454, 3831.666
224.4275, 3833.310
224.9096, 3837.766
225.3917, 3848.879
225.8739, 3862.280
226.3560, 3862.175
226.8381, 3840.241
227.3202, 3816.794
227.8023, 3801.030
228.2844, 3789.724
228.7665, 3794.894
229.2487, 3826.518
229.7308, 3876.594
230.2129, 3905.018
230.6950, 3902.322
231.1771, 3889.523
231.6592, 3878.519
232.1414, 3867.022
232.6235, 3862.341
233.1056, 3867.034
233.5877, 3880.045
234.0698, 3892.385
234.5519, 3906.996
235.0341, 3917.560
235.5162, 3918.074
235.9983, 3899.353
236.4804, 3888.260
236.9625, 3892.919
237.4446, 3912.257
237.9268, 3917.059
238.4089, 3896.108
238.8910, 3871.973
239.3731, 3865.359
239.8552, 3887.385
240.3373, 3906.504
240.8195, 3916.496
241.3016, 3917.073
241.7837, 3920.871
242.2658, 3931.553
242.7479, 3941.978
243.2300, 3944.087
243.7122, 3930.897
244.1943, 3922.236
244.6764, 3924.054
245.1585, 3937.591
245.6406, 3944.740
246.1227, 3941.375
246.6048, 3935.267
247.0870, 3935.765
247.5691, 3947.962
248.0512, 3957.422
248.5333, 3958.832
249.0154, 3950.073
249.4975, 3950.293
249.9797, 3964.436
250.4618, 3983.341
250.9439, 3995.985
251.4260, 4002.869
251.9081, 4002.072
252.3902, 3988.500
252.8724, 3956.569
253.3545, 3947.371
253.8366, 3973.201
254.3187, 4011.487
254.8008, 4027.854
255.2829, 4008.825
255.7651, 3994.021
256.2472, 3997.223
256.7293, 4023.458
257.2114, 4042.029
257.6935, 4051.400
258.1756, 4054.382
258.6577, 4053.895
259.1399, 4046.123
259.6220, 4043.087
260.1041, 4051.322
260.5862, 4075.554
261.0683, 4087.490
261.5504, 4082.180
262.0326, 4068.861
262.5147, 4063.195
262.9968, 4068.281
263.4789, 4073.810
263.9610, 4075.165
264.4431, 4070.458
264.9253, 4071.446
265.4074, 4080.856
265.8895, 4093.464
266.3716, 4098.730
266.8537, 4092.919
267.3358, 4089.718
267.8180, 4096.059
268.3001, 4114.435
268.7822, 4127.899
269.2643, 4134.840
269.7464, 4138.308
270.2285, 4144.868
270.7107, 4156.332
271.1928, 4164.882
271.6749, 4166.192
272.1570, 4158.917
272.6391, 4153.608
273.1212, 4151.423
273.6034, 4149.866
274.0855, 4142.775
274.5676, 4128.193
275.0497, 4116.506
275.5318, 4113.692
276.0139, 4120.715
276.4961, 4125.397
276.9782, 4126.871
277.4603, 4126.910
277.9424, 4129.518
278.4245, 4135.358
278.9066, 4139.453
279.3888, 4137.551
279.8709, 4129.426
280.3530, 4127.828
280.8351, 4135.143
281.3172, 4145.600
281.7993, 4148.102
282.2815, 4142.064
282.7636, 4135.683
283.2457, 4132.315
283.7278, 4131.950
284.2099, 4136.743
284.6920, 4149.905
285.1741, 4161.424
285.6563, 4150.163
286.1384, 4115.790
286.6205, 4084.020
287.1026, 4068.545
287.5847, 4067.300
288.0668, 4068.726
288.5490, 4073.807
289.0311, 4077.347
289.5132, 4069.041
289.9953, 4049.902
290.4774, 4031.692
290.9595, 4021.448
291.4417, 4017.192
291.9238, 4012.794
292.4059, 4009.041
292.8880, 4001.385
293.3701, 3976.413
293.8522, 3937.964
294.3344, 3910.548
294.8165, 3916.355
295.2986, 3941.810
295.7807, 3951.286
296.2628, 3941.316
296.7449, 3923.911
297.2271, 3915.161
297.7092, 3911.995
298.1913, 3902.673
298.6734, 3873.609
299.1555, 3836.458
299.6376, 3813.521
300.1198, 3806.937
300.6019, 3805.903
301.0840, 3801.723
301.5661, 3794.575
302.0482, 3784.980
302.5303, 3773.514
303.0125, 3759.570
303.4946, 3739.344
303.9767, 3711.825
304.4588, 3688.292
304.9409, 3682.118
305.4230, 3687.276
305.9052, 3691.748
306.3873, 3696.634
306.8694, 3694.643
307.3515, 3673.166
307.8336, 3630.591
308.3157, 3591.954
308.7979, 3579.666
309.2800, 3582.610
309.7621, 3583.787
310.2442, 3579.164
310.7263, 3568.284
311.2084, 3546.076
311.6906, 3512.165
312.1727, 3484.756
312.6548, 3478.604
313.1369, 3483.483
313.6190, 3487.010
314.1011, 3487.230
314.5833, 3482.906
315.0654, 3471.525
315.5475, 3453.150
316.0296, 3435.511
316.5117, 3422.450
316.9938, 3411.475
317.4760, 3400.149
317.9580, 3384.227
318.4402, 3371.360
318.9223, 3366.569
319.4044, 3369.222
319.8865, 3368.773
320.3686, 3361.729
320.8507, 3350.605
321.3329, 3337.283
321.8150, 3313.664
322.2971, 3296.965
322.7792, 3295.316
323.2613, 3306.751
323.7434, 3312.378
324.2256, 3307.158
324.7077, 3296.664
325.1898, 3284.238
325.6719, 3262.041
326.1540, 3247.413
326.6361, 3247.580
327.1183, 3259.217
327.6004, 3261.567
328.0825, 3250.427
328.5646, 3233.128
329.0467, 3213.097
329.5288, 3186.257
330.0110, 3162.109
330.4931, 3137.173
330.9752, 3114.633
331.4573, 3106.923
331.9394, 3124.399
332.4215, 3143.598
332.9037, 3153.845
333.3858, 3150.848
333.8679, 3148.634
334.3500, 3149.379
334.8321, 3150.024
335.3142, 3141.897
335.7964, 3119.447
336.2785, 3099.771
336.7606, 3091.183
337.2427, 3096.942
337.7248, 3098.876
338.2069, 3096.245
338.6891, 3090.688
339.1712, 3084.141
339.6533, 3076.102
340.1354, 3069.769
340.6175, 3068.400
341.0996, 3071.942
341.5818, 3066.631
342.0639, 3049.391
342.5460, 3031.335
343.0281, 3030.750
343.5102, 3047.805
343.9923, 3058.759
344.4745, 3050.089
344.9566, 3027.498
345.4387, 3017.828
345.9208, 3022.080
346.4029, 3032.492
346.8850, 3043.367
347.3672, 3054.210
347.8493, 3062.045
348.3314, 3066.436
348.8135, 3066.979
349.2956, 3058.718
349.7777, 3041.996
350.2599, 3030.351
350.7419, 3041.192
351.2241, 3065.288
351.7062, 3081.952
352.1883, 3082.316
352.6704, 3076.551
353.1525, 3074.539
353.6346, 3076.340
354.1168, 3082.155
354.5989, 3095.440
355.0810, 3111.691
355.5631, 3124.980
356.0452, 3132.758
356.5273, 3139.472
357.0095, 3148.651
357.4916, 3159.529
357.9737, 3169.634
358.4558, 3176.658
358.9379, 3183.203
359.4200, 3190.822
359.9022, 3199.133
360.3843, 3210.267
360.8664, 3226.238
361.3485, 3245.665
361.8306, 3265.727
362.3127, 3288.182
362.7949, 3309.075
363.2770, 3326.394
363.7591, 3339.364
364.2412, 3351.118
364.7233, 3359.097
365.2054, 3367.251
365.6876, 3380.392
366.1697, 3396.577
366.6518, 3420.569
367.1339, 3459.258
367.6160, 3517.233
368.0981, 3557.160
368.5803, 3566.641
369.0624, 3564.825
369.5445, 3567.236
370.0266, 3571.780
370.5087, 3583.641
370.9908, 3605.658
371.4730, 3636.829
371.9551, 3668.133
372.4372, 3705.517
372.9193, 3735.454
373.4014, 3744.507
373.8835, 3720.558
374.3657, 3713.012
374.8478, 3731.063
375.3299, 3766.962
375.8120, 3796.647
376.2941, 3820.701
376.7762, 3837.355
377.2584, 3843.210
377.7405, 3837.562
378.2226, 3833.365
378.7047, 3830.850
379.1868, 3830.755
379.6689, 3835.253
380.1511, 3844.329
380.6332, 3853.941
381.1153, 3865.302
381.5974, 3876.307
382.0795, 3874.467
382.5616, 3857.830
383.0438, 3839.172
383.5259, 3834.260
384.0080, 3839.946
384.4901, 3844.365
384.9722, 3841.742
385.4543, 3835.693
385.9364, 3829.986
386.4185, 3824.762
386.9007, 3823.527
387.3828, 3835.870
387.8649, 3852.504
388.3470, 3858.513
388.8291, 3841.548
389.3112, 3821.517
389.7934, 3816.074
390.2755, 3822.143
390.7576, 3826.726
391.2397, 3822.390
391.7218, 3814.114
392.2039, 3805.546
392.6861, 3796.436
393.1682, 3789.032
393.6503, 3784.483
394.1324, 3782.271
394.6145, 3781.302
395.0966, 3782.968
395.5788, 3784.400
396.0609, 3784.446
396.5430, 3782.933
397.0251, 3780.250
397.5072, 3780.205
397.9893, 3777.782
398.4715, 3766.440
398.9536, 3728.352
399.4357, 3701.461
399.9178, 3698.706
400.3999, 3722.358
400.8820, 3728.027
401.3642, 3704.447
401.8463, 3674.137
402.3284, 3655.977
402.8105, 3657.327
403.2926, 3651.608
403.7747, 3630.991
404.2569, 3601.205
404.7390, 3589.161
405.2211, 3600.636
405.7032, 3613.119
406.1853, 3613.394
406.6674, 3601.101
407.1496, 3583.439
407.6317, 3558.491
408.1138, 3532.660
408.5959, 3516.804
409.0780, 3510.785
409.5602, 3509.007
410.0423, 3516.578
410.5244, 3526.618
411.0065, 3511.496
411.4886, 3467.463
411.9707, 3423.541
412.4529, 3412.451
412.9350, 3425.315
413.4171, 3438.482
413.8992, 3449.791
414.3813, 3452.537
414.8634, 3432.902
415.3456, 3393.412
415.8277, 3357.695
416.3098, 3346.055
416.7919, 3344.047
417.2740, 3336.036
417.7561, 3317.849
418.2382, 3293.708
418.7203, 3260.311
419.2025, 3222.070
419.6846, 3191.426
420.1667, 3176.745
420.6488, 3167.548
421.1309, 3159.068
421.6130, 3151.808
422.0952, 3142.465
422.5773, 3128.046
423.0594, 3112.039
423.5415, 3098.769
424.0236, 3097.591
424.5057, 3089.756
424.9879, 3067.974
425.4700, 3031.657
425.9521, 3004.217
426.4342, 2987.749
426.9163, 2978.323
427.3984, 2975.060
427.8806, 2984.480
428.3627, 2982.367
428.8448, 2961.965
429.3269, 2929.592
429.8090, 2907.127
430.2911, 2896.583
430.7733, 2888.339
431.2554, 2877.098
431.7375, 2862.976
432.2196, 2849.369
432.7017, 2836.328
433.1838, 2824.267
433.6660, 2815.783
434.1481, 2810.017
434.6302, 2800.474
435.1123, 2778.263
435.5944, 2752.276
436.0765, 2746.577
436.5587, 2761.048
437.0408, 2770.319
437.5229, 2745.124
438.0050, 2701.968
438.4871, 2667.412
438.9692, 2649.461
439.4514, 2641.684
439.9335, 2647.316
440.4156, 2660.816
440.8977, 2663.906
441.3798, 2634.780
441.8619, 2600.496
442.3441, 2580.447
442.8262, 2581.849
443.3083, 2583.527
443.7904, 2576.530
444.2725, 2566.320
444.7546, 2560.363
445.2368, 2569.386
445.7189, 2573.633
446.2010, 2567.216
446.6831, 2549.359
447.1652, 2529.193
447.6473, 2501.079
448.1295, 2475.238
448.6116, 2459.756
449.0937, 2460.435
449.5758, 2458.955
450.0579, 2452.847
450.5400, 2443.917
451.0221, 2438.129
451.5042, 2436.765
451.9864, 2434.586
452.4685, 2428.903
452.9506, 2419.677
453.4327, 2408.052
453.9148, 2392.459
454.3969, 2379.672
454.8791, 2384.317
455.3612, 2403.134
455.8433, 2411.552
456.3254, 2394.528
456.8075, 2365.639
457.2896, 2352.100
457.7718, 2352.774
458.2539, 2356.307
458.7360, 2357.599
459.2181, 2355.378
459.7002, 2347.045
460.1823, 2329.713
460.6645, 2311.349
461.1466, 2296.850
461.6287, 2285.647
462.1108, 2276.547
462.5929, 2267.186
463.0750, 2261.167
463.5572, 2262.039
464.0393, 2271.155
464.5214, 2277.979
465.0035, 2281.400
465.4856, 2280.481
465.9677, 2274.264
466.4499, 2249.191
466.9320, 2234.862
467.4141, 2242.542
467.8962, 2265.748
468.3783, 2270.339
468.8604, 2242.797
469.3426, 2215.521
469.8247, 2205.425
470.3068, 2220.153
470.7889, 2222.836
471.2710, 2209.609
471.7531, 2189.925
472.2353, 2177.586
472.7174, 2172.994
473.1995, 2170.826
473.6816, 2170.744
474.1637, 2171.415
474.6458, 2165.826
475.1280, 2153.701
475.6101, 2145.371
476.0922, 2155.281
476.5743, 2175.344
477.0564, 2185.171
477.5385, 2178.898
478.0207, 2166.791
478.5028, 2154.769
478.9849, 2144.707
479.4670, 2141.276
479.9491, 2153.005
480.4312, 2167.840
480.9134, 2177.379
481.3955, 2180.968
481.8776, 2181.753
482.3597, 2180.577
482.8418, 2177.394
483.3239, 2172.152
483.8060, 2157.548
484.2881, 2149.066
484.7703, 2154.299
485.2524, 2169.017
485.7345, 2176.160
486.2166, 2169.302
486.6987, 2162.141
487.1808, 2159.962
487.6630, 2164.015
488.1451, 2168.730
488.6272, 2176.006
489.1093, 2181.402
489.5914, 2177.926
490.0735, 2164.137
490.5557, 2151.398
491.0378, 2140.657
491.5199, 2133.933
492.0020, 2141.241
492.4841, 2162.912
492.9662, 2184.190
493.4484, 2195.305
493.9305, 2198.065
494.4126, 2194.726
494.8947, 2183.843
495.3768, 2174.495
495.8589, 2176.772
496.3411, 2187.249
496.8232, 2198.798
497.3053, 2209.911
497.7874, 2219.793
498.2695, 2229.976
498.7516, 2239.674
499.2338, 2241.888
499.7159, 2219.006
500.1980, 2196.782
500.6801, 2194.693
501.1622, 2232.170
501.6443, 2262.035
502.1265, 2275.244
502.6086, 2277.486
503.0907, 2278.955
503.5728, 2277.453
504.0549, 2278.234
504.5370, 2282.427
505.0192, 2290.033
505.5013, 2301.602
505.9834, 2319.099
506.4655, 2336.395
506.9476, 2348.081
507.4297, 2353.968
507.9119, 2359.724
508.3940, 2366.292
508.8761, 2372.623
509.3582, 2374.245
509.8403, 2372.419
510.3224, 2376.783
510.8046, 2397.399
511.2867, 2425.291
511.7688, 2445.969
512.2509, 2458.942
512.7330, 2469.677
513.2151, 2482.225
513.6973, 2494.811
514.1794, 2505.092
514.6615, 2510.754
515.1436, 2516.705
515.6257, 2526.810
516.1078, 2539.054
516.5900, 2548.348
517.0721, 2547.052
517.5542, 2548.573
518.0363, 2559.561
518.5184, 2582.894
519.0005, 2600.997
519.4827, 2612.869
519.9648, 2620.273
520.4469, 2623.139
520.9290, 2617.265
521.4111, 2618.877
521.8932, 2631.673
522.3754, 2651.325
522.8575, 2668.384
523.3396, 2683.334
523.8217, 2692.518
524.3038, 2690.548
524.7859, 2680.723
525.2681, 2679.099
525.7502, 2686.208
526.2323, 2694.041
526.7144, 2697.784
527.1965, 2696.648
527.6786, 2687.583
528.1608, 2664.903
528.6429, 2643.296
529.1250, 2641.248
529.6071, 2650.430
530.0892, 2650.911
530.5714, 2628.828
531.0535, 2599.860
531.5356, 2571.154
532.0176, 2543.144
532.4998, 2517.277
532.9819, 2492.803
533.4640, 2471.081
533.9461, 2452.866
534.4282, 2439.953
534.9103, 2428.184
535.3925, 2419.075
535.8746, 2410.275
536.3567, 2395.368
536.8388, 2372.052
537.3209, 2350.231
537.8030, 2336.656
538.2852, 2329.368
538.7673, 2304.657
539.2494, 2259.651
539.7315, 2217.490
540.2136, 2204.239
540.6957, 2211.549
541.1779, 2210.450
541.6600, 2192.663
542.1421, 2173.693
542.6242, 2177.572
543.1063, 2194.186
543.5884, 2199.488
544.0706, 2168.608
544.5527, 2133.436
545.0348, 2117.657
545.5169, 2120.790
545.9990, 2119.437
546.4811, 2094.364
546.9633, 2069.418
547.4454, 2061.218
547.9275, 2091.081
548.4096, 2106.133
548.8917, 2097.419
549.3738, 2076.765
549.8560, 2061.456
550.3381, 2052.185
550.8202, 2046.818
551.3023, 2045.601
551.7844, 2047.944
552.2665, 2052.198
552.7487, 2059.477
553.2308, 2061.594
553.7129, 2047.721
554.1950, 2022.630
554.6771, 2008.423
555.1592, 2008.286
555.6414, 2012.037
556.1235, 2009.089
556.6056, 2001.816
557.0877, 1994.952
557.5698, 1991.088
558.0519, 1987.418
558.5341, 1980.622
559.0162, 1971.902
559.4983, 1966.269
559.9804, 1971.048
560.4625, 1974.858
560.9446, 1970.737
561.4268, 1954.938
561.9089, 1942.960
562.3910, 1936.048
562.8731, 1933.044
563.3552, 1933.661
563.8373, 1940.544
564.3195, 1944.648
564.8016, 1944.668
565.2837, 1941.421
565.7658, 1936.502
566.2479, 1929.716
566.7300, 1922.958
567.2122, 1916.944
567.6943, 1911.698
568.1764, 1908.482
568.6585, 1907.310
569.1406, 1903.881
569.6227, 1892.243
570.1049, 1876.580
570.5870, 1862.593
571.0691, 1849.895
571.5512, 1843.703
572.0333, 1854.359
572.5154, 1872.736
572.9976, 1883.573
573.4797, 1876.790
573.9618, 1867.129
574.4439, 1858.350
574.9260, 1850.637
575.4081, 1844.136
575.8903, 1839.740
576.3724, 1835.408
576.8545, 1830.964
577.3366, 1827.927
577.8187, 1817.069
578.3008, 1794.437
578.7830, 1771.289
579.2651, 1764.769
579.7472, 1774.318
580.2293, 1776.581
580.7114, 1763.101
581.1935, 1743.567
581.6757, 1735.071
582.1578, 1736.160
582.6399, 1739.997
583.1220, 1745.562
583.6041, 1750.207
584.0862, 1750.099
584.5684, 1745.068
585.0505, 1740.962
585.5326, 1740.972
586.0147, 1742.983
586.4968, 1745.817
586.9789, 1755.353
587.4611, 1756.019
587.9432, 1736.586
588.4253, 1710.240
588.9074, 1697.750
589.3895, 1707.191
589.8716, 1714.643
590.3538, 1714.589
590.8359, 1708.135
591.3180, 1699.875
591.8001, 1689.158
592.2822, 1680.837
592.7643, 1677.305
593.2465, 1678.626
593.7286, 1687.065
594.2107, 1703.726
594.6928, 1719.581
595.1749, 1726.631
595.6570, 1727.316
596.1392, 1724.956
596.6213, 1716.506
597.1034, 1711.458
597.5854, 1721.027
598.0676, 1737.936
598.5497, 1745.726
599.0318, 1729.820
599.5139, 1713.891
599.9960, 1707.569
600.4781, 1711.179
600.9603, 1708.084
601.4424, 1691.233
601.9245, 1677.119
602.4066, 1677.349
602.8887, 1694.774
603.3708, 1709.274
603.8530, 1720.855
604.3351, 1727.924
604.8172, 1726.694
605.2993, 1718.221
605.7814, 1708.636
606.2635, 1698.314
606.7457, 1689.627
607.2278, 1685.498
607.7099, 1685.697
608.1920, 1689.607
608.6741, 1700.686
609.1563, 1712.464
609.6384, 1720.843
610.1205, 1725.557
610.6026, 1728.193
611.0847, 1730.460
611.5668, 1729.910
612.0490, 1723.924
612.5311, 1703.733
613.0132, 1697.078
613.4953, 1712.909
613.9774, 1734.217
614.4595, 1735.086
614.9417, 1711.559
615.4238, 1692.952
615.9059, 1687.162
616.3880, 1688.808
616.8701, 1686.344
617.3522, 1679.941
617.8344, 1671.650
618.3165, 1657.515
618.7986, 1644.581
619.2807, 1645.970
619.7628, 1661.392
620.2449, 1673.540
620.7271, 1667.857
621.2092, 1657.053
621.6913, 1652.142
622.1734, 1659.533
622.6555, 1662.903
623.1376, 1653.130
623.6198, 1640.396
624.1019, 1637.797
624.5840, 1653.312
625.0661, 1663.358
625.5482, 1663.594
626.0303, 1656.405
626.5125, 1647.420
626.9946, 1636.173
627.4767, 1627.779
627.9588, 1626.691
628.4409, 1630.130
628.9230, 1629.496
629.4052, 1624.907
629.8873, 1619.659
630.3694, 1614.835
630.8515, 1611.437
631.3336, 1611.406
631.8157, 1616.302
632.2979, 1619.551
632.7800, 1616.441
633.2621, 1610.653
633.7442, 1606.545
634.2263, 1608.205
634.7084, 1607.187
635.1906, 1600.528
635.6727, 1591.154
636.1548, 1587.115
636.6369, 1591.205
637.1190, 1592.412
637.6011, 1585.495
638.0833, 1572.581
638.5654, 1563.730
639.0475, 1559.024
639.5296, 1557.809
640.0117, 1564.034
640.4938, 1572.255
640.9760, 1570.234
641.4581, 1555.635
641.9402, 1543.165
642.4223, 1545.497
642.9044, 1554.529
643.3865, 1561.887
643.8687, 1570.268
644.3508, 1569.770
644.8329, 1547.921
645.3150, 1517.505
645.7971, 1503.908
646.2792, 1519.159
646.7614, 1530.082
647.2435, 1528.249
647.7256, 1516.607
648.2077, 1508.437
648.6898, 1503.634
649.1719, 1502.549
649.6541, 1510.005
650.1362, 1521.126
650.6183, 1517.294
651.1004, 1498.151
651.5825, 1482.003
652.0646, 1487.158
652.5468, 1501.864
653.0289, 1512.490
653.5110, 1515.370
653.9931, 1517.151
654.4752, 1525.892
654.9573, 1533.019
655.4395, 1527.813
655.9216, 1490.632
656.4037, 1465.475
656.8858, 1461.073
657.3679, 1469.550
657.8500, 1470.229
658.3322, 1460.911
658.8143, 1453.498
659.2964, 1453.252
659.7785, 1457.954
660.2606, 1460.079
660.7427, 1459.699
661.2249, 1458.335
661.7070, 1457.274
662.1891, 1455.719
662.6712, 1451.242
663.1533, 1443.244
663.6354, 1438.810
664.1175, 1448.135
664.5996, 1459.209
665.0817, 1461.354
665.5638, 1445.268
666.0460, 1432.435
666.5281, 1423.313
667.0102, 1418.456
667.4923, 1420.252
667.9744, 1432.681
668.4565, 1438.062
668.9387, 1431.004
669.4208, 1417.180
669.9029, 1410.553
670.3850, 1410.488
670.8671, 1409.527
671.3492, 1400.723
671.8314, 1390.481
672.3135, 1389.021
672.7956, 1395.198
673.2777, 1401.546
673.7598, 1404.951
674.2419, 1406.189
674.7241, 1405.362
675.2062, 1402.086
675.6883, 1398.795
676.1704, 1393.043
676.6525, 1389.631
677.1346, 1393.271
677.6168, 1409.240
678.0989, 1414.725
678.5810, 1405.475
679.0631, 1391.684
679.5452, 1389.344
680.0273, 1397.036
680.5095, 1400.013
680.9916, 1392.774
681.4737, 1382.125
681.9558, 1374.167
682.4379, 1369.723
682.9200, 1370.735
683.4022, 1388.049
683.8843, 1401.941
684.3664, 1398.913
684.8485, 1381.319
685.3306, 1368.126
685.8127, 1365.169
686.2949, 1364.918
686.7770, 1366.277
687.2591, 1369.745
687.7412, 1365.958
688.2233, 1352.491
688.7054, 1338.894
689.1876, 1333.709
689.6697, 1335.452
690.1518, 1335.260
690.6339, 1332.112
691.1160, 1328.888
691.5981, 1330.067
692.0803, 1332.594
692.5624, 1331.437
693.0445, 1322.924
693.5266, 1314.831
694.0087, 1311.412
694.4908, 1310.403
694.9730, 1308.051
695.4551, 1303.912
695.9372, 1298.047
696.4193, 1288.521
696.9014, 1277.708
697.3835, 1273.925
697.8657, 1278.373
698.3478, 1283.560
698.8299, 1287.398
699.3120, 1289.381
699.7941, 1285.528
700.2762, 1276.681
700.7584, 1271.564
701.2405, 1284.425
701.7226, 1299.032
702.2047, 1295.864
702.6868, 1272.504
703.1689, 1251.245
703.6511, 1238.444
704.1332, 1232.174
704.6153, 1232.331
705.0974, 1244.088
705.5795, 1249.014
706.0616, 1244.654
706.5438, 1236.453
707.0259, 1229.948
707.5080, 1225.143
707.9901, 1220.633
708.4722, 1215.729
708.9543, 1212.331
709.4365, 1214.823
709.9186, 1221.024
710.4007, 1225.008
710.8828, 1223.603
711.3649, 1220.435
711.8470, 1218.087
712.3292, 1215.845
712.8113, 1211.836
713.2934, 1201.204
713.7755, 1193.590
714.2576, 1192.782
714.7397, 1197.606
715.2219, 1200.760
715.7040, 1202.467
716.1861, 1201.731
716.6682, 1196.908
717.1503, 1188.977
717.6324, 1183.680
718.1146, 1181.053
718.5967, 1178.693
719.0788, 1172.486
719.5609, 1166.513
720.0430, 1167.420
720.5251, 1176.649
721.0073, 1184.710
721.4894, 1187.450
721.9715, 1186.833
722.4536, 1184.266
722.9357, 1178.968
723.4178, 1173.375
723.9000, 1166.840
724.3821, 1160.734
724.8642, 1157.452
725.3463, 1157.384
725.8284, 1154.444
726.3105, 1146.095
726.7927, 1138.213
727.2748, 1142.847
727.7569, 1155.462
728.2390, 1162.864
728.7211, 1155.506
729.2032, 1146.491
729.6853, 1145.563
730.1674, 1149.943
730.6495, 1152.736
731.1317, 1151.739
731.6138, 1149.246
732.0959, 1145.166
732.5780, 1139.980
733.0601, 1136.355
733.5422, 1134.428
734.0244, 1133.621
734.5065, 1133.919
734.9886, 1135.101
735.4707, 1136.095
735.9528, 1136.936
736.4349, 1138.305
736.9171, 1143.346
737.3992, 1147.664
737.8813, 1145.840
738.3634, 1137.227
738.8455, 1126.981
739.3276, 1113.525
739.8098, 1101.654
740.2919, 1094.932
740.7740, 1094.459
741.2561, 1095.427
741.7382, 1097.315
742.2203, 1101.482
742.7025, 1112.083
743.1846, 1128.505
743.6667, 1134.800
744.1488, 1127.714
744.6309, 1116.299
745.1130, 1109.076
745.5952, 1105.603
746.0773, 1105.830
746.5594, 1112.864
747.0415, 1118.016
747.5236, 1115.202
748.0057, 1108.356
748.4879, 1103.965
748.9700, 1106.322
749.4521, 1105.723
749.9342, 1099.418
750.4163, 1090.473
750.8984, 1086.442
751.3806, 1087.631
751.8627, 1090.076
752.3448, 1093.331
752.8269, 1096.090
753.3090, 1095.984
753.7911, 1093.228
754.2733, 1088.576
754.7554, 1077.276
755.2375, 1068.715
755.7196, 1070.209
756.2017, 1080.622
756.6838, 1090.454
757.1660, 1102.018
757.6481, 1107.784
758.1302, 1102.601
758.6123, 1087.319
759.0944, 1080.968
759.5765, 1084.871
760.0587, 1090.786
760.5408, 1092.940
761.0229, 1092.925
761.5050, 1096.452
761.9871, 1103.512
762.4692, 1107.296
762.9514, 1099.136
763.4335, 1088.110
763.9156, 1082.328
764.3977, 1084.094
764.8798, 1085.341
765.3619, 1082.264
765.8441, 1080.272
766.3262, 1083.549
766.8083, 1094.129
767.2904, 1101.343
767.7725, 1104.794
768.2546, 1105.687
768.7368, 1104.468
769.2189, 1101.703
769.7010, 1099.006
770.1831, 1096.501
770.6652, 1094.812
771.1473, 1093.975
771.6295, 1094.446
772.1116, 1096.839
772.5937, 1102.946
773.0758, 1108.562
773.5579, 1111.989
774.0400, 1115.264
774.5222, 1122.430
775.0043, 1136.444
775.4864, 1141.132
775.9685, 1131.370
776.4506, 1115.842
776.9327, 1108.154
777.4149, 1107.256
777.8970, 1109.190
778.3791, 1113.734
778.8612, 1118.954
779.3433, 1124.248
779.8254, 1128.975
780.3076, 1131.862
780.7897, 1131.428
781.2718, 1130.430
781.7539, 1129.018
782.2360, 1127.551
782.7181, 1126.669
783.2003, 1125.897
783.6824, 1128.153
784.1645, 1135.660
784.6466, 1145.633
785.1287, 1150.455
785.6108, 1151.412
786.0930, 1154.712
786.5751, 1167.125
787.0572, 1180.300
787.5393, 1189.536
788.0214, 1194.457
788.5035, 1194.114
788.9857, 1177.903
789.4678, 1167.953
789.9499, 1174.536
790.4320, 1194.760
790.9141, 1200.621
791.3962, 1189.383
791.8784, 1179.505
792.3605, 1182.850
792.8426, 1194.763
793.3247, 1205.552
793.8068, 1214.875
794.2889, 1220.746
794.7711, 1218.860
795.2531, 1215.327
795.7352, 1212.681
796.2173, 1211.001
796.6995, 1217.030
797.1816, 1238.906
797.6637, 1259.432
798.1458, 1270.065
798.6279, 1270.500
799.1100, 1273.696
799.5922, 1279.727
800.0743, 1287.652
800.5564, 1297.981
801.0385, 1309.227
801.5206, 1319.806
802.0027, 1329.548
802.4849, 1334.469
802.9670, 1322.912
803.4491, 1312.475
803.9312, 1316.146
804.4133, 1338.954
804.8954, 1364.247
805.3776, 1396.831
805.8597, 1424.546
806.3418, 1434.355
806.8239, 1426.564
807.3060, 1432.357
807.7881, 1453.769
808.2703, 1477.170
808.7524, 1486.021
809.2345, 1490.667
809.7166, 1507.919
810.1987, 1542.437
810.6808, 1574.034
811.1630, 1594.177
811.6451, 1607.857
812.1272, 1617.640
812.6093, 1617.632
813.0914, 1633.524
813.5735, 1671.420
814.0557, 1712.421
814.5378, 1733.635
815.0199, 1740.165
815.5020, 1761.417
815.9841, 1802.067
816.4662, 1843.633
816.9484, 1864.494
817.4305, 1879.820
817.9126, 1907.774
818.3947, 1957.330
818.8768, 2005.006
819.3589, 2041.996
819.8411, 2077.548
820.3232, 2119.817
820.8053, 2172.132
821.2874, 2214.867
821.7695, 2244.145
822.2516, 2274.227
822.7338, 2328.060
823.2159, 2395.101
823.6980, 2444.343
824.1801, 2465.854
824.6622, 2492.938
825.1443, 2549.115
825.6265, 2621.777
826.1086, 2699.094
826.5907, 2792.184
827.0728, 2865.978
827.5549, 2909.823
828.0370, 2947.670
828.5192, 3005.489
829.0013, 3083.936
829.4834, 3162.438
829.9655, 3239.663
830.4476, 3317.698
830.9297, 3401.259
831.4119, 3487.446
831.8940, 3571.144
832.3761, 3649.347
832.8582, 3733.231
833.3403, 3830.807
833.8224, 3933.124
834.3046, 4030.042
834.7867, 4119.165
835.2688, 4208.782
835.7509, 4299.688
836.2330, 4391.978
836.7151, 4489.500
837.1973, 4588.387
837.6794, 4679.277
838.1615, 4759.048
838.6436, 4835.623
839.1257, 4910.726
839.6078, 4988.274
840.0900, 5073.813
840.5721, 5176.221
841.0542, 5268.529
841.5363, 5346.266
842.0184, 5415.808
842.5005, 5483.880
842.9827, 5550.894
843.4648, 5606.729
843.9469, 5648.779
844.4290, 5689.367
844.9111, 5748.506
845.3932, 5812.429
845.8754, 5858.034
846.3575, 5878.109
846.8396, 5890.723
847.3217, 5903.295
847.8038, 5911.641
848.2859, 5910.596
848.7681, 5892.188
849.2502, 5891.218
849.7323, 5916.785
850.2144, 5936.775
850.6965, 5908.382
851.1786, 5846.146
851.6608, 5806.984
852.1429, 5799.920
852.6250, 5795.210
853.1071, 5778.145
853.5892, 5748.107
854.0714, 5703.516
854.5535, 5640.011
855.0356, 5574.222
855.5177, 5511.976
855.9998, 5442.465
856.4819, 5350.925
856.9641, 5236.045
857.4462, 5142.273
857.9283, 5071.300
858.4104, 5007.729
858.8925, 4935.297
859.3746, 4862.097
859.8568, 4802.102
860.3389, 4757.948
860.8210, 4706.307
861.3030, 4626.863
861.7852, 4546.811
862.2673, 4484.345
862.7494, 4444.419
863.2315, 4384.818
863.7136, 4303.212
864.1957, 4215.892
864.6779, 4129.951
865.1600, 4049.168
865.6421, 3989.492
866.1242, 3949.981
866.6063, 3910.607
867.0884, 3862.041
867.5706, 3807.074
868.0527, 3745.435
868.5348, 3676.490
869.0169, 3613.639
869.4990, 3555.022
869.9811, 3507.796
870.4633, 3483.170
870.9454, 3473.838
871.4275, 3430.442
871.9096, 3355.910
872.3917, 3283.926
872.8738, 3237.796
873.3560, 3204.100
873.8381, 3175.789
874.3202, 3150.872
874.8023, 3119.167
875.2844, 3066.853
875.7665, 3019.458
876.2487, 2982.384
876.7308, 2956.022
877.2129, 2947.920
877.6950, 2958.797
878.1771, 2962.168
878.6592, 2944.620
879.1414, 2912.937
879.6235, 2867.890
880.1056, 2815.531
880.5877, 2774.102
881.0698, 2758.637
881.5519, 2746.897
882.0341, 2735.740
882.5162, 2722.259
882.9983, 2695.131
883.4804, 2649.497
883.9625, 2615.374
884.4446, 2603.102
884.9268, 2603.527
885.4089, 2604.602
885.8910, 2605.063
886.3731, 2601.552
886.8552, 2590.062
887.3373, 2577.765
887.8195, 2564.764
888.3016, 2554.078
888.7837, 2551.521
889.2658, 2563.780
889.7479, 2567.636
890.2300, 2559.662
890.7122, 2543.663
891.1943, 2519.344
891.6764, 2491.050
892.1585, 2475.939
892.6406, 2480.063
893.1227, 2490.189
893.6049, 2504.627
894.0870, 2515.759
894.5691, 2514.098
895.0512, 2482.964
895.5333, 2468.385
896.0154, 2478.748
896.4976, 2492.701
896.9797, 2485.602
897.4618, 2460.887
897.9439, 2446.459
898.4260, 2444.534
898.9081, 2451.759
899.3903, 2479.129
899.8724, 2505.618
900.3545, 2506.877
900.8366, 2473.001
901.3187, 2451.283
901.8008, 2451.770
902.2830, 2458.072
902.7651, 2462.796
903.2472, 2465.815
903.7293, 2464.263
904.2114, 2458.081
904.6935, 2448.959
905.1757, 2431.806
905.6578, 2416.471
906.1399, 2415.643
906.6220, 2428.352
907.1041, 2441.321
907.5862, 2456.299
908.0684, 2464.476
908.5505, 2461.617
909.0326, 2449.797
909.5147, 2438.721
909.9968, 2428.327
910.4789, 2417.437
910.9611, 2401.300
911.4432, 2388.677
911.9253, 2397.202
912.4074, 2418.663
912.8895, 2432.491
913.3716, 2417.641
913.8538, 2411.122
914.3359, 2430.397
914.8180, 2459.053
915.3001, 2464.052
915.7822, 2442.365
916.2643, 2427.458
916.7465, 2427.913
917.2286, 2433.278
917.7107, 2429.157
918.1928, 2420.630
918.6749, 2417.317
919.1570, 2426.945
919.6392, 2431.129
920.1213, 2417.637
920.6034, 2400.384
921.0855, 2392.427
921.5676, 2396.222
922.0497, 2395.201
922.5319, 2387.528
923.0140, 2381.365
923.4961, 2393.696
923.9782, 2409.516
924.4603, 2398.799
924.9424, 2356.795
925.4246, 2324.072
925.9067, 2323.292
926.3888, 2333.179
926.8708, 2342.270
927.3530, 2350.370
927.8351, 2362.461
928.3172, 2379.781
928.7993, 2393.839
929.2814, 2401.138
929.7635, 2401.300
930.2457, 2389.290
930.7278, 2368.135
931.2099, 2351.705
931.6920, 2344.344
932.1741, 2344.518
932.6563, 2355.999
933.1384, 2374.045
933.6205, 2386.079
934.1026, 2391.877
934.5847, 2392.579
935.0668, 2386.208
935.5490, 2379.301
936.0311, 2383.217
936.5132, 2394.198
936.9953, 2404.661
937.4774, 2415.588
937.9595, 2420.163
938.4417, 2406.069
938.9238, 2390.412
939.4059, 2392.968
939.8880, 2417.698
940.3701, 2440.656
940.8522, 2460.868
941.3344, 2475.691
941.8165, 2481.611
942.2986, 2480.515
942.7807, 2472.646
943.2628, 2457.060
943.7449, 2448.416
944.2271, 2457.902
944.7092, 2471.299
945.1913, 2480.940
945.6734, 2486.798
946.1555, 2491.337
946.6376, 2494.493
947.1198, 2496.593
947.6019, 2495.915
948.0840, 2495.385
948.5661, 2502.208
949.0482, 2513.782
949.5303, 2520.041
950.0125, 2512.438
950.4946, 2504.120
950.9767, 2500.617
951.4588, 2498.473
951.9409, 2486.614
952.4230, 2463.932
952.9052, 2450.923
953.3873, 2455.976
953.8694, 2465.101
954.3515, 2462.095
954.8336, 2450.926
955.3157, 2437.767
955.7979, 2424.639
956.2800, 2408.571
956.7621, 2383.724
957.2442, 2360.781
957.7263, 2352.419
958.2084, 2359.210
958.6906, 2352.928
959.1727, 2331.721
959.6548, 2307.203
960.1369, 2289.265
960.6190, 2273.540
961.1011, 2255.572
961.5833, 2234.841
962.0654, 2214.742
962.5475, 2195.628
963.0296, 2177.200
963.5117, 2158.884
963.9938, 2141.313
964.4760, 2130.545
964.9581, 2125.494
965.4402, 2115.577
965.9223, 2093.204
966.4044, 2066.666
966.8865, 2040.107
967.3687, 2015.036
967.8508, 1995.469
968.3329, 1986.720
968.8150, 1975.318
969.2971, 1959.143
969.7792, 1941.096
970.2614, 1923.286
970.7435, 1906.705
971.2256, 1896.488
971.7077, 1894.664
972.1898, 1891.563
972.6719, 1881.124
973.1541, 1865.689
973.6362, 1844.319
974.1183, 1813.676
974.6004, 1799.489
975.0825, 1808.231
975.5646, 1815.327
976.0468, 1803.303
976.5289, 1778.699
977.0110, 1758.314
977.4931, 1742.226
977.9752, 1730.813
978.4573, 1728.991
978.9395, 1726.970
979.4216, 1718.591
979.9037, 1706.849
980.3858, 1701.172
980.8679, 1704.683
981.3500, 1696.693
981.8322, 1669.228
982.3143, 1637.867
982.7964, 1624.029
983.2785, 1622.235
983.7606, 1623.748
984.2427, 1628.881
984.7249, 1630.109
985.2070, 1620.590
985.6891, 1610.081
986.1712, 1604.749
986.6533, 1604.754
987.1354, 1610.864
987.6176, 1623.619
988.0997, 1629.955
988.5818, 1608.996
989.0639, 1584.393
989.5460, 1588.129
990.0281, 1615.237
990.5103, 1627.401
990.9924, 1604.173
991.4745, 1580.756
991.9566, 1563.089
992.4387, 1551.285
992.9208, 1547.384
993.4029, 1550.316
993.8850, 1554.415
994.3671, 1560.943
994.8492, 1560.974
995.3314, 1538.173
995.8135, 1509.860
996.2956, 1497.849
996.7777, 1515.072
997.2598, 1519.743
997.7419, 1508.066
998.2241, 1494.310
998.7062, 1491.834
999.1883, 1496.542
999.6704, 1499.711
1000.153, 1500.705
1000.635, 1498.076
1001.117, 1487.960
1001.599, 1477.063
1002.081, 1466.460
1002.563, 1457.769
1003.045, 1459.499
1003.527, 1473.399
1004.009, 1481.736
1004.492, 1478.456
1004.974, 1468.685
1005.456, 1454.025
1005.938, 1439.212
1006.420, 1431.855
1006.902, 1438.699
1007.384, 1444.573
1007.866, 1446.325
1008.349, 1447.838
1008.831, 1455.246
1009.313, 1467.399
1009.795, 1463.891
1010.277, 1444.390
1010.759, 1425.338
1011.241, 1417.746
1011.723, 1416.032
1012.205, 1419.551
1012.688, 1426.534
1013.170, 1424.068
1013.652, 1406.962
1014.134, 1393.538
1014.616, 1389.070
1015.098, 1390.726
1015.580, 1395.482
1016.062, 1401.842
1016.544, 1405.716
1017.027, 1404.367
1017.509, 1403.753
1017.991, 1410.889
1018.473, 1416.293
1018.955, 1410.783
1019.437, 1391.826
1019.919, 1378.861
1020.401, 1372.144
1020.884, 1368.447
1021.366, 1366.307
1021.848, 1365.171
1022.330, 1364.713
1022.812, 1364.795
1023.294, 1364.869
1023.776, 1369.011
1024.258, 1366.134
1024.740, 1350.679
1025.223, 1330.683
1025.705, 1322.725
1026.187, 1325.105
1026.669, 1332.159
1027.151, 1345.638
1027.633, 1352.569
1028.115, 1338.357
1028.597, 1317.671
1029.079, 1303.694
1029.562, 1297.127
1030.044, 1295.974
1030.526, 1301.104
1031.008, 1307.058
1031.490, 1312.877
1031.972, 1315.533
1032.454, 1305.760
1032.936, 1287.699
1033.419, 1276.676
1033.901, 1284.415
1034.383, 1292.229
1034.865, 1296.153
1035.347, 1297.924
1035.829, 1302.216
1036.311, 1308.140
1036.793, 1305.072
1037.276, 1289.441
1037.758, 1275.062
1038.240, 1275.387
1038.722, 1280.443
1039.204, 1280.653
1039.686, 1274.256
1040.168, 1272.432
1040.650, 1276.576
1041.132, 1280.707
1041.615, 1283.533
1042.097, 1283.103
1042.579, 1271.055
1043.061, 1252.324
1043.543, 1240.532
1044.025, 1246.831
1044.507, 1253.220
1044.989, 1255.973
1045.471, 1256.567
1045.954, 1256.671
1046.436, 1256.257
1046.918, 1253.689
1047.400, 1248.656
1047.882, 1244.580
1048.364, 1246.082
1048.846, 1248.323
1049.328, 1246.428
1049.811, 1240.247
1050.293, 1238.138
1050.775, 1242.530
1051.257, 1243.839
1051.739, 1237.952
1052.221, 1228.631
1052.703, 1221.566
1053.185, 1216.704
1053.667, 1213.947
1054.150, 1214.008
1054.632, 1214.823
1055.114, 1215.610
1055.596, 1217.172
1056.078, 1221.577
1056.560, 1228.812
1057.042, 1227.584
1057.524, 1218.015
1058.006, 1208.692
1058.489, 1205.458
1058.971, 1204.529
1059.453, 1203.578
1059.935, 1202.622
1060.417, 1201.753
1060.899, 1199.902
1061.381, 1202.117
1061.863, 1210.660
1062.346, 1219.489
1062.828, 1217.549
1063.310, 1211.059
1063.792, 1212.763
1064.274, 1226.770
1064.756, 1235.172
1065.238, 1228.217
1065.720, 1218.832
1066.203, 1212.009
1066.685, 1207.240
1067.167, 1201.353
1067.649, 1194.717
1068.131, 1190.213
1068.613, 1192.155
1069.095, 1192.877
1069.577, 1184.111
1070.059, 1172.707
1070.542, 1169.238
1071.024, 1176.781
1071.506, 1180.974
1071.988, 1180.615
1072.470, 1180.136
1072.952, 1185.129
1073.434, 1191.491
1073.916, 1193.567
1074.398, 1191.434
1074.881, 1188.437
1075.363, 1186.500
1075.845, 1181.420
1076.327, 1169.662
1076.809, 1157.398
1077.291, 1160.512
1077.773, 1174.073
1078.255, 1179.215
1078.738, 1168.823
1079.220, 1161.349
1079.702, 1173.899
1080.184, 1187.113
1080.666, 1185.816
1081.148, 1169.972
1081.630, 1163.464
1082.112, 1166.463
1082.594, 1169.887
1083.077, 1170.539
1083.559, 1167.605
1084.041, 1157.666
1084.523, 1144.176
1085.005, 1133.905
1085.487, 1127.249
1085.969, 1125.003
1086.451, 1128.084
1086.933, 1133.066
1087.416, 1137.059
1087.898, 1140.213
1088.380, 1143.397
1088.862, 1146.453
1089.344, 1147.211
1089.826, 1145.837
1090.308, 1140.104
1090.790, 1126.667
1091.272, 1110.803
1091.755, 1106.332
1092.237, 1111.188
1092.719, 1111.554
1093.201, 1101.731
1093.683, 1097.652
1094.165, 1121.411
1094.647, 1146.655
1095.129, 1148.583
1095.612, 1126.453
1096.094, 1115.077
1096.576, 1115.224
1097.058, 1117.270
1097.540, 1117.543
1098.022, 1115.895
1098.504, 1111.496
1098.986, 1105.240
1099.469, 1098.612
1099.951, 1089.607
1100.433, 1085.008
1100.915, 1086.497
1101.397, 1088.375
1101.879, 1085.539
1102.361, 1079.086
1102.843, 1067.958
1103.325, 1053.918
1103.807, 1048.101
1104.290, 1068.212
1104.772, 1080.131
1105.254, 1070.391
1105.736, 1051.773
1106.218, 1049.228
1106.700, 1060.308
1107.182, 1073.018
1107.664, 1085.922
1108.147, 1093.441
1108.629, 1088.578
1109.111, 1079.370
1109.593, 1069.640
1110.075, 1060.187
1110.557, 1060.715
1111.039, 1071.859
1111.521, 1077.130
1112.004, 1065.560
1112.486, 1053.037
1112.968, 1058.491
1113.450, 1072.392
1113.932, 1081.353
1114.414, 1082.952
1114.896, 1080.340
1115.378, 1071.875
1115.860, 1065.007
1116.343, 1068.717
1116.825, 1075.695
1117.307, 1069.569
1117.789, 1055.008
1118.271, 1047.931
1118.753, 1063.865
1119.235, 1072.662
1119.717, 1067.381
1120.199, 1058.205
1120.682, 1059.627
1121.164, 1068.016
1121.646, 1070.113
1122.128, 1064.924
1122.610, 1061.880
1123.092, 1074.089
1123.574, 1079.882
1124.056, 1066.780
1124.539, 1042.863
1125.021, 1029.529
1125.503, 1026.269
1125.985, 1029.133
1126.467, 1039.168
1126.949, 1046.521
1127.431, 1036.299
1127.913, 1025.601
1128.396, 1033.427
1128.878, 1059.792
1129.360, 1068.244
1129.842, 1057.340
1130.324, 1045.880
1130.806, 1042.361
1131.288, 1042.641
1131.770, 1043.557
1132.252, 1044.646
1132.734, 1045.151
1133.217, 1044.585
1133.699, 1044.591
1134.181, 1045.618
1134.663, 1045.605
1135.145, 1041.663
1135.627, 1036.379
1136.109, 1032.502
1136.591, 1030.797
1137.074, 1033.622
1137.556, 1049.835
1138.038, 1058.375
1138.520, 1055.070
1139.002, 1047.005
1139.484, 1042.153
1139.966, 1039.878
1140.448, 1039.515
1140.931, 1040.826
1141.413, 1040.782
1141.895, 1036.350
1142.377, 1032.491
1142.859, 1032.032
1143.341, 1032.212
1143.823, 1023.322
1144.305, 1008.481
1144.787, 1006.019
1145.270, 1022.206
1145.752, 1036.066
1146.234, 1029.571
1146.716, 1021.278
1147.198, 1023.705
1147.680, 1035.035
1148.162, 1044.216
1148.644, 1050.960
1149.126, 1049.564
1149.609, 1032.665
1150.091, 1017.826
1150.573, 1022.619
1151.055, 1034.343
1151.537, 1037.835
1152.019, 1030.523
1152.501, 1032.245
1152.983, 1043.862
1153.466, 1053.254
1153.948, 1051.625
1154.430, 1045.236
1154.912, 1038.450
1155.394, 1031.775
1155.876, 1025.755
1156.358, 1017.668
1156.840, 1019.010
1157.322, 1032.249
1157.805, 1045.883
1158.287, 1051.220
1158.769, 1050.236
1159.251, 1042.340
1159.733, 1029.716
1160.215, 1022.234
1160.697, 1022.232
1161.179, 1026.734
1161.661, 1037.980
1162.144, 1046.612
1162.626, 1032.704
1163.108, 1011.318
1163.590, 1013.962
1164.072, 1043.176
1164.554, 1059.643
1165.036, 1044.159
1165.518, 1030.276
1166.000, 1026.134
1166.483, 1028.954
1166.965, 1035.901
1167.447, 1045.081
1167.929, 1052.854
1168.411, 1059.072
1168.893, 1059.218
1169.375, 1046.860
1169.857, 1033.382
1170.340, 1021.360
1170.822, 1012.558
1171.304, 1016.003
1171.786, 1028.203
1172.268, 1036.698
1172.750, 1036.266
1173.232, 1034.636
1173.714, 1032.013
1174.197, 1032.211
1174.679, 1039.804
1175.161, 1053.074
1175.643, 1056.422
1176.125, 1051.141
1176.607, 1044.892
1177.089, 1042.609
1177.571, 1038.546
1178.053, 1026.397
1178.536, 1014.002
1179.018, 1008.983
1179.500, 1011.326
1179.982, 1018.506
1180.464, 1029.908
1180.946, 1038.156
1181.428, 1033.443
1181.910, 1029.656
1182.392, 1037.978
1182.875, 1050.621
1183.357, 1055.256
1183.839, 1051.660
1184.321, 1047.088
1184.803, 1042.110
1185.285, 1036.723
1185.767, 1026.584
1186.249, 1020.145
1186.732, 1027.177
1187.214, 1042.052
1187.696, 1049.766
1188.178, 1049.917
1188.660, 1048.467
1189.142, 1046.252
1189.624, 1043.102
1190.106, 1035.650
1190.589, 1029.917
1191.071, 1031.527
1191.553, 1039.784
1192.035, 1050.627
1192.517, 1064.835
1192.999, 1072.722
1193.481, 1070.781
1193.963, 1066.480
1194.445, 1065.247
1194.927, 1066.705
1195.410, 1072.864
1195.892, 1083.476
1196.374, 1083.369
1196.856, 1071.049
1197.338, 1060.524
1197.820, 1056.447
1198.302, 1057.123
1198.784, 1065.481
1199.267, 1074.925
1199.749, 1076.008
1200.231, 1066.362
1200.713, 1063.944
1201.195, 1070.100
1201.677, 1073.427
1202.159, 1065.528
1202.641, 1056.851
1203.124, 1062.573
1203.606, 1073.951
1204.088, 1077.839
1204.570, 1071.337
1205.052, 1062.543
1205.534, 1050.628
1206.016, 1041.406
1206.498, 1038.122
1206.980, 1039.606
1207.463, 1046.693
1207.945, 1056.963
1208.427, 1065.953
1208.909, 1073.864
1209.391, 1078.534
1209.873, 1079.636
1210.355, 1079.130
1210.837, 1076.877
1211.319, 1075.097
1211.802, 1076.793
1212.284, 1080.958
1212.766, 1084.823
1213.248, 1087.254
1213.730, 1093.108
1214.212, 1103.742
1214.694, 1111.484
1215.176, 1106.062
1215.659, 1096.993
1216.141, 1095.293
1216.623, 1099.179
1217.105, 1100.336
1217.587, 1097.442
1218.069, 1094.251
1218.551, 1090.752
1219.033, 1089.433
1219.516, 1095.504
1219.998, 1103.075
1220.480, 1106.011
1220.962, 1104.405
1221.444, 1101.245
1221.926, 1095.397
1222.408, 1094.083
1222.890, 1099.332
1223.372, 1105.640
1223.854, 1106.519
1224.337, 1106.007
1224.819, 1109.018
1225.301, 1115.316
1225.783, 1118.529
1226.265, 1118.574
1226.747, 1114.759
1227.229, 1105.785
1227.711, 1097.945
1228.193, 1098.333
1228.676, 1103.119
1229.158, 1109.186
1229.640, 1116.184
1230.122, 1122.997
1230.604, 1129.662
1231.086, 1135.671
1231.568, 1141.269
1232.050, 1144.813
1232.533, 1144.174
1233.015, 1141.008
1233.497, 1135.862
1233.979, 1129.077
1234.461, 1126.267
1234.943, 1127.711
1235.425, 1128.251
1235.907, 1124.985
1236.390, 1123.686
1236.872, 1133.790
1237.354, 1145.828
1237.836, 1149.182
1238.318, 1144.154
1238.800, 1141.969
1239.282, 1142.662
1239.764, 1138.663
1240.246, 1122.275
1240.729, 1111.571
1241.211, 1129.254
1241.693, 1154.506
1242.175, 1167.206
1242.657, 1167.396
1243.139, 1166.870
1243.621, 1165.545
1244.103, 1161.290
1244.585, 1149.053
1245.068, 1141.538
1245.550, 1153.354
1246.032, 1168.998
1246.514, 1173.049
1246.996, 1166.181
1247.478, 1168.125
1247.960, 1177.620
1248.442, 1182.648
1248.925, 1174.295
1249.407, 1165.993
1249.889, 1163.180
1250.371, 1164.816
1250.853, 1172.001
1251.335, 1183.749
1251.817, 1187.736
1252.299, 1184.842
1252.781, 1179.890
1253.264, 1170.862
1253.746, 1166.460
1254.228, 1170.664
1254.710, 1179.745
1255.192, 1195.963
1255.674, 1215.765
1256.156, 1209.293
1256.638, 1183.628
1257.120, 1168.382
1257.603, 1187.928
1258.085, 1204.046
1258.567, 1210.113
1259.049, 1209.831
1259.531, 1201.389
1260.013, 1190.043
1260.495, 1196.075
1260.977, 1214.876
1261.460, 1229.223
1261.942, 1231.604
1262.424, 1229.411
1262.906, 1222.006
1263.388, 1214.225
1263.870, 1211.111
1264.352, 1210.260
1264.834, 1203.884
1265.317, 1195.295
1265.799, 1195.920
1266.281, 1219.987
1266.763, 1233.172
1267.245, 1232.718
1267.727, 1225.650
1268.209, 1212.300
1268.691, 1200.281
1269.173, 1202.285
1269.656, 1214.720
1270.138, 1226.111
1270.620, 1236.923
1271.102, 1240.128
1271.584, 1233.948
1272.066, 1229.606
1272.548, 1242.422
1273.030, 1256.767
1273.512, 1252.573
1273.995, 1238.436
1274.477, 1238.347
1274.959, 1256.671
1275.441, 1264.131
1275.923, 1258.459
1276.405, 1251.291
1276.887, 1252.755
1277.369, 1254.615
1277.852, 1247.632
1278.334, 1238.738
1278.816, 1241.630
1279.298, 1256.426
1279.780, 1264.699
1280.262, 1265.499
1280.744, 1264.608
1281.226, 1263.733
1281.708, 1264.500
1282.191, 1268.010
1282.673, 1273.252
1283.155, 1280.958
1283.637, 1289.794
1284.119, 1290.904
1284.601, 1284.453
1285.083, 1277.077
1285.565, 1265.374
1286.047, 1263.893
1286.530, 1280.962
1287.012, 1300.424
1287.494, 1299.796
1287.976, 1287.006
1288.458, 1281.650
1288.940, 1283.950
1289.422, 1287.721
1289.904, 1291.837
1290.386, 1295.887
1290.869, 1299.626
1291.351, 1303.876
1291.833, 1313.427
1292.315, 1321.537
1292.797, 1314.290
1293.279, 1295.631
1293.761, 1286.202
1294.243, 1290.859
1294.726, 1294.207
1295.208, 1294.630
1295.690, 1294.343
1296.172, 1293.085
1296.654, 1294.079
1297.136, 1301.734
1297.618, 1314.100
1298.100, 1325.970
1298.583, 1338.082
1299.065, 1341.474
1299.547, 1335.327
1300.029, 1327.998
1300.511, 1323.020
1300.993, 1321.484
1301.475, 1326.239
1301.957, 1333.721
1302.439, 1340.362
1302.922, 1345.780
1303.404, 1344.921
1303.886, 1338.263
1304.368, 1334.020
1304.850, 1334.430
1305.332, 1342.528
1305.814, 1365.416
1306.296, 1385.620
1306.778, 1375.679
1307.261, 1348.504
1307.743, 1339.201
1308.225, 1346.907
1308.707, 1356.497
1309.189, 1366.321
1309.671, 1371.228
1310.153, 1368.834
1310.635, 1367.156
1311.118, 1375.888
1311.600, 1388.829
1312.082, 1401.267
1312.564, 1410.517
1313.046, 1407.566
1313.528, 1387.786
1314.010, 1372.546
1314.492, 1362.592
1314.974, 1362.517
1315.457, 1386.841
1315.939, 1411.536
1316.421, 1417.453
1316.903, 1410.649
1317.385, 1402.987
1317.867, 1394.502
##END=



