##NAMES=Benitoite
##RRUFFID=R050320
##IDEAL CHEMISTRY=BaTi^4+^Si_3_O_9_
##LOCALITY=San Benito County, California, USA
##OWNER=RRUFF
##SOURCE=American Museum of Natural History
##DESCRIPTION=Blue fragment
##STATUS=The identification of this mineral has been confirmed by X-ray diffraction and chemical analysis
##URL=rruff.info/R050320
##MEASURED CHEMISTRY=Ba_1.00_Ti_1.00_(Si_2.99_Al_0.01_)_Î£=3_O_9_
100.5495, 8.587332
101.0316, 9.295225
101.5137, 10.38592
101.9958, 11.98378
102.4780, 13.54868
102.9601, 14.86270
103.4422, 15.86015
103.9243, 17.06426
104.4064, 18.63412
104.8885, 20.31630
105.3707, 21.67234
105.8528, 22.52026
106.3349, 23.28002
106.8170, 24.09943
107.2991, 25.03688
107.7813, 25.91232
108.2634, 26.49602
108.7455, 26.98879
109.2276, 28.03487
109.7097, 30.31058
110.1918, 32.66128
110.6740, 34.61199
111.1561, 35.41308
111.6382, 36.64247
112.1203, 38.67243
112.6024, 41.36783
113.0845, 43.79128
113.5667, 46.09854
114.0488, 47.91242
114.5309, 48.99995
115.0130, 48.27224
115.4951, 47.77300
115.9772, 47.95580
116.4594, 48.83709
116.9415, 50.47216
117.4236, 53.25081
117.9057, 56.67442
118.3878, 60.19384
118.8699, 63.32357
119.3521, 66.74902
119.8342, 71.02950
120.3163, 76.26086
120.7984, 81.65011
121.2805, 87.68067
121.7626, 93.48225
122.2448, 97.56712
122.7269, 99.67887
123.2090, 99.52351
123.6911, 96.28798
124.1732, 89.39879
124.6553, 81.47294
125.1375, 74.19290
125.6196, 67.68298
126.1017, 62.33624
126.5838, 58.70894
127.0659, 56.35783
127.5480, 54.50323
128.0302, 53.06583
128.5123, 51.98241
128.9944, 51.07067
129.4765, 50.36406
129.9586, 50.17457
130.4407, 51.13251
130.9229, 52.91698
131.4050, 54.15707
131.8871, 54.34383
132.3692, 54.02856
132.8513, 54.43345
133.3334, 55.50123
133.8156, 56.68834
134.2977, 57.77743
134.7798, 58.96276
135.2619, 60.16195
135.7440, 61.24324
136.2261, 62.31385
136.7083, 63.97810
137.1904, 66.23153
137.6725, 69.05578
138.1546, 72.41932
138.6367, 76.29170
139.1188, 80.88677
139.6010, 86.36693
140.0831, 92.70535
140.5652, 99.48602
141.0473, 106.9847
141.5294, 114.6527
142.0115, 121.7945
142.4937, 128.6972
142.9758, 134.5926
143.4579, 139.1019
143.9400, 141.8231
144.4221, 145.0382
144.9042, 148.9219
145.3864, 153.1900
145.8685, 157.2097
146.3506, 160.4336
146.8327, 164.1812
147.3148, 168.9560
147.7969, 175.0515
148.2791, 181.4462
148.7612, 188.4779
149.2433, 195.7519
149.7254, 202.4636
150.2075, 207.5339
150.6896, 212.9433
151.1718, 219.3479
151.6539, 226.9332
152.1360, 235.2221
152.6181, 243.5636
153.1002, 252.4883
153.5823, 263.5566
154.0645, 276.9693
154.5466, 292.5565
155.0287, 310.1369
155.5108, 328.4312
155.9929, 350.5310
156.4750, 375.6376
156.9572, 404.3997
157.4393, 439.1649
157.9214, 484.8207
158.4035, 534.2716
158.8856, 583.1993
159.3677, 646.7902
159.8499, 693.9305
160.3320, 719.4488
160.8141, 722.9854
161.2962, 699.6002
161.7783, 629.5789
162.2604, 540.4254
162.7426, 454.8292
163.2247, 372.3475
163.7068, 300.9677
164.1889, 245.1262
164.6710, 204.8474
165.1531, 173.6346
165.6353, 151.7223
166.1174, 136.1058
166.5995, 123.5548
167.0816, 113.9003
167.5637, 106.1796
168.0458, 100.1673
168.5280, 95.88990
169.0101, 92.14928
169.4922, 87.92458
169.9743, 83.85134
170.4564, 80.85072
170.9385, 80.02970
171.4207, 80.00050
171.9028, 79.50967
172.3849, 78.48948
172.8670, 77.58008
173.3491, 77.29251
173.8312, 77.45949
174.3134, 77.76305
174.7955, 77.90805
175.2776, 78.17329
175.7597, 78.96806
176.2418, 80.36446
176.7239, 81.91651
177.2061, 83.11041
177.6882, 84.13793
178.1703, 85.49197
178.6524, 87.32261
179.1345, 89.67165
179.6166, 92.54622
180.0988, 95.95627
180.5809, 99.97704
181.0630, 104.9926
181.5451, 110.8348
182.0272, 116.6134
182.5093, 121.8463
182.9915, 126.7449
183.4736, 131.8696
183.9557, 137.4462
184.4378, 142.7365
184.9199, 146.8283
185.4020, 149.7371
185.8842, 152.1033
186.3663, 153.4653
186.8484, 154.3995
187.3305, 157.1087
187.8126, 162.0280
188.2947, 168.1164
188.7769, 173.7607
189.2590, 178.9971
189.7411, 184.5547
190.2232, 190.7589
190.7053, 197.6213
191.1874, 205.4603
191.6696, 214.5675
192.1517, 224.3228
192.6338, 233.2405
193.1159, 241.2478
193.5980, 250.3474
194.0801, 261.4883
194.5623, 274.6087
195.0444, 289.6735
195.5265, 306.2111
196.0086, 325.1887
196.4907, 348.1621
196.9728, 374.9816
197.4550, 406.9118
197.9371, 445.9062
198.4192, 492.0530
198.9013, 540.0262
199.3834, 591.3351
199.8655, 642.0200
200.3477, 687.8793
200.8298, 732.2648
201.3119, 755.3802
201.7940, 740.6926
202.2761, 685.2414
202.7582, 624.0366
203.2404, 555.9750
203.7225, 487.0653
204.2046, 433.9188
204.6867, 397.6431
205.1688, 373.0833
205.6509, 358.8065
206.1331, 355.6909
206.6152, 356.3857
207.0973, 360.5052
207.5794, 367.9066
208.0615, 378.3786
208.5436, 392.2676
209.0258, 408.3766
209.5079, 425.6924
209.9900, 443.7909
210.4721, 464.4627
210.9542, 487.3061
211.4363, 512.9880
211.9185, 543.9374
212.4006, 580.7276
212.8827, 621.8893
213.3648, 665.2081
213.8469, 710.1036
214.3290, 761.1627
214.8112, 820.6235
215.2933, 885.8776
215.7754, 950.7429
216.2575, 1017.488
216.7396, 1079.777
217.2217, 1135.910
217.7038, 1191.050
218.1860, 1224.326
218.6681, 1234.529
219.1502, 1221.832
219.6323, 1184.081
220.1144, 1115.337
220.5965, 1032.362
221.0787, 942.6580
221.5608, 840.9026
222.0429, 747.2711
222.5250, 663.0193
223.0071, 587.8574
223.4892, 524.2392
223.9714, 473.1562
224.4535, 431.0916
224.9356, 395.7837
225.4177, 367.6796
225.8998, 346.0113
226.3819, 331.8230
226.8641, 323.8342
227.3462, 318.0514
227.8283, 313.8152
228.3104, 312.7597
228.7925, 315.8676
229.2746, 324.0895
229.7568, 334.6400
230.2389, 348.2409
230.7210, 364.0654
231.2031, 380.0767
231.6852, 400.7802
232.1673, 415.0153
232.6495, 417.2786
233.1316, 406.2377
233.6137, 385.4503
234.0958, 350.4437
234.5779, 306.8936
235.0600, 271.0594
235.5422, 243.7869
236.0243, 222.4471
236.5064, 206.2122
236.9885, 196.7183
237.4706, 188.7302
237.9527, 182.2918
238.4349, 177.4346
238.9170, 174.4058
239.3991, 173.6538
239.8812, 174.0573
240.3633, 175.1749
240.8454, 176.9632
241.3276, 179.6290
241.8097, 183.5481
242.2918, 188.1699
242.7739, 192.1569
243.2560, 194.7738
243.7381, 197.8883
244.2203, 202.1418
244.7024, 207.5202
245.1845, 214.1350
245.6666, 222.3916
246.1487, 231.6755
246.6308, 241.0382
247.1130, 250.6126
247.5951, 260.0735
248.0772, 268.9844
248.5593, 276.8337
249.0414, 286.2848
249.5235, 298.2044
250.0057, 311.1608
250.4878, 322.9047
250.9699, 332.5854
251.4520, 342.6053
251.9341, 353.6259
252.4162, 365.8333
252.8984, 378.3588
253.3805, 391.1056
253.8626, 404.3577
254.3447, 418.0290
254.8268, 431.8714
255.3089, 447.0228
255.7911, 463.6398
256.2732, 481.8086
256.7553, 501.4214
257.2374, 523.0909
257.7195, 545.6920
258.2017, 567.6573
258.6838, 588.3106
259.1659, 610.2980
259.6480, 634.6048
260.1301, 661.0682
260.6122, 688.8172
261.0944, 719.3102
261.5765, 749.4247
262.0586, 776.1986
262.5407, 799.5672
263.0228, 819.7859
263.5049, 837.3385
263.9871, 852.2248
264.4692, 860.6949
264.9513, 862.8682
265.4334, 858.6115
265.9155, 847.8214
266.3976, 830.9680
266.8798, 806.4769
267.3619, 773.0538
267.8440, 731.2991
268.3261, 687.9365
268.8082, 642.1197
269.2903, 596.6527
269.7725, 553.9656
270.2546, 514.7086
270.7367, 477.5244
271.2188, 442.2406
271.7009, 409.2730
272.1830, 379.8511
272.6652, 354.6331
273.1473, 331.7607
273.6294, 309.5163
274.1115, 287.6088
274.5936, 268.6243
275.0757, 253.2413
275.5579, 240.4441
276.0400, 227.6724
276.5221, 214.6685
277.0042, 202.7290
277.4863, 192.7831
277.9684, 184.9335
278.4506, 177.6960
278.9327, 171.0216
279.4148, 164.8491
279.8969, 159.1849
280.3790, 154.1044
280.8611, 149.0144
281.3433, 143.3973
281.8254, 137.2413
282.3075, 131.9407
282.7896, 127.6365
283.2717, 123.8940
283.7538, 119.8371
284.2360, 115.4244
284.7181, 111.7682
285.2002, 109.9687
285.6823, 109.7024
286.1644, 107.7961
286.6465, 103.9901
287.1287, 99.55767
287.6108, 96.01305
288.0929, 93.33106
288.5750, 91.08656
289.0571, 89.30037
289.5392, 87.82348
290.0214, 85.97284
290.5035, 83.68894
290.9856, 81.57723
291.4677, 80.45260
291.9498, 80.16035
292.4319, 79.77604
292.9141, 79.00388
293.3962, 77.96332
293.8783, 76.83797
294.3604, 75.63033
294.8425, 74.56236
295.3246, 73.98735
295.8068, 73.73012
296.2889, 73.20742
296.7710, 72.22390
297.2531, 70.96754
297.7352, 69.52003
298.2173, 67.95239
298.6995, 66.83404
299.1816, 67.04838
299.6637, 67.98250
300.1458, 68.29779
300.6279, 67.62138
301.1100, 66.55086
301.5922, 65.75321
302.0743, 65.18718
302.5564, 64.69041
303.0385, 63.96693
303.5206, 63.31309
304.0027, 63.27357
304.4849, 64.05937
304.9670, 64.87595
305.4491, 64.85191
305.9312, 64.25701
306.4133, 63.73829
306.8954, 63.73555
307.3776, 63.90497
307.8597, 63.89455
308.3418, 63.67012
308.8239, 63.40696
309.3060, 63.19760
309.7881, 63.04030
310.2703, 62.93819
310.7524, 63.02503
311.2345, 63.06954
311.7166, 62.76561
312.1987, 62.13304
312.6808, 61.75542
313.1630, 62.26778
313.6451, 63.09027
314.1272, 63.60331
314.6093, 63.46293
315.0914, 63.09370
315.5735, 62.46723
316.0557, 61.68615
316.5378, 61.29795
317.0199, 61.90995
317.5020, 62.78454
317.9841, 63.38487
318.4662, 63.41390
318.9484, 63.40220
319.4305, 63.51518
319.9126, 63.71796
320.3947, 63.91860
320.8768, 64.07057
321.3589, 64.22921
321.8411, 64.39099
322.3232, 64.46083
322.8053, 64.76469
323.2874, 65.64790
323.7695, 66.75151
324.2516, 67.50714
324.7338, 67.14439
325.2159, 67.04950
325.6980, 67.56601
326.1801, 68.68056
326.6622, 70.57243
327.1443, 73.42303
327.6265, 76.98584
328.1086, 81.03796
328.5907, 86.09405
329.0728, 91.00947
329.5549, 95.89349
330.0370, 100.7728
330.5192, 104.3655
331.0013, 105.6574
331.4834, 106.5513
331.9655, 108.3734
332.4476, 111.5760
332.9297, 114.9472
333.4119, 118.3367
333.8940, 121.7996
334.3761, 125.5122
334.8582, 129.2465
335.3403, 133.4517
335.8224, 138.3885
336.3046, 144.2685
336.7867, 150.3195
337.2688, 156.6614
337.7509, 163.0990
338.2330, 169.1615
338.7151, 174.3824
339.1973, 180.5354
339.6794, 188.0410
340.1615, 196.7623
340.6436, 208.3973
341.1257, 223.0467
341.6078, 240.1033
342.0899, 258.7678
342.5721, 278.6449
343.0542, 301.1199
343.5363, 326.5416
344.0184, 354.6217
344.5005, 385.4912
344.9826, 419.1850
345.4648, 453.5909
345.9469, 493.1491
346.4290, 535.2952
346.9111, 555.2189
347.3932, 545.3357
347.8753, 515.2535
348.3575, 476.6478
348.8396, 430.8597
349.3217, 391.4738
349.8038, 368.2379
350.2859, 358.5591
350.7680, 357.3456
351.2502, 364.9966
351.7323, 377.1817
352.2144, 390.3563
352.6965, 404.2999
353.1786, 417.9607
353.6607, 432.1610
354.1429, 445.1968
354.6250, 453.9023
355.1071, 458.0216
355.5892, 462.3711
356.0713, 469.4227
356.5534, 479.3672
357.0356, 492.4916
357.5177, 509.1988
357.9998, 528.9581
358.4819, 550.9623
358.9640, 575.3645
359.4461, 602.6058
359.9283, 633.2311
360.4104, 666.6243
360.8925, 702.3483
361.3746, 740.6519
361.8567, 780.6565
362.3388, 823.7908
362.8210, 868.2136
363.3031, 910.7557
363.7852, 950.5461
364.2673, 988.0582
364.7494, 1023.217
365.2315, 1055.558
365.7137, 1087.363
366.1958, 1117.902
366.6779, 1148.202
367.1600, 1179.751
367.6421, 1212.804
368.1242, 1247.007
368.6064, 1285.295
369.0885, 1328.348
369.5706, 1361.215
370.0527, 1390.868
370.5348, 1405.262
371.0169, 1396.596
371.4991, 1361.298
371.9812, 1308.804
372.4633, 1234.557
372.9454, 1143.366
373.4275, 1053.075
373.9096, 961.3196
374.3918, 872.7803
374.8739, 790.8834
375.3560, 714.5222
375.8381, 645.3173
376.3202, 583.9659
376.8023, 529.8236
377.2845, 482.6564
377.7666, 443.2394
378.2487, 408.5528
378.7308, 378.5038
379.2129, 352.6777
379.6950, 331.7925
380.1772, 316.1174
380.6593, 303.0757
381.1414, 289.6579
381.6235, 276.2861
382.1056, 265.8986
382.5877, 259.4998
383.0699, 256.0029
383.5520, 253.8756
384.0341, 253.0264
384.5162, 252.7095
384.9983, 251.9770
385.4804, 251.4910
385.9626, 252.5157
386.4447, 255.1064
386.9268, 259.5768
387.4089, 266.7576
387.8910, 276.1024
388.3731, 286.2236
388.8553, 295.9626
389.3374, 306.5536
389.8195, 319.3137
390.3016, 334.0154
390.7837, 349.6285
391.2658, 365.6855
391.7480, 382.0647
392.2301, 398.9055
392.7122, 418.6353
393.1943, 435.5315
393.6764, 447.3148
394.1585, 454.1225
394.6407, 456.1801
395.1228, 455.1169
395.6049, 448.2765
396.0870, 433.5396
396.5691, 409.0229
397.0512, 382.1677
397.5334, 352.8570
398.0155, 322.3299
398.4976, 292.5386
398.9797, 261.2984
399.4618, 233.0639
399.9439, 208.6775
400.4261, 188.1323
400.9082, 170.2647
401.3903, 155.3213
401.8724, 142.8169
402.3545, 132.6366
402.8366, 125.9717
403.3188, 119.2067
403.8009, 111.8112
404.2830, 104.3465
404.7651, 98.28306
405.2472, 93.93764
405.7293, 90.25905
406.2115, 86.90575
406.6936, 83.91090
407.1757, 81.09306
407.6578, 78.47453
408.1399, 75.95535
408.6220, 73.16682
409.1042, 70.13038
409.5863, 67.91894
410.0684, 67.11935
410.5505, 67.09060
411.0326, 66.20233
411.5147, 64.47400
411.9969, 62.66735
412.4790, 61.36159
412.9611, 60.36126
413.4432, 59.12183
413.9253, 57.44566
414.4074, 55.96828
414.8896, 55.51803
415.3717, 55.79625
415.8538, 56.10980
416.3359, 56.45185
416.8180, 56.47131
417.3001, 55.54264
417.7823, 53.69267
418.2644, 52.20997
418.7465, 52.18174
419.2286, 52.69051
419.7107, 52.83838
420.1928, 52.10534
420.6750, 51.36390
421.1571, 50.96801
421.6392, 50.81433
422.1213, 50.64658
422.6034, 50.32892
423.0855, 50.04151
423.5677, 49.86207
424.0498, 49.82264
424.5319, 49.80439
425.0140, 49.84620
425.4961, 49.88358
425.9782, 49.86024
426.4604, 49.88030
426.9425, 49.67724
427.4246, 49.08795
427.9067, 48.19655
428.3888, 47.63066
428.8709, 47.46044
429.3531, 47.49081
429.8352, 47.66299
430.3173, 48.02464
430.7994, 48.26544
431.2815, 48.35812
431.7636, 48.35696
432.2458, 48.26429
432.7279, 48.05967
433.2100, 48.12070
433.6921, 48.77026
434.1742, 49.76015
434.6563, 50.07496
435.1385, 49.70001
435.6206, 49.23087
436.1027, 49.22128
436.5848, 49.51844
437.0669, 49.64380
437.5490, 49.38885
438.0312, 49.23895
438.5133, 50.00227
438.9954, 51.35761
439.4775, 52.41165
439.9596, 52.41533
440.4417, 52.09815
440.9239, 52.02715
441.4060, 52.23582
441.8881, 52.75666
442.3702, 53.69740
442.8523, 54.91210
443.3344, 56.28398
443.8166, 58.30875
444.2987, 59.86510
444.7808, 60.36143
445.2629, 60.09397
445.7450, 59.93050
446.2271, 59.65553
446.7093, 59.85812
447.1914, 60.86019
447.6735, 62.94279
448.1556, 64.96002
448.6377, 67.06955
449.1198, 68.98887
449.6020, 70.33616
450.0841, 70.53487
450.5662, 71.32035
451.0483, 73.04276
451.5304, 75.55421
452.0125, 78.14338
452.4947, 80.80961
452.9768, 83.62170
453.4589, 86.64954
453.9410, 89.92198
454.4231, 93.28112
454.9052, 96.74374
455.3874, 100.3727
455.8695, 104.4711
456.3516, 108.9665
456.8337, 113.1623
457.3158, 116.7577
457.7979, 120.0465
458.2801, 124.0934
458.7622, 128.6414
459.2443, 131.9786
459.7264, 132.4544
460.2085, 131.1715
460.6906, 129.5054
461.1728, 127.6756
461.6549, 125.4061
462.1370, 122.1604
462.6191, 118.4533
463.1012, 115.1113
463.5833, 112.0890
464.0655, 109.8151
464.5476, 108.6615
465.0297, 108.5506
465.5118, 108.7957
465.9939, 109.0439
466.4760, 109.7256
466.9582, 111.0610
467.4403, 113.0755
467.9224, 115.7834
468.4045, 119.6282
468.8866, 123.9458
469.3687, 127.8105
469.8509, 130.6946
470.3330, 133.9919
470.8151, 138.2018
471.2972, 143.1940
471.7793, 147.5649
472.2614, 151.2668
472.7436, 154.5981
473.2257, 157.7843
473.7078, 160.8407
474.1899, 163.6372
474.6720, 166.2784
475.1541, 168.4026
475.6363, 169.4926
476.1184, 169.5827
476.6005, 168.8886
477.0826, 167.4216
477.5647, 165.2668
478.0468, 162.4769
478.5290, 159.0697
479.0111, 155.2027
479.4932, 150.3023
479.9753, 145.2991
480.4574, 141.3951
480.9395, 139.0414
481.4217, 136.9826
481.9038, 134.2271
482.3859, 131.3627
482.8680, 129.2944
483.3501, 128.8783
483.8322, 128.7640
484.3144, 128.3399
484.7965, 127.6550
485.2786, 127.5627
485.7607, 128.6603
486.2428, 130.0124
486.7249, 131.1308
487.2071, 131.7142
487.6892, 132.7451
488.1713, 134.7765
488.6534, 136.8690
489.1355, 137.5309
489.6176, 136.2089
490.0998, 135.1151
490.5819, 134.9111
491.0640, 135.3432
491.5461, 135.0526
492.0282, 133.9603
492.5103, 132.7443
492.9925, 131.7224
493.4746, 130.9333
493.9567, 130.6575
494.4388, 130.9260
494.9209, 131.6022
495.4030, 132.4630
495.8852, 133.6015
496.3673, 135.2980
496.8494, 137.8670
497.3315, 140.8163
497.8136, 143.8719
498.2957, 146.9757
498.7779, 149.7662
499.2600, 151.7804
499.7421, 153.6413
500.2242, 156.0052
500.7063, 159.2910
501.1884, 161.6325
501.6706, 162.0200
502.1527, 161.3849
502.6348, 160.6509
503.1169, 160.8897
503.5990, 159.8774
504.0811, 157.1058
504.5633, 152.9174
505.0454, 148.3665
505.5275, 143.1529
506.0096, 138.2328
506.4917, 134.1149
506.9738, 130.8503
507.4560, 127.1384
507.9381, 122.6678
508.4202, 118.5845
508.9023, 116.2721
509.3844, 115.6398
509.8665, 115.0332
510.3487, 113.9589
510.8308, 113.1191
511.3129, 113.7980
511.7950, 115.8088
512.2772, 118.2790
512.7593, 120.9101
513.2414, 123.6582
513.7235, 126.3170
514.2056, 128.9203
514.6877, 132.1527
515.1699, 136.6129
515.6520, 141.8179
516.1341, 147.3049
516.6162, 152.8574
517.0983, 158.9345
517.5804, 165.4651
518.0626, 172.6948
518.5447, 181.0269
519.0268, 191.2674
519.5089, 201.8750
519.9910, 212.5759
520.4731, 223.3806
520.9553, 233.8277
521.4374, 243.3229
521.9195, 253.1718
522.4016, 264.2904
522.8837, 276.9049
523.3658, 288.8186
523.8480, 299.5153
524.3301, 310.6300
524.8122, 324.4839
525.2943, 340.8827
525.7764, 357.5423
526.2585, 373.1758
526.7407, 389.4980
527.2228, 410.5148
527.7049, 435.7880
528.1870, 461.9870
528.6691, 487.3423
529.1512, 512.7379
529.6334, 539.5856
530.1155, 568.2669
530.5976, 596.4590
531.0797, 623.8052
531.5618, 649.8846
532.0439, 674.0438
532.5261, 697.5233
533.0082, 717.4515
533.4903, 735.5452
533.9724, 749.6290
534.4545, 755.4825
534.9366, 753.8630
535.4188, 742.5157
535.9009, 719.7756
536.3830, 685.8155
536.8651, 646.8000
537.3472, 600.8429
537.8293, 553.7580
538.3115, 509.2682
538.7936, 467.5263
539.2757, 428.3690
539.7578, 391.9699
540.2399, 358.4730
540.7220, 327.3469
541.2042, 299.0689
541.6863, 274.1357
542.1684, 252.7541
542.6505, 234.3913
543.1326, 218.8071
543.6147, 205.6977
544.0969, 193.5253
544.5790, 181.3791
545.0611, 170.1187
545.5432, 160.7410
546.0253, 153.4223
546.5074, 146.5309
546.9896, 138.9883
547.4717, 131.8901
547.9538, 126.1342
548.4359, 122.6147
548.9180, 119.4383
549.4001, 116.4510
549.8823, 113.6869
550.3644, 111.1800
550.8465, 108.7124
551.3286, 106.8755
551.8107, 105.8677
552.2928, 105.6268
552.7750, 105.6506
553.2571, 105.8722
553.7392, 106.6708
554.2213, 108.0865
554.7034, 110.2151
555.1855, 113.6001
555.6677, 118.2275
556.1498, 124.4277
556.6319, 131.8274
557.1140, 141.0660
557.5961, 153.5905
558.0782, 170.5826
558.5604, 189.7522
559.0425, 211.0853
559.5246, 233.0688
560.0067, 252.1909
560.4888, 264.8866
560.9709, 276.1436
561.4531, 287.5557
561.9352, 299.2756
562.4173, 311.8211
562.8994, 323.9851
563.3815, 338.0667
563.8636, 355.3785
564.3458, 376.1432
564.8279, 399.0489
565.3100, 423.5335
565.7921, 451.1685
566.2742, 483.0041
566.7563, 518.9259
567.2385, 561.6060
567.7206, 611.7113
568.2027, 668.5217
568.6848, 727.8307
569.1669, 790.6507
569.6490, 858.7510
570.1312, 936.1574
570.6133, 1019.011
571.0954, 1099.595
571.5775, 1179.157
572.0596, 1262.605
572.5417, 1365.396
573.0239, 1467.671
573.5060, 1556.769
573.9881, 1645.411
574.4702, 1681.860
574.9523, 1645.428
575.4344, 1550.431
575.9166, 1415.198
576.3987, 1196.339
576.8808, 995.0508
577.3629, 816.8016
577.8450, 663.2261
578.3271, 538.3246
578.8093, 445.5297
579.2914, 372.0992
579.7735, 316.1967
580.2556, 277.0829
580.7377, 244.8824
581.2198, 219.9872
581.7020, 199.6252
582.1841, 182.5050
582.6662, 168.1427
583.1483, 155.0123
583.6304, 143.0416
584.1125, 132.7978
584.5947, 125.6789
585.0768, 120.4223
585.5589, 115.1705
586.0410, 108.6603
586.5231, 102.7439
587.0052, 98.39150
587.4873, 95.25797
587.9694, 92.48799
588.4515, 90.36040
588.9337, 88.08296
589.4158, 85.28910
589.8979, 81.97260
590.3800, 79.17467
590.8621, 76.95993
591.3442, 75.13848
591.8264, 73.65601
592.3085, 72.51631
592.7906, 71.57127
593.2727, 70.87234
593.7548, 70.14568
594.2369, 69.02972
594.7191, 67.58904
595.2012, 66.06283
595.6833, 64.39507
596.1654, 62.87336
596.6475, 61.96003
597.1296, 61.44513
597.6118, 60.82042
598.0939, 59.56387
598.5760, 58.39902
599.0581, 57.83224
599.5402, 57.80928
600.0223, 57.64504
600.5045, 57.30175
600.9866, 56.67836
601.4687, 55.60624
601.9508, 53.84617
602.4329, 52.75154
602.9150, 52.66849
603.3972, 52.78165
603.8793, 52.28533
604.3614, 51.09391
604.8435, 50.16947
605.3256, 49.62612
605.8077, 49.39518
606.2899, 49.54302
606.7720, 49.97222
607.2541, 50.21986
607.7362, 50.07752
608.2183, 49.70901
608.7004, 49.17851
609.1826, 48.55523
609.6647, 48.09869
610.1468, 48.25751
610.6289, 48.35897
611.1110, 47.78265
611.5931, 46.45753
612.0753, 45.71856
612.5574, 46.59547
613.0395, 47.53016
613.5216, 47.57847
614.0037, 46.20788
614.4858, 45.33912
614.9680, 45.12252
615.4501, 45.20358
615.9322, 45.22264
616.4143, 45.18576
616.8964, 44.92667
617.3785, 44.30305
617.8607, 43.65146
618.3428, 43.64501
618.8249, 44.15443
619.3070, 44.64004
619.7891, 44.89603
620.2712, 44.97550
620.7534, 44.94245
621.2355, 44.78544
621.7176, 44.44875
622.1997, 43.61059
622.6818, 42.82637
623.1639, 42.44728
623.6461, 42.56445
624.1282, 42.65038
624.6103, 42.65493
625.0924, 42.61076
625.5745, 42.51760
626.0566, 42.30507
626.5388, 42.28711
627.0209, 42.59135
627.5030, 42.88451
627.9851, 42.37881
628.4672, 41.15921
628.9493, 41.02284
629.4315, 42.72188
629.9136, 45.10132
630.3957, 46.52741
630.8778, 47.15639
631.3599, 47.42982
631.8420, 47.03368
632.3242, 46.79253
632.8063, 47.49630
633.2884, 48.98373
633.7705, 50.36099
634.2526, 51.34117
634.7347, 52.11526
635.2169, 52.76913
635.6990, 53.29858
636.1811, 53.74466
636.6632, 54.20249
637.1453, 54.45679
637.6274, 54.18115
638.1096, 53.19062
638.5917, 53.09486
639.0738, 54.21226
639.5559, 55.50805
640.0380, 55.59938
640.5201, 54.70850
641.0023, 53.78075
641.4844, 52.96902
641.9665, 52.37069
642.4486, 52.22399
642.9307, 52.34651
643.4128, 52.34315
643.8950, 52.03477
644.3771, 51.57463
644.8592, 50.84844
645.3413, 49.96702
645.8234, 49.46267
646.3055, 49.93354
646.7877, 50.27144
647.2698, 50.07048
647.7519, 49.30530
648.2340, 48.70584
648.7161, 48.30592
649.1982, 47.98026
649.6804, 47.67742
650.1625, 47.38723
650.6446, 46.97577
651.1267, 46.41711
651.6088, 45.90122
652.0909, 45.70329
652.5731, 45.67524
653.0552, 45.52148
653.5373, 45.07423
654.0194, 44.73225
654.5015, 44.97206
654.9836, 45.40676
655.4658, 45.46992
655.9479, 44.57203
656.4300, 43.80297
656.9121, 43.35218
657.3942, 43.18054
657.8763, 43.25354
658.3585, 43.79464
658.8406, 44.03663
659.3227, 43.60739
659.8048, 42.68536
660.2869, 42.27423
660.7690, 42.39115
661.2512, 42.53654
661.7333, 42.21748
662.2154, 41.75474
662.6975, 41.92051
663.1796, 42.71661
663.6617, 43.34330
664.1439, 43.05149
664.6260, 42.45933
665.1081, 42.13560
665.5902, 42.27369
666.0723, 42.34198
666.5544, 42.07516
667.0366, 41.76546
667.5187, 41.69868
668.0008, 42.09534
668.4829, 42.29079
668.9650, 42.26234
669.4471, 42.00316
669.9293, 41.35052
670.4114, 40.29641
670.8935, 39.60038
671.3756, 39.56350
671.8577, 39.83216
672.3398, 39.78104
672.8220, 39.52202
673.3041, 39.43763
673.7862, 39.98292
674.2683, 40.54655
674.7504, 40.66434
675.2325, 40.39690
675.7147, 40.08436
676.1968, 39.68573
676.6789, 39.39619
677.1610, 39.36035
677.6431, 39.59182
678.1252, 39.67649
678.6074, 39.56190
679.0895, 39.39736
679.5716, 39.23261
680.0537, 39.06665
680.5358, 39.13652
681.0179, 39.47518
681.5001, 39.82792
681.9822, 39.90875
682.4643, 39.82355
682.9464, 39.78985
683.4285, 39.85916
683.9106, 39.92869
684.3928, 39.84791
684.8749, 39.75650
685.3570, 39.82217
685.8391, 40.58062
686.3212, 40.89370
686.8033, 40.16507
687.2855, 39.02249
687.7676, 38.49567
688.2497, 38.89859
688.7318, 39.09086
689.2139, 38.74868
689.6960, 38.12839
690.1782, 38.00500
690.6603, 38.34866
691.1424, 38.56929
691.6245, 38.19249
692.1066, 37.66277
692.5887, 37.76168
693.0709, 38.35782
693.5530, 38.88732
694.0351, 39.13609
694.5172, 39.13622
694.9993, 38.73911
695.4814, 37.92518
695.9636, 37.51432
696.4457, 38.08084
696.9278, 38.63141
697.4099, 38.66228
697.8920, 38.05882
698.3741, 37.72229
698.8563, 37.70777
699.3384, 37.79082
699.8205, 37.75826
700.3026, 37.64673
700.7847, 37.67516
701.2668, 37.89524
701.7490, 38.03577
702.2311, 37.62930
702.7132, 37.05553
703.1953, 36.86432
703.6774, 37.34750
704.1595, 37.90515
704.6417, 38.45446
705.1238, 38.89719
705.6059, 39.08020
706.0880, 38.92133
706.5701, 38.62524
707.0522, 38.08258
707.5344, 37.50351
708.0165, 37.41865
708.4986, 37.86938
708.9807, 38.14916
709.4628, 37.96447
709.9449, 37.59274
710.4271, 37.54144
710.9092, 37.75723
711.3913, 38.04106
711.8734, 38.49654
712.3555, 38.80432
712.8376, 38.64941
713.3198, 38.11465
713.8019, 37.62954
714.2840, 37.19799
714.7661, 36.95557
715.2482, 37.04971
715.7303, 37.45964
716.2125, 37.49221
716.6946, 36.93900
717.1767, 36.57951
717.6588, 37.08225
718.1409, 38.27857
718.6230, 38.73380
719.1052, 38.43584
719.5873, 38.08362
720.0694, 38.37252
720.5515, 38.87368
721.0336, 38.92731
721.5157, 38.38076
721.9979, 38.09536
722.4800, 38.91282
722.9621, 39.87630
723.4442, 40.14800
723.9263, 39.00609
724.4084, 38.62179
724.8906, 39.33950
725.3727, 40.40666
725.8548, 41.13411
726.3369, 41.52564
726.8190, 41.48349
727.3011, 40.86986
727.7833, 40.27729
728.2654, 40.63213
728.7475, 41.60435
729.2296, 42.39565
729.7117, 42.68652
730.1938, 42.93829
730.6760, 43.53804
731.1581, 44.27605
731.6402, 44.83879
732.1223, 44.85772
732.6044, 45.06075
733.0865, 45.53174
733.5687, 46.24834
734.0508, 47.28383
734.5329, 48.83062
735.0150, 49.84322
735.4971, 49.84298
735.9792, 49.38932
736.4614, 49.79302
736.9435, 50.92060
737.4256, 52.08425
737.9077, 52.93614
738.3898, 53.67881
738.8719, 54.36501
739.3541, 55.06796
739.8362, 56.03789
740.3183, 57.77290
740.8004, 59.38341
741.2825, 60.41908
741.7646, 60.96778
742.2468, 61.75227
742.7289, 62.91556
743.2110, 63.94979
743.6931, 64.63377
744.1752, 64.99052
744.6573, 65.11308
745.1395, 65.00407
745.6216, 64.78245
746.1037, 64.33078
746.5858, 63.92587
747.0679, 63.99244
747.5500, 64.52974
748.0322, 65.05206
748.5143, 65.62894
748.9964, 65.89156
749.4785, 65.50333
749.9606, 64.26197
750.4427, 63.33660
750.9249, 62.81060
751.4070, 62.43303
751.8891, 62.13103
752.3712, 61.89549
752.8533, 61.18093
753.3354, 59.90325
753.8176, 58.76237
754.2997, 58.66333
754.7818, 59.03782
755.2639, 58.91993
755.7460, 58.06484
756.2281, 57.37146
756.7103, 57.50091
757.1924, 57.89584
757.6745, 58.06932
758.1566, 57.77051
758.6387, 57.63325
759.1208, 57.70051
759.6030, 57.87560
760.0851, 58.17033
760.5672, 58.60427
761.0493, 58.53518
761.5314, 57.83762
762.0135, 56.85646
762.4957, 55.93873
762.9778, 55.05114
763.4599, 54.10770
763.9420, 53.06252
764.4241, 52.03742
764.9063, 50.91400
765.3884, 49.92356
765.8705, 49.36013
766.3526, 49.88589
766.8347, 49.91367
767.3168, 49.17476
767.7990, 48.09351
768.2811, 47.19386
768.7632, 46.46127
769.2453, 46.33019
769.7274, 47.10130
770.2095, 47.97033
770.6917, 47.61305
771.1738, 46.49504
771.6559, 45.63523
772.1380, 45.49987
772.6201, 45.57767
773.1022, 45.88176
773.5844, 46.15934
774.0665, 45.93856
774.5486, 44.61995
775.0307, 43.57853
775.5128, 42.91695
775.9949, 42.67235
776.4771, 43.10203
776.9592, 44.24103
777.4413, 45.13521
777.9234, 45.49125
778.4055, 45.49775
778.8876, 45.37178
779.3698, 45.12894
779.8519, 44.80775
780.3340, 44.21715
780.8161, 43.77239
781.2982, 43.72083
781.7803, 43.95956
782.2625, 44.21752
782.7446, 44.49482
783.2267, 44.74695
783.7088, 44.97141
784.1909, 45.16087
784.6730, 45.17657
785.1552, 45.02258
785.6373, 45.29779
786.1194, 46.51670
786.6015, 47.97417
787.0836, 48.77839
787.5657, 48.96948
788.0479, 48.63754
788.5300, 47.07592
789.0121, 45.76827
789.4942, 45.41592
789.9763, 45.88187
790.4584, 46.58149
790.9406, 47.81480
791.4227, 48.63389
791.9048, 48.66544
792.3869, 48.15746
792.8690, 47.87424
793.3511, 47.80405
793.8333, 47.80376
794.3154, 47.88127
794.7975, 47.92885
795.2796, 47.74434
795.7617, 47.40721
796.2438, 47.17934
796.7260, 47.33055
797.2081, 47.43883
797.6902, 47.26014
798.1723, 46.89337
798.6544, 46.72683
799.1365, 46.79863
799.6187, 46.98911
800.1008, 47.32821
800.5829, 47.71532
801.0650, 47.82755
801.5471, 47.69284
802.0292, 47.49209
802.5114, 47.26817
802.9935, 47.06328
803.4756, 47.07360
803.9577, 47.16153
804.4398, 46.86994
804.9219, 45.09532
805.4041, 44.02829
805.8862, 44.65806
806.3683, 46.47795
806.8504, 47.30529
807.3325, 46.93456
807.8146, 46.58663
808.2968, 46.78053
808.7789, 47.24229
809.2610, 47.34245
809.7431, 47.15550
810.2252, 46.98481
810.7073, 47.08657
811.1895, 47.16586
811.6716, 46.93656
812.1537, 46.51155
812.6358, 46.31895
813.1179, 46.69882
813.6000, 46.91468
814.0822, 46.63889
814.5643, 46.12743
815.0464, 46.54219
815.5285, 47.90821
816.0106, 48.72773
816.4927, 48.02427
816.9749, 46.80730
817.4570, 46.65058
817.9391, 47.26300
818.4212, 47.80097
818.9033, 48.11969
819.3854, 48.03420
819.8676, 47.08721
820.3497, 45.64555
820.8318, 44.92091
821.3139, 45.06298
821.7960, 45.65660
822.2781, 46.87835
822.7603, 48.22498
823.2424, 48.32297
823.7245, 47.35294
824.2066, 46.46862
824.6887, 46.01702
825.1708, 45.98795
825.6530, 46.77949
826.1351, 47.95777
826.6172, 48.53777
827.0993, 47.35559
827.5814, 46.65780
828.0635, 47.16149
828.5457, 48.27987
829.0278, 48.80691
829.5099, 48.68250
829.9920, 48.26832
830.4741, 47.47360
830.9562, 46.78018
831.4384, 47.15333
831.9205, 48.24837
832.4026, 49.19139
832.8847, 49.69446
833.3668, 49.94050
833.8489, 49.93504
834.3311, 49.75716
834.8132, 49.51172
835.2953, 48.93310
835.7774, 48.85854
836.2595, 49.58213
836.7416, 50.57365
837.2238, 50.89983
837.7059, 50.64379
838.1880, 50.55737
838.6701, 50.85505
839.1522, 51.22681
839.6343, 51.32597
840.1165, 51.30849
840.5986, 51.39300
841.0807, 51.65475
841.5628, 52.00240
842.0449, 52.59039
842.5270, 53.13495
843.0092, 53.26696
843.4913, 52.85314
843.9734, 52.84058
844.4555, 53.39457
844.9376, 54.05281
845.4197, 54.19438
845.9019, 54.04314
846.3840, 54.08989
846.8661, 54.46268
847.3482, 54.86171
847.8303, 55.11672
848.3124, 55.32214
848.7946, 55.59004
849.2767, 56.06940
849.7588, 56.18605
850.2409, 55.76455
850.7230, 55.31180
851.2051, 55.23763
851.6873, 55.52203
852.1694, 56.16768
852.6515, 57.19817
853.1336, 58.04037
853.6157, 58.07347
854.0978, 57.79244
854.5800, 57.60052
855.0621, 57.52349
855.5442, 57.77758
856.0263, 58.79855
856.5084, 59.74907
856.9905, 60.21020
857.4727, 60.18206
857.9548, 60.06074
858.4369, 59.83699
858.9190, 59.62455
859.4011, 59.43574
859.8832, 59.33963
860.3654, 59.48110
860.8475, 59.84311
861.3296, 60.25414
861.8117, 60.64964
862.2938, 61.06514
862.7759, 61.56310
863.2581, 62.11715
863.7402, 62.49917
864.2223, 62.59856
864.7044, 62.93128
865.1865, 63.94865
865.6686, 65.18556
866.1508, 65.16904
866.6329, 64.19143
867.1150, 63.51784
867.5971, 64.14676
868.0792, 64.95272
868.5613, 65.15942
869.0435, 64.99949
869.5256, 65.23640
870.0077, 66.15662
870.4898, 67.05415
870.9719, 67.85527
871.4540, 68.51843
871.9362, 68.85650
872.4183, 68.92519
872.9004, 69.17320
873.3825, 69.78505
873.8646, 70.52824
874.3467, 71.24078
874.8289, 71.91948
875.3110, 72.55011
875.7931, 73.24394
876.2752, 73.69054
876.7573, 73.57494
877.2394, 73.47521
877.7216, 74.17892
878.2037, 75.73743
878.6858, 77.22349
879.1679, 78.58601
879.6500, 79.59633
880.1321, 79.64622
880.6143, 79.34619
881.0964, 79.62093
881.5785, 80.73325
882.0606, 81.98366
882.5427, 83.08853
883.0248, 84.29408
883.5070, 85.85097
883.9891, 87.93491
884.4712, 89.17434
884.9533, 89.36671
885.4354, 89.69106
885.9175, 91.16064
886.3997, 93.40543
886.8818, 95.79981
887.3639, 98.28809
887.8460, 100.5583
888.3281, 102.2623
888.8102, 103.8297
889.2924, 105.3498
889.7745, 106.8671
890.2566, 109.0443
890.7387, 112.2698
891.2208, 114.8933
891.7029, 115.9302
892.1851, 116.1128
892.6672, 117.3322
893.1493, 119.4566
893.6314, 121.8720
894.1135, 124.1468
894.5956, 126.7807
895.0778, 130.4103
895.5599, 134.6094
896.0420, 138.1196
896.5241, 140.2113
897.0062, 143.0601
897.4883, 147.0285
897.9705, 151.8547
898.4526, 157.3042
898.9347, 163.2006
899.4168, 168.6282
899.8989, 173.2323
900.3810, 177.8515
900.8632, 183.2020
901.3453, 188.9707
901.8274, 194.8669
902.3095, 200.1105
902.7916, 206.7667
903.2737, 215.4542
903.7559, 224.7467
904.2380, 233.1551
904.7201, 240.9219
905.2022, 249.7486
905.6843, 259.6307
906.1664, 270.2920
906.6486, 281.5234
907.1307, 293.2037
907.6128, 305.3426
908.0949, 317.8825
908.5770, 331.0114
909.0591, 345.5419
909.5413, 359.5522
910.0234, 372.0635
910.5055, 383.3743
910.9876, 395.8045
911.4697, 409.2278
911.9518, 421.2009
912.4340, 430.1331
912.9161, 437.1810
913.3982, 443.0407
913.8803, 447.8005
914.3624, 451.6129
914.8445, 452.4472
915.3267, 454.9949
915.8088, 460.0273
916.2909, 467.1795
916.7730, 475.2416
917.2551, 484.3233
917.7372, 497.1761
918.2194, 514.7020
918.7015, 535.5054
919.1836, 558.0585
919.6657, 582.9437
920.1478, 610.9896
920.6299, 642.9200
921.1121, 677.3031
921.5942, 714.2494
922.0763, 753.6542
922.5584, 796.1075
923.0405, 841.7422
923.5226, 886.4740
924.0048, 929.9371
924.4869, 973.5713
924.9690, 1020.681
925.4511, 1067.883
925.9332, 1110.197
926.4153, 1147.722
926.8975, 1185.199
927.3796, 1223.597
927.8617, 1262.496
928.3438, 1301.861
928.8259, 1341.812
929.3080, 1382.765
929.7902, 1424.919
930.2723, 1472.151
930.7544, 1528.462
931.2365, 1587.426
931.7186, 1642.424
932.2007, 1693.678
932.6829, 1741.452
933.1650, 1791.889
933.6471, 1831.209
934.1292, 1859.284
934.6113, 1874.676
935.0934, 1875.373
935.5756, 1861.370
936.0577, 1831.092
936.5398, 1784.299
937.0219, 1724.524
937.5040, 1652.185
937.9861, 1571.095
938.4683, 1484.748
938.9504, 1392.048
939.4325, 1303.849
939.9146, 1221.322
940.3967, 1146.442
940.8788, 1079.027
941.3610, 1019.666
941.8431, 973.2997
942.3252, 939.3810
942.8073, 912.7731
943.2894, 889.4512
943.7715, 872.7988
944.2537, 867.4373
944.7358, 871.6831
945.2179, 879.0316
945.7000, 889.7015
946.1821, 901.6410
946.6642, 916.9106
947.1464, 931.2595
947.6285, 936.9916
948.1106, 934.0703
948.5927, 921.5591
949.0748, 899.0153
949.5569, 867.5086
950.0391, 824.5198
950.5212, 774.6378
951.0033, 723.3629
951.4854, 670.3422
951.9675, 617.7536
952.4496, 563.8809
952.9318, 513.5533
953.4139, 470.7238
953.8960, 434.7938
954.3781, 402.7330
954.8602, 374.6308
955.3423, 348.9520
955.8245, 324.5946
956.3066, 302.4726
956.7887, 283.4121
957.2708, 267.3179
957.7529, 253.2592
958.2350, 241.8626
958.7172, 230.3829
959.1993, 217.5533
959.6814, 204.7009
960.1635, 195.1641
960.6456, 188.1847
961.1277, 181.5039
961.6099, 174.3265
962.0920, 167.3434
962.5741, 160.5590
963.0562, 154.3766
963.5383, 149.4935
964.0204, 146.7327
964.5026, 142.5247
964.9847, 136.4553
965.4668, 130.4668
965.9489, 126.6129
966.4310, 124.0949
966.9131, 121.1018
967.3953, 117.5767
967.8774, 114.0210
968.3595, 110.3701
968.8416, 107.1188
969.3237, 104.6778
969.8058, 102.8626
970.2880, 100.9273
970.7701, 98.85425
971.2522, 96.67004
971.7343, 94.33546
972.2164, 91.93401
972.6985, 89.24682
973.1807, 86.60336
973.6628, 84.68169
974.1449, 84.15255
974.6270, 83.53942
975.1091, 82.63213
975.5912, 81.45635
976.0734, 79.87288
976.5555, 77.86935
977.0376, 76.53554
977.5197, 75.97774
978.0018, 75.35120
978.4839, 73.65952
978.9661, 71.76437
979.4482, 70.64790
979.9303, 70.31396
980.4124, 69.66272
980.8945, 68.19854
981.3766, 66.91396
981.8588, 66.12311
982.3409, 65.66893
982.8230, 65.10796
983.3051, 64.47591
983.7872, 63.98437
984.2693, 63.82104
984.7515, 63.59856
985.2336, 62.80976
985.7157, 61.90442
986.1978, 61.54515
986.6799, 62.39133
987.1620, 62.23060
987.6442, 60.78394
988.1263, 59.10295
988.6084, 58.02514
989.0905, 57.47117
989.5726, 57.38364
990.0547, 57.71893
990.5369, 58.11480
991.0190, 58.70863
991.5011, 58.98152
991.9832, 58.40102
992.4653, 57.31104
992.9474, 56.95621
993.4296, 57.42754
993.9117, 57.75368
994.3938, 57.50530
994.8759, 57.30602
995.3580, 58.05016
995.8401, 59.39727
996.3223, 60.84888
996.8044, 62.40063
997.2865, 63.80061
997.7686, 65.28111
998.2507, 66.31658
998.7328, 66.11140
999.2150, 64.77724
999.6971, 65.04388
1000.179, 66.88772
1000.661, 69.07320
1001.143, 70.87582
1001.626, 72.57181
1002.108, 74.52246
1002.590, 76.59783
1003.072, 78.12911
1003.554, 78.45760
1004.036, 79.83291
1004.518, 83.10892
1005.000, 86.86979
1005.482, 88.62819
1005.965, 88.88988
1006.447, 88.86591
1006.929, 88.76296
1007.411, 88.71031
1007.893, 88.90430
1008.375, 89.06012
1008.857, 88.95570
1009.339, 88.56819
1009.822, 88.26833
1010.304, 88.08061
1010.786, 87.72624
1011.268, 86.52830
1011.750, 85.42479
1012.232, 85.97166
1012.714, 87.63133
1013.196, 88.84309
1013.678, 88.33088
1014.161, 88.46996
1014.643, 89.84423
1015.125, 91.69215
1015.607, 93.08702
1016.089, 93.99967
1016.571, 94.13741
1017.053, 93.39751
1017.535, 92.53160
1018.018, 92.25986
1018.500, 91.98151
1018.982, 91.12675
1019.464, 89.65001
1019.946, 88.44999
1020.428, 87.63625
1020.910, 86.69939
1021.392, 85.40946
1021.874, 83.87070
1022.357, 82.21618
1022.839, 80.49487
1023.321, 78.84313
1023.803, 77.52745
1024.285, 75.96465
1024.767, 73.76022
1025.249, 71.45217
1025.731, 69.53998
1026.214, 68.01615
1026.696, 66.81480
1027.178, 65.93955
1027.660, 65.02846
1028.142, 63.69489
1028.624, 62.26939
1029.106, 60.99783
1029.588, 59.90187
1030.070, 58.94215
1030.553, 58.07069
1031.035, 57.42448
1031.517, 57.10563
1031.999, 56.91130
1032.481, 56.46066
1032.963, 55.83461
1033.445, 55.22048
1033.927, 54.63557
1034.410, 54.15452
1034.892, 53.95266
1035.374, 53.75103
1035.856, 53.39409
1036.338, 52.88248
1036.820, 52.01382
1037.302, 50.79005
1037.784, 49.80957
1038.266, 49.57311
1038.749, 49.65617
1039.231, 49.67198
1039.713, 49.67321
1040.195, 49.78263
1040.677, 49.82005
1041.159, 50.42249
1041.641, 51.94025
1042.123, 53.45876
1042.605, 53.61300
1043.088, 52.89689
1043.570, 52.62473
1044.052, 52.93670
1044.534, 53.76688
1045.016, 55.58965
1045.498, 57.41405
1045.980, 58.71659
1046.462, 59.58525
1046.945, 60.26301
1047.427, 60.73130
1047.909, 61.78747
1048.391, 63.85798
1048.873, 66.19700
1049.355, 68.01405
1049.837, 69.61993
1050.319, 71.47514
1050.802, 73.94003
1051.284, 75.91000
1051.766, 76.99869
1052.248, 78.38216
1052.730, 81.25771
1053.212, 85.01200
1053.694, 87.68032
1054.176, 89.42621
1054.658, 91.04228
1055.141, 93.30005
1055.623, 95.04188
1056.105, 95.84567
1056.587, 95.91006
1057.069, 95.23760
1057.551, 93.79078
1058.033, 93.23125
1058.515, 93.93129
1058.997, 94.00153
1059.480, 91.29964
1059.962, 87.47486
1060.444, 83.90541
1060.926, 80.76540
1061.408, 77.77451
1061.890, 74.89919
1062.372, 72.24578
1062.854, 69.97448
1063.337, 67.79585
1063.819, 64.92825
1064.301, 61.80577
1064.783, 59.47801
1065.265, 58.61591
1065.747, 57.65379
1066.229, 55.99389
1066.711, 54.17999
1067.193, 52.46865
1067.676, 50.87908
1068.158, 49.55071
1068.640, 48.47317
1069.122, 47.56564
1069.604, 46.84488
1070.086, 46.19588
1070.568, 45.61591
1071.050, 45.01549
1071.532, 44.16712
1072.015, 42.86631
1072.497, 42.07757
1072.979, 41.98310
1073.461, 41.99432
1073.943, 41.35360
1074.425, 40.49526
1074.907, 40.03134
1075.389, 40.00726
1075.872, 40.06565
1076.354, 40.36324
1076.836, 40.34199
1077.318, 39.67584
1077.800, 38.77818
1078.282, 38.74190
1078.764, 39.29478
1079.246, 39.36738
1079.729, 38.52566
1080.211, 37.74279
1080.693, 37.54392
1081.175, 37.62962
1081.657, 37.81590
1082.139, 38.10160
1082.621, 38.13116
1083.103, 37.89924
1083.585, 37.74226
1084.068, 37.88189
1084.550, 38.13751
1085.032, 38.57750
1085.514, 38.94547
1085.996, 38.67843
1086.478, 36.95131
1086.960, 36.43088
1087.442, 37.48163
1087.924, 38.85527
1088.406, 39.48682
1088.889, 39.58324
1089.371, 39.32811
1089.853, 38.83375
1090.335, 38.69188
1090.817, 39.25190
1091.299, 40.07449
1091.781, 41.18874
1092.263, 42.35709
1092.746, 43.11782
1093.228, 43.53091
1093.710, 43.79398
1094.192, 43.90866
1094.674, 44.20293
1095.156, 45.03149
1095.638, 45.99352
1096.120, 46.90529
1096.603, 47.72502
1097.085, 48.11634
1097.567, 48.06341
1098.049, 47.97098
1098.531, 47.97582
1099.013, 48.02171
1099.495, 48.17088
1099.977, 48.26736
1100.459, 48.08341
1100.942, 47.46557
1101.424, 46.91848
1101.906, 46.39941
1102.388, 46.09285
1102.870, 46.42316
1103.352, 46.87690
1103.834, 46.39526
1104.316, 45.19651
1104.798, 43.90857
1105.281, 42.48635
1105.763, 41.35557
1106.245, 40.57159
1106.727, 40.07584
1107.209, 39.99923
1107.691, 40.18006
1108.173, 39.84209
1108.655, 38.98006
1109.138, 38.21761
1109.620, 37.91446
1110.102, 37.78489
1110.584, 37.82024
1111.066, 37.87543
1111.548, 37.63158
1112.030, 37.09039
1112.512, 36.38664
1112.995, 35.47831
1113.477, 34.82479
1113.959, 35.03355
1114.441, 35.50915
1114.923, 35.81282
1115.405, 35.90760
1115.887, 35.70760
1116.369, 35.15038
1116.851, 34.62353
1117.333, 34.22371
1117.816, 33.99939
1118.298, 34.13933
1118.780, 34.44495
1119.262, 34.64268
1119.744, 34.69022
1120.226, 34.52267
1120.708, 33.99746
1121.190, 33.62178
1121.673, 33.83103
1122.155, 34.31961
1122.637, 34.32875
1123.119, 34.00128
1123.601, 33.73140
1124.083, 33.84534
1124.565, 33.76020
1125.047, 33.17937
1125.530, 32.65229
1126.012, 32.84522
1126.494, 33.57209
1126.976, 33.78468
1127.458, 33.49163
1127.940, 33.06554
1128.422, 32.52383
1128.904, 32.11455
1129.386, 32.01298
1129.869, 32.07094
1130.351, 32.07682
1130.833, 32.03191
1131.315, 32.07145
1131.797, 32.22481
1132.279, 32.20647
1132.761, 31.35718
1133.243, 30.63412
1133.725, 31.08900
1134.208, 32.37058
1134.690, 32.52218
1135.172, 31.32285
1135.654, 30.75891
1136.136, 31.47517
1136.618, 32.28389
1137.100, 31.52174
1137.582, 30.35482
1138.065, 30.15800
1138.547, 31.28177
1139.029, 32.02543
1139.511, 32.39244
1139.993, 32.26520
1140.475, 31.36440
1140.957, 30.32274
1141.439, 30.36689
1141.922, 30.91119
1142.404, 30.86769
1142.886, 29.50602
1143.368, 28.88299
1143.850, 29.39673
1144.332, 30.10105
1144.814, 30.48224
1145.296, 30.59297
1145.778, 30.43801
1146.260, 30.12833
1146.743, 29.98393
1147.225, 30.44878
1147.707, 30.63404
1148.189, 30.32578
1148.671, 29.83798
1149.153, 29.33505
1149.635, 28.88121
1150.117, 28.88030
1150.600, 29.27771
1151.082, 29.62920
1151.564, 29.84532
1152.046, 29.79293
1152.528, 29.21304
1153.010, 28.51123
1153.492, 28.25464
1153.974, 28.40558
1154.457, 28.57383
1154.939, 28.72224
1155.421, 28.77384
1155.903, 28.65545
1156.385, 28.44492
1156.867, 28.05636
1157.349, 27.64402
1157.831, 27.61950
1158.313, 27.99033
1158.796, 28.23374
1159.278, 28.25251
1159.760, 28.22520
1160.242, 28.28087
1160.724, 28.37111
1161.206, 28.49629
1161.688, 28.63307
1162.170, 28.64475
1162.652, 28.53714
1163.135, 28.18570
1163.617, 27.43882
1164.099, 26.83002
1164.581, 27.09597
1165.063, 27.67437
1165.545, 27.93715
1166.027, 27.78012
1166.509, 27.80866
1166.992, 28.03937
1167.474, 28.38824
1167.956, 28.93704
1168.438, 29.38032
1168.920, 29.19361
1169.402, 28.70641
1169.884, 28.40479
1170.366, 28.48980
1170.849, 28.37965
1171.331, 28.02740
1171.813, 27.63956
1172.295, 27.28918
1172.777, 27.01079
1173.259, 26.84138
1173.741, 26.78744
1174.223, 26.86851
1174.705, 27.21470
1175.188, 27.48397
1175.670, 27.66636
1176.152, 27.79180
1176.634, 27.81711
1177.116, 27.83478
1177.598, 28.24522
1178.080, 28.81596
1178.562, 28.85243
1179.044, 27.28787
1179.527, 26.49849
1180.009, 26.88020
1180.491, 27.60547
1180.973, 28.01690
1181.455, 28.12596
1181.937, 27.71065
1182.419, 26.93919
1182.901, 26.61209
1183.384, 27.56400
1183.866, 28.25014
1184.348, 28.37377
1184.830, 28.23942
1185.312, 28.14140
1185.794, 28.10723
1186.276, 28.29908
1186.758, 28.69134
1187.240, 28.88284
1187.723, 28.48170
1188.205, 28.13787
1188.687, 27.99901
1189.169, 28.00311
1189.651, 28.03168
1190.133, 28.11942
1190.615, 28.46531
1191.097, 29.09610
1191.579, 29.49812
1192.062, 29.03289
1192.544, 28.84336
1193.026, 29.45886
1193.508, 30.40523
1193.990, 30.64352
1194.472, 30.31961
1194.954, 29.84153
1195.436, 29.23218
1195.919, 28.96981
1196.401, 29.62347
1196.883, 30.26926
1197.365, 30.50821
1197.847, 30.48343
1198.329, 30.58632
1198.811, 30.79016
1199.293, 31.03555
1199.776, 31.36924
1200.258, 31.45753
1200.740, 30.88425
1201.222, 30.28724
1201.704, 29.92722
1202.186, 29.81770
1202.668, 30.21639
1203.150, 30.95239
1203.632, 31.30203
1204.115, 30.87902
1204.597, 30.50336
1205.079, 30.54692
1205.561, 30.77573
1206.043, 31.13810
1206.525, 31.56202
1207.007, 31.63762
1207.489, 31.41129
1207.971, 31.07656
1208.454, 30.61064
1208.936, 30.25052
1209.418, 30.10514
1209.900, 30.11025
1210.382, 30.27185
1210.864, 30.55877
1211.346, 30.77655
1211.828, 30.92006
1212.311, 30.95274
1212.793, 30.78935
1213.275, 30.61878
1213.757, 30.54004
1214.239, 30.44902
1214.721, 30.22097
1215.203, 29.89685
1215.685, 29.77731
1216.167, 29.85477
1216.650, 30.08166
1217.132, 30.68279
1217.614, 31.10345
1218.096, 31.15551
1218.578, 30.97829
1219.060, 30.56386
1219.542, 29.98774
1220.024, 29.87863
1220.506, 30.14178
1220.989, 30.18553
1221.471, 29.13949
1221.953, 28.63813
1222.435, 29.62582
1222.917, 30.75957
1223.399, 30.39310
1223.881, 28.93198
1224.363, 28.48705
1224.846, 28.97839
1225.328, 29.48053
1225.810, 29.64559
1226.292, 29.59929
1226.774, 29.27526
1227.256, 28.91867
1227.738, 28.90340
1228.220, 29.09425
1228.703, 28.90058
1229.185, 28.36904
1229.667, 28.03465
1230.149, 28.53756
1230.631, 28.69645
1231.113, 28.12368
1231.595, 27.32243
1232.077, 26.83824
1232.559, 26.66098
1233.042, 26.89312
1233.524, 27.47900
1234.006, 27.94958
1234.488, 28.24675
1234.970, 28.14759
1235.452, 27.46371
1235.934, 26.65519
1236.416, 26.36059
1236.898, 26.41121
1237.381, 26.51808
1237.863, 26.63191
1238.345, 26.56343
1238.827, 25.89835
1239.309, 25.63042
1239.791, 26.04692
1240.273, 26.64972
1240.755, 26.79871
1241.238, 26.64923
1241.720, 26.41554
1242.202, 26.13753
1242.684, 26.00329
1243.166, 26.07631
1243.648, 26.26040
1244.130, 26.61042
1244.612, 26.87117
1245.094, 26.53496
1245.577, 25.98546
1246.059, 25.83696
1246.541, 26.11278
1247.023, 26.32257
1247.505, 26.41247
1247.987, 26.46111
1248.469, 26.49917
1248.951, 26.45011
1249.433, 26.04661
1249.916, 25.61661
1250.398, 25.59287
1250.880, 25.99447
1251.362, 26.37363
1251.844, 26.76169
1252.326, 26.87797
1252.808, 26.60828
1253.290, 26.26895
1253.773, 26.17850
1254.255, 26.20753
1254.737, 26.24646
1255.219, 26.28547
1255.701, 26.34640
1256.183, 26.44665
1256.665, 26.40789
1257.147, 26.17962
1257.630, 25.86576
1258.112, 25.43544
1258.594, 25.06691
1259.076, 24.94641
1259.558, 25.02640
1260.040, 25.09491
1260.522, 25.15338
1261.004, 25.43399
1261.486, 26.03293
1261.969, 26.54470
1262.451, 26.68911
1262.933, 26.59726
1263.415, 26.18738
1263.897, 25.67093
1264.379, 25.85520
1264.861, 26.63600
1265.343, 27.31326
1265.825, 27.76652
1266.308, 27.82060
1266.790, 26.94708
1267.272, 26.11182
1267.754, 25.78233
1268.236, 25.81635
1268.718, 25.83318
1269.200, 25.88787
1269.682, 26.27798
1270.165, 27.12424
1270.647, 27.66227
1271.129, 27.47840
1271.611, 26.97862
1272.093, 26.13001
1272.575, 25.25098
1273.057, 24.94040
1273.539, 25.09359
1274.021, 25.57332
1274.504, 26.39938
1274.986, 27.03716
1275.468, 27.53477
1275.950, 27.50787
1276.432, 26.64839
1276.914, 25.62702
1277.396, 25.55696
1277.878, 25.97510
1278.360, 26.14434
1278.843, 25.94903
1279.325, 26.07353
1279.807, 26.65433
1280.289, 27.16844
1280.771, 27.50634
1281.253, 27.62596
1281.735, 27.30071
1282.217, 26.85485
1282.700, 26.63295
1283.182, 26.65751
1283.664, 26.82737
1284.146, 27.17985
1284.628, 27.17654
1285.110, 26.59885
1285.592, 26.05030
1286.074, 26.17660
1286.557, 26.44533
1287.039, 26.39171
1287.521, 26.12579
1288.003, 26.07435
1288.485, 26.22920
1288.967, 26.56360
1289.449, 27.11393
1289.931, 27.45839
1290.413, 27.05888
1290.896, 26.70417
1291.378, 26.85279
1291.860, 27.24702
1292.342, 27.18732
1292.824, 26.81446
1293.306, 26.63764
1293.788, 26.75875
1294.270, 26.84431
1294.752, 26.77051
1295.235, 26.60502
1295.717, 26.30501
1296.199, 26.02513
1296.681, 26.16895
1297.163, 26.47165
1297.645, 26.34497
1298.127, 25.71811
1298.609, 25.50406
1299.092, 25.94277
1299.574, 26.40530
1300.056, 26.80135
1300.538, 26.99830
1301.020, 26.68752
1301.502, 26.19582
1301.984, 25.89917
1302.466, 25.81251
1302.948, 25.67206
1303.431, 25.44389
1303.913, 25.41121
1304.395, 25.62526
1304.877, 26.06954
##END=



