##NAMES=Benitoite
##RRUFFID=R050332
##IDEAL CHEMISTRY=BaTi^4+^Si_3_O_9_
##LOCALITY=Benitoite Gem mine, Santa Rita Peak, San Benito County, California, USA
##OWNER=RRUFF
##SOURCE=California Institute of Technology
##DESCRIPTION=Pale blue fragment
##STATUS=The identification of this mineral is confirmed by single-crystal X-ray diffraction and chemical analysis.
##URL=rruff.info/R050332
##MEASURED CHEMISTRY=Ba_1.00_Ti_1.00_Si_3.00_O_9_
92.35352, 8.490348
92.83563, 7.975662
93.31775, 7.756580
93.79987, 7.959379
94.28198, 8.474592
94.76410, 9.000521
95.24622, 9.494649
95.72833, 9.949542
96.21045, 10.33948
96.69257, 10.66653
97.17468, 10.93165
97.65680, 11.01976
98.13892, 10.93919
98.62103, 11.14051
99.10315, 11.75249
99.58527, 12.74450
100.0674, 13.92869
100.5495, 15.32758
101.0316, 16.84712
101.5137, 18.31497
101.9958, 19.67545
102.4780, 21.21275
102.9601, 22.99927
103.4422, 25.03883
103.9243, 27.31291
104.4064, 29.92982
104.8885, 32.72424
105.3707, 35.49767
105.8528, 38.39552
106.3349, 41.03364
106.8170, 43.23702
107.2991, 44.86446
107.7813, 46.31089
108.2634, 47.33581
108.7455, 48.15142
109.2276, 49.42637
109.7097, 51.57925
110.1918, 53.90337
110.6740, 56.10973
111.1561, 57.93447
111.6382, 59.92957
112.1203, 62.18025
112.6024, 64.67178
113.0845, 67.18786
113.5667, 69.50756
114.0488, 71.93320
114.5309, 74.69727
115.0130, 78.14096
115.4951, 81.62889
115.9772, 84.77401
116.4594, 87.62543
116.9415, 91.06809
117.4236, 95.56442
117.9057, 100.7813
118.3878, 106.3378
118.8699, 111.7398
119.3521, 117.7717
119.8342, 125.3066
120.3163, 134.5415
120.7984, 143.6494
121.2805, 152.9379
121.7626, 161.2577
122.2448, 166.6441
122.7269, 168.6225
123.2090, 167.0062
123.6911, 160.7999
124.1732, 149.1571
124.6553, 136.0300
125.1375, 124.0279
125.6196, 113.2887
126.1017, 104.2480
126.5838, 97.62307
127.0659, 92.80808
127.5480, 88.60543
128.0302, 84.67333
128.5123, 81.57842
128.9944, 80.55238
129.4765, 81.41895
129.9586, 82.53078
130.4407, 82.57373
130.9229, 81.82857
131.4050, 81.48650
131.8871, 81.93819
132.3692, 82.78352
132.8513, 82.97358
133.3334, 82.31554
133.8156, 81.38140
134.2977, 80.98162
134.7798, 81.37073
135.2619, 82.11129
135.7440, 83.15462
136.2261, 84.45427
136.7083, 85.87634
137.1904, 87.39507
137.6725, 89.12182
138.1546, 91.21107
138.6367, 93.70088
139.1188, 96.36121
139.6010, 99.10840
140.0831, 101.9280
140.5652, 105.1331
141.0473, 108.5998
141.5294, 112.6403
142.0115, 117.7236
142.4937, 124.3066
142.9758, 130.9602
143.4579, 137.5288
143.9400, 144.2061
144.4221, 149.6692
144.9042, 153.4856
145.3864, 156.3670
145.8685, 159.4285
146.3506, 162.8471
146.8327, 166.2339
147.3148, 169.5070
147.7969, 172.6417
148.2791, 175.6513
148.7612, 178.0537
149.2433, 180.3557
149.7254, 183.8079
150.2075, 189.4153
150.6896, 195.2698
151.1718, 200.5986
151.6539, 204.4091
152.1360, 209.1540
152.6181, 214.9768
153.1002, 221.7722
153.5823, 229.2037
154.0645, 237.3675
154.5466, 246.1421
155.0287, 255.4147
155.5108, 264.1761
155.9929, 274.7973
156.4750, 287.4633
156.9572, 302.1701
157.4393, 318.7247
157.9214, 338.0052
158.4035, 358.7071
158.8856, 380.0607
159.3677, 404.6957
159.8499, 427.2696
160.3320, 448.2853
160.8141, 466.9528
161.2962, 477.9775
161.7783, 481.7157
162.2604, 475.9037
162.7426, 458.6830
163.2247, 422.7220
163.7068, 381.2884
164.1889, 336.6726
164.6710, 289.8607
165.1531, 248.2234
165.6353, 215.0068
166.1174, 188.9933
166.5995, 168.8776
167.0816, 156.7172
167.5637, 148.3810
168.0458, 141.8111
168.5280, 136.9992
169.0101, 133.1295
169.4922, 129.8222
169.9743, 127.1484
170.4564, 125.2363
170.9385, 124.3845
171.4207, 124.1639
171.9028, 124.2763
172.3849, 124.7174
172.8670, 125.3521
173.3491, 125.9731
173.8312, 126.7172
174.3134, 127.8529
174.7955, 129.5275
175.2776, 131.6329
175.7597, 133.9226
176.2418, 136.3572
176.7239, 139.3857
177.2061, 143.6121
177.6882, 148.8589
178.1703, 154.5454
178.6524, 159.8784
179.1345, 165.6663
179.6166, 172.9194
180.0988, 181.6432
180.5809, 192.4447
181.0630, 206.0367
181.5451, 222.3948
182.0272, 240.8393
182.5093, 262.4844
182.9915, 286.1181
183.4736, 309.0816
183.9557, 331.9121
184.4378, 352.2300
184.9199, 366.3508
185.4020, 374.6437
185.8842, 381.5585
186.3663, 388.9336
186.8484, 396.7591
187.3305, 404.5539
187.8126, 412.1720
188.2947, 420.2637
188.7769, 430.0226
189.2590, 441.4034
189.7411, 453.4413
190.2232, 465.5704
190.7053, 477.8817
191.1874, 491.1337
191.6696, 505.4170
192.1517, 520.8936
192.6338, 537.7473
193.1159, 555.9521
193.5980, 576.1434
194.0801, 597.6747
194.5623, 620.6837
195.0444, 648.8393
195.5265, 681.7154
196.0086, 720.6362
196.4907, 768.3761
196.9728, 825.0157
197.4550, 889.5583
197.9371, 962.4677
198.4192, 1043.800
198.9013, 1130.555
199.3834, 1225.968
199.8655, 1322.716
200.3477, 1412.508
200.8298, 1501.035
201.3119, 1554.626
201.7940, 1547.582
202.2761, 1475.933
202.7582, 1385.713
203.2404, 1272.197
203.7225, 1149.002
204.2046, 1053.072
204.6867, 986.0938
205.1688, 940.1528
205.6509, 913.3301
206.1331, 907.1107
206.6152, 909.1890
207.0973, 919.7875
207.5794, 937.3561
208.0615, 957.0228
208.5436, 978.2071
209.0258, 1003.126
209.5079, 1032.988
209.9900, 1067.811
210.4721, 1106.477
210.9542, 1148.241
211.4363, 1193.981
211.9185, 1246.107
212.4006, 1303.548
212.8827, 1370.274
213.3648, 1447.444
213.8469, 1536.557
214.3290, 1633.804
214.8112, 1741.807
215.2933, 1856.738
215.7754, 1970.722
216.2575, 2088.520
216.7396, 2196.751
217.2217, 2290.430
217.7038, 2376.716
218.1860, 2427.184
218.6681, 2442.358
219.1502, 2420.026
219.6323, 2346.897
220.1144, 2210.857
220.5965, 2046.047
221.0787, 1867.706
221.5608, 1664.976
222.0429, 1479.050
222.5250, 1312.757
223.0071, 1165.208
223.4892, 1040.059
223.9714, 939.0247
224.4535, 855.7921
224.9356, 786.5193
225.4177, 733.2464
225.8998, 690.2546
226.3819, 658.0443
226.8641, 635.6605
227.3462, 621.1555
227.8283, 615.5541
228.3104, 616.2034
228.7925, 622.1367
229.2746, 634.8420
229.7568, 649.9241
230.2389, 668.3273
230.7210, 688.9607
231.2031, 709.4867
231.6852, 737.5994
232.1673, 754.2567
232.6495, 749.7324
233.1316, 719.9344
233.6137, 677.0587
234.0958, 615.3981
234.5779, 542.5109
235.0600, 480.0680
235.5422, 427.8890
236.0243, 385.4367
236.5064, 352.9007
236.9885, 332.9470
237.4706, 317.1459
237.9527, 306.2762
238.4349, 299.5219
238.9170, 295.1954
239.3991, 293.9969
239.8812, 294.1754
240.3633, 294.9917
240.8454, 296.1835
241.3276, 298.6031
241.8097, 301.9427
242.2918, 306.5926
242.7739, 313.5234
243.2560, 323.5715
243.7381, 334.6033
244.2203, 345.6872
244.7024, 356.1852
245.1845, 368.5769
245.6666, 383.3089
246.1487, 399.6931
246.6308, 416.7186
247.1130, 434.2281
247.5951, 452.7211
248.0772, 472.2383
248.5593, 493.0160
249.0414, 514.3495
249.5235, 536.4651
250.0057, 558.9554
250.4878, 581.6241
250.9699, 604.7258
251.4520, 627.6000
251.9341, 649.3827
252.4162, 669.4636
252.8984, 692.0658
253.3805, 717.8323
253.8626, 745.8528
254.3447, 773.9445
254.8268, 801.9197
255.3089, 831.1509
255.7911, 861.5730
256.2732, 893.2098
256.7553, 926.9213
257.2374, 962.7806
257.7195, 1000.810
258.2017, 1041.125
258.6838, 1084.405
259.1659, 1129.200
259.6480, 1175.658
260.1301, 1223.379
260.6122, 1273.049
261.0944, 1326.375
261.5765, 1379.802
262.0586, 1430.703
262.5407, 1480.590
263.0228, 1523.713
263.5049, 1559.224
263.9871, 1587.293
264.4692, 1604.866
264.9513, 1613.115
265.4334, 1609.352
265.9155, 1590.593
266.3976, 1556.232
266.8798, 1509.881
267.3619, 1451.010
267.8440, 1380.113
268.3261, 1304.610
268.8082, 1223.071
269.2903, 1140.268
269.7725, 1059.748
270.2546, 981.9623
270.7367, 908.8309
271.2188, 841.0879
271.7009, 778.3671
272.1830, 721.1902
272.6652, 668.2302
273.1473, 620.4666
273.6294, 578.1932
274.1115, 541.9341
274.5936, 508.6245
275.0757, 477.8905
275.5579, 449.6035
276.0400, 424.5122
276.5221, 402.9063
277.0042, 383.3204
277.4863, 365.1229
277.9684, 348.3563
278.4506, 332.3223
278.9327, 316.8114
279.4148, 302.2201
279.8969, 289.4645
280.3790, 278.6369
280.8611, 269.0080
281.3433, 260.6576
281.8254, 253.5387
282.3075, 245.6277
282.7896, 236.5396
283.2717, 227.2608
283.7538, 219.4725
284.2360, 213.2207
284.7181, 207.2613
285.2002, 200.8516
285.6823, 194.1297
286.1644, 188.5110
286.6465, 184.2327
287.1287, 180.3822
287.6108, 175.6648
288.0929, 170.1444
288.5750, 165.0236
289.0571, 160.8727
289.5392, 157.4638
290.0214, 153.9508
290.5035, 150.3174
290.9856, 146.8290
291.4677, 143.7979
291.9498, 141.1749
292.4319, 138.7606
292.9141, 136.5395
293.3962, 134.4389
293.8783, 132.2538
294.3604, 129.9922
294.8425, 127.8082
295.3246, 125.7002
295.8068, 123.7340
296.2889, 122.2147
296.7710, 121.3681
297.2531, 120.7936
297.7352, 119.8079
298.2173, 118.4571
298.6995, 117.0866
299.1816, 115.9844
299.6637, 115.0455
300.1458, 114.0545
300.6279, 112.9129
301.1100, 111.8124
301.5922, 111.0784
302.0743, 110.6299
302.5564, 110.1456
303.0385, 109.2100
303.5206, 108.1890
304.0027, 107.6780
304.4849, 107.8591
304.9670, 108.1283
305.4491, 107.9506
305.9312, 107.4190
306.4133, 106.7570
306.8954, 105.9771
307.3776, 105.1759
307.8597, 104.4052
308.3418, 103.6473
308.8239, 103.1108
309.3060, 103.1612
309.7881, 103.5010
310.2703, 103.6581
310.7524, 103.2915
311.2345, 102.7869
311.7166, 102.3990
312.1987, 102.1318
312.6808, 101.9165
313.1630, 101.7550
313.6451, 101.6065
314.1272, 101.4266
314.6093, 101.2890
315.0914, 101.0335
315.5735, 100.3863
316.0557, 99.46358
316.5378, 98.88538
317.0199, 99.27000
317.5020, 99.89335
317.9841, 100.2088
318.4662, 99.79422
318.9484, 99.50028
319.4305, 99.88110
319.9126, 100.6228
320.3947, 100.9004
320.8768, 99.72749
321.3589, 98.59657
321.8411, 98.34116
322.3232, 99.50945
322.8053, 100.4681
323.2874, 100.6568
323.7695, 100.4929
324.2516, 100.6372
324.7338, 101.4493
325.2159, 102.3453
325.6980, 102.9549
326.1801, 102.9892
326.6622, 103.9992
327.1443, 106.0671
327.6265, 109.1647
328.1086, 113.2926
328.5907, 119.0866
329.0728, 125.1405
329.5549, 131.4507
330.0370, 138.0502
330.5192, 144.1244
331.0013, 149.9732
331.4834, 155.0937
331.9655, 159.1163
332.4476, 161.2444
332.9297, 163.6365
333.4119, 166.3856
333.8940, 169.5138
334.3761, 173.0980
334.8582, 177.0160
335.3403, 181.4452
335.8224, 186.4741
336.3046, 192.1836
336.7867, 198.2487
337.2688, 204.5498
337.7509, 211.3196
338.2330, 219.0644
338.7151, 227.5595
339.1973, 237.5357
339.6794, 248.9073
340.1615, 261.4488
340.6436, 278.0305
341.1257, 298.5833
341.6078, 322.9102
342.0899, 351.4560
342.5721, 383.9005
343.0542, 418.2706
343.5363, 453.7767
344.0184, 490.3786
344.5005, 529.8807
344.9826, 572.4636
345.4648, 614.3095
345.9469, 659.2834
346.4290, 704.4926
346.9111, 721.6087
347.3932, 700.9094
347.8753, 655.8502
348.3575, 604.2773
348.8396, 547.6756
349.3217, 500.8086
349.8038, 474.5814
350.2859, 465.9173
350.7680, 468.1781
351.2502, 481.1960
351.7323, 502.6828
352.2144, 531.3992
352.6965, 566.8123
353.1786, 606.4913
353.6607, 651.0256
354.1429, 698.3613
354.6250, 746.3262
355.1071, 794.8467
355.5892, 843.4706
356.0713, 892.3571
356.5534, 941.0387
357.0356, 988.8018
357.5177, 1034.189
357.9998, 1079.834
358.4819, 1127.234
358.9640, 1176.135
359.4461, 1223.965
359.9283, 1273.065
360.4104, 1318.541
360.8925, 1356.278
361.3746, 1384.603
361.8567, 1406.354
362.3388, 1417.042
362.8210, 1421.787
363.3031, 1432.475
363.7852, 1447.714
364.2673, 1473.802
364.7494, 1514.025
365.2315, 1569.752
365.7137, 1636.045
366.1958, 1716.516
366.6779, 1804.768
367.1600, 1894.021
367.6421, 1990.154
368.1242, 2080.318
368.6064, 2166.330
369.0885, 2248.992
369.5706, 2308.946
370.0527, 2358.582
370.5348, 2376.534
371.0169, 2348.602
371.4991, 2266.050
371.9812, 2152.220
372.4633, 1998.574
372.9454, 1814.340
373.4275, 1633.155
373.9096, 1447.075
374.3918, 1274.303
374.8739, 1126.350
375.3560, 1003.119
375.8381, 897.2847
376.3202, 811.1461
376.8023, 740.8514
377.2845, 682.1221
377.7666, 636.0775
378.2487, 598.1147
378.7308, 568.6217
379.2129, 546.5451
379.6950, 527.9891
380.1772, 512.9095
380.6593, 500.7522
381.1414, 491.1164
381.6235, 483.9903
382.1056, 478.5067
382.5877, 474.6049
383.0699, 472.1986
383.5520, 471.0115
384.0341, 471.0767
384.5162, 472.8192
384.9983, 476.5721
385.4804, 482.2030
385.9626, 489.1325
386.4447, 497.0812
386.9268, 507.5166
387.4089, 522.3427
387.8910, 540.8644
388.3731, 561.1898
388.8553, 581.6511
389.3374, 604.0883
389.8195, 630.9385
390.3016, 661.6508
390.7837, 693.0861
391.2658, 724.0557
391.7480, 754.0287
392.2301, 782.7151
392.7122, 812.2804
393.1943, 837.4481
393.6764, 858.0955
394.1585, 872.6033
394.6407, 876.0976
395.1228, 867.0823
395.6049, 846.8380
396.0870, 814.8189
396.5691, 769.1495
397.0512, 718.0871
397.5334, 658.7978
398.0155, 596.1160
398.4976, 536.8980
398.9797, 479.0406
399.4618, 427.1014
399.9439, 382.1397
400.4261, 344.1408
400.9082, 310.7453
401.3903, 282.5818
401.8724, 258.4166
402.3545, 237.6090
402.8366, 221.2457
403.3188, 206.3336
403.8009, 192.7290
404.2830, 180.4767
404.7651, 169.7401
405.2472, 160.8019
405.7293, 152.8735
406.2115, 145.7535
406.6936, 139.5154
407.1757, 133.5326
407.6578, 127.6917
408.1399, 122.3807
408.6220, 118.1502
409.1042, 114.9786
409.5863, 111.8544
410.0684, 108.3888
410.5505, 104.9039
411.0326, 102.0760
411.5147, 99.87936
411.9969, 97.86333
412.4790, 95.59755
412.9611, 93.24906
413.4432, 91.31717
413.9253, 89.92398
414.4074, 88.65208
414.8896, 86.90970
415.3717, 84.92586
415.8538, 83.25236
416.3359, 82.46748
416.8180, 81.92093
417.3001, 80.94340
417.7823, 79.52978
418.2644, 78.33280
418.7465, 77.83738
419.2286, 77.66196
419.7107, 77.45610
420.1928, 77.22453
420.6750, 76.81078
421.1571, 76.01212
421.6392, 74.97079
422.1213, 74.07700
422.6034, 73.51818
423.0855, 73.05783
423.5677, 72.59134
424.0498, 72.09234
424.5319, 71.66982
425.0140, 70.83036
425.4961, 70.31016
425.9782, 70.90061
426.4604, 73.73547
426.9425, 76.05208
427.4246, 77.63396
427.9067, 78.44280
428.3888, 77.96427
428.8709, 75.58122
429.3531, 73.00867
429.8352, 71.16473
430.3173, 70.19128
430.7994, 69.34957
431.2815, 68.59277
431.7636, 68.00426
432.2458, 67.81755
432.7279, 68.05871
433.2100, 68.24684
433.6921, 68.18752
434.1742, 67.94686
434.6563, 67.80913
435.1385, 67.77912
435.6206, 67.65791
436.1027, 67.16888
436.5848, 66.45208
437.0669, 65.86626
437.5490, 65.44923
438.0312, 65.25743
438.5133, 65.48650
438.9954, 66.00862
439.4775, 66.46750
439.9596, 66.50568
440.4417, 66.51089
440.9239, 66.90617
441.4060, 67.71661
441.8881, 68.47476
442.3702, 68.81832
442.8523, 69.01635
443.3344, 69.32454
443.8166, 69.66078
444.2987, 70.29202
444.7808, 71.36455
445.2629, 72.80200
445.7450, 74.39481
446.2271, 76.21545
446.7093, 78.04449
447.1914, 79.80135
447.6735, 81.48401
448.1556, 83.08773
448.6377, 84.42336
449.1198, 85.79053
449.6020, 87.51492
450.0841, 89.70076
450.5662, 91.97015
451.0483, 94.36837
451.5304, 96.81126
452.0125, 98.74322
452.4947, 99.95015
452.9768, 101.3561
453.4589, 103.5332
453.9410, 106.5187
454.4231, 109.6024
454.9052, 112.7876
455.3874, 116.1343
455.8695, 119.7344
456.3516, 123.6104
456.8337, 127.7467
457.3158, 132.0006
457.7979, 136.6874
458.2801, 142.8159
458.7622, 150.1502
459.2443, 157.2639
459.7264, 162.7788
460.2085, 167.5886
460.6906, 172.8819
461.1728, 178.9628
461.6549, 184.8671
462.1370, 190.5478
462.6191, 195.3907
463.1012, 198.3434
463.5833, 199.3519
464.0655, 198.0971
464.5476, 193.9716
465.0297, 187.1984
465.5118, 179.3439
465.9939, 170.0444
466.4760, 160.4766
466.9582, 151.2309
467.4403, 141.5389
467.9224, 133.4925
468.4045, 127.5971
468.8866, 123.1679
469.3687, 119.1680
469.8509, 115.5486
470.3330, 112.5981
470.8151, 110.5546
471.2972, 109.3224
471.7793, 107.7928
472.2614, 105.7147
472.7436, 103.9860
473.2257, 103.4519
473.7078, 104.1370
474.1899, 104.3936
474.6720, 104.0542
475.1541, 103.3846
475.6363, 102.7311
476.1184, 102.0846
476.6005, 101.3841
477.0826, 100.5326
477.5647, 99.65643
478.0468, 99.02734
478.5290, 98.61086
479.0111, 98.09429
479.4932, 97.12653
479.9753, 95.99126
480.4574, 94.96172
480.9395, 94.01080
481.4217, 93.42272
481.9038, 93.42823
482.3859, 93.90209
482.8680, 94.66828
483.3501, 95.79617
483.8322, 97.08130
484.3144, 98.35188
484.7965, 99.62801
485.2786, 101.3737
485.7607, 104.0094
486.2428, 106.8339
486.7249, 109.4801
487.2071, 111.6604
487.6892, 114.2211
488.1713, 117.2907
488.6534, 120.6479
489.1355, 123.9944
489.6176, 127.2587
490.0998, 130.8073
490.5819, 134.8593
491.0640, 139.3197
491.5461, 143.5091
492.0282, 147.3915
492.5103, 151.4520
492.9925, 155.9120
493.4746, 160.8344
493.9567, 166.1516
494.4388, 171.9279
494.9209, 178.1187
495.4030, 184.7783
495.8852, 191.8489
496.3673, 199.4083
496.8494, 207.7679
497.3315, 216.2604
497.8136, 224.3468
498.2957, 232.0820
498.7779, 239.3625
499.2600, 246.6486
499.7421, 253.2070
500.2242, 258.4213
500.7063, 262.0845
501.1884, 265.2730
501.6706, 269.0389
502.1527, 272.1598
502.6348, 273.3227
503.1169, 272.2870
503.5990, 269.3350
504.0811, 264.0508
504.5633, 256.8922
505.0454, 249.2554
505.5275, 240.9207
506.0096, 232.6988
506.4917, 224.8188
506.9738, 217.1612
507.4560, 210.4008
507.9381, 204.4528
508.4202, 199.6206
508.9023, 196.2837
509.3844, 194.4137
509.8665, 193.5464
510.3487, 193.6072
510.8308, 194.6103
511.3129, 196.7000
511.7950, 199.8007
512.2772, 203.5573
512.7593, 207.5709
513.2414, 212.2446
513.7235, 218.1269
514.2056, 225.2200
514.6877, 233.2809
515.1699, 241.9128
515.6520, 251.5649
516.1341, 262.6477
516.6162, 275.3368
517.0983, 289.3427
517.5804, 304.5993
518.0626, 321.1846
518.5447, 339.2279
519.0268, 359.0080
519.5089, 380.0818
519.9910, 402.5337
520.4731, 426.3302
520.9553, 449.8531
521.4374, 472.5956
521.9195, 495.4295
522.4016, 518.5888
522.8837, 541.5363
523.3658, 566.5571
523.8480, 593.7825
524.3301, 622.9758
524.8122, 653.1648
525.2943, 684.3251
525.7764, 718.3498
526.2585, 755.8063
526.7407, 796.3465
527.2228, 840.2531
527.7049, 887.6304
528.1870, 937.5106
528.6691, 991.1703
529.1512, 1046.728
529.6334, 1102.364
530.1155, 1158.440
530.5976, 1213.761
531.0797, 1270.560
531.5618, 1325.653
532.0439, 1375.440
532.5261, 1421.943
533.0082, 1459.703
533.4903, 1491.781
533.9724, 1514.299
534.4545, 1519.671
534.9366, 1506.649
535.4188, 1476.811
535.9009, 1428.595
536.3830, 1362.269
536.8651, 1287.281
537.3472, 1201.160
537.8293, 1111.669
538.3115, 1023.287
538.7936, 936.0453
539.2757, 853.5643
539.7578, 776.0202
540.2399, 704.9787
540.7220, 641.8261
541.2042, 586.9261
541.6863, 537.7689
542.1684, 493.3591
542.6505, 453.9009
543.1326, 420.2090
543.6147, 391.8218
544.0969, 366.1818
544.5790, 342.9320
545.0611, 321.7176
545.5432, 302.3867
546.0253, 285.0015
546.5074, 269.2949
546.9896, 255.4053
547.4717, 243.1887
547.9538, 232.5462
548.4359, 224.0551
548.9180, 216.3425
549.4001, 209.2735
549.8823, 202.8544
550.3644, 197.1040
550.8465, 191.8452
551.3286, 187.4820
551.8107, 184.1085
552.2928, 181.7032
552.7750, 180.1084
553.2571, 179.2379
553.7392, 179.5251
554.2213, 181.0615
554.7034, 183.9272
555.1855, 188.3604
555.6677, 194.2183
556.1498, 202.8241
556.6319, 214.5498
557.1140, 230.0626
557.5961, 250.8045
558.0782, 277.7316
558.5604, 309.2083
559.0425, 346.2792
559.5246, 386.6846
560.0067, 425.2133
560.4888, 460.0306
560.9709, 491.8594
561.4531, 519.5901
561.9352, 543.3907
562.4173, 567.7333
562.8994, 591.7731
563.3815, 617.6829
563.8636, 646.1821
564.3458, 674.6904
564.8279, 712.0197
565.3100, 757.9918
565.7921, 813.4872
566.2742, 878.6471
566.7563, 953.6220
567.2385, 1039.936
567.7206, 1138.443
568.2027, 1247.280
568.6848, 1359.799
569.1669, 1476.959
569.6490, 1594.610
570.1312, 1709.139
570.6133, 1825.182
571.0954, 1947.496
571.5775, 2077.659
572.0596, 2212.687
572.5417, 2370.323
573.0239, 2522.684
573.5060, 2653.657
573.9881, 2786.375
574.4702, 2829.362
574.9523, 2740.229
575.4344, 2551.942
575.9166, 2306.873
576.3987, 1937.520
576.8808, 1601.997
577.3629, 1309.781
577.8450, 1062.297
578.3271, 862.3641
578.8093, 716.1675
579.2914, 600.5602
579.7735, 511.3349
580.2556, 447.5201
580.7377, 394.7691
581.2198, 353.6797
581.7020, 320.2501
582.1841, 292.9406
582.6662, 270.7060
583.1483, 250.7131
583.6304, 232.9541
584.1125, 217.2436
584.5947, 203.6778
585.0768, 192.0598
585.5589, 182.1202
586.0410, 174.6651
586.5231, 167.8648
587.0052, 160.9915
587.4873, 154.2248
587.9694, 148.1663
588.4515, 143.0761
588.9337, 138.5136
589.4158, 134.4562
589.8979, 130.9065
590.3800, 127.2807
590.8621, 123.4318
591.3442, 119.7466
591.8264, 116.5582
592.3085, 113.8816
592.7906, 111.1193
593.2727, 108.1596
593.7548, 105.4157
594.2369, 103.5437
594.7191, 102.3040
595.2012, 100.8015
595.6833, 98.72032
596.1654, 96.45469
596.6475, 94.34682
597.1296, 92.39989
597.6118, 90.57153
598.0939, 88.86657
598.5760, 87.26126
599.0581, 85.77591
599.5402, 84.41833
600.0223, 83.02737
600.5045, 81.44044
600.9866, 79.93101
601.4687, 78.59560
601.9508, 77.43449
602.4329, 76.46685
602.9150, 75.79743
603.3972, 75.18538
603.8793, 74.40023
604.3614, 73.41636
604.8435, 72.46840
605.3256, 71.56738
605.8077, 70.76431
606.2899, 70.25102
606.7720, 69.95040
607.2541, 69.51353
607.7362, 68.68707
608.2183, 67.78884
608.7004, 67.19450
609.1826, 66.85268
609.6647, 66.60662
610.1468, 66.41296
610.6289, 66.25602
611.1110, 66.20042
611.5931, 66.25640
612.0753, 66.08220
612.5574, 65.30573
613.0395, 64.51585
613.5216, 64.04299
614.0037, 63.95707
614.4858, 64.03549
614.9680, 64.40688
615.4501, 64.76851
615.9322, 64.61784
616.4143, 63.90523
616.8964, 63.62279
617.3785, 63.99348
617.8607, 64.80849
618.3428, 65.85944
618.8249, 67.08189
619.3070, 68.20633
619.7891, 68.89678
620.2712, 69.57911
620.7534, 70.70150
621.2355, 72.21180
621.7176, 73.82116
622.1997, 75.27492
622.6818, 76.88457
623.1639, 78.88280
623.6461, 81.33935
624.1282, 83.82084
624.6103, 86.03429
625.0924, 88.47611
625.5745, 91.47179
626.0566, 95.21593
626.5388, 99.00868
627.0209, 102.6644
627.5030, 106.5839
627.9851, 111.4960
628.4672, 117.3069
628.9493, 122.9097
629.4315, 127.8787
629.9136, 132.8295
630.3957, 138.6372
630.8778, 145.1695
631.3599, 151.9693
631.8420, 159.1438
632.3242, 166.2357
632.8063, 173.0046
633.2884, 179.3843
633.7705, 185.3748
634.2526, 191.2747
634.7347, 196.5175
635.2169, 201.1325
635.6990, 205.3009
636.1811, 207.3739
636.6632, 206.9297
637.1453, 204.9139
637.6274, 201.9499
638.1096, 198.0040
638.5917, 193.0751
639.0738, 187.0032
639.5559, 180.2977
640.0380, 173.2767
640.5201, 166.0143
641.0023, 158.9817
641.4844, 152.1151
641.9665, 145.7199
642.4486, 139.8746
642.9307, 134.5848
643.4128, 129.9511
643.8950, 126.3125
644.3771, 122.9885
644.8592, 119.6579
645.3413, 116.3626
645.8234, 113.1802
646.3055, 110.0241
646.7877, 107.1683
647.2698, 104.8055
647.7519, 102.9349
648.2340, 100.9976
648.7161, 98.98661
649.1982, 96.93897
649.6804, 94.80852
650.1625, 92.63407
650.6446, 90.77390
651.1267, 89.24798
651.6088, 88.05803
652.0909, 87.51699
652.5731, 87.26781
653.0552, 86.63876
653.5373, 85.35139
654.0194, 83.95207
654.5015, 82.61131
654.9836, 81.40089
655.4658, 80.41637
655.9479, 79.95630
656.4300, 79.41438
656.9121, 78.67953
657.3942, 77.77056
657.8763, 76.68251
658.3585, 75.20590
658.8406, 74.05045
659.3227, 73.61184
659.8048, 73.66478
660.2869, 72.91911
660.7690, 71.33947
661.2512, 69.86832
661.7333, 69.19417
662.2154, 69.03164
662.6975, 68.96327
663.1796, 68.96097
663.6617, 68.76228
664.1439, 67.99854
664.6260, 67.06956
665.1081, 66.34439
665.5902, 65.95948
666.0723, 65.54201
666.5544, 64.86709
667.0366, 64.20554
667.5187, 63.82926
668.0008, 64.02995
668.4829, 63.88763
668.9650, 63.22367
669.4471, 62.35346
669.9293, 61.75447
670.4114, 61.42860
670.8935, 61.22472
671.3756, 61.14241
671.8577, 61.09889
672.3398, 60.94570
672.8220, 60.70846
673.3041, 60.47921
673.7862, 60.24103
674.2683, 60.07827
674.7504, 60.15254
675.2325, 60.39274
675.7147, 60.45016
676.1968, 59.99273
676.6789, 59.53720
677.1610, 59.37828
677.6431, 59.54034
678.1252, 59.39104
678.6074, 58.76367
679.0895, 58.13905
679.5716, 57.87727
680.0537, 57.97633
680.5358, 57.83819
681.0179, 57.40683
681.5001, 57.08439
681.9822, 57.48238
682.4643, 58.24563
682.9464, 58.59881
683.4285, 58.32626
683.9106, 57.97489
684.3928, 57.94149
684.8749, 58.04726
685.3570, 58.07405
685.8391, 57.88422
686.3212, 57.71386
686.8033, 57.70361
687.2855, 57.69963
687.7676, 57.41002
688.2497, 56.62323
688.7318, 56.09284
689.2139, 56.03172
689.6960, 56.26734
690.1782, 56.35469
690.6603, 56.30004
691.1424, 56.21706
691.6245, 56.14260
692.1066, 56.08013
692.5887, 56.03291
693.0709, 56.00157
693.5530, 55.99010
694.0351, 55.99240
694.5172, 56.02162
694.9993, 56.17093
695.4814, 56.45101
695.9636, 56.42945
696.4457, 55.69802
696.9278, 54.98567
697.4099, 54.64359
697.8920, 54.73408
698.3741, 54.77470
698.8563, 54.75111
699.3384, 54.72149
699.8205, 54.75600
700.3026, 54.83397
700.7847, 54.86193
701.2668, 54.83055
701.7490, 54.74811
702.2311, 54.61033
702.7132, 54.43114
703.1953, 54.22319
703.6774, 53.96252
704.1595, 53.73137
704.6417, 53.48698
705.1238, 53.31364
705.6059, 53.34758
706.0880, 53.82176
706.5701, 54.12214
707.0522, 54.18134
707.5344, 54.04376
708.0165, 53.75825
708.4986, 53.31395
708.9807, 52.89931
709.4628, 52.53767
709.9449, 52.27823
710.4271, 52.31373
710.9092, 52.55743
711.3913, 52.68859
711.8734, 52.38934
712.3555, 52.04581
712.8376, 51.97504
713.3198, 52.11808
713.8019, 52.16416
714.2840, 51.79567
714.7661, 51.55371
715.2482, 51.71800
715.7303, 52.26715
716.2125, 52.53570
716.6946, 52.44628
717.1767, 52.29407
717.6588, 52.27956
718.1409, 52.36826
718.6230, 52.22758
719.1052, 51.84816
719.5873, 51.56879
720.0694, 51.81709
720.5515, 52.24579
721.0336, 52.37292
721.5157, 52.10519
721.9979, 51.85682
722.4800, 51.75394
722.9621, 51.79087
723.4442, 51.97981
723.9263, 52.42851
724.4084, 52.78936
724.8906, 53.02869
725.3727, 53.22393
725.8548, 53.50935
726.3369, 53.91107
726.8190, 53.96212
727.3011, 53.52464
727.7833, 53.02852
728.2654, 53.11476
728.7475, 53.57616
729.2296, 53.89757
729.7117, 53.82509
730.1938, 53.80605
730.6760, 54.22323
731.1581, 54.86867
731.6402, 55.42801
732.1223, 55.90161
732.6044, 56.18120
733.0865, 56.17989
733.5687, 56.01056
734.0508, 55.86401
734.5329, 55.68738
735.0150, 55.79358
735.4971, 56.38274
735.9792, 57.17103
736.4614, 57.42653
736.9435, 57.25736
737.4256, 57.21973
737.9077, 57.66606
738.3898, 58.31090
738.8719, 58.95631
739.3541, 59.58831
739.8362, 60.14966
740.3183, 60.65222
740.8004, 61.04665
741.2825, 61.24316
741.7646, 61.27948
742.2468, 61.48382
742.7289, 61.96987
743.2110, 62.32706
743.6931, 62.24965
744.1752, 61.86669
744.6573, 62.05222
745.1395, 62.78496
745.6216, 63.37987
746.1037, 63.14493
746.5858, 62.61303
747.0679, 62.51989
747.5500, 62.87698
748.0322, 63.04448
748.5143, 62.44859
748.9964, 61.79645
749.4785, 61.54778
749.9606, 61.82795
750.4427, 61.98780
750.9249, 61.97437
751.4070, 61.93418
751.8891, 62.02221
752.3712, 62.23317
752.8533, 62.15880
753.3354, 61.76633
753.8176, 61.29446
754.2997, 60.78927
754.7818, 60.41615
755.2639, 60.52488
755.7460, 61.25291
756.2281, 61.90371
756.7103, 62.14394
757.1924, 62.12089
757.6745, 61.92873
758.1566, 61.35997
758.6387, 61.07092
759.1208, 61.15101
759.6030, 61.39919
760.0851, 61.59951
760.5672, 61.74813
761.0493, 62.04893
761.5314, 62.56532
762.0135, 63.05912
762.4957, 63.11047
762.9778, 62.96025
763.4599, 63.08398
763.9420, 63.68328
764.4241, 64.37045
764.9063, 65.28718
765.3884, 66.02843
765.8705, 66.08218
766.3526, 64.43232
766.8347, 63.49845
767.3168, 63.64202
767.7990, 64.30026
768.2811, 64.63329
768.7632, 64.62434
769.2453, 64.66128
769.7274, 64.85826
770.2095, 65.03677
770.6917, 64.82438
771.1738, 64.40847
771.6559, 64.21235
772.1380, 64.55945
772.6201, 64.92154
773.1022, 64.99760
773.5844, 64.90248
774.0665, 64.83318
774.5486, 64.70433
775.0307, 64.78855
775.5128, 65.25883
775.9949, 65.86983
776.4771, 65.96735
776.9592, 65.52653
777.4413, 65.37864
777.9234, 65.89067
778.4055, 66.61895
778.8876, 66.83177
779.3698, 66.70613
779.8519, 66.69693
780.3340, 67.19469
780.8161, 67.66259
781.2982, 67.73238
781.7803, 67.58265
782.2625, 67.71651
782.7446, 68.34993
783.2267, 68.95383
783.7088, 69.42961
784.1909, 69.80460
784.6730, 70.16313
785.1552, 70.50626
785.6373, 70.79337
786.1194, 70.94541
786.6015, 71.10036
787.0836, 71.49078
787.5657, 72.05088
788.0479, 72.59895
788.5300, 73.12382
789.0121, 73.53040
789.4942, 73.74223
789.9763, 73.78819
790.4584, 73.78001
790.9406, 73.63806
791.4227, 73.61526
791.9048, 73.84505
792.3869, 74.20707
792.8690, 74.23918
793.3511, 73.96999
793.8333, 73.83981
794.3154, 74.21427
794.7975, 74.70262
795.2796, 74.76600
795.7617, 74.53121
796.2438, 74.39900
796.7260, 74.81747
797.2081, 75.07427
797.6902, 74.70298
798.1723, 73.91541
798.6544, 73.58955
799.1365, 73.97340
799.6187, 74.14953
800.1008, 73.73466
800.5829, 72.95518
801.0650, 72.49117
801.5471, 72.30447
802.0292, 72.13839
802.5114, 71.84739
802.9935, 71.52355
803.4756, 71.20349
803.9577, 70.91467
804.4398, 70.75379
804.9219, 70.81998
805.4041, 70.94230
805.8862, 71.09514
806.3683, 71.26188
806.8504, 71.38221
807.3325, 71.46169
807.8146, 71.46935
808.2968, 71.40256
808.7789, 71.25002
809.2610, 70.90065
809.7431, 70.41890
810.2252, 70.06695
810.7073, 70.06141
811.1895, 70.15750
811.6716, 70.20567
812.1537, 70.22635
812.6358, 70.30456
813.1179, 70.46574
813.6000, 70.67435
814.0822, 70.95726
814.5643, 71.27377
815.0464, 71.49294
815.5285, 71.61574
816.0106, 71.58557
816.4927, 71.30672
816.9749, 70.93702
817.4570, 70.71165
817.9391, 70.59559
818.4212, 70.48116
818.9033, 70.34843
819.3854, 70.17815
819.8676, 69.87549
820.3497, 69.52534
820.8318, 69.40682
821.3139, 69.58858
821.7960, 69.85500
822.2781, 70.20641
822.7603, 70.55854
823.2424, 70.71767
823.7245, 70.69798
824.2066, 70.57704
824.6887, 70.24802
825.1708, 70.00390
825.6530, 70.28687
826.1351, 70.84765
826.6172, 71.12389
827.0993, 70.53653
827.5814, 70.16435
828.0635, 70.17957
828.5457, 70.54465
829.0278, 71.33952
829.5099, 72.69598
829.9920, 73.53528
830.4741, 73.48802
830.9562, 73.01101
831.4384, 72.68020
831.9205, 72.51152
832.4026, 72.56130
832.8847, 73.10881
833.3668, 73.50523
833.8489, 73.10289
834.3311, 72.41248
834.8132, 72.34768
835.2953, 73.30643
835.7774, 74.20144
836.2595, 74.96216
836.7416, 75.55383
837.2238, 75.89588
837.7059, 76.00471
838.1880, 75.96163
838.6701, 75.72015
839.1522, 75.54134
839.6343, 75.66919
840.1165, 76.03748
840.5986, 76.56685
841.0807, 77.40615
841.5628, 78.12131
842.0449, 78.57899
842.5270, 78.90169
843.0092, 79.20588
843.4913, 79.50566
843.9734, 79.65542
844.4555, 79.57998
844.9376, 79.58772
845.4197, 80.16734
845.9019, 81.07944
846.3840, 81.85385
846.8661, 82.40971
847.3482, 82.78569
847.8303, 82.81669
848.3124, 82.79157
848.7946, 82.99508
849.2767, 83.58621
849.7588, 84.01060
850.2409, 84.18436
850.7230, 84.34939
851.2051, 84.76866
851.6873, 85.38671
852.1694, 85.86343
852.6515, 86.17550
853.1336, 86.40630
853.6157, 86.48999
854.0978, 86.61394
854.5800, 86.98716
855.0621, 87.65871
855.5442, 88.35793
856.0263, 89.16111
856.5084, 89.83456
856.9905, 90.23029
857.4727, 90.34807
857.9548, 90.47737
858.4369, 90.61919
858.9190, 90.78027
859.4011, 90.93578
859.8832, 91.13168
860.3654, 91.53807
860.8475, 92.10961
861.3296, 92.46162
861.8117, 92.09830
862.2938, 91.77857
862.7759, 91.94389
863.2581, 92.52119
863.7402, 92.98776
864.2223, 93.31679
864.7044, 93.61619
865.1865, 93.94489
865.6686, 94.26447
866.1508, 94.32158
866.6329, 94.22900
867.1150, 94.47386
867.5971, 95.77473
868.0792, 97.03884
868.5613, 97.42896
869.0435, 97.24988
869.5256, 97.47458
870.0077, 98.40974
870.4898, 99.31052
870.9719, 100.0219
871.4540, 100.6536
871.9362, 101.4651
872.4183, 102.4375
872.9004, 103.4444
873.3825, 104.5233
873.8646, 105.4607
874.3467, 105.7674
874.8289, 105.8820
875.3110, 106.4665
875.7931, 108.2493
876.2752, 109.7689
876.7573, 110.8348
877.2394, 111.6517
877.7216, 112.4594
878.2037, 113.2569
878.6858, 113.9577
879.1679, 114.5218
879.6500, 115.1516
880.1321, 116.1018
880.6143, 117.2555
881.0964, 118.4499
881.5785, 119.6570
882.0606, 120.8990
882.5427, 122.1529
883.0248, 123.4786
883.5070, 124.8691
883.9891, 126.2952
884.4712, 128.0741
884.9533, 130.2600
885.4354, 132.4404
885.9175, 134.2402
886.3997, 135.8163
886.8818, 137.4637
887.3639, 139.1931
887.8460, 140.8907
888.3281, 142.2947
888.8102, 143.8042
889.2924, 145.7476
889.7745, 148.0857
890.2566, 150.1580
890.7387, 151.9082
891.2208, 153.5012
891.7029, 154.8926
892.1851, 156.2633
892.6672, 158.1182
893.1493, 160.4229
893.6314, 162.9705
894.1135, 165.7757
894.5956, 168.7155
895.0778, 171.8984
895.5599, 175.1673
896.0420, 177.9778
896.5241, 179.7765
897.0062, 182.2882
897.4883, 185.8663
897.9705, 190.1402
898.4526, 194.5475
898.9347, 199.0347
899.4168, 203.2213
899.8989, 206.8166
900.3810, 210.8102
900.8632, 216.2509
901.3453, 222.4475
901.8274, 228.7132
902.3095, 234.5755
902.7916, 240.9433
903.2737, 247.9585
903.7559, 255.3676
904.2380, 262.9770
904.7201, 270.8380
905.2022, 278.7060
905.6843, 286.4539
906.1664, 294.9401
906.6486, 304.7806
907.1307, 315.5574
907.6128, 327.1045
908.0949, 339.3667
908.5770, 352.0327
909.0591, 364.6782
909.5413, 378.2533
910.0234, 393.2841
910.5055, 409.6010
910.9876, 426.1232
911.4697, 442.8714
911.9518, 460.1793
912.4340, 477.5972
912.9161, 496.2577
913.3982, 517.2097
913.8803, 540.0292
914.3624, 563.3246
914.8445, 585.6124
915.3267, 609.7689
915.8088, 635.8070
916.2909, 664.2395
916.7730, 695.8640
917.2551, 730.8398
917.7372, 769.4151
918.2194, 811.6582
918.7015, 858.2645
919.1836, 909.9349
919.6657, 966.4681
920.1478, 1027.555
920.6299, 1093.414
921.1121, 1164.159
921.5942, 1241.813
922.0763, 1323.136
922.5584, 1405.397
923.0405, 1488.496
923.5226, 1577.080
924.0048, 1671.174
924.4869, 1766.008
924.9690, 1856.658
925.4511, 1947.890
925.9332, 2044.803
926.4153, 2147.807
926.8975, 2250.410
927.3796, 2345.049
927.8617, 2445.715
928.3438, 2558.814
928.8259, 2682.246
929.3080, 2806.812
929.7902, 2933.012
930.2723, 3064.472
930.7544, 3204.631
931.2365, 3347.054
931.7186, 3489.638
932.2007, 3626.418
932.6829, 3744.679
933.1650, 3844.984
933.6471, 3921.597
934.1292, 3978.153
934.6113, 4008.667
935.0934, 4004.861
935.5756, 3966.700
936.0577, 3892.347
936.5398, 3781.266
937.0219, 3643.386
937.5040, 3481.443
937.9861, 3303.518
938.4683, 3117.554
938.9504, 2921.842
939.4325, 2735.955
939.9146, 2561.329
940.3967, 2403.690
940.8788, 2264.168
941.3610, 2143.628
941.8431, 2045.754
942.3252, 1969.707
942.8073, 1913.658
943.2894, 1880.920
943.7715, 1864.439
944.2537, 1860.725
944.7358, 1868.242
945.2179, 1881.855
945.7000, 1905.922
946.1821, 1929.232
946.6642, 1953.569
947.1464, 1973.087
947.6285, 1978.937
948.1106, 1970.217
948.5927, 1938.738
949.0748, 1881.600
949.5569, 1803.988
950.0391, 1701.330
950.5212, 1584.899
951.0033, 1468.088
951.4854, 1349.946
951.9675, 1237.200
952.4496, 1128.205
952.9318, 1027.674
953.4139, 939.7349
953.8960, 863.6041
954.3781, 795.0466
954.8602, 734.4273
955.3423, 680.2323
955.8245, 632.7676
956.3066, 590.4581
956.7887, 552.8186
957.2708, 519.6003
957.7529, 489.4427
958.2350, 462.1502
958.7172, 437.4823
959.1993, 415.4611
959.6814, 395.4850
960.1635, 376.5955
960.6456, 358.8664
961.1277, 342.8990
961.6099, 329.3653
962.0920, 316.5468
962.5741, 302.9312
963.0562, 289.7748
963.5383, 278.7703
964.0204, 270.5210
964.5026, 262.5525
964.9847, 255.0266
965.4668, 247.4130
965.9489, 238.7258
966.4310, 229.8241
966.9131, 222.2879
967.3953, 216.1946
967.8774, 210.2954
968.3595, 203.8663
968.8416, 197.6766
969.3237, 192.0878
969.8058, 187.0729
970.2880, 182.7278
970.7701, 179.1183
971.2522, 175.3151
971.7343, 170.8833
972.2164, 166.2281
972.6985, 161.6274
973.1807, 157.2093
973.6628, 153.2817
974.1449, 150.1768
974.6270, 147.0539
975.1091, 143.6295
975.5912, 140.1903
976.0734, 136.9738
976.5555, 133.9943
977.0376, 131.1498
977.5197, 128.4761
978.0018, 125.8957
978.4839, 123.2464
978.9661, 120.7067
979.4482, 118.4493
979.9303, 116.4804
980.4124, 114.6982
980.8945, 113.1665
981.3766, 111.6405
981.8588, 110.0111
982.3409, 108.5593
982.8230, 106.8892
983.3051, 105.5920
983.7872, 104.2469
984.2693, 102.7531
984.7515, 101.2365
985.2336, 99.77351
985.7157, 98.34388
986.1978, 96.91161
986.6799, 95.35585
987.1620, 94.08492
987.6442, 93.16727
988.1263, 92.33817
988.6084, 91.34108
989.0905, 90.25948
989.5726, 89.33057
990.0547, 88.55350
990.5369, 87.82116
991.0190, 87.14655
991.5011, 86.43408
991.9832, 85.55320
992.4653, 84.60252
992.9474, 83.92188
993.4296, 83.54040
993.9117, 83.25730
994.3938, 83.13026
994.8759, 82.81698
995.3580, 81.43407
995.8401, 79.69148
996.3223, 78.75004
996.8044, 79.40995
997.2865, 79.75549
997.7686, 79.28713
998.2507, 78.69108
998.7328, 78.49206
999.2150, 78.67170
999.6971, 78.82502
1000.179, 78.94211
1000.661, 78.93372
1001.143, 78.58681
1001.626, 78.22014
1002.108, 78.10636
1002.590, 78.20251
1003.072, 78.24706
1003.554, 78.24061
1004.036, 78.11909
1004.518, 77.80531
1005.000, 77.49058
1005.482, 77.57661
1005.965, 77.92347
1006.447, 78.15694
1006.929, 78.17075
1007.411, 78.14329
1007.893, 78.12652
1008.375, 78.12898
1008.857, 78.13330
1009.339, 78.12807
1009.822, 78.31510
1010.304, 78.70881
1010.786, 79.12601
1011.268, 79.46027
1011.750, 79.73657
1012.232, 79.90550
1012.714, 80.04033
1013.196, 80.35206
1013.678, 81.07816
1014.161, 81.76509
1014.643, 82.37576
1015.125, 82.87051
1015.607, 83.19511
1016.089, 83.34960
1016.571, 83.26690
1017.053, 82.90771
1017.535, 82.65047
1018.018, 83.03410
1018.500, 83.44444
1018.982, 83.37133
1019.464, 82.77379
1019.946, 82.10828
1020.428, 81.34147
1020.910, 80.64152
1021.392, 80.13635
1021.874, 79.67809
1022.357, 79.05042
1022.839, 78.24221
1023.321, 77.21654
1023.803, 75.48331
1024.285, 74.23029
1024.767, 74.13406
1025.249, 74.30422
1025.731, 73.88644
1026.214, 72.87293
1026.696, 71.92416
1027.178, 71.06364
1027.660, 70.38585
1028.142, 69.95969
1028.624, 69.74113
1029.106, 69.80347
1029.588, 70.08957
1030.070, 70.16126
1030.553, 69.88874
1031.035, 69.66213
1031.517, 69.59028
1031.999, 69.41161
1032.481, 69.44302
1032.963, 69.24229
1033.445, 69.14365
1033.927, 69.12492
1034.410, 69.43505
1034.892, 70.41935
1035.374, 71.58498
1035.856, 72.61642
1036.338, 73.51920
1036.820, 74.10921
1037.302, 74.36514
1037.784, 74.92735
1038.266, 76.19744
1038.749, 77.94270
1039.231, 80.17410
1039.713, 82.67173
1040.195, 84.83344
1040.677, 85.96457
1041.159, 87.84944
1041.641, 90.83460
1042.123, 94.26339
1042.605, 97.18360
1043.088, 99.93400
1043.570, 103.4784
1044.052, 107.9182
1044.534, 112.5863
1045.016, 116.9812
1045.498, 121.6658
1045.980, 126.9046
1046.462, 132.6300
1046.945, 138.5556
1047.427, 144.7253
1047.909, 151.2351
1048.391, 158.0536
1048.873, 165.1993
1049.355, 172.8657
1049.837, 180.8547
1050.319, 188.9502
1050.802, 197.1617
1051.284, 205.3259
1051.766, 213.1083
1052.248, 221.3622
1052.730, 231.1499
1053.212, 241.7159
1053.694, 250.9641
1054.176, 258.8687
1054.658, 265.3677
1055.141, 270.3252
1055.623, 273.9666
1056.105, 276.6639
1056.587, 277.9784
1057.069, 277.2195
1057.551, 274.3902
1058.033, 269.1099
1058.515, 261.1869
1058.997, 251.8660
1059.480, 241.6109
1059.962, 230.8620
1060.444, 219.8781
1060.926, 208.7846
1061.408, 197.8044
1061.890, 186.7940
1062.372, 176.2686
1062.854, 166.4794
1063.337, 157.3081
1063.819, 148.6751
1064.301, 140.6425
1064.783, 133.4854
1065.265, 127.5081
1065.747, 121.8230
1066.229, 115.8795
1066.711, 110.3576
1067.193, 105.6832
1067.676, 101.8613
1068.158, 98.32182
1068.640, 95.04815
1069.122, 92.00776
1069.604, 88.98025
1070.086, 86.33379
1070.568, 84.41544
1071.050, 82.98608
1071.532, 81.50294
1072.015, 79.86729
1072.497, 78.44595
1072.979, 77.29274
1073.461, 76.22269
1073.943, 74.99584
1074.425, 73.75016
1074.907, 72.69700
1075.389, 71.85296
1075.872, 70.95045
1076.354, 69.52953
1076.836, 68.66650
1077.318, 68.86118
1077.800, 69.58922
1078.282, 69.67085
1078.764, 69.25217
1079.246, 68.84214
1079.729, 68.51767
1080.211, 68.40906
1080.693, 68.67023
1081.175, 69.11729
1081.657, 69.58929
1082.139, 70.08633
1082.621, 70.67441
1083.103, 71.35561
1083.585, 72.29936
1084.068, 73.73662
1084.550, 75.33665
1085.032, 76.84059
1085.514, 78.25600
1085.996, 79.53744
1086.478, 80.54128
1086.960, 81.73893
1087.442, 83.16367
1087.924, 84.72474
1088.406, 86.45123
1088.889, 88.20234
1089.371, 89.66541
1089.853, 90.89108
1090.335, 92.28072
1090.817, 94.50768
1091.299, 96.21313
1091.781, 97.00945
1092.263, 97.21954
1092.746, 97.40567
1093.228, 97.52708
1093.710, 97.38193
1094.192, 96.93342
1094.674, 96.23404
1095.156, 95.33300
1095.638, 94.16338
1096.120, 92.63753
1096.603, 90.80920
1097.085, 88.86195
1097.567, 86.78310
1098.049, 84.91505
1098.531, 83.45776
1099.013, 82.09450
1099.495, 80.53716
1099.977, 78.83306
1100.459, 76.94767
1100.942, 74.63783
1101.424, 73.04930
1101.906, 72.37458
1102.388, 71.78739
1102.870, 70.66812
1103.352, 69.30542
1103.834, 68.21268
1104.316, 67.33822
1104.798, 66.56801
1105.281, 65.96194
1105.763, 65.30501
1106.245, 64.57588
1106.727, 63.78730
1107.209, 62.91110
1107.691, 61.99363
1108.173, 61.33643
1108.655, 60.92988
1109.138, 60.47353
1109.620, 59.58349
1110.102, 58.83580
1110.584, 58.63070
1111.066, 58.03212
1111.548, 57.67795
1112.030, 57.55081
1112.512, 57.13557
1112.995, 57.27665
1113.477, 57.33088
1113.959, 56.47120
1114.441, 55.48265
1114.923, 55.16674
1115.405, 55.52068
1115.887, 55.34854
1116.369, 54.53270
1116.851, 53.87121
1117.333, 53.74627
1117.816, 53.69419
1118.298, 52.89050
1118.780, 51.84566
1119.262, 51.37724
1119.744, 52.02584
1120.226, 52.03373
1120.708, 51.06258
1121.190, 50.15651
1121.673, 50.07188
1122.155, 50.40030
1122.637, 50.09502
1123.119, 49.36921
1123.601, 48.81141
1124.083, 48.85954
1124.565, 48.79872
1125.047, 48.47554
1125.530, 48.06818
1126.012, 47.73671
1126.494, 47.46368
1126.976, 47.17009
1127.458, 46.84844
1127.940, 46.46233
1128.422, 45.90149
1128.904, 45.37038
1129.386, 44.97240
1129.869, 44.65074
1130.351, 44.32658
1130.833, 44.00023
1131.315, 43.72581
1131.797, 43.51449
1132.279, 43.24205
1132.761, 42.67081
1133.243, 42.12447
1133.725, 41.83326
1134.208, 41.78730
1134.690, 41.97423
1135.172, 42.48615
1135.654, 42.45881
1136.136, 41.56694
1136.618, 40.53291
1137.100, 40.13571
1137.582, 40.04273
1138.065, 39.90950
1138.547, 39.68382
1139.029, 39.51569
1139.511, 39.44643
1139.993, 39.29024
1140.475, 38.93871
1140.957, 38.51799
1141.439, 38.21136
1141.922, 37.98115
1142.404, 37.75866
1142.886, 37.53413
1143.368, 37.29317
1143.850, 36.99049
1144.332, 36.77812
1144.814, 36.83675
1145.296, 37.01144
1145.778, 36.90826
1146.260, 36.57670
1146.743, 36.15768
1147.225, 35.47097
1147.707, 35.06606
1148.189, 35.17294
1148.671, 35.34547
1149.153, 35.11019
1149.635, 34.58922
1150.117, 34.42704
1150.600, 34.58495
1151.082, 34.68380
1151.564, 34.55317
1152.046, 34.29014
1152.528, 33.82412
1153.010, 33.33173
1153.492, 33.04376
1153.974, 32.95153
1154.457, 32.97820
1154.939, 33.11594
1155.421, 33.26886
1155.903, 33.47964
1156.385, 33.57914
1156.867, 33.34000
1157.349, 32.94709
1157.831, 32.84804
1158.313, 33.04851
1158.796, 33.12823
1159.278, 33.01295
1159.760, 32.80422
1160.242, 32.55878
1160.724, 32.27926
1161.206, 31.86754
1161.688, 31.38690
1162.170, 31.36638
1162.652, 31.86191
1163.135, 32.20681
1163.617, 32.18304
1164.099, 32.05732
1164.581, 32.12825
1165.063, 32.23439
1165.545, 32.17216
1166.027, 31.89982
1166.509, 31.77136
1166.992, 31.81687
1167.474, 31.83471
1167.956, 31.74318
1168.438, 31.58446
1168.920, 31.30748
1169.402, 31.04441
1169.884, 31.02490
1170.366, 31.46561
1170.849, 31.51805
1171.331, 31.06093
1171.813, 30.64398
1172.295, 30.62820
1172.777, 30.78828
1173.259, 30.73651
1173.741, 30.58396
1174.223, 30.55565
1174.705, 30.91983
1175.188, 30.99305
1175.670, 30.63193
1176.152, 30.33746
1176.634, 30.60438
1177.116, 31.13993
1177.598, 31.39896
1178.080, 31.42943
1178.562, 31.39812
1179.044, 31.29351
1179.527, 31.22032
1180.009, 31.17230
1180.491, 31.18513
1180.973, 31.32244
1181.455, 31.53599
1181.937, 31.70970
1182.419, 31.84928
1182.901, 32.00939
1183.384, 32.20741
1183.866, 32.43356
1184.348, 32.68373
1184.830, 32.96430
1185.312, 33.39045
1185.794, 33.83100
1186.276, 33.81906
1186.758, 33.37800
1187.240, 33.13385
1187.723, 33.46678
1188.205, 33.91182
1188.687, 34.42793
1189.169, 34.89428
1189.651, 34.97906
1190.133, 34.85957
1190.615, 35.17743
1191.097, 36.01823
1191.579, 36.67286
1192.062, 36.52317
1192.544, 36.53053
1193.026, 37.09874
1193.508, 37.91727
1193.990, 38.26773
1194.472, 38.28395
1194.954, 38.27989
1195.436, 38.23872
1195.919, 38.93861
1196.401, 42.19910
1196.883, 44.50599
1197.365, 44.04024
1197.847, 41.90482
1198.329, 41.29669
1198.811, 41.85411
1199.293, 42.11567
1199.776, 41.61308
1200.258, 41.29234
1200.740, 41.80172
1201.222, 42.38733
1201.704, 42.65704
1202.186, 42.70818
1202.668, 42.88363
1203.150, 43.17440
1203.632, 43.59014
1204.115, 44.25022
1204.597, 44.69464
1205.079, 44.56270
1205.561, 44.28404
1206.043, 44.11972
1206.525, 44.01860
1207.007, 43.62046
1207.489, 43.02523
1207.971, 42.69299
1208.454, 43.00397
1208.936, 43.20519
1209.418, 42.80974
1209.900, 42.34678
1210.382, 42.13279
1210.864, 42.15007
1211.346, 42.35294
1211.828, 42.70329
1212.311, 43.00828
1212.793, 43.19640
1213.275, 43.30797
1213.757, 43.47023
1214.239, 43.44643
1214.721, 42.88520
1215.203, 41.91933
1215.685, 41.68193
1216.167, 42.04454
1216.650, 42.31276
1217.132, 41.96405
1217.614, 41.70556
1218.096, 41.91438
1218.578, 42.13531
1219.060, 41.91209
1219.542, 41.32298
1220.024, 40.91631
1220.506, 40.66611
1220.989, 40.35682
1221.471, 39.84399
1221.953, 39.29330
1222.435, 38.66924
1222.917, 38.12273
1223.399, 37.90759
1223.881, 37.91843
1224.363, 37.60170
1224.846, 36.98533
1225.328, 36.36208
1225.810, 35.82076
1226.292, 35.37555
1226.774, 35.08551
1227.256, 34.80265
1227.738, 34.31659
1228.220, 33.69404
1228.703, 33.17760
1229.185, 32.76154
1229.667, 32.31230
1230.149, 31.61377
1230.631, 31.10553
1231.113, 30.94572
1231.595, 30.90081
1232.077, 30.70882
1232.559, 30.38279
1233.042, 29.89958
1233.524, 29.28759
1234.006, 28.76852
1234.488, 28.48789
1234.970, 28.25795
1235.452, 28.07889
1235.934, 27.87387
1236.416, 27.40906
1236.898, 26.88578
1237.381, 26.91637
1237.863, 27.46154
1238.345, 27.66155
1238.827, 26.82404
1239.309, 26.26509
1239.791, 26.28098
1240.273, 26.46882
1240.755, 26.25947
1241.238, 25.84554
1241.720, 25.58109
1242.202, 25.48827
1242.684, 25.40972
1243.166, 25.31221
1243.648, 25.21273
1244.130, 25.08710
1244.612, 25.03205
1245.094, 25.34270
1245.577, 25.71539
1246.059, 25.59159
1246.541, 24.97105
1247.023, 24.63485
1247.505, 24.76008
1247.987, 24.84891
1248.469, 24.80835
1248.951, 24.66024
1249.433, 24.32052
1249.916, 23.96586
1250.398, 23.79617
1250.880, 23.83589
1251.362, 24.02436
1251.844, 24.42880
1252.326, 24.63990
1252.808, 24.54047
1253.290, 24.33619
1253.773, 24.27300
1254.255, 24.20082
1254.737, 23.90430
1255.219, 23.41645
1255.701, 23.14084
1256.183, 23.08676
1256.665, 23.19544
1257.147, 23.48350
1257.630, 23.76094
1258.112, 23.87197
1258.594, 23.87879
1259.076, 23.77087
1259.558, 23.60052
1260.040, 23.59399
1260.522, 23.74899
1261.004, 23.87654
1261.486, 23.93537
1261.969, 23.96056
1262.451, 24.02547
1262.933, 24.01271
1263.415, 23.76639
1263.897, 23.40724
1264.379, 23.37483
1264.861, 23.62492
1265.343, 23.84183
1265.825, 23.95523
1266.308, 24.04043
1266.790, 24.19263
1267.272, 24.25675
1267.754, 24.11322
1268.236, 23.87745
1268.718, 23.87986
1269.200, 24.05334
1269.682, 24.12927
1270.165, 24.03711
1270.647, 24.04489
1271.129, 24.42620
1271.611, 24.72657
1272.093, 24.81530
1272.575, 24.72403
1273.057, 24.39920
1273.539, 23.97501
1274.021, 23.75418
1274.504, 23.79316
1274.986, 23.96683
1275.468, 24.39187
1275.950, 24.61686
1276.432, 24.44615
1276.914, 24.14875
1277.396, 24.16055
1277.878, 24.31487
1278.360, 24.33171
1278.843, 24.16528
1279.325, 24.15907
1279.807, 24.36609
1280.289, 24.59399
1280.771, 24.80210
1281.253, 24.97791
1281.735, 25.14556
1282.217, 25.24916
1282.700, 25.18384
1283.182, 24.96176
1283.664, 24.85609
1284.146, 24.86945
1284.628, 25.00477
1285.110, 25.30823
1285.592, 25.51256
1286.074, 25.24627
1286.557, 24.90739
1287.039, 24.81588
1287.521, 24.91672
1288.003, 25.01604
1288.485, 25.11237
1288.967, 25.19633
1289.449, 25.26950
1289.931, 25.29416
1290.413, 25.24491
1290.896, 25.13236
1291.378, 24.91729
1291.860, 24.68990
1292.342, 24.69827
1292.824, 24.88978
1293.306, 25.12644
1293.788, 25.39617
1294.270, 25.49953
1294.752, 25.29981
1295.235, 24.94702
1295.717, 24.37450
1296.199, 23.84999
1296.681, 23.96776
1297.163, 24.41775
1297.645, 24.62641
1298.127, 24.52048
1298.609, 24.48145
1299.092, 24.58181
1299.574, 24.67979
1300.056, 24.74902
1300.538, 24.78818
1301.020, 24.80146
1301.502, 24.78213
1301.984, 24.68450
1302.466, 24.52932
1302.948, 24.54029
1303.431, 24.76053
1303.913, 24.84237
1304.395, 24.73103
1304.877, 24.41247
##END=



