##NAMES=Beraunite
##RRUFFID=R060696
##IDEAL CHEMISTRY=Fe^2+^Fe^3+^_5_(PO_4_)_4_(OH)_5_&#183;6H_2_O
##LOCALITY=Three Oak Gap, Shady, Polk County, Arkansas, USA
##OWNER=RRUFF
##SOURCE=Bob Jenkins
##DESCRIPTION=Reddish brown bladed crystals in radial aggregates
##STATUS=The identification of this mineral is confirmed by single-crystal X-ray diffraction and chemical analysis.
##URL=rruff.info/R060696
##MEASURED CHEMISTRY=(Fe^2+^_0.98_Mn_0.02_)_Σ=1_Fe^3+^_5.00_(P_1.00_O_4_)_4_(OH)_5_·6H_2_O
139.366, 3563.410
139.848, 3700.785
140.330, 3856.812
140.812, 4029.689
141.294, 4226.275
141.776, 4437.085
142.258, 4648.499
142.741, 4852.342
143.223, 5053.374
143.705, 5264.022
144.187, 5487.972
144.669, 5710.542
145.151, 5936.430
145.633, 6154.430
146.115, 6339.104
146.598, 6469.224
147.080, 6555.750
147.562, 6633.072
148.044, 6708.122
148.526, 6760.454
149.008, 6774.281
149.490, 6760.219
149.972, 6742.615
150.454, 6748.082
150.936, 6767.328
151.419, 6740.694
151.901, 6635.293
152.383, 6523.213
152.865, 6435.021
153.347, 6368.335
153.829, 6314.053
154.311, 6270.233
154.794, 6236.014
155.276, 6194.698
155.758, 6128.750
156.240, 6075.134
156.722, 6054.784
157.204, 6060.916
157.686, 6072.100
158.168, 6060.739
158.650, 6024.128
159.133, 6036.178
159.615, 6146.617
160.097, 6265.333
160.579, 6354.866
161.061, 6420.304
161.543, 6487.580
162.025, 6582.821
162.507, 6710.210
162.990, 6827.735
163.472, 6947.700
163.954, 7045.803
164.436, 7100.481
164.918, 7120.061
165.400, 7135.152
165.882, 7180.033
166.364, 7264.274
166.846, 7320.897
167.329, 7329.652
167.811, 7328.365
168.293, 7325.786
168.775, 7325.938
169.257, 7334.323
169.739, 7363.912
170.221, 7342.913
170.703, 7321.915
171.185, 7300.917
171.668, 7279.913
172.150, 7222.947
172.632, 7197.518
173.114, 7186.191
173.596, 7169.835
174.078, 7143.388
174.560, 7133.725
175.042, 7163.964
175.525, 7189.485
176.007, 7179.660
176.489, 7138.598
176.971, 7097.543
177.453, 7091.479
177.935, 7131.164
178.417, 7165.547
178.899, 7187.994
179.381, 7211.753
179.863, 7239.913
180.346, 7274.794
180.828, 7320.938
181.310, 7383.552
181.792, 7466.005
182.274, 7554.454
182.756, 7644.814
183.238, 7742.825
183.721, 7853.006
184.203, 7974.383
184.685, 8103.121
185.167, 8234.405
185.649, 8370.016
186.131, 8501.460
186.613, 8603.482
187.095, 8722.317
187.577, 8890.360
188.059, 9104.532
188.542, 9333.416
189.024, 9546.111
189.506, 9735.125
189.988, 9938.264
190.470, 10168.910
190.952, 10399.230
191.434, 10616.130
191.917, 10818.880
192.399, 11015.740
192.881, 11217.720
193.363, 11430.020
193.845, 11613.420
194.327, 11780.000
194.809, 11915.500
195.291, 12017.980
195.773, 12084.630
196.255, 12109.220
196.738, 12085.180
197.220, 12009.240
197.702, 11900.570
198.184, 11754.780
198.666, 11587.920
199.148, 11409.000
199.630, 11215.940
200.112, 10998.910
200.595, 10744.890
201.077, 10448.310
201.559, 10169.170
202.041, 9909.801
202.523, 9661.947
203.005, 9427.067
203.487, 9202.055
203.969, 8978.724
204.452, 8748.590
204.934, 8509.784
205.416, 8309.079
205.898, 8157.403
206.380, 8024.558
206.862, 7898.209
207.344, 7780.756
207.826, 7681.821
208.308, 7608.508
208.790, 7560.291
209.273, 7523.675
209.755, 7499.878
210.237, 7484.178
210.719, 7473.638
211.201, 7469.982
211.683, 7475.754
212.165, 7491.357
212.648, 7518.199
213.130, 7573.646
213.612, 7677.869
214.094, 7786.082
214.576, 7876.738
215.058, 7964.159
215.540, 8077.366
216.022, 8234.326
216.504, 8427.825
216.986, 8619.304
217.469, 8807.975
217.951, 8995.260
218.433, 9178.028
218.915, 9359.845
219.397, 9543.024
219.879, 9728.960
220.361, 9921.375
220.844, 10135.970
221.326, 10405.920
221.808, 10659.080
222.290, 10892.790
222.772, 11106.240
223.254, 11295.370
223.736, 11459.010
224.218, 11604.370
224.700, 11748.860
225.182, 11897.780
225.665, 12039.980
226.147, 12190.040
226.629, 12326.980
227.111, 12424.720
227.593, 12475.400
228.075, 12498.440
228.557, 12533.000
229.040, 12607.880
229.522, 12648.380
230.004, 12639.790
230.486, 12607.950
230.968, 12574.020
231.450, 12543.390
231.932, 12507.080
232.414, 12449.760
232.896, 12357.080
233.378, 12272.720
233.861, 12199.720
234.343, 12131.770
234.825, 12070.370
235.307, 12012.450
235.789, 11946.470
236.271, 11855.160
236.753, 11727.260
237.235, 11611.030
237.718, 11505.220
238.200, 11409.930
238.682, 11327.550
239.164, 11256.420
239.646, 11189.770
240.128, 11120.760
240.610, 11049.000
241.092, 10979.570
241.574, 10921.700
242.057, 10857.210
242.539, 10771.890
243.021, 10673.430
243.503, 10581.110
243.985, 10510.520
244.467, 10460.900
244.949, 10414.570
245.431, 10387.230
245.913, 10346.080
246.396, 10275.590
246.878, 10185.930
247.360, 10097.490
247.842, 10024.530
248.324, 9960.568
248.806, 9873.626
249.288, 9759.304
249.770, 9624.544
250.253, 9456.278
250.735, 9275.401
251.217, 9109.883
251.699, 8974.032
252.181, 8853.482
252.663, 8711.347
253.145, 8538.878
253.627, 8363.451
254.109, 8184.933
254.592, 8010.742
255.074, 7846.730
255.556, 7695.427
256.038, 7554.417
256.520, 7419.008
257.002, 7287.436
257.484, 7169.431
257.966, 7082.250
258.449, 7001.296
258.931, 6905.725
259.413, 6792.449
259.895, 6686.758
260.377, 6617.755
260.859, 6587.034
261.341, 6559.359
261.823, 6529.513
262.306, 6501.810
262.788, 6473.306
263.270, 6445.898
263.752, 6434.541
264.234, 6458.221
264.716, 6510.507
265.198, 6552.879
265.680, 6575.261
266.162, 6597.816
266.645, 6631.646
267.127, 6676.415
267.609, 6732.221
268.091, 6801.052
268.573, 6880.857
269.055, 6966.368
269.537, 7055.726
270.019, 7156.191
270.501, 7278.997
270.984, 7416.652
271.466, 7556.984
271.948, 7691.001
272.430, 7829.859
272.912, 7986.613
273.394, 8160.393
273.876, 8350.694
274.358, 8564.018
274.841, 8791.074
275.323, 9006.231
275.805, 9203.189
276.287, 9394.345
276.769, 9580.691
277.251, 9764.682
277.733, 9960.917
278.215, 10182.700
278.698, 10410.910
279.180, 10604.100
279.662, 10754.150
280.144, 10894.150
280.626, 11042.270
281.108, 11186.990
281.590, 11313.640
282.072, 11420.800
282.554, 11496.350
283.036, 11515.400
283.519, 11465.600
284.001, 11408.220
284.483, 11355.740
284.965, 11295.540
285.447, 11216.540
285.929, 11116.820
286.411, 10997.860
286.893, 10860.150
287.376, 10701.760
287.858, 10528.440
288.340, 10310.250
288.822, 10105.220
289.304, 9960.627
289.786, 9863.101
290.268, 9757.265
290.750, 9600.141
291.233, 9395.921
291.715, 9224.956
292.197, 9098.016
292.679, 8988.999
293.161, 8902.611
293.643, 8828.789
294.125, 8753.187
294.607, 8668.349
295.089, 8578.501
295.572, 8495.613
296.054, 8409.194
296.536, 8347.249
297.018, 8331.724
297.500, 8328.353
297.982, 8305.143
298.464, 8253.469
298.946, 8189.238
299.428, 8135.682
299.911, 8094.954
300.393, 8058.704
300.875, 8034.054
301.357, 8007.405
301.839, 7963.983
302.321, 7908.188
302.803, 7862.494
303.285, 7832.155
303.767, 7801.816
304.250, 7771.470
304.732, 7741.130
305.214, 7710.792
305.696, 7680.452
306.178, 7664.322
306.660, 7651.280
307.142, 7630.076
307.625, 7602.274
308.107, 7571.205
308.589, 7536.530
309.071, 7499.599
309.553, 7459.436
310.035, 7417.953
310.517, 7378.570
310.999, 7344.309
311.481, 7306.814
311.964, 7255.262
312.446, 7190.568
312.928, 7126.027
313.410, 7060.516
313.892, 7003.608
314.374, 6974.547
314.856, 6981.062
315.338, 6967.368
315.820, 6886.319
316.303, 6769.417
316.785, 6681.735
317.267, 6638.720
317.749, 6616.309
318.231, 6591.876
318.713, 6565.456
319.195, 6538.652
319.677, 6504.642
320.159, 6475.226
320.642, 6462.155
321.124, 6464.944
321.606, 6475.896
322.088, 6493.313
322.570, 6514.907
323.052, 6514.242
323.534, 6450.307
324.016, 6411.972
324.499, 6442.941
324.981, 6518.848
325.463, 6599.816
325.945, 6668.735
326.427, 6721.988
326.909, 6749.928
327.391, 6720.481
327.873, 6708.138
328.355, 6725.083
328.838, 6751.913
329.320, 6775.630
329.802, 6792.127
330.284, 6801.058
330.766, 6801.615
331.248, 6793.377
331.730, 6778.819
332.212, 6751.632
332.694, 6724.192
333.177, 6697.858
333.659, 6675.176
334.141, 6662.410
334.623, 6670.245
335.105, 6689.102
335.587, 6670.022
336.069, 6584.139
336.552, 6512.646
337.034, 6498.689
337.516, 6505.688
337.998, 6488.951
338.480, 6429.449
338.962, 6358.946
339.444, 6323.478
339.926, 6325.456
340.408, 6311.912
340.891, 6259.193
341.373, 6193.374
341.855, 6140.016
342.337, 6099.846
342.819, 6064.524
343.301, 6028.920
343.783, 5994.750
344.265, 5965.043
344.747, 5939.983
345.230, 5919.969
345.712, 5904.807
346.194, 5894.756
346.676, 5893.101
347.158, 5915.125
347.640, 5933.705
348.122, 5922.031
348.604, 5885.985
349.086, 5855.695
349.569, 5848.768
350.051, 5858.940
350.533, 5861.708
351.015, 5843.206
351.497, 5835.708
351.979, 5858.169
352.461, 5889.214
352.944, 5897.630
353.426, 5875.937
353.908, 5849.893
354.390, 5859.252
354.872, 5923.983
355.354, 5967.049
355.836, 5974.383
356.318, 5976.655
356.800, 5984.990
357.283, 6001.986
357.765, 6030.537
358.247, 6077.809
358.729, 6137.676
359.211, 6163.183
359.693, 6121.766
360.175, 6094.494
360.657, 6104.283
361.139, 6137.266
361.622, 6179.557
362.104, 6227.061
362.586, 6277.164
363.068, 6328.766
363.550, 6382.667
364.032, 6427.520
364.514, 6455.742
364.996, 6478.721
365.478, 6505.095
365.961, 6535.083
366.443, 6568.318
366.925, 6605.809
367.407, 6646.200
367.889, 6690.117
368.371, 6739.893
368.853, 6778.741
369.335, 6789.808
369.818, 6778.108
370.300, 6771.648
370.782, 6768.093
371.264, 6773.582
371.746, 6775.093
372.228, 6776.604
372.710, 6778.116
373.192, 6779.627
373.674, 6781.138
374.157, 6782.649
374.639, 6801.851
375.121, 6809.404
375.603, 6796.461
376.085, 6775.646
376.567, 6752.702
377.049, 6730.925
377.531, 6717.093
378.013, 6718.505
378.496, 6735.840
378.978, 6754.816
379.460, 6772.490
379.942, 6795.118
380.424, 6827.469
380.906, 6865.078
381.388, 6900.004
381.871, 6927.849
382.353, 6955.328
382.835, 6992.396
383.317, 7036.568
383.799, 7100.913
384.281, 7204.669
384.763, 7319.402
385.245, 7423.991
385.727, 7518.163
386.210, 7619.292
386.692, 7752.234
387.174, 7901.404
387.656, 8014.370
388.138, 8078.027
388.620, 8141.071
389.102, 8239.077
389.584, 8364.766
390.066, 8495.700
390.549, 8645.358
391.031, 8784.793
391.513, 8891.417
391.995, 8972.071
392.477, 9048.498
392.959, 9129.463
393.441, 9208.899
393.923, 9277.069
394.405, 9338.570
394.888, 9376.268
395.370, 9388.810
395.852, 9377.699
396.334, 9337.032
396.816, 9270.913
397.298, 9195.395
397.780, 9123.776
398.263, 9055.943
398.745, 8984.870
399.227, 8904.125
399.709, 8827.976
400.191, 8781.506
400.673, 8732.359
401.155, 8632.013
401.637, 8461.480
402.119, 8270.517
402.602, 8136.655
403.084, 8066.499
403.566, 7988.172
404.048, 7888.855
404.530, 7779.417
405.012, 7662.894
405.494, 7541.778
405.976, 7427.332
406.458, 7323.149
406.941, 7228.741
407.423, 7146.155
407.905, 7075.956
408.387, 7002.633
408.869, 6913.280
409.351, 6816.616
409.833, 6738.814
410.315, 6684.309
410.797, 6639.841
411.280, 6616.175
411.762, 6594.463
412.244, 6537.757
412.726, 6438.436
413.208, 6338.052
413.690, 6289.112
414.172, 6304.263
414.654, 6306.482
415.137, 6300.177
415.619, 6278.788
416.101, 6219.857
416.583, 6146.315
417.065, 6104.394
417.547, 6122.337
418.029, 6169.664
418.511, 6166.568
418.993, 6088.548
419.476, 6028.114
419.958, 6015.338
420.440, 6015.638
420.922, 6006.452
421.404, 5986.882
421.886, 5972.108
422.368, 5975.682
422.850, 5991.869
423.332, 6002.492
423.815, 6004.204
424.297, 6012.696
424.779, 6046.732
425.261, 6093.485
425.743, 6117.877
426.225, 6107.765
426.707, 6089.074
427.190, 6066.955
427.672, 6046.735
428.154, 6041.872
428.636, 6056.730
429.118, 6077.719
429.600, 6085.279
430.082, 6070.991
430.564, 6077.753
431.046, 6121.388
431.529, 6168.348
432.011, 6203.836
432.493, 6229.572
432.975, 6252.322
433.457, 6275.497
433.939, 6298.944
434.421, 6323.121
434.903, 6351.312
435.385, 6371.898
435.868, 6371.623
436.350, 6371.509
436.832, 6382.906
437.314, 6407.618
437.796, 6445.882
438.278, 6512.031
438.760, 6590.962
439.242, 6637.302
439.724, 6644.697
440.207, 6645.223
440.689, 6659.687
441.171, 6680.189
441.653, 6684.666
442.135, 6656.386
442.617, 6637.557
443.099, 6655.406
443.581, 6692.447
444.064, 6719.244
444.546, 6728.477
445.028, 6733.205
445.510, 6749.786
445.992, 6782.777
446.474, 6798.987
446.956, 6784.735
447.438, 6770.855
447.921, 6768.796
448.403, 6774.784
448.885, 6781.982
449.367, 6787.419
449.849, 6791.119
450.331, 6795.706
450.813, 6804.761
451.295, 6797.796
451.777, 6755.421
452.259, 6711.280
452.742, 6687.721
453.224, 6682.049
453.706, 6677.747
454.188, 6672.873
454.670, 6661.758
455.152, 6631.863
455.634, 6583.698
456.116, 6537.235
456.599, 6501.409
457.081, 6473.065
457.563, 6446.195
458.045, 6426.868
458.527, 6394.411
459.009, 6335.334
459.491, 6267.104
459.973, 6202.438
460.456, 6144.805
460.938, 6097.207
461.420, 6064.255
461.902, 6043.687
462.384, 6013.861
462.866, 5983.950
463.348, 5930.342
463.830, 5824.628
464.312, 5708.625
464.795, 5630.387
465.277, 5598.949
465.759, 5570.586
466.241, 5495.939
466.723, 5382.427
467.205, 5284.908
467.687, 5210.446
468.169, 5143.483
468.651, 5076.691
469.134, 5009.796
469.616, 4941.317
470.098, 4868.206
470.580, 4798.110
471.062, 4740.674
471.544, 4688.919
472.026, 4624.847
472.508, 4543.034
472.991, 4459.194
473.473, 4392.635
473.955, 4344.947
474.437, 4306.148
474.919, 4290.440
475.401, 4266.964
475.883, 4218.000
476.365, 4154.434
476.848, 4093.042
477.330, 4041.027
477.812, 3998.646
478.294, 3969.008
478.776, 3954.127
479.258, 3938.166
479.740, 3918.824
480.222, 3898.392
480.704, 3880.699
481.186, 3863.912
481.669, 3841.370
482.151, 3802.281
482.633, 3762.847
483.115, 3743.172
483.597, 3739.714
484.079, 3733.918
484.561, 3718.348
485.043, 3698.001
485.526, 3680.291
486.008, 3664.193
486.490, 3654.681
486.972, 3655.123
487.454, 3659.138
487.936, 3664.607
488.418, 3670.253
488.900, 3675.713
489.383, 3681.616
489.865, 3683.515
490.347, 3665.519
490.829, 3614.815
491.311, 3582.234
491.793, 3596.923
492.275, 3616.368
492.757, 3612.086
493.239, 3586.384
493.722, 3563.094
494.204, 3556.062
494.686, 3557.700
495.168, 3558.042
495.650, 3557.052
496.132, 3555.357
496.614, 3552.800
497.096, 3550.330
497.578, 3549.625
498.061, 3549.229
498.543, 3554.141
499.025, 3581.244
499.507, 3600.871
499.989, 3579.064
500.471, 3527.188
500.953, 3489.649
501.435, 3498.382
501.918, 3535.373
502.400, 3537.715
502.882, 3487.963
503.364, 3447.397
503.846, 3428.067
504.328, 3421.269
504.810, 3428.176
505.292, 3445.745
505.775, 3457.325
506.257, 3453.309
506.739, 3437.946
507.221, 3412.638
507.703, 3378.489
508.185, 3353.156
508.667, 3346.220
509.149, 3351.303
509.631, 3356.730
510.114, 3370.604
510.596, 3365.431
511.078, 3320.479
511.560, 3270.320
512.042, 3241.883
512.524, 3231.830
513.006, 3220.314
513.488, 3193.709
513.971, 3159.784
514.453, 3146.275
514.935, 3166.311
515.417, 3167.707
515.899, 3116.943
516.381, 3063.313
516.863, 3043.503
517.345, 3054.358
517.827, 3062.708
518.310, 3051.713
518.792, 3030.310
519.274, 3005.450
519.756, 2978.771
520.238, 2961.647
520.720, 2961.046
521.202, 2967.630
521.684, 2964.183
522.166, 2944.436
522.649, 2929.067
523.131, 2924.085
523.613, 2917.881
524.095, 2898.195
524.577, 2872.017
525.059, 2860.341
525.541, 2877.239
526.023, 2898.803
526.505, 2865.376
526.988, 2762.046
527.470, 2700.849
527.952, 2723.190
528.434, 2765.875
528.916, 2784.459
529.398, 2782.427
529.880, 2773.815
530.362, 2758.169
530.844, 2741.725
531.327, 2728.459
531.809, 2718.339
532.291, 2708.988
532.773, 2699.117
533.255, 2697.158
533.737, 2717.882
534.219, 2771.754
534.701, 2799.640
535.184, 2766.633
535.666, 2747.868
536.148, 2783.085
536.630, 2844.098
537.112, 2888.234
537.594, 2899.755
538.076, 2896.284
538.558, 2889.677
539.041, 2882.727
539.523, 2906.673
540.005, 2976.881
540.487, 3045.081
540.969, 3068.046
541.451, 3060.837
541.933, 3080.005
542.415, 3144.961
542.898, 3214.140
543.380, 3275.501
543.862, 3330.307
544.344, 3373.602
544.826, 3407.991
545.308, 3456.057
545.790, 3542.746
546.272, 3663.415
546.754, 3757.754
547.237, 3794.455
547.719, 3859.384
548.201, 3995.553
548.683, 4151.701
549.165, 4280.343
549.647, 4376.305
550.129, 4474.582
550.611, 4593.043
551.093, 4729.180
551.576, 4885.137
552.058, 5058.729
552.540, 5231.306
553.022, 5388.810
553.504, 5543.710
553.986, 5727.186
554.468, 5967.299
554.950, 6182.573
555.432, 6343.900
555.915, 6505.485
556.397, 6708.500
556.879, 6938.836
557.361, 7157.921
557.843, 7343.098
558.325, 7510.759
558.807, 7695.888
559.289, 7900.866
559.771, 8077.443
560.254, 8209.329
560.736, 8323.080
561.218, 8453.983
561.700, 8589.902
562.182, 8676.506
562.664, 8680.078
563.146, 8659.030
563.628, 8644.521
564.111, 8625.680
564.593, 8588.682
565.075, 8528.688
565.557, 8438.271
566.039, 8306.555
566.521, 8133.583
567.003, 7949.412
567.485, 7738.584
567.968, 7541.257
568.450, 7388.176
568.932, 7241.734
569.414, 7054.925
569.896, 6820.972
570.378, 6598.215
570.860, 6433.793
571.342, 6301.466
571.825, 6158.997
572.307, 6006.046
572.789, 5863.422
573.271, 5744.674
573.753, 5636.006
574.235, 5500.241
574.717, 5297.040
575.199, 5148.454
575.681, 5098.350
576.164, 5058.219
576.646, 4973.078
577.128, 4859.950
577.610, 4764.200
578.092, 4711.002
578.574, 4672.505
579.056, 4605.169
579.538, 4512.187
580.020, 4435.293
580.503, 4386.922
580.985, 4338.221
581.467, 4259.525
581.949, 4156.965
582.431, 4079.925
582.913, 4043.864
583.395, 4013.930
583.877, 3982.039
584.360, 3949.233
584.842, 3916.363
585.324, 3883.716
585.806, 3851.690
586.288, 3821.476
586.770, 3791.819
587.252, 3757.076
587.734, 3716.118
588.216, 3674.331
588.699, 3636.000
589.181, 3594.911
589.663, 3536.217
590.145, 3461.323
590.627, 3413.431
591.109, 3436.642
591.591, 3465.029
592.073, 3435.517
592.555, 3370.104
593.038, 3327.933
593.520, 3330.262
594.002, 3347.516
594.484, 3333.965
594.966, 3281.350
595.448, 3265.143
595.930, 3321.171
596.412, 3364.946
596.895, 3359.716
597.377, 3331.781
597.859, 3311.083
598.341, 3302.676
598.823, 3305.824
599.305, 3335.337
599.787, 3368.837
600.269, 3365.810
600.752, 3328.157
601.234, 3292.949
601.716, 3280.542
602.198, 3284.340
602.680, 3289.197
603.162, 3300.256
603.644, 3301.486
604.126, 3280.419
604.609, 3262.763
605.091, 3271.376
605.573, 3290.570
606.055, 3286.177
606.537, 3239.632
607.019, 3186.561
607.501, 3165.740
607.983, 3168.284
608.465, 3167.838
608.948, 3160.650
609.430, 3147.902
609.912, 3129.674
610.394, 3106.835
610.876, 3084.128
611.358, 3055.014
611.840, 3034.916
612.322, 3037.140
612.804, 3038.491
613.287, 3014.968
613.769, 2974.162
614.251, 2946.582
614.733, 2954.730
615.215, 2975.417
615.697, 2969.948
616.179, 2941.354
616.661, 2917.799
617.143, 2906.573
617.626, 2898.231
618.108, 2884.603
618.590, 2865.786
619.072, 2846.151
619.554, 2828.400
620.036, 2806.461
620.518, 2772.638
621.000, 2738.006
621.482, 2715.260
621.965, 2704.281
622.447, 2694.139
622.929, 2675.345
623.411, 2653.113
623.893, 2638.939
624.375, 2632.907
624.857, 2634.337
625.339, 2645.295
625.822, 2659.506
626.304, 2671.945
626.786, 2682.643
627.268, 2684.181
627.750, 2671.450
628.232, 2655.436
628.714, 2630.104
629.196, 2608.740
629.679, 2616.480
630.161, 2652.301
630.643, 2676.613
631.125, 2641.135
631.607, 2570.876
632.089, 2560.976
632.571, 2618.583
633.053, 2674.049
633.536, 2707.295
634.018, 2725.154
634.500, 2733.814
634.982, 2732.784
635.464, 2730.921
635.946, 2720.828
636.428, 2718.725
636.910, 2738.984
637.392, 2768.744
637.875, 2791.162
638.357, 2801.574
638.839, 2804.654
639.321, 2802.489
639.803, 2796.815
640.285, 2793.737
640.767, 2791.972
641.249, 2803.233
641.731, 2841.192
642.214, 2883.614
642.696, 2890.474
643.178, 2854.496
643.660, 2852.511
644.142, 2926.637
644.624, 2997.600
645.106, 3021.859
645.588, 3020.646
646.070, 3026.934
646.553, 3049.622
647.035, 3075.215
647.517, 3087.235
647.999, 3090.288
648.481, 3104.620
648.963, 3130.720
649.445, 3166.118
649.927, 3215.540
650.409, 3266.885
650.892, 3299.093
651.374, 3307.544
651.856, 3327.480
652.338, 3369.558
652.820, 3413.787
653.302, 3446.799
653.784, 3477.934
654.266, 3524.198
654.749, 3588.513
655.231, 3652.388
655.713, 3698.045
656.195, 3728.737
656.677, 3750.138
657.159, 3760.519
657.641, 3791.852
658.123, 3866.743
658.606, 3950.232
659.088, 3987.732
659.570, 3963.250
660.052, 3975.093
660.534, 4052.530
661.016, 4132.095
661.498, 4197.840
661.980, 4248.641
662.463, 4276.409
662.945, 4283.241
663.427, 4295.615
663.909, 4343.439
664.391, 4410.954
664.873, 4457.496
665.355, 4484.223
665.837, 4519.005
666.319, 4574.286
666.802, 4632.469
667.284, 4666.942
667.766, 4671.392
668.248, 4701.727
668.730, 4798.448
669.212, 4869.360
669.694, 4865.646
670.176, 4840.980
670.658, 4854.518
671.141, 4911.436
671.623, 4970.075
672.105, 4998.523
672.587, 5015.000
673.069, 5050.545
673.551, 5099.841
674.033, 5139.343
674.515, 5162.905
674.997, 5164.829
675.480, 5133.094
675.962, 5067.646
676.444, 5032.750
676.926, 5054.735
677.408, 5069.022
677.890, 5063.008
678.372, 5046.924
678.854, 5025.713
679.336, 5001.353
679.819, 4980.018
680.301, 4967.460
680.783, 4956.041
681.265, 4945.622
681.747, 4929.923
682.229, 4891.216
682.711, 4827.178
683.193, 4757.381
683.676, 4700.053
684.158, 4651.875
684.640, 4593.042
685.122, 4514.966
685.604, 4449.042
686.086, 4410.669
686.568, 4376.226
687.050, 4331.649
687.532, 4277.232
688.015, 4213.688
688.497, 4126.944
688.979, 4051.275
689.461, 4014.137
689.943, 3990.786
690.425, 3952.097
690.907, 3895.330
691.390, 3831.468
691.872, 3767.079
692.354, 3701.642
692.836, 3636.069
693.318, 3571.093
693.800, 3492.424
694.282, 3385.819
694.764, 3296.938
695.246, 3272.955
695.729, 3290.317
696.211, 3264.134
696.693, 3165.440
697.175, 3079.771
697.657, 3022.553
698.139, 2980.632
698.621, 2960.676
699.103, 2945.886
699.585, 2896.667
700.068, 2793.570
700.550, 2689.184
701.032, 2649.503
701.514, 2657.784
701.996, 2660.402
702.478, 2653.519
702.960, 2641.747
703.442, 2629.937
703.924, 2608.972
704.407, 2558.434
704.889, 2464.462
705.371, 2385.839
705.853, 2327.970
706.335, 2279.337
706.817, 2234.216
707.299, 2197.468
707.781, 2179.990
708.263, 2183.340
708.746, 2182.793
709.228, 2162.463
709.710, 2132.428
710.192, 2099.867
710.674, 2067.366
711.156, 2041.421
711.638, 2024.015
712.120, 2010.877
712.603, 1997.247
713.085, 1983.414
713.567, 1975.397
714.049, 1980.107
714.531, 1969.219
715.013, 1913.773
715.495, 1861.274
715.977, 1870.750
716.459, 1931.818
716.942, 1962.462
717.424, 1930.976
717.906, 1891.021
718.388, 1859.114
718.870, 1832.259
719.352, 1804.754
719.834, 1778.162
720.317, 1761.917
720.799, 1764.446
721.281, 1773.776
721.763, 1768.775
722.245, 1751.390
722.727, 1736.789
723.209, 1727.700
723.691, 1717.645
724.173, 1701.778
724.656, 1682.046
725.138, 1664.701
725.620, 1643.945
726.102, 1636.717
726.584, 1672.376
727.066, 1689.668
727.548, 1632.303
728.030, 1546.830
728.513, 1518.292
728.995, 1573.812
729.477, 1627.360
729.959, 1613.589
730.441, 1577.475
730.923, 1579.631
731.405, 1608.483
731.887, 1613.789
732.369, 1576.811
732.852, 1529.070
733.334, 1510.415
733.816, 1519.485
734.298, 1535.706
734.780, 1564.964
735.262, 1579.895
735.744, 1567.111
736.226, 1541.552
736.708, 1516.243
737.191, 1491.191
737.673, 1476.459
738.155, 1484.893
738.637, 1488.293
739.119, 1471.873
739.601, 1450.999
740.083, 1440.702
740.565, 1441.002
741.047, 1442.885
741.530, 1441.414
742.012, 1439.230
742.494, 1440.207
742.976, 1443.116
743.458, 1445.223
743.940, 1445.949
744.422, 1443.285
744.904, 1436.456
745.386, 1423.844
745.869, 1394.545
746.351, 1326.619
746.833, 1318.804
747.315, 1429.638
747.797, 1521.423
748.279, 1517.631
748.761, 1463.246
749.244, 1412.846
749.726, 1368.347
750.208, 1341.799
750.690, 1351.813
751.172, 1365.846
751.654, 1360.642
752.136, 1345.676
752.618, 1338.235
753.100, 1342.160
753.583, 1348.321
754.065, 1348.423
754.547, 1345.489
755.029, 1350.776
755.511, 1362.076
755.993, 1354.963
756.475, 1321.374
756.957, 1283.703
757.440, 1260.534
757.922, 1251.253
758.404, 1252.668
758.886, 1271.909
759.368, 1288.151
759.850, 1294.207
760.332, 1302.041
760.814, 1325.600
761.296, 1353.922
761.779, 1360.742
762.261, 1331.343
762.743, 1310.404
763.225, 1335.469
763.707, 1362.120
764.189, 1340.136
764.671, 1288.031
765.153, 1254.765
765.635, 1257.809
766.118, 1274.111
766.600, 1280.239
767.082, 1278.449
767.564, 1275.369
768.046, 1271.071
768.528, 1270.480
769.010, 1275.994
769.492, 1282.358
769.974, 1283.747
770.457, 1280.328
770.939, 1276.541
771.421, 1272.690
771.903, 1267.954
772.385, 1252.969
772.867, 1245.515
773.349, 1269.956
773.831, 1311.082
774.313, 1322.505
774.796, 1276.509
775.278, 1237.446
775.760, 1242.029
776.242, 1260.831
776.724, 1268.665
777.206, 1265.553
777.688, 1257.740
778.170, 1247.911
778.653, 1240.816
779.135, 1244.605
779.617, 1255.451
780.099, 1261.134
780.581, 1261.421
781.063, 1256.401
781.545, 1245.464
782.027, 1232.132
782.510, 1219.480
782.992, 1207.719
783.474, 1206.454
783.956, 1225.304
784.438, 1236.217
784.920, 1228.199
785.402, 1216.033
785.884, 1212.732
786.367, 1213.773
786.849, 1201.732
787.331, 1155.104
787.813, 1130.060
788.295, 1170.440
788.777, 1218.954
789.259, 1219.540
789.741, 1190.021
790.223, 1183.860
790.706, 1220.870
791.188, 1256.133
791.670, 1239.118
792.152, 1192.042
792.634, 1155.018
793.116, 1130.666
793.598, 1131.990
794.080, 1164.131
794.562, 1198.711
795.045, 1204.192
795.527, 1184.305
796.009, 1168.506
796.491, 1158.071
796.973, 1146.051
797.455, 1123.094
797.937, 1110.370
798.419, 1135.001
798.901, 1183.446
799.384, 1202.768
799.866, 1176.415
800.348, 1151.918
800.830, 1127.037
801.312, 1114.010
801.794, 1129.804
802.276, 1158.857
802.758, 1176.226
803.240, 1175.689
803.723, 1169.274
804.205, 1159.320
804.687, 1151.845
805.169, 1161.084
805.651, 1176.719
806.133, 1169.638
806.615, 1136.219
807.097, 1107.268
807.580, 1110.046
808.062, 1132.585
808.544, 1143.419
809.026, 1142.674
809.508, 1144.506
809.990, 1151.673
810.472, 1157.181
810.954, 1155.562
811.437, 1150.800
811.919, 1154.973
812.401, 1180.679
812.883, 1176.999
813.365, 1107.885
813.847, 1054.901
814.329, 1047.939
814.811, 1066.411
815.294, 1096.115
815.776, 1134.285
816.258, 1154.695
816.740, 1136.516
817.222, 1115.291
817.704, 1103.127
818.186, 1099.888
818.668, 1113.941
819.150, 1137.265
819.633, 1141.127
820.115, 1106.552
820.597, 1068.135
821.079, 1070.009
821.561, 1094.009
822.043, 1100.312
822.525, 1088.844
823.007, 1076.978
823.489, 1071.855
823.972, 1074.764
824.454, 1092.169
824.936, 1120.561
825.418, 1116.551
825.900, 1071.183
826.382, 1046.067
826.864, 1064.833
827.346, 1090.457
827.828, 1087.574
828.311, 1062.467
828.793, 1054.242
829.275, 1082.076
829.757, 1096.380
830.239, 1083.884
830.721, 1071.154
831.203, 1075.784
831.685, 1086.689
832.167, 1083.843
832.650, 1062.626
833.132, 1044.291
833.614, 1037.134
834.096, 1034.353
834.578, 1029.355
835.060, 1027.027
835.542, 1037.522
836.024, 1059.558
836.507, 1079.590
836.989, 1090.694
837.471, 1092.518
837.953, 1076.873
838.435, 1053.421
838.917, 1048.156
839.399, 1061.438
839.881, 1075.272
840.364, 1080.653
840.846, 1079.234
841.328, 1070.577
841.810, 1055.520
842.292, 1050.269
842.774, 1054.394
843.256, 1074.350
843.738, 1119.454
844.221, 1163.051
844.703, 1178.915
845.185, 1168.503
845.667, 1143.530
846.149, 1084.894
846.631, 1045.981
847.113, 1040.893
847.595, 1046.030
848.077, 1054.296
848.560, 1063.598
849.042, 1069.476
849.524, 1069.722
850.006, 1075.930
850.488, 1097.991
850.970, 1118.755
851.452, 1128.662
851.934, 1132.482
852.416, 1136.150
852.899, 1140.402
853.381, 1142.998
853.863, 1143.686
854.345, 1140.646
854.827, 1126.525
855.309, 1110.586
855.791, 1111.368
856.273, 1125.346
856.755, 1131.619
857.238, 1120.850
857.720, 1108.407
858.202, 1119.610
858.684, 1144.973
859.166, 1142.311
859.648, 1114.388
860.130, 1101.809
860.612, 1116.598
861.094, 1137.003
861.577, 1143.744
862.059, 1140.062
862.541, 1139.171
863.023, 1142.416
863.505, 1141.745
863.987, 1134.092
864.469, 1128.174
864.951, 1129.773
865.434, 1134.628
865.916, 1134.315
866.398, 1126.275
866.880, 1126.858
867.362, 1144.374
867.844, 1159.132
868.326, 1172.200
868.808, 1176.628
869.291, 1156.998
869.773, 1123.137
870.255, 1111.613
870.737, 1144.182
871.219, 1168.983
871.701, 1161.740
872.183, 1145.432
872.665, 1129.219
873.148, 1119.300
873.630, 1127.325
874.112, 1154.239
874.594, 1178.734
875.076, 1182.876
875.558, 1181.375
876.040, 1191.559
876.522, 1206.498
877.004, 1214.224
877.487, 1213.405
877.969, 1205.614
878.451, 1190.408
878.933, 1181.265
879.415, 1205.864
879.897, 1251.959
880.379, 1277.488
880.861, 1281.328
881.343, 1265.994
881.826, 1231.489
882.308, 1201.092
882.790, 1200.763
883.272, 1223.040
883.754, 1232.507
884.236, 1226.589
884.718, 1230.799
885.200, 1253.143
885.682, 1269.515
886.165, 1264.953
886.647, 1247.037
887.129, 1227.521
887.611, 1201.842
888.093, 1200.956
888.575, 1249.782
889.057, 1282.012
889.539, 1269.136
890.021, 1244.697
890.504, 1237.103
890.986, 1242.157
891.468, 1241.256
891.950, 1227.090
892.432, 1218.125
892.914, 1221.014
893.396, 1225.253
893.878, 1215.948
894.361, 1209.351
894.843, 1238.448
895.325, 1304.461
895.807, 1345.874
896.289, 1318.492
896.771, 1283.471
897.253, 1272.456
897.735, 1272.697
898.218, 1272.466
898.700, 1270.133
899.182, 1266.437
899.664, 1261.482
900.146, 1257.503
900.628, 1256.178
901.110, 1256.987
901.592, 1259.228
902.075, 1263.083
902.557, 1267.459
903.039, 1273.169
903.521, 1288.285
904.003, 1323.029
904.485, 1356.609
904.967, 1343.475
905.449, 1301.137
905.931, 1292.692
906.414, 1318.580
906.896, 1336.815
907.378, 1329.526
907.860, 1316.647
908.342, 1324.170
908.824, 1345.455
909.306, 1344.746
909.788, 1321.036
910.270, 1313.531
910.753, 1331.051
911.235, 1353.727
911.717, 1371.238
912.199, 1380.387
912.681, 1367.661
913.163, 1323.860
913.645, 1338.002
914.127, 1440.687
914.610, 1512.672
915.092, 1508.009
915.574, 1480.559
916.056, 1480.416
916.538, 1501.193
917.020, 1504.670
917.502, 1463.618
917.984, 1457.681
918.466, 1515.414
918.949, 1574.064
919.431, 1602.860
919.913, 1621.844
920.395, 1661.274
920.877, 1722.144
921.359, 1757.019
921.841, 1741.778
922.323, 1728.141
922.805, 1716.840
923.288, 1719.882
923.770, 1757.211
924.252, 1811.160
924.734, 1845.556
925.216, 1851.192
925.698, 1861.085
926.180, 1901.157
926.662, 1930.695
927.145, 1917.698
927.627, 1890.422
928.109, 1879.860
928.591, 1884.747
929.073, 1884.496
929.555, 1867.892
930.037, 1858.008
930.519, 1885.107
931.002, 1911.116
931.484, 1896.434
931.966, 1855.633
932.448, 1812.356
932.930, 1774.207
933.412, 1744.945
933.894, 1724.831
934.376, 1718.897
934.859, 1748.901
935.341, 1786.904
935.823, 1785.664
936.305, 1751.575
936.787, 1713.818
937.269, 1683.646
937.751, 1660.647
938.233, 1644.901
938.715, 1635.735
939.198, 1633.732
939.680, 1636.970
940.162, 1643.410
940.644, 1650.601
941.126, 1644.558
941.608, 1617.540
942.090, 1589.032
942.572, 1589.351
943.054, 1609.774
943.537, 1618.771
944.019, 1617.146
944.501, 1607.152
944.983, 1589.823
945.465, 1584.311
945.947, 1606.218
946.429, 1639.602
946.911, 1653.996
947.393, 1649.796
947.876, 1626.620
948.358, 1582.508
948.840, 1566.932
949.322, 1597.436
949.804, 1646.107
950.286, 1690.776
950.768, 1728.481
951.250, 1746.653
951.732, 1742.813
952.215, 1737.085
952.697, 1723.693
953.179, 1745.896
953.661, 1834.095
954.143, 1931.247
954.625, 1964.989
955.107, 1943.597
955.589, 1944.608
956.072, 1973.248
956.554, 2006.855
957.036, 2046.643
957.518, 2083.199
958.000, 2111.576
958.482, 2133.548
958.964, 2147.778
959.446, 2152.597
959.929, 2187.275
960.411, 2273.453
960.893, 2342.838
961.375, 2384.521
961.857, 2407.742
962.339, 2409.979
962.821, 2401.662
963.303, 2402.510
963.786, 2410.026
964.268, 2439.061
964.750, 2516.958
965.232, 2574.214
965.714, 2578.449
966.196, 2575.522
966.678, 2602.923
967.160, 2648.819
967.642, 2677.781
968.125, 2678.439
968.607, 2693.477
969.089, 2731.766
969.571, 2774.667
970.053, 2814.298
970.535, 2858.525
971.017, 2917.036
971.499, 2986.534
971.981, 3052.096
972.464, 3107.261
972.946, 3170.245
973.428, 3249.000
973.910, 3328.554
974.392, 3398.051
974.874, 3468.337
975.356, 3555.683
975.838, 3656.641
976.320, 3746.420
976.803, 3802.653
977.285, 3880.021
977.767, 4001.760
978.249, 4132.901
978.731, 4258.304
979.213, 4381.737
979.695, 4511.899
980.177, 4648.088
980.659, 4777.225
981.142, 4903.522
981.624, 5012.229
982.106, 5079.718
982.588, 5148.788
983.070, 5255.473
983.552, 5377.227
984.034, 5476.447
984.516, 5550.053
984.999, 5630.421
985.481, 5747.160
985.963, 5846.268
986.445, 5883.609
986.927, 5920.326
987.409, 6025.215
987.891, 6152.547
988.373, 6212.455
988.856, 6191.194
989.338, 6183.329
989.820, 6243.336
990.302, 6298.178
990.784, 6312.900
991.266, 6312.566
991.748, 6320.771
992.230, 6329.794
992.713, 6314.211
993.195, 6268.716
993.677, 6243.469
994.159, 6274.127
994.641, 6311.119
995.123, 6332.566
995.605, 6347.088
996.087, 6368.354
996.569, 6387.721
997.052, 6384.847
997.534, 6354.482
998.016, 6313.513
998.498, 6244.445
998.980, 6197.102
999.462, 6228.149
999.944, 6269.391
1000.426, 6245.083
1000.908, 6176.641
1001.391, 6132.191
1001.873, 6131.476
1002.355, 6122.121
1002.837, 6064.929
1003.319, 6011.278
1003.801, 5990.357
1004.283, 5987.962
1004.765, 6003.852
1005.247, 6022.657
1005.730, 6010.589
1006.212, 5956.493
1006.694, 5895.296
1007.176, 5842.899
1007.658, 5787.414
1008.140, 5715.962
1008.622, 5643.050
1009.104, 5587.299
1009.587, 5542.543
1010.069, 5488.982
1010.551, 5420.452
1011.033, 5351.293
1011.515, 5286.519
1011.997, 5224.043
1012.479, 5165.560
1012.961, 5107.190
1013.443, 5048.381
1013.926, 4985.898
1014.408, 4913.404
1014.890, 4829.407
1015.372, 4734.162
1015.854, 4626.031
1016.336, 4509.368
1016.818, 4364.967
1017.300, 4230.657
1017.783, 4150.178
1018.265, 4109.647
1018.747, 4068.365
1019.229, 4019.677
1019.711, 3951.148
1020.193, 3837.426
1020.675, 3728.504
1021.157, 3643.036
1021.639, 3577.220
1022.122, 3538.889
1022.604, 3515.120
1023.086, 3473.990
1023.568, 3405.351
1024.050, 3344.489
1024.532, 3292.787
1025.014, 3262.750
1025.496, 3288.536
1025.979, 3312.880
1026.461, 3270.002
1026.943, 3189.590
1027.425, 3155.274
1027.907, 3191.016
1028.389, 3205.877
1028.871, 3160.361
1029.353, 3117.554
1029.835, 3100.625
1030.318, 3092.525
1030.800, 3080.703
1031.282, 3066.781
1031.764, 3056.138
1032.246, 3049.501
1032.728, 3045.054
1033.210, 3036.788
1033.692, 3038.645
1034.174, 3075.877
1034.657, 3103.104
1035.139, 3076.695
1035.621, 3021.751
1036.103, 2989.596
1036.585, 2985.360
1037.067, 2986.121
1037.549, 2983.634
1038.031, 2996.344
1038.514, 3050.593
1038.996, 3096.207
1039.478, 3094.508
1039.960, 3069.379
1040.442, 3061.611
1040.924, 3072.412
1041.406, 3089.738
1041.888, 3125.037
1042.370, 3145.733
1042.853, 3138.959
1043.335, 3128.998
1043.817, 3120.925
1044.299, 3124.718
1044.781, 3161.727
1045.263, 3232.969
1045.745, 3277.594
1046.227, 3276.837
1046.709, 3300.914
1047.192, 3378.200
1047.674, 3432.644
1048.156, 3413.076
1048.638, 3374.364
1049.120, 3393.910
1049.602, 3465.105
1050.084, 3512.937
1050.566, 3532.822
1051.049, 3544.517
1051.531, 3540.844
1052.013, 3570.152
1052.495, 3667.847
1052.977, 3761.585
1053.459, 3761.270
1053.941, 3692.039
1054.423, 3676.127
1054.906, 3717.273
1055.388, 3758.585
1055.870, 3796.891
1056.352, 3823.851
1056.834, 3835.274
1057.316, 3842.959
1057.798, 3858.793
1058.280, 3877.920
1058.762, 3888.907
1059.245, 3891.397
1059.727, 3881.943
1060.209, 3860.334
1060.691, 3818.264
1061.173, 3754.320
1061.655, 3711.385
1062.137, 3727.356
1062.619, 3762.392
1063.101, 3743.198
1063.584, 3682.656
1064.066, 3616.687
1064.548, 3549.487
1065.030, 3492.313
1065.512, 3446.977
1065.994, 3408.825
1066.476, 3376.052
1066.958, 3339.970
1067.441, 3280.749
1067.923, 3216.973
1068.405, 3190.531
1068.887, 3183.596
1069.369, 3146.309
1069.851, 3081.618
1070.333, 3038.293
1070.815, 3038.888
1071.297, 3046.280
1071.780, 3032.145
1072.262, 3004.130
1072.744, 2963.141
1073.226, 2918.271
1073.708, 2879.926
1074.190, 2849.560
1074.672, 2828.653
1075.154, 2817.255
1075.636, 2799.573
1076.119, 2752.846
1076.601, 2713.703
1077.083, 2716.234
1077.565, 2727.068
1078.047, 2718.852
1078.529, 2693.969
1079.011, 2657.978
1079.494, 2613.253
1079.976, 2573.298
1080.458, 2548.447
1080.940, 2520.164
1081.422, 2475.007
1081.904, 2433.677
1082.386, 2412.588
1082.868, 2399.852
1083.350, 2376.434
1083.833, 2344.755
1084.315, 2331.031
1084.797, 2364.170
1085.279, 2365.580
1085.761, 2302.554
1086.243, 2244.188
1086.725, 2211.860
1087.207, 2192.264
1087.689, 2175.248
1088.172, 2161.605
1088.654, 2156.000
1089.136, 2166.270
1089.618, 2148.065
1090.100, 2084.649
1090.582, 2040.522
1091.064, 2040.077
1091.546, 2032.735
1092.029, 1977.349
1092.511, 1909.187
1092.993, 1898.586
1093.475, 1942.160
1093.957, 1957.482
1094.439, 1943.314
1094.921, 1916.595
1095.403, 1877.799
1095.885, 1868.148
1096.368, 1910.300
1096.850, 1957.852
1097.332, 1952.922
1097.814, 1915.191
1098.296, 1901.954
1098.778, 1906.825
1099.260, 1897.518
1099.742, 1875.737
1100.224, 1868.701
1100.707, 1884.159
1101.189, 1906.992
1101.671, 1929.285
1102.153, 1941.667
1102.635, 1925.271
1103.117, 1894.988
1103.599, 1867.385
1104.081, 1848.195
1104.564, 1849.694
1105.046, 1870.178
1105.528, 1894.830
1106.010, 1917.945
1106.492, 1936.178
1106.974, 1951.602
1107.456, 1955.945
1107.938, 1924.732
1108.421, 1892.860
1108.903, 1907.127
1109.385, 1952.824
1109.867, 1985.069
1110.349, 1993.496
1110.831, 1995.799
1111.313, 1992.732
1111.795, 1990.718
1112.277, 1983.414
1112.760, 1986.651
1113.242, 2019.220
1113.724, 2063.511
1114.206, 2093.386
1114.688, 2108.494
1115.170, 2124.586
1115.652, 2145.175
1116.134, 2158.689
1116.616, 2155.973
1117.099, 2165.358
1117.581, 2207.223
1118.063, 2243.510
1118.545, 2237.365
1119.027, 2203.429
1119.509, 2181.517
1119.991, 2170.897
1120.473, 2186.223
1120.956, 2229.701
1121.438, 2274.163
1121.920, 2314.340
1122.402, 2350.408
1122.884, 2382.837
1123.366, 2408.859
1123.848, 2423.688
1124.330, 2429.249
1124.813, 2427.569
1125.295, 2421.934
1125.777, 2426.624
1126.259, 2439.564
1126.741, 2442.902
1127.223, 2431.894
1127.705, 2420.182
1128.187, 2408.925
1128.669, 2380.870
1129.151, 2379.440
1129.634, 2371.513
1130.116, 2357.507
1130.598, 2319.060
1131.080, 2312.172
1131.562, 2292.634
1132.044, 2272.582
1132.526, 2263.169
1133.008, 2242.728
1133.491, 2242.839
1133.973, 2237.977
1134.455, 2228.391
1134.937, 2199.924
1135.419, 2195.838
1135.901, 2181.979
1136.383, 2172.957
1136.865, 2144.704
1137.348, 2134.961
1137.830, 2155.413
1138.312, 2174.312
1138.794, 2196.819
1139.276, 2201.291
1139.758, 2164.920
1140.240, 2131.633
1140.722, 2151.103
1141.204, 2207.273
1141.687, 2243.323
1142.169, 2258.425
1142.651, 2259.219
1143.133, 2245.106
1143.615, 2239.764
1144.097, 2248.702
1144.579, 2264.456
1145.061, 2283.701
1145.543, 2292.592
1146.026, 2257.293
1146.508, 2208.704
1146.990, 2225.317
1147.472, 2285.639
1147.954, 2349.972
1148.436, 2405.991
1148.918, 2430.478
1149.400, 2420.163
1149.883, 2408.240
1150.365, 2412.008
1150.847, 2429.097
1151.329, 2477.688
1151.811, 2518.391
1152.293, 2512.207
1152.775, 2480.935
1153.257, 2447.599
1153.740, 2418.298
1154.222, 2399.968
1154.704, 2396.116
1155.186, 2393.801
1155.668, 2397.638
1156.150, 2392.849
1156.632, 2373.990
1157.114, 2347.562
1157.596, 2314.491
1158.078, 2278.083
1158.561, 2243.803
1159.043, 2210.831
1159.525, 2172.015
1160.007, 2127.635
1160.489, 2077.671
1160.971, 2022.869
1161.453, 1952.682
1161.935, 1862.542
1162.418, 1780.097
1162.900, 1726.556
1163.382, 1689.446
1163.864, 1645.589
1164.346, 1602.447
1164.828, 1588.738
1165.310, 1591.776
1165.792, 1576.976
1166.275, 1542.093
1166.757, 1495.956
1167.239, 1443.066
1167.721, 1394.646
1168.203, 1355.891
1168.685, 1328.486
1169.167, 1321.923
1169.649, 1318.688
1170.131, 1306.250
1170.614, 1285.718
1171.096, 1255.928
1171.578, 1220.611
1172.060, 1192.458
1172.542, 1174.749
1173.024, 1160.272
1173.506, 1153.623
1173.988, 1141.625
1174.470, 1113.904
1174.953, 1094.465
1175.435, 1105.498
1175.917, 1117.126
1176.399, 1081.873
1176.881, 1013.785
1177.363, 1004.483
1177.845, 1056.954
1178.327, 1068.123
1178.810, 1033.371
1179.292, 1014.070
1179.774, 1026.031
1180.256, 1047.194
1180.738, 1064.500
1181.220, 1070.159
1181.702, 1041.455
1182.184, 1004.134
1182.667, 1006.090
1183.149, 1026.588
1183.631, 1031.476
1184.113, 1022.179
1184.595, 1010.871
1185.077, 1001.498
1185.559, 997.915
1186.041, 1010.013
1186.523, 1011.137
1187.005, 977.076
1187.488, 946.027
1187.970, 938.333
1188.452, 942.109
1188.934, 947.046
1189.416, 953.754
1189.898, 967.310
1190.380, 990.095
1190.862, 988.411
1191.345, 951.359
1191.827, 933.841
1192.309, 946.339
1192.791, 953.749
1193.273, 941.192
1193.755, 928.549
1194.237, 936.511
1194.719, 948.075
1195.202, 912.605
1195.684, 859.132
1196.166, 889.018
1196.648, 969.221
1197.130, 1003.395
1197.612, 986.794
1198.094, 967.314
1198.576, 962.208
1199.058, 951.409
1199.541, 904.367
1200.023, 874.218
1200.505, 913.663
1200.987, 958.023
1201.469, 958.944
1201.951, 938.143
1202.433, 921.946
1202.915, 910.769
1203.397, 895.074
1203.880, 869.293
1204.362, 866.099
1204.844, 902.026
1205.326, 912.740
1205.808, 878.655
1206.290, 856.222
1206.772, 873.977
1207.254, 904.268
1207.737, 920.046
1208.219, 919.985
1208.701, 892.431
1209.183, 847.943
1209.665, 819.500
1210.147, 808.765
1210.629, 821.086
1211.111, 851.585
1211.594, 880.436
1212.076, 899.712
1212.558, 910.277
1213.040, 908.627
1213.522, 903.982
1214.004, 905.899
1214.486, 902.680
1214.968, 870.600
1215.450, 838.632
1215.932, 853.351
1216.415, 903.185
1216.897, 926.462
1217.379, 916.786
1217.861, 905.112
1218.343, 887.233
1218.825, 882.552
1219.307, 897.234
1219.789, 908.200
1220.272, 902.979
1220.754, 906.724
1221.236, 952.157
1221.718, 1004.734
1222.200, 976.172
1222.682, 903.522
1223.164, 886.986
1223.646, 909.310
1224.129, 921.883
1224.611, 918.285
1225.093, 907.249
1225.575, 892.236
1226.057, 885.535
1226.539, 897.437
1227.021, 913.831
1227.503, 940.395
1227.985, 956.005
1228.468, 941.238
1228.950, 951.512
1229.432, 955.709
1229.914, 954.157
1230.396, 929.631
1230.878, 934.770
1231.360, 928.021
1231.842, 920.784
1232.324, 930.099
1232.807, 908.907
1233.289, 916.336
1233.771, 852.751
1234.253, 804.198
1234.735, 833.616
1235.217, 882.558
1235.699, 864.946
1236.181, 822.602
1236.664, 814.227
1237.146, 824.078
1237.628, 829.141
1238.110, 828.637
1238.592, 826.287
1239.074, 823.771
1239.556, 830.997
1240.038, 869.438
1240.521, 882.522
1241.003, 830.619
1241.485, 800.166
1241.967, 826.958
1242.449, 854.472
1242.931, 844.553
1243.413, 817.455
1243.895, 803.313
1244.377, 800.418
1244.859, 803.468
1245.342, 810.841
1245.824, 810.956
1246.306, 806.028
1246.788, 810.967
1247.270, 826.729
1247.752, 840.090
1248.234, 844.849
1248.716, 843.525
1249.199, 827.470
1249.681, 819.631
1250.163, 840.596
1250.645, 868.498
1251.127, 902.154
1251.609, 921.765
1252.091, 893.590
1252.573, 830.794
1253.056, 778.628
1253.538, 732.377
1254.020, 740.264
1254.502, 817.026
1254.984, 849.242
1255.466, 819.499
1255.948, 795.316
1256.430, 802.955
1256.912, 825.528
1257.395, 853.041
1257.877, 869.947
1258.359, 838.896
1258.841, 799.610
1259.323, 811.235
1259.805, 845.167
1260.287, 866.872
1260.769, 873.074
1261.251, 863.280
1261.734, 839.462
1262.216, 823.993
1262.698, 823.865
1263.180, 827.145
1263.662, 837.679
1264.144, 841.279
1264.626, 830.998
1265.108, 825.775
1265.591, 838.076
1266.073, 852.079
1266.555, 846.869
1267.037, 830.726
1267.519, 822.973
1268.001, 821.401
1268.483, 827.056
1268.965, 831.557
1269.448, 802.853
1269.930, 754.443
1270.412, 749.528
1270.894, 806.682
1271.376, 848.508
1271.858, 831.433
1272.340, 811.403
1272.822, 797.927
##END=



