##NAMES=Berlinite
##RRUFFID=R130243
##IDEAL CHEMISTRY=AlPO_4_
##LOCALITY=Buranga pegmatite, Gatumba District, Western Province, Rwanda
##OWNER=RRUFF
##SOURCE=Rock Currier
##DESCRIPTION=Massive white to gray vitreous, associated with lazulite, muscovite and apatite.
##STATUS=The identification of this mineral has been confirmed by single-crystal X-ray diffraction.
##URL=rruff.info/R130243
103.2825, 100.3907
103.7646, 107.2464
104.2467, 114.9784
104.7288, 123.8381
105.2109, 134.4581
105.6931, 147.0202
106.1752, 160.9927
106.6573, 176.7391
107.1394, 198.4753
107.6215, 214.9527
108.1036, 226.8776
108.5858, 233.9883
109.0679, 233.7033
109.5500, 221.2129
110.0321, 205.1848
110.5142, 190.3418
110.9963, 174.1160
111.4785, 161.7704
111.9606, 154.1481
112.4427, 151.0956
112.9248, 150.8506
113.4069, 153.2765
113.8890, 158.1953
114.3712, 165.5125
114.8533, 175.0180
115.3354, 186.9652
115.8175, 201.3801
116.2996, 218.4512
116.7817, 237.7780
117.2639, 261.2997
117.7460, 286.6378
118.2281, 310.7704
118.7102, 339.0722
119.1923, 361.5116
119.6744, 371.9357
120.1566, 369.3853
120.6387, 356.6790
121.1208, 330.6552
121.6029, 295.6535
122.0850, 260.6123
122.5671, 227.5400
123.0493, 197.7388
123.5314, 172.7209
124.0135, 153.0994
124.4956, 137.2209
124.9777, 124.3411
125.4598, 114.1891
125.9420, 106.0314
126.4241, 99.78681
126.9062, 95.16438
127.3883, 91.69896
127.8704, 89.45390
128.3525, 88.11063
128.8347, 87.39455
129.3168, 87.28154
129.7989, 87.36678
130.2810, 87.36868
130.7631, 87.30575
131.2452, 87.26219
131.7274, 87.29691
132.2095, 87.34800
132.6916, 87.18838
133.1737, 86.78380
133.6558, 86.40682
134.1379, 86.38384
134.6201, 86.70914
135.1022, 86.96399
135.5843, 87.02258
136.0664, 86.90323
136.5485, 86.68096
137.0306, 86.28575
137.5128, 85.95423
137.9949, 86.04697
138.4770, 86.66917
138.9591, 87.19437
139.4412, 87.37414
139.9233, 87.17094
140.4055, 87.08504
140.8876, 87.08543
141.3697, 87.23474
141.8518, 87.58176
142.3339, 87.99586
142.8160, 88.89121
143.2982, 90.53329
143.7803, 93.21768
144.2624, 95.62320
144.7445, 97.48732
145.2266, 99.16020
145.7087, 101.4049
146.1909, 104.8225
146.6730, 108.0951
147.1551, 110.7209
147.6372, 112.2886
148.1193, 113.8597
148.6014, 115.4089
149.0836, 116.9573
149.5657, 118.6419
150.0478, 120.3277
150.5299, 122.2192
151.0120, 124.4238
151.4941, 126.9888
151.9763, 129.7767
152.4584, 132.7282
152.9405, 135.8799
153.4226, 139.4682
153.9047, 143.4529
154.3868, 147.9145
154.8690, 152.8962
155.3511, 158.1396
155.8332, 164.1777
156.3153, 170.8410
156.7974, 178.2133
157.2795, 186.9631
157.7617, 197.1695
158.2438, 208.8397
158.7259, 221.9796
159.2080, 237.0528
159.6901, 253.1601
160.1722, 270.0536
160.6544, 287.7379
161.1365, 306.3541
161.6186, 327.2419
162.1007, 348.4240
162.5828, 368.5859
163.0649, 392.6044
163.5471, 410.8401
164.0292, 420.5732
164.5113, 421.6769
164.9934, 410.4410
165.4755, 379.1056
165.9576, 335.7008
166.4398, 290.6709
166.9219, 241.9615
167.4040, 196.5914
167.8861, 159.7236
168.3682, 131.5132
168.8503, 109.3184
169.3325, 92.99844
169.8146, 81.35985
170.2967, 72.66723
170.7788, 67.22607
171.2609, 63.64132
171.7430, 60.81975
172.2252, 58.67271
172.7073, 57.24125
173.1894, 56.81767
173.6715, 57.15356
174.1536, 57.69208
174.6357, 58.06512
175.1179, 58.53422
175.6000, 59.44093
176.0821, 60.82965
176.5642, 62.51036
177.0463, 64.33327
177.5284, 66.31076
178.0106, 68.44678
178.4927, 70.84113
178.9748, 73.38479
179.4569, 75.82051
179.9390, 78.12321
180.4211, 80.41132
180.9033, 82.85925
181.3854, 85.46000
181.8675, 88.10429
182.3496, 90.65428
182.8317, 93.20436
183.3138, 96.16432
183.7960, 99.61034
184.2781, 103.2982
184.7602, 106.7460
185.2423, 110.0287
185.7244, 113.4950
186.2065, 117.4163
186.6887, 121.7274
187.1708, 126.2196
187.6529, 130.8164
188.1350, 135.6748
188.6171, 140.8940
189.0992, 146.5216
189.5814, 152.6388
190.0635, 159.2829
190.5456, 166.5363
191.0277, 174.2176
191.5098, 182.2409
191.9919, 190.8596
192.4741, 200.5249
192.9562, 211.2165
193.4383, 222.4620
193.9204, 234.0907
194.4025, 246.0589
194.8846, 257.7361
195.3668, 269.2690
195.8489, 280.2242
196.3310, 289.9679
196.8131, 298.6495
197.2952, 304.9438
197.7773, 307.4905
198.2595, 306.1840
198.7416, 303.9495
199.2237, 300.7028
199.7058, 297.1033
200.1879, 294.8424
200.6700, 293.8639
201.1522, 294.4084
201.6343, 296.6465
202.1164, 300.5975
202.5985, 306.1129
203.0806, 313.1706
203.5627, 321.7270
204.0449, 331.6613
204.5270, 343.0733
205.0091, 355.5304
205.4912, 368.6078
205.9733, 382.1565
206.4554, 397.3004
206.9376, 414.5452
207.4197, 433.3200
207.9018, 452.0343
208.3839, 470.4708
208.8660, 489.4904
209.3481, 509.6651
209.8303, 531.4279
210.3124, 552.9182
210.7945, 574.0806
211.2766, 594.7360
211.7587, 615.1150
212.2408, 635.6702
212.7230, 655.0994
213.2051, 672.8223
213.6872, 688.8619
214.1693, 703.1643
214.6514, 715.6580
215.1335, 726.3664
215.6157, 734.8027
216.0978, 740.7518
216.5799, 744.9099
217.0620, 747.5471
217.5441, 748.1550
218.0262, 748.6666
218.5084, 749.1842
218.9905, 749.7481
219.4726, 750.6215
219.9547, 752.1526
220.4368, 753.4436
220.9189, 753.9479
221.4011, 753.6458
221.8832, 752.7242
222.3653, 751.5046
222.8474, 749.7116
223.3295, 745.9988
223.8116, 740.4572
224.2938, 733.0298
224.7759, 723.5607
225.2580, 711.7454
225.7401, 698.7281
226.2222, 684.1763
226.7043, 668.4750
227.1865, 652.4944
227.6686, 636.4681
228.1507, 620.2775
228.6328, 603.9656
229.1149, 587.3157
229.5970, 571.1527
230.0792, 555.7357
230.5613, 540.8567
231.0434, 526.2400
231.5255, 512.1895
232.0076, 498.2440
232.4897, 484.4016
232.9719, 471.0013
233.4540, 456.9804
233.9361, 441.8796
234.4182, 426.0897
234.9003, 410.7345
235.3824, 395.8717
235.8646, 381.3524
236.3467, 367.0416
236.8288, 352.6365
237.3109, 339.0863
237.7930, 326.4512
238.2751, 314.6249
238.7573, 303.6877
239.2394, 293.7074
239.7215, 284.4923
240.2036, 275.8985
240.6857, 267.9944
241.1678, 260.5729
241.6500, 253.7557
242.1321, 247.4134
242.6142, 241.0979
243.0963, 234.8110
243.5784, 228.5940
244.0605, 222.5184
244.5427, 216.5299
245.0248, 210.7380
245.5069, 205.1638
245.9890, 199.7601
246.4711, 194.5582
246.9532, 189.7317
247.4354, 184.7459
247.9175, 179.4045
248.3996, 173.5130
248.8817, 167.8028
249.3638, 162.2646
249.8459, 156.9156
250.3281, 151.7939
250.8102, 146.9202
251.2923, 142.2243
251.7744, 137.6186
252.2565, 133.1159
252.7386, 128.8212
253.2208, 124.6849
253.7029, 120.7962
254.1850, 117.2575
254.6671, 114.2119
255.1492, 111.2175
255.6313, 108.1334
256.1135, 104.9298
256.5956, 101.8834
257.0777, 98.98515
257.5598, 96.28593
258.0419, 93.91950
258.5240, 92.09510
259.0062, 90.17252
259.4883, 87.87936
259.9704, 85.20904
260.4525, 82.89000
260.9346, 81.04403
261.4167, 79.43254
261.8989, 77.78720
262.3810, 76.08457
262.8631, 74.45418
263.3452, 72.95967
263.8273, 71.58275
264.3094, 70.19651
264.7916, 68.74264
265.2737, 67.34039
265.7558, 66.10857
266.2379, 65.11826
266.7200, 64.08847
267.2021, 62.92356
267.6843, 61.65168
268.1664, 60.48785
268.6485, 59.41549
269.1306, 58.48725
269.6127, 57.82696
270.0948, 57.53189
270.5770, 57.05819
271.0591, 56.25460
271.5412, 55.21228
272.0233, 54.36175
272.5054, 53.76426
272.9875, 53.22691
273.4697, 52.60867
273.9518, 51.88487
274.4339, 51.20465
274.9160, 50.58784
275.3981, 50.02691
275.8802, 49.46916
276.3624, 48.90398
276.8445, 48.41953
277.3266, 48.13076
277.8087, 48.06050
278.2908, 47.83103
278.7729, 47.36956
279.2551, 46.78365
279.7372, 46.30654
280.2193, 45.93740
280.7014, 45.67756
281.1835, 45.58795
281.6656, 45.66429
282.1478, 45.59126
282.6299, 45.32649
283.1120, 44.96851
283.5941, 44.66643
284.0762, 44.41982
284.5583, 44.21917
285.0405, 44.03975
285.5226, 43.89001
286.0047, 43.87019
286.4868, 44.00418
286.9689, 44.19008
287.4510, 44.29237
287.9332, 44.31421
288.4153, 44.32386
288.8974, 44.34808
289.3795, 44.38088
289.8616, 44.39785
290.3438, 44.39754
290.8259, 44.39053
291.3080, 44.34858
291.7901, 44.29151
292.2722, 44.34789
292.7543, 44.63928
293.2365, 45.03408
293.7186, 45.18064
294.2007, 45.07396
294.6828, 44.94764
295.1649, 44.91156
295.6470, 45.00776
296.1292, 45.41285
296.6113, 46.31441
297.0934, 47.38390
297.5755, 48.05008
298.0576, 48.35152
298.5397, 48.66626
299.0219, 49.28138
299.5040, 50.11890
299.9861, 50.98838
300.4682, 51.82085
300.9503, 52.73843
301.4324, 53.96505
301.9146, 55.43397
302.3967, 56.91735
302.8788, 58.26337
303.3609, 59.53053
303.8430, 60.80819
304.3251, 62.14214
304.8073, 63.35754
305.2894, 64.33803
305.7715, 65.08067
306.2536, 65.60636
306.7357, 66.08925
307.2178, 66.26540
307.7000, 65.80589
308.1821, 64.65527
308.6642, 63.15534
309.1463, 61.37711
309.6284, 59.44964
310.1105, 57.54729
310.5927, 55.72088
311.0748, 53.99124
311.5569, 52.22937
312.0390, 50.44600
312.5211, 49.10404
313.0032, 49.02066
313.4854, 49.29034
313.9675, 48.95179
314.4496, 47.16851
314.9317, 45.17652
315.4138, 43.39289
315.8959, 41.84339
316.3781, 40.61618
316.8602, 39.92084
317.3423, 39.47734
317.8244, 39.08183
318.3065, 38.61885
318.7886, 38.29987
319.2708, 38.34041
319.7529, 38.60067
320.2350, 38.68743
320.7171, 38.23216
321.1992, 37.76289
321.6813, 37.55559
322.1635, 37.75653
322.6456, 37.96400
323.1277, 38.07010
323.6098, 38.13967
324.0919, 38.28199
324.5740, 38.60321
325.0562, 38.91584
325.5383, 39.15392
326.0204, 39.29128
326.5025, 39.44919
326.9846, 39.53048
327.4667, 39.67894
327.9489, 40.05000
328.4310, 40.90130
328.9131, 41.68943
329.3952, 42.33502
329.8773, 42.83625
330.3594, 43.28070
330.8416, 43.47654
331.3237, 43.77279
331.8058, 44.42158
332.2879, 45.56831
332.7700, 46.83022
333.2521, 48.18896
333.7343, 49.64821
334.2164, 51.26316
334.6985, 53.15513
335.1806, 54.98492
335.6627, 56.64290
336.1448, 58.25883
336.6270, 59.26575
337.1091, 59.64738
337.5912, 59.40414
338.0733, 58.45322
338.5554, 56.68068
339.0375, 54.59547
339.5197, 52.24574
340.0018, 49.61255
340.4839, 47.45866
340.9660, 45.89032
341.4481, 44.65585
341.9302, 43.47090
342.4124, 42.31432
342.8945, 41.36700
343.3766, 40.71796
343.8587, 40.31604
344.3408, 39.89592
344.8229, 39.45143
345.3051, 39.04591
345.7872, 38.79126
346.2693, 38.65549
346.7514, 38.38306
347.2335, 37.84439
347.7156, 37.24709
348.1978, 37.06467
348.6799, 37.26818
349.1620, 37.49115
349.6441, 37.50394
350.1262, 37.35390
350.6083, 37.11995
351.0905, 36.77935
351.5726, 36.46893
352.0547, 36.36114
352.5368, 36.41682
353.0189, 36.51742
353.5010, 36.56849
353.9832, 36.64785
354.4653, 36.87183
354.9474, 37.25116
355.4295, 37.66076
355.9116, 37.88339
356.3937, 38.09934
356.8759, 38.57409
357.3580, 39.54163
357.8401, 40.68916
358.3222, 41.84603
358.8043, 43.01790
359.2864, 44.17491
359.7686, 45.17443
360.2507, 46.22630
360.7328, 47.48719
361.2149, 48.97262
361.6970, 50.71875
362.1791, 52.77922
362.6613, 55.11174
363.1434, 57.61941
363.6255, 60.43181
364.1076, 63.28289
364.5897, 66.02891
365.0718, 68.50883
365.5540, 71.19984
366.0361, 74.12758
366.5182, 77.32567
367.0003, 80.83461
367.4824, 84.34319
367.9645, 88.48759
368.4467, 93.42620
368.9288, 99.08875
369.4109, 105.4619
369.8930, 112.4124
370.3751, 120.1788
370.8572, 128.9189
371.3394, 138.1858
371.8215, 149.0413
372.3036, 161.8913
372.7857, 176.3885
373.2678, 191.9730
373.7499, 210.9022
374.2321, 227.1731
374.7142, 237.8142
375.1963, 242.3003
375.6784, 242.9238
376.1605, 237.6875
376.6426, 231.1318
377.1248, 230.1477
377.6069, 234.9997
378.0890, 243.8664
378.5711, 258.3530
379.0532, 277.0352
379.5353, 290.0916
380.0175, 298.3892
380.4996, 297.1817
380.9817, 278.4700
381.4638, 244.2356
381.9459, 209.2370
382.4280, 175.3707
382.9102, 144.2250
383.3923, 119.9602
383.8744, 102.1217
384.3565, 88.16709
384.8386, 77.38116
385.3207, 69.18040
385.8029, 63.01729
386.2850, 58.94023
386.7671, 56.00089
387.2492, 53.44521
387.7313, 51.25769
388.2134, 49.45708
388.6956, 48.18419
389.1777, 47.23513
389.6598, 46.44544
390.1419, 45.81634
390.6240, 45.34536
391.1061, 45.04112
391.5883, 44.88599
392.0704, 44.86385
392.5525, 45.01336
393.0346, 45.23611
393.5167, 45.51625
393.9988, 45.84003
394.4810, 46.17111
394.9631, 46.33386
395.4452, 46.62749
395.9273, 47.23181
396.4094, 48.25397
396.8915, 49.30927
397.3737, 50.30047
397.8558, 51.29588
398.3379, 52.37958
398.8200, 53.31096
399.3021, 54.59688
399.7842, 56.38215
400.2664, 58.66339
400.7485, 61.11537
401.2306, 63.78455
401.7127, 66.54643
402.1948, 69.31432
402.6769, 72.05771
403.1591, 74.85630
403.6412, 77.65894
404.1233, 80.53649
404.6054, 83.78905
405.0875, 87.48210
405.5696, 91.25668
406.0518, 94.89034
406.5339, 98.36783
407.0160, 102.2697
407.4981, 106.5677
407.9802, 111.2615
408.4623, 116.1889
408.9445, 121.3879
409.4266, 127.4553
409.9087, 134.5056
410.3908, 142.5338
410.8729, 151.5273
411.3550, 161.5264
411.8372, 172.2794
412.3193, 183.5922
412.8014, 195.6332
413.2835, 208.8532
413.7656, 223.4035
414.2477, 239.1227
414.7299, 256.2606
415.2120, 274.4265
415.6941, 292.1933
416.1762, 310.2408
416.6583, 326.9403
417.1404, 341.8347
417.6226, 354.8791
418.1047, 363.0907
418.5868, 365.0839
419.0689, 361.3608
419.5510, 352.2301
420.0331, 335.7242
420.5153, 316.5737
420.9974, 294.7733
421.4795, 271.6250
421.9616, 251.3149
422.4437, 234.5843
422.9258, 220.9269
423.4080, 210.3907
423.8901, 203.2919
424.3722, 197.7407
424.8543, 193.9594
425.3364, 191.4975
425.8185, 189.9248
426.3007, 188.9883
426.7828, 189.3065
427.2649, 191.1177
427.7470, 194.2897
428.2291, 197.9742
428.7112, 201.7186
429.1934, 206.7261
429.6755, 213.7122
430.1576, 222.6893
430.6397, 233.2121
431.1218, 244.7778
431.6039, 258.5995
432.0861, 276.6149
432.5682, 298.8692
433.0503, 325.2083
433.5324, 355.6844
434.0145, 390.3466
434.4966, 429.2392
434.9788, 472.3497
435.4609, 519.9160
435.9430, 572.1141
436.4251, 629.5140
436.9072, 693.7806
437.3893, 766.8813
437.8715, 843.7637
438.3536, 932.9606
438.8357, 1023.387
439.3178, 1084.098
439.7999, 1106.473
440.2820, 1087.169
440.7642, 1010.679
441.2463, 875.5521
441.7284, 735.2134
442.2105, 601.3680
442.6926, 483.4051
443.1747, 390.5465
443.6569, 332.4865
444.1390, 291.0238
444.6211, 265.1664
445.1032, 252.3554
445.5853, 246.0464
446.0674, 247.5719
446.5496, 252.9568
447.0317, 261.1119
447.5138, 272.6133
447.9959, 285.0203
448.4780, 298.1956
448.9601, 312.4488
449.4423, 328.2700
449.9244, 345.3697
450.4065, 364.2980
450.8886, 385.1781
451.3707, 407.8696
451.8528, 432.3556
452.3350, 458.4753
452.8171, 487.4181
453.2992, 519.7605
453.7813, 555.6451
454.2634, 596.5035
454.7455, 642.3795
455.2277, 694.2816
455.7098, 753.9516
456.1919, 820.9883
456.6740, 897.0422
457.1561, 981.3396
457.6382, 1074.305
458.1204, 1175.092
458.6025, 1284.206
459.0846, 1398.391
459.5667, 1521.401
460.0488, 1647.271
460.5309, 1773.303
461.0131, 1902.638
461.4952, 2013.626
461.9773, 2102.322
462.4594, 2159.015
462.9415, 2170.199
463.4236, 2122.105
463.9058, 2035.018
464.3879, 1903.458
464.8700, 1733.461
465.3521, 1563.940
465.8342, 1390.950
466.3163, 1229.196
466.7985, 1086.358
467.2806, 966.1483
467.7627, 860.2219
468.2448, 771.4864
468.7269, 696.4667
469.2090, 629.4407
469.6912, 570.5128
470.1733, 518.2523
470.6554, 472.7531
471.1375, 433.7912
471.6196, 399.3400
472.1017, 369.4710
472.5839, 343.8242
473.0660, 321.9702
473.5481, 304.0306
474.0302, 288.5062
474.5123, 275.4127
474.9944, 264.3601
475.4766, 254.8033
475.9587, 246.7742
476.4408, 240.4886
476.9229, 236.6518
477.4050, 234.3042
477.8871, 232.1177
478.3693, 230.0845
478.8514, 228.1179
479.3335, 226.6538
479.8156, 225.0012
480.2977, 222.5422
480.7798, 219.4285
481.2620, 214.6495
481.7441, 206.7210
482.2262, 196.9483
482.7083, 187.2588
483.1904, 178.1672
483.6725, 169.3366
484.1547, 160.4690
484.6368, 151.6682
485.1189, 143.8461
485.6010, 137.4751
486.0831, 131.8470
486.5652, 126.6473
487.0474, 121.8324
487.5295, 117.4862
488.0116, 113.8221
488.4937, 110.5188
488.9758, 107.0451
489.4579, 103.2252
489.9401, 99.74471
490.4222, 96.73009
490.9043, 94.17558
491.3864, 92.01280
491.8685, 90.28064
492.3506, 88.61830
492.8328, 86.74634
493.3149, 84.72995
493.7970, 82.82629
494.2791, 81.05481
494.7612, 79.37198
495.2433, 77.68178
495.7255, 76.02061
496.2076, 74.46407
496.6897, 73.08486
497.1718, 71.77833
497.6539, 70.48472
498.1360, 69.20548
498.6182, 67.91404
499.1003, 66.42645
499.5824, 65.04707
500.0645, 64.09730
500.5466, 63.71354
501.0287, 63.20903
501.5109, 62.27048
501.9930, 61.16271
502.4751, 60.16139
502.9572, 59.34967
503.4393, 58.58931
503.9214, 57.88789
504.4036, 57.23494
504.8857, 56.56093
505.3678, 55.78781
505.8499, 55.11738
506.3320, 54.64158
506.8141, 54.37065
507.2963, 54.13750
507.7784, 53.92199
508.2605, 53.79296
508.7426, 53.96883
509.2247, 54.40558
509.7068, 54.37231
510.1890, 53.61047
510.6711, 52.55350
511.1532, 51.87851
511.6353, 51.54676
512.1174, 51.38430
512.5995, 51.37870
513.0817, 51.44605
513.5638, 51.51643
514.0459, 51.58353
514.5280, 51.58019
515.0101, 51.36306
515.4922, 51.10741
515.9744, 50.98367
516.4565, 51.07195
516.9386, 51.20441
517.4207, 51.39633
517.9028, 51.58485
518.3849, 51.66658
518.8671, 51.52855
519.3492, 51.38403
519.8313, 51.25118
520.3134, 51.13620
520.7955, 51.13721
521.2776, 51.35799
521.7598, 51.54053
522.2419, 51.47934
522.7240, 51.07366
523.2061, 50.99709
523.6882, 51.34908
524.1703, 51.84011
524.6525, 52.02853
525.1346, 51.94328
525.6167, 52.05582
526.0988, 52.57169
526.5809, 53.26390
527.0630, 53.71992
527.5452, 53.96887
528.0273, 54.18740
528.5094, 54.44573
528.9915, 54.75151
529.4736, 55.11304
529.9557, 55.53226
530.4379, 56.01597
530.9200, 56.59705
531.4021, 57.23590
531.8842, 57.89541
532.3663, 58.55492
532.8484, 59.24794
533.3306, 59.93992
533.8127, 60.67187
534.2948, 61.51382
534.7769, 62.50047
535.2590, 63.57653
535.7411, 64.72860
536.2233, 65.95226
536.7054, 67.34830
537.1875, 69.11354
537.6696, 70.65025
538.1517, 71.56810
538.6339, 71.83402
539.1160, 71.89418
539.5981, 71.83766
540.0802, 71.38259
540.5623, 70.01978
541.0444, 67.85924
541.5266, 65.49132
542.0087, 63.05622
542.4908, 60.55757
542.9729, 57.92556
543.4550, 55.24754
543.9371, 52.78599
544.4193, 50.59676
544.9014, 48.72643
545.3835, 47.24356
545.8656, 46.16227
546.3477, 45.28478
546.8298, 44.56727
547.3120, 43.98620
547.7941, 43.52611
548.2762, 43.16996
548.7583, 42.94821
549.2404, 42.85379
549.7225, 42.89521
550.2047, 43.10539
550.6868, 43.56733
551.1689, 44.03271
551.6510, 44.39571
552.1331, 44.70058
552.6152, 45.24585
553.0974, 46.05701
553.5795, 46.98402
554.0616, 47.94960
554.5437, 48.95266
555.0258, 50.00134
555.5079, 51.11037
555.9901, 52.19657
556.4722, 52.98197
556.9543, 53.71083
557.4364, 54.90980
557.9185, 56.85789
558.4006, 59.12181
558.8828, 61.34994
559.3649, 63.63637
559.8470, 66.24902
560.3291, 69.37370
560.8112, 72.77126
561.2933, 76.31608
561.7755, 80.00069
562.2576, 84.10351
562.7397, 88.86265
563.2218, 93.84127
563.7039, 98.87830
564.1860, 104.0488
564.6682, 109.2495
565.1503, 115.0151
565.6324, 120.2134
566.1145, 123.5948
566.5966, 125.2561
567.0787, 124.3608
567.5609, 120.4932
568.0430, 114.2942
568.5251, 106.7221
569.0072, 97.85748
569.4893, 88.90389
569.9714, 79.82646
570.4536, 71.26393
570.9357, 64.14134
571.4178, 58.46376
571.8999, 53.60495
572.3820, 49.35548
572.8641, 45.69481
573.3463, 42.69267
573.8284, 40.39718
574.3105, 38.56147
574.7926, 37.36364
575.2747, 36.49061
575.7568, 35.55317
576.2390, 34.32928
576.7211, 33.27732
577.2032, 32.48566
577.6853, 31.89599
578.1674, 31.33958
578.6495, 30.81658
579.1317, 30.32645
579.6138, 29.86166
580.0959, 29.42698
580.5780, 29.05585
581.0601, 28.74378
581.5422, 28.51253
582.0244, 28.45855
582.5065, 28.49241
582.9886, 28.37384
583.4707, 28.04814
583.9528, 27.68682
584.4349, 27.37221
584.9171, 27.13861
585.3992, 27.03976
585.8813, 27.29284
586.3634, 27.46874
586.8455, 27.32494
587.3276, 26.96226
587.8098, 26.65982
588.2919, 26.46406
588.7740, 26.34526
589.2561, 26.32865
589.7382, 26.41743
590.2203, 26.40137
590.7025, 26.24145
591.1846, 26.04730
591.6667, 25.87818
592.1488, 25.73236
592.6309, 25.64951
593.1130, 25.64903
593.5952, 25.64332
594.0773, 25.45581
594.5594, 25.15642
595.0415, 25.04663
595.5236, 25.29128
596.0057, 25.58180
596.4879, 25.54528
596.9700, 25.28565
597.4521, 25.04568
597.9342, 24.93499
598.4163, 24.87680
598.8984, 24.86253
599.3806, 24.87985
599.8627, 24.83508
600.3448, 24.62885
600.8269, 24.42211
601.3090, 24.29587
601.7911, 24.27884
602.2733, 24.21964
602.7554, 24.07452
603.2375, 23.94861
603.7196, 23.98044
604.2017, 24.19785
604.6838, 24.26632
605.1660, 24.10787
605.6481, 23.87738
606.1302, 23.82946
606.6123, 23.93442
607.0944, 24.05542
607.5765, 24.15295
608.0587, 24.23072
608.5408, 24.31513
609.0229, 24.38929
609.5050, 24.39609
609.9871, 24.24655
610.4692, 24.06729
610.9514, 23.91043
611.4335, 23.77584
611.9156, 23.73373
612.3977, 23.90052
612.8798, 24.08617
613.3619, 24.17634
613.8441, 24.12787
614.3262, 24.08822
614.8083, 24.05917
615.2904, 24.03656
615.7725, 23.99789
616.2546, 23.93783
616.7368, 23.97196
617.2189, 24.15646
617.7010, 24.38845
618.1831, 24.46405
618.6652, 24.41737
619.1473, 24.38445
619.6295, 24.46821
620.1116, 24.57251
620.5937, 24.61877
621.0758, 24.60502
621.5579, 24.52199
622.0400, 24.25644
622.5222, 24.00749
623.0043, 23.90904
623.4864, 24.00559
623.9685, 24.06408
624.4506, 23.99855
624.9327, 23.94025
625.4149, 23.98470
625.8970, 24.18030
626.3791, 24.33841
626.8612, 24.46583
627.3433, 24.53237
627.8254, 24.42410
628.3076, 24.15629
628.7897, 24.08081
629.2718, 24.35150
629.7539, 24.74880
630.2360, 24.93378
630.7181, 24.95041
631.2003, 24.93397
631.6824, 24.90081
632.1645, 24.90210
632.6466, 24.98032
633.1287, 25.13154
633.6108, 25.32068
634.0930, 25.59098
634.5751, 25.85203
635.0572, 26.02404
635.5393, 26.05798
636.0214, 26.26398
636.5035, 26.74484
636.9857, 27.27370
637.4678, 27.66111
637.9499, 27.87709
638.4320, 28.15769
638.9141, 28.51755
639.3962, 28.93420
639.8784, 29.36844
640.3605, 29.82762
640.8426, 30.36682
641.3247, 31.01206
641.8068, 31.71322
642.2889, 32.46555
642.7711, 33.23366
643.2532, 33.95673
643.7353, 34.47734
644.2174, 35.05994
644.6995, 35.85825
645.1816, 36.84528
645.6638, 37.83669
646.1459, 38.79316
646.6280, 39.75904
647.1101, 40.74920
647.5922, 41.75265
648.0743, 42.84356
648.5565, 44.04371
649.0386, 45.25525
649.5207, 46.40974
650.0028, 47.49873
650.4849, 48.44663
650.9670, 49.23647
651.4492, 49.90386
651.9313, 50.58351
652.4134, 51.14072
652.8955, 51.31422
653.3776, 51.02126
653.8597, 50.38623
654.3419, 49.38091
654.8240, 48.10937
655.3061, 46.74639
655.7882, 45.29997
656.2703, 43.80940
656.7524, 42.21608
657.2346, 40.58464
657.7167, 39.10742
658.1988, 37.81223
658.6809, 36.60882
659.1630, 35.46675
659.6451, 34.39074
660.1273, 33.42539
660.6094, 32.56187
661.0915, 31.75130
661.5736, 30.93759
662.0557, 30.14779
662.5378, 29.41906
663.0200, 28.75375
663.5021, 28.19841
663.9842, 27.82267
664.4663, 27.55039
664.9484, 27.33904
665.4305, 27.23514
665.9127, 27.02612
666.3948, 26.51669
666.8769, 25.95547
667.3590, 25.59828
667.8411, 25.56826
668.3232, 25.49672
668.8054, 25.36082
669.2875, 25.16906
669.7696, 24.91724
670.2517, 24.60367
670.7338, 24.30707
671.2159, 24.02940
671.6981, 23.81331
672.1802, 23.77404
672.6623, 23.87273
673.1444, 23.96884
673.6265, 23.98860
674.1086, 23.97821
674.5908, 23.95557
675.0729, 23.92702
675.5550, 23.92441
676.0371, 24.00350
676.5192, 24.06948
677.0013, 24.07495
677.4835, 24.01357
677.9656, 23.95868
678.4477, 23.89597
678.9298, 23.86485
679.4119, 23.88570
679.8940, 23.95911
680.3762, 24.12672
680.8583, 24.40751
681.3404, 24.68116
681.8225, 24.79428
682.3046, 24.81480
682.7867, 24.89288
683.2689, 25.07235
683.7510, 25.26574
684.2331, 25.34435
684.7152, 25.41957
685.1973, 25.63151
685.6794, 26.18082
686.1616, 26.67784
686.6437, 27.02485
687.1258, 27.28629
687.6079, 27.55855
688.0900, 27.81837
688.5721, 28.14204
689.0543, 28.55369
689.5364, 29.03229
690.0185, 29.51043
690.5006, 29.98899
690.9827, 30.54515
691.4648, 31.34684
691.9470, 32.18833
692.4291, 32.71784
692.9112, 32.98539
693.3933, 33.26788
693.8754, 33.70409
694.3575, 34.22257
694.8397, 34.82553
695.3218, 35.52890
695.8039, 36.09514
696.2860, 36.41456
696.7681, 36.66885
697.2502, 36.91433
697.7324, 37.10289
698.2145, 37.55704
698.6966, 38.34461
699.1787, 39.20752
699.6608, 39.83971
700.1429, 40.30682
700.6251, 41.00564
701.1072, 42.02526
701.5893, 43.06010
702.0714, 43.98577
702.5535, 44.67612
703.0356, 44.93341
703.5178, 44.58482
703.9999, 43.99210
704.4820, 43.19983
704.9641, 42.27430
705.4462, 41.30495
705.9283, 40.32903
706.4105, 39.25288
706.8926, 37.99095
707.3747, 36.66338
707.8568, 35.53460
708.3389, 34.60236
708.8210, 33.82381
709.3032, 33.17290
709.7853, 32.67688
710.2674, 32.39970
710.7495, 32.33186
711.2316, 32.44391
711.7137, 32.86381
712.1959, 33.33686
712.6780, 33.58282
713.1601, 33.66069
713.6422, 34.00800
714.1243, 34.98112
714.6064, 36.03335
715.0886, 36.96564
715.5707, 37.78377
716.0528, 38.50647
716.5349, 39.13921
717.0170, 39.67781
717.4991, 40.21635
717.9813, 40.70187
718.4634, 40.69960
718.9455, 40.18752
719.4276, 39.43056
719.9097, 38.47320
720.3918, 37.48621
720.8740, 36.74063
721.3561, 36.30024
721.8382, 35.90044
722.3203, 35.29168
722.8024, 34.73434
723.2845, 34.45872
723.7667, 34.65261
724.2488, 34.82981
724.7309, 34.95614
725.2130, 35.10411
725.6951, 35.37502
726.1772, 35.77656
726.6594, 36.17519
727.1415, 36.55686
727.6236, 36.89278
728.1057, 37.20089
728.5878, 37.43222
729.0699, 37.46291
729.5521, 37.23114
730.0342, 36.82148
730.5163, 36.19659
730.9984, 35.45032
731.4805, 34.74986
731.9626, 34.27912
732.4448, 33.68080
732.9269, 32.84847
733.4090, 31.85821
733.8911, 30.90873
734.3732, 29.98198
734.8553, 29.20966
735.3375, 28.66032
735.8196, 28.27254
736.3017, 27.89461
736.7838, 27.53259
737.2659, 27.22342
737.7480, 27.01994
738.2302, 26.85452
738.7123, 26.61069
739.1944, 26.32714
739.6765, 26.19528
740.1586, 26.47578
740.6407, 26.74302
741.1229, 26.76161
741.6050, 26.54693
742.0871, 26.48373
742.5692, 26.61870
743.0513, 26.79382
743.5334, 26.91738
744.0156, 27.00353
744.4977, 27.17464
744.9798, 27.43122
745.4619, 27.70896
745.9440, 27.96974
746.4261, 28.21345
746.9083, 28.44825
747.3904, 28.67495
747.8725, 28.86602
748.3546, 29.01894
748.8367, 29.12135
749.3188, 29.17907
749.8010, 29.22742
750.2831, 29.08681
750.7652, 28.70053
751.2473, 28.21059
751.7294, 27.71152
752.2115, 27.20736
752.6937, 26.66178
753.1758, 26.05519
753.6579, 25.51559
754.1400, 25.20196
754.6221, 25.03428
755.1042, 24.89019
755.5864, 24.75900
756.0685, 24.60492
756.5506, 24.41001
757.0327, 24.18293
757.5148, 23.93645
757.9969, 23.59214
758.4791, 23.35131
758.9612, 23.25239
759.4433, 23.21399
759.9254, 23.14109
760.4075, 23.03111
760.8896, 22.92108
761.3718, 22.80896
761.8539, 22.72201
762.3360, 22.75345
762.8181, 22.82983
763.3002, 22.77631
763.7823, 22.41525
764.2645, 22.14399
764.7466, 22.24757
765.2287, 22.55871
765.7108, 22.82874
766.1929, 23.03363
766.6750, 23.17562
767.1572, 23.26390
767.6393, 23.28301
768.1214, 23.14513
768.6035, 22.82904
769.0856, 22.70227
769.5677, 22.91925
770.0499, 23.24964
770.5320, 23.33553
771.0141, 23.24552
771.4962, 23.15542
771.9783, 23.13528
772.4604, 23.13942
772.9426, 23.14120
773.4247, 23.14990
773.9068, 23.18953
774.3889, 23.31277
774.8710, 23.39219
775.3531, 23.38589
775.8353, 23.33102
776.3174, 23.33165
776.7995, 23.38901
777.2816, 23.48465
777.7637, 23.65116
778.2458, 23.80912
778.7280, 23.76930
779.2101, 23.59803
779.6922, 23.50771
780.1743, 23.74184
780.6564, 23.94440
781.1385, 23.87696
781.6207, 23.60830
782.1028, 23.45740
782.5849, 23.51186
783.0670, 23.57602
783.5491, 23.60629
784.0313, 23.60567
784.5134, 23.58202
784.9955, 23.53458
785.4776, 23.48522
785.9597, 23.44818
786.4418, 23.41155
786.9240, 23.34052
787.4061, 23.24971
787.8882, 23.19429
788.3703, 23.16655
788.8524, 23.21637
789.3345, 23.44442
789.8167, 23.81006
790.2988, 23.98508
790.7809, 23.86158
791.2630, 23.74194
791.7451, 23.73763
792.2272, 23.81667
792.7094, 23.83572
793.1915, 23.79647
793.6736, 23.74238
794.1557, 23.71101
794.6378, 23.67107
795.1199, 23.50996
795.6021, 23.28229
796.0842, 23.22656
796.5663, 23.74006
797.0484, 24.16720
797.5305, 24.10237
798.0126, 23.62101
798.4948, 23.39599
798.9769, 23.48694
799.4590, 23.70308
799.9411, 24.02463
800.4232, 24.39475
800.9053, 24.54988
801.3875, 24.50678
801.8696, 24.43147
802.3517, 24.43330
802.8338, 24.44381
803.3159, 24.39482
803.7980, 24.29149
804.2802, 24.17519
804.7623, 23.98359
805.2444, 23.86360
805.7265, 23.90691
806.2086, 24.08464
806.6907, 24.12593
807.1729, 23.99508
807.6550, 23.88036
808.1371, 23.89295
808.6192, 23.97631
809.1013, 23.94613
809.5834, 23.83083
810.0656, 23.79220
810.5477, 24.05868
811.0298, 24.32198
811.5119, 24.31543
811.9940, 24.07827
812.4761, 23.96622
812.9583, 24.16059
813.4404, 24.32398
813.9225, 24.33881
814.4046, 24.23610
814.8867, 24.20774
815.3688, 24.25730
815.8510, 24.31336
816.3331, 24.31500
816.8152, 24.31406
817.2973, 24.43430
817.7794, 24.63895
818.2615, 24.78023
818.7437, 24.70205
819.2258, 24.62127
819.7079, 24.62880
820.1900, 24.72556
820.6721, 24.88757
821.1542, 25.21746
821.6364, 25.37605
822.1185, 25.17580
822.6006, 24.76111
823.0827, 24.60489
823.5648, 24.68645
824.0469, 24.82535
824.5291, 24.96622
825.0112, 25.09170
825.4933, 25.17833
825.9754, 25.23626
826.4575, 25.29849
826.9396, 25.39869
827.4218, 25.47650
827.9039, 25.49752
828.3860, 25.48741
828.8681, 25.53824
829.3502, 25.66198
829.8323, 25.77573
830.3145, 25.83784
830.7966, 25.89051
831.2787, 26.04107
831.7608, 26.25505
832.2429, 26.42112
832.7250, 26.43505
833.2072, 26.44286
833.6893, 26.55603
834.1714, 26.72175
834.6535, 26.79217
835.1356, 26.69251
835.6177, 26.62442
836.0999, 26.63735
836.5820, 26.68800
837.0641, 26.66480
837.5462, 26.57641
838.0283, 26.52274
838.5104, 26.54237
838.9926, 26.59733
839.4747, 26.65833
839.9568, 26.72188
840.4389, 26.78282
840.9210, 26.89569
841.4031, 26.93433
841.8853, 26.81411
842.3674, 26.63247
842.8495, 26.50316
843.3316, 26.40696
843.8137, 26.49050
844.2958, 26.83187
844.7780, 27.21941
845.2601, 27.29614
845.7422, 27.17654
846.2243, 27.15840
846.7064, 27.39097
847.1885, 27.56141
847.6707, 27.42054
848.1528, 27.15095
848.6349, 26.96263
849.1170, 26.85354
849.5991, 26.88619
850.0812, 27.12407
850.5634, 27.40622
851.0455, 27.54696
851.5276, 27.56347
852.0097, 27.58386
852.4918, 27.62534
852.9739, 27.66819
853.4561, 27.71064
853.9382, 27.73606
854.4203, 27.70565
854.9024, 27.56662
855.3845, 27.53341
855.8666, 27.79630
856.3488, 28.04249
856.8309, 28.02917
857.3130, 27.70178
857.7951, 27.53064
858.2772, 27.52294
858.7593, 27.63769
859.2415, 27.96923
859.7236, 28.34890
860.2057, 28.45121
860.6878, 28.25025
861.1699, 28.07562
861.6520, 28.14862
862.1342, 28.24638
862.6163, 28.21140
863.0984, 28.03578
863.5805, 27.93679
864.0626, 27.92364
864.5447, 27.96519
865.0269, 28.06921
865.5090, 28.21203
865.9911, 28.28086
866.4732, 28.29214
866.9553, 28.36197
867.4374, 28.63105
867.9196, 28.92453
868.4017, 29.12615
868.8838, 29.23809
869.3659, 29.30152
869.8480, 29.23678
870.3301, 29.27255
870.8123, 29.52814
871.2944, 29.90683
871.7765, 30.03998
872.2586, 29.95090
872.7407, 29.91865
873.2228, 30.13192
873.7050, 30.38126
874.1871, 30.44427
874.6692, 30.37906
875.1513, 30.31247
875.6334, 30.20917
876.1155, 30.21705
876.5977, 30.48246
877.0798, 30.79220
877.5619, 30.69549
878.0440, 30.15458
878.5261, 29.76925
879.0082, 29.69346
879.4904, 29.71417
879.9725, 29.55699
880.4546, 29.29391
880.9367, 29.04972
881.4188, 28.86304
881.9009, 28.68842
882.3831, 28.51801
882.8652, 28.34580
883.3473, 28.15382
883.8294, 27.89792
884.3115, 27.82476
884.7936, 27.99763
885.2758, 28.14940
885.7579, 27.92768
886.2400, 27.49379
886.7221, 27.20943
887.2042, 27.12326
887.6863, 27.11302
888.1685, 27.17919
888.6506, 27.24104
889.1327, 27.24388
889.6148, 27.18357
890.0969, 27.06881
890.5790, 26.88662
891.0612, 26.67744
891.5433, 26.41117
892.0254, 26.13869
892.5075, 26.11539
892.9896, 26.30789
893.4717, 26.45007
893.9539, 26.37223
894.4360, 26.19536
894.9181, 25.93863
895.4002, 25.63292
895.8823, 25.46347
896.3644, 25.49257
896.8466, 25.55716
897.3287, 25.64611
897.8108, 25.71631
898.2929, 25.60522
898.7750, 25.34779
899.2571, 25.17066
899.7393, 25.22151
900.2214, 25.29216
900.7035, 25.19260
901.1856, 24.99699
901.6677, 24.83199
902.1498, 24.76872
902.6320, 24.66987
903.1141, 24.50284
903.5962, 24.32437
904.0783, 24.20224
904.5604, 24.13622
905.0425, 24.15029
905.5247, 24.25714
906.0068, 24.38499
906.4889, 24.52560
906.9710, 24.61764
907.4531, 24.57219
907.9352, 24.32674
908.4174, 24.12950
908.8995, 24.00953
909.3816, 23.95295
909.8637, 23.96566
910.3458, 24.04756
910.8279, 24.12498
911.3101, 24.19816
911.7922, 24.25078
912.2743, 24.29375
912.7564, 24.29423
913.2385, 24.18726
913.7206, 23.98849
914.2028, 23.82067
914.6849, 23.70283
915.1670, 23.64759
915.6491, 23.68734
916.1312, 23.78601
916.6133, 23.80569
917.0955, 23.74581
917.5776, 23.63464
918.0597, 23.44761
918.5418, 23.26721
919.0239, 23.20081
919.5060, 23.21602
919.9882, 23.25033
920.4703, 23.34430
920.9524, 23.37261
921.4345, 23.28284
921.9166, 23.14610
922.3987, 23.03726
922.8809, 22.95428
923.3630, 22.94707
923.8451, 23.03747
924.3272, 23.10450
924.8093, 22.97719
925.2914, 22.76764
925.7736, 22.62620
926.2557, 22.58284
926.7378, 22.55567
927.2199, 22.49713
927.7020, 22.47560
928.1841, 22.53839
928.6663, 22.68534
929.1484, 22.81868
929.6305, 22.94192
930.1126, 22.99851
930.5947, 22.88502
931.0768, 22.72894
931.5590, 22.68941
932.0411, 22.75294
932.5232, 22.85327
933.0053, 23.06095
933.4874, 23.18460
933.9695, 23.12513
934.4517, 22.97951
934.9338, 23.00671
935.4159, 23.21072
935.8980, 23.38222
936.3801, 23.46579
936.8622, 23.48663
937.3444, 23.43776
937.8265, 23.35659
938.3086, 23.29484
938.7907, 23.25159
939.2728, 23.26048
939.7549, 23.34674
940.2371, 23.46464
940.7192, 23.59645
941.2013, 23.74368
941.6834, 23.82557
942.1655, 23.83954
942.6476, 23.78430
943.1298, 23.51496
943.6119, 23.26928
944.0940, 23.38974
944.5761, 23.87539
945.0582, 24.17753
945.5403, 23.94899
946.0225, 23.79091
946.5046, 23.94055
946.9867, 24.29329
947.4688, 24.37810
947.9509, 24.21464
948.4330, 24.13453
948.9152, 24.38516
949.3973, 24.63075
949.8794, 24.44626
950.3615, 24.04950
950.8436, 23.82614
951.3257, 24.04605
951.8079, 24.19813
952.2900, 24.21974
952.7721, 24.21284
953.2542, 24.33825
953.7363, 24.56546
954.2184, 24.64120
954.7006, 24.52699
955.1827, 24.38827
955.6648, 24.34368
956.1469, 24.34517
956.6290, 24.38031
957.1111, 24.46132
957.5933, 24.40351
958.0754, 24.13627
958.5575, 23.85989
959.0396, 23.64996
959.5217, 23.51268
960.0038, 23.53008
960.4860, 23.66170
960.9681, 23.69700
961.4502, 23.39963
961.9323, 23.09897
962.4144, 23.00097
962.8965, 23.03897
963.3787, 23.06388
963.8608, 23.06070
964.3429, 23.06616
964.8250, 23.08946
965.3071, 23.11066
965.7892, 23.11130
966.2714, 23.08721
966.7535, 23.00473
967.2356, 22.84328
967.7177, 22.74590
968.1998, 22.85397
968.6819, 23.00684
969.1641, 23.09758
969.6462, 23.12434
970.1283, 23.09490
970.6104, 22.99845
971.0925, 22.90396
971.5746, 22.84231
972.0568, 22.81306
972.5389, 22.82932
973.0210, 22.87866
973.5031, 22.91968
973.9852, 22.88375
974.4673, 22.90071
974.9495, 23.03733
975.4316, 23.23123
975.9137, 23.36071
976.3958, 23.41772
976.8779, 23.57184
977.3600, 23.87733
977.8422, 24.17074
978.3243, 24.19084
978.8064, 24.14087
979.2885, 24.31166
979.7706, 24.81844
980.2527, 25.19903
980.7349, 25.31576
981.2170, 25.38114
981.6991, 25.48344
982.1812, 25.62564
982.6633, 25.85852
983.1454, 26.17184
983.6276, 26.45296
984.1097, 26.55820
984.5918, 26.67708
985.0739, 26.97590
985.5560, 27.39901
986.0381, 27.79993
986.5203, 28.20674
987.0024, 28.49124
987.4845, 28.59361
987.9666, 28.65377
988.4487, 28.92003
988.9308, 29.30847
989.4130, 29.59901
989.8951, 29.76224
990.3772, 29.76489
990.8593, 29.38357
991.3414, 28.99738
991.8235, 28.95065
992.3057, 29.27132
992.7878, 29.25839
993.2699, 28.85445
993.7520, 28.47278
994.2341, 28.34162
994.7162, 28.36672
995.1984, 28.42675
995.6805, 28.51024
996.1626, 28.58438
996.6447, 28.66050
997.1268, 28.69338
997.6089, 28.64995
998.0911, 28.58079
998.5732, 28.53293
999.0553, 28.50666
999.5374, 28.60821
1000.020, 28.85487
1000.502, 29.17407
1000.984, 29.50131
1001.466, 29.86198
1001.948, 30.32349
1002.430, 30.90676
1002.912, 31.30898
1003.394, 31.39607
1003.876, 31.52670
1004.359, 31.83974
1004.841, 32.30906
1005.323, 32.93565
1005.805, 33.66217
1006.287, 34.22402
1006.769, 34.33164
1007.251, 34.48643
1007.733, 35.03700
1008.216, 35.74672
1008.698, 36.27424
1009.180, 36.57973
1009.662, 36.86917
1010.144, 37.16118
1010.626, 37.39411
1011.108, 37.48285
1011.590, 37.47856
1012.072, 37.46047
1012.555, 37.43168
1013.037, 37.34123
1013.519, 37.19499
1014.001, 36.94573
1014.483, 36.53758
1014.965, 36.02992
1015.447, 35.63439
1015.929, 35.33966
1016.411, 35.03387
1016.894, 34.65143
1017.376, 34.31670
1017.858, 34.09966
1018.340, 34.01692
1018.822, 34.12214
1019.304, 34.59411
1019.786, 34.76227
1020.268, 34.50344
1020.751, 34.26942
1021.233, 34.50190
1021.715, 35.00610
1022.197, 35.24852
1022.679, 35.25764
1023.161, 35.25716
1023.643, 35.26445
1024.125, 35.39034
1024.607, 35.74383
1025.090, 36.21999
1025.572, 36.63337
1026.054, 36.98971
1026.536, 37.21959
1027.018, 37.31454
1027.500, 37.27861
1027.982, 36.98421
1028.464, 36.63378
1028.947, 36.47852
1029.429, 36.60046
1029.911, 36.71611
1030.393, 36.86825
1030.875, 36.89017
1031.357, 36.67578
1031.839, 36.27740
1032.321, 35.80066
1032.803, 35.28690
1033.286, 34.89154
1033.768, 34.75642
1034.250, 34.68922
1034.732, 34.67602
1035.214, 34.64445
1035.696, 34.48010
1036.178, 34.14533
1036.660, 33.85321
1037.143, 33.60222
1037.625, 33.47624
1038.107, 33.66794
1038.589, 33.95351
1039.071, 34.03426
1039.553, 33.90218
1040.035, 33.79506
1040.517, 33.70018
1041.000, 33.74361
1041.482, 34.01174
1041.964, 34.38916
1042.446, 34.58952
1042.928, 34.64759
1043.410, 34.68709
1043.892, 34.72443
1044.374, 34.80982
1044.856, 35.05982
1045.339, 35.30800
1045.821, 35.39977
1046.303, 35.31316
1046.785, 35.22611
1047.267, 35.13999
1047.749, 35.04470
1048.231, 34.90825
1048.713, 34.77879
1049.195, 34.66676
1049.677, 34.61169
1050.160, 34.72809
1050.642, 35.34226
1051.124, 35.70679
1051.606, 35.69328
1052.088, 35.47390
1052.570, 35.19724
1053.052, 34.90651
1053.534, 34.84647
1054.017, 35.05452
1054.499, 35.17358
1054.981, 34.78971
1055.463, 34.42175
1055.945, 34.45930
1056.427, 34.81838
1056.909, 35.03630
1057.391, 35.11074
1057.874, 35.04659
1058.356, 34.75871
1058.838, 34.51924
1059.320, 34.74263
1059.802, 35.19656
1060.284, 35.55175
1060.766, 35.68337
1061.248, 35.84940
1061.730, 36.09337
1062.213, 36.30738
1062.695, 36.36332
1063.177, 36.33067
1063.659, 36.45031
1064.141, 36.71231
1064.623, 37.06833
1065.105, 37.64205
1065.587, 38.13382
1066.070, 38.29097
1066.552, 38.37176
1067.034, 38.80732
1067.516, 39.61103
1067.998, 40.24119
1068.480, 40.61196
1068.962, 40.98647
1069.444, 41.58753
1069.927, 42.31175
1070.409, 43.11373
1070.891, 43.97189
1071.373, 44.75164
1071.855, 45.41883
1072.337, 46.10395
1072.819, 46.87107
1073.301, 47.65350
1073.783, 48.38768
1074.266, 49.04778
1074.748, 49.59560
1075.230, 50.04960
1075.712, 50.30222
1076.194, 50.18332
1076.676, 50.01326
1077.158, 49.94080
1077.640, 49.97492
1078.122, 50.23164
1078.604, 50.69435
1079.087, 51.22233
1079.569, 51.64994
1080.051, 52.20940
1080.533, 53.06815
1081.015, 54.14117
1081.497, 55.27747
1081.979, 56.47075
1082.461, 57.66620
1082.944, 58.84520
1083.426, 60.09344
1083.908, 61.37823
1084.390, 62.83413
1084.872, 64.65369
1085.354, 66.83707
1085.836, 69.12770
1086.318, 71.35841
1086.801, 73.98560
1087.283, 77.12733
1087.765, 80.71189
1088.247, 84.72681
1088.729, 89.08167
1089.211, 93.37651
1089.693, 97.43354
1090.175, 102.0630
1090.657, 107.4116
1091.140, 113.6964
1091.622, 121.1278
1092.104, 129.5948
1092.586, 137.9866
1093.068, 146.4343
1093.550, 155.9987
1094.032, 167.2717
1094.514, 179.7808
1094.997, 192.8624
1095.479, 207.1443
1095.961, 223.6065
1096.443, 242.2379
1096.925, 262.9760
1097.407, 285.9010
1097.889, 311.0431
1098.371, 337.9761
1098.854, 367.1136
1099.336, 399.1340
1099.818, 433.8965
1100.300, 470.2645
1100.782, 508.2137
1101.264, 547.4319
1101.746, 587.6795
1102.228, 628.7620
1102.710, 671.7597
1103.193, 714.7952
1103.675, 753.9582
1104.157, 788.6021
1104.639, 822.1317
1105.121, 855.4243
1105.603, 888.8264
1106.085, 921.3909
1106.567, 955.0751
1107.049, 993.9426
1107.531, 1038.847
1108.014, 1091.980
1108.496, 1155.102
1108.978, 1225.571
1109.460, 1306.848
1109.942, 1391.036
1110.424, 1474.260
1110.906, 1558.051
1111.388, 1618.115
1111.871, 1655.000
1112.353, 1659.839
1112.835, 1626.596
1113.317, 1561.366
1113.799, 1460.167
1114.281, 1335.773
1114.763, 1206.325
1115.245, 1069.619
1115.728, 942.5411
1116.210, 824.7204
1116.692, 718.7875
1117.174, 629.2737
1117.656, 553.5199
1118.138, 488.1750
1118.620, 432.4487
1119.102, 383.7891
1119.584, 342.7651
1120.067, 307.5710
1120.549, 278.5103
1121.031, 254.0034
1121.513, 232.5049
1121.995, 213.6956
1122.477, 197.0322
1122.959, 182.2241
1123.441, 169.1820
1123.924, 158.4149
1124.406, 148.8435
1124.888, 139.9017
1125.370, 131.7050
1125.852, 124.7105
1126.334, 118.8362
1126.816, 113.4120
1127.298, 108.2770
1127.781, 103.6576
1128.263, 100.1712
1128.745, 96.94351
1129.227, 93.13785
1129.709, 88.77045
1130.191, 85.04404
1130.673, 81.96102
1131.155, 79.02782
1131.637, 76.04735
1132.120, 73.06470
1132.602, 69.98312
1133.084, 66.97013
1133.566, 64.36499
1134.048, 62.26017
1134.530, 60.26214
1135.012, 58.40186
1135.494, 56.49566
1135.976, 54.22278
1136.458, 51.93036
1136.941, 50.24215
1137.423, 49.00303
1137.905, 47.83935
1138.387, 46.67435
1138.869, 45.52111
1139.351, 44.37241
1139.833, 43.27368
1140.315, 42.26085
1140.798, 41.34920
1141.280, 40.64790
1141.762, 40.11001
1142.244, 39.47486
1142.726, 38.44737
1143.208, 37.55949
1143.690, 36.96989
1144.172, 36.50956
1144.655, 35.87682
1145.137, 35.14128
1145.619, 34.52641
1146.101, 34.06374
1146.583, 33.73395
1147.065, 33.73760
1147.547, 33.62904
1148.029, 33.15808
1148.511, 32.45845
1148.994, 31.86452
1149.476, 31.38156
1149.958, 31.08121
1150.440, 31.00464
1150.922, 30.96980
1151.404, 30.94004
1151.886, 30.81457
1152.368, 30.44711
1152.851, 29.88521
1153.333, 29.59951
1153.815, 29.59109
1154.297, 29.57498
1154.779, 29.42804
1155.261, 29.27261
1155.743, 29.30182
1156.225, 29.34100
1156.708, 29.15006
1157.190, 28.68127
1157.672, 28.32187
1158.154, 28.07478
1158.636, 27.91542
1159.118, 27.86854
1159.600, 27.86303
1160.082, 27.79078
1160.564, 27.71375
1161.047, 27.75649
1161.529, 28.08692
1162.011, 28.14536
1162.493, 27.87347
1162.975, 27.56611
1163.457, 27.45305
1163.939, 27.43926
1164.421, 27.38911
1164.903, 27.32538
1165.385, 27.32735
1165.868, 27.48420
1166.350, 27.56871
1166.832, 27.55178
1167.314, 27.49127
1167.796, 27.43944
1168.278, 27.38955
1168.760, 27.32880
1169.242, 27.25789
1169.725, 27.18769
1170.207, 27.09578
1170.689, 27.04898
1171.171, 27.07465
1171.653, 27.11715
1172.135, 27.08342
1172.617, 27.01004
1173.099, 27.00202
1173.582, 27.06781
1174.064, 27.05811
1174.546, 26.66208
1175.028, 26.55494
1175.510, 27.04777
1175.992, 27.75227
1176.474, 27.86294
1176.956, 27.53535
1177.438, 27.16211
1177.921, 26.79349
1178.403, 26.59205
1178.885, 26.83608
1179.367, 27.01278
1179.849, 26.88550
1180.331, 26.56984
1180.813, 26.41283
1181.295, 26.38352
1181.778, 26.36476
1182.260, 26.31983
1182.742, 26.29926
1183.224, 26.37929
1183.706, 26.43217
1184.188, 26.36154
1184.670, 26.20594
1185.152, 26.18431
1185.635, 26.27947
1186.117, 26.41013
1186.599, 26.58243
1187.081, 26.70593
1187.563, 26.65655
1188.045, 26.60995
1188.527, 26.72317
1189.009, 26.97546
1189.491, 27.09132
1189.974, 27.08642
1190.456, 27.07281
1190.938, 27.06088
1191.420, 27.11478
1191.902, 27.33645
1192.384, 27.59048
1192.866, 27.72248
1193.348, 27.72818
1193.830, 27.90347
1194.313, 28.23173
1194.795, 28.49559
1195.277, 28.48818
1195.759, 28.46745
1196.241, 28.51157
1196.723, 28.66366
1197.205, 29.02550
1197.687, 29.60703
1198.169, 29.98788
1198.652, 30.15400
1199.134, 30.30991
1199.616, 30.51169
1200.098, 30.82736
1200.580, 31.44644
1201.062, 32.13806
1201.544, 32.47095
1202.026, 32.42939
1202.509, 32.67438
1202.991, 33.26403
1203.473, 33.89472
1203.955, 34.28814
1204.437, 34.71201
1204.919, 35.37616
1205.401, 36.19791
1205.883, 37.00132
1206.365, 37.79291
1206.848, 38.47945
1207.330, 39.03568
1207.812, 39.71193
1208.294, 40.77573
1208.776, 41.96892
1209.258, 43.10997
1209.740, 44.23443
1210.222, 45.41080
1210.705, 46.65298
1211.187, 47.97956
1211.669, 49.39232
1212.151, 50.93114
1212.633, 52.70277
1213.115, 54.52547
1213.597, 56.18068
1214.079, 57.76286
1214.562, 59.64779
1215.044, 61.83164
1215.526, 64.16477
1216.008, 66.67715
1216.490, 69.09138
1216.972, 70.81091
1217.454, 72.70139
1217.936, 75.44141
1218.418, 78.89467
1218.901, 82.41210
1219.383, 86.02383
1219.865, 89.83836
1220.347, 93.93987
1220.829, 98.04445
1221.311, 101.8526
1221.793, 105.6378
1222.275, 109.6529
1222.757, 113.8830
1223.240, 118.3434
1223.722, 123.0373
1224.204, 128.0156
1224.686, 133.3537
1225.168, 138.8521
1225.650, 144.6297
1226.132, 150.3578
1226.614, 155.7019
1227.096, 160.7504
1227.579, 166.5141
1228.061, 172.8689
1228.543, 178.7574
1229.025, 183.7594
1229.507, 188.1005
1229.989, 192.0522
1230.471, 195.1949
1230.953, 197.3191
1231.436, 198.4179
1231.918, 198.3567
1232.400, 197.1146
1232.882, 194.5695
1233.364, 190.2956
1233.846, 185.3898
1234.328, 180.3480
1234.810, 174.8112
1235.292, 168.3416
1235.775, 161.1341
1236.257, 154.2882
1236.739, 147.7870
1237.221, 141.3931
1237.703, 134.5592
1238.185, 128.4314
1238.667, 123.6034
1239.149, 119.5931
1239.632, 116.2718
1240.114, 113.5717
1240.596, 110.6535
1241.078, 107.6693
1241.560, 105.1520
1242.042, 103.6182
1242.524, 102.2448
1243.006, 100.9336
1243.489, 99.59141
1243.971, 98.25632
1244.453, 96.81771
1244.935, 94.74248
1245.417, 92.16443
1245.899, 89.65779
1246.381, 87.83038
1246.863, 85.43916
1247.345, 82.15597
1247.828, 78.68882
1248.310, 75.69466
1248.792, 73.02128
1249.274, 70.24104
1249.756, 67.38077
1250.238, 64.51554
1250.720, 61.49862
1251.202, 58.79007
1251.684, 56.51777
1252.167, 54.32807
1252.649, 51.77613
1253.131, 49.13245
1253.613, 46.88566
1254.095, 44.98645
1254.577, 43.29193
1255.059, 41.86581
1255.541, 40.42216
1256.023, 38.92948
1256.506, 37.50634
1256.988, 36.25682
1257.470, 35.13637
1257.952, 34.11106
1258.434, 33.17082
1258.916, 32.32196
1259.398, 31.63347
1259.880, 30.78931
1260.363, 29.73711
1260.845, 28.73881
1261.327, 28.06794
1261.809, 27.51913
1262.291, 26.85988
1262.773, 26.14673
1263.255, 25.53472
1263.737, 25.02695
1264.219, 24.66090
1264.702, 24.45535
1265.184, 24.17974
1265.666, 23.50189
1266.148, 22.82958
1266.630, 22.53641
1267.112, 22.46334
1267.594, 22.25491
1268.076, 21.89877
1268.559, 21.59714
1269.041, 21.36378
1269.523, 21.12837
1270.005, 20.76965
1270.487, 20.46966
1270.969, 20.42455
1271.451, 20.45307
1271.933, 20.29606
1272.416, 19.97055
1272.898, 19.69394
1273.380, 19.47751
1273.862, 19.26844
1274.344, 18.99979
1274.826, 18.78339
1275.308, 18.67083
1275.790, 18.60565
1276.272, 18.52324
1276.755, 18.42800
1277.237, 18.35389
1277.719, 18.29160
1278.201, 18.16170
1278.683, 17.75805
1279.165, 17.55853
1279.647, 17.74118
1280.129, 17.96295
1280.611, 17.75419
1281.094, 17.33614
1281.576, 17.22427
1282.058, 17.36653
1282.540, 17.37710
1283.022, 16.99338
1283.504, 16.80737
1283.986, 16.92730
1284.468, 17.07767
1284.950, 16.94262
1285.433, 16.70177
1285.915, 16.60880
1286.397, 16.62417
1286.879, 16.54231
1287.361, 16.29483
1287.843, 16.18073
1288.325, 16.23994
1288.807, 16.32367
1289.290, 16.27722
1289.772, 16.22424
1290.254, 16.33984
1290.736, 16.50944
1291.218, 16.44003
1291.700, 16.10283
1292.182, 15.93074
1292.664, 15.95200
1293.146, 15.99578
1293.629, 15.92811
1294.111, 15.86425
1294.593, 15.88377
1295.075, 15.93649
1295.557, 15.98558
1296.039, 16.02072
1296.521, 15.89454
1297.003, 15.63136
1297.486, 15.50194
1297.968, 15.83330
1298.450, 16.07365
1298.932, 16.08857
1299.414, 15.96687
1299.896, 15.71027
1300.378, 15.41943
1300.860, 15.14738
1301.343, 15.06009
1301.825, 15.80218
##END=



