##NAMES=Bertrandite
##RRUFFID=R110025
##IDEAL CHEMISTRY=Be_4_Si_2_O_7_(OH)_2_
##LOCALITY=Foote mine, Kings Mountain, North Carolina, USA
##OWNER=RRUFF
##SOURCE=
##DESCRIPTION=Colorless bladed crystals associated with lithiophilite R100096 
##STATUS=The identification of this mineral has been confirmed by single-crystal X-ray diffraction.
##URL=rruff.info/R110025
141.7098, 114.0641
142.1919, 113.0349
142.6740, 111.8673
143.1561, 111.0666
143.6383, 110.7071
144.1204, 110.7015
144.6025, 111.0581
145.0846, 111.8649
145.5667, 112.3539
146.0488, 112.3216
146.5310, 112.0363
147.0131, 111.7133
147.4952, 111.3581
147.9773, 111.1253
148.4594, 111.3333
148.9415, 111.8980
149.4237, 112.3516
149.9058, 112.4286
150.3879, 112.2578
150.8700, 112.1899
151.3521, 112.2850
151.8342, 112.5052
152.3164, 112.8945
152.7985, 113.4157
153.2806, 113.7969
153.7627, 113.7649
154.2448, 113.3106
154.7269, 112.9036
155.2091, 112.4692
155.6912, 112.2183
156.1733, 112.3892
156.6554, 112.9510
157.1375, 113.5509
157.6196, 113.7012
158.1018, 113.1519
158.5839, 112.8863
159.0660, 113.1941
159.5481, 113.6013
160.0302, 113.7576
160.5123, 113.5989
160.9945, 113.3719
161.4766, 113.4992
161.9587, 114.0597
162.4408, 114.9384
162.9229, 116.4246
163.4050, 118.0594
163.8871, 119.4328
164.3693, 120.3957
164.8514, 121.0432
165.3335, 121.5929
165.8156, 122.1643
166.2977, 122.4693
166.7798, 122.1998
167.2620, 121.6932
167.7441, 121.5270
168.2262, 122.0146
168.7083, 122.8445
169.1904, 123.0698
169.6725, 122.2646
170.1547, 121.7402
170.6368, 122.2357
171.1189, 123.4902
171.6010, 124.5921
172.0831, 125.0502
172.5652, 125.1717
173.0474, 125.6618
173.5295, 126.7247
174.0116, 127.7635
174.4937, 128.2109
174.9758, 128.0699
175.4579, 128.0682
175.9401, 128.7459
176.4222, 129.6163
176.9043, 130.0639
177.3864, 129.8155
177.8685, 129.5187
178.3506, 130.0718
178.8328, 131.6988
179.3149, 133.3967
179.7970, 134.6224
180.2791, 135.8493
180.7612, 137.5857
181.2433, 140.0943
181.7255, 142.9307
182.2076, 145.2088
182.6897, 146.9827
183.1718, 147.9737
183.6539, 147.8808
184.1360, 147.2424
184.6181, 146.5399
185.1003, 145.9932
185.5824, 145.6091
186.0645, 145.4355
186.5466, 145.9262
187.0287, 146.0561
187.5108, 145.6017
187.9930, 144.7479
188.4751, 143.6628
188.9572, 142.4266
189.4393, 141.1108
189.9214, 140.1395
190.4035, 139.5733
190.8857, 139.2851
191.3678, 139.2174
191.8499, 139.4207
192.3320, 140.0377
192.8141, 141.1999
193.2962, 142.8166
193.7784, 144.1982
194.2605, 145.0909
194.7426, 146.0744
195.2247, 147.5674
195.7068, 149.3549
196.1889, 150.7947
196.6711, 151.4144
197.1532, 151.3861
197.6353, 151.6938
198.1174, 152.2030
198.5995, 153.1186
199.0816, 154.6864
199.5638, 156.8428
200.0459, 159.0982
200.5280, 160.9988
201.0101, 162.9098
201.4922, 165.6699
201.9743, 169.7099
202.4565, 174.2203
202.9386, 178.9479
203.4207, 183.9393
203.9028, 188.0072
204.3849, 191.2934
204.8670, 192.8072
205.3492, 190.9057
205.8313, 184.5376
206.3134, 175.6110
206.7955, 165.7091
207.2776, 154.2961
207.7597, 144.4292
208.2419, 137.8699
208.7240, 133.4334
209.2061, 130.4822
209.6882, 129.0478
210.1703, 128.5189
210.6524, 127.8498
211.1346, 126.8941
211.6167, 126.2005
212.0988, 126.0856
212.5809, 126.2239
213.0630, 126.3492
213.5451, 126.3717
214.0273, 126.2638
214.5094, 125.9114
214.9915, 125.0385
215.4736, 124.4341
215.9557, 124.2284
216.4378, 124.3199
216.9200, 124.6439
217.4021, 125.1763
217.8842, 125.8587
218.3663, 126.5413
218.8484, 127.3949
219.3305, 127.9719
219.8127, 127.9430
220.2948, 127.7495
220.7769, 127.8173
221.2590, 128.3397
221.7411, 129.2666
222.2232, 130.4570
222.7054, 132.2483
223.1875, 133.9163
223.6696, 135.4130
224.1517, 136.7708
224.6338, 137.9837
225.1159, 139.0523
225.5980, 140.0496
226.0802, 141.1914
226.5623, 142.4787
227.0444, 143.9166
227.5265, 146.1432
228.0086, 148.3415
228.4907, 149.4295
228.9729, 148.9485
229.4550, 147.2177
229.9371, 144.9755
230.4192, 142.0981
230.9013, 138.9532
231.3834, 135.1092
231.8656, 131.1426
232.3477, 127.9592
232.8298, 125.9457
233.3119, 124.6995
233.7940, 123.3776
234.2761, 121.8419
234.7583, 120.5638
235.2404, 119.5949
235.7225, 118.9712
236.2046, 118.8114
236.6867, 119.2239
237.1688, 119.9433
237.6510, 120.5284
238.1331, 120.9589
238.6152, 121.4071
239.0973, 122.1118
239.5794, 122.8654
240.0615, 123.1929
240.5437, 122.9074
241.0258, 122.2772
241.5079, 121.6628
241.9900, 121.0752
242.4721, 120.3389
242.9542, 119.2897
243.4364, 118.0368
243.9185, 116.8494
244.4006, 115.7722
244.8827, 114.7939
245.3648, 113.8902
245.8469, 113.0588
246.3290, 112.3331
246.8112, 111.7815
247.2933, 111.3555
247.7754, 110.8854
248.2575, 110.3173
248.7396, 109.7633
249.2217, 109.2249
249.7039, 108.7411
250.1860, 108.4784
250.6681, 108.6801
251.1502, 109.2013
251.6323, 109.5355
252.1144, 109.7310
252.5966, 109.5853
253.0787, 108.7617
253.5608, 107.5472
254.0429, 106.5832
254.5250, 106.3105
255.0071, 106.5782
255.4893, 106.8153
255.9714, 107.0335
256.4535, 107.1945
256.9356, 107.3067
257.4177, 107.3596
257.8998, 107.3157
258.3820, 107.0897
258.8641, 106.7817
259.3462, 106.7783
259.8283, 107.3134
260.3104, 107.7743
260.7925, 108.0058
261.2747, 108.0481
261.7568, 107.9424
262.2389, 107.6952
262.7210, 107.3384
263.2031, 106.9322
263.6852, 106.3294
264.1674, 105.9492
264.6495, 105.9593
265.1316, 106.1732
265.6137, 106.4165
266.0958, 106.6178
266.5779, 106.7752
267.0601, 106.8801
267.5422, 106.9179
268.0243, 106.9233
268.5064, 106.8550
268.9885, 106.7870
269.4706, 106.8177
269.9528, 106.9764
270.4349, 107.1563
270.9170, 107.1372
271.3991, 106.7811
271.8812, 106.4925
272.3633, 106.1806
272.8455, 106.0062
273.3276, 106.1950
273.8097, 106.7588
274.2918, 107.4028
274.7739, 107.6728
275.2560, 107.4079
275.7382, 107.0820
276.2202, 106.4285
276.7024, 105.9196
277.1845, 105.9824
277.6666, 106.5991
278.1487, 107.3094
278.6308, 107.5165
279.1129, 106.9678
279.5951, 106.7953
280.0772, 107.2330
280.5593, 107.7703
281.0414, 108.1783
281.5235, 108.4328
282.0056, 108.6047
282.4878, 108.7535
282.9699, 108.8725
283.4520, 109.0265
283.9341, 109.4627
284.4162, 109.6984
284.8983, 109.4059
285.3805, 108.7257
285.8626, 108.0362
286.3447, 107.6200
286.8268, 107.4759
287.3089, 107.4338
287.7910, 107.4895
288.2732, 107.6405
288.7553, 108.0306
289.2374, 108.5090
289.7195, 108.7472
290.2016, 108.5134
290.6837, 107.9500
291.1659, 107.8659
291.6480, 108.8586
292.1301, 109.6279
292.6122, 109.9433
293.0943, 109.9129
293.5764, 109.5972
294.0586, 109.0063
294.5407, 108.3532
295.0228, 108.2157
295.5049, 109.0584
295.9870, 109.8821
296.4691, 110.7744
296.9513, 111.5794
297.4334, 112.1405
297.9155, 112.4038
298.3976, 112.4071
298.8797, 112.2003
299.3618, 111.6567
299.8440, 111.1136
300.3261, 110.6303
300.8082, 110.1150
301.2903, 109.4520
301.7724, 108.6370
302.2545, 107.7877
302.7367, 107.0169
303.2188, 106.2981
303.7009, 105.8400
304.1830, 105.6780
304.6651, 105.7139
305.1472, 106.0207
305.6294, 106.5196
306.1115, 106.9207
306.5936, 106.9660
307.0757, 106.6334
307.5578, 106.2928
308.0399, 105.7729
308.5221, 105.4104
309.0042, 105.4760
309.4863, 105.8341
309.9684, 106.1144
310.4505, 106.0620
310.9326, 105.7443
311.4148, 105.6377
311.8969, 106.0948
312.3790, 106.3255
312.8611, 105.9742
313.3432, 105.3037
313.8253, 104.6998
314.3075, 104.3296
314.7896, 104.1906
315.2717, 104.2953
315.7538, 104.9496
316.2359, 105.4072
316.7180, 105.5776
317.2001, 105.5377
317.6823, 105.2859
318.1644, 104.8336
318.6465, 104.3863
319.1286, 104.2621
319.6107, 104.6478
320.0928, 104.9368
320.5750, 105.1229
321.0571, 105.2206
321.5392, 105.1387
322.0213, 104.9172
322.5034, 104.8275
322.9855, 105.1824
323.4677, 106.0860
323.9498, 106.6696
324.4319, 106.7307
324.9140, 106.7137
325.3961, 106.8664
325.8782, 107.1413
326.3604, 107.3476
326.8425, 107.3528
327.3246, 107.1682
327.8067, 106.9123
328.2888, 106.2853
328.7709, 105.9340
329.2531, 106.3113
329.7352, 107.0256
330.2173, 107.3693
330.6994, 106.9851
331.1815, 106.2184
331.6636, 106.0041
332.1458, 107.3648
332.6279, 108.0124
333.1100, 107.2643
333.5921, 106.0751
334.0742, 105.3702
334.5563, 105.4128
335.0385, 105.8645
335.5206, 106.2623
336.0027, 106.6534
336.4848, 106.8371
336.9669, 106.6617
337.4490, 106.4229
337.9312, 106.3481
338.4133, 106.4222
338.8954, 106.4184
339.3775, 106.0626
339.8596, 105.2710
340.3417, 105.1958
340.8239, 106.5827
341.3060, 107.8105
341.7881, 108.2051
342.2702, 108.0050
342.7523, 107.7607
343.2344, 107.8115
343.7166, 108.0892
344.1987, 108.2622
344.6808, 108.0518
345.1629, 108.0613
345.6450, 108.4415
346.1271, 109.0301
346.6093, 109.7157
347.0914, 110.4393
347.5735, 111.0931
348.0556, 111.4252
348.5377, 111.0787
349.0198, 111.0670
349.5020, 111.6808
349.9841, 112.3671
350.4662, 112.7476
350.9483, 112.7858
351.4304, 112.6921
351.9125, 112.7204
352.3947, 112.9401
352.8768, 112.8127
353.3589, 111.9074
353.8410, 111.0867
354.3231, 110.6780
354.8052, 110.5917
355.2874, 110.5814
355.7695, 110.4782
356.2516, 110.3186
356.7337, 110.3098
357.2158, 110.4909
357.6979, 110.7908
358.1800, 111.5904
358.6621, 112.3298
359.1443, 112.2897
359.6264, 111.1989
360.1085, 109.6072
360.5906, 108.5219
361.0727, 108.1938
361.5548, 107.7215
362.0370, 106.7422
362.5191, 105.8060
363.0012, 105.2658
363.4833, 105.1399
363.9654, 105.2185
364.4475, 105.3912
364.9297, 105.6829
365.4118, 105.6280
365.8939, 104.8449
366.3760, 104.1199
366.8581, 103.8014
367.3402, 103.7737
367.8224, 103.7751
368.3045, 103.6476
368.7866, 103.4492
369.2687, 103.3457
369.7508, 103.3419
370.2329, 103.4315
370.7151, 103.7329
371.1972, 104.0624
371.6793, 104.2286
372.1614, 104.1661
372.6435, 104.0048
373.1256, 103.8896
373.6078, 103.8231
374.0899, 103.7766
374.5720, 103.8006
375.0541, 103.7892
375.5362, 103.6369
376.0183, 103.3568
376.5005, 103.0916
376.9826, 102.9375
377.4647, 102.8728
377.9468, 102.7995
378.4289, 102.6664
378.9110, 102.6273
379.3932, 102.8208
379.8753, 103.1732
380.3574, 103.5739
380.8395, 104.0971
381.3216, 104.5532
381.8037, 104.6624
382.2859, 104.4189
382.7680, 104.1311
383.2501, 103.8939
383.7322, 103.7172
384.2143, 103.5925
384.6964, 103.5124
385.1786, 103.5155
385.6607, 103.7653
386.1428, 104.1199
386.6249, 104.1322
387.1070, 103.6017
387.5891, 102.9850
388.0713, 102.8567
388.5534, 103.1676
389.0355, 103.4820
389.5176, 103.8535
389.9997, 104.1015
390.4818, 103.9428
390.9640, 103.3931
391.4461, 102.8752
391.9282, 102.6687
392.4103, 102.7403
392.8924, 102.8441
393.3745, 102.9871
393.8567, 103.1500
394.3388, 103.4775
394.8209, 103.8019
395.3030, 103.7091
395.7851, 103.0024
396.2672, 102.0687
396.7494, 101.5863
397.2315, 101.7137
397.7136, 101.9541
398.1957, 102.4559
398.6778, 102.9516
399.1599, 103.2213
399.6420, 103.2476
400.1241, 103.1370
400.6063, 102.9771
401.0884, 102.7671
401.5705, 102.5131
402.0526, 102.1046
402.5347, 101.7809
403.0168, 101.5965
403.4990, 101.5502
403.9811, 101.6740
404.4632, 101.9867
404.9453, 102.3821
405.4274, 102.6060
405.9095, 102.6436
406.3917, 102.5103
406.8738, 101.9069
407.3559, 101.3689
407.8380, 101.3932
408.3201, 101.9587
408.8022, 102.5656
409.2844, 102.6751
409.7665, 102.2404
410.2486, 102.0468
410.7307, 102.3790
411.2128, 102.6510
411.6949, 102.6508
412.1771, 102.4841
412.6592, 102.3304
413.1413, 102.2785
413.6234, 102.2861
414.1055, 102.2329
414.5876, 102.0419
415.0698, 102.0276
415.5519, 102.4556
416.0340, 102.9591
416.5161, 103.3311
416.9982, 103.5379
417.4803, 103.5815
417.9625, 103.3814
418.4446, 102.9846
418.9267, 102.7245
419.4088, 102.6934
419.8909, 102.6767
420.3730, 102.5302
420.8552, 102.2984
421.3373, 102.0683
421.8194, 101.8707
422.3015, 101.6855
422.7836, 101.4425
423.2657, 101.1448
423.7479, 101.0089
424.2300, 101.1979
424.7121, 101.5314
425.1942, 101.7258
425.6763, 101.7661
426.1584, 101.7557
426.6406, 101.6954
427.1227, 101.6260
427.6048, 101.6483
428.0869, 101.7889
428.5690, 101.8931
429.0511, 101.8021
429.5333, 101.5121
430.0154, 101.2781
430.4975, 101.1166
430.9796, 100.9961
431.4617, 100.9288
431.9438, 100.8902
432.4260, 100.7765
432.9081, 100.5116
433.3902, 100.2536
433.8723, 100.4027
434.3544, 101.4713
434.8365, 102.0905
435.3187, 101.9266
435.8008, 101.4888
436.2829, 101.2041
436.7650, 101.1089
437.2471, 100.9468
437.7292, 100.4347
438.2114, 99.55138
438.6935, 99.08712
439.1756, 99.40137
439.6577, 99.74317
440.1398, 100.0443
440.6219, 100.2421
441.1040, 100.2174
441.5862, 99.92220
442.0683, 99.54140
442.5504, 99.43806
443.0325, 99.72722
443.5146, 99.94182
443.9967, 100.0488
444.4789, 100.0661
444.9610, 99.92344
445.4431, 99.67760
445.9252, 99.49973
446.4073, 99.47313
446.8894, 99.61833
447.3716, 100.1671
447.8537, 101.5076
448.3358, 102.2720
448.8179, 101.1320
449.3000, 99.41291
449.7821, 98.60751
450.2643, 99.15359
450.7464, 99.98863
451.2285, 100.1392
451.7106, 99.76089
452.1927, 99.67959
452.6748, 100.1830
453.1570, 100.7585
453.6391, 100.8806
454.1212, 100.6277
454.6033, 100.2577
455.0854, 99.68545
455.5675, 99.12862
456.0497, 98.79391
456.5318, 98.66390
457.0139, 98.59496
457.4960, 98.51431
457.9781, 98.44930
458.4602, 98.48072
458.9424, 98.62413
459.4245, 98.80997
459.9066, 99.13515
460.3887, 99.43603
460.8708, 99.52482
461.3529, 99.38532
461.8351, 99.15219
462.3172, 98.95168
462.7993, 98.78869
463.2814, 98.53333
463.7635, 97.82661
464.2456, 97.44283
464.7278, 97.83280
465.2099, 98.57671
465.6920, 99.12637
466.1741, 99.26751
466.6562, 99.11042
467.1383, 98.77087
467.6205, 98.08440
468.1026, 97.72354
468.5847, 98.03379
469.0668, 98.38609
469.5489, 98.50847
470.0310, 98.43560
470.5132, 98.32461
470.9953, 98.27235
471.4774, 98.15791
471.9595, 98.14869
472.4416, 97.94832
472.9237, 97.78938
473.4059, 97.68441
473.8880, 97.67394
474.3701, 97.87721
474.8522, 98.31897
475.3343, 98.63118
475.8164, 98.39925
476.2986, 97.87606
476.7807, 97.76177
477.2628, 98.21127
477.7449, 98.63936
478.2270, 98.48661
478.7091, 97.93656
479.1913, 97.77776
479.6734, 98.48406
480.1555, 99.10466
480.6376, 99.04552
481.1197, 98.55622
481.6018, 98.07846
482.0839, 97.73666
482.5660, 97.68672
483.0482, 98.24715
483.5303, 99.77293
484.0124, 100.5446
484.4945, 99.96329
484.9766, 99.23901
485.4587, 99.07237
485.9409, 99.29418
486.4230, 99.33639
486.9051, 98.86130
487.3872, 98.11181
487.8693, 97.81493
488.3514, 98.27202
488.8336, 98.62312
489.3157, 98.66776
489.7978, 98.71117
490.2799, 99.08632
490.7620, 99.70791
491.2441, 100.1077
491.7263, 99.78007
492.2084, 98.92677
492.6905, 98.55492
493.1726, 98.83239
493.6547, 99.19067
494.1368, 99.45467
494.6190, 99.65303
495.1011, 99.80769
495.5832, 99.92210
496.0653, 99.99459
496.5474, 100.1274
497.0295, 100.2205
497.5117, 99.83135
497.9938, 98.74718
498.4759, 97.81172
498.9580, 97.91322
499.4401, 98.81608
499.9222, 99.20772
500.4044, 98.48786
500.8865, 97.77898
501.3686, 97.72525
501.8507, 98.09108
502.3328, 98.41722
502.8149, 98.55071
503.2971, 98.53531
503.7792, 98.42543
504.2613, 98.19909
504.7434, 97.94324
505.2255, 97.51839
505.7076, 97.20472
506.1898, 97.28101
506.6719, 97.55579
507.1540, 97.56986
507.6361, 97.06245
508.1182, 96.37660
508.6003, 96.40595
509.0825, 97.59861
509.5646, 98.30211
510.0467, 98.08665
510.5288, 97.57351
511.0109, 96.90768
511.4930, 96.20603
511.9752, 95.71951
512.4573, 95.61052
512.9394, 95.81774
513.4215, 96.32158
513.9036, 97.21705
514.3857, 97.80634
514.8679, 97.67116
515.3500, 97.19344
515.8321, 96.85650
516.3142, 96.67571
516.7963, 96.58074
517.2784, 96.59188
517.7606, 96.64709
518.2427, 96.61814
518.7248, 96.50479
519.2069, 96.50990
519.6890, 96.80933
520.1711, 97.32265
520.6533, 97.63455
521.1354, 97.63416
521.6175, 97.61782
522.0996, 97.71391
522.5817, 97.77040
523.0638, 97.54713
523.5460, 97.05935
524.0281, 96.61618
524.5102, 96.52419
524.9923, 96.77355
525.4744, 97.04553
525.9565, 97.52713
526.4387, 97.76772
526.9208, 97.52866
527.4029, 97.09587
527.8850, 96.71023
528.3671, 96.44576
528.8492, 96.36375
529.3314, 96.60512
529.8135, 97.13144
530.2956, 97.58641
530.7777, 97.98731
531.2598, 98.23679
531.7419, 98.12363
532.2241, 97.85084
532.7062, 97.77718
533.1883, 98.11301
533.6704, 98.35947
534.1525, 97.96275
534.6346, 97.24234
535.1168, 97.02487
535.5989, 97.52969
536.0810, 98.19393
536.5631, 98.44645
537.0452, 98.26355
537.5273, 98.19329
538.0095, 98.53652
538.4916, 98.64721
538.9737, 98.13505
539.4558, 97.29042
539.9379, 96.47265
540.4200, 95.82143
540.9022, 95.40665
541.3843, 95.38925
541.8664, 95.87888
542.3485, 96.14604
542.8306, 95.99406
543.3127, 95.82155
543.7948, 95.78313
544.2769, 95.79532
544.7590, 95.74117
545.2411, 95.58509
545.7233, 95.30468
546.2054, 94.71491
546.6875, 93.86169
547.1696, 93.54313
547.6517, 94.13415
548.1339, 94.79388
548.6160, 94.63851
549.0981, 93.96490
549.5802, 93.61700
550.0623, 94.05026
550.5444, 94.53121
551.0266, 94.50633
551.5087, 94.17989
551.9908, 94.03603
552.4729, 94.22489
552.9550, 94.55553
553.4371, 94.83862
553.9193, 95.13157
554.4014, 94.98927
554.8835, 93.78451
555.3656, 92.90217
555.8477, 93.07482
556.3298, 93.81042
556.8120, 94.38325
557.2941, 94.52612
557.7762, 94.43778
558.2583, 94.35755
558.7404, 94.27253
559.2225, 94.31044
559.7047, 94.54902
560.1868, 94.81702
560.6689, 95.13029
561.1510, 95.39323
561.6331, 95.42039
562.1152, 95.09575
562.5974, 94.69172
563.0795, 94.43720
563.5616, 94.30955
564.0437, 94.22771
564.5258, 94.17471
565.0079, 94.16702
565.4901, 94.20524
565.9722, 94.30069
566.4543, 94.51833
566.9364, 95.12074
567.4185, 95.54651
567.9006, 95.42136
568.3828, 95.05145
568.8649, 94.90867
569.3470, 95.09892
569.8291, 95.31776
570.3112, 95.16261
570.7933, 94.58888
571.2755, 94.44887
571.7576, 95.11852
572.2397, 95.76617
572.7218, 96.30614
573.2039, 96.66576
573.6860, 96.67525
574.1682, 96.30685
574.6503, 95.97265
575.1324, 96.15843
575.6145, 96.72819
576.0966, 97.06763
576.5787, 97.10587
577.0609, 97.04577
577.5430, 97.02449
578.0251, 96.97752
578.5072, 96.72580
578.9893, 96.06718
579.4714, 95.65235
579.9536, 96.07481
580.4357, 96.69722
580.9178, 96.63730
581.3999, 95.86021
581.8820, 95.00743
582.3641, 94.54330
582.8463, 94.44007
583.3284, 94.54127
583.8105, 95.20618
584.2926, 95.54812
584.7747, 95.41277
585.2568, 95.01839
585.7390, 94.38243
586.2211, 93.61415
586.7032, 93.01807
587.1853, 92.83228
587.6674, 92.95814
588.1495, 93.21449
588.6317, 93.66244
589.1138, 93.84940
589.5959, 93.52189
590.0780, 92.96303
590.5601, 92.44065
591.0422, 91.95375
591.5244, 91.69979
592.0065, 91.95943
592.4886, 92.30563
592.9707, 92.30532
593.4528, 92.04402
593.9349, 91.83873
594.4171, 91.82176
594.8992, 91.99232
595.3813, 92.40681
595.8634, 93.35136
596.3455, 93.66634
596.8276, 92.85977
597.3098, 92.03286
597.7919, 91.61137
598.2740, 91.49450
598.7561, 91.42760
599.2382, 91.30198
599.7203, 91.29793
600.2025, 91.80756
600.6846, 92.80883
601.1667, 93.34034
601.6488, 93.09295
602.1309, 92.79745
602.6130, 93.10119
603.0952, 93.69468
603.5773, 93.92199
604.0594, 93.52812
604.5415, 93.08949
605.0236, 92.90896
605.5057, 92.86684
605.9879, 92.79640
606.4700, 92.66610
606.9521, 92.49282
607.4342, 92.28571
607.9163, 92.05031
608.3984, 91.82310
608.8806, 91.46184
609.3627, 91.31734
609.8448, 91.53918
610.3269, 91.88973
610.8090, 92.30653
611.2911, 92.69878
611.7733, 92.82012
612.2554, 92.38694
612.7375, 91.66921
613.2196, 91.27507
613.7017, 91.21584
614.1838, 91.38590
614.6660, 91.93632
615.1481, 92.48483
615.6302, 92.53382
616.1123, 92.12166
616.5944, 91.72205
617.0765, 91.31483
617.5587, 91.06030
618.0408, 91.18340
618.5229, 91.52834
619.0050, 91.74145
619.4871, 91.70082
619.9692, 91.58182
620.4514, 91.64900
620.9335, 91.96338
621.4156, 91.99255
621.8977, 91.37420
622.3798, 90.89489
622.8619, 90.82871
623.3441, 90.96937
623.8262, 91.11559
624.3083, 91.21403
624.7904, 91.22560
625.2725, 91.01138
625.7546, 90.69558
626.2367, 90.66557
626.7188, 90.96438
627.2009, 91.28036
627.6830, 91.49241
628.1652, 91.58949
628.6473, 91.51231
629.1294, 91.19794
629.6115, 90.94822
630.0936, 90.89712
630.5757, 90.84749
631.0579, 90.52974
631.5400, 90.09233
632.0221, 89.96651
632.5042, 90.37887
632.9863, 91.04483
633.4684, 91.43765
633.9506, 91.51399
634.4327, 91.53908
634.9148, 91.55496
635.3969, 91.47671
635.8790, 91.20903
636.3611, 90.84282
636.8433, 90.52412
637.3254, 90.27840
637.8075, 90.12354
638.2896, 90.13858
638.7717, 90.23649
639.2538, 90.21973
639.7360, 90.06699
640.2181, 89.97778
640.7002, 90.13560
641.1823, 90.43077
641.6644, 90.41347
642.1465, 89.72696
642.6287, 89.21239
643.1108, 88.87199
643.5929, 88.71230
644.0750, 88.89195
644.5571, 89.25845
645.0392, 89.40236
645.5214, 89.05129
646.0035, 88.51779
646.4856, 88.33852
646.9677, 88.51229
647.4498, 88.75381
647.9319, 89.10737
648.4141, 89.32111
648.8962, 89.01881
649.3783, 88.38087
649.8604, 88.11496
650.3425, 88.69679
650.8246, 89.08300
651.3068, 88.62540
651.7889, 87.87032
652.2710, 87.53168
652.7531, 87.66373
653.2352, 87.81316
653.7173, 87.60596
654.1995, 87.16628
654.6816, 87.03504
655.1637, 87.35652
655.6458, 87.64214
656.1279, 87.88599
656.6100, 88.01038
657.0922, 87.82352
657.5743, 87.45592
658.0564, 87.35323
658.5385, 87.86068
659.0206, 88.45387
659.5027, 88.60169
659.9849, 88.43317
660.4670, 88.32778
660.9491, 88.37490
661.4312, 88.39715
661.9133, 88.19523
662.3954, 87.80212
662.8776, 87.68982
663.3597, 88.30081
663.8418, 88.61194
664.3239, 88.24382
664.8060, 87.75188
665.2881, 87.62896
665.7703, 87.83910
666.2524, 87.98678
666.7345, 87.76514
667.2166, 87.42501
667.6987, 87.47522
668.1808, 87.90392
668.6630, 88.26678
669.1451, 88.45692
669.6272, 88.55399
670.1093, 88.55199
670.5914, 88.48488
671.0735, 88.69321
671.5557, 89.58549
672.0378, 90.25830
672.5199, 90.27934
673.0020, 90.01049
673.4841, 89.82738
673.9662, 89.78687
674.4484, 89.74299
674.9305, 89.55412
675.4126, 89.32258
675.8947, 89.39345
676.3768, 89.80138
676.8589, 90.38001
677.3411, 91.30235
677.8232, 92.15833
678.3053, 92.58257
678.7874, 92.66927
679.2695, 92.75414
679.7516, 92.99512
680.2338, 93.14993
680.7159, 93.00163
681.1980, 92.70345
681.6801, 92.41584
682.1622, 92.20541
682.6443, 92.26443
683.1265, 92.79990
683.6086, 93.67467
684.0907, 94.21993
684.5728, 94.31412
685.0549, 94.34031
685.5370, 94.23359
686.0192, 94.17190
686.5013, 94.22098
686.9834, 94.39919
687.4655, 94.77424
687.9476, 95.53146
688.4297, 96.19955
688.9119, 96.21255
689.3940, 95.84127
689.8761, 95.80386
690.3582, 96.21373
690.8403, 96.45866
691.3224, 96.02137
691.8046, 95.06921
692.2867, 94.38580
692.7688, 94.10952
693.2509, 93.89371
693.7330, 93.73535
694.2151, 93.62051
694.6973, 93.61652
695.1794, 93.64339
695.6615, 93.46259
696.1436, 92.87430
696.6257, 92.38672
697.1078, 92.65787
697.5900, 93.50124
698.0721, 94.34652
698.5542, 95.12609
699.0363, 95.61781
699.5184, 95.54477
700.0005, 95.15739
700.4827, 95.35507
700.9648, 96.93002
701.4469, 97.78399
701.9290, 97.27397
702.4111, 96.61648
702.8932, 96.51789
703.3754, 96.83875
703.8575, 97.16557
704.3396, 97.32481
704.8217, 97.47005
705.3038, 97.81771
705.7859, 98.31686
706.2681, 98.77147
706.7502, 99.19209
707.2323, 99.32636
707.7144, 98.84571
708.1965, 98.14739
708.6786, 98.26649
709.1607, 99.74355
709.6428, 100.4111
710.1249, 99.63679
710.6071, 98.50716
711.0892, 97.44180
711.5713, 96.51319
712.0534, 95.79267
712.5355, 95.28991
713.0176, 94.83793
713.4998, 94.28531
713.9819, 93.62647
714.4640, 92.71848
714.9461, 91.48103
715.4282, 90.55962
715.9103, 90.36092
716.3925, 90.48076
716.8746, 90.25945
717.3567, 89.63657
717.8388, 89.24604
718.3209, 89.47292
718.8030, 89.58064
719.2852, 89.03271
719.7673, 88.23968
720.2494, 87.77145
720.7315, 87.75271
721.2136, 87.93227
721.6957, 88.17510
722.1779, 88.38951
722.6600, 88.13802
723.1421, 87.33504
723.6242, 86.81464
724.1063, 86.89294
724.5884, 87.21658
725.0706, 87.51962
725.5527, 87.78342
726.0348, 87.72971
726.5169, 86.99681
726.9990, 86.37218
727.4811, 86.17587
727.9633, 86.18384
728.4454, 86.17289
728.9275, 86.11716
729.4096, 86.10638
729.8917, 86.21310
730.3738, 86.37264
730.8560, 86.47446
731.3381, 86.52062
731.8202, 86.39387
732.3023, 85.99612
732.7844, 85.61761
733.2665, 85.51233
733.7487, 85.59656
734.2308, 85.53625
734.7129, 85.21175
735.1950, 84.97119
735.6771, 84.85266
736.1592, 84.87009
736.6414, 85.18638
737.1235, 85.63272
737.6056, 85.77906
738.0877, 85.42442
738.5698, 84.94124
739.0519, 84.81274
739.5341, 85.01915
740.0162, 85.48006
740.4983, 86.29865
740.9804, 86.84354
741.4625, 86.71872
741.9446, 86.21121
742.4268, 85.79456
742.9089, 85.43510
743.3910, 85.30712
743.8731, 85.65439
744.3552, 85.98750
744.8373, 86.12421
745.3195, 86.07587
745.8016, 85.76871
746.2837, 85.24747
746.7658, 84.87309
747.2479, 85.03752
747.7300, 85.55140
748.2122, 85.96338
748.6943, 86.27609
749.1764, 86.27862
749.6585, 85.80683
750.1406, 85.28719
750.6227, 85.19190
751.1049, 85.50533
751.5870, 85.61221
752.0691, 85.34200
752.5512, 85.11328
753.0333, 84.94268
753.5154, 84.88599
753.9976, 85.07176
754.4797, 85.41576
754.9618, 85.67648
755.4439, 85.73582
755.9260, 85.64314
756.4081, 85.36926
756.8903, 84.98650
757.3724, 84.84660
757.8545, 85.00663
758.3366, 85.12554
758.8187, 84.95438
759.3008, 84.65421
759.7830, 84.62967
760.2651, 84.99011
760.7472, 85.37797
761.2293, 85.92701
761.7114, 86.35250
762.1935, 86.51598
762.6757, 86.49798
763.1578, 86.32821
763.6399, 86.03220
764.1220, 85.91328
764.6041, 86.31545
765.0862, 86.95358
765.5684, 87.45569
766.0505, 87.81065
766.5326, 87.98322
767.0147, 87.95924
767.4968, 87.81744
767.9789, 87.64076
768.4611, 87.42699
768.9432, 87.13329
769.4253, 86.37344
769.9074, 86.20479
770.3895, 87.58472
770.8716, 88.88303
771.3538, 88.86898
771.8359, 87.83118
772.3180, 86.84322
772.8001, 86.20776
773.2822, 85.77737
773.7643, 85.63303
774.2465, 85.54505
774.7286, 85.09285
775.2107, 84.31991
775.6928, 83.65988
776.1749, 83.35775
776.6570, 83.24796
777.1392, 82.99515
777.6213, 82.56028
778.1034, 82.26357
778.5855, 82.12263
779.0676, 82.09619
779.5497, 82.31802
780.0319, 82.55455
780.5140, 82.46516
780.9961, 82.01861
781.4782, 81.62730
781.9603, 81.31184
782.4424, 81.16139
782.9246, 81.31237
783.4067, 81.62199
783.8888, 81.92655
784.3709, 82.16866
784.8530, 82.30504
785.3351, 82.29454
785.8173, 82.16489
786.2994, 81.94129
786.7815, 81.62405
787.2636, 81.41729
787.7457, 81.35906
788.2278, 81.41813
788.7100, 81.60262
789.1921, 81.87988
789.6742, 82.11520
790.1563, 82.26054
790.6384, 82.45712
791.1205, 82.79630
791.6026, 83.10530
792.0847, 83.34968
792.5668, 83.47723
793.0490, 83.40400
793.5311, 83.10723
794.0132, 82.69820
794.4953, 82.14350
794.9774, 81.59621
795.4595, 81.35807
795.9417, 81.39798
796.4238, 81.57475
796.9059, 81.85961
797.3880, 81.96378
797.8701, 81.47665
798.3522, 80.46994
798.8344, 80.20435
799.3165, 81.19389
799.7986, 81.93024
800.2807, 82.06664
800.7628, 81.97439
801.2449, 81.73086
801.7271, 81.43229
802.2092, 81.31347
802.6913, 81.46262
803.1734, 81.71069
803.6555, 82.05193
804.1376, 82.39140
804.6198, 82.65816
805.1019, 82.82961
805.5840, 82.85304
806.0661, 82.70801
806.5482, 82.50486
807.0303, 82.37989
807.5125, 82.32947
807.9946, 82.34641
808.4767, 82.46297
808.9588, 82.43388
809.4409, 82.04491
809.9230, 81.69891
810.4052, 81.95419
810.8873, 82.80893
811.3694, 83.25971
811.8515, 83.02512
812.3336, 82.77409
812.8157, 82.59527
813.2979, 82.48258
813.7800, 82.42557
814.2621, 82.42970
814.7442, 82.50175
815.2263, 82.63490
815.7084, 82.88313
816.1906, 83.51945
816.6727, 84.23154
817.1548, 84.25075
817.6369, 83.62471
818.1190, 83.07120
818.6011, 82.90827
819.0833, 82.95645
819.5654, 82.95346
820.0475, 82.89213
820.5296, 83.02505
821.0117, 83.60751
821.4938, 83.85897
821.9760, 83.41446
822.4581, 82.69793
822.9402, 81.91040
823.4223, 81.12678
823.9044, 80.68636
824.3865, 80.94844
824.8687, 81.11891
825.3508, 80.69531
825.8329, 80.18785
826.3150, 80.17616
826.7971, 80.52574
827.2792, 80.71316
827.7614, 80.50518
828.2435, 80.21206
828.7256, 80.26258
829.2077, 80.54673
829.6898, 80.61326
830.1719, 80.45086
830.6541, 80.33102
831.1362, 80.35432
831.6183, 80.46342
832.1004, 80.62453
832.5825, 80.83363
833.0646, 80.82092
833.5468, 80.39384
834.0289, 80.04321
834.5110, 79.82761
834.9931, 79.70259
835.4752, 79.67945
835.9573, 79.71950
836.4395, 79.73754
836.9216, 79.71543
837.4037, 79.65936
837.8858, 79.47370
838.3679, 79.33191
838.8500, 79.48036
839.3322, 79.82043
839.8143, 80.13628
840.2964, 80.33500
840.7785, 80.29764
841.2606, 79.74474
841.7427, 78.90522
842.2249, 78.79140
842.7070, 79.43788
843.1891, 80.00710
843.6712, 80.34904
844.1533, 80.36970
844.6354, 79.87775
845.1176, 79.01450
845.5997, 78.47670
846.0818, 78.31715
846.5639, 78.41848
847.0460, 79.12809
847.5281, 79.71560
848.0103, 79.71944
848.4924, 79.43605
848.9745, 79.33493
849.4566, 79.50821
849.9387, 79.66331
850.4208, 79.66377
850.9030, 79.56693
851.3851, 79.30693
851.8672, 79.02727
852.3493, 79.01729
852.8314, 79.31109
853.3135, 79.75735
853.7957, 80.29810
854.2778, 80.72856
854.7599, 80.42238
855.2420, 79.40136
855.7241, 78.80884
856.2062, 78.80997
856.6884, 79.04811
857.1705, 79.44125
857.6526, 79.81285
858.1347, 79.82602
858.6168, 79.41292
859.0989, 78.93987
859.5811, 78.12759
860.0632, 77.61584
860.5453, 77.65582
861.0274, 77.97477
861.5095, 78.53565
861.9916, 79.18205
862.4738, 79.35099
862.9559, 78.52918
863.4380, 77.80469
863.9201, 78.11720
864.4022, 78.75856
864.8843, 78.72005
865.3665, 78.19809
865.8486, 78.15719
866.3307, 78.98814
866.8128, 79.94402
867.2949, 80.04052
867.7770, 79.48081
868.2592, 79.15034
868.7413, 79.05289
869.2234, 78.99356
869.7055, 78.92802
870.1876, 78.83635
870.6697, 78.67288
871.1519, 78.47501
871.6340, 78.47287
872.1161, 78.88796
872.5981, 79.07150
873.0803, 78.75804
873.5624, 78.46204
874.0445, 78.37589
874.5266, 78.44584
875.0087, 78.64458
875.4908, 78.98206
875.9730, 79.16402
876.4551, 78.98230
876.9372, 78.73107
877.4193, 78.52798
877.9014, 78.40089
878.3835, 78.43375
878.8657, 78.58455
879.3478, 78.62783
879.8299, 78.38113
880.3120, 78.16504
880.7941, 78.62979
881.2762, 79.47484
881.7584, 79.58382
882.2405, 78.94323
882.7226, 78.50967
883.2047, 78.71364
883.6868, 79.26699
884.1689, 79.83297
884.6511, 80.40266
885.1332, 80.62520
885.6153, 80.41525
886.0974, 80.08408
886.5795, 79.64078
887.0616, 79.15469
887.5438, 78.50131
888.0259, 77.85389
888.5080, 77.79680
888.9901, 78.79891
889.4722, 79.29293
889.9543, 78.59929
890.4365, 77.84354
890.9186, 77.55503
891.4007, 77.59904
891.8828, 77.87967
892.3649, 78.30532
892.8470, 78.48850
893.3292, 78.07748
893.8113, 77.50050
894.2934, 77.01604
894.7755, 76.71800
895.2576, 76.96573
895.7397, 77.63111
896.2219, 77.94495
896.7040, 77.49102
897.1861, 76.85287
897.6682, 77.01387
898.1503, 77.83402
898.6324, 78.12741
899.1146, 77.85168
899.5967, 77.66347
900.0788, 77.81611
900.5609, 77.90253
901.0430, 77.44970
901.5251, 76.59514
902.0073, 76.20312
902.4894, 76.42239
902.9715, 76.80354
903.4536, 77.64082
903.9357, 78.26579
904.4178, 78.20911
904.9000, 77.85637
905.3821, 77.73390
905.8642, 77.89363
906.3463, 78.05814
906.8284, 78.22482
907.3105, 78.30494
907.7927, 78.23002
908.2748, 78.06638
908.7569, 77.85558
909.2390, 77.62234
909.7211, 77.34606
910.2032, 76.96915
910.6854, 76.85220
911.1675, 77.58091
911.6496, 78.64220
912.1317, 79.22751
912.6138, 79.37288
913.0959, 79.28365
913.5781, 79.05495
914.0602, 78.98660
914.5423, 79.39863
915.0244, 80.11766
915.5065, 80.61086
915.9886, 80.87688
916.4708, 81.23120
916.9529, 81.74213
917.4350, 82.20734
917.9171, 82.53933
918.3992, 82.71915
918.8813, 82.66427
919.3635, 82.29805
919.8456, 82.30799
920.3277, 83.03936
920.8098, 83.58041
921.2919, 83.49305
921.7740, 83.37511
922.2562, 83.67452
922.7383, 84.27780
923.2204, 84.85820
923.7025, 85.47926
924.1846, 85.81163
924.6667, 85.65820
925.1489, 85.31116
925.6310, 84.86064
926.1131, 84.37198
926.5952, 83.91402
927.0773, 83.49491
927.5594, 83.08236
928.0416, 82.70348
928.5237, 82.25326
929.0058, 81.50832
929.4879, 80.69053
929.9700, 80.12392
930.4521, 79.82399
930.9343, 79.75888
931.4164, 79.90385
931.8985, 80.01840
932.3806, 79.74586
932.8627, 79.24928
933.3448, 79.09103
933.8270, 79.24182
934.3091, 79.39036
934.7912, 79.47498
935.2733, 79.46870
935.7554, 79.34435
936.2375, 79.13682
936.7197, 78.93359
937.2018, 78.74788
937.6839, 78.46519
938.1660, 77.97976
938.6481, 77.68236
939.1302, 77.87033
939.6124, 78.08107
940.0945, 77.76327
940.5766, 76.99316
941.0587, 76.49049
941.5408, 76.39066
942.0229, 76.33556
942.5051, 76.38445
942.9872, 76.39021
943.4693, 76.23276
943.9514, 76.01370
944.4335, 75.82058
944.9156, 75.67592
945.3978, 75.75858
945.8799, 76.56109
946.3620, 77.07929
946.8441, 76.42139
947.3262, 75.51319
947.8083, 75.42251
948.2905, 75.91465
948.7726, 76.05994
949.2547, 75.51197
949.7368, 75.01248
950.2189, 75.30960
950.7010, 75.91584
951.1832, 76.26693
951.6653, 76.37032
952.1474, 76.17799
952.6295, 75.75204
953.1116, 75.46977
953.5938, 75.58979
954.0759, 75.86167
954.5580, 75.91402
955.0400, 75.75306
955.5222, 75.26840
956.0043, 74.47466
956.4864, 74.16061
956.9685, 74.61729
957.4506, 75.30411
957.9327, 75.72534
958.4149, 75.90272
958.8970, 75.88223
959.3791, 75.61080
959.8612, 75.39960
960.3433, 75.24773
960.8254, 75.23953
961.3076, 75.55664
961.7897, 75.85374
962.2718, 75.55662
962.7539, 74.64474
963.2360, 74.25484
963.7181, 74.90926
964.2003, 75.28016
964.6824, 74.92797
965.1645, 74.60808
965.6466, 74.81425
966.1287, 75.28081
966.6108, 75.53667
967.0930, 75.51999
967.5751, 75.51641
968.0572, 75.63061
968.5393, 75.71215
969.0214, 75.63522
969.5035, 75.55375
969.9857, 75.67783
970.4678, 75.91070
970.9499, 75.92323
971.4320, 75.56346
971.9141, 75.37444
972.3962, 75.97290
972.8784, 76.58920
973.3605, 76.30131
973.8426, 75.68810
974.3247, 75.71795
974.8068, 76.44233
975.2889, 77.33396
975.7711, 78.15285
976.2532, 78.75536
976.7353, 78.80656
977.2174, 78.61977
977.6995, 78.80775
978.1816, 79.29076
978.6638, 79.65473
979.1459, 79.80464
979.6280, 80.00068
980.1101, 80.45576
980.5922, 81.07749
981.0743, 81.85868
981.5565, 82.67513
982.0386, 82.50629
982.5207, 81.32376
983.0028, 80.73047
983.4849, 81.39196
983.9670, 82.41990
984.4492, 82.86389
984.9313, 82.82339
985.4134, 82.74621
985.8955, 82.62685
986.3776, 82.49356
986.8597, 82.31980
987.3419, 82.27769
987.8240, 82.57008
988.3061, 82.80744
988.7882, 82.38291
989.2703, 81.30225
989.7524, 80.43321
990.2346, 79.92741
990.7167, 79.27969
991.1988, 78.20590
991.6809, 77.29138
992.1630, 76.92348
992.6451, 76.89360
993.1273, 76.90040
993.6094, 76.98711
994.0915, 76.79795
994.5736, 75.95506
995.0557, 75.35517
995.5378, 75.28566
996.0200, 75.39629
996.5021, 75.64204
996.9842, 75.84010
997.4663, 75.56364
997.9484, 74.65788
998.4305, 74.03252
998.9127, 74.07177
999.3948, 74.23998
999.8769, 74.53754
1000.359, 74.67645
1000.841, 74.22889
1001.323, 73.42419
1001.805, 72.86182
1002.287, 72.71265
1002.770, 72.82807
1003.252, 73.45174
1003.734, 73.97108
1004.216, 73.81228
1004.698, 73.35693
1005.180, 73.10318
1005.662, 73.07508
1006.144, 73.05836
1006.627, 72.96196
1007.109, 72.84705
1007.591, 72.73141
1008.073, 72.65129
1008.555, 72.60951
1009.037, 72.65087
1009.519, 73.01092
1010.001, 73.59105
1010.483, 73.78761
1010.966, 73.21809
1011.448, 72.39951
1011.930, 71.79296
1012.412, 71.44765
1012.894, 71.53059
1013.376, 71.95663
1013.858, 72.53689
1014.340, 73.17801
1014.823, 73.62505
1015.305, 73.70612
1015.787, 73.46690
1016.269, 72.73235
1016.751, 71.75420
1017.233, 71.61199
1017.715, 72.24120
1018.197, 72.88316
1018.679, 73.31487
1019.162, 73.47684
1019.644, 73.28955
1020.126, 72.91063
1020.608, 72.67893
1021.090, 72.58871
1021.572, 72.53943
1022.054, 72.52543
1022.536, 72.67151
1023.018, 73.04379
1023.501, 73.36617
1023.983, 73.40061
1024.465, 73.17887
1024.947, 72.71254
1025.429, 71.94984
1025.911, 71.66445
1026.393, 72.01494
1026.875, 72.07128
1027.358, 71.40103
1027.840, 70.68952
1028.322, 70.58872
1028.804, 71.00660
1029.286, 71.64623
1029.768, 72.68900
1030.250, 73.17812
1030.732, 72.95610
1031.214, 72.53945
1031.697, 72.02390
1032.179, 71.52254
1032.661, 71.10379
1033.143, 70.80456
1033.625, 70.83167
1034.107, 71.35795
1034.589, 71.78403
1035.071, 72.11864
1035.553, 72.32627
1036.036, 72.33345
1036.518, 72.27575
1037.000, 72.30527
1037.482, 72.39359
1037.964, 72.37216
1038.446, 72.19128
1038.928, 71.99552
1039.410, 71.70040
1039.893, 71.50584
1040.375, 71.52795
1040.857, 71.64089
1041.339, 71.64941
1041.821, 71.61935
1042.303, 71.93768
1042.785, 73.07145
1043.267, 73.65641
1043.750, 73.26104
1044.232, 72.77776
1044.714, 72.48643
1045.196, 72.27355
1045.678, 71.95810
1046.160, 71.60664
1046.642, 71.55666
1047.124, 72.06463
1047.606, 72.36218
1048.089, 72.17751
1048.571, 71.97512
1049.053, 71.97511
1049.535, 72.01871
1050.017, 71.96017
1050.499, 71.80035
1050.981, 71.57084
1051.463, 71.20792
1051.945, 70.96613
1052.428, 70.84321
1052.910, 70.92148
1053.392, 71.48882
1053.874, 72.08003
1054.356, 72.09453
1054.838, 71.72079
1055.320, 71.76724
1055.802, 72.62242
1056.285, 73.10983
1056.767, 72.56718
1057.249, 71.97727
1057.731, 71.79164
1058.213, 71.81117
1058.695, 71.83470
1059.177, 71.86440
1059.659, 72.00792
1060.141, 72.34411
1060.624, 72.53345
1061.106, 72.44383
1061.588, 72.19674
1062.070, 71.62514
1062.552, 71.10927
1063.034, 71.10102
1063.516, 71.45915
1063.998, 71.77133
1064.480, 71.96060
1064.963, 71.93016
1065.445, 71.41116
1065.927, 70.94466
1066.409, 70.79276
1066.891, 70.84505
1067.373, 71.13865
1067.855, 71.50419
1068.337, 71.53073
1068.820, 71.09415
1069.302, 70.85805
1069.784, 71.32085
1070.266, 71.78572
1070.748, 71.87991
1071.230, 71.81705
1071.712, 71.77613
1072.194, 71.75107
1072.677, 71.65690
1073.159, 71.47919
1073.641, 71.39051
1074.123, 71.59753
1074.605, 71.74390
1075.087, 71.63003
1075.569, 71.39437
1076.051, 71.03207
1076.533, 70.69066
1077.016, 70.70687
1077.498, 71.09242
1077.980, 71.23393
1078.462, 70.66459
1078.944, 70.09902
1079.426, 69.77013
1079.908, 69.69144
1080.390, 69.91854
1080.872, 70.37861
1081.354, 71.11153
1081.837, 72.02555
1082.319, 72.57839
1082.801, 72.53768
1083.283, 72.15969
1083.765, 71.12634
1084.247, 70.25255
1084.729, 70.18275
1085.211, 70.61475
1085.694, 71.27060
1086.176, 71.99703
1086.658, 72.42591
1087.140, 72.37434
1087.622, 72.18913
1088.104, 71.84545
1088.586, 71.60476
1089.068, 71.88485
1089.551, 72.18015
1090.033, 71.73592
1090.515, 70.75658
1090.997, 70.10939
1091.479, 70.01170
1091.961, 70.30489
1092.443, 71.39392
1092.925, 72.29263
1093.407, 72.40519
1093.890, 72.14293
1094.372, 71.76099
1094.854, 71.39054
1095.336, 71.26280
1095.818, 71.45754
1096.300, 71.57279
1096.782, 71.45584
1097.264, 71.27096
1097.746, 70.87453
1098.229, 70.63232
1098.711, 71.05733
1099.193, 71.75555
1099.675, 71.92475
1100.157, 71.45319
1100.639, 71.15327
1101.121, 71.45620
1101.603, 71.62496
1102.086, 71.39714
1102.568, 71.04346
1103.050, 70.57043
1103.532, 70.17056
1104.014, 70.14417
1104.496, 70.47483
1104.978, 70.76918
1105.460, 70.83656
1105.943, 71.07642
1106.425, 71.80287
1106.907, 72.41109
1107.389, 72.59829
1107.871, 72.56034
1108.353, 72.54659
1108.835, 72.50924
1109.317, 72.15382
1109.799, 71.21938
1110.281, 70.56128
1110.764, 70.51514
1111.246, 70.38990
1111.728, 69.66451
1112.210, 69.08247
1112.692, 69.36205
1113.174, 70.20896
1113.656, 70.91673
1114.138, 71.54124
1114.621, 71.75368
1115.103, 71.23655
1115.585, 70.82587
1116.067, 70.71381
1116.549, 70.65720
1117.031, 70.50952
1117.513, 70.33645
1117.995, 70.23585
1118.478, 70.20800
1118.960, 70.26625
1119.442, 70.48379
1119.924, 70.61397
1120.406, 70.62066
1120.888, 70.57278
1121.370, 70.50479
1121.852, 70.38456
1122.334, 70.15428
1122.817, 69.84492
1123.299, 69.60376
1123.781, 69.37923
1124.263, 69.47049
1124.745, 69.98476
1125.227, 70.46606
1125.709, 70.80505
1126.191, 70.96683
1126.673, 70.89439
1127.156, 70.67052
1127.638, 70.50356
1128.120, 70.39914
1128.602, 70.14680
1129.084, 69.71120
1129.566, 69.54202
1130.048, 69.75711
1130.530, 70.00333
1131.013, 70.08719
1131.495, 70.02366
1131.977, 69.75798
1132.459, 69.40751
1132.941, 69.72713
1133.423, 70.63330
1133.905, 70.84134
1134.387, 70.23946
1134.870, 69.59258
1135.352, 69.20237
1135.834, 69.01631
1136.316, 69.00432
1136.798, 69.10690
1137.280, 69.20609
1137.762, 69.31058
1138.244, 69.55582
1138.726, 69.85267
1139.208, 69.67071
1139.691, 68.95705
1140.173, 68.34524
1140.655, 68.22761
1141.137, 68.38454
1141.619, 68.66026
1142.101, 68.93703
1142.583, 68.99204
1143.065, 68.88419
1143.548, 68.71325
1144.030, 68.52234
1144.512, 68.35813
1144.994, 68.24285
1145.476, 68.24599
1145.958, 68.50525
1146.440, 68.80242
1146.922, 69.00704
1147.405, 69.05105
1147.887, 68.59686
1148.369, 68.00538
1148.851, 68.21259
1149.333, 69.19906
1149.815, 69.62935
1150.297, 68.59583
1150.779, 67.65816
1151.261, 67.92179
1151.744, 68.40739
1152.226, 68.36482
1152.708, 68.15828
1153.190, 68.41166
1153.672, 68.92272
1154.154, 68.82771
1154.636, 67.78557
1155.118, 67.20058
1155.600, 68.02799
1156.083, 68.63471
1156.565, 68.20529
1157.047, 67.62018
1157.529, 67.33450
1158.011, 67.39254
1158.493, 68.02283
1158.975, 69.20897
1159.457, 69.73891
1159.940, 68.87249
1160.422, 68.44978
1160.904, 69.00529
1161.386, 69.30278
1161.868, 68.64632
1162.350, 67.90078
1162.832, 67.92930
1163.314, 68.44669
1163.796, 68.53240
1164.279, 68.05660
1164.761, 67.90513
1165.243, 68.21239
1165.725, 68.34132
1166.207, 68.08539
1166.689, 67.95770
1167.171, 68.31318
1167.653, 68.77238
1168.135, 68.78237
1168.618, 68.42133
1169.100, 68.10378
1169.582, 67.83099
1170.064, 67.62100
1170.546, 67.47575
1171.028, 67.37039
1171.510, 67.29686
1171.992, 67.30237
1172.474, 67.44144
1172.957, 67.59686
1173.439, 67.51554
1173.921, 67.56185
1174.403, 67.53635
1174.885, 67.42327
1175.367, 67.41947
1175.849, 67.26972
1176.331, 67.16714
1176.814, 67.19316
1177.296, 67.21565
1177.778, 67.05616
1178.260, 66.91596
1178.742, 67.13522
1179.224, 67.43909
1179.706, 67.36961
1180.188, 67.11505
1180.671, 67.21001
1181.153, 67.64037
1181.635, 67.73228
1182.117, 67.04374
1182.599, 66.52554
1183.081, 67.08419
1183.563, 67.50384
1184.045, 66.71370
1184.527, 65.68281
1185.010, 65.32631
1185.492, 65.53789
1185.974, 65.96565
1186.456, 66.58192
1186.938, 66.98026
1187.420, 67.01943
1187.902, 66.95175
1188.384, 66.73721
1188.866, 66.51696
1189.349, 66.25874
1189.831, 66.11621
1190.313, 66.33370
1190.795, 66.78593
1191.277, 66.96386
1191.759, 66.79095
1192.241, 66.66238
1192.723, 66.55074
1193.206, 66.60065
1193.688, 66.88260
1194.170, 67.19949
1194.652, 67.48604
1195.134, 67.54498
1195.616, 67.02290
1196.098, 66.11283
1196.580, 65.57139
1197.063, 65.40514
1197.545, 65.82136
1198.027, 66.73763
1198.509, 67.29176
1198.991, 67.24670
1199.473, 66.92978
1199.955, 66.54020
1200.437, 66.20507
1200.919, 66.21093
1201.401, 65.77281
1201.884, 65.88346
1202.366, 65.25504
1202.848, 64.86921
1203.330, 64.80885
1203.812, 65.20523
1204.294, 66.02908
1204.776, 66.66109
1205.258, 66.75449
1205.741, 66.52854
1206.223, 65.75079
1206.705, 65.10334
1207.187, 65.26690
1207.669, 65.75130
1208.151, 66.02541
1208.633, 66.04407
1209.115, 65.85118
1209.598, 65.38950
1210.080, 65.09131
1210.562, 65.19009
1211.044, 65.20436
1211.526, 64.87654
1212.008, 64.65237
1212.490, 64.81841
1212.972, 65.10622
1213.454, 65.20218
1213.937, 65.14613
1214.419, 65.11971
1214.901, 65.10833
1215.383, 65.24217
1215.865, 65.57999
1216.347, 65.66302
1216.829, 65.35353
1217.311, 65.10403
1217.793, 65.19183
1218.276, 65.36399
1218.758, 65.28432
1219.240, 65.02744
1219.722, 64.72188
1220.204, 64.43262
1220.686, 64.38255
1221.168, 64.57732
1221.650, 65.10371
1222.133, 65.87129
1222.615, 66.24686
1223.097, 65.83514
1223.579, 65.31715
1224.061, 65.24778
1224.543, 65.43263
1225.025, 65.88453
1225.507, 66.31895
1225.990, 66.38080
1226.472, 66.17123
1226.954, 65.93682
1227.436, 65.71957
1227.918, 65.42836
1228.400, 64.96408
1228.882, 64.58228
1229.364, 64.08277
1229.846, 64.01601
1230.328, 65.20103
1230.811, 66.28254
1231.293, 66.09278
1231.775, 65.21019
1232.257, 64.66444
1232.739, 64.45454
1233.221, 64.45248
1233.703, 64.73380
1234.185, 64.85360
1234.668, 64.72517
1235.150, 64.81788
1235.632, 65.34107
1236.114, 65.60360
1236.596, 65.01189
1237.078, 64.12418
1237.560, 63.91863
1238.042, 64.20799
1238.525, 64.41741
1239.007, 64.57378
1239.489, 64.81509
1239.971, 65.09322
1240.453, 65.15168
1240.935, 64.94378
1241.417, 64.74152
1241.899, 64.71491
1242.381, 64.73695
1242.864, 64.62074
1243.346, 64.60450
1243.828, 65.02592
1244.310, 65.54373
1244.792, 65.91982
1245.274, 66.02206
1245.756, 65.41390
1246.238, 64.05212
1246.720, 63.53794
1247.203, 65.20011
1247.685, 65.94271
1248.167, 64.84594
1248.649, 63.87928
1249.131, 63.64337
1249.613, 63.71980
1250.095, 63.84572
1250.577, 64.00259
1251.059, 64.17355
1251.542, 64.34493
1252.024, 64.28783
1252.506, 64.00531
1252.988, 64.02579
1253.470, 64.37571
1253.952, 64.61662
1254.434, 64.61002
1254.916, 64.45675
1255.399, 64.21409
1255.881, 63.96740
1256.363, 63.73840
1256.845, 63.64624
1257.327, 64.01363
1257.809, 64.53654
1258.291, 64.69838
1258.773, 64.63801
1259.255, 64.83376
1259.738, 65.31364
1260.220, 65.55326
1260.702, 65.26457
1261.184, 65.00902
1261.666, 64.95843
1262.148, 64.98547
1262.630, 65.06722
1263.112, 65.18500
1263.594, 65.48081
1264.077, 65.67827
1264.559, 65.25630
1265.041, 64.33481
1265.523, 63.98559
1266.005, 64.33156
1266.487, 64.54222
1266.969, 64.58993
1267.451, 64.51276
1267.934, 64.31541
1268.416, 64.12600
1268.898, 64.01427
1269.380, 63.95299
1269.862, 63.89406
1270.344, 63.88960
1270.826, 64.07117
1271.308, 64.35550
1271.791, 64.67432
1272.273, 64.92805
1272.755, 64.90338
1273.237, 64.62480
1273.719, 64.25316
1274.201, 63.81919
1274.683, 63.68779
1275.165, 64.42313
1275.647, 64.91351
1276.130, 64.54375
1276.612, 64.04500
1277.094, 63.73376
1277.576, 63.60759
1278.058, 63.70807
1278.540, 63.94881
1279.022, 64.09707
1279.504, 64.15069
1279.986, 64.13359
1280.469, 64.00826
1280.951, 64.11547
1281.433, 64.51809
1281.915, 64.79257
1282.397, 64.78785
1282.879, 64.55180
1283.361, 64.08852
1283.843, 63.65775
1284.326, 63.56965
1284.808, 63.82058
##END=



