##NAMES=Berthierine
##RRUFFID=R110177
##IDEAL CHEMISTRY=(Fe^2+^,Fe^3+^,Al)_3_(Si,Al)_2_O_5_(OH)_4_
##LOCALITY=DeMix quarry, Mont St-Hilaire, Quebec
##OWNER=RRUFF
##SOURCE=Donald Doell
##DESCRIPTION=Hexagonal prisms, with gray transparent terminations. We sample the terminations.
##STATUS=The identification of this mineral has been confirmed only by single crystal X-ray diffraction.
##URL=rruff.info/R110177
200.8969, 158.6745
201.3790, 159.1864
201.8611, 159.6530
202.3433, 159.9753
202.8254, 160.1377
203.3075, 160.3630
203.7896, 160.6909
204.2717, 161.0665
204.7538, 161.3876
205.2360, 161.6903
205.7181, 161.8006
206.2002, 161.4907
206.6823, 160.6394
207.1644, 160.1363
207.6465, 160.0703
208.1287, 160.3797
208.6108, 160.9749
209.0929, 161.9869
209.5750, 162.9226
210.0571, 163.4876
210.5392, 163.6643
211.0214, 163.5262
211.5035, 162.8706
211.9856, 161.9745
212.4677, 161.9007
212.9498, 162.9968
213.4319, 164.1458
213.9140, 164.5390
214.3962, 163.7958
214.8783, 163.7423
215.3604, 164.8440
215.8425, 166.7090
216.3246, 167.7168
216.8067, 167.7201
217.2889, 167.1764
217.7710, 166.1546
218.2531, 164.1760
218.7352, 163.1833
219.2173, 163.6552
219.6994, 165.2357
220.1816, 166.1863
220.6637, 166.2282
221.1458, 166.1435
221.6279, 166.4629
222.1100, 167.4376
222.5921, 168.1502
223.0743, 168.4869
223.5564, 168.5070
224.0385, 168.4668
224.5206, 168.2808
225.0027, 168.1758
225.4848, 168.3443
225.9670, 169.0098
226.4491, 169.4074
226.9312, 169.4119
227.4133, 169.1028
227.8954, 168.8196
228.3775, 168.4638
228.8597, 168.2860
229.3418, 168.4655
229.8239, 169.1385
230.3060, 169.8377
230.7881, 170.4713
231.2702, 171.0948
231.7524, 171.9715
232.2345, 173.1884
232.7166, 174.5077
233.1987, 175.8443
233.6808, 177.4586
234.1629, 178.4754
234.6451, 178.6312
235.1272, 178.1327
235.6093, 177.8878
236.0914, 177.9461
236.5735, 178.1886
237.0556, 178.5602
237.5378, 179.0939
238.0199, 179.7127
238.5020, 180.5470
238.9841, 181.4767
239.4662, 181.9358
239.9483, 181.6397
240.4305, 181.2748
240.9126, 181.1755
241.3947, 181.3233
241.8768, 181.7934
242.3589, 182.6589
242.8410, 183.8411
243.3232, 185.1137
243.8053, 186.5837
244.2874, 187.9872
244.7695, 189.2354
245.2516, 190.5652
245.7337, 191.1701
246.2159, 190.6386
246.6980, 189.4086
247.1801, 188.9588
247.6622, 189.7792
248.1443, 190.6249
248.6264, 190.8202
249.1086, 189.8503
249.5907, 189.4874
250.0728, 189.9611
250.5549, 191.0022
251.0370, 191.9013
251.5191, 192.6039
252.0013, 193.2609
252.4834, 193.9928
252.9655, 194.9751
253.4476, 195.5411
253.9297, 195.5181
254.4118, 195.1591
254.8940, 194.9956
255.3761, 194.9783
255.8582, 195.2459
256.3403, 195.9651
256.8224, 197.4263
257.3046, 198.3266
257.7867, 198.4426
258.2688, 198.1271
258.7509, 198.0851
259.2330, 198.4785
259.7151, 198.8056
260.1973, 198.8198
260.6794, 198.3939
261.1615, 198.2529
261.6436, 198.5491
262.1257, 199.0020
262.6078, 199.1248
263.0900, 198.8228
263.5721, 198.4295
264.0542, 198.0857
264.5363, 197.8264
265.0184, 197.3412
265.5005, 196.4990
265.9827, 195.5832
266.4648, 194.9902
266.9469, 194.7850
267.4290, 194.7384
267.9111, 194.8619
268.3932, 195.1817
268.8754, 195.1709
269.3575, 194.7511
269.8396, 194.1151
270.3217, 193.5143
270.8038, 192.9789
271.2859, 192.3459
271.7681, 191.5271
272.2502, 190.5340
272.7323, 189.6809
273.2144, 189.0073
273.6965, 188.4199
274.1786, 187.8667
274.6608, 187.3742
275.1429, 186.7204
275.6250, 185.7251
276.1071, 184.4899
276.5892, 183.8662
277.0714, 184.0469
277.5535, 184.3172
278.0356, 183.9282
278.5177, 182.8026
278.9998, 181.8150
279.4819, 181.1651
279.9641, 180.7801
280.4462, 180.3853
280.9283, 179.9764
281.4104, 179.5682
281.8925, 179.2104
282.3746, 178.9070
282.8568, 178.4491
283.3389, 177.7759
283.8210, 176.9556
284.3031, 176.1268
284.7852, 175.2762
285.2673, 174.5442
285.7495, 174.1079
286.2316, 173.9393
286.7137, 173.5759
287.1958, 172.8459
287.6779, 172.0656
288.1600, 172.1027
288.6422, 172.9740
289.1243, 173.5924
289.6064, 172.8463
290.0885, 171.0940
290.5706, 170.3858
291.0527, 171.1262
291.5349, 172.4105
292.0170, 172.8744
292.4991, 172.5522
292.9812, 171.9014
293.4633, 170.8709
293.9454, 169.6801
294.4276, 169.0756
294.9097, 169.1427
295.3918, 169.6177
295.8739, 170.4976
296.3560, 171.6247
296.8381, 172.2876
297.3203, 171.8358
297.8024, 170.7412
298.2845, 169.9076
298.7666, 169.3503
299.2487, 169.0581
299.7308, 169.2501
300.2130, 169.7294
300.6951, 169.9189
301.1772, 169.1615
301.6593, 168.1920
302.1414, 168.3961
302.6235, 169.7371
303.1057, 170.7456
303.5878, 169.7388
304.0699, 167.5719
304.5520, 165.8391
305.0341, 165.1815
305.5162, 165.0698
305.9984, 165.1519
306.4805, 165.3786
306.9626, 165.4157
307.4447, 164.8296
307.9268, 163.9800
308.4089, 163.3586
308.8911, 163.2123
309.3732, 163.1400
309.8553, 162.8278
310.3374, 162.3242
310.8195, 161.7834
311.3016, 161.1914
311.7838, 160.6602
312.2659, 160.3355
312.7480, 160.3803
313.2301, 160.3095
313.7122, 159.5418
314.1943, 158.4407
314.6765, 157.7895
315.1586, 158.3665
315.6407, 159.2028
316.1228, 159.7136
316.6049, 159.7868
317.0870, 159.6856
317.5692, 159.4439
318.0513, 159.1181
318.5334, 158.7873
319.0155, 158.5498
319.4976, 158.2516
319.9797, 157.8409
320.4619, 157.3148
320.9440, 156.6583
321.4261, 155.5861
321.9082, 154.5052
322.3903, 153.8063
322.8724, 153.8167
323.3546, 153.9665
323.8367, 154.2538
324.3188, 154.6563
324.8009, 154.7261
325.2830, 154.1138
325.7651, 153.3204
326.2473, 152.6720
326.7294, 151.9588
327.2115, 151.6738
327.6936, 152.2110
328.1757, 153.3438
328.6578, 153.9501
329.1400, 153.3881
329.6221, 152.8317
330.1042, 152.8241
330.5863, 154.1938
331.0684, 154.7098
331.5505, 153.6821
332.0327, 151.9232
332.5148, 151.2960
332.9969, 152.6275
333.4790, 153.9805
333.9611, 154.7367
334.4432, 154.8030
334.9254, 154.5615
335.4075, 153.7486
335.8896, 152.8447
336.3717, 152.5267
336.8538, 152.9268
337.3359, 153.6272
337.8180, 154.7170
338.3001, 156.1771
338.7823, 156.7336
339.2644, 156.0544
339.7465, 155.1251
340.2286, 154.9764
340.7107, 155.7651
341.1928, 156.4186
341.6750, 156.6845
342.1571, 156.6790
342.6392, 156.9496
343.1213, 157.6077
343.6034, 157.9748
344.0855, 157.2285
344.5677, 155.4464
345.0498, 154.4711
345.5319, 154.6647
346.0140, 155.5379
346.4961, 156.3564
346.9782, 157.1077
347.4604, 157.5022
347.9425, 157.0883
348.4246, 156.1360
348.9067, 155.5928
349.3888, 155.4981
349.8709, 155.8616
350.3531, 157.1012
350.8352, 158.9261
351.3173, 160.2531
351.7994, 160.2095
352.2815, 159.5196
352.7636, 159.3863
353.2458, 159.8087
353.7279, 160.4248
354.2100, 161.1292
354.6921, 161.7874
355.1742, 162.1428
355.6563, 161.8954
356.1385, 161.5525
356.6206, 161.6191
357.1027, 162.0320
357.5848, 162.4739
358.0669, 162.7706
358.5490, 163.0021
359.0312, 163.2662
359.5133, 163.6547
359.9954, 163.9224
360.4775, 163.6988
360.9596, 163.2541
361.4417, 163.1615
361.9239, 163.9661
362.4060, 164.9455
362.8881, 165.7172
363.3702, 166.2180
363.8523, 166.6400
364.3344, 166.8635
364.8166, 167.1048
365.2987, 167.6154
365.7808, 168.7912
366.2629, 169.8918
366.7450, 170.7612
367.2271, 171.3927
367.7093, 171.7866
368.1914, 171.5977
368.6735, 171.3853
369.1556, 171.5153
369.6377, 172.3323
370.1198, 173.0694
370.6020, 173.6531
371.0841, 174.1275
371.5662, 174.6596
372.0483, 175.2617
372.5304, 175.8938
373.0125, 176.5272
373.4947, 177.1082
373.9768, 177.8550
374.4589, 178.9092
374.9410, 180.0241
375.4231, 180.7111
375.9052, 180.7334
376.3874, 181.0338
376.8695, 182.0538
377.3516, 183.7783
377.8337, 184.7914
378.3158, 184.9283
378.7979, 184.8675
379.2801, 185.2968
379.7622, 186.2445
380.2443, 187.1890
380.7264, 188.0715
381.2085, 188.8643
381.6906, 189.5302
382.1728, 190.0674
382.6549, 190.4037
383.1370, 190.4930
383.6191, 190.3336
384.1012, 189.8253
384.5833, 188.8469
385.0655, 187.8646
385.5476, 187.5737
386.0297, 187.8271
386.5118, 188.1155
386.9939, 188.3266
387.4760, 188.3742
387.9582, 188.0434
388.4403, 187.3264
388.9224, 186.6127
389.4045, 186.2649
389.8866, 186.1155
390.3687, 185.9345
390.8509, 185.7429
391.3330, 185.4016
391.8151, 184.6692
392.2972, 183.6558
392.7793, 182.7935
393.2614, 182.3086
393.7436, 182.0496
394.2257, 181.9700
394.7078, 182.2509
395.1899, 182.2390
395.6720, 181.3799
396.1541, 180.1347
396.6363, 179.2452
397.1184, 179.2100
397.6005, 179.2598
398.0826, 179.2251
398.5647, 179.1235
399.0468, 178.6795
399.5290, 177.5806
400.0111, 176.2882
400.4932, 175.1744
400.9753, 174.4713
401.4574, 173.6258
401.9395, 172.4319
402.4217, 171.0279
402.9038, 170.1429
403.3859, 170.1585
403.8680, 170.1346
404.3501, 169.5618
404.8322, 168.2226
405.3144, 167.1264
405.7965, 166.3520
406.2786, 165.7413
406.7607, 164.9816
407.2428, 163.9916
407.7249, 163.3124
408.2071, 163.2695
408.6892, 163.7235
409.1713, 163.8277
409.6534, 163.5780
410.1355, 162.9850
410.6176, 161.7858
411.0998, 160.1346
411.5819, 159.0379
412.0640, 158.8557
412.5461, 159.0312
413.0282, 158.6047
413.5103, 157.6708
413.9925, 156.7839
414.4746, 156.2015
414.9567, 155.8843
415.4388, 155.8611
415.9209, 156.1678
416.4030, 156.4498
416.8852, 156.4866
417.3673, 156.2894
417.8494, 155.8803
418.3315, 154.8784
418.8136, 153.9901
419.2957, 153.9229
419.7779, 154.5159
420.2600, 154.6909
420.7421, 153.3897
421.2242, 151.8296
421.7063, 150.9462
422.1884, 151.2007
422.6706, 151.5459
423.1527, 151.7554
423.6348, 151.8829
424.1169, 152.0310
424.5990, 152.2759
425.0811, 152.4845
425.5633, 152.6231
426.0454, 152.6917
426.5275, 152.6581
427.0096, 152.2083
427.4917, 151.8999
427.9738, 152.2950
428.4560, 154.0693
428.9381, 155.0683
429.4202, 154.6884
429.9023, 153.4363
430.3844, 153.2065
430.8665, 154.4458
431.3487, 155.4387
431.8308, 155.0651
432.3129, 153.2260
432.7950, 152.1878
433.2771, 152.0986
433.7592, 152.4926
434.2414, 152.7074
434.7235, 152.7884
435.2056, 153.3533
435.6877, 155.0312
436.1698, 157.0137
436.6519, 157.2659
437.1341, 155.8811
437.6162, 154.5723
438.0983, 154.9356
438.5804, 156.1449
439.0625, 156.7141
439.5446, 156.2664
440.0268, 155.6077
440.5089, 155.2167
440.9910, 155.1515
441.4731, 155.5303
441.9552, 157.1664
442.4373, 158.6631
442.9195, 158.9186
443.4016, 157.9358
443.8837, 157.1051
444.3658, 157.0488
444.8479, 157.3444
445.3300, 157.6771
445.8122, 158.3348
446.2943, 158.5652
446.7764, 157.9232
447.2585, 156.7521
447.7406, 155.9303
448.2227, 155.4589
448.7049, 155.4124
449.1870, 155.9817
449.6691, 157.3549
450.1512, 158.1986
450.6333, 158.4536
451.1154, 158.2411
451.5976, 157.5787
452.0797, 156.2943
452.5618, 155.1224
453.0439, 154.0218
453.5260, 153.1935
454.0081, 153.5302
454.4903, 155.2801
454.9724, 156.5855
455.4545, 156.1403
455.9366, 154.2094
456.4187, 152.5978
456.9008, 151.3716
457.3830, 150.4640
457.8651, 149.8638
458.3472, 149.5408
458.8293, 149.4487
459.3114, 149.6681
459.7935, 150.0033
460.2757, 150.2368
460.7578, 150.3742
461.2399, 150.4589
461.7220, 150.5751
462.2041, 150.6197
462.6862, 150.4887
463.1684, 150.1578
463.6505, 149.7070
464.1326, 149.0628
464.6147, 148.3651
465.0968, 147.7839
465.5789, 147.5897
466.0611, 147.3172
466.5432, 146.7161
467.0253, 145.8354
467.5074, 145.2001
467.9895, 144.9634
468.4716, 144.9155
468.9538, 145.0253
469.4359, 145.6614
469.9180, 145.5917
470.4001, 144.3284
470.8822, 142.6913
471.3643, 141.9153
471.8465, 142.1849
472.3286, 142.8118
472.8107, 143.8105
473.2928, 145.0296
473.7749, 145.5835
474.2570, 145.3798
474.7392, 144.9692
475.2213, 144.7601
475.7034, 144.7129
476.1855, 144.5795
476.6676, 144.3546
477.1497, 143.9718
477.6319, 143.0970
478.1140, 141.9421
478.5961, 141.2136
479.0782, 141.5994
479.5603, 142.3382
480.0424, 142.5678
480.5246, 142.3284
481.0067, 141.9456
481.4888, 141.4904
481.9709, 141.0572
482.4530, 140.7264
482.9352, 140.5085
483.4173, 140.4029
483.8994, 140.4359
484.3815, 140.5735
484.8636, 140.7638
485.3457, 141.2796
485.8279, 141.5534
486.3100, 141.3063
486.7921, 140.5353
487.2742, 140.0020
487.7563, 139.8860
488.2384, 139.8242
488.7206, 139.5857
489.2027, 138.9985
489.6848, 138.7488
490.1669, 139.0220
490.6490, 139.4463
491.1311, 139.2841
491.6133, 138.3912
492.0954, 137.9576
492.5775, 138.5801
493.0596, 139.8798
493.5417, 140.4844
494.0238, 140.3887
494.5060, 139.8664
494.9881, 138.7629
495.4702, 137.4050
495.9523, 136.6522
496.4344, 136.7009
496.9165, 136.9826
497.3987, 136.8758
497.8808, 136.6000
498.3629, 136.5721
498.8450, 137.3148
499.3271, 138.0677
499.8092, 138.3022
500.2914, 138.0906
500.7735, 137.8258
501.2556, 137.5721
501.7377, 137.3789
502.2198, 137.2816
502.7019, 137.3103
503.1841, 137.3697
503.6662, 137.5402
504.1483, 137.6988
504.6304, 137.7001
505.1125, 137.4883
505.5946, 137.1949
506.0768, 136.7118
506.5589, 136.1478
507.0410, 136.1147
507.5231, 136.7952
508.0052, 137.4876
508.4873, 137.7992
508.9695, 137.7212
509.4516, 137.7063
509.9337, 137.7585
510.4158, 137.8640
510.8979, 138.0857
511.3800, 138.3719
511.8622, 138.4725
512.3443, 138.2760
512.8264, 137.9299
513.3085, 137.5472
513.7906, 137.1618
514.2728, 136.8943
514.7549, 136.7992
515.2370, 136.8616
515.7191, 137.1781
516.2012, 137.7781
516.6833, 138.1651
517.1655, 137.9218
517.6476, 137.4711
518.1297, 137.1738
518.6118, 137.1905
519.0939, 137.2597
519.5760, 137.5208
520.0582, 137.7962
520.5403, 137.6496
521.0224, 136.5413
521.5045, 135.7778
521.9866, 135.8619
522.4688, 136.7915
522.9509, 137.2000
523.4330, 136.9360
523.9151, 136.5070
524.3972, 136.3102
524.8793, 136.3518
525.3615, 136.2799
525.8436, 136.0139
526.3257, 135.7578
526.8078, 135.8916
527.2899, 136.3342
527.7720, 136.7055
528.2542, 136.8878
528.7363, 136.8887
529.2184, 136.6098
529.7005, 136.1106
530.1826, 135.7005
530.6647, 135.6686
531.1469, 135.7514
531.6290, 135.7348
532.1111, 135.5887
532.5932, 135.3535
533.0753, 135.0433
533.5574, 134.6553
534.0396, 134.1922
534.5217, 133.1550
535.0038, 132.6320
535.4859, 133.1733
535.9680, 134.3591
536.4501, 134.8278
536.9323, 134.1698
537.4144, 133.4888
537.8965, 133.1869
538.3786, 133.2722
538.8607, 133.3852
539.3428, 133.5551
539.8250, 133.6542
540.3071, 133.5338
540.7892, 133.2143
541.2713, 132.8633
541.7534, 132.4865
542.2355, 132.1416
542.7177, 131.8946
543.1998, 131.7433
543.6819, 131.6888
544.1640, 131.8192
544.6461, 131.9855
545.1282, 132.0535
545.6104, 132.0318
546.0925, 131.9776
546.5746, 132.0274
547.0567, 131.9820
547.5388, 131.6134
548.0209, 130.6911
548.5031, 130.1364
548.9852, 130.4084
549.4673, 131.0088
549.9494, 131.4201
550.4315, 131.6497
550.9136, 131.6457
551.3958, 131.2703
551.8779, 130.6874
552.3600, 130.4157
552.8421, 130.5287
553.3242, 130.6830
553.8063, 130.7025
554.2885, 130.6238
554.7706, 130.7735
555.2527, 131.1694
555.7348, 131.6092
556.2169, 131.9671
556.6990, 132.2303
557.1812, 132.3954
557.6633, 132.4866
558.1454, 132.3879
558.6275, 131.8027
559.1096, 130.9784
559.5917, 130.3379
560.0739, 130.0478
560.5560, 129.9955
561.0381, 130.2589
561.5202, 130.7537
562.0023, 131.1283
562.4844, 131.1513
562.9666, 131.1558
563.4487, 131.3465
563.9308, 131.8279
564.4129, 131.9674
564.8950, 131.5576
565.3771, 131.0299
565.8593, 130.7789
566.3414, 130.9198
566.8235, 130.8021
567.3056, 130.2738
567.7877, 129.5934
568.2698, 129.1630
568.7520, 128.9823
569.2341, 129.1119
569.7162, 129.7368
570.1983, 130.5786
570.6804, 131.0972
571.1625, 131.3392
571.6447, 131.6351
572.1268, 132.5467
572.6089, 133.4209
573.0910, 133.4823
573.5731, 132.5399
574.0552, 131.6511
574.5374, 131.2091
575.0195, 131.0857
575.5016, 131.1567
575.9837, 131.7604
576.4658, 132.1026
576.9479, 131.9334
577.4301, 131.4968
577.9122, 131.2587
578.3943, 131.2277
578.8764, 131.3840
579.3585, 131.8272
579.8406, 132.4729
580.3228, 132.7006
580.8049, 132.4681
581.2870, 132.0884
581.7691, 131.6850
582.2512, 131.2968
582.7333, 131.0963
583.2155, 131.1073
583.6975, 131.1857
584.1796, 131.0822
584.6617, 130.9827
585.1439, 131.2423
585.6260, 132.2129
586.1081, 133.1039
586.5902, 133.4244
587.0723, 133.3254
587.5544, 133.0968
588.0366, 132.4949
588.5187, 132.1031
589.0008, 132.2773
589.4829, 132.9708
589.9650, 133.2474
590.4471, 132.7881
590.9293, 132.3194
591.4114, 132.2536
591.8935, 132.6983
592.3756, 132.6606
592.8577, 131.9556
593.3398, 131.2642
593.8220, 131.5079
594.3041, 132.5280
594.7862, 133.0222
595.2683, 132.6452
595.7504, 131.9639
596.2325, 131.6326
596.7147, 131.5823
597.1968, 131.6340
597.6789, 131.6574
598.1610, 131.7975
598.6431, 132.2618
599.1252, 132.9707
599.6074, 133.5589
600.0895, 134.1164
600.5716, 134.3419
601.0537, 133.9682
601.5358, 132.7918
602.0179, 131.9156
602.5001, 131.3471
602.9822, 131.0852
603.4643, 131.2446
603.9464, 132.0677
604.4285, 132.2724
604.9106, 131.5669
605.3928, 130.6187
605.8749, 130.5783
606.3570, 131.3648
606.8391, 131.8838
607.3212, 131.6390
607.8033, 131.1609
608.2855, 131.2775
608.7676, 131.8705
609.2497, 132.5112
609.7318, 133.2168
610.2139, 133.6825
610.6960, 133.4927
611.1782, 132.6609
611.6603, 132.0227
612.1424, 131.8990
612.6245, 132.0348
613.1066, 132.3209
613.5887, 132.9634
614.0709, 133.2445
614.5530, 132.9706
615.0351, 132.5152
615.5172, 132.2413
615.9993, 132.1506
616.4814, 132.2676
616.9636, 132.6865
617.4457, 133.1778
617.9278, 133.2693
618.4099, 132.9902
618.8920, 132.6603
619.3741, 132.3881
619.8563, 132.1531
620.3384, 131.8749
620.8205, 131.5871
621.3026, 131.4635
621.7847, 131.7055
622.2668, 132.0762
622.7490, 132.4365
623.2311, 132.7832
623.7132, 133.0137
624.1953, 132.9530
624.6774, 132.8714
625.1595, 132.9778
625.6417, 133.5326
626.1238, 133.7461
626.6059, 133.4237
627.0880, 132.9764
627.5701, 133.0249
628.0522, 133.6413
628.5344, 134.0443
629.0165, 134.0048
629.4986, 133.7621
629.9807, 133.6896
630.4628, 133.8003
630.9449, 134.1611
631.4271, 135.1013
631.9092, 136.1153
632.3913, 136.5102
632.8734, 136.3977
633.3555, 136.4904
633.8376, 137.5751
634.3198, 138.6360
634.8019, 138.9559
635.2840, 138.2683
635.7661, 137.8854
636.2482, 137.9556
636.7303, 138.3545
637.2125, 139.1072
637.6946, 140.5642
638.1767, 141.2917
638.6588, 141.0342
639.1409, 140.3931
639.6230, 140.1844
640.1052, 140.3885
640.5873, 140.7411
641.0694, 141.2095
641.5515, 141.7334
642.0336, 142.1666
642.5157, 142.5646
642.9979, 143.1007
643.4800, 144.0010
643.9621, 144.9457
644.4442, 145.7486
644.9263, 146.4060
645.4084, 146.9067
645.8906, 147.1086
646.3727, 147.2674
646.8548, 147.4361
647.3369, 147.5665
647.8190, 148.0808
648.3011, 149.1306
648.7833, 150.3314
649.2654, 151.4110
649.7475, 152.3787
650.2296, 153.2745
650.7117, 154.1167
651.1938, 154.8390
651.6760, 155.1821
652.1581, 155.3129
652.6402, 155.7735
653.1223, 156.8303
653.6044, 157.9923
654.0865, 158.9184
654.5687, 159.6345
655.0508, 160.1990
655.5329, 160.6569
656.0150, 160.9508
656.4971, 160.9946
656.9792, 160.8335
657.4614, 160.6808
657.9435, 160.2465
658.4256, 160.2529
658.9077, 161.1363
659.3898, 162.8360
659.8719, 163.8091
660.3541, 163.9598
660.8362, 163.8310
661.3183, 163.7401
661.8004, 163.6792
662.2825, 163.6371
662.7646, 163.6187
663.2468, 163.5239
663.7289, 163.2094
664.2110, 162.7883
664.6931, 162.4136
665.1752, 162.1458
665.6573, 161.8570
666.1395, 161.4861
666.6216, 161.0648
667.1037, 160.6319
667.5858, 159.9933
668.0679, 159.6265
668.5500, 159.7748
669.0322, 160.1253
669.5143, 159.9638
669.9964, 159.2027
670.4785, 158.3280
670.9606, 157.3731
671.4427, 156.4805
671.9249, 156.2445
672.4070, 156.5682
672.8891, 156.6806
673.3712, 155.8237
673.8533, 154.6886
674.3354, 154.1642
674.8176, 154.2088
675.2997, 154.1662
675.7818, 153.5479
676.2639, 152.8637
676.7460, 152.4256
677.2281, 152.3249
677.7103, 152.3034
678.1924, 152.5356
678.6745, 152.6543
679.1566, 152.3397
679.6387, 151.4712
680.1208, 150.7466
680.6030, 150.2231
681.0851, 149.7677
681.5672, 149.1911
682.0493, 148.5217
682.5314, 147.8246
683.0135, 147.0445
683.4957, 146.4260
683.9778, 146.4199
684.4599, 146.7433
684.9420, 146.8646
685.4241, 146.4749
685.9063, 145.9663
686.3884, 145.5600
686.8705, 145.1619
687.3526, 144.4093
687.8347, 142.8329
688.3168, 141.5693
688.7990, 141.0704
689.2811, 141.1718
689.7632, 140.7219
690.2453, 139.6236
690.7274, 138.6599
691.2095, 138.4966
691.6917, 138.8107
692.1738, 138.5993
692.6559, 137.8699
693.1380, 137.0130
693.6201, 136.0337
694.1022, 135.2335
694.5844, 134.9972
695.0665, 135.4673
695.5486, 135.8571
696.0307, 135.7903
696.5128, 135.6026
696.9949, 135.6082
697.4771, 136.2977
697.9592, 136.0961
698.4413, 134.5858
698.9234, 132.7264
699.4055, 131.7425
699.8876, 131.6532
700.3698, 131.4483
700.8519, 130.8982
701.3340, 130.3415
701.8161, 130.3266
702.2982, 130.6870
702.7803, 131.0166
703.2625, 131.3147
703.7446, 131.3498
704.2267, 130.7046
704.7088, 129.6950
705.1909, 129.0198
705.6730, 129.1584
706.1552, 129.3305
706.6373, 129.3751
707.1194, 129.3012
707.6015, 129.1354
708.0836, 128.8331
708.5657, 128.5666
709.0479, 128.3866
709.5300, 128.2970
710.0121, 128.4049
710.4942, 128.6961
710.9763, 128.8499
711.4584, 128.5462
711.9406, 128.0378
712.4227, 127.6373
712.9048, 127.3592
713.3869, 127.0760
713.8690, 126.6911
714.3511, 126.3093
714.8333, 125.9822
715.3154, 125.6998
715.7975, 125.5823
716.2796, 125.8439
716.7617, 126.0140
717.2438, 125.6586
717.7260, 124.7233
718.2081, 123.8302
718.6902, 122.9585
719.1723, 122.3989
719.6544, 122.8161
720.1365, 123.8062
720.6187, 124.3021
721.1008, 123.9416
721.5829, 123.4419
722.0650, 123.2086
722.5471, 123.2074
723.0292, 123.3899
723.5114, 124.1133
723.9935, 124.5557
724.4756, 124.4036
724.9577, 123.9652
725.4398, 123.8174
725.9219, 124.1932
726.4041, 124.0521
726.8862, 122.8961
727.3683, 121.3801
727.8504, 121.4139
728.3325, 122.7453
728.8146, 123.6550
729.2968, 123.0055
729.7789, 121.8451
730.2610, 121.2888
730.7431, 121.2167
731.2252, 121.2307
731.7073, 121.2697
732.1895, 121.2524
732.6716, 121.1165
733.1537, 120.8706
733.6358, 120.6571
734.1179, 120.4344
734.6000, 120.3153
735.0822, 120.3560
735.5643, 120.5477
736.0464, 120.8501
736.5285, 121.2741
737.0106, 121.6078
737.4927, 121.6735
737.9749, 121.5597
738.4570, 121.4435
738.9391, 121.3298
739.4212, 121.0517
739.9033, 120.3534
740.3854, 119.5651
740.8676, 118.8741
741.3497, 118.2465
741.8318, 117.9569
742.3139, 118.0279
742.7960, 118.4020
743.2781, 119.2037
743.7603, 120.5913
744.2424, 121.2235
744.7245, 120.9832
745.2066, 120.3353
745.6887, 119.5477
746.1708, 118.7453
746.6530, 118.2995
747.1351, 118.3171
747.6172, 118.4630
748.0993, 118.6089
748.5814, 118.6966
749.0635, 118.6527
749.5457, 118.3326
750.0278, 118.0790
750.5099, 117.8352
750.9920, 117.7417
751.4741, 118.1015
751.9562, 119.1625
752.4384, 119.5116
752.9205, 118.7676
753.4026, 117.6391
753.8847, 117.2798
754.3668, 117.5271
754.8489, 117.7164
755.3311, 117.5860
755.8132, 117.4404
756.2953, 117.7169
756.7774, 118.1354
757.2595, 118.1990
757.7416, 117.0630
758.2238, 116.3739
758.7059, 116.9557
759.1880, 118.1216
759.6701, 118.3361
760.1522, 117.1878
760.6343, 116.4589
761.1165, 116.7161
761.5986, 117.5461
762.0807, 118.0887
762.5628, 118.3312
763.0449, 118.1847
763.5270, 117.2538
764.0092, 116.2335
764.4913, 115.7904
764.9734, 115.7975
765.4555, 115.8506
765.9376, 115.8988
766.4197, 115.8684
766.9019, 115.6340
767.3840, 115.2752
767.8661, 115.1737
768.3482, 115.3664
768.8303, 115.7250
769.3124, 116.3454
769.7946, 117.0400
770.2767, 117.0148
770.7588, 116.3491
771.2409, 115.7824
771.7230, 115.9276
772.2051, 116.2740
772.6873, 116.2506
773.1694, 115.9129
773.6515, 115.7661
774.1336, 116.2498
774.6157, 116.7084
775.0978, 116.8178
775.5800, 116.5946
776.0621, 116.5339
776.5442, 116.7215
777.0263, 116.8257
777.5084, 116.5673
777.9905, 116.0627
778.4727, 115.9214
778.9548, 116.1235
779.4369, 116.3255
779.9190, 116.2421
780.4011, 116.0639
780.8832, 116.0400
781.3654, 116.1796
781.8475, 116.1028
782.3296, 115.2138
782.8117, 114.5190
783.2938, 114.6226
783.7759, 115.6383
784.2581, 116.0788
784.7402, 115.7644
785.2223, 115.4334
785.7044, 115.6864
786.1865, 116.3551
786.6686, 116.7859
787.1508, 116.9629
787.6329, 117.0277
788.1150, 117.2710
788.5971, 117.3386
789.0792, 116.6839
789.5613, 115.1132
790.0435, 114.1098
790.5256, 114.5330
791.0077, 115.1661
791.4898, 115.3027
791.9719, 114.7891
792.4540, 114.9853
792.9362, 116.0805
793.4183, 117.0820
793.9004, 116.8031
794.3825, 115.7962
794.8646, 115.8141
795.3467, 116.9949
795.8289, 118.0288
796.3110, 117.8843
796.7931, 117.2291
797.2752, 116.4804
797.7573, 115.5409
798.2394, 115.2338
798.7216, 116.0885
799.2037, 117.0981
799.6858, 117.6642
800.1679, 117.7569
800.6500, 117.6287
801.1321, 117.2675
801.6143, 116.7608
802.0964, 115.9672
802.5785, 115.1470
803.0606, 114.8676
803.5427, 115.2222
804.0248, 115.6496
804.5070, 115.6916
804.9891, 115.7598
805.4712, 116.2834
805.9533, 117.6897
806.4354, 118.2474
806.9175, 117.6234
807.3997, 116.6234
807.8818, 115.6774
808.3639, 114.8017
808.8460, 114.5248
809.3281, 114.8965
809.8102, 115.4685
810.2924, 116.0347
810.7745, 116.4641
811.2566, 116.4583
811.7387, 115.9163
812.2208, 115.6038
812.7029, 116.0240
813.1851, 116.6497
813.6672, 117.2000
814.1493, 117.7959
814.6314, 117.6523
815.1135, 116.4755
815.5956, 115.2952
816.0778, 115.0226
816.5599, 115.4777
817.0420, 115.9280
817.5241, 116.3378
818.0062, 116.5498
818.4883, 116.1879
818.9705, 115.7267
819.4526, 115.6887
819.9347, 116.2064
820.4168, 116.5951
820.8989, 116.6055
821.3810, 116.5493
821.8632, 116.6380
822.3453, 116.9269
822.8274, 116.7150
823.3095, 115.9178
823.7916, 115.1701
824.2737, 115.0399
824.7559, 115.3106
825.2380, 115.6679
825.7201, 116.0755
826.2022, 116.2155
826.6843, 115.5948
827.1664, 114.8722
827.6486, 114.4984
828.1307, 114.5617
828.6128, 114.6447
829.0949, 114.7601
829.5770, 114.8664
830.0591, 114.9100
830.5413, 114.9064
831.0234, 115.1121
831.5055, 115.5220
831.9876, 115.8168
832.4697, 115.7084
832.9518, 115.4048
833.4340, 115.0234
833.9161, 114.6003
834.3982, 114.4468
834.8803, 114.8575
835.3624, 115.3898
835.8445, 115.8967
836.3267, 116.3708
836.8088, 116.6657
837.2909, 116.7699
837.7730, 116.7407
838.2551, 116.5954
838.7372, 116.3453
839.2194, 115.9381
839.7015, 115.4164
840.1836, 115.0257
840.6657, 114.9594
841.1478, 115.0208
841.6299, 115.1864
842.1121, 115.4145
842.5942, 115.3906
843.0763, 114.9094
843.5584, 114.5026
844.0405, 114.2752
844.5226, 114.2670
845.0048, 114.9185
845.4869, 116.1538
845.9690, 116.8060
846.4511, 115.7062
846.9332, 114.2160
847.4153, 113.8751
847.8975, 114.3641
848.3796, 114.7784
848.8617, 114.8856
849.3438, 114.7683
849.8259, 114.2137
850.3080, 113.5183
850.7902, 113.5387
851.2723, 114.4033
851.7544, 115.2361
852.2365, 115.8539
852.7186, 116.2081
853.2007, 116.0540
853.6829, 115.5580
854.1650, 115.1753
854.6471, 115.1427
855.1292, 115.1829
855.6113, 115.1488
856.0934, 115.1012
856.5756, 115.1690
857.0577, 115.5108
857.5398, 115.6188
858.0219, 115.3474
858.5040, 114.9614
858.9861, 114.9155
859.4683, 115.1515
859.9504, 115.3573
860.4325, 115.4466
860.9146, 115.5263
861.3967, 115.8017
861.8788, 116.0761
862.3610, 116.0872
862.8431, 115.4754
863.3252, 115.1615
863.8073, 115.5705
864.2894, 115.9454
864.7715, 115.3733
865.2537, 113.7814
865.7358, 112.7391
866.2179, 112.3567
866.7000, 112.5172
867.1821, 113.5340
867.6642, 114.8355
868.1464, 115.4784
868.6285, 115.2207
869.1106, 115.0949
869.5927, 115.7611
870.0748, 116.4811
870.5569, 116.8011
871.0391, 116.7047
871.5212, 116.1889
872.0033, 115.1054
872.4854, 114.1889
872.9675, 114.0731
873.4496, 114.5184
873.9318, 115.1835
874.4139, 115.9942
874.8960, 116.3425
875.3781, 115.1938
875.8602, 114.0545
876.3423, 114.1132
876.8245, 115.3986
877.3066, 115.7745
877.7887, 114.8387
878.2708, 113.9026
878.7529, 113.4165
879.2350, 113.3673
879.7172, 113.9266
880.1993, 114.9801
880.6814, 115.8153
881.1635, 116.0084
881.6456, 115.8731
882.1277, 115.4392
882.6099, 114.8514
883.0920, 114.5355
883.5741, 114.8132
884.0562, 115.0292
884.5383, 115.0909
885.0204, 115.0180
885.5026, 114.7633
885.9847, 114.3504
886.4668, 114.1893
886.9489, 114.4704
887.4310, 114.8751
887.9131, 115.0850
888.3953, 115.1738
888.8774, 115.2618
889.3595, 115.5887
889.8416, 115.5801
890.3237, 115.8484
890.8058, 114.9646
891.2880, 115.5955
891.7701, 115.7802
892.2522, 114.1825
892.7343, 114.8864
893.2164, 114.6680
893.6985, 114.4117
894.1807, 115.4396
894.6628, 114.1012
895.1449, 115.1087
895.6270, 115.1797
896.1091, 115.6794
896.5912, 115.2509
897.0734, 115.1092
897.5555, 115.8958
898.0376, 116.1683
898.5197, 115.6330
899.0018, 116.1599
899.4839, 114.7891
899.9661, 115.0835
900.4482, 116.0965
900.9303, 115.6079
901.4124, 116.1517
901.8945, 116.3023
902.3766, 114.6660
902.8588, 116.1374
903.3409, 116.2648
903.8230, 115.0122
904.3051, 116.3771
904.7872, 115.3148
905.2693, 115.1188
905.7515, 115.5749
906.2336, 115.3512
906.7157, 116.1992
907.1978, 116.0148
907.6799, 115.7381
908.1620, 115.8640
908.6442, 115.6187
909.1263, 115.9507
909.6084, 115.6065
910.0905, 115.9809
910.5726, 116.5182
911.0547, 115.8084
911.5369, 116.4189
912.0190, 114.9820
912.5011, 115.2582
912.9832, 115.3499
913.4653, 116.5366
913.9474, 115.1097
914.4296, 115.3383
914.9117, 116.2717
915.3938, 116.2189
915.8759, 116.5785
916.3580, 115.7172
916.8401, 116.0028
917.3223, 115.9723
917.8044, 117.0342
918.2865, 117.2336
918.7686, 116.3931
919.2507, 115.5570
919.7328, 116.6974
920.2150, 115.9645
920.6971, 116.2422
921.1792, 115.4761
921.6613, 115.6112
922.1434, 115.7321
922.6255, 116.3150
923.1077, 116.2465
923.5898, 116.4961
924.0719, 116.4450
924.5540, 116.7032
925.0361, 116.9271
925.5182, 117.0775
926.0004, 116.8914
926.4825, 117.3343
926.9646, 116.4361
927.4467, 116.0467
927.9288, 116.0191
928.4109, 117.6988
928.8931, 117.7916
929.3752, 115.9875
929.8573, 117.5920
930.3394, 117.0994
930.8215, 117.2959
931.3036, 117.4883
931.7858, 117.3413
932.2679, 117.1825
932.7500, 117.3551
933.2321, 117.5251
933.7142, 117.3076
934.1964, 116.5653
934.6785, 116.5734
935.1606, 117.7363
935.6427, 118.6520
936.1248, 118.4130
936.6069, 117.4082
937.0891, 116.9669
937.5712, 116.9926
938.0533, 117.0358
938.5354, 116.6521
939.0175, 116.4106
939.4996, 116.8580
939.9818, 117.6925
940.4639, 117.9829
940.9460, 117.3422
941.4281, 117.1774
941.9102, 117.9419
942.3923, 118.8832
942.8745, 118.5343
943.3566, 117.3566
943.8387, 116.7080
944.3208, 116.9895
944.8029, 117.5741
945.2850, 118.5760
945.7672, 119.4220
946.2493, 119.4728
946.7314, 118.4454
947.2135, 117.8057
947.6956, 117.5937
948.1777, 117.6370
948.6599, 117.9640
949.1420, 118.4094
949.6241, 118.5558
950.1062, 118.4154
950.5883, 118.1817
951.0704, 117.8905
951.5526, 117.5956
952.0347, 117.2848
952.5168, 116.9895
952.9989, 116.8140
953.4810, 116.7267
953.9631, 116.9363
954.4453, 117.5879
954.9274, 118.4114
955.4095, 119.1222
955.8916, 119.6374
956.3737, 119.7758
956.8558, 119.3441
957.3380, 118.7873
957.8201, 117.8992
958.3022, 117.2037
958.7843, 117.2964
959.2664, 118.4023
959.7485, 119.0103
960.2307, 119.0398
960.7128, 118.8385
961.1949, 118.7096
961.6770, 118.5408
962.1591, 118.0977
962.6412, 117.3862
963.1234, 116.8191
963.6055, 116.3603
964.0876, 116.2997
964.5697, 116.9137
965.0518, 117.9702
965.5339, 118.3805
966.0161, 118.1445
966.4982, 118.0170
966.9803, 118.4145
967.4624, 118.8373
967.9445, 118.6573
968.4266, 118.1279
968.9088, 117.6720
969.3909, 117.2457
969.8730, 117.1552
970.3551, 117.5748
970.8372, 118.1183
971.3193, 118.4870
971.8015, 118.6594
972.2836, 118.2116
972.7657, 117.0860
973.2478, 116.3710
973.7299, 117.6187
974.2120, 119.1056
974.6942, 119.2253
975.1763, 117.8450
975.6584, 116.8849
976.1405, 116.3969
976.6226, 116.4269
977.1047, 117.2327
977.5869, 118.3676
978.0690, 118.4162
978.5511, 117.6566
979.0332, 117.1495
979.5153, 117.5198
979.9974, 117.9488
980.4796, 117.9663
980.9617, 117.7922
981.4438, 117.7404
981.9259, 117.8558
982.4080, 117.9776
982.8901, 118.0971
983.3723, 118.2326
983.8544, 118.5145
984.3365, 118.7873
984.8186, 118.6470
985.3007, 118.0788
985.7828, 117.6981
986.2650, 118.0322
986.7471, 118.3364
987.2292, 118.2066
987.7113, 117.7645
988.1934, 117.7628
988.6755, 118.2316
989.1577, 118.3422
989.6398, 117.4954
990.1219, 116.6116
990.6040, 117.1267
991.0861, 118.2966
991.5682, 118.8568
992.0504, 117.8484
992.5325, 117.1322
993.0146, 116.9302
993.4967, 116.9513
993.9788, 116.9328
994.4609, 116.8861
994.9431, 116.9163
995.4252, 117.0296
995.9073, 117.1590
996.3894, 117.2479
996.8715, 117.3421
997.3536, 117.5322
997.8358, 117.7924
998.3179, 117.8591
998.8000, 117.7273
999.2821, 117.3599
999.7642, 116.5886
1000.246, 115.7993
1000.728, 115.9339
1001.211, 116.6852
1001.693, 117.2415
1002.175, 117.1926
1002.657, 117.2798
1003.139, 118.2009
1003.621, 119.1290
1004.103, 119.2129
1004.585, 118.1962
1005.068, 117.9688
1005.550, 118.6224
1006.032, 119.1424
1006.514, 118.5287
1006.996, 117.4871
1007.478, 116.6545
1007.960, 116.1348
1008.442, 116.2717
1008.924, 118.1911
1009.407, 119.4109
1009.889, 119.2615
1010.371, 118.3104
1010.853, 117.5982
1011.335, 117.1248
1011.817, 117.0042
1012.299, 117.3510
1012.781, 117.6622
1013.263, 117.2736
1013.746, 116.8541
1014.228, 117.2396
1014.710, 118.8009
1015.192, 119.2604
1015.674, 118.2910
1016.156, 117.2838
1016.638, 117.0974
1017.120, 117.4470
1017.603, 117.9011
1018.085, 118.3749
1018.567, 118.5564
1019.049, 117.9227
1019.531, 117.4373
1020.013, 117.4706
1020.495, 117.7421
1020.977, 117.8334
1021.459, 117.7353
1021.942, 117.8109
1022.424, 118.1287
1022.906, 118.4364
1023.388, 118.5471
1023.870, 118.5034
1024.352, 118.2720
1024.834, 117.8301
1025.316, 117.6516
1025.799, 117.8701
1026.281, 118.1369
1026.763, 118.3451
1027.245, 118.4875
1027.727, 118.5790
1028.209, 118.5986
1028.691, 118.4608
1029.173, 117.9823
1029.656, 117.5779
1030.138, 117.4970
1030.620, 117.5552
1031.102, 117.5849
1031.584, 117.6174
1032.066, 117.3191
1032.548, 116.6243
1033.030, 116.1336
1033.512, 116.5274
1033.995, 117.2853
1034.477, 117.9412
1034.959, 118.4256
1035.441, 118.5098
1035.923, 117.7719
1036.405, 117.1666
1036.887, 116.8408
1037.369, 116.7927
1037.851, 117.1740
1038.334, 117.8432
1038.816, 118.2533
1039.298, 118.2340
1039.780, 118.1715
1040.262, 118.2094
1040.744, 118.3820
1041.226, 118.7923
1041.708, 119.4731
1042.191, 119.7688
1042.673, 119.6545
1043.155, 119.4098
1043.637, 119.1585
1044.119, 118.8859
1044.601, 118.5141
1045.083, 118.1065
1045.565, 117.8215
1046.047, 117.6612
1046.530, 117.7176
1047.012, 118.0950
1047.494, 118.5382
1047.976, 118.8293
1048.458, 118.9480
1048.940, 118.6499
1049.422, 117.9344
1049.904, 117.4266
1050.386, 117.7460
1050.869, 118.1768
1051.351, 118.1064
1051.833, 117.7538
1052.315, 118.2360
1052.797, 119.7389
1053.279, 120.6138
1053.761, 120.2991
1054.243, 119.5354
1054.726, 119.2141
1055.208, 119.0638
1055.690, 118.6212
1056.172, 117.5100
1056.654, 117.1187
1057.136, 117.9631
1057.618, 118.7473
1058.100, 118.5304
1058.583, 117.6595
1059.065, 117.5393
1059.547, 118.0409
1060.029, 118.5708
1060.511, 119.2079
1060.993, 119.3572
1061.475, 118.1748
1061.957, 116.6570
1062.439, 116.2213
1062.922, 117.0001
1063.404, 117.7568
1063.886, 118.4156
1064.368, 118.8203
1064.850, 118.6471
1065.332, 118.2886
1065.814, 118.1677
1066.296, 118.2868
1066.778, 118.2647
1067.261, 118.0903
1067.743, 117.6929
1068.225, 116.9212
1068.707, 116.1404
1069.189, 116.1157
1069.671, 116.6110
1070.153, 117.1364
1070.635, 117.6489
1071.118, 117.8746
1071.600, 117.3826
1072.082, 116.8701
1072.564, 116.8089
1073.046, 117.1371
1073.528, 117.0255
1074.010, 116.4991
1074.492, 115.8648
1074.974, 115.0031
1075.457, 114.4233
1075.939, 114.6809
1076.421, 115.4193
1076.903, 116.0673
1077.385, 116.6861
1077.867, 116.8789
1078.349, 116.5636
1078.831, 116.0861
1079.313, 115.6308
1079.796, 115.2883
1080.278, 115.2529
1080.760, 115.4904
1081.242, 115.7249
1081.724, 115.7535
1082.206, 115.9562
1082.688, 116.5132
1083.170, 117.1477
1083.652, 117.3211
1084.135, 117.1263
1084.617, 116.8773
1085.099, 116.6197
1085.581, 116.4234
1086.063, 116.3257
1086.545, 116.3140
1087.027, 116.4196
1087.509, 116.6167
1087.992, 116.6571
1088.474, 116.5408
1088.956, 116.2628
1089.438, 115.6762
1089.920, 115.1803
1090.402, 115.3068
1090.884, 115.7015
1091.366, 115.8735
1091.849, 115.6794
1092.331, 115.4757
1092.813, 115.2664
1093.295, 115.0332
1093.777, 114.5802
1094.259, 114.1828
1094.741, 114.5559
1095.223, 115.4653
1095.705, 116.0832
1096.188, 115.8100
1096.670, 115.6001
1097.152, 115.6217
1097.634, 115.7506
1098.116, 115.7764
1098.598, 115.7596
1099.080, 116.1245
1099.562, 116.8993
1100.044, 117.3458
1100.527, 116.7644
1101.009, 115.9679
1101.491, 115.1963
1101.973, 114.5975
1102.455, 114.8914
1102.937, 116.0956
1103.419, 116.6458
1103.901, 116.0457
1104.384, 115.1324
1104.866, 114.1664
1105.348, 113.6577
1105.830, 114.5002
1106.312, 117.0647
1106.794, 117.8856
1107.276, 116.5386
1107.758, 115.1213
1108.240, 114.6049
1108.723, 114.5342
1109.205, 114.1003
1109.687, 113.5620
1110.169, 113.4242
1110.651, 114.0717
1111.133, 114.7147
1111.615, 115.4209
1112.097, 115.8904
1112.579, 115.7123
1113.062, 115.1275
1113.544, 115.0403
1114.026, 115.3616
1114.508, 115.6314
1114.990, 115.7181
1115.472, 115.5858
1115.954, 114.9796
1116.436, 114.3628
1116.919, 114.4177
1117.401, 115.0918
1117.883, 115.6765
1118.365, 116.1114
1118.847, 116.3218
1119.329, 116.1146
1119.811, 115.7972
1120.293, 115.5051
1120.776, 115.2741
1121.258, 115.2730
1121.740, 115.5530
1122.222, 115.4493
1122.704, 114.6932
1123.186, 114.0833
1123.668, 114.8497
1124.150, 115.9228
1124.632, 116.0809
1125.115, 115.0722
1125.597, 114.3495
1126.079, 113.9475
1126.561, 113.8080
1127.043, 114.0397
1127.525, 114.3166
1128.007, 113.9044
1128.489, 113.2192
1128.971, 113.0221
1129.454, 113.7691
1129.936, 114.2815
1130.418, 114.4408
1130.900, 114.3765
1131.382, 114.0329
1131.864, 113.5813
1132.346, 113.6213
1132.828, 114.0134
1133.311, 114.2992
1133.793, 114.0362
1134.275, 113.9800
1134.757, 114.5107
1135.239, 115.0744
1135.721, 115.0616
1136.203, 114.5618
1136.685, 114.3999
1137.167, 114.5657
1137.650, 114.7064
1138.132, 114.5860
1138.614, 114.4139
1139.096, 114.2564
1139.578, 114.1296
1140.060, 114.0364
1140.542, 113.9747
1141.024, 114.2063
1141.506, 114.7893
1141.989, 115.1112
1142.471, 114.3285
1142.953, 113.4147
1143.435, 113.1083
1143.917, 113.3483
1144.399, 113.6502
1144.881, 114.0316
1145.363, 114.3453
1145.846, 114.5568
1146.328, 114.6724
1146.810, 114.5866
1147.292, 114.4740
1147.774, 114.5759
1148.256, 114.9418
1148.738, 115.0132
1149.220, 114.6489
1149.703, 114.4918
1150.185, 114.8526
1150.667, 115.3560
1151.149, 115.3702
1151.631, 115.1770
1152.113, 115.2688
1152.595, 115.9083
1153.077, 116.2581
1153.559, 116.2727
1154.042, 115.9829
1154.524, 115.2420
1155.006, 114.3472
1155.488, 113.9719
1155.970, 113.9788
1156.452, 114.0544
1156.934, 114.1502
1157.416, 114.2006
1157.898, 114.1343
1158.381, 114.1290
1158.863, 114.2911
1159.345, 114.6276
1159.827, 115.4052
1160.309, 116.4308
1160.791, 116.9056
1161.273, 115.8392
1161.755, 114.9940
1162.238, 114.8509
1162.720, 115.0487
1163.202, 115.3047
1163.684, 115.5863
1164.166, 115.6836
1164.648, 115.5969
1165.130, 115.4208
1165.612, 115.1419
1166.094, 114.8545
1166.577, 114.4428
1167.059, 114.1557
1167.541, 114.5877
1168.023, 115.6498
1168.505, 116.1111
1168.987, 115.8474
1169.469, 115.3454
1169.951, 114.4749
1170.433, 113.9360
1170.916, 114.5110
1171.398, 115.6446
1171.880, 115.8362
1172.362, 115.1045
1172.844, 114.9622
1173.326, 115.7735
1173.808, 116.5505
1174.290, 116.3727
1174.773, 115.9076
1175.255, 115.6028
1175.737, 115.4700
1176.219, 115.5515
1176.701, 115.8585
1177.183, 116.2090
1177.665, 116.6304
1178.147, 116.8164
1178.630, 116.3361
1179.112, 115.5792
1179.594, 114.7411
1180.076, 113.8499
1180.558, 113.9824
1181.040, 115.2843
1181.522, 116.1697
1182.004, 115.8550
1182.486, 115.2645
1182.969, 115.3556
1183.451, 115.7687
1183.933, 116.1096
1184.415, 116.3565
1184.897, 116.3341
1185.379, 115.9921
1185.861, 115.6899
1186.343, 115.6296
1186.825, 115.6785
1187.308, 115.7080
1187.790, 115.7298
1188.272, 115.7779
1188.754, 115.9399
1189.236, 115.7991
1189.718, 115.2627
1190.200, 114.9142
1190.682, 115.4193
1191.165, 116.0880
1191.647, 115.8962
1192.129, 115.2211
1192.611, 114.8236
1193.093, 114.9164
1193.575, 115.1633
1194.057, 115.6237
1194.539, 115.9812
1195.021, 115.9519
1195.504, 115.7002
1195.986, 115.2848
1196.468, 114.8379
1196.950, 114.7569
1197.432, 115.2964
1197.914, 115.7448
1198.396, 116.0301
1198.878, 116.3262
1199.360, 117.0522
1199.843, 117.7285
1200.325, 117.4557
1200.807, 116.4628
1201.289, 115.7912
1201.771, 115.7643
1202.253, 115.7488
1202.735, 115.6797
1203.217, 115.6550
1203.700, 115.5679
1204.182, 115.5569
1204.664, 115.4992
1205.146, 115.4179
1205.628, 115.4927
1206.110, 115.7624
1206.592, 116.1858
1207.074, 116.8449
1207.557, 117.3968
1208.039, 117.4121
1208.521, 117.0475
1209.003, 116.2492
1209.485, 115.0984
1209.967, 114.9304
1210.449, 116.4674
1210.931, 117.5243
1211.413, 117.5822
1211.896, 117.1945
1212.378, 116.8897
1212.860, 116.7456
1213.342, 116.9983
1213.824, 117.6719
1214.306, 118.0122
1214.788, 117.8751
1215.270, 117.6269
1215.752, 117.3343
1216.235, 117.0517
1216.717, 116.9499
1217.199, 116.8598
1217.681, 116.3532
1218.163, 116.5458
1218.645, 115.2308
1219.127, 116.6421
1219.609, 117.6866
1220.092, 117.6879
1220.574, 117.2730
1221.056, 117.4586
1221.538, 117.7959
1222.020, 117.5242
1222.502, 116.3976
1222.984, 115.7812
1223.466, 115.7988
1223.948, 116.1194
1224.431, 116.7600
1224.913, 117.3585
1225.395, 117.2969
1225.877, 116.8990
1226.359, 116.5690
1226.841, 116.3515
1227.323, 116.4495
1227.805, 116.9631
1228.287, 117.3723
1228.770, 117.4202
1229.252, 117.3320
1229.734, 117.5032
1230.216, 117.6897
1230.698, 117.4696
1231.180, 116.6161
1231.662, 116.3668
1232.144, 116.8435
1232.627, 117.1943
1233.109, 116.8828
1233.591, 116.5142
1234.073, 117.0448
1234.555, 117.8522
1235.037, 118.0449
1235.519, 117.4413
1236.001, 116.8792
1236.484, 116.3512
1236.966, 115.9585
1237.448, 115.5982
1237.930, 115.6410
1238.412, 117.1167
1238.894, 118.8910
1239.376, 119.2100
1239.858, 117.7560
1240.340, 117.0503
1240.823, 117.1223
1241.305, 117.4867
1241.787, 118.1536
1242.269, 118.6261
1242.751, 118.2058
1243.233, 117.4938
1243.715, 117.2392
1244.197, 117.4830
1244.679, 117.9706
1245.162, 118.6964
1245.644, 119.2000
1246.126, 119.3400
1246.608, 119.0484
1247.090, 117.7921
1247.572, 116.4087
1248.054, 115.8512
1248.536, 116.1395
1249.019, 116.6106
1249.501, 117.2429
1249.983, 117.8052
1250.465, 118.1535
1250.947, 118.4130
1251.429, 118.7921
1251.911, 118.9803
1252.393, 118.5108
1252.875, 117.4515
1253.358, 117.3131
1253.840, 117.9508
1254.322, 118.4024
1254.804, 118.0163
1255.286, 117.5374
1255.768, 116.9875
1256.250, 116.6889
1256.732, 117.1382
1257.214, 118.1375
1257.697, 118.3640
1258.179, 117.9745
1258.661, 117.7049
1259.143, 117.9322
1259.625, 118.2840
1260.107, 118.8418
1260.589, 119.2549
1261.071, 119.0947
1261.554, 118.5787
1262.036, 118.3505
1262.518, 118.3809
1263.000, 118.5430
1263.482, 119.0281
1263.964, 119.2132
1264.446, 118.8535
1264.928, 118.6374
1265.411, 119.4760
1265.893, 120.6720
1266.375, 120.8961
1266.857, 120.3473
1267.339, 119.5760
1267.821, 118.0162
1268.303, 117.7532
1268.785, 119.1787
1269.267, 120.5850
1269.750, 120.5488
1270.232, 119.7620
1270.714, 118.7358
1271.196, 117.7333
1271.678, 117.4366
1272.160, 118.2221
1272.642, 118.4556
1273.124, 118.0076
1273.606, 117.7773
1274.089, 118.7366
1274.571, 119.8855
1275.053, 120.5270
1275.535, 120.6237
1276.017, 120.0596
1276.499, 118.6281
1276.981, 118.1580
1277.463, 118.6725
1277.946, 119.2114
1278.428, 118.9277
1278.910, 118.7205
1279.392, 119.5137
1279.874, 120.4403
1280.356, 120.3324
1280.838, 119.2307
1281.320, 118.9966
1281.802, 119.5501
1282.285, 119.9465
1282.767, 119.5545
1283.249, 119.0548
1283.731, 118.5236
1284.213, 118.1662
1284.695, 118.2142
1285.177, 118.6004
1285.659, 119.2134
1286.141, 119.9104
1286.624, 120.1130
1287.106, 118.7505
1287.588, 118.1653
1288.070, 118.8779
1288.552, 119.8862
1289.034, 120.4630
1289.516, 120.6891
1289.998, 120.6729
1290.481, 120.4652
1290.963, 120.1877
1291.445, 119.6593
1291.927, 119.5055
1292.409, 119.8129
1292.891, 120.1646
1293.373, 120.0874
1293.855, 120.0281
1294.338, 120.8896
1294.820, 122.0839
1295.302, 122.3956
1295.784, 121.5024
1296.266, 120.8690
1296.748, 120.5040
1297.230, 120.2429
1297.712, 119.9919
1298.194, 119.7955
1298.677, 119.5936
1299.159, 119.5423
1299.641, 119.8660
1300.123, 120.5803
1300.605, 120.8545
1301.087, 120.7451
1301.569, 120.7806
1302.051, 121.4613
1302.533, 121.9314
1303.016, 121.8938
##END=



