##NAMES=Bertrandite
##RRUFFID=R110025
##IDEAL CHEMISTRY=Be_4_Si_2_O_7_(OH)_2_
##LOCALITY=Foote mine, Kings Mountain, North Carolina, USA
##OWNER=RRUFF
##SOURCE=
##DESCRIPTION=Colorless bladed crystals associated with lithiophilite R100096 
##STATUS=The identification of this mineral has been confirmed by single-crystal X-ray diffraction.
##URL=rruff.info/R110025
169.1381, 876.6923
169.6203, 889.3967
170.1024, 896.8203
170.5845, 903.8414
171.0666, 911.9848
171.5487, 920.1989
172.0309, 928.4524
172.5130, 936.5076
172.9951, 944.0673
173.4772, 951.3455
173.9593, 958.6959
174.4414, 965.7673
174.9236, 973.1832
175.4057, 981.9660
175.8878, 992.2030
176.3699, 1001.921
176.8520, 1008.869
177.3341, 1014.128
177.8163, 1020.089
178.2984, 1027.708
178.7805, 1036.547
179.2626, 1045.920
179.7447, 1055.597
180.2268, 1066.210
180.7090, 1078.609
181.1911, 1092.409
181.6732, 1106.330
182.1553, 1119.977
182.6374, 1133.296
183.1195, 1146.375
183.6017, 1159.719
184.0838, 1170.994
184.5659, 1179.356
185.0480, 1184.256
185.5301, 1183.000
186.0123, 1170.549
186.4944, 1150.559
186.9765, 1134.416
187.4586, 1122.226
187.9407, 1114.157
188.4228, 1111.391
188.9050, 1113.570
189.3871, 1117.280
189.8692, 1121.418
190.3513, 1125.786
190.8334, 1129.333
191.3155, 1131.791
191.7977, 1133.957
192.2798, 1137.484
192.7619, 1142.379
193.2440, 1146.578
193.7261, 1148.467
194.2082, 1148.327
194.6904, 1149.357
195.1725, 1151.745
195.6546, 1155.314
196.1367, 1160.217
196.6188, 1166.643
197.1009, 1172.308
197.5831, 1175.186
198.0652, 1175.314
198.5473, 1177.266
199.0294, 1181.109
199.5115, 1187.083
199.9937, 1196.011
200.4758, 1207.942
200.9579, 1221.516
201.4400, 1235.822
201.9221, 1250.785
202.4042, 1267.316
202.8864, 1285.577
203.3685, 1305.282
203.8506, 1326.165
204.3327, 1348.304
204.8148, 1370.448
205.2969, 1395.316
205.7791, 1425.542
206.2612, 1439.414
206.7433, 1434.580
207.2254, 1413.716
207.7075, 1380.062
208.1896, 1328.370
208.6718, 1278.915
209.1539, 1242.421
209.6360, 1220.930
210.1181, 1203.561
210.6002, 1189.932
211.0823, 1179.954
211.5645, 1173.717
212.0466, 1171.904
212.5287, 1172.233
213.0108, 1173.853
213.4929, 1177.262
213.9750, 1180.043
214.4572, 1181.760
214.9393, 1182.897
215.4214, 1185.080
215.9035, 1188.863
216.3856, 1192.572
216.8678, 1195.076
217.3499, 1195.838
217.8320, 1197.219
218.3141, 1199.500
218.7962, 1202.360
219.2783, 1204.799
219.7605, 1206.581
220.2426, 1208.253
220.7247, 1209.896
221.2068, 1211.021
221.6889, 1213.481
222.1710, 1217.618
222.6532, 1223.079
223.1353, 1228.468
223.6174, 1233.205
224.0995, 1238.975
224.5816, 1246.676
225.0637, 1256.885
225.5459, 1267.719
226.0280, 1278.590
226.5101, 1290.207
226.9922, 1304.759
227.4743, 1324.565
227.9564, 1343.855
228.4386, 1359.985
228.9207, 1371.435
229.4028, 1383.371
229.8849, 1399.958
230.3670, 1416.145
230.8492, 1417.532
231.3313, 1399.440
231.8134, 1373.701
232.2955, 1343.829
232.7776, 1305.398
233.2597, 1274.366
233.7419, 1252.113
234.2240, 1236.890
234.7061, 1224.926
235.1882, 1216.815
235.6703, 1211.096
236.1524, 1207.422
236.6346, 1207.101
237.1167, 1205.809
237.5988, 1202.830
238.0809, 1199.137
238.5630, 1197.031
239.0451, 1197.242
239.5273, 1197.939
240.0094, 1198.288
240.4915, 1197.740
240.9736, 1198.322
241.4557, 1200.812
241.9378, 1204.050
242.4200, 1205.628
242.9021, 1205.048
243.3842, 1203.552
243.8663, 1201.260
244.3484, 1197.249
244.8306, 1195.360
245.3127, 1196.869
245.7948, 1199.841
246.2769, 1200.445
246.7590, 1196.827
247.2411, 1194.023
247.7233, 1194.231
248.2054, 1198.868
248.6875, 1201.142
249.1696, 1199.935
249.6517, 1197.124
250.1338, 1195.746
250.6160, 1196.345
251.0981, 1197.441
251.5802, 1198.775
252.0623, 1200.585
252.5444, 1201.417
253.0265, 1200.858
253.5087, 1199.667
253.9908, 1198.912
254.4729, 1198.708
254.9550, 1198.705
255.4371, 1198.787
255.9192, 1198.928
256.4014, 1199.514
256.8835, 1201.165
257.3656, 1202.644
257.8477, 1201.982
258.3298, 1197.280
258.8120, 1194.777
259.2941, 1196.771
259.7762, 1203.663
260.2583, 1208.259
260.7404, 1210.042
261.2225, 1210.186
261.7047, 1209.726
262.1868, 1208.142
262.6689, 1207.245
263.1510, 1207.452
263.6331, 1208.730
264.1152, 1210.525
264.5974, 1213.163
265.0795, 1215.787
265.5616, 1217.645
266.0437, 1218.896
266.5258, 1218.866
267.0079, 1216.731
267.4901, 1212.956
267.9722, 1212.155
268.4543, 1215.522
268.9364, 1219.524
269.4185, 1221.161
269.9006, 1219.888
270.3828, 1218.646
270.8649, 1217.694
271.3470, 1217.114
271.8291, 1217.460
272.3112, 1219.085
272.7933, 1220.649
273.2755, 1220.964
273.7576, 1219.764
274.2397, 1218.957
274.7218, 1218.658
275.2039, 1218.924
275.6860, 1220.479
276.1682, 1223.945
276.6503, 1226.409
277.1324, 1225.057
277.6145, 1219.433
278.0966, 1216.856
278.5787, 1218.756
279.0609, 1223.044
279.5430, 1224.963
280.0251, 1224.164
280.5072, 1223.325
280.9893, 1224.288
281.4715, 1227.045
281.9536, 1228.386
282.4357, 1227.763
282.9178, 1226.482
283.3999, 1226.982
283.8820, 1229.342
284.3642, 1231.620
284.8463, 1232.653
285.3284, 1232.566
285.8105, 1233.160
286.2926, 1234.574
286.7747, 1236.138
287.2569, 1236.512
287.7390, 1235.760
288.2211, 1236.003
288.7032, 1239.148
289.1853, 1244.150
289.6674, 1245.985
290.1496, 1244.326
290.6317, 1241.822
291.1138, 1241.536
291.5959, 1243.189
292.0780, 1244.752
292.5602, 1245.611
293.0423, 1245.950
293.5244, 1245.805
294.0065, 1245.135
294.4886, 1245.271
294.9707, 1248.450
295.4529, 1253.700
295.9350, 1257.240
296.4171, 1257.145
296.8992, 1255.756
297.3813, 1257.742
297.8634, 1262.802
298.3456, 1267.677
298.8277, 1270.034
299.3098, 1270.341
299.7919, 1269.384
300.2740, 1266.921
300.7561, 1263.987
301.2383, 1261.891
301.7204, 1260.521
302.2025, 1259.513
302.6846, 1258.698
303.1667, 1258.073
303.6488, 1257.695
304.1310, 1257.682
304.6131, 1257.588
305.0952, 1256.590
305.5773, 1255.096
306.0594, 1254.213
306.5415, 1254.964
307.0237, 1256.391
307.5058, 1257.496
307.9879, 1258.148
308.4700, 1258.674
308.9521, 1259.351
309.4343, 1260.065
309.9164, 1260.630
310.3985, 1260.745
310.8806, 1260.831
311.3627, 1261.179
311.8448, 1261.805
312.3270, 1262.650
312.8091, 1264.325
313.2912, 1265.998
313.7733, 1266.689
314.2554, 1264.594
314.7375, 1262.691
315.2197, 1262.678
315.7018, 1264.393
316.1839, 1266.396
316.6660, 1268.374
317.1481, 1270.202
317.6302, 1271.750
318.1124, 1272.882
318.5945, 1273.878
319.0766, 1275.277
319.5587, 1276.723
320.0408, 1277.018
320.5229, 1274.194
321.0051, 1271.227
321.4872, 1269.832
321.9693, 1271.028
322.4514, 1272.405
322.9335, 1273.442
323.4156, 1274.342
323.8978, 1275.500
324.3799, 1277.380
324.8620, 1279.191
325.3441, 1280.603
325.8262, 1281.405
326.3083, 1282.369
326.7905, 1284.296
327.2726, 1286.182
327.7547, 1286.772
328.2368, 1283.760
328.7189, 1281.819
329.2010, 1282.263
329.6832, 1285.372
330.1653, 1287.686
330.6474, 1289.285
331.1295, 1290.033
331.6116, 1289.717
332.0938, 1287.151
332.5759, 1285.394
333.0580, 1284.842
333.5401, 1285.422
334.0222, 1286.800
334.5043, 1289.788
334.9865, 1292.460
335.4686, 1293.623
335.9507, 1292.803
336.4328, 1291.591
336.9149, 1289.483
337.3970, 1287.303
337.8792, 1287.741
338.3613, 1291.959
338.8434, 1295.548
339.3255, 1296.118
339.8076, 1293.115
340.2898, 1291.487
340.7719, 1291.450
341.2540, 1292.425
341.7361, 1293.781
342.2182, 1295.571
342.7003, 1297.108
343.1825, 1298.003
343.6646, 1298.396
344.1467, 1299.168
344.6288, 1300.349
345.1109, 1301.763
345.5930, 1303.251
346.0752, 1304.797
346.5573, 1306.625
347.0394, 1309.222
347.5215, 1311.746
348.0036, 1311.579
348.4857, 1308.795
348.9679, 1306.771
349.4500, 1308.812
349.9321, 1313.640
350.4142, 1317.509
350.8963, 1319.730
351.3784, 1321.169
351.8606, 1322.617
352.3427, 1324.123
352.8248, 1325.890
353.3069, 1328.605
353.7890, 1331.415
354.2711, 1333.076
354.7533, 1333.415
355.2354, 1333.359
355.7175, 1333.689
356.1996, 1334.162
356.6817, 1334.357
357.1638, 1333.184
357.6460, 1332.320
358.1281, 1333.779
358.6102, 1337.310
359.0923, 1339.769
359.5744, 1338.755
360.0565, 1336.052
360.5387, 1333.379
361.0208, 1331.336
361.5029, 1329.250
361.9850, 1326.209
362.4671, 1322.779
362.9492, 1320.750
363.4314, 1321.712
363.9135, 1323.543
364.3956, 1325.301
364.8777, 1327.370
365.3598, 1328.135
365.8419, 1325.901
366.3241, 1322.471
366.8062, 1320.566
367.2883, 1321.984
367.7704, 1323.585
368.2526, 1324.364
368.7347, 1324.014
369.2168, 1324.509
369.6989, 1326.973
370.1810, 1329.609
370.6631, 1330.900
371.1453, 1329.500
371.6274, 1328.777
372.1095, 1329.457
372.5916, 1331.254
373.0737, 1332.217
373.5558, 1331.956
374.0380, 1331.444
374.5201, 1331.101
375.0022, 1330.758
375.4843, 1331.237
375.9664, 1332.920
376.4485, 1335.124
376.9307, 1336.503
377.4128, 1336.910
377.8949, 1337.054
378.3770, 1337.090
378.8591, 1337.032
379.3412, 1337.426
379.8234, 1338.400
380.3055, 1339.355
380.7876, 1339.383
381.2697, 1338.558
381.7518, 1338.230
382.2339, 1338.991
382.7161, 1340.299
383.1982, 1340.808
383.6803, 1340.542
384.1624, 1340.248
384.6445, 1340.359
385.1266, 1340.872
385.6088, 1342.072
386.0909, 1344.375
386.5730, 1346.202
387.0551, 1344.445
387.5372, 1340.478
388.0193, 1338.215
388.5015, 1341.455
388.9836, 1346.521
389.4657, 1349.432
389.9478, 1349.927
390.4299, 1349.840
390.9120, 1350.379
391.3942, 1351.071
391.8763, 1351.327
392.3584, 1350.698
392.8405, 1349.819
393.3226, 1348.838
393.8047, 1347.824
394.2869, 1347.086
394.7690, 1346.340
395.2511, 1346.186
395.7332, 1347.137
396.2154, 1349.972
396.6975, 1352.452
397.1796, 1354.339
397.6617, 1355.566
398.1438, 1356.016
398.6259, 1354.538
399.1081, 1353.389
399.5902, 1353.640
400.0723, 1355.741
400.5544, 1355.959
401.0365, 1351.623
401.5186, 1347.354
402.0008, 1347.317
402.4829, 1355.029
402.9650, 1360.153
403.4471, 1360.597
403.9292, 1357.596
404.4113, 1356.397
404.8935, 1357.498
405.3756, 1359.220
405.8577, 1360.936
406.3398, 1362.749
406.8219, 1363.735
407.3040, 1363.826
407.7862, 1363.250
408.2683, 1362.127
408.7504, 1360.450
409.2325, 1358.993
409.7146, 1357.891
410.1967, 1357.276
410.6789, 1357.654
411.1610, 1359.068
411.6431, 1360.805
412.1252, 1362.379
412.6073, 1363.794
413.0894, 1365.021
413.5716, 1366.003
414.0537, 1366.842
414.5358, 1367.628
415.0179, 1368.339
415.5000, 1368.958
415.9821, 1369.033
416.4643, 1369.200
416.9464, 1370.447
417.4285, 1372.913
417.9106, 1374.875
418.3927, 1374.317
418.8748, 1372.893
419.3570, 1372.577
419.8391, 1375.349
420.3212, 1378.074
420.8033, 1379.460
421.2854, 1379.691
421.7675, 1379.677
422.2497, 1379.900
422.7318, 1379.838
423.2139, 1378.995
423.6960, 1376.280
424.1781, 1375.133
424.6602, 1377.644
425.1424, 1381.510
425.6245, 1383.274
426.1066, 1380.397
426.5887, 1378.620
427.0709, 1379.615
427.5530, 1383.370
428.0351, 1385.781
428.5172, 1386.122
428.9993, 1386.115
429.4814, 1387.236
429.9636, 1390.121
430.4457, 1391.488
430.9278, 1390.590
431.4099, 1388.495
431.8920, 1387.763
432.3741, 1388.626
432.8563, 1388.973
433.3384, 1387.077
433.8205, 1383.530
434.3026, 1382.809
434.7847, 1385.172
435.2668, 1388.234
435.7490, 1389.111
436.2311, 1388.563
436.7132, 1389.457
437.1953, 1393.340
437.6774, 1397.885
438.1595, 1399.892
438.6417, 1399.787
439.1238, 1399.322
439.6059, 1399.298
440.0880, 1399.592
440.5701, 1400.227
441.0522, 1401.299
441.5344, 1402.089
442.0165, 1402.051
442.4986, 1401.509
442.9807, 1400.849
443.4628, 1399.631
443.9449, 1398.873
444.4271, 1399.268
444.9092, 1400.598
445.3913, 1401.616
445.8734, 1402.204
446.3555, 1402.227
446.8376, 1401.397
447.3198, 1398.356
447.8019, 1397.167
448.2840, 1399.515
448.7661, 1403.071
449.2482, 1404.567
449.7303, 1403.033
450.2125, 1401.007
450.6946, 1398.539
451.1767, 1395.777
451.6588, 1395.039
452.1409, 1396.794
452.6230, 1399.486
453.1052, 1402.630
453.5873, 1406.464
454.0694, 1407.501
454.5515, 1404.743
455.0337, 1400.609
455.5158, 1399.363
455.9979, 1400.807
456.4800, 1402.239
456.9621, 1402.272
457.4442, 1401.563
457.9264, 1401.779
458.4085, 1402.891
458.8906, 1404.041
459.3727, 1404.424
459.8548, 1404.422
460.3369, 1404.579
460.8191, 1404.939
461.3012, 1405.706
461.7833, 1407.361
462.2654, 1409.546
462.7475, 1411.500
463.2296, 1413.527
463.7118, 1414.736
464.1939, 1414.060
464.6760, 1411.400
465.1581, 1409.622
465.6402, 1409.895
466.1223, 1411.182
466.6045, 1412.757
467.0866, 1415.196
467.5687, 1417.026
468.0508, 1417.884
468.5329, 1418.097
469.0150, 1418.400
469.4972, 1418.819
469.9793, 1419.284
470.4614, 1419.822
470.9435, 1420.453
471.4256, 1420.922
471.9077, 1421.302
472.3899, 1421.422
472.8720, 1421.005
473.3541, 1419.990
473.8362, 1419.179
474.3183, 1418.547
474.8004, 1418.378
475.2826, 1419.594
475.7647, 1422.082
476.2468, 1424.299
476.7289, 1425.306
477.2110, 1425.504
477.6931, 1425.759
478.1753, 1426.073
478.6574, 1426.285
479.1395, 1426.150
479.6216, 1425.853
480.1037, 1425.684
480.5858, 1425.789
481.0680, 1425.912
481.5501, 1425.886
482.0322, 1425.767
482.5143, 1425.658
482.9964, 1425.447
483.4786, 1425.420
483.9607, 1425.891
484.4428, 1426.938
484.9249, 1427.604
485.4070, 1427.525
485.8892, 1427.124
486.3713, 1426.626
486.8534, 1424.240
487.3355, 1424.553
487.8176, 1429.658
488.2997, 1436.846
488.7819, 1440.105
489.2640, 1437.534
489.7461, 1435.330
490.2282, 1435.810
490.7103, 1438.741
491.1924, 1439.982
491.6746, 1439.205
492.1567, 1438.062
492.6388, 1437.937
493.1209, 1438.738
493.6030, 1439.734
494.0851, 1440.841
494.5673, 1442.062
495.0494, 1443.745
495.5315, 1445.633
496.0136, 1446.748
496.4957, 1445.885
496.9778, 1444.475
497.4600, 1444.051
497.9421, 1444.581
498.4242, 1445.542
498.9063, 1447.397
499.3884, 1449.120
499.8705, 1449.782
500.3527, 1448.916
500.8348, 1447.687
501.3169, 1446.064
501.7990, 1444.463
502.2811, 1443.464
502.7632, 1443.580
503.2454, 1443.906
503.7275, 1444.390
504.2096, 1445.000
504.6917, 1445.363
505.1738, 1445.307
505.6559, 1445.265
506.1381, 1445.476
506.6202, 1446.000
507.1023, 1446.661
507.5844, 1447.586
508.0665, 1448.454
508.5486, 1448.557
509.0308, 1447.863
509.5129, 1447.920
509.9950, 1449.462
510.4771, 1451.622
510.9592, 1452.310
511.4413, 1451.656
511.9235, 1451.174
512.4056, 1451.883
512.8877, 1453.309
513.3698, 1454.899
513.8519, 1456.621
514.3340, 1458.139
514.8162, 1459.309
515.2983, 1460.102
515.7804, 1460.472
516.2625, 1460.236
516.7446, 1459.833
517.2267, 1459.240
517.7089, 1458.638
518.1910, 1458.459
518.6731, 1459.097
519.1552, 1459.938
519.6373, 1460.856
520.1194, 1461.886
520.6016, 1462.726
521.0837, 1463.484
521.5658, 1463.898
522.0479, 1463.484
522.5300, 1461.578
523.0121, 1461.469
523.4943, 1464.090
523.9764, 1467.625
524.4585, 1468.359
524.9406, 1466.202
525.4227, 1464.897
525.9048, 1466.300
526.3870, 1469.231
526.8691, 1470.859
527.3513, 1471.235
527.8334, 1471.013
528.3155, 1470.475
528.7976, 1469.714
529.2797, 1468.578
529.7618, 1466.843
530.2440, 1465.996
530.7261, 1467.877
531.2082, 1471.020
531.6903, 1473.516
532.1724, 1474.260
532.6545, 1474.787
533.1367, 1475.321
533.6188, 1475.986
534.1009, 1477.233
534.5830, 1480.229
535.0651, 1482.743
535.5472, 1483.869
536.0294, 1483.375
536.5115, 1483.312
536.9936, 1483.906
537.4757, 1484.629
537.9578, 1485.020
538.4399, 1485.019
538.9221, 1485.203
539.4042, 1485.853
539.8863, 1486.323
540.3684, 1485.028
540.8505, 1482.149
541.3326, 1479.854
541.8148, 1479.073
542.2969, 1479.390
542.7790, 1480.629
543.2611, 1482.601
543.7432, 1483.845
544.2253, 1482.640
544.7075, 1480.599
545.1896, 1479.419
545.6717, 1479.447
546.1538, 1479.685
546.6359, 1479.703
547.1180, 1479.654
547.6002, 1479.700
548.0823, 1479.355
548.5644, 1479.710
549.0465, 1481.445
549.5286, 1484.043
550.0107, 1485.987
550.4929, 1486.789
550.9750, 1487.686
551.4571, 1489.414
551.9392, 1491.981
552.4213, 1492.382
552.9034, 1490.084
553.3856, 1487.291
553.8677, 1485.824
554.3498, 1485.568
554.8319, 1484.987
555.3140, 1483.743
555.7961, 1482.837
556.2783, 1483.838
556.7604, 1486.269
557.2425, 1488.872
557.7246, 1492.091
558.2067, 1494.357
558.6888, 1493.451
559.1710, 1490.151
559.6531, 1487.065
560.1352, 1484.735
560.6173, 1483.616
561.0994, 1484.540
561.5815, 1487.892
562.0637, 1490.322
562.5458, 1490.291
563.0279, 1489.669
563.5100, 1489.843
563.9921, 1491.474
564.4742, 1492.743
564.9564, 1493.652
565.4385, 1494.113
565.9206, 1493.716
566.4027, 1492.146
566.8848, 1491.204
567.3669, 1491.356
567.8491, 1492.517
568.3312, 1494.842
568.8133, 1498.267
569.2954, 1501.397
569.7775, 1503.333
570.2596, 1504.351
570.7418, 1504.758
571.2239, 1504.568
571.7060, 1504.263
572.1881, 1503.964
572.6702, 1503.868
573.1523, 1504.311
573.6345, 1506.096
574.1166, 1507.125
574.5987, 1505.314
575.0808, 1502.497
575.5629, 1501.699
576.0450, 1506.883
576.5272, 1510.203
577.0093, 1509.599
577.4914, 1505.687
577.9735, 1502.148
578.4556, 1498.349
578.9377, 1496.338
579.4199, 1497.937
579.9020, 1503.238
580.3841, 1506.426
580.8662, 1507.369
581.3483, 1507.017
581.8304, 1505.756
582.3126, 1503.909
582.7947, 1502.628
583.2768, 1502.239
583.7589, 1502.121
584.2410, 1501.419
584.7231, 1500.503
585.2053, 1500.114
585.6874, 1500.445
586.1696, 1501.447
586.6517, 1503.755
587.1338, 1506.884
587.6159, 1508.816
588.0980, 1507.119
588.5801, 1505.748
589.0623, 1506.652
589.5444, 1510.246
590.0265, 1513.353
590.5086, 1516.515
590.9907, 1518.516
591.4728, 1518.116
591.9550, 1514.943
592.4371, 1511.823
592.9192, 1508.812
593.4013, 1506.428
593.8834, 1505.630
594.3655, 1506.275
594.8477, 1507.425
595.3298, 1509.190
595.8119, 1510.820
596.2940, 1511.063
596.7761, 1510.241
597.2582, 1509.436
597.7404, 1508.739
598.2225, 1508.598
598.7046, 1509.771
599.1867, 1512.235
599.6688, 1513.829
600.1509, 1512.949
600.6331, 1511.660
601.1152, 1511.317
601.5973, 1512.636
602.0794, 1513.193
602.5615, 1512.339
603.0436, 1511.340
603.5258, 1511.969
604.0079, 1514.761
604.4900, 1516.322
604.9721, 1515.969
605.4542, 1514.365
605.9363, 1511.956
606.4185, 1509.040
606.9006, 1508.049
607.3827, 1512.361
607.8648, 1517.861
608.3469, 1517.063
608.8290, 1511.183
609.3112, 1507.086
609.7933, 1510.917
610.2754, 1516.591
610.7575, 1519.428
611.2396, 1518.510
611.7217, 1517.461
612.2039, 1516.643
612.6860, 1516.427
613.1681, 1517.198
613.6502, 1520.509
614.1323, 1521.866
614.6144, 1519.990
615.0966, 1517.190
615.5787, 1517.308
616.0608, 1521.043
616.5429, 1523.088
617.0250, 1521.651
617.5071, 1518.484
617.9893, 1517.487
618.4714, 1518.500
618.9535, 1520.159
619.4356, 1522.767
619.9177, 1525.108
620.3998, 1525.145
620.8820, 1523.128
621.3641, 1521.376
621.8462, 1521.751
622.3283, 1522.466
622.8104, 1521.866
623.2925, 1519.023
623.7747, 1517.730
624.2568, 1520.043
624.7389, 1523.288
625.2210, 1525.340
625.7031, 1525.803
626.1852, 1525.839
626.6674, 1525.340
627.1495, 1524.616
627.6316, 1524.046
628.1137, 1523.612
628.5958, 1523.757
629.0779, 1524.656
629.5601, 1526.172
630.0422, 1528.773
630.5243, 1532.026
631.0064, 1533.940
631.4885, 1532.031
631.9706, 1529.227
632.4528, 1528.484
632.9349, 1529.725
633.4170, 1530.780
633.8991, 1530.288
634.3812, 1529.650
634.8633, 1529.791
635.3455, 1531.179
635.8276, 1532.155
636.3097, 1532.554
636.7918, 1532.632
637.2739, 1532.458
637.7560, 1531.785
638.2382, 1531.756
638.7203, 1532.423
639.2024, 1533.755
639.6845, 1536.225
640.1666, 1539.597
640.6487, 1541.951
641.1309, 1542.358
641.6130, 1541.953
642.0951, 1542.077
642.5772, 1542.639
643.0594, 1543.416
643.5415, 1544.748
644.0236, 1545.866
644.5057, 1546.731
644.9879, 1547.207
645.4700, 1546.172
645.9521, 1541.015
646.4342, 1536.514
646.9163, 1535.077
647.3984, 1537.375
647.8806, 1538.335
648.3627, 1537.661
648.8448, 1536.330
649.3269, 1534.938
649.8090, 1533.508
650.2911, 1532.572
650.7733, 1532.231
651.2554, 1532.111
651.7375, 1531.303
652.2196, 1530.370
652.7017, 1530.828
653.1838, 1533.722
653.6660, 1536.848
654.1481, 1538.014
654.6302, 1538.268
655.1123, 1539.507
655.5944, 1544.649
656.0765, 1548.356
656.5587, 1547.866
657.0408, 1544.201
657.5229, 1542.419
658.0050, 1543.637
658.4871, 1544.835
658.9692, 1544.903
659.4514, 1543.955
659.9335, 1543.233
660.4156, 1542.721
660.8977, 1542.584
661.3798, 1543.188
661.8619, 1544.252
662.3441, 1545.189
662.8262, 1545.986
663.3083, 1546.194
663.7904, 1544.458
664.2725, 1542.442
664.7546, 1542.135
665.2368, 1544.565
665.7189, 1547.073
666.2010, 1549.664
666.6831, 1551.531
667.1652, 1551.615
667.6473, 1548.268
668.1295, 1545.965
668.6116, 1545.316
669.0937, 1545.659
669.5758, 1545.579
670.0579, 1544.953
670.5400, 1545.146
671.0222, 1546.907
671.5043, 1549.317
671.9864, 1550.277
672.4685, 1550.059
672.9506, 1550.092
673.4327, 1551.153
673.9149, 1552.781
674.3970, 1554.960
674.8791, 1557.514
675.3612, 1559.315
675.8433, 1559.336
676.3254, 1559.006
676.8076, 1559.040
677.2897, 1559.551
677.7718, 1560.089
678.2539, 1560.553
678.7360, 1561.249
679.2181, 1562.587
679.7003, 1564.708
680.1824, 1565.987
680.6645, 1566.204
681.1466, 1566.367
681.6287, 1567.922
682.1108, 1570.304
682.5930, 1571.638
683.0751, 1571.114
683.5572, 1570.984
684.0393, 1574.044
684.5214, 1578.421
685.0035, 1581.461
685.4857, 1580.471
685.9678, 1580.131
686.4499, 1582.062
686.9320, 1585.354
687.4141, 1588.025
687.8962, 1589.899
688.3784, 1591.497
688.8605, 1593.138
689.3426, 1594.524
689.8247, 1594.079
690.3068, 1591.713
690.7889, 1590.257
691.2711, 1592.079
691.7532, 1595.297
692.2353, 1596.171
692.7174, 1594.891
693.1995, 1592.680
693.6816, 1588.956
694.1638, 1585.565
694.6459, 1584.416
695.1280, 1585.758
695.6101, 1586.264
696.0922, 1584.017
696.5743, 1581.670
697.0565, 1580.679
697.5386, 1581.374
698.0207, 1582.158
698.5028, 1583.112
698.9849, 1584.033
699.4670, 1584.455
699.9492, 1584.504
700.4313, 1585.637
700.9135, 1588.125
701.3956, 1590.980
701.8777, 1593.016
702.3598, 1594.668
702.8419, 1596.684
703.3240, 1599.286
703.8062, 1602.168
704.2883, 1605.348
704.7704, 1608.620
705.2525, 1611.630
705.7346, 1614.583
706.2167, 1616.903
706.6989, 1618.095
707.1810, 1618.846
707.6631, 1620.955
708.1452, 1624.751
708.6273, 1627.825
709.1094, 1629.104
709.5916, 1629.596
710.0737, 1631.763
710.5558, 1635.318
711.0379, 1638.832
711.5200, 1642.609
712.0021, 1645.168
712.4843, 1644.811
712.9664, 1641.911
713.4485, 1638.550
713.9306, 1635.694
714.4127, 1632.357
714.8948, 1627.547
715.3770, 1621.173
715.8591, 1616.950
716.3412, 1616.183
716.8233, 1615.006
717.3054, 1610.714
717.7875, 1603.465
718.2697, 1598.119
718.7518, 1594.696
719.2339, 1592.457
719.7160, 1591.434
720.1981, 1590.939
720.6802, 1589.859
721.1624, 1588.054
721.6445, 1585.891
722.1266, 1582.737
722.6087, 1579.834
723.0908, 1578.411
723.5729, 1579.840
724.0551, 1580.336
724.5372, 1579.248
725.0193, 1577.631
725.5014, 1576.364
725.9835, 1575.328
726.4656, 1575.692
726.9478, 1578.051
727.4299, 1580.577
727.9120, 1580.028
728.3941, 1577.408
728.8762, 1576.071
729.3583, 1577.531
729.8405, 1579.266
730.3226, 1578.931
730.8047, 1577.490
731.2868, 1576.548
731.7689, 1576.761
732.2510, 1577.307
732.7332, 1578.260
733.2153, 1579.372
733.6974, 1580.194
734.1795, 1580.751
734.6616, 1580.921
735.1437, 1580.581
735.6259, 1579.920
736.1080, 1579.155
736.5901, 1578.366
737.0722, 1578.312
737.5543, 1579.894
738.0364, 1581.966
738.5186, 1583.343
739.0007, 1584.073
739.4828, 1584.400
739.9649, 1583.964
740.4470, 1583.589
740.9291, 1583.871
741.4113, 1584.732
741.8934, 1584.814
742.3755, 1583.704
742.8576, 1582.582
743.3397, 1581.848
743.8218, 1581.516
744.3040, 1581.835
744.7861, 1582.832
745.2682, 1583.653
745.7503, 1583.573
746.2324, 1583.001
746.7145, 1582.328
747.1967, 1581.618
747.6788, 1581.625
748.1609, 1583.846
748.6430, 1586.078
749.1251, 1586.548
749.6072, 1584.487
750.0894, 1584.052
750.5715, 1586.437
751.0536, 1589.080
751.5357, 1590.464
752.0178, 1590.558
752.4999, 1589.664
752.9821, 1587.602
753.4642, 1585.745
753.9463, 1585.551
754.4284, 1586.472
754.9105, 1587.456
755.3926, 1588.373
755.8748, 1589.299
756.3569, 1590.781
756.8390, 1591.979
757.3211, 1591.973
757.8032, 1589.450
758.2853, 1588.344
758.7675, 1589.536
759.2496, 1591.482
759.7318, 1592.921
760.2139, 1593.841
760.6960, 1594.205
761.1781, 1593.880
761.6602, 1593.518
762.1423, 1594.395
762.6245, 1595.834
763.1066, 1595.965
763.5887, 1593.986
764.0708, 1592.060
764.5529, 1591.100
765.0350, 1591.312
765.5172, 1592.938
765.9993, 1598.815
766.4814, 1602.194
766.9635, 1601.265
767.4456, 1598.795
767.9277, 1598.688
768.4099, 1601.473
768.8920, 1602.871
769.3741, 1602.000
769.8562, 1599.973
770.3383, 1597.977
770.8204, 1596.148
771.3026, 1594.771
771.7847, 1593.617
772.2668, 1593.583
772.7489, 1596.592
773.2310, 1600.824
773.7131, 1603.381
774.1953, 1603.127
774.6774, 1601.753
775.1595, 1598.391
775.6416, 1594.714
776.1237, 1594.251
776.6058, 1597.530
777.0880, 1599.925
777.5701, 1600.148
778.0522, 1599.248
778.5343, 1598.472
779.0164, 1597.969
779.4985, 1598.249
779.9807, 1600.112
780.4628, 1602.033
780.9449, 1603.312
781.4270, 1603.924
781.9091, 1603.866
782.3912, 1601.924
782.8734, 1600.877
783.3555, 1601.506
783.8376, 1603.094
784.3197, 1603.996
784.8018, 1604.239
785.2839, 1603.576
785.7661, 1601.542
786.2482, 1599.158
786.7303, 1597.958
787.2124, 1597.832
787.6945, 1598.422
788.1766, 1600.209
788.6588, 1602.025
789.1409, 1603.600
789.6230, 1604.761
790.1051, 1604.998
790.5872, 1603.084
791.0693, 1602.180
791.5515, 1603.335
792.0336, 1605.697
792.5157, 1606.634
792.9978, 1606.145
793.4799, 1605.804
793.9620, 1606.234
794.4442, 1607.086
794.9263, 1607.804
795.4084, 1608.517
795.8905, 1609.589
796.3726, 1612.153
796.8547, 1614.069
797.3369, 1613.865
797.8190, 1612.205
798.3011, 1611.491
798.7832, 1611.969
799.2653, 1612.954
799.7474, 1614.473
800.2296, 1616.219
800.7117, 1617.249
801.1938, 1617.626
801.6759, 1618.109
802.1580, 1619.446
802.6401, 1620.604
803.1223, 1620.130
803.6044, 1618.521
804.0865, 1617.071
804.5686, 1616.729
805.0507, 1616.154
805.5328, 1614.141
806.0150, 1611.667
806.4971, 1611.480
806.9792, 1614.311
807.4613, 1617.209
807.9434, 1619.609
808.4255, 1621.313
808.9077, 1621.666
809.3898, 1620.869
809.8719, 1619.825
810.3540, 1618.029
810.8361, 1617.060
811.3182, 1619.089
811.8004, 1622.840
812.2825, 1625.358
812.7646, 1624.385
813.2467, 1623.922
813.7288, 1624.782
814.2109, 1626.612
814.6931, 1628.661
815.1752, 1631.038
815.6573, 1632.989
816.1394, 1634.355
816.6215, 1635.169
817.1037, 1634.855
817.5858, 1634.011
818.0679, 1634.202
818.5500, 1637.583
819.0322, 1640.514
819.5143, 1640.380
819.9964, 1638.609
820.4785, 1638.268
820.9606, 1640.674
821.4427, 1642.228
821.9249, 1642.145
822.4070, 1641.150
822.8891, 1640.591
823.3712, 1640.463
823.8533, 1640.974
824.3354, 1642.897
824.8176, 1644.012
825.2997, 1640.508
825.7818, 1634.732
826.2639, 1630.757
826.7460, 1631.734
827.2281, 1632.482
827.7103, 1631.344
828.1924, 1629.568
828.6745, 1628.799
829.1566, 1629.277
829.6387, 1629.922
830.1208, 1630.785
830.6030, 1631.202
831.0851, 1629.354
831.5672, 1626.215
832.0493, 1624.742
832.5314, 1626.417
833.0135, 1628.050
833.4957, 1626.822
833.9778, 1624.585
834.4599, 1623.497
834.9420, 1625.231
835.4241, 1626.448
835.9063, 1627.085
836.3884, 1627.320
836.8705, 1627.340
837.3526, 1627.156
837.8347, 1626.528
838.3168, 1625.274
838.7990, 1624.411
839.2811, 1625.267
839.7632, 1627.041
840.2453, 1628.874
840.7274, 1631.023
841.2095, 1631.695
841.6917, 1628.413
842.1738, 1624.713
842.6559, 1623.358
843.1380, 1624.998
843.6201, 1626.720
844.1022, 1628.572
844.5844, 1630.343
845.0665, 1632.025
845.5486, 1633.475
846.0307, 1634.295
846.5128, 1634.470
846.9949, 1634.031
847.4771, 1631.927
847.9592, 1630.009
848.4413, 1630.035
848.9234, 1632.771
849.4055, 1634.242
849.8876, 1633.870
850.3698, 1632.935
850.8519, 1631.818
851.3340, 1630.606
851.8161, 1631.110
852.2982, 1633.300
852.7803, 1635.024
853.2625, 1634.333
853.7446, 1632.583
854.2267, 1630.460
854.7088, 1628.238
855.1909, 1628.069
855.6730, 1633.247
856.1552, 1637.945
856.6373, 1640.034
857.1194, 1639.730
857.6015, 1638.394
858.0836, 1635.789
858.5657, 1634.012
859.0479, 1634.367
859.5300, 1635.968
860.0121, 1637.406
860.4942, 1638.651
860.9763, 1639.543
861.4584, 1640.148
861.9406, 1640.221
862.4227, 1638.972
862.9048, 1637.045
863.3869, 1636.671
863.8690, 1638.459
864.3511, 1640.328
864.8333, 1642.029
865.3154, 1643.239
865.7975, 1642.936
866.2796, 1641.477
866.7617, 1640.406
867.2438, 1640.057
867.7260, 1640.568
868.2081, 1642.856
868.6902, 1645.812
869.1723, 1647.754
869.6544, 1646.928
870.1365, 1647.190
870.6187, 1649.600
871.1008, 1652.208
871.5829, 1651.834
872.0650, 1648.678
872.5471, 1646.629
873.0292, 1646.320
873.5114, 1647.030
873.9935, 1649.005
874.4756, 1651.121
874.9577, 1651.732
875.4399, 1649.879
875.9220, 1648.632
876.4041, 1649.155
876.8862, 1650.211
877.3683, 1651.033
877.8505, 1651.532
878.3326, 1652.502
878.8147, 1654.054
879.2968, 1655.117
879.7789, 1653.832
880.2610, 1651.815
880.7432, 1652.324
881.2253, 1655.424
881.7074, 1657.373
882.1895, 1654.578
882.6716, 1651.834
883.1537, 1652.475
883.6359, 1656.237
884.1180, 1657.255
884.6001, 1654.934
885.0822, 1652.447
885.5643, 1651.126
886.0464, 1650.817
886.5286, 1651.436
887.0107, 1652.803
887.4928, 1654.170
887.9749, 1655.406
888.4570, 1656.227
888.9391, 1656.285
889.4213, 1655.778
889.9034, 1655.329
890.3855, 1654.709
890.8676, 1654.833
891.3497, 1656.259
891.8318, 1657.974
892.3140, 1657.415
892.7961, 1655.364
893.2782, 1655.194
893.7603, 1658.878
894.2424, 1662.413
894.7245, 1662.483
895.2067, 1660.811
895.6888, 1659.485
896.1709, 1658.956
896.6530, 1658.708
897.1351, 1659.016
897.6172, 1659.178
898.0994, 1657.838
898.5815, 1655.419
899.0636, 1655.474
899.5457, 1658.452
900.0278, 1661.776
900.5099, 1663.654
900.9921, 1664.707
901.4742, 1665.501
901.9563, 1666.113
902.4384, 1666.320
902.9205, 1665.902
903.4026, 1665.378
903.8848, 1664.908
904.3669, 1664.518
904.8490, 1664.417
905.3311, 1664.597
905.8132, 1665.038
906.2953, 1666.085
906.7775, 1667.103
907.2596, 1667.443
907.7417, 1667.212
908.2238, 1666.824
908.7059, 1665.428
909.1880, 1665.186
909.6702, 1667.031
910.1523, 1669.988
910.6344, 1671.743
911.1165, 1672.325
911.5986, 1672.654
912.0807, 1672.950
912.5629, 1673.201
913.0450, 1673.066
913.5271, 1672.985
914.0092, 1673.639
914.4913, 1675.549
914.9734, 1677.620
915.4556, 1680.013
915.9377, 1682.182
916.4198, 1683.475
916.9019, 1683.818
917.3840, 1684.414
917.8661, 1685.266
918.3483, 1686.961
918.8304, 1690.227
919.3125, 1694.543
919.7946, 1699.751
920.2767, 1705.802
920.7589, 1710.776
921.2410, 1711.870
921.7231, 1714.185
922.2052, 1720.351
922.6873, 1729.754
923.1694, 1736.749
923.6516, 1741.202
924.1337, 1745.715
924.6158, 1751.546
925.0979, 1758.174
925.5800, 1765.838
926.0621, 1773.652
926.5443, 1779.512
927.0264, 1782.680
927.5085, 1783.726
927.9906, 1783.243
928.4727, 1780.647
928.9548, 1774.521
929.4370, 1764.803
929.9191, 1754.196
930.4012, 1742.828
930.8833, 1732.654
931.3654, 1726.844
931.8475, 1723.244
932.3297, 1718.525
932.8118, 1711.287
933.2939, 1705.857
933.7761, 1705.008
934.2582, 1704.428
934.7403, 1701.178
935.2224, 1695.101
935.7045, 1691.881
936.1866, 1691.563
936.6688, 1691.998
937.1509, 1692.182
937.6330, 1691.973
938.1151, 1691.072
938.5972, 1689.602
939.0793, 1688.163
939.5615, 1687.312
940.0436, 1686.036
940.5257, 1683.761
941.0078, 1681.135
941.4899, 1680.291
941.9720, 1681.146
942.4542, 1681.082
942.9363, 1678.772
943.4184, 1676.664
943.9005, 1677.772
944.3826, 1680.587
944.8647, 1683.004
945.3469, 1683.869
945.8290, 1685.679
946.3111, 1690.262
946.7932, 1693.714
947.2753, 1691.675
947.7574, 1684.487
948.2396, 1679.962
948.7217, 1678.364
949.2038, 1678.300
949.6859, 1679.417
950.1680, 1681.065
950.6501, 1682.701
951.1323, 1684.313
951.6144, 1686.230
952.0965, 1689.124
952.5786, 1691.283
953.0607, 1692.323
953.5428, 1692.174
954.0250, 1689.620
954.5071, 1685.275
954.9892, 1682.960
955.4713, 1685.327
955.9534, 1688.189
956.4355, 1688.035
956.9177, 1686.528
957.3998, 1686.133
957.8819, 1688.162
958.3640, 1689.120
958.8461, 1688.118
959.3282, 1687.740
959.8104, 1692.780
960.2925, 1700.743
960.7746, 1701.567
961.2567, 1694.487
961.7388, 1688.073
962.2209, 1688.939
962.7031, 1691.403
963.1852, 1690.918
963.6673, 1687.639
964.1494, 1688.304
964.6315, 1693.917
965.1136, 1700.100
965.5958, 1706.015
966.0779, 1710.553
966.5600, 1710.461
967.0421, 1707.134
967.5242, 1704.416
968.0063, 1705.015
968.4885, 1704.815
968.9706, 1700.667
969.4527, 1695.801
969.9348, 1694.334
970.4169, 1697.195
970.8990, 1698.854
971.3812, 1698.800
971.8633, 1698.630
972.3454, 1700.184
972.8275, 1702.494
973.3096, 1704.264
973.7917, 1705.346
974.2739, 1705.904
974.7560, 1705.466
975.2381, 1705.029
975.7202, 1704.760
976.2023, 1704.810
976.6844, 1706.083
977.1666, 1708.586
977.6487, 1711.378
978.1308, 1714.403
978.6129, 1717.027
979.0950, 1717.713
979.5771, 1717.809
980.0593, 1719.520
980.5414, 1726.136
981.0235, 1730.218
981.5056, 1730.323
981.9877, 1729.563
982.4698, 1731.079
982.9520, 1734.566
983.4341, 1738.538
983.9162, 1742.866
984.3983, 1746.350
984.8804, 1747.118
985.3625, 1747.552
985.8447, 1749.365
986.3268, 1752.634
986.8089, 1756.305
987.2910, 1761.218
987.7731, 1763.998
988.2552, 1762.853
988.7374, 1759.939
989.2195, 1760.576
989.7016, 1763.038
990.1837, 1762.530
990.6658, 1755.442
991.1479, 1749.157
991.6301, 1748.107
992.1122, 1748.416
992.5944, 1746.115
993.0765, 1740.553
993.5586, 1736.146
994.0407, 1733.002
994.5228, 1730.378
995.0049, 1727.887
995.4871, 1725.409
995.9692, 1722.415
996.4513, 1719.077
996.9334, 1716.710
997.4155, 1716.162
997.8976, 1716.211
998.3798, 1716.967
998.8619, 1717.841
999.3440, 1717.306
999.8261, 1715.469
1000.308, 1713.282
1000.790, 1710.752
1001.272, 1708.737
1001.755, 1707.942
1002.237, 1708.024
1002.719, 1708.777
1003.201, 1710.608
1003.683, 1711.683
1004.165, 1711.942
1004.647, 1711.661
1005.129, 1710.804
1005.612, 1709.621
1006.094, 1708.744
1006.576, 1708.175
1007.058, 1707.834
1007.540, 1707.638
1008.022, 1707.750
1008.504, 1708.360
1008.986, 1709.292
1009.468, 1710.476
1009.951, 1712.054
1010.433, 1712.351
1010.915, 1710.826
1011.397, 1709.254
1011.879, 1710.083
1012.361, 1711.777
1012.843, 1712.127
1013.325, 1710.499
1013.807, 1710.278
1014.290, 1713.197
1014.772, 1715.803
1015.254, 1716.336
1015.736, 1715.440
1016.218, 1715.943
1016.700, 1717.602
1017.182, 1719.016
1017.664, 1719.852
1018.147, 1719.893
1018.629, 1718.504
1019.111, 1716.446
1019.593, 1714.742
1020.075, 1713.051
1020.557, 1713.234
1021.039, 1715.881
1021.521, 1718.372
1022.003, 1717.621
1022.486, 1715.241
1022.968, 1714.101
1023.450, 1714.284
1023.932, 1714.578
1024.414, 1714.606
1024.896, 1714.554
1025.378, 1714.411
1025.860, 1714.269
1026.343, 1714.217
1026.825, 1714.302
1027.307, 1715.333
1027.789, 1717.767
1028.271, 1720.433
1028.753, 1723.441
1029.235, 1725.471
1029.717, 1724.405
1030.199, 1718.072
1030.682, 1716.105
1031.164, 1720.130
1031.646, 1723.927
1032.128, 1722.567
1032.610, 1718.546
1033.092, 1719.017
1033.574, 1722.715
1034.056, 1724.982
1034.539, 1720.588
1035.021, 1718.277
1035.503, 1722.985
1035.985, 1729.779
1036.467, 1731.722
1036.949, 1728.639
1037.431, 1727.180
1037.913, 1728.248
1038.396, 1729.179
1038.878, 1726.946
1039.360, 1723.913
1039.842, 1722.014
1040.324, 1721.490
1040.806, 1722.490
1041.288, 1726.123
1041.770, 1728.487
1042.252, 1727.914
1042.734, 1725.986
1043.217, 1726.243
1043.699, 1727.813
1044.181, 1728.150
1044.663, 1725.275
1045.145, 1723.976
1045.627, 1728.742
1046.109, 1733.584
1046.591, 1733.367
1047.074, 1727.771
1047.556, 1725.850
1048.038, 1727.605
1048.520, 1730.088
1049.002, 1731.958
1049.484, 1733.134
1049.966, 1733.490
1050.448, 1733.094
1050.931, 1732.012
1051.413, 1729.363
1051.895, 1728.040
1052.377, 1728.390
1052.859, 1730.070
1053.341, 1733.646
1053.823, 1738.015
1054.305, 1740.908
1054.787, 1742.061
1055.270, 1741.685
1055.752, 1737.764
1056.234, 1734.619
1056.716, 1734.195
1057.198, 1735.893
1057.680, 1737.949
1058.162, 1740.257
1058.644, 1741.077
1059.126, 1739.363
1059.609, 1737.200
1060.091, 1735.851
1060.573, 1735.414
1061.055, 1736.217
1061.537, 1738.657
1062.019, 1741.002
1062.501, 1743.619
1062.983, 1744.868
1063.466, 1742.363
1063.948, 1738.493
1064.430, 1738.081
1064.912, 1740.139
1065.394, 1741.672
1065.876, 1741.253
1066.358, 1740.548
1066.840, 1739.550
1067.323, 1738.761
1067.805, 1738.742
1068.287, 1739.461
1068.769, 1740.897
1069.251, 1743.024
1069.733, 1745.219
1070.215, 1747.134
1070.697, 1748.817
1071.179, 1750.452
1071.661, 1751.839
1072.144, 1751.931
1072.626, 1750.497
1073.108, 1749.179
1073.590, 1748.247
1074.072, 1748.115
1074.554, 1750.209
1075.036, 1753.033
1075.518, 1754.742
1076.001, 1755.068
1076.483, 1753.850
1076.965, 1750.241
1077.447, 1747.045
1077.929, 1745.506
1078.411, 1745.574
1078.893, 1747.911
1079.375, 1751.783
1079.858, 1754.814
1080.340, 1755.735
1080.822, 1756.044
1081.304, 1755.812
1081.786, 1755.435
1082.268, 1755.448
1082.750, 1755.858
1083.232, 1754.819
1083.714, 1752.300
1084.197, 1750.343
1084.679, 1751.044
1085.161, 1752.310
1085.643, 1752.834
1086.125, 1752.633
1086.607, 1751.820
1087.089, 1749.924
1087.571, 1749.459
1088.054, 1751.065
1088.536, 1753.192
1089.018, 1754.221
1089.500, 1754.484
1089.982, 1754.290
1090.464, 1753.659
1090.946, 1753.207
1091.428, 1753.074
1091.911, 1753.055
1092.393, 1753.170
1092.875, 1753.243
1093.357, 1752.510
1093.839, 1751.383
1094.321, 1751.232
1094.803, 1752.689
1095.285, 1754.364
1095.767, 1755.878
1096.250, 1757.149
1096.732, 1758.224
1097.214, 1759.080
1097.696, 1759.066
1098.178, 1758.221
1098.660, 1757.291
1099.142, 1756.653
1099.624, 1756.089
1100.106, 1755.074
1100.589, 1754.191
1101.071, 1754.393
1101.553, 1755.979
1102.035, 1757.854
1102.517, 1760.149
1102.999, 1761.889
1103.481, 1761.163
1103.963, 1760.089
1104.446, 1761.983
1104.928, 1766.160
1105.410, 1769.522
1105.892, 1771.480
1106.374, 1772.081
1106.856, 1770.686
1107.338, 1769.096
1107.820, 1770.813
1108.302, 1774.003
1108.785, 1773.537
1109.267, 1768.852
1109.749, 1765.490
1110.231, 1766.867
1110.713, 1768.915
1111.195, 1770.346
1111.677, 1771.255
1112.159, 1771.884
1112.641, 1772.246
1113.124, 1772.311
1113.606, 1772.020
1114.088, 1771.746
1114.570, 1771.616
1115.052, 1771.743
1115.534, 1772.418
1116.016, 1773.581
1116.498, 1773.562
1116.981, 1772.297
1117.463, 1771.821
1117.945, 1773.504
1118.427, 1775.567
1118.909, 1776.255
1119.391, 1776.164
1119.873, 1776.110
1120.355, 1776.168
1120.838, 1776.286
1121.320, 1776.481
1121.802, 1776.584
1122.284, 1776.033
1122.766, 1775.591
1123.248, 1777.494
1123.730, 1780.457
1124.212, 1781.029
1124.694, 1774.177
1125.177, 1771.172
1125.659, 1773.804
1126.141, 1778.472
1126.623, 1782.116
1127.105, 1784.646
1127.587, 1785.509
1128.069, 1784.879
1128.551, 1784.123
1129.033, 1784.459
1129.516, 1783.767
1129.998, 1780.606
1130.480, 1777.019
1130.962, 1776.807
1131.444, 1779.343
1131.926, 1781.597
1132.408, 1783.156
1132.890, 1784.115
1133.373, 1784.461
1133.855, 1784.301
1134.337, 1783.667
1134.819, 1782.660
1135.301, 1781.407
1135.783, 1779.952
1136.265, 1778.649
1136.747, 1777.476
1137.229, 1776.985
1137.712, 1778.328
1138.194, 1780.060
1138.676, 1780.901
1139.158, 1780.825
1139.640, 1780.142
1140.122, 1778.733
1140.604, 1777.632
1141.086, 1776.849
1141.569, 1777.280
1142.051, 1782.003
1142.533, 1787.584
1143.015, 1788.879
1143.497, 1782.964
1143.979, 1780.677
1144.461, 1782.795
1144.943, 1785.529
1145.426, 1786.622
1145.908, 1786.834
1146.390, 1787.509
1146.872, 1788.179
1147.354, 1787.883
1147.836, 1784.615
1148.318, 1783.212
1148.800, 1784.410
1149.282, 1786.007
1149.765, 1786.009
1150.247, 1785.121
1150.729, 1785.033
1151.211, 1785.556
1151.693, 1785.696
1152.175, 1784.508
1152.657, 1783.789
1153.139, 1784.006
1153.621, 1784.536
1154.104, 1784.312
1154.586, 1783.809
1155.068, 1785.344
1155.550, 1788.745
1156.032, 1790.484
1156.514, 1786.857
1156.996, 1783.648
1157.478, 1782.185
1157.961, 1782.559
1158.443, 1786.174
1158.925, 1792.100
1159.407, 1794.751
1159.889, 1793.262
1160.371, 1791.240
1160.853, 1790.095
1161.335, 1789.818
1161.818, 1790.406
1162.300, 1791.761
1162.782, 1794.013
1163.264, 1797.026
1163.746, 1799.518
1164.228, 1801.333
1164.710, 1801.890
1165.192, 1799.548
1165.674, 1796.853
1166.156, 1795.912
1166.639, 1796.395
1167.121, 1795.925
1167.603, 1794.529
1168.085, 1793.774
1168.567, 1794.297
1169.049, 1795.228
1169.531, 1795.642
1170.013, 1796.222
1170.496, 1798.191
1170.978, 1801.594
1171.460, 1801.943
1171.942, 1798.999
1172.424, 1797.167
1172.906, 1799.039
1173.388, 1801.695
1173.870, 1802.634
1174.353, 1802.361
1174.835, 1801.209
1175.317, 1798.824
1175.799, 1798.228
1176.281, 1799.619
1176.763, 1801.299
1177.245, 1802.428
1177.727, 1803.271
1178.209, 1804.690
1178.692, 1805.861
1179.174, 1805.105
1179.656, 1800.797
1180.138, 1798.811
1180.620, 1799.446
1181.102, 1800.703
1181.584, 1800.942
1182.066, 1801.108
1182.548, 1803.027
1183.031, 1803.038
1183.513, 1803.429
1183.995, 1804.699
1184.477, 1804.158
1184.959, 1805.808
1185.441, 1807.539
1185.923, 1807.128
1186.405, 1805.932
1186.888, 1806.029
1187.370, 1807.029
1187.852, 1807.328
1188.334, 1806.288
1188.816, 1805.065
1189.298, 1803.425
1189.780, 1802.723
1190.262, 1805.620
1190.745, 1809.630
1191.227, 1810.788
1191.709, 1809.360
1192.191, 1807.962
1192.673, 1806.909
1193.155, 1806.297
1193.637, 1806.069
1194.119, 1806.471
1194.601, 1808.212
1195.084, 1810.578
1195.566, 1812.672
1196.048, 1814.365
1196.530, 1815.070
1197.012, 1814.228
1197.494, 1813.274
1197.976, 1812.251
1198.458, 1811.732
1198.941, 1813.366
1199.423, 1815.680
1199.905, 1815.775
1200.387, 1813.417
1200.869, 1811.802
1201.351, 1811.484
1201.833, 1812.288
1202.315, 1814.850
1202.797, 1817.144
1203.280, 1814.519
1203.762, 1809.889
1204.244, 1808.867
1204.726, 1812.520
1205.208, 1814.644
1205.690, 1813.785
1206.172, 1812.108
1206.654, 1809.760
1207.136, 1807.806
1207.619, 1808.597
1208.101, 1810.902
1208.583, 1812.447
1209.065, 1812.633
1209.547, 1813.742
1210.029, 1816.935
1210.511, 1819.071
1210.993, 1818.567
1211.476, 1817.130
1211.958, 1818.168
1212.440, 1820.468
1212.922, 1821.717
1213.404, 1821.162
1213.886, 1821.415
1214.368, 1823.689
1214.850, 1824.441
1215.333, 1821.245
1215.815, 1817.156
1216.297, 1818.714
1216.779, 1823.155
1217.261, 1825.265
1217.743, 1823.080
1218.225, 1822.292
1218.707, 1824.405
1219.189, 1824.983
1219.672, 1820.513
1220.154, 1815.138
1220.636, 1818.059
1221.118, 1825.114
1221.600, 1828.656
1222.082, 1825.213
1222.564, 1823.488
1223.046, 1824.133
1223.528, 1825.762
1224.011, 1828.300
1224.493, 1830.625
1224.975, 1830.145
1225.457, 1828.295
1225.939, 1827.655
1226.421, 1829.516
1226.903, 1830.718
1227.385, 1831.233
1227.868, 1831.050
1228.350, 1829.752
1228.832, 1828.197
1229.314, 1827.746
1229.796, 1827.965
1230.278, 1828.227
1230.760, 1828.817
1231.242, 1827.798
1231.724, 1824.575
1232.207, 1822.576
1232.689, 1824.882
1233.171, 1828.408
1233.653, 1829.532
1234.135, 1828.971
1234.617, 1827.724
1235.099, 1825.246
1235.581, 1824.911
1236.063, 1827.127
1236.546, 1828.838
1237.028, 1827.770
1237.510, 1825.666
1237.992, 1823.554
1238.474, 1821.982
1238.956, 1822.032
1239.438, 1824.055
1239.920, 1826.076
1240.403, 1828.055
1240.885, 1830.020
1241.367, 1831.953
1241.849, 1833.829
1242.331, 1835.844
1242.813, 1837.595
1243.295, 1838.560
1243.777, 1838.768
1244.260, 1837.437
1244.742, 1834.539
1245.224, 1832.594
1245.706, 1833.279
1246.188, 1835.328
1246.670, 1839.574
1247.152, 1843.702
1247.634, 1844.431
1248.116, 1841.470
1248.599, 1839.904
1249.081, 1839.690
1249.563, 1839.434
1250.045, 1837.096
1250.527, 1835.918
1251.009, 1839.418
1251.491, 1843.619
1251.973, 1844.131
1252.455, 1841.135
1252.938, 1839.141
1253.420, 1838.155
1253.902, 1837.833
1254.384, 1838.432
1254.866, 1839.096
1255.348, 1839.442
1255.830, 1839.824
1256.313, 1840.537
1256.795, 1841.580
1257.277, 1843.172
1257.759, 1845.129
1258.241, 1846.474
1258.723, 1846.156
1259.205, 1846.088
1259.687, 1846.986
1260.169, 1847.704
1260.651, 1846.611
1261.134, 1844.631
1261.616, 1845.383
1262.098, 1847.986
1262.580, 1849.342
1263.062, 1845.926
1263.544, 1845.133
1264.026, 1848.747
1264.508, 1852.264
1264.991, 1851.173
1265.473, 1847.811
1265.955, 1846.208
1266.437, 1846.155
1266.919, 1846.983
1267.401, 1849.273
1267.883, 1851.317
1268.365, 1853.328
1268.848, 1854.305
1269.330, 1852.375
1269.812, 1849.844
1270.294, 1849.776
1270.776, 1851.363
1271.258, 1852.880
1271.740, 1854.370
1272.222, 1854.788
1272.704, 1853.959
1273.187, 1853.266
1273.669, 1853.395
1274.151, 1854.305
1274.633, 1857.141
1275.115, 1860.147
1275.597, 1860.340
1276.079, 1857.018
1276.561, 1855.749
1277.043, 1856.543
1277.526, 1858.245
1278.008, 1862.568
1278.490, 1864.861
1278.972, 1859.498
1279.454, 1852.860
1279.936, 1852.084
1280.418, 1856.902
1280.900, 1858.571
1281.383, 1857.476
1281.865, 1856.229
1282.347, 1855.525
1282.829, 1855.677
1283.311, 1857.324
1283.793, 1859.145
1284.275, 1860.125
1284.757, 1860.436
1285.240, 1861.017
1285.722, 1861.636
1286.204, 1861.492
1286.686, 1859.246
1287.168, 1858.279
1287.650, 1859.490
1288.132, 1860.757
1288.614, 1859.907
1289.096, 1858.680
1289.578, 1861.638
1290.061, 1866.728
1290.543, 1869.731
1291.025, 1868.975
1291.507, 1866.809
1291.989, 1862.570
1292.471, 1859.932
1292.953, 1861.689
1293.435, 1865.218
1293.918, 1868.467
1294.400, 1870.906
1294.882, 1871.496
1295.364, 1870.051
1295.846, 1869.365
1296.328, 1869.498
1296.810, 1869.179
1297.292, 1866.923
1297.775, 1865.289
1298.257, 1867.756
1298.739, 1870.956
1299.221, 1871.866
1299.703, 1870.576
1300.185, 1867.309
1300.667, 1862.595
1301.149, 1859.492
1301.631, 1859.553
1302.114, 1859.662
1302.596, 1861.002
##END=



