##NAMES=Bertossaite
##RRUFFID=R060666
##IDEAL CHEMISTRY=Li_2_CaAl_4_(PO_4_)_4_(OH)_4_
##LOCALITY=Buranga, Rwanda
##OWNER=RRUFF
##SOURCE=Michael Scott
##DESCRIPTION=Pale pink massive
##STATUS=The identification of this mineral is confirmed by single-crystal X-ray diffraction and chemical analysis.
##URL=rruff.info/R060666
##MEASURED CHEMISTRY=(Li_1.86_Na_0.14_)_Σ=2_(Ca_0.90_Mn_0.06_Mg_0.04_)_Σ=1_(Al_3.90_Fe^3+^_0.10_)_Σ=4_(P_1.00_O_4_)_4_((OH)_3.06_F_0.94_)_Σ=4_; H_2_O assumed by stoichiometry; Li estimated by difference; OH estimated by charge balance
125.867, 1761.065
126.349, 1887.312
126.831, 1996.106
127.313, 2107.040
127.795, 2227.147
128.277, 2358.479
128.759, 2499.564
129.241, 2651.785
129.723, 2820.768
130.206, 2985.479
130.688, 3165.754
131.170, 3328.679
131.652, 3462.307
132.134, 3561.070
132.616, 3611.666
133.098, 3585.801
133.580, 3435.007
134.062, 3294.988
134.545, 3168.117
135.027, 3054.900
135.509, 2956.812
135.991, 2874.021
136.473, 2805.521
136.955, 2747.806
137.437, 2693.269
137.919, 2663.903
138.402, 2662.434
138.884, 2683.849
139.366, 2724.020
139.848, 2781.350
140.330, 2854.523
140.812, 2941.702
141.294, 3045.895
141.776, 3161.982
142.258, 3289.228
142.741, 3428.636
143.223, 3585.745
143.705, 3765.403
144.187, 3958.537
144.669, 4130.267
145.151, 4268.383
145.633, 4399.467
146.115, 4533.087
146.598, 4662.757
147.080, 4780.530
147.562, 4883.292
148.044, 4968.375
148.526, 5012.729
149.008, 4997.355
149.490, 4971.677
149.972, 4954.718
150.454, 4939.475
150.936, 4906.868
151.419, 4843.542
151.901, 4752.973
152.383, 4670.283
152.865, 4590.618
153.347, 4521.188
153.829, 4469.050
154.311, 4430.766
154.794, 4394.548
155.276, 4351.325
155.758, 4303.845
156.240, 4271.681
156.722, 4260.813
157.204, 4258.198
157.686, 4254.392
158.168, 4250.982
158.650, 4258.393
159.133, 4284.291
159.615, 4329.319
160.097, 4380.505
160.579, 4439.801
161.061, 4503.099
161.543, 4568.136
162.025, 4634.725
162.507, 4702.622
162.990, 4771.601
163.472, 4841.987
163.954, 4913.524
164.436, 4983.010
164.918, 5055.927
165.400, 5143.978
165.882, 5247.018
166.364, 5339.427
166.846, 5402.816
167.329, 5438.229
167.811, 5459.336
168.293, 5478.322
168.775, 5476.846
169.257, 5427.452
169.739, 5326.898
170.221, 5220.521
170.703, 5147.171
171.185, 5095.786
171.668, 5025.550
172.150, 4914.060
172.632, 4789.610
173.114, 4682.651
173.596, 4594.847
174.078, 4516.402
174.560, 4444.975
175.042, 4377.959
175.525, 4308.530
176.007, 4227.382
176.489, 4146.470
176.971, 4083.908
177.453, 4042.585
177.935, 4004.802
178.417, 3949.565
178.899, 3887.011
179.381, 3845.054
179.863, 3846.154
180.346, 3865.427
180.828, 3866.433
181.310, 3844.019
181.792, 3822.185
182.274, 3822.102
182.756, 3835.539
183.238, 3847.518
183.721, 3855.328
184.203, 3858.613
184.685, 3853.786
185.167, 3837.562
185.649, 3825.657
186.131, 3835.644
186.613, 3857.722
187.095, 3874.685
187.577, 3877.894
188.059, 3874.062
188.542, 3850.253
189.024, 3842.094
189.506, 3860.097
189.988, 3871.749
190.470, 3877.391
190.952, 3859.026
191.434, 3871.662
191.917, 3871.875
192.399, 3871.578
192.881, 3888.577
193.363, 3885.234
193.845, 3871.996
194.327, 3866.074
194.809, 3856.673
195.291, 3835.318
195.773, 3811.175
196.255, 3801.793
196.738, 3811.843
197.220, 3818.316
197.702, 3797.790
198.184, 3765.874
198.666, 3743.232
199.148, 3710.943
199.630, 3707.810
200.112, 3700.057
200.595, 3722.188
201.077, 3737.064
201.559, 3745.076
202.041, 3725.664
202.523, 3741.664
203.005, 3743.473
203.487, 3744.701
203.969, 3765.685
204.452, 3750.263
204.934, 3770.933
205.416, 3777.196
205.898, 3790.053
206.380, 3788.632
206.862, 3791.621
207.344, 3796.807
207.826, 3806.876
208.308, 3862.746
208.790, 3907.318
209.273, 3901.004
209.755, 3870.023
210.237, 3845.994
210.719, 3833.231
211.201, 3832.001
211.683, 3850.986
212.165, 3892.614
212.648, 3919.802
213.130, 3899.034
213.612, 3861.974
214.094, 3851.092
214.576, 3881.131
215.058, 3921.548
215.540, 3942.372
216.022, 3943.411
216.504, 3947.657
216.986, 3968.463
217.469, 3994.791
217.951, 4011.850
218.433, 4015.813
218.915, 4017.003
219.397, 4021.194
219.879, 4028.697
220.361, 4043.556
220.844, 4067.946
221.326, 4100.854
221.808, 4139.960
222.290, 4186.443
222.772, 4235.491
223.254, 4285.232
223.736, 4335.245
224.218, 4381.009
224.700, 4414.720
225.182, 4450.711
225.665, 4507.970
226.147, 4589.833
226.629, 4673.694
227.111, 4743.108
227.593, 4803.532
228.075, 4873.063
228.557, 4955.195
229.040, 5049.815
229.522, 5156.349
230.004, 5274.229
230.486, 5398.699
230.968, 5524.121
231.450, 5654.380
231.932, 5799.077
232.414, 5961.436
232.896, 6135.492
233.378, 6315.547
233.861, 6500.647
234.343, 6696.413
234.825, 6908.299
235.307, 7132.012
235.789, 7362.951
236.271, 7604.783
236.753, 7842.048
237.235, 8059.070
237.718, 8258.203
238.200, 8436.233
238.682, 8607.597
239.164, 8751.765
239.646, 8838.787
240.128, 8864.333
240.610, 8864.593
241.092, 8884.408
241.574, 8916.119
242.057, 8864.068
242.539, 8674.125
243.021, 8429.599
243.503, 8191.896
243.985, 7965.312
244.467, 7736.682
244.949, 7494.392
245.431, 7241.069
245.913, 7004.485
246.396, 6781.283
246.878, 6576.554
247.360, 6394.163
247.842, 6233.730
248.324, 6098.149
248.806, 5991.493
249.288, 5910.546
249.770, 5832.274
250.253, 5751.073
250.735, 5677.527
251.217, 5616.930
251.699, 5566.862
252.181, 5519.950
252.663, 5470.689
253.145, 5425.651
253.627, 5409.635
254.109, 5446.774
254.592, 5479.400
255.074, 5489.350
255.556, 5490.439
256.038, 5504.411
256.520, 5540.200
257.002, 5586.739
257.484, 5620.918
257.966, 5634.821
258.449, 5646.388
258.931, 5654.950
259.413, 5662.009
259.895, 5667.725
260.377, 5672.524
260.859, 5679.172
261.341, 5691.688
261.823, 5711.113
262.306, 5735.447
262.788, 5774.338
263.270, 5810.852
263.752, 5833.595
264.234, 5841.301
264.716, 5838.748
265.198, 5829.248
265.680, 5808.943
266.162, 5800.335
266.645, 5814.915
267.127, 5828.978
267.609, 5835.866
268.091, 5833.502
268.573, 5819.070
269.055, 5787.669
269.537, 5739.525
270.019, 5705.035
270.501, 5690.178
270.984, 5684.648
271.466, 5695.870
271.948, 5713.883
272.430, 5721.965
272.912, 5708.985
273.394, 5680.631
273.876, 5658.531
274.358, 5638.375
274.841, 5633.076
275.323, 5645.344
275.805, 5671.672
276.287, 5709.471
276.769, 5757.894
277.251, 5814.785
277.733, 5875.689
278.215, 5938.806
278.698, 6010.955
279.180, 6098.851
279.662, 6192.885
280.144, 6286.366
280.626, 6377.956
281.108, 6470.546
281.590, 6568.604
282.072, 6672.944
282.554, 6775.645
283.036, 6869.103
283.519, 6966.602
284.001, 7082.545
284.483, 7215.200
284.965, 7342.544
285.447, 7458.988
285.929, 7559.936
286.411, 7621.563
286.893, 7630.441
287.376, 7618.626
287.858, 7612.133
288.340, 7606.951
288.822, 7587.640
289.304, 7548.519
289.786, 7491.806
290.268, 7420.082
290.750, 7333.786
291.233, 7231.856
291.715, 7105.056
292.197, 6962.097
292.679, 6824.768
293.161, 6701.751
293.643, 6581.764
294.125, 6458.492
294.607, 6331.464
295.089, 6195.536
295.572, 6042.515
296.054, 5882.363
296.536, 5742.727
297.018, 5623.673
297.500, 5520.861
297.982, 5439.508
298.464, 5373.348
298.946, 5309.939
299.428, 5245.256
299.911, 5181.677
300.393, 5122.833
300.875, 5069.974
301.357, 5019.180
301.839, 4971.841
302.321, 4925.524
302.803, 4875.197
303.285, 4820.616
303.767, 4770.011
304.250, 4731.792
304.732, 4707.134
305.214, 4692.708
305.696, 4699.158
306.178, 4704.837
306.660, 4695.951
307.142, 4675.605
307.625, 4655.370
308.107, 4643.331
308.589, 4639.433
309.071, 4642.845
309.553, 4656.120
310.035, 4674.577
310.517, 4701.522
310.999, 4732.042
311.481, 4758.840
311.964, 4778.051
312.446, 4794.089
312.928, 4817.025
313.410, 4844.190
313.892, 4884.647
314.374, 4947.344
314.856, 5016.819
315.338, 5078.381
315.820, 5129.611
316.303, 5184.348
316.785, 5259.590
317.267, 5356.923
317.749, 5460.944
318.231, 5566.042
318.713, 5683.227
319.195, 5818.751
319.677, 5971.460
320.159, 6138.218
320.642, 6310.399
321.124, 6494.229
321.606, 6708.956
322.088, 6960.741
322.570, 7234.552
323.052, 7525.765
323.534, 7832.646
324.016, 8156.001
324.499, 8499.364
324.981, 8858.097
325.463, 9229.300
325.945, 9612.503
326.427, 9996.242
326.909, 10370.100
327.391, 10745.110
327.873, 11152.640
328.355, 11645.650
328.838, 12060.400
329.320, 12299.880
329.802, 12412.030
330.284, 12498.210
330.766, 12590.490
331.248, 12648.610
331.730, 12613.750
332.212, 12472.670
332.694, 12277.390
333.177, 12015.900
333.659, 11711.870
334.141, 11369.270
334.623, 10996.160
335.105, 10619.510
335.587, 10257.670
336.069, 9912.553
336.552, 9573.116
337.034, 9236.666
337.516, 8908.723
337.998, 8582.102
338.480, 8264.559
338.962, 7966.048
339.444, 7691.709
339.926, 7439.587
340.408, 7206.247
340.891, 6986.350
341.373, 6794.150
341.855, 6665.374
342.337, 6539.770
342.819, 6354.579
343.301, 6100.650
343.783, 5841.135
344.265, 5650.344
344.747, 5534.573
345.230, 5431.020
345.712, 5344.999
346.194, 5261.930
346.676, 5176.219
347.158, 5087.342
347.640, 4996.040
348.122, 4896.424
348.604, 4795.576
349.086, 4711.840
349.569, 4647.099
350.051, 4591.830
350.533, 4544.083
351.015, 4501.877
351.497, 4462.930
351.979, 4426.582
352.461, 4394.254
352.944, 4367.760
353.426, 4346.563
353.908, 4328.663
354.390, 4314.809
354.872, 4301.972
355.354, 4282.971
355.836, 4255.005
356.318, 4234.947
356.800, 4228.160
357.283, 4230.529
357.765, 4238.390
358.247, 4251.035
358.729, 4268.990
359.211, 4295.553
359.693, 4332.655
360.175, 4348.924
360.657, 4323.600
361.139, 4302.404
361.622, 4307.029
362.104, 4328.815
362.586, 4349.083
363.068, 4357.800
363.550, 4358.976
364.032, 4364.609
364.514, 4377.584
364.996, 4390.671
365.478, 4409.914
365.961, 4424.798
366.443, 4424.278
366.925, 4407.562
367.407, 4386.277
367.889, 4373.656
368.371, 4370.290
368.853, 4365.024
369.335, 4361.168
369.818, 4350.302
370.300, 4327.509
370.782, 4295.048
371.264, 4258.123
371.746, 4214.255
372.228, 4170.963
372.710, 4143.860
373.192, 4135.465
373.674, 4123.264
374.157, 4096.962
374.639, 4060.391
375.121, 4019.753
375.603, 3971.939
376.085, 3928.695
376.567, 3900.182
377.049, 3879.922
377.531, 3854.464
378.013, 3820.352
378.496, 3781.496
378.978, 3740.427
379.460, 3695.211
379.942, 3661.508
380.424, 3650.167
380.906, 3641.423
381.388, 3620.594
381.871, 3590.604
382.353, 3564.193
382.835, 3550.427
383.317, 3546.168
383.799, 3535.006
384.281, 3503.926
384.763, 3482.201
385.245, 3481.210
385.727, 3486.153
386.210, 3479.787
386.692, 3458.525
387.174, 3436.668
387.656, 3435.027
388.138, 3457.586
388.620, 3474.671
389.102, 3487.941
389.584, 3491.938
390.066, 3474.837
390.549, 3445.775
391.031, 3429.549
391.513, 3444.875
391.995, 3477.347
392.477, 3501.502
392.959, 3517.115
393.441, 3524.439
393.923, 3515.624
394.405, 3502.666
394.888, 3505.856
395.370, 3530.823
395.852, 3557.817
396.334, 3577.007
396.816, 3591.118
397.298, 3603.975
397.780, 3616.069
398.263, 3631.317
398.745, 3655.723
399.227, 3691.854
399.709, 3718.826
400.191, 3723.955
400.673, 3732.259
401.155, 3764.043
401.637, 3809.755
402.119, 3844.918
402.602, 3855.060
403.084, 3848.297
403.566, 3849.702
404.048, 3863.061
404.530, 3879.214
405.012, 3898.255
405.494, 3919.041
405.976, 3944.286
406.458, 3972.659
406.941, 3994.638
407.423, 3995.859
407.905, 3977.735
408.387, 3974.171
408.869, 3996.302
409.351, 4014.747
409.833, 4007.164
410.315, 3987.245
410.797, 3979.555
411.280, 3997.435
411.762, 4021.310
412.244, 4025.195
412.726, 4013.471
413.208, 4021.359
413.690, 4068.027
414.172, 4127.267
414.654, 4152.320
415.137, 4137.081
415.619, 4136.430
416.101, 4170.133
416.583, 4216.504
417.065, 4258.725
417.547, 4294.751
418.029, 4325.443
418.511, 4349.645
418.993, 4369.473
419.476, 4404.442
419.958, 4466.533
420.440, 4530.421
420.922, 4602.264
421.404, 4669.730
421.886, 4712.433
422.368, 4727.368
422.850, 4742.384
423.332, 4797.541
423.815, 4898.198
424.297, 4993.330
424.779, 5080.752
425.261, 5162.600
425.743, 5235.426
426.225, 5304.028
426.707, 5379.051
427.190, 5466.466
427.672, 5561.131
428.154, 5652.567
428.636, 5741.397
429.118, 5841.370
429.600, 5962.803
430.082, 6092.392
430.564, 6206.466
431.046, 6300.456
431.529, 6402.794
432.011, 6531.070
432.493, 6665.787
432.975, 6783.160
433.457, 6882.145
433.939, 6981.550
434.421, 7097.889
434.903, 7228.530
435.385, 7339.753
435.868, 7423.133
436.350, 7495.974
436.832, 7564.995
437.314, 7622.726
437.796, 7657.671
438.278, 7667.383
438.760, 7667.419
439.242, 7683.771
439.724, 7721.255
440.207, 7726.159
440.689, 7688.167
441.171, 7624.750
441.653, 7538.184
442.135, 7435.738
442.617, 7334.050
443.099, 7238.522
443.581, 7146.736
444.064, 7058.017
444.546, 6971.583
445.028, 6878.673
445.510, 6774.088
445.992, 6665.705
446.474, 6567.126
446.956, 6477.723
447.438, 6395.661
447.921, 6320.664
448.403, 6252.377
448.885, 6191.765
449.367, 6138.295
449.849, 6091.759
450.331, 6052.563
450.813, 6019.026
451.295, 5981.193
451.777, 5930.962
452.259, 5888.229
452.742, 5851.592
453.224, 5825.111
453.706, 5813.058
454.188, 5815.714
454.670, 5827.858
455.152, 5852.918
455.634, 5887.426
456.116, 5894.286
456.599, 5858.500
457.081, 5825.735
457.563, 5825.794
458.045, 5844.329
458.527, 5861.273
459.009, 5873.685
459.491, 5882.485
459.973, 5889.070
460.456, 5892.395
460.938, 5893.764
461.420, 5894.874
461.902, 5880.786
462.384, 5831.008
462.866, 5738.239
463.348, 5655.961
463.830, 5591.414
464.312, 5529.519
464.795, 5472.056
465.277, 5411.245
465.759, 5332.088
466.241, 5227.073
466.723, 5109.821
467.205, 5007.093
467.687, 4924.608
468.169, 4836.430
468.651, 4727.632
469.134, 4624.320
469.616, 4543.502
470.098, 4480.666
470.580, 4416.250
471.062, 4336.192
471.544, 4252.205
472.026, 4179.832
472.508, 4119.001
472.991, 4069.186
473.473, 4034.238
473.955, 4005.877
474.437, 3968.597
474.919, 3920.519
475.401, 3873.238
475.883, 3829.320
476.365, 3786.531
476.848, 3737.400
477.330, 3685.770
477.812, 3647.974
478.294, 3636.737
478.776, 3645.708
479.258, 3646.220
479.740, 3636.495
480.222, 3620.547
480.704, 3593.551
481.186, 3565.237
481.669, 3542.021
482.151, 3525.096
482.633, 3513.611
483.115, 3505.800
483.597, 3502.888
484.079, 3511.778
484.561, 3535.668
485.043, 3556.301
485.526, 3563.738
486.008, 3561.358
486.490, 3556.802
486.972, 3546.317
487.454, 3542.289
487.936, 3557.924
488.418, 3578.682
488.900, 3581.548
489.383, 3565.266
489.865, 3551.981
490.347, 3561.967
490.829, 3593.843
491.311, 3619.431
491.793, 3642.259
492.275, 3653.414
492.757, 3643.039
493.239, 3625.221
493.722, 3612.933
494.204, 3609.452
494.686, 3612.202
495.168, 3620.341
495.650, 3633.131
496.132, 3646.109
496.614, 3660.255
497.096, 3671.333
497.578, 3675.364
498.061, 3674.694
498.543, 3673.521
499.025, 3668.903
499.507, 3669.717
499.989, 3685.819
500.471, 3708.237
500.953, 3721.207
501.435, 3722.033
501.918, 3721.334
502.400, 3728.968
502.882, 3744.946
503.364, 3765.998
503.846, 3799.022
504.328, 3829.223
504.810, 3852.982
505.292, 3872.803
505.775, 3889.360
506.257, 3903.386
506.739, 3921.143
507.221, 3950.285
507.703, 3989.647
508.185, 4032.545
508.667, 4081.767
509.149, 4126.487
509.631, 4159.379
510.114, 4182.809
510.596, 4188.698
511.078, 4204.533
511.560, 4217.954
512.042, 4229.089
512.524, 4231.097
513.006, 4244.892
513.488, 4253.962
513.971, 4262.843
514.453, 4278.295
514.935, 4281.631
515.417, 4296.981
515.899, 4307.535
516.381, 4316.976
516.863, 4323.760
517.345, 4331.885
517.827, 4334.600
518.310, 4330.359
518.792, 4322.520
519.274, 4314.405
519.756, 4305.407
520.238, 4292.693
520.720, 4275.904
521.202, 4256.189
521.684, 4232.244
522.166, 4206.389
522.649, 4182.655
523.131, 4142.286
523.613, 4113.770
524.095, 4095.770
524.577, 4075.218
525.059, 4052.252
525.541, 4019.628
526.023, 3999.474
526.505, 3974.323
526.988, 3948.967
527.470, 3930.563
527.952, 3903.986
528.434, 3899.338
528.916, 3891.289
529.398, 3878.380
529.880, 3857.438
530.362, 3828.740
530.844, 3800.037
531.327, 3775.823
531.809, 3755.193
532.291, 3735.323
532.773, 3716.102
533.255, 3701.722
533.737, 3694.894
534.219, 3693.696
534.701, 3694.437
535.184, 3701.707
535.666, 3700.791
536.148, 3680.120
536.630, 3658.654
537.112, 3652.376
537.594, 3658.806
538.076, 3665.291
538.558, 3663.737
539.041, 3657.228
539.523, 3655.020
540.005, 3659.633
540.487, 3658.544
540.969, 3646.224
541.451, 3630.213
541.933, 3617.643
542.415, 3607.321
542.898, 3591.690
543.380, 3557.571
543.862, 3525.550
544.344, 3510.459
544.826, 3504.883
545.308, 3510.634
545.790, 3513.636
546.272, 3514.036
546.754, 3504.041
547.237, 3507.469
547.719, 3505.518
548.201, 3503.346
548.683, 3508.663
549.165, 3505.172
549.647, 3510.239
550.129, 3518.010
550.611, 3521.503
551.093, 3525.042
551.576, 3536.935
552.058, 3554.874
552.540, 3559.727
553.022, 3543.478
553.504, 3532.991
553.986, 3552.987
554.468, 3595.823
554.950, 3622.985
555.432, 3623.707
555.915, 3622.484
556.397, 3624.643
556.879, 3629.971
557.361, 3641.182
557.843, 3656.850
558.325, 3668.740
558.807, 3669.656
559.289, 3660.516
559.771, 3645.807
560.254, 3619.644
560.736, 3600.850
561.218, 3602.636
561.700, 3608.613
562.182, 3607.586
562.664, 3598.501
563.146, 3581.868
563.628, 3548.283
564.111, 3513.448
564.593, 3500.313
565.075, 3505.023
565.557, 3505.349
566.039, 3491.066
566.521, 3468.199
567.003, 3448.241
567.485, 3434.406
567.968, 3414.666
568.450, 3381.807
568.932, 3351.201
569.414, 3329.387
569.896, 3314.662
570.378, 3304.819
570.860, 3300.028
571.342, 3293.796
571.825, 3273.203
572.307, 3242.546
572.789, 3227.779
573.271, 3235.615
573.753, 3247.988
574.235, 3251.656
574.717, 3247.950
575.199, 3246.383
575.681, 3249.580
576.164, 3251.430
576.646, 3248.618
577.128, 3244.964
577.610, 3246.112
578.092, 3251.328
578.574, 3252.634
579.056, 3241.380
579.538, 3222.939
580.020, 3220.216
580.503, 3238.562
580.985, 3251.659
581.467, 3248.986
581.949, 3240.791
582.431, 3234.407
582.913, 3230.128
583.395, 3237.187
583.877, 3272.287
584.360, 3307.043
584.842, 3315.584
585.324, 3307.092
585.806, 3304.323
586.288, 3315.680
586.770, 3334.277
587.252, 3349.559
587.734, 3359.761
588.216, 3380.008
588.699, 3419.994
589.181, 3457.422
589.663, 3481.160
590.145, 3499.738
590.627, 3522.820
591.109, 3551.914
591.591, 3589.261
592.073, 3643.363
592.555, 3703.739
593.038, 3750.509
593.520, 3783.866
594.002, 3821.966
594.484, 3875.984
594.966, 3940.807
595.448, 4001.727
595.930, 4060.330
596.412, 4112.650
596.895, 4132.937
597.377, 4172.107
597.859, 4273.472
598.341, 4414.417
598.823, 4538.080
599.305, 4615.033
599.787, 4678.625
600.269, 4773.828
600.752, 4891.071
601.234, 4988.702
601.716, 5057.771
602.198, 5114.693
602.680, 5173.378
603.162, 5232.174
603.644, 5277.269
604.126, 5307.776
604.609, 5327.172
605.091, 5333.052
605.573, 5329.966
606.055, 5324.391
606.537, 5314.558
607.019, 5289.647
607.501, 5237.344
607.983, 5170.638
608.465, 5115.560
608.948, 5072.307
609.430, 5037.910
609.912, 5010.627
610.394, 4994.026
610.876, 4992.500
611.358, 4988.899
611.840, 5003.674
612.322, 5013.988
612.804, 5020.081
613.287, 5009.312
613.769, 5020.317
614.251, 5022.596
614.733, 5029.196
615.215, 5040.333
615.697, 5072.818
616.179, 5120.928
616.661, 5154.610
617.143, 5169.864
617.626, 5189.738
618.108, 5219.885
618.590, 5261.099
619.072, 5305.605
619.554, 5320.739
620.036, 5351.566
620.518, 5378.585
621.000, 5402.000
621.482, 5411.013
621.965, 5438.627
622.447, 5458.782
622.929, 5478.634
623.411, 5504.758
623.893, 5537.610
624.375, 5600.439
624.857, 5631.832
625.339, 5624.041
625.822, 5605.299
626.304, 5580.839
626.786, 5556.452
627.268, 5541.737
627.750, 5538.913
628.232, 5534.866
628.714, 5524.290
629.196, 5512.918
629.679, 5508.304
630.161, 5506.298
630.643, 5494.864
631.125, 5468.975
631.607, 5439.198
632.089, 5421.105
632.571, 5399.450
633.053, 5390.716
633.536, 5378.840
634.018, 5364.003
634.500, 5337.310
634.982, 5325.924
635.464, 5309.819
635.946, 5284.403
636.428, 5255.626
636.910, 5208.723
637.392, 5161.804
637.875, 5140.897
638.357, 5134.461
638.839, 5104.684
639.321, 5032.786
639.803, 4942.572
640.285, 4879.142
640.767, 4846.607
641.249, 4790.002
641.731, 4693.586
642.214, 4596.904
642.696, 4521.657
643.178, 4460.311
643.660, 4400.711
644.142, 4342.638
644.624, 4284.503
645.106, 4218.375
645.588, 4157.616
646.070, 4119.480
646.553, 4098.046
647.035, 4071.324
647.517, 4027.665
647.999, 3983.065
648.481, 3968.370
648.963, 3986.234
649.445, 3998.902
649.927, 4000.419
650.409, 4004.636
650.892, 4024.043
651.374, 4050.201
651.856, 4064.447
652.338, 4058.365
652.820, 4060.711
653.302, 4083.048
653.784, 4114.744
654.266, 4145.249
654.749, 4176.908
655.231, 4220.096
655.713, 4280.420
656.195, 4346.638
656.677, 4402.441
657.159, 4447.632
657.641, 4482.376
658.123, 4501.486
658.606, 4523.834
659.088, 4566.052
659.570, 4617.235
660.052, 4651.354
660.534, 4665.150
661.016, 4671.313
661.498, 4669.619
661.980, 4663.658
662.463, 4656.250
662.945, 4646.785
663.427, 4633.093
663.909, 4614.151
664.391, 4592.023
664.873, 4574.215
665.355, 4558.383
665.837, 4517.379
666.319, 4443.694
666.802, 4373.631
667.284, 4333.336
667.766, 4305.458
668.248, 4247.163
668.730, 4144.896
669.212, 4052.402
669.694, 3975.783
670.176, 3908.311
670.658, 3853.771
671.141, 3803.716
671.623, 3744.599
672.105, 3671.585
672.587, 3592.045
673.069, 3511.210
673.551, 3430.411
674.033, 3355.149
674.515, 3285.524
674.997, 3221.218
675.480, 3162.105
675.962, 3108.820
676.444, 3063.764
676.926, 3032.010
677.408, 2991.933
677.890, 2919.804
678.372, 2866.729
678.854, 2823.323
679.336, 2809.992
679.819, 2789.351
680.301, 2761.813
680.783, 2706.666
681.265, 2687.164
681.747, 2653.382
682.229, 2619.009
682.711, 2604.517
683.193, 2566.645
683.676, 2541.205
684.158, 2528.647
684.640, 2509.765
685.122, 2483.749
685.604, 2457.942
686.086, 2426.922
686.568, 2404.080
687.050, 2401.024
687.532, 2401.714
688.015, 2387.395
688.497, 2357.672
688.979, 2334.823
689.461, 2340.306
689.943, 2346.774
690.425, 2322.199
690.907, 2280.516
691.390, 2254.888
691.872, 2253.488
692.354, 2260.917
692.836, 2261.468
693.318, 2256.854
693.800, 2261.643
694.282, 2282.200
694.764, 2292.070
695.246, 2279.533
695.729, 2259.426
696.211, 2244.534
696.693, 2234.063
697.175, 2223.789
697.657, 2213.436
698.139, 2202.600
698.621, 2191.185
699.103, 2179.145
699.585, 2164.401
700.068, 2148.455
700.550, 2137.796
701.032, 2137.521
701.514, 2143.337
701.996, 2148.328
702.478, 2152.337
702.960, 2151.229
703.442, 2143.717
703.924, 2132.431
704.407, 2114.559
704.889, 2100.423
705.371, 2112.083
705.853, 2117.480
706.335, 2116.953
706.817, 2092.753
707.299, 2099.121
707.781, 2093.239
708.263, 2086.855
708.746, 2097.525
709.228, 2076.768
709.710, 2087.168
710.192, 2085.131
710.674, 2088.786
711.156, 2080.115
711.638, 2075.251
712.120, 2082.717
712.603, 2083.356
713.085, 2073.266
713.567, 2077.284
714.049, 2056.095
714.531, 2057.025
715.013, 2067.498
715.495, 2058.028
715.977, 2062.270
716.459, 2061.290
716.942, 2045.863
717.424, 2046.104
717.906, 2050.058
718.388, 2059.792
718.870, 2068.411
719.352, 2068.504
719.834, 2064.540
720.317, 2066.492
720.799, 2076.004
721.281, 2083.449
721.763, 2078.542
722.245, 2064.784
722.727, 2055.478
723.209, 2051.048
723.691, 2045.245
724.173, 2035.224
724.656, 2026.521
725.138, 2026.602
725.620, 2034.619
726.102, 2033.516
726.584, 2012.245
727.066, 1997.945
727.548, 1996.335
728.030, 2001.701
728.513, 2015.939
728.995, 2033.230
729.477, 2038.223
729.959, 2019.797
730.441, 1999.234
730.923, 1998.700
731.405, 2010.276
731.887, 2021.651
732.369, 2029.925
732.852, 2023.824
733.334, 1994.466
733.816, 1958.871
734.298, 1956.762
734.780, 1999.323
735.262, 2022.364
735.744, 2017.291
736.226, 2006.308
736.708, 1993.708
737.191, 1983.641
737.673, 1983.645
738.155, 1995.890
738.637, 2004.363
739.119, 2000.014
739.601, 1996.522
740.083, 2006.192
740.565, 2020.207
741.047, 2025.346
741.530, 2018.711
742.012, 2005.311
742.494, 1983.918
742.976, 1962.794
743.458, 1963.985
743.940, 1984.678
744.422, 2001.180
744.904, 2008.147
745.386, 2004.531
745.869, 1985.943
746.351, 1956.465
746.833, 1946.125
747.315, 1969.606
747.797, 1985.803
748.279, 1984.788
748.761, 1981.714
749.244, 1984.134
749.726, 1990.795
750.208, 1998.503
750.690, 2007.534
751.172, 2014.584
751.654, 2019.761
752.136, 2020.939
752.618, 2010.397
753.100, 1994.200
753.583, 1990.323
754.065, 2005.964
754.547, 2026.065
755.029, 2029.605
755.511, 2019.905
755.993, 2017.448
756.475, 2023.182
756.957, 2026.530
757.440, 2023.421
757.922, 2016.525
758.404, 2007.497
758.886, 1995.489
759.368, 1994.554
759.850, 2019.103
760.332, 2036.086
760.814, 2039.520
761.296, 2034.612
761.779, 2021.102
762.261, 2002.375
762.743, 1989.438
763.225, 1987.956
763.707, 1990.287
764.189, 1993.194
764.671, 1995.802
765.153, 2000.313
765.635, 2003.987
766.118, 1993.671
766.600, 1961.076
767.082, 1925.364
767.564, 1923.768
768.046, 1952.756
768.528, 1962.680
769.010, 1948.166
769.492, 1933.645
769.974, 1929.346
770.457, 1932.458
770.939, 1940.720
771.421, 1957.685
771.903, 1960.143
772.385, 1925.249
772.867, 1905.282
773.349, 1926.512
773.831, 1957.158
774.313, 1968.552
774.796, 1960.220
775.278, 1948.675
775.760, 1945.110
776.242, 1934.335
776.724, 1889.480
777.206, 1839.430
777.688, 1831.295
778.170, 1862.671
778.653, 1897.156
779.135, 1914.486
779.617, 1916.956
780.099, 1902.995
780.581, 1875.031
781.063, 1859.370
781.545, 1859.687
782.027, 1854.079
782.510, 1828.751
782.992, 1797.942
783.474, 1785.639
783.956, 1795.145
784.438, 1805.932
784.920, 1816.137
785.402, 1830.133
785.884, 1855.768
786.367, 1880.525
786.849, 1892.391
787.331, 1891.671
787.813, 1887.451
788.295, 1879.498
788.777, 1872.500
789.259, 1867.377
789.741, 1865.670
790.223, 1872.732
790.706, 1885.440
791.188, 1892.381
791.670, 1887.065
792.152, 1876.542
792.634, 1870.922
793.116, 1868.290
793.598, 1858.076
794.080, 1840.068
794.562, 1834.737
795.045, 1853.583
795.527, 1878.359
796.009, 1880.233
796.491, 1856.819
796.973, 1849.531
797.455, 1870.840
797.937, 1883.308
798.419, 1869.961
798.901, 1850.781
799.384, 1843.957
799.866, 1847.403
800.348, 1848.528
800.830, 1840.499
801.312, 1836.990
801.794, 1843.197
802.276, 1854.113
802.758, 1870.928
803.240, 1888.122
803.723, 1893.914
804.205, 1882.993
804.687, 1867.643
805.169, 1854.399
805.651, 1845.995
806.133, 1851.763
806.615, 1867.177
807.097, 1872.163
807.580, 1860.238
808.062, 1846.797
808.544, 1848.710
809.026, 1863.621
809.508, 1881.909
809.990, 1905.907
810.472, 1914.190
810.954, 1897.389
811.437, 1876.229
811.919, 1864.925
812.401, 1863.110
812.883, 1869.727
813.365, 1896.153
813.847, 1911.376
814.329, 1907.621
814.811, 1901.555
815.294, 1899.136
815.776, 1899.699
816.258, 1901.886
816.740, 1905.489
817.222, 1910.694
817.704, 1920.685
818.186, 1929.123
818.668, 1931.436
819.150, 1929.352
819.633, 1923.229
820.115, 1914.944
820.597, 1911.533
821.079, 1919.503
821.561, 1930.447
822.043, 1927.963
822.525, 1917.774
823.007, 1924.512
823.489, 1949.233
823.972, 1961.288
824.454, 1942.819
824.936, 1911.673
825.418, 1898.162
825.900, 1903.265
826.382, 1913.786
826.864, 1934.428
827.346, 1945.034
827.828, 1929.771
828.311, 1914.122
828.793, 1930.450
829.275, 1977.072
829.757, 2005.652
830.239, 2007.648
830.721, 2004.589
831.203, 1996.352
831.685, 1986.297
832.167, 1974.659
832.650, 1963.312
833.132, 1954.343
833.614, 1946.983
834.096, 1949.386
834.578, 1975.700
835.060, 2004.332
835.542, 2016.038
836.024, 2016.175
836.507, 2014.439
836.989, 2014.201
837.471, 2017.987
837.953, 2030.642
838.435, 2044.632
838.917, 2045.802
839.399, 2036.958
839.881, 2027.609
840.364, 2019.489
840.846, 2011.956
841.328, 2003.602
841.810, 2000.615
842.292, 2021.565
842.774, 2070.704
843.256, 2072.543
843.738, 2059.328
844.221, 2078.524
844.703, 2089.853
845.185, 2093.737
845.667, 2067.879
846.149, 2080.426
846.631, 2077.582
847.113, 2074.108
847.595, 2092.061
848.077, 2070.528
848.560, 2088.142
849.042, 2090.129
849.524, 2099.267
850.006, 2089.721
850.488, 2103.466
850.970, 2115.870
851.452, 2113.913
851.934, 2110.894
852.416, 2121.341
852.899, 2134.286
853.381, 2129.615
853.863, 2106.208
854.345, 2084.555
854.827, 2078.515
855.309, 2079.584
855.791, 2078.972
856.273, 2077.918
856.755, 2077.610
857.238, 2079.083
857.720, 2087.405
858.202, 2105.724
858.684, 2125.098
859.166, 2131.261
859.648, 2125.949
860.130, 2119.856
860.612, 2113.020
861.094, 2109.236
861.577, 2109.947
862.059, 2112.975
862.541, 2116.609
863.023, 2120.481
863.505, 2122.443
863.987, 2122.625
864.469, 2120.076
864.951, 2111.369
865.434, 2105.284
865.916, 2106.011
866.398, 2112.932
866.880, 2127.115
867.362, 2152.651
867.844, 2167.268
868.326, 2162.478
868.808, 2156.274
869.291, 2148.107
869.773, 2145.441
870.255, 2158.063
870.737, 2183.024
871.219, 2206.835
871.701, 2229.176
872.183, 2242.262
872.665, 2234.838
873.148, 2223.080
873.630, 2217.415
874.112, 2220.052
874.594, 2235.094
875.076, 2262.831
875.558, 2290.796
876.040, 2309.104
876.522, 2322.177
877.004, 2333.751
877.487, 2345.159
877.969, 2360.091
878.451, 2378.643
878.933, 2398.383
879.415, 2418.289
879.897, 2434.941
880.379, 2438.258
880.861, 2432.280
881.343, 2441.561
881.826, 2466.646
882.308, 2488.049
882.790, 2497.871
883.272, 2504.725
883.754, 2508.842
884.236, 2522.464
884.718, 2526.150
885.200, 2537.627
885.682, 2547.214
886.165, 2555.010
886.647, 2555.654
887.129, 2565.407
887.611, 2559.709
888.093, 2558.511
888.575, 2565.088
889.057, 2561.934
889.539, 2535.181
890.021, 2517.828
890.504, 2525.894
890.986, 2538.991
891.468, 2539.698
891.950, 2530.546
892.432, 2524.447
892.914, 2525.642
893.396, 2525.093
893.878, 2520.797
894.361, 2514.349
894.843, 2504.099
895.325, 2493.592
895.807, 2486.250
896.289, 2486.312
896.771, 2484.579
897.253, 2481.143
897.735, 2470.911
898.218, 2469.455
898.700, 2464.483
899.182, 2459.365
899.664, 2459.145
900.146, 2453.165
900.628, 2451.766
901.110, 2444.455
901.592, 2432.773
902.075, 2419.763
902.557, 2409.753
903.039, 2402.225
903.521, 2396.323
904.003, 2391.332
904.485, 2383.480
904.967, 2368.809
905.449, 2353.707
905.931, 2352.772
906.414, 2361.866
906.896, 2360.048
907.378, 2347.048
907.860, 2344.997
908.342, 2363.724
908.824, 2384.000
909.306, 2381.791
909.788, 2360.994
910.270, 2342.295
910.753, 2325.033
911.235, 2319.462
911.717, 2329.389
912.199, 2341.209
912.681, 2346.626
913.163, 2348.330
913.645, 2352.023
914.127, 2358.301
914.610, 2361.891
915.092, 2359.676
915.574, 2362.876
916.056, 2379.305
916.538, 2395.530
917.020, 2399.333
917.502, 2392.975
917.984, 2387.240
918.466, 2382.005
918.949, 2377.614
919.431, 2374.751
919.913, 2376.009
920.395, 2399.300
920.877, 2417.239
921.359, 2430.120
921.841, 2422.786
922.323, 2441.555
922.805, 2449.862
923.288, 2457.745
923.770, 2480.186
924.252, 2475.793
924.734, 2498.005
925.216, 2509.596
925.698, 2526.047
926.180, 2531.977
926.662, 2541.154
927.145, 2551.952
927.627, 2568.400
928.109, 2566.923
928.591, 2566.401
929.073, 2592.778
929.555, 2638.706
930.037, 2674.938
930.519, 2689.316
931.002, 2701.626
931.484, 2725.224
931.966, 2753.252
932.448, 2780.652
932.930, 2806.823
933.412, 2830.236
933.894, 2851.660
934.376, 2875.842
934.859, 2906.994
935.341, 2937.959
935.823, 2958.646
936.305, 2975.230
936.787, 2995.949
937.269, 3022.256
937.751, 3058.315
938.233, 3104.360
938.715, 3149.355
939.198, 3181.925
939.680, 3210.508
940.162, 3252.094
940.644, 3302.280
941.126, 3346.229
941.608, 3383.217
942.090, 3417.596
942.572, 3451.419
943.054, 3497.936
943.537, 3582.103
944.019, 3688.555
944.501, 3753.323
944.983, 3782.791
945.465, 3835.054
945.947, 3920.282
946.429, 4017.467
946.911, 4115.958
947.393, 4209.612
947.876, 4285.419
948.358, 4344.534
948.840, 4400.573
949.322, 4452.269
949.804, 4520.880
950.286, 4613.485
950.768, 4713.090
951.250, 4807.767
951.732, 4897.191
952.215, 4982.214
952.697, 5063.874
953.179, 5130.750
953.661, 5179.075
954.143, 5229.085
954.625, 5289.564
955.107, 5347.953
955.589, 5390.166
956.072, 5420.486
956.554, 5462.536
957.036, 5526.240
957.518, 5568.452
958.000, 5578.157
958.482, 5587.829
958.964, 5612.682
959.446, 5640.946
959.929, 5657.798
960.411, 5663.979
960.893, 5672.639
961.375, 5690.181
961.857, 5696.531
962.339, 5688.119
962.821, 5670.841
963.303, 5643.174
963.786, 5611.498
964.268, 5586.607
964.750, 5569.696
965.232, 5543.479
965.714, 5488.373
966.196, 5453.749
966.678, 5459.729
967.160, 5451.954
967.642, 5488.449
968.125, 5514.199
968.607, 5529.780
969.089, 5504.736
969.571, 5532.154
970.053, 5538.545
970.535, 5544.075
971.017, 5578.873
971.499, 5559.739
971.981, 5591.201
972.464, 5622.944
972.946, 5663.408
973.428, 5710.419
973.910, 5756.765
974.392, 5783.639
974.874, 5832.692
975.356, 5935.554
975.838, 6050.072
976.320, 6141.713
976.803, 6215.344
977.285, 6290.226
977.767, 6365.477
978.249, 6454.442
978.731, 6558.341
979.213, 6679.604
979.695, 6830.004
980.177, 6990.042
980.659, 7136.085
981.142, 7274.679
981.624, 7432.069
982.106, 7617.021
982.588, 7811.757
983.070, 8022.130
983.552, 8229.649
984.034, 8422.799
984.516, 8610.723
984.999, 8792.845
985.481, 8978.505
985.963, 9198.554
986.445, 9485.324
986.927, 9750.375
987.409, 9949.473
987.891, 10132.980
988.373, 10319.600
988.856, 10515.630
989.338, 10746.570
989.820, 10997.900
990.302, 11194.800
990.784, 11292.710
991.266, 11375.290
991.748, 11498.440
992.230, 11595.730
992.713, 11608.600
993.195, 11573.910
993.677, 11552.160
994.159, 11542.910
994.641, 11487.920
995.123, 11357.700
995.605, 11193.970
996.087, 10988.850
996.569, 10784.920
997.052, 10544.290
997.534, 10361.710
998.016, 10174.756
998.498, 10011.821
998.980, 9843.105
999.462, 9668.832
999.944, 9472.447
1000.426, 9304.330
1000.908, 9112.758
1001.391, 8956.937
1001.873, 8812.350
1002.355, 8658.194
1002.837, 8494.172
1003.319, 8343.129
1003.801, 8213.726
1004.283, 8101.762
1004.765, 8007.213
1005.247, 7927.110
1005.730, 7831.186
1006.212, 7761.059
1006.694, 7701.603
1007.176, 7686.419
1007.658, 7660.494
1008.140, 7624.399
1008.622, 7547.675
1009.104, 7523.415
1009.587, 7482.901
1010.069, 7474.147
1010.551, 7511.961
1011.033, 7538.470
1011.515, 7554.283
1011.997, 7527.364
1012.479, 7555.625
1012.961, 7561.771
1013.443, 7578.867
1013.926, 7577.379
1014.408, 7605.451
1014.890, 7646.727
1015.372, 7674.412
1015.854, 7687.865
1016.336, 7720.633
1016.818, 7743.905
1017.300, 7819.801
1017.783, 7938.322
1018.265, 8046.341
1018.747, 8144.615
1019.229, 8203.955
1019.711, 8313.570
1020.193, 8407.679
1020.675, 8501.152
1021.157, 8647.932
1021.639, 8798.345
1022.122, 8930.032
1022.604, 9064.830
1023.086, 9214.200
1023.568, 9377.087
1024.050, 9560.466
1024.532, 9758.812
1025.014, 9929.672
1025.496, 10051.590
1025.979, 10161.000
1026.461, 10278.810
1026.943, 10372.770
1027.425, 10423.700
1027.907, 10439.490
1028.389, 10426.980
1028.871, 10388.700
1029.353, 10338.320
1029.835, 10301.150
1030.318, 10212.850
1030.800, 10045.620
1031.282, 9842.807
1031.764, 9613.192
1032.246, 9367.680
1032.728, 9110.570
1033.210, 8844.814
1033.692, 8596.612
1034.174, 8390.049
1034.657, 8160.833
1035.139, 7889.341
1035.621, 7611.791
1036.103, 7327.906
1036.585, 7058.016
1037.067, 6828.657
1037.549, 6635.250
1038.031, 6444.060
1038.514, 6256.852
1038.996, 6068.586
1039.478, 5859.128
1039.960, 5676.258
1040.442, 5549.023
1040.924, 5438.557
1041.406, 5304.990
1041.888, 5159.543
1042.370, 5047.365
1042.853, 4981.891
1043.335, 4910.529
1043.817, 4828.345
1044.299, 4750.115
1044.781, 4681.350
1045.263, 4615.262
1045.745, 4543.939
1046.227, 4472.704
1046.709, 4416.400
1047.192, 4378.011
1047.674, 4341.756
1048.156, 4311.519
1048.638, 4271.705
1049.120, 4214.102
1049.602, 4157.620
1050.084, 4115.012
1050.566, 4082.903
1051.049, 4055.883
1051.531, 4034.811
1052.013, 3999.868
1052.495, 3947.379
1052.977, 3899.585
1053.459, 3860.404
1053.941, 3825.282
1054.423, 3789.369
1054.906, 3763.582
1055.388, 3741.956
1055.870, 3731.361
1056.352, 3718.087
1056.834, 3702.282
1057.316, 3676.347
1057.798, 3663.492
1058.280, 3645.393
1058.762, 3627.083
1059.245, 3616.031
1059.727, 3591.568
1060.209, 3580.438
1060.691, 3563.009
1061.173, 3526.306
1061.655, 3494.028
1062.137, 3464.208
1062.619, 3451.804
1063.101, 3462.012
1063.584, 3468.716
1064.066, 3444.521
1064.548, 3405.561
1065.030, 3377.150
1065.512, 3361.147
1065.994, 3370.359
1066.476, 3397.496
1066.958, 3415.572
1067.441, 3416.150
1067.923, 3402.122
1068.405, 3372.734
1068.887, 3338.679
1069.369, 3310.440
1069.851, 3288.115
1070.333, 3268.272
1070.815, 3255.617
1071.297, 3266.305
1071.780, 3297.396
1072.262, 3321.809
1072.744, 3325.310
1073.226, 3322.398
1073.708, 3316.581
1074.190, 3317.882
1074.672, 3336.170
1075.154, 3367.491
1075.636, 3415.149
1076.119, 3469.715
1076.601, 3501.369
1077.083, 3496.009
1077.565, 3509.298
1078.047, 3585.462
1078.529, 3666.927
1079.011, 3721.102
1079.494, 3766.025
1079.976, 3814.041
1080.458, 3868.227
1080.940, 3934.428
1081.422, 4014.347
1081.904, 4083.298
1082.386, 4117.963
1082.868, 4165.784
1083.350, 4250.472
1083.833, 4338.258
1084.315, 4415.351
1084.797, 4480.295
1085.279, 4531.277
1085.761, 4568.271
1086.243, 4601.625
1086.725, 4628.535
1087.207, 4657.094
1087.689, 4689.412
1088.172, 4721.059
1088.654, 4753.475
1089.136, 4780.623
1089.618, 4797.196
1090.100, 4803.332
1090.582, 4797.834
1091.064, 4776.078
1091.546, 4759.867
1092.029, 4743.383
1092.511, 4758.649
1092.993, 4817.329
1093.475, 4896.950
1093.957, 4984.470
1094.439, 5072.487
1094.921, 5142.939
1095.403, 5199.106
1095.885, 5277.389
1096.368, 5377.168
1096.850, 5476.720
1097.332, 5573.487
1097.814, 5687.030
1098.296, 5828.033
1098.778, 5972.146
1099.260, 6089.727
1099.742, 6192.674
1100.224, 6311.733
1100.707, 6436.334
1101.189, 6539.796
1101.671, 6619.291
1102.153, 6663.821
1102.635, 6676.357
1103.117, 6688.901
1103.599, 6596.222
1104.081, 6533.538
1104.564, 6452.385
1105.046, 6353.631
1105.528, 6208.852
1106.010, 6104.468
1106.492, 5972.274
1106.974, 5830.936
1107.456, 5708.475
1107.938, 5527.637
1108.421, 5383.019
1108.903, 5192.922
1109.385, 5008.992
1109.867, 4822.527
1110.349, 4645.900
1110.831, 4486.698
1111.313, 4346.275
1111.795, 4229.019
1112.277, 4137.561
1112.760, 4040.018
1113.242, 3922.374
1113.724, 3810.049
1114.206, 3702.705
1114.688, 3608.325
1115.170, 3531.344
1115.652, 3468.341
1116.134, 3421.750
1116.616, 3387.216
1117.099, 3324.557
1117.581, 3211.774
1118.063, 3145.889
1118.545, 3144.964
1119.027, 3139.964
1119.509, 3109.487
1119.991, 3070.700
1120.473, 3034.997
1120.956, 3004.730
1121.438, 2985.127
1121.920, 2975.854
1122.402, 2978.122
1122.884, 2989.953
1123.366, 2976.338
1123.848, 2933.784
1124.330, 2901.053
1124.813, 2897.164
1125.295, 2899.800
1125.777, 2883.814
1126.259, 2859.588
1126.741, 2844.619
1127.223, 2836.385
1127.705, 2826.368
1128.187, 2819.015
1128.669, 2833.122
1129.151, 2868.632
1129.634, 2896.135
1130.116, 2896.622
1130.598, 2891.825
1131.080, 2893.680
1131.562, 2901.433
1132.044, 2907.365
1132.526, 2923.990
1133.008, 2946.163
1133.491, 3005.120
1133.973, 3055.097
1134.455, 3096.629
1134.937, 3104.479
1135.419, 3155.826
1135.901, 3193.768
1136.383, 3234.307
1136.865, 3304.893
1137.348, 3377.990
1137.830, 3447.817
1138.312, 3503.818
1138.794, 3548.285
1139.276, 3608.727
1139.758, 3691.953
1140.240, 3768.538
1140.722, 3834.898
1141.204, 3905.226
1141.687, 3985.518
1142.169, 4064.233
1142.651, 4133.646
1143.133, 4192.938
1143.615, 4236.198
1144.097, 4267.711
1144.579, 4329.877
1145.061, 4413.813
1145.543, 4454.347
1146.026, 4448.206
1146.508, 4442.477
1146.990, 4457.645
1147.472, 4487.923
1147.954, 4532.675
1148.436, 4581.614
1148.918, 4624.745
1149.400, 4661.110
1149.883, 4680.241
1150.365, 4695.540
1150.847, 4726.377
1151.329, 4779.517
1151.811, 4863.865
1152.293, 4987.857
1152.775, 5121.319
1153.257, 5259.117
1153.740, 5390.606
1154.222, 5505.122
1154.704, 5616.930
1155.186, 5737.118
1155.668, 5864.508
1156.150, 6007.297
1156.632, 6168.451
1157.114, 6262.519
1157.596, 6273.462
1158.078, 6252.850
1158.561, 6209.592
1159.043, 6117.007
1159.525, 5954.930
1160.007, 5768.483
1160.489, 5600.735
1160.971, 5432.748
1161.453, 5206.542
1161.935, 4928.721
1162.418, 4690.265
1162.900, 4489.935
1163.382, 4301.583
1163.864, 4120.833
1164.346, 3948.096
1164.828, 3782.301
1165.310, 3628.063
1165.792, 3487.844
1166.275, 3363.906
1166.757, 3264.505
1167.239, 3178.590
1167.721, 3092.008
1168.203, 3005.048
1168.685, 2914.984
1169.167, 2826.764
1169.649, 2763.597
1170.131, 2739.676
1170.614, 2714.873
1171.096, 2670.876
1171.578, 2625.404
1172.060, 2585.604
1172.542, 2547.655
1173.024, 2501.879
1173.506, 2459.335
1173.988, 2442.188
1174.470, 2448.774
1174.953, 2443.015
1175.435, 2419.202
1175.917, 2402.096
1176.399, 2397.123
1176.881, 2379.091
1177.363, 2336.206
1177.845, 2301.156
1178.327, 2300.676
1178.810, 2312.954
1179.292, 2296.327
1179.774, 2260.184
1180.256, 2242.781
1180.738, 2239.066
1181.220, 2231.557
1181.702, 2218.598
1182.184, 2179.704
1182.667, 2151.298
1183.149, 2153.916
1183.631, 2149.012
1184.113, 2136.987
1184.595, 2096.521
1185.077, 2092.781
1185.559, 2074.324
1186.041, 2055.261
1186.523, 2056.693
1187.005, 2020.361
1187.488, 2021.435
1187.970, 2007.599
1188.452, 1990.294
1188.934, 1970.613
1189.416, 1958.989
1189.898, 1965.318
1190.380, 1959.671
1190.862, 1924.030
1191.345, 1882.081
1191.827, 1855.095
1192.309, 1841.454
1192.791, 1839.237
1193.273, 1848.112
1193.755, 1850.744
1194.237, 1847.528
1194.719, 1812.360
1195.202, 1787.008
1195.684, 1796.902
1196.166, 1798.244
1196.648, 1791.496
1197.130, 1752.423
1197.612, 1755.089
1198.094, 1741.030
1198.576, 1726.282
1199.058, 1734.826
1199.541, 1715.958
1200.023, 1720.859
1200.505, 1717.572
1200.987, 1712.389
1201.469, 1707.840
1201.951, 1693.739
1202.433, 1656.831
1202.915, 1626.033
1203.397, 1606.156
1203.880, 1594.066
##END=



