##NAMES=Beryl
##RRUFFID=R050368
##IDEAL CHEMISTRY=Be_3_Al_2_Si_6_O_18_
##LOCALITY=Wah Wah Mountains, Utah, USA
##OWNER=RRUFF
##SOURCE=Eugene Schlepp
##DESCRIPTION=Red-violet hexagonal prism
##STATUS=The identification of this mineral has been confirmed by X-ray diffraction and chemical analysis
##URL=rruff.info/R050368
##MEASURED CHEMISTRY=(Be_0.99_Li_0.01_)_3_(Al_0.95_Fe^3+^_0.05_)_2_Si_6.00_O_18_Î‡K_0.02_Na_0.01_
93.48767, 321.6630
93.96979, 328.4362
94.45190, 336.2597
94.93402, 345.2225
95.41614, 349.1159
95.89825, 347.8410
96.38037, 343.5779
96.86249, 337.3914
97.34460, 332.8421
97.82672, 332.9116
98.30884, 331.4300
98.79095, 326.5870
99.27307, 319.1189
99.75519, 311.2052
100.2373, 305.0163
100.7194, 300.6216
101.2015, 296.7151
101.6837, 293.3408
102.1658, 290.1927
102.6479, 286.9780
103.1300, 283.6334
103.6121, 280.5041
104.0942, 278.1382
104.5764, 276.1030
105.0585, 273.7721
105.5406, 270.4271
106.0227, 266.5378
106.5048, 263.7410
106.9869, 262.9586
107.4691, 261.8055
107.9512, 259.0110
108.4333, 254.9400
108.9154, 250.5579
109.3975, 246.5100
109.8796, 242.7396
110.3617, 239.6049
110.8439, 237.1969
111.3260, 235.2895
111.8081, 234.0620
112.2902, 233.4058
112.7723, 232.8647
113.2544, 231.7552
113.7366, 229.3754
114.2187, 227.7682
114.7008, 227.5050
115.1829, 227.6497
115.6650, 227.2654
116.1471, 226.0075
116.6293, 224.3813
117.1114, 223.6390
117.5935, 224.2139
118.0756, 224.6991
118.5577, 224.6061
119.0398, 224.1640
119.5220, 223.9865
120.0041, 224.5310
120.4862, 225.3319
120.9683, 225.3077
121.4504, 223.9014
121.9325, 222.6066
122.4147, 223.0347
122.8968, 225.3757
123.3789, 227.1082
123.8610, 226.2503
124.3431, 224.3279
124.8252, 222.6493
125.3074, 221.5749
125.7895, 221.0087
126.2716, 220.7996
126.7537, 221.1130
127.2358, 221.5208
127.7179, 222.0212
128.2001, 222.4866
128.6822, 222.7416
129.1643, 222.6497
129.6464, 222.2417
130.1285, 221.9114
130.6106, 221.2156
131.0928, 221.0477
131.5749, 222.0199
132.0570, 223.7583
132.5391, 225.4239
133.0212, 226.2316
133.5033, 225.9924
133.9855, 226.2085
134.4676, 227.0803
134.9497, 228.1418
135.4318, 229.2033
135.9139, 230.2188
136.3960, 231.1619
136.8782, 231.9511
137.3603, 232.5255
137.8424, 233.3391
138.3245, 235.5767
138.8066, 237.6214
139.2887, 237.5442
139.7709, 234.8560
140.2530, 230.3011
140.7351, 224.2229
141.2172, 216.8283
141.6993, 209.3387
142.1814, 201.8524
142.6636, 194.6261
143.1457, 188.6122
143.6278, 184.4591
144.1099, 181.2706
144.5920, 178.2533
145.0741, 175.3929
145.5563, 172.5454
146.0384, 169.5438
146.5205, 166.3606
147.0026, 163.3124
147.4847, 160.3299
147.9668, 157.5853
148.4490, 155.2536
148.9311, 153.3629
149.4132, 151.6971
149.8953, 149.8640
150.3774, 147.4283
150.8595, 145.7711
151.3417, 145.3138
151.8238, 145.3380
152.3059, 145.3774
152.7880, 145.2393
153.2701, 144.9057
153.7522, 144.3303
154.2344, 143.3109
154.7165, 142.2476
155.1986, 141.0387
155.6807, 139.8207
156.1628, 138.7773
156.6449, 138.0125
157.1271, 137.4566
157.6092, 136.8326
158.0913, 136.0034
158.5734, 135.2655
159.0555, 134.4798
159.5376, 133.8150
160.0198, 133.7982
160.5019, 134.9224
160.9840, 136.8249
161.4661, 138.0732
161.9482, 138.3498
162.4303, 138.3505
162.9125, 138.5688
163.3946, 138.9892
163.8767, 139.2125
164.3588, 138.8289
164.8409, 138.1364
165.3230, 137.6696
165.8052, 137.7438
166.2873, 137.8719
166.7694, 137.1333
167.2515, 135.0605
167.7336, 133.7460
168.2157, 134.9416
168.6979, 137.2398
169.1800, 139.0477
169.6621, 139.6176
170.1442, 139.3189
170.6263, 139.2089
171.1084, 139.5319
171.5906, 139.6406
172.0727, 139.1366
172.5548, 138.3593
173.0369, 137.8103
173.5190, 137.8504
174.0011, 138.3790
174.4833, 138.5442
174.9654, 137.7632
175.4475, 137.1793
175.9296, 136.9637
176.4117, 137.1250
176.8938, 137.6915
177.3760, 138.7560
177.8581, 140.3470
178.3402, 141.2936
178.8223, 140.7506
179.3044, 140.4588
179.7865, 141.5116
180.2687, 143.4735
180.7508, 144.9084
181.2329, 144.4381
181.7150, 141.8071
182.1971, 140.5552
182.6792, 141.4620
183.1614, 142.8700
183.6435, 144.0817
184.1256, 144.9740
184.6077, 145.4710
185.0898, 145.5330
185.5719, 145.0807
186.0540, 144.0266
186.5362, 141.3791
187.0183, 138.6958
187.5004, 137.7184
187.9825, 138.7045
188.4646, 139.9244
188.9467, 139.5391
189.4289, 137.9706
189.9110, 136.9365
190.3931, 137.1806
190.8752, 138.0762
191.3573, 138.7574
191.8394, 139.2388
192.3216, 139.2735
192.8037, 138.3254
193.2858, 136.7803
193.7679, 135.5094
194.2500, 134.9268
194.7321, 134.9226
195.2143, 135.2197
195.6964, 136.1395
196.1785, 136.8350
196.6606, 136.8449
197.1427, 136.3278
197.6248, 135.6219
198.1070, 134.9060
198.5891, 134.1785
199.0712, 133.4315
199.5533, 132.7466
200.0354, 131.9337
200.5175, 130.6631
200.9997, 129.1944
201.4818, 128.0963
201.9639, 127.9043
202.4460, 128.6439
202.9281, 129.1988
203.4102, 129.6275
203.8924, 129.7905
204.3745, 129.5220
204.8566, 128.9236
205.3387, 128.2243
205.8208, 127.6005
206.3029, 127.0379
206.7851, 126.6835
207.2672, 126.8708
207.7493, 126.9353
208.2314, 126.3679
208.7135, 125.3686
209.1956, 124.6308
209.6778, 124.8482
210.1599, 126.2127
210.6420, 127.0233
211.1241, 127.2783
211.6062, 127.1099
212.0883, 126.3416
212.5705, 125.1120
213.0526, 123.9303
213.5347, 123.2543
214.0168, 123.1584
214.4989, 123.0684
214.9810, 122.5152
215.4632, 122.3174
215.9453, 123.4228
216.4274, 125.7409
216.9095, 127.8271
217.3916, 128.3551
217.8737, 127.2462
218.3559, 126.3775
218.8380, 125.2927
219.3201, 124.7654
219.8022, 126.0632
220.2843, 129.2755
220.7664, 131.9809
221.2486, 131.7246
221.7307, 129.1888
222.2128, 127.4021
222.6949, 127.0497
223.1770, 127.5048
223.6591, 128.1529
224.1413, 128.9849
224.6234, 129.9416
225.1055, 131.2604
225.5876, 132.6535
226.0697, 133.5223
226.5518, 133.3584
227.0340, 132.7625
227.5161, 132.6241
227.9982, 133.0343
228.4803, 133.5899
228.9624, 133.9730
229.4445, 134.3659
229.9267, 135.0454
230.4088, 136.1389
230.8909, 137.5464
231.3730, 139.1541
231.8551, 141.1300
232.3372, 142.8621
232.8194, 143.8015
233.3015, 144.4814
233.7836, 145.6396
234.2657, 147.7774
234.7478, 150.2518
235.2299, 151.5251
235.7121, 151.0495
236.1942, 150.4276
236.6763, 149.9270
237.1584, 149.6299
237.6405, 149.6703
238.1227, 150.1347
238.6048, 150.8630
239.0869, 151.4639
239.5690, 151.9591
240.0511, 152.2653
240.5332, 152.4525
241.0154, 152.4457
241.4975, 152.0484
241.9796, 151.1679
242.4617, 150.1176
242.9438, 149.6855
243.4259, 150.0623
243.9081, 150.8505
244.3902, 152.1701
244.8723, 153.7424
245.3544, 155.2638
245.8365, 156.6289
246.3186, 158.0093
246.8007, 159.8363
247.2829, 162.5183
247.7650, 165.0761
248.2471, 166.9680
248.7292, 168.9666
249.2113, 171.9027
249.6934, 176.0300
250.1756, 180.8153
250.6577, 185.2808
251.1398, 190.0813
251.6219, 193.3806
252.1040, 196.3198
252.5861, 197.2357
253.0683, 194.0824
253.5504, 186.4307
254.0325, 176.1459
254.5146, 166.1379
254.9967, 156.0247
255.4788, 147.2195
255.9610, 139.5758
256.4431, 133.3268
256.9252, 128.8985
257.4073, 126.3280
257.8894, 124.9137
258.3716, 123.7763
258.8537, 123.0679
259.3358, 122.2692
259.8179, 121.3408
260.3000, 120.3439
260.7821, 119.2019
261.2643, 117.9287
261.7464, 116.8718
262.2285, 116.4476
262.7106, 116.8234
263.1927, 117.1574
263.6748, 117.7008
264.1570, 118.0290
264.6391, 117.4962
265.1212, 116.1037
265.6033, 114.8849
266.0854, 114.8915
266.5675, 116.2129
267.0497, 117.3204
267.5318, 118.3818
268.0139, 119.0759
268.4960, 118.9041
268.9781, 117.8966
269.4602, 116.9216
269.9424, 116.5622
270.4245, 116.8491
270.9066, 117.4741
271.3887, 118.7546
271.8708, 120.1321
272.3529, 121.3080
272.8351, 122.2618
273.3172, 122.8131
273.7993, 122.7894
274.2814, 122.2482
274.7635, 121.5429
275.2456, 120.4256
275.7278, 119.4327
276.2099, 118.9629
276.6920, 118.9798
277.1741, 119.2325
277.6562, 119.8171
278.1383, 120.4149
278.6204, 120.3768
279.1025, 119.3762
279.5847, 118.4438
280.0668, 118.2055
280.5489, 118.6145
281.0310, 119.4494
281.5131, 120.8206
281.9952, 122.4124
282.4774, 123.8442
282.9595, 125.1563
283.4416, 126.0982
283.9237, 126.4771
284.4058, 126.3482
284.8879, 125.8615
285.3701, 124.7886
285.8522, 123.7357
286.3343, 123.3786
286.8164, 123.6812
287.2985, 124.0528
287.7806, 124.1424
288.2628, 124.0497
288.7449, 124.1332
289.2270, 124.5527
289.7091, 124.9503
290.1912, 124.9265
290.6733, 124.6060
291.1555, 124.4476
291.6376, 124.7715
292.1197, 125.3979
292.6018, 125.8201
293.0839, 125.8063
293.5660, 126.0999
294.0482, 127.5030
294.5303, 129.5159
295.0124, 131.2351
295.4945, 131.9341
295.9766, 132.3242
296.4587, 133.9297
296.9409, 137.2187
297.4230, 140.1167
297.9051, 141.0665
298.3872, 141.1638
298.8693, 141.5632
299.3514, 142.4514
299.8336, 144.0113
300.3157, 146.6868
300.7978, 150.6709
301.2799, 154.7115
301.7620, 158.5107
302.2441, 162.0637
302.7263, 165.3142
303.2084, 168.2250
303.6905, 171.0143
304.1726, 173.9111
304.6547, 176.9132
305.1368, 179.9534
305.6190, 183.2780
306.1011, 186.4192
306.5832, 188.9646
307.0653, 190.8998
307.5474, 192.6121
308.0295, 193.9673
308.5117, 195.0855
308.9938, 197.6002
309.4759, 202.5083
309.9580, 208.0061
310.4401, 212.7206
310.9222, 216.8610
311.4044, 221.3131
311.8865, 226.7208
312.3686, 232.8958
312.8507, 239.0026
313.3328, 244.5628
313.8149, 250.9302
314.2971, 258.7810
314.7792, 267.8718
315.2613, 277.8810
315.7434, 288.8494
316.2255, 300.5780
316.7076, 312.3032
317.1898, 323.4250
317.6719, 336.5977
318.1540, 355.0692
318.6361, 375.3830
319.1182, 394.1914
319.6003, 410.9075
320.0825, 424.9445
320.5646, 436.7631
321.0467, 447.2157
321.5288, 450.0178
322.0109, 441.6281
322.4930, 425.0146
322.9752, 400.4579
323.4573, 367.9326
323.9394, 332.5244
324.4215, 297.2957
324.9036, 262.5091
325.3857, 231.5764
325.8679, 205.1694
326.3500, 183.4417
326.8321, 166.6705
327.3142, 154.4306
327.7963, 144.6086
328.2784, 136.1299
328.7606, 128.9915
329.2427, 123.1557
329.7248, 118.8919
330.2069, 115.5760
330.6890, 113.0947
331.1711, 111.1624
331.6533, 109.1485
332.1354, 106.4878
332.6175, 103.7100
333.0996, 102.0733
333.5817, 101.9508
334.0638, 101.7391
334.5460, 100.4292
335.0281, 98.64964
335.5102, 96.99658
335.9923, 95.49490
336.4744, 94.43326
336.9565, 94.40576
337.4387, 95.49411
337.9208, 96.20045
338.4029, 95.61503
338.8850, 94.73269
339.3671, 94.63235
339.8492, 95.45271
340.3314, 96.24741
340.8135, 96.22290
341.2956, 95.50713
341.7777, 94.88921
342.2598, 94.49388
342.7419, 94.25758
343.2241, 94.15881
343.7062, 94.17072
344.1883, 94.16187
344.6704, 94.06694
345.1525, 93.90827
345.6346, 93.68419
346.1168, 93.32950
346.5989, 93.12008
347.0810, 93.48452
347.5631, 94.11785
348.0452, 94.48013
348.5273, 94.38959
349.0095, 94.01134
349.4916, 93.36989
349.9737, 92.45561
350.4558, 91.84824
350.9379, 91.98689
351.4200, 92.51260
351.9022, 92.77419
352.3843, 92.60095
352.8664, 92.56007
353.3485, 93.39746
353.8306, 94.77675
354.3127, 95.22118
354.7949, 93.95653
355.2770, 92.22919
355.7591, 91.58755
356.2412, 91.97781
356.7233, 92.70827
357.2054, 93.78972
357.6876, 94.97691
358.1697, 95.90401
358.6518, 96.52542
359.1339, 96.87059
359.6160, 96.78283
360.0981, 96.37902
360.5803, 96.29859
361.0624, 96.83886
361.5445, 97.56499
362.0266, 98.10763
362.5087, 98.49013
362.9908, 98.94411
363.4730, 99.60727
363.9551, 100.4304
364.4372, 101.2809
364.9193, 102.3367
365.4014, 103.1289
365.8835, 103.2008
366.3657, 102.8946
366.8478, 102.8785
367.3299, 103.3649
367.8120, 104.2460
368.2941, 105.4756
368.7762, 107.1925
369.2584, 108.6186
369.7405, 109.2644
370.2226, 109.7894
370.7047, 110.7920
371.1868, 112.3633
371.6689, 114.3149
372.1511, 116.5034
372.6332, 118.9508
373.1153, 121.6562
373.5974, 124.9284
374.0795, 128.1526
374.5616, 130.5918
375.0438, 132.7207
375.5259, 135.9037
376.0080, 140.9833
376.4901, 147.3532
376.9722, 152.8455
377.4543, 156.3888
377.9365, 160.4344
378.4186, 165.5154
378.9007, 171.0962
379.3828, 176.7904
379.8649, 182.4303
380.3470, 187.6273
380.8292, 191.8253
381.3113, 194.8471
381.7934, 197.2853
382.2755, 198.9112
382.7576, 200.2418
383.2397, 201.2957
383.7219, 202.2712
384.2040, 203.4818
384.6861, 205.0577
385.1682, 207.0747
385.6503, 210.7680
386.1324, 217.7077
386.6146, 224.6687
387.0967, 230.3533
387.5788, 235.9629
388.0609, 243.0534
388.5430, 252.2669
389.0251, 263.1523
389.5073, 274.9580
389.9894, 288.0391
390.4715, 301.4039
390.9536, 314.4335
391.4357, 328.0826
391.9178, 344.1003
392.4000, 361.9186
392.8821, 378.6758
393.3642, 392.0287
393.8463, 402.0064
394.3284, 407.9121
394.8105, 410.5818
395.2927, 407.5474
395.7748, 396.8243
396.2569, 380.3742
396.7390, 360.9743
397.2211, 339.6151
397.7032, 316.9316
398.1854, 294.1372
398.6675, 270.5284
399.1496, 248.7299
399.6317, 229.2989
400.1138, 211.9458
400.5959, 196.8331
401.0780, 183.9875
401.5602, 172.8439
402.0423, 163.0851
402.5244, 154.7090
403.0065, 147.5683
403.4886, 141.9522
403.9707, 137.2637
404.4529, 133.0317
404.9350, 129.2790
405.4171, 126.0777
405.8992, 123.5871
406.3813, 121.6214
406.8634, 119.8184
407.3456, 118.1401
407.8277, 116.9977
408.3098, 117.0255
408.7919, 117.5094
409.2740, 117.1811
409.7561, 115.6674
410.2383, 114.1375
410.7204, 113.4711
411.2025, 113.3547
411.6846, 112.7404
412.1667, 111.1904
412.6488, 109.5724
413.1310, 109.0260
413.6131, 109.4990
414.0952, 110.1249
414.5773, 111.0528
415.0594, 111.8719
415.5415, 112.1846
416.0237, 111.9928
416.5058, 111.5004
416.9879, 110.7588
417.4700, 109.8493
417.9521, 109.2174
418.4342, 108.8838
418.9164, 108.7447
419.3985, 108.9513
419.8806, 109.2821
420.3627, 109.5103
420.8448, 109.5586
421.3269, 109.2211
421.8091, 108.0836
422.2912, 105.5461
422.7733, 104.0042
423.2554, 104.0314
423.7375, 104.4687
424.2196, 104.8112
424.7018, 104.9704
425.1839, 104.9360
425.6660, 104.6695
426.1481, 104.2333
426.6302, 104.0457
427.1123, 104.0006
427.5945, 104.3908
428.0766, 105.6271
428.5587, 107.1155
429.0408, 108.3041
429.5229, 109.0160
430.0050, 109.4092
430.4872, 109.6056
430.9693, 109.4678
431.4514, 109.7045
431.9335, 110.5456
432.4156, 111.6045
432.8977, 112.7269
433.3799, 113.9485
433.8620, 115.3751
434.3441, 116.9905
434.8262, 118.9090
435.3083, 121.6895
435.7904, 125.8774
436.2726, 129.3809
436.7547, 130.5372
437.2368, 131.1691
437.7189, 132.9752
438.2010, 136.3256
438.6831, 140.0047
439.1653, 142.8870
439.6474, 145.1542
440.1295, 147.8705
440.6116, 151.3174
441.0937, 154.9944
441.5758, 158.6499
442.0580, 162.2097
442.5401, 165.3724
443.0222, 168.3727
443.5043, 170.7005
443.9864, 171.6089
444.4685, 171.2178
444.9507, 170.7094
445.4328, 170.8307
445.9149, 170.9543
446.3970, 169.5246
446.8791, 166.1066
447.3612, 162.7484
447.8434, 160.2971
448.3255, 158.0689
448.8076, 155.1818
449.2897, 151.4893
449.7718, 147.4998
450.2539, 143.7179
450.7361, 140.1551
451.2182, 136.1142
451.7003, 130.6639
452.1824, 125.8216
452.6645, 122.4862
453.1466, 120.1957
453.6288, 118.2075
454.1109, 116.1909
454.5930, 114.2529
455.0751, 112.5698
455.5572, 111.0464
456.0393, 110.0110
456.5215, 109.9292
457.0036, 109.8569
457.4857, 109.2086
457.9678, 108.0389
458.4499, 106.7197
458.9320, 105.4791
459.4142, 104.3496
459.8963, 103.5511
460.3784, 103.3645
460.8605, 103.0100
461.3426, 102.1106
461.8247, 101.0533
462.3069, 100.1899
462.7890, 99.60878
463.2711, 99.21631
463.7532, 98.98273
464.2353, 98.89200
464.7174, 98.74317
465.1996, 98.54720
465.6817, 98.23112
466.1638, 97.56140
466.6459, 96.72873
467.1280, 96.24196
467.6101, 96.44555
468.0923, 96.90858
468.5744, 97.23406
469.0565, 97.42246
469.5386, 97.44583
470.0207, 97.26433
470.5028, 96.94649
470.9850, 96.58772
471.4671, 96.16696
471.9492, 95.81150
472.4313, 95.37688
472.9134, 95.12400
473.3955, 95.52819
473.8777, 96.53843
474.3598, 97.40305
474.8419, 97.49763
475.3240, 96.92542
475.8061, 96.70504
476.2882, 96.98685
476.7704, 97.38248
477.2525, 97.97038
477.7346, 98.56404
478.2167, 98.92370
478.6988, 98.99580
479.1809, 98.93987
479.6631, 99.00116
480.1452, 99.28621
480.6273, 99.12886
481.1094, 97.53475
481.5915, 96.52325
482.0736, 97.15047
482.5558, 98.75266
483.0379, 100.1669
483.5200, 100.8393
484.0021, 101.0582
484.4842, 101.4268
484.9663, 102.0678
485.4485, 102.2804
485.9306, 101.3721
486.4127, 100.4690
486.8948, 100.2592
487.3769, 100.7309
487.8590, 101.5939
488.3412, 103.1702
488.8233, 104.8777
489.3054, 105.3935
489.7875, 104.5892
490.2696, 103.7458
490.7517, 103.3793
491.2339, 103.4762
491.7160, 103.9848
492.1981, 105.1200
492.6802, 106.0287
493.1623, 106.0036
493.6444, 105.6526
494.1266, 106.0167
494.6087, 107.2548
495.0908, 108.5331
495.5729, 109.1037
496.0550, 108.9703
496.5371, 108.9564
497.0193, 108.9817
497.5014, 109.1960
497.9835, 109.6962
498.4656, 110.3962
498.9477, 111.2305
499.4298, 112.1630
499.9120, 113.0860
500.3941, 113.8788
500.8762, 114.6333
501.3583, 114.9002
501.8404, 113.6615
502.3225, 112.9714
502.8047, 114.0007
503.2868, 116.0512
503.7689, 117.8410
504.2510, 118.7678
504.7331, 119.0751
505.2152, 119.0593
505.6974, 118.6091
506.1795, 118.5317
506.6616, 119.1804
507.1437, 120.0923
507.6258, 120.7826
508.1079, 121.3567
508.5901, 122.3892
509.0722, 124.7586
509.5543, 127.4505
510.0364, 128.8851
510.5185, 129.0680
511.0006, 128.9871
511.4828, 128.8677
511.9649, 128.9758
512.4470, 129.9240
512.9291, 131.8655
513.4112, 133.9252
513.8933, 136.0274
514.3754, 138.0414
514.8575, 139.5950
515.3397, 140.7906
515.8218, 142.3914
516.3039, 145.0524
516.7860, 148.5881
517.2681, 151.6127
517.7502, 153.2553
518.2324, 155.4707
518.7145, 158.9204
519.1966, 162.7508
519.6787, 166.0568
520.1608, 168.7573
520.6429, 171.5783
521.1251, 175.4437
521.6072, 180.3152
522.0893, 184.0286
522.5714, 185.9201
523.0535, 187.6911
523.5356, 189.9088
524.0178, 192.3496
524.4999, 195.0301
524.9820, 198.0557
525.4641, 200.2593
525.9462, 200.2701
526.4283, 198.4794
526.9105, 196.7899
527.3926, 195.7497
527.8747, 193.9595
528.3568, 189.8666
528.8389, 184.0643
529.3210, 178.5705
529.8032, 173.8964
530.2853, 169.2304
530.7674, 164.0219
531.2495, 158.5478
531.7316, 153.3004
532.2137, 148.3987
532.6959, 143.8800
533.1780, 139.8358
533.6601, 136.3254
534.1422, 132.9023
534.6243, 129.5205
535.1064, 126.2353
535.5886, 122.8942
536.0707, 119.7226
536.5528, 117.0657
537.0349, 115.0730
537.5170, 113.5667
537.9991, 112.4695
538.4813, 111.9874
538.9634, 110.8430
539.4455, 108.4087
539.9276, 105.9272
540.4097, 103.6107
540.8918, 101.7216
541.3740, 100.9387
541.8561, 102.0745
542.3382, 103.2517
542.8203, 101.7663
543.3024, 97.92272
543.7845, 94.60168
544.2667, 92.43683
544.7488, 91.14210
545.2309, 90.86219
545.7130, 91.44474
546.1951, 91.33288
546.6772, 89.52914
547.1594, 87.67574
547.6415, 86.97253
548.1236, 87.07344
548.6057, 87.00559
549.0878, 86.37377
549.5699, 85.54439
550.0521, 85.14285
550.5342, 85.38885
551.0163, 85.39880
551.4984, 85.04668
551.9805, 84.62730
552.4626, 84.05019
552.9448, 83.53850
553.4269, 83.50371
553.9090, 84.15980
554.3911, 85.17947
554.8732, 86.10249
555.3553, 86.98781
555.8375, 87.36521
556.3196, 86.88025
556.8017, 86.19148
557.2838, 85.54397
557.7659, 85.02970
558.2480, 84.92276
558.7302, 85.49091
559.2123, 86.30325
559.6944, 87.02682
560.1765, 87.64038
560.6586, 88.03758
561.1407, 88.18267
561.6229, 88.10519
562.1050, 87.76546
562.5871, 87.09418
563.0692, 86.71821
563.5513, 86.88928
564.0334, 87.11241
564.5156, 87.07433
564.9977, 86.92168
565.4798, 87.02660
565.9619, 87.52595
566.4440, 88.03414
566.9261, 87.75872
567.4083, 86.20786
567.8904, 85.87819
568.3725, 88.07384
568.8546, 90.18845
569.3367, 91.50460
569.8188, 92.10455
570.3010, 92.01070
570.7831, 91.08337
571.2652, 90.25230
571.7473, 90.95471
572.2294, 92.93646
572.7115, 93.99168
573.1937, 93.40290
573.6758, 92.75470
574.1579, 93.63096
574.6400, 95.59567
575.1221, 96.92751
575.6042, 96.71393
576.0864, 96.69062
576.5685, 97.93843
577.0506, 99.87111
577.5327, 101.5622
578.0148, 102.7723
578.4969, 103.7247
578.9791, 104.6818
579.4612, 105.6616
579.9433, 106.1947
580.4254, 105.7844
580.9075, 105.5033
581.3896, 105.4228
581.8718, 105.6349
582.3539, 106.3307
582.8360, 107.5086
583.3181, 108.7716
583.8002, 109.7585
584.2823, 110.4923
584.7645, 111.0780
585.2466, 111.4165
585.7287, 111.9023
586.2108, 112.8061
586.6929, 113.9452
587.1750, 115.1376
587.6572, 116.4772
588.1393, 117.3988
588.6214, 117.3986
589.1035, 116.9578
589.5856, 116.5937
590.0677, 116.3944
590.5499, 116.4738
591.0320, 116.9204
591.5141, 117.6779
591.9962, 118.5406
592.4783, 119.9653
592.9604, 120.8201
593.4426, 120.6496
593.9247, 120.2821
594.4068, 120.2780
594.8889, 120.6119
595.3710, 121.0027
595.8531, 121.3202
596.3353, 121.4740
596.8174, 121.1174
597.2995, 120.1027
597.7816, 119.4620
598.2637, 119.6575
598.7458, 120.0566
599.2280, 120.1656
599.7101, 120.0060
600.1922, 119.6953
600.6743, 119.1199
601.1564, 118.5374
601.6385, 118.2035
602.1207, 118.0407
602.6028, 117.7595
603.0849, 117.2473
603.5670, 116.8082
604.0491, 116.8965
604.5313, 117.6694
605.0134, 117.9773
605.4955, 117.6326
605.9776, 117.1065
606.4597, 116.1223
606.9418, 115.2252
607.4240, 115.3033
607.9061, 116.5299
608.3882, 117.9125
608.8703, 118.2553
609.3524, 117.6429
609.8345, 117.1331
610.3167, 116.5942
610.7988, 116.5239
611.2809, 117.6715
611.7630, 119.2126
612.2451, 119.9602
612.7272, 119.6563
613.2094, 119.3272
613.6915, 119.2269
614.1736, 119.4760
614.6557, 120.4441
615.1378, 122.0245
615.6199, 123.4358
616.1021, 124.1885
616.5842, 124.4815
617.0663, 124.8714
617.5484, 125.5136
618.0305, 125.9887
618.5126, 126.4044
618.9948, 126.5700
619.4769, 126.2779
619.9590, 125.6516
620.4411, 124.9432
620.9232, 124.2415
621.4053, 123.6481
621.8875, 123.5763
622.3696, 124.0054
622.8517, 123.4897
623.3338, 121.4420
623.8159, 119.0745
624.2980, 117.4631
624.7802, 116.3611
625.2623, 114.9492
625.7444, 112.8446
626.2265, 110.8002
626.7086, 108.8761
627.1907, 107.3347
627.6729, 106.7529
628.1550, 107.1332
628.6371, 107.6810
629.1192, 107.7026
629.6013, 107.2593
630.0834, 106.8408
630.5656, 106.3375
631.0477, 106.0494
631.5298, 106.3680
632.0119, 106.6215
632.4940, 106.0957
632.9761, 104.9385
633.4583, 104.0770
633.9404, 104.0554
634.4225, 104.6509
634.9046, 105.6724
635.3867, 107.0840
635.8688, 108.3782
636.3510, 109.4199
636.8331, 110.2335
637.3152, 110.8055
637.7973, 111.1092
638.2794, 111.4782
638.7615, 112.0687
639.2437, 112.5577
639.7258, 112.6547
640.2079, 112.6346
640.6900, 112.9168
641.1721, 113.5892
641.6542, 114.3845
642.1364, 115.0962
642.6185, 115.6986
643.1006, 115.7506
643.5827, 114.9298
644.0648, 114.2712
644.5469, 114.3281
645.0291, 114.5938
645.5112, 114.4896
645.9933, 113.9875
646.4754, 113.9148
646.9575, 115.1756
647.4396, 116.6667
647.9218, 117.0617
648.4039, 116.5680
648.8860, 116.2109
649.3681, 116.4067
649.8502, 116.8876
650.3323, 117.2573
650.8145, 117.4883
651.2966, 117.7337
651.7787, 117.5798
652.2608, 117.9125
652.7429, 119.4672
653.2250, 121.4491
653.7072, 122.7014
654.1893, 122.9805
654.6714, 123.3400
655.1535, 125.0780
655.6356, 127.6870
656.1177, 129.1405
656.5999, 129.1517
657.0820, 130.0424
657.5641, 133.1780
658.0462, 137.5307
658.5283, 141.1978
659.0104, 143.9503
659.4926, 147.2595
659.9747, 151.5033
660.4568, 156.1759
660.9389, 160.9940
661.4210, 165.9937
661.9031, 171.1110
662.3853, 176.3731
662.8674, 182.2439
663.3495, 189.6189
663.8316, 198.6260
664.3137, 207.2435
664.7958, 214.9184
665.2780, 223.1897
665.7601, 232.7931
666.2422, 243.3954
666.7243, 254.8178
667.2064, 267.1234
667.6885, 279.4691
668.1707, 291.7877
668.6528, 303.7282
669.1349, 314.4352
669.6170, 324.2750
670.0991, 334.8492
670.5812, 346.8669
671.0634, 359.7923
671.5455, 372.6512
672.0276, 384.8741
672.5097, 398.9295
672.9918, 414.4860
673.4739, 432.3158
673.9561, 452.7367
674.4382, 475.4238
674.9203, 499.8214
675.4024, 525.6929
675.8845, 554.4517
676.3666, 587.9910
676.8488, 624.8247
677.3309, 661.5741
677.8130, 698.0699
678.2951, 737.5218
678.7772, 782.4131
679.2593, 829.8851
679.7415, 875.8815
680.2236, 921.8691
680.7057, 960.8284
681.1878, 997.1129
681.6699, 1022.136
682.1520, 1033.570
682.6342, 1030.849
683.1163, 1012.550
683.5984, 978.4579
684.0805, 932.9276
684.5626, 877.6658
685.0447, 814.1891
685.5269, 749.0429
686.0090, 681.0883
686.4911, 617.0186
686.9732, 559.3199
687.4553, 507.8005
687.9374, 462.5204
688.4196, 423.4440
688.9017, 388.6075
689.3838, 358.0672
689.8659, 331.5221
690.3480, 309.7329
690.8301, 291.5657
691.3123, 275.2930
691.7944, 260.3151
692.2765, 246.6515
692.7586, 234.2842
693.2407, 223.1715
693.7228, 213.0419
694.2050, 203.7545
694.6871, 195.6448
695.1692, 189.4596
695.6513, 184.0302
696.1334, 177.8568
696.6155, 170.9289
697.0977, 164.8884
697.5798, 160.8862
698.0619, 157.2742
698.5440, 152.7118
699.0261, 147.6402
699.5082, 143.0069
699.9904, 139.0957
700.4725, 135.7206
700.9546, 132.7160
701.4367, 130.0735
701.9188, 127.6002
702.4009, 125.3828
702.8831, 123.1733
703.3652, 120.9197
703.8473, 118.6326
704.3294, 116.3002
704.8115, 113.9328
705.2936, 111.5771
705.7758, 108.8084
706.2579, 106.5058
706.7400, 105.9003
707.2221, 106.2153
707.7042, 105.5697
708.1863, 103.5685
708.6685, 101.3885
709.1505, 100.1212
709.6326, 99.62804
710.1147, 98.89977
710.5969, 97.91507
711.0790, 96.72934
711.5611, 94.97997
712.0432, 93.36162
712.5253, 92.45001
713.0074, 92.06594
713.4896, 91.60615
713.9717, 90.84741
714.4538, 89.92237
714.9359, 88.80708
715.4180, 87.63966
715.9001, 86.80825
716.3823, 86.35362
716.8644, 85.88959
717.3465, 85.11825
717.8286, 84.14452
718.3107, 83.33813
718.7928, 82.70650
719.2750, 82.24123
719.7571, 81.91174
720.2392, 81.76696
720.7213, 82.08994
721.2034, 82.55940
721.6855, 82.57158
722.1677, 81.89479
722.6498, 80.91971
723.1319, 79.72703
723.6140, 78.54253
724.0961, 77.89380
724.5782, 77.78987
725.0604, 77.81377
725.5425, 77.73347
726.0246, 77.67263
726.5067, 77.91383
726.9888, 78.64012
727.4709, 79.10975
727.9531, 79.46358
728.4352, 79.40633
728.9173, 78.45161
729.3994, 77.20930
729.8815, 76.38871
730.3636, 76.15154
730.8458, 76.37321
731.3279, 77.29951
731.8100, 78.46059
732.2921, 79.03313
732.7742, 79.08282
733.2563, 79.22266
733.7385, 79.72216
734.2206, 80.03669
734.7027, 79.35118
735.1848, 77.54733
735.6669, 76.53539
736.1490, 76.90949
736.6312, 77.34348
737.1133, 77.81777
737.5954, 78.12799
738.0775, 77.99562
738.5596, 77.49302
739.0417, 77.04153
739.5239, 76.71100
740.0060, 76.71245
740.4881, 77.45482
740.9702, 78.73004
741.4523, 79.98125
741.9344, 81.08797
742.4166, 81.87395
742.8987, 82.16750
743.3808, 82.03012
743.8629, 81.75040
744.3450, 81.14735
744.8271, 80.73427
745.3093, 80.58292
745.7914, 80.57265
746.2735, 80.50919
746.7556, 80.56419
747.2377, 81.15875
747.7198, 82.53737
748.2020, 83.98071
748.6841, 85.19395
749.1662, 86.00699
749.6483, 85.84662
750.1304, 84.85039
750.6125, 84.07672
751.0947, 84.05206
751.5768, 84.63397
752.0589, 85.66069
752.5410, 87.32982
753.0231, 88.51172
753.5052, 88.96382
753.9874, 89.23698
754.4695, 89.37608
754.9516, 89.50616
755.4337, 89.77744
755.9158, 90.20063
756.3979, 90.61565
756.8801, 90.90266
757.3622, 91.18764
757.8443, 91.48818
758.3264, 91.89572
758.8085, 92.69533
759.2906, 93.92975
759.7728, 95.24667
760.2549, 96.28852
760.7370, 97.10942
761.2191, 98.06328
761.7012, 99.34043
762.1833, 100.2389
762.6655, 100.4079
763.1476, 100.3932
763.6297, 100.3924
764.1118, 100.5078
764.5939, 101.0543
765.0760, 102.3438
765.5582, 103.5630
766.0403, 104.1724
766.5224, 104.6020
767.0045, 105.6047
767.4866, 106.9338
767.9688, 107.4503
768.4509, 106.5560
768.9330, 105.0894
769.4151, 104.5207
769.8972, 104.8934
770.3793, 104.9064
770.8615, 104.5735
771.3436, 103.7577
771.8257, 102.1277
772.3078, 100.1777
772.7899, 98.55290
773.2720, 97.24162
773.7542, 96.37521
774.2363, 96.53473
774.7184, 96.51923
775.2005, 95.57984
775.6826, 94.17715
776.1647, 92.93575
776.6469, 91.95984
777.1290, 90.95845
777.6111, 89.68002
778.0932, 88.27297
778.5753, 87.07063
779.0574, 86.06705
779.5396, 85.18526
780.0217, 84.42779
780.5038, 83.69678
780.9859, 82.85058
781.4680, 81.97745
781.9501, 81.47069
782.4323, 81.87093
782.9144, 81.73038
783.3965, 80.52751
783.8786, 79.22817
784.3607, 78.08800
784.8428, 77.32915
785.3250, 77.49007
785.8071, 78.74816
786.2892, 79.77000
786.7713, 79.14584
787.2534, 77.63818
787.7355, 76.54377
788.2177, 75.90065
788.6998, 75.62279
789.1819, 75.70259
789.6640, 75.93996
790.1461, 76.14302
790.6282, 76.31023
791.1104, 76.01263
791.5925, 74.68108
792.0746, 73.85441
792.5567, 74.18898
793.0388, 74.75732
793.5209, 75.00191
794.0031, 74.93357
794.4852, 74.68810
794.9673, 74.15368
795.4494, 73.75053
795.9315, 73.90640
796.4136, 74.24972
796.8958, 74.23369
797.3779, 73.90576
797.8600, 73.73576
798.3421, 73.97429
798.8242, 74.30764
799.3063, 74.13861
799.7885, 73.43845
800.2706, 73.10422
800.7527, 73.25038
801.2348, 73.43246
801.7169, 73.52498
802.1990, 73.52190
802.6812, 73.40607
803.1633, 73.18202
803.6454, 72.88127
804.1275, 72.44254
804.6096, 72.00839
805.0917, 71.46956
805.5739, 71.07442
806.0560, 71.20729
806.5381, 71.76443
807.0202, 72.23389
807.5023, 72.32155
807.9844, 72.17484
808.4666, 71.85810
808.9487, 71.47047
809.4308, 71.48075
809.9129, 71.94976
810.3950, 72.37189
810.8771, 72.45294
811.3593, 72.32394
811.8414, 72.25890
812.3235, 72.31327
812.8056, 72.21834
813.2877, 71.88548
813.7698, 71.50809
814.2520, 70.86835
814.7341, 70.38404
815.2162, 70.65530
815.6983, 71.62980
816.1804, 72.36358
816.6625, 72.42886
817.1447, 72.16689
817.6268, 71.43908
818.1089, 70.71960
818.5910, 70.93928
819.0731, 72.06462
819.5552, 73.21240
820.0374, 73.83742
820.5195, 73.99248
821.0016, 73.70531
821.4837, 72.96319
821.9658, 72.15166
822.4479, 71.12454
822.9301, 70.64559
823.4122, 71.41374
823.8943, 72.68633
824.3764, 73.08780
824.8585, 72.38007
825.3406, 72.06066
825.8228, 72.73850
826.3049, 73.13138
826.7870, 72.50597
827.2691, 71.57522
827.7512, 71.01683
828.2333, 70.92033
828.7155, 71.11948
829.1976, 71.61341
829.6797, 72.19862
830.1618, 72.68562
830.6439, 73.07851
831.1260, 73.41448
831.6082, 73.68391
832.0903, 73.72926
832.5724, 73.43481
833.0545, 73.01038
833.5366, 72.96624
834.0187, 73.46081
834.5009, 73.13480
834.9830, 71.40575
835.4651, 70.02794
835.9472, 69.68372
836.4293, 69.97161
836.9114, 70.61827
837.3936, 71.58487
837.8757, 72.16271
838.3578, 71.94766
838.8399, 71.69716
839.3220, 71.70805
839.8041, 71.80864
840.2863, 71.86671
840.7684, 71.84795
841.2505, 71.69920
841.7326, 71.37062
842.2147, 71.07626
842.6968, 71.05790
843.1790, 71.27813
843.6611, 71.76669
844.1432, 72.48019
844.6253, 72.86598
845.1074, 72.68239
845.5895, 72.09782
846.0717, 71.19725
846.5538, 69.97712
847.0359, 69.85307
847.5180, 71.60948
848.0001, 72.92624
848.4822, 73.24635
848.9644, 73.07549
849.4465, 72.52333
849.9286, 71.76891
850.4107, 71.31499
850.8928, 71.26412
851.3749, 71.46809
851.8571, 72.23147
852.3392, 72.91514
852.8213, 72.77839
853.3034, 72.20372
853.7855, 72.09896
854.2676, 72.71292
854.7498, 73.32603
855.2319, 73.01344
855.7140, 72.33697
856.1961, 72.86171
856.6782, 74.35493
857.1603, 75.11944
857.6425, 74.71212
858.1246, 73.84550
858.6067, 72.99480
859.0888, 72.29493
859.5709, 72.32851
860.0530, 73.52982
860.5352, 74.31211
861.0173, 74.38609
861.4994, 74.33955
861.9815, 74.29547
862.4636, 74.35595
862.9457, 74.75487
863.4279, 75.53886
863.9100, 76.05840
864.3921, 75.99417
864.8742, 75.80560
865.3563, 75.61752
865.8384, 75.51269
866.3206, 75.55470
866.8027, 75.76583
867.2848, 76.20877
867.7669, 76.97146
868.2490, 77.76595
868.7311, 78.22169
869.2133, 78.40484
869.6954, 78.34159
870.1775, 78.09566
870.6596, 78.36658
871.1417, 79.50989
871.6238, 80.98830
872.1060, 82.08492
872.5881, 82.79897
873.0702, 83.34206
873.5523, 83.64277
874.0344, 83.95001
874.5165, 84.26517
874.9987, 84.66521
875.4808, 85.34850
875.9629, 86.17011
876.4450, 86.65656
876.9271, 86.50874
877.4092, 86.61213
877.8914, 87.43621
878.3735, 88.25967
878.8556, 88.84279
879.3377, 89.04568
879.8198, 88.34933
880.3019, 86.82475
880.7841, 86.03503
881.2662, 87.60194
881.7483, 89.93262
882.2304, 91.00449
882.7125, 91.30247
883.1946, 92.11418
883.6768, 93.54404
884.1589, 94.60652
884.6410, 94.64165
885.1231, 94.08537
885.6052, 93.73537
886.0873, 93.59127
886.5695, 93.67792
887.0516, 94.07398
887.5337, 94.35189
888.0158, 94.25457
888.4979, 94.13258
888.9800, 94.53255
889.4622, 95.45103
889.9443, 95.66676
890.4264, 94.29598
890.9085, 93.50360
891.3906, 93.94814
891.8727, 94.57690
892.3549, 94.82305
892.8370, 94.75101
893.3191, 94.48055
893.8012, 93.98232
894.2833, 93.76466
894.7654, 94.16235
895.2476, 94.85931
895.7297, 95.72643
896.2118, 96.65015
896.6939, 97.46433
897.1760, 98.14568
897.6581, 98.75031
898.1403, 99.27383
898.6224, 99.88329
899.1045, 101.1696
899.5866, 102.8250
900.0687, 103.1668
900.5508, 102.0939
901.0330, 101.7431
901.5151, 103.1863
901.9972, 105.5002
902.4793, 107.3921
902.9614, 108.8618
903.4435, 109.9567
903.9257, 110.3805
904.4078, 111.2384
904.8899, 113.0110
905.3720, 114.9603
905.8541, 116.5984
906.3362, 117.9601
906.8184, 119.0614
907.3005, 119.5396
907.7826, 120.6446
908.2647, 123.0908
908.7468, 125.5679
909.2289, 127.5135
909.7111, 129.0839
910.1932, 130.3827
910.6753, 131.5110
911.1574, 132.9106
911.6395, 135.1205
912.1216, 137.1921
912.6038, 138.2125
913.0859, 138.7013
913.5680, 139.1904
914.0501, 139.8615
914.5322, 141.2207
915.0143, 143.4614
915.4965, 145.3838
915.9786, 145.5044
916.4607, 144.1400
916.9428, 142.2923
917.4249, 139.9839
917.9070, 137.5609
918.3892, 135.1150
918.8713, 132.4492
919.3534, 129.3581
919.8355, 126.0418
920.3176, 123.2098
920.7997, 121.0538
921.2819, 118.5562
921.7640, 115.4897
922.2461, 112.5012
922.7282, 109.8493
923.2103, 107.4063
923.6924, 104.9261
924.1746, 102.4302
924.6567, 100.5555
925.1388, 100.0640
925.6209, 99.15530
926.1030, 97.05861
926.5851, 94.87921
927.0673, 93.44880
927.5494, 92.46106
928.0315, 91.32726
928.5136, 89.92044
928.9957, 88.23082
929.4778, 85.63506
929.9600, 83.37869
930.4421, 82.70393
930.9242, 82.91280
931.4063, 83.04224
931.8884, 82.88708
932.3705, 82.50496
932.8527, 81.91536
933.3348, 81.19602
933.8169, 80.47423
934.2990, 79.69482
934.7811, 78.63889
935.2632, 77.35036
935.7454, 76.11481
936.2275, 75.02410
936.7096, 74.30954
937.1917, 74.25635
937.6738, 74.67612
938.1559, 74.95229
938.6381, 75.14874
939.1202, 74.48064
939.6023, 72.47477
940.0844, 70.96089
940.5665, 71.08775
941.0486, 71.93541
941.5308, 72.08689
942.0129, 71.49347
942.4950, 70.73021
942.9771, 69.52192
943.4592, 68.55587
943.9413, 67.67699
944.4235, 67.30083
944.9056, 68.19572
945.3877, 69.66702
945.8698, 70.10405
946.3519, 69.01613
946.8340, 68.22963
947.3162, 68.51956
947.7983, 68.86804
948.2804, 68.76984
948.7625, 68.42657
949.2446, 68.05055
949.7267, 67.68517
950.2089, 67.30283
950.6910, 66.83927
951.1731, 66.52953
951.6552, 66.57268
952.1373, 66.86131
952.6194, 67.66656
953.1016, 68.52851
953.5837, 68.06012
954.0658, 66.09315
954.5479, 64.45125
955.0300, 64.72965
955.5121, 66.01831
955.9943, 66.81116
956.4763, 67.15189
956.9584, 67.05408
957.4406, 66.57539
957.9227, 66.41686
958.4048, 66.92033
958.8869, 67.64120
959.3690, 67.97346
959.8511, 67.98146
960.3333, 68.23937
960.8154, 68.81369
961.2975, 69.08620
961.7796, 68.83001
962.2617, 68.66770
962.7438, 69.08374
963.2260, 69.75846
963.7081, 69.98439
964.1902, 69.64532
964.6723, 69.49426
965.1544, 69.80267
965.6365, 69.83929
966.1187, 68.98011
966.6008, 68.22935
967.0829, 68.57333
967.5650, 69.62999
968.0471, 70.18871
968.5292, 69.91270
969.0114, 69.85824
969.4935, 70.51356
969.9756, 71.01242
970.4577, 70.90797
970.9398, 70.49580
971.4219, 69.79594
971.9041, 69.05547
972.3862, 69.24202
972.8683, 71.20782
973.3504, 72.96514
973.8325, 73.33824
974.3146, 73.21012
974.7968, 73.13611
975.2789, 73.23653
975.7610, 73.74866
976.2431, 74.61468
976.7252, 75.19746
977.2073, 74.99033
977.6895, 74.48247
978.1716, 74.10434
978.6537, 73.84566
979.1358, 73.36795
979.6179, 72.96973
980.1000, 73.97596
980.5822, 76.77286
981.0643, 79.61391
981.5464, 80.67837
982.0285, 80.59494
982.5106, 80.56418
982.9927, 80.64864
983.4749, 81.18221
983.9570, 82.19839
984.4391, 83.55419
984.9212, 85.20197
985.4033, 86.83139
985.8854, 87.94752
986.3676, 88.62483
986.8497, 89.36595
987.3318, 90.12151
987.8139, 91.72237
988.2960, 94.59384
988.7781, 96.99449
989.2603, 97.56903
989.7424, 97.35625
990.2245, 98.63634
990.7066, 101.6987
991.1887, 103.8270
991.6708, 104.4770
992.1530, 105.5602
992.6351, 107.5689
993.1172, 110.0835
993.5993, 112.9610
994.0814, 116.0637
994.5635, 118.9444
995.0457, 121.5161
995.5278, 124.1029
996.0099, 126.6145
996.4920, 129.2761
996.9741, 132.2102
997.4562, 135.2615
997.9384, 138.4226
998.4205, 141.5994
998.9026, 144.4079
999.3847, 146.5371
999.8668, 148.9529
1000.349, 151.9977
1000.831, 155.1854
1001.313, 158.4770
1001.795, 161.6546
1002.277, 164.3134
1002.760, 166.6170
1003.242, 169.5136
1003.724, 173.7683
1004.206, 177.4025
1004.688, 178.7704
1005.170, 179.9189
1005.652, 183.1600
1006.134, 186.8727
1006.616, 188.1635
1007.099, 187.0316
1007.581, 186.2637
1008.063, 187.5041
1008.545, 188.8615
1009.027, 189.3705
1009.509, 188.7395
1009.991, 186.1164
1010.473, 182.2112
1010.956, 178.5070
1011.438, 175.3566
1011.920, 172.3573
1012.402, 169.3497
1012.884, 166.0418
1013.366, 161.7360
1013.848, 157.0285
1014.330, 153.0880
1014.812, 149.8056
1015.295, 146.5610
1015.777, 143.1350
1016.259, 139.6656
1016.741, 136.2362
1017.223, 132.9017
1017.705, 129.6041
1018.187, 126.4934
1018.669, 124.2592
1019.151, 122.8611
1019.634, 121.5747
1020.116, 120.1307
1020.598, 118.9605
1021.080, 118.7007
1021.562, 118.7307
1022.044, 116.7747
1022.526, 113.1524
1023.008, 111.5561
1023.491, 112.3491
1023.973, 112.9928
1024.455, 112.3960
1024.937, 111.5233
1025.419, 111.5287
1025.901, 112.1538
1026.383, 112.1289
1026.865, 111.3930
1027.348, 110.8968
1027.830, 110.7052
1028.312, 110.9946
1028.794, 111.9736
1029.276, 113.0354
1029.758, 113.3682
1030.240, 113.0955
1030.722, 113.1338
1031.204, 113.4462
1031.687, 114.3646
1032.169, 116.3079
1032.651, 117.6782
1033.133, 117.5046
1033.615, 116.7509
1034.097, 116.4965
1034.579, 116.7795
1035.061, 118.3173
1035.543, 121.6567
1036.026, 124.8527
1036.508, 127.9000
1036.990, 130.4868
1037.472, 132.2146
1037.954, 133.6465
1038.436, 135.4810
1038.918, 137.7074
1039.400, 140.1714
1039.883, 143.2759
1040.365, 145.8047
1040.847, 146.8282
1041.329, 148.4064
1041.811, 151.7055
1042.293, 155.9000
1042.775, 160.0390
1043.257, 164.1135
1043.740, 168.1006
1044.222, 171.1723
1044.704, 175.4382
1045.186, 181.7377
1045.668, 188.4253
1046.150, 195.0221
1046.632, 201.4751
1047.114, 207.4902
1047.596, 213.1437
1048.078, 219.4641
1048.561, 226.0689
1049.043, 234.0565
1049.525, 244.0168
1050.007, 254.8315
1050.489, 265.9181
1050.971, 277.6375
1051.453, 290.6481
1051.935, 304.8600
1052.418, 319.0686
1052.900, 332.7421
1053.382, 347.0517
1053.864, 362.0163
1054.346, 378.0834
1054.828, 395.8159
1055.310, 414.5974
1055.792, 433.3106
1056.275, 452.2011
1056.757, 472.6939
1057.239, 495.1340
1057.721, 519.1490
1058.203, 545.9337
1058.685, 572.7881
1059.167, 597.7169
1059.649, 622.1000
1060.131, 647.7420
1060.614, 674.5693
1061.096, 701.6195
1061.578, 728.1797
1062.060, 755.6871
1062.542, 786.1891
1063.024, 815.7919
1063.506, 844.3683
1063.988, 869.3654
1064.470, 887.1375
1064.953, 898.6240
1065.435, 908.6561
1065.917, 919.8260
1066.399, 925.2669
1066.881, 922.1744
1067.363, 912.7244
1067.845, 897.0749
1068.327, 876.5669
1068.810, 851.6412
1069.292, 823.2806
1069.774, 793.3547
1070.256, 762.3917
1070.738, 730.0549
1071.220, 694.7266
1071.702, 660.0585
1072.184, 627.8480
1072.667, 597.7914
1073.149, 570.8855
1073.631, 545.8654
1074.113, 519.4795
1074.595, 490.6182
1075.077, 464.4298
1075.559, 445.0615
1076.041, 427.0922
1076.523, 406.9850
1077.005, 387.2770
1077.488, 370.2478
1077.970, 355.6891
1078.452, 342.8586
1078.934, 331.5715
1079.416, 320.3240
1079.898, 307.6348
1080.380, 295.7654
1080.862, 286.1848
1081.344, 277.5863
1081.827, 269.0074
1082.309, 260.4453
1082.791, 252.2573
1083.273, 244.4729
1083.755, 236.9659
1084.237, 229.7708
1084.719, 222.6564
1085.201, 214.9472
1085.684, 207.8605
1086.166, 202.7215
1086.648, 198.7016
1087.130, 194.7813
1087.612, 190.6525
1088.094, 185.6576
1088.576, 178.7961
1089.058, 172.5950
1089.541, 168.3531
1090.023, 164.9064
1090.505, 161.6737
1090.987, 158.5790
1091.469, 155.6117
1091.951, 152.7493
1092.433, 149.9064
1092.915, 147.0432
1093.397, 144.2694
1093.880, 141.6569
1094.362, 139.1284
1094.844, 136.7799
1095.326, 134.4142
1095.808, 131.2825
1096.290, 127.9869
1096.772, 126.7044
1097.254, 128.6760
1097.736, 129.0297
1098.219, 124.7308
1098.701, 120.2359
1099.183, 117.1427
1099.665, 115.0967
1100.147, 114.3371
1100.629, 114.1353
1101.111, 112.9020
1101.593, 110.2663
1102.076, 108.0460
1102.558, 106.9817
1103.040, 106.0296
1103.522, 104.9599
1104.004, 103.7671
1104.486, 102.3872
1104.968, 100.9201
1105.450, 99.42000
1105.932, 97.91711
1106.415, 96.89069
1106.897, 97.17113
1107.379, 96.83402
1107.861, 94.75520
1108.343, 92.83803
1108.825, 92.27633
1109.307, 92.27080
1109.789, 91.93180
1110.271, 91.21832
1110.754, 90.22287
1111.236, 88.54494
1111.718, 87.40089
1112.200, 87.24107
1112.682, 87.18851
1113.164, 87.20535
1113.646, 86.97301
1114.128, 86.05617
1114.611, 84.66302
1115.093, 83.46681
1115.575, 82.39827
1116.057, 81.77586
1116.539, 82.03648
1117.021, 82.08763
1117.503, 81.85850
1117.985, 81.17350
1118.468, 79.39244
1118.950, 77.38618
1119.432, 76.98769
1119.914, 78.38930
1120.396, 79.06503
1120.878, 78.94487
1121.360, 78.18996
1121.842, 76.38387
1122.324, 74.72365
1122.807, 73.63643
1123.289, 73.22016
1123.771, 73.78874
1124.253, 75.16745
1124.735, 75.88811
1125.217, 75.86511
1125.699, 75.46196
1126.181, 74.58995
1126.663, 73.60307
1127.146, 72.46159
1127.628, 71.71333
1128.110, 71.99110
1128.592, 72.87913
1129.074, 73.14736
1129.556, 72.74172
1130.038, 72.25388
1130.520, 71.65952
1131.003, 71.18171
1131.485, 70.89381
1131.967, 70.54774
1132.449, 69.95808
1132.931, 69.33492
1133.413, 69.09605
1133.895, 69.12746
1134.377, 68.55779
1134.859, 67.40421
1135.342, 66.18248
1135.824, 64.97308
1136.306, 64.54485
1136.788, 65.25900
1137.270, 65.98476
1137.752, 65.43024
1138.234, 64.22831
1138.716, 64.02287
1139.198, 64.55132
1139.681, 64.68495
1140.163, 64.40722
1140.645, 64.18028
1141.127, 64.08769
1141.609, 63.54196
1142.091, 62.06239
1142.573, 60.48006
1143.055, 60.26526
1143.538, 60.61588
1144.020, 59.69382
1144.502, 58.02650
1144.984, 57.06335
1145.466, 56.89493
1145.948, 56.87465
1146.430, 56.71229
1146.912, 56.26342
1147.395, 55.13256
1147.877, 53.95850
1148.359, 53.41380
1148.841, 53.31394
1149.323, 53.60483
1149.805, 54.04512
1150.287, 54.25851
1150.769, 54.12643
1151.251, 53.53503
1151.734, 52.09488
1152.216, 51.02963
1152.698, 51.62836
1153.180, 52.44161
1153.662, 52.16222
1154.144, 51.43607
1154.626, 51.06930
1155.108, 51.13462
1155.590, 51.44367
1156.073, 51.94514
1156.555, 52.70167
1157.037, 54.47012
1157.519, 55.52045
1158.001, 54.77034
1158.483, 53.40739
1158.965, 51.96482
1159.447, 50.72708
1159.930, 50.04382
1160.412, 49.94336
1160.894, 50.29932
1161.376, 51.77727
1161.858, 52.63768
1162.340, 52.44273
1162.822, 51.96691
1163.304, 51.08598
1163.786, 50.45510
1164.269, 50.90947
1164.751, 52.05860
1165.233, 52.51586
1165.715, 52.03975
1166.197, 51.90868
1166.679, 52.06664
1167.161, 52.85485
1167.643, 54.78664
1168.125, 56.10564
1168.608, 55.59378
1169.090, 54.28164
1169.572, 53.62213
1170.054, 53.59934
1170.536, 54.31580
1171.018, 55.83926
1171.500, 56.51553
1171.982, 56.18566
1172.465, 55.58885
1172.947, 54.96024
1173.429, 54.56770
1173.911, 54.65112
1174.393, 55.03440
1174.875, 55.36811
1175.357, 55.72114
1175.839, 56.62371
1176.322, 57.80436
1176.804, 57.83137
1177.286, 56.73626
1177.768, 56.24277
1178.250, 57.11749
1178.732, 58.22976
1179.214, 58.57412
1179.696, 58.46909
1180.178, 58.08962
1180.661, 57.72015
1181.143, 57.95510
1181.625, 58.52401
1182.107, 58.69057
1182.589, 58.40019
1183.071, 58.30975
1183.553, 58.82737
1184.035, 59.19377
1184.517, 58.64288
1185.000, 58.10170
1185.482, 58.29541
1185.964, 58.78226
1186.446, 59.11868
1186.928, 59.32584
1187.410, 59.59832
1187.892, 59.97301
1188.374, 60.18598
1188.857, 59.76203
1189.339, 59.79184
1189.821, 61.23378
1190.303, 62.30544
1190.785, 61.61662
1191.267, 60.55128
1191.749, 60.74243
1192.231, 61.81889
1192.714, 62.31651
1193.196, 62.03667
1193.678, 61.97507
1194.160, 62.32232
1194.642, 62.34886
1195.124, 61.84109
1195.606, 61.16979
1196.088, 60.47629
1196.570, 59.91716
1197.052, 59.69246
1197.535, 59.80727
1198.017, 60.51242
1198.499, 61.77275
1198.981, 61.94390
1199.463, 60.97404
1199.945, 60.17047
1200.427, 59.91624
1200.909, 60.27104
1201.392, 61.36615
1201.874, 62.27259
1202.356, 61.28497
1202.838, 59.37236
1203.320, 58.55591
1203.802, 58.50373
1204.284, 58.32304
1204.766, 58.13995
1205.249, 59.11436
1205.731, 61.35649
1206.213, 62.56428
1206.695, 60.76452
1207.177, 58.82183
1207.659, 58.90248
1208.141, 59.82944
1208.623, 61.10387
1209.105, 62.21252
1209.588, 62.44213
1210.070, 62.02803
1210.552, 61.80856
1211.034, 61.96657
1211.516, 62.21703
1211.998, 62.64286
1212.480, 62.93561
1212.962, 63.08118
1213.444, 63.00587
1213.927, 62.36440
1214.409, 61.72432
1214.891, 61.61366
1215.373, 62.04205
1215.855, 63.18761
1216.337, 65.48946
1216.819, 66.43203
1217.301, 65.57955
1217.784, 65.07281
1218.266, 65.40789
1218.748, 65.78987
1219.230, 65.71544
1219.712, 65.89205
1220.194, 67.54223
1220.676, 69.72084
1221.158, 68.60764
1221.641, 65.15474
1222.123, 64.85944
1222.605, 67.35692
1223.087, 69.09859
1223.569, 69.23421
1224.051, 68.50650
1224.533, 67.28502
1225.015, 66.25426
1225.497, 66.14504
1225.979, 66.55597
1226.462, 67.55859
1226.944, 68.37783
1227.426, 67.47270
1227.908, 65.78487
1228.390, 65.58308
1228.872, 66.95399
1229.354, 67.69002
1229.836, 66.91714
1230.319, 65.80421
1230.801, 64.26276
1231.283, 63.09631
1231.765, 63.05228
1232.247, 63.11540
1232.729, 62.20046
1233.211, 60.99572
1233.693, 60.82870
1234.176, 61.65986
1234.658, 62.27798
1235.140, 62.46806
1235.622, 63.19777
1236.104, 64.79308
1236.586, 65.89262
1237.068, 66.06780
1237.550, 65.81484
1238.032, 65.48388
1238.515, 64.94020
1238.997, 63.79142
1239.479, 62.33724
1239.961, 61.92305
1240.443, 62.30574
1240.925, 62.40697
1241.407, 62.18072
1241.889, 61.98344
1242.371, 61.91375
1242.854, 61.85367
1243.336, 61.73787
1243.818, 61.56304
1244.300, 61.20705
1244.782, 60.91540
1245.264, 61.16393
1245.746, 61.42596
1246.228, 60.99768
1246.711, 60.10491
1247.193, 59.32460
1247.675, 58.72992
1248.157, 57.92214
1248.639, 56.48724
1249.121, 55.47550
1249.603, 55.20491
1250.085, 55.21040
1250.568, 55.65517
1251.050, 55.93962
1251.532, 55.63627
1252.014, 54.94106
1252.496, 54.06117
1252.978, 53.07566
1253.460, 52.95982
1253.942, 53.80382
1254.424, 54.60969
1254.906, 55.32795
1255.389, 55.45617
1255.871, 54.86763
1256.353, 54.37808
1256.835, 54.51839
1257.317, 54.89635
1257.799, 55.08436
1258.281, 55.09985
1258.763, 54.86713
1259.246, 54.54919
1259.728, 54.37810
1260.210, 54.39517
1260.692, 54.78106
1261.174, 55.41460
1261.656, 55.61528
1262.138, 55.01873
1262.620, 54.49293
1263.103, 54.34135
1263.585, 54.48173
1264.067, 55.43834
1264.549, 56.07428
1265.031, 55.12975
1265.513, 53.69333
1265.995, 53.40751
1266.477, 54.03388
1266.959, 54.23600
1267.442, 53.79132
1267.924, 53.95358
1268.406, 54.99547
1268.888, 55.28661
1269.370, 54.41888
1269.852, 53.59824
1270.334, 53.43135
1270.816, 53.53674
1271.298, 53.56569
1271.781, 53.43100
1272.263, 52.67535
1272.745, 51.74572
1273.227, 51.89011
1273.709, 52.73302
1274.191, 53.31141
1274.673, 53.53587
1275.155, 53.72681
1275.638, 53.99434
1276.120, 54.31492
1276.602, 55.00476
1277.084, 55.16420
1277.566, 53.57841
1278.048, 52.24595
1278.530, 52.83818
1279.012, 53.85426
1279.495, 53.69243
1279.977, 52.79256
1280.459, 52.32720
1280.941, 52.29797
1281.423, 52.48783
1281.905, 53.00935
1282.387, 53.36994
1282.869, 53.54620
1283.351, 53.51061
1283.833, 53.25228
1284.316, 52.72811
1284.798, 51.85094
1285.280, 51.16925
1285.762, 51.34332
1286.244, 52.40214
##END=



