##NAMES=Beryl
##RRUFFID=R060942
##IDEAL CHEMISTRY=Be_3_Al_2_Si_6_O_18_
##LOCALITY=Mingore mine, Swat Valley, Pakistan
##OWNER=RRUFF
##SOURCE=Lawrence W. Snee
##DESCRIPTION=Green hexagonal prisms, variety emerald
##STATUS=The identification of this mineral has been confirmed by X-ray diffraction and chemical analysis
##URL=rruff.info/R060942
##MEASURED CHEMISTRY=(Be_2.94_Li_0.06_)_Σ=3_(Al_1.55_Mg_0.37_Fe^3+^_0.06_Cr^3+^_0.02_)_Σ=2_Si_6.00_O_18_·Na_0.42_; Be and Li not measured but estimated by stoichiometry
83.91797, 2009.805
84.40009, 2004.244
84.88220, 2000.753
85.36432, 1998.507
85.84644, 1995.658
86.32855, 1989.041
86.81067, 1982.753
87.29279, 1980.314
87.77490, 1984.244
88.25701, 1989.527
88.73913, 1993.559
89.22124, 1996.185
89.70336, 1996.272
90.18548, 1990.523
90.66759, 1982.063
91.14971, 1976.067
91.63183, 1975.963
92.11395, 1978.629
92.59606, 1979.900
93.07818, 1979.767
93.56030, 1978.022
94.04241, 1974.040
94.52453, 1967.998
95.00665, 1961.054
95.48875, 1951.260
95.97087, 1940.101
96.45299, 1936.377
96.93510, 1942.648
97.41722, 1952.636
97.89934, 1952.184
98.38145, 1939.812
98.86357, 1928.668
99.34569, 1930.069
99.82780, 1945.713
100.3099, 1954.500
100.7920, 1951.814
101.2742, 1939.877
101.7563, 1932.346
102.2384, 1930.548
102.7205, 1930.869
103.2026, 1929.335
103.6847, 1923.779
104.1668, 1921.799
104.6490, 1926.920
105.1311, 1941.242
105.6132, 1947.550
106.0953, 1938.143
106.5774, 1924.330
107.0595, 1924.230
107.5417, 1954.945
108.0238, 1980.470
108.5059, 1988.107
108.9880, 1960.407
109.4701, 1944.202
109.9522, 1947.909
110.4344, 1964.276
110.9165, 1972.679
111.3986, 1961.841
111.8807, 1950.023
112.3628, 1945.900
112.8449, 1957.852
113.3271, 1969.926
113.8092, 1978.533
114.2913, 1984.330
114.7734, 1993.570
115.2555, 2008.106
115.7376, 2026.736
116.2198, 2048.286
116.7019, 2072.431
117.1840, 2099.349
117.6661, 2132.016
118.1482, 2171.241
118.6303, 2205.706
119.1124, 2225.800
119.5946, 2237.771
120.0767, 2250.874
120.5588, 2270.620
121.0409, 2292.102
121.5230, 2309.631
122.0051, 2319.270
122.4873, 2334.749
122.9694, 2372.654
123.4515, 2426.542
123.9336, 2477.246
124.4157, 2507.901
124.8979, 2529.647
125.3800, 2559.798
125.8621, 2607.298
126.3442, 2657.735
126.8263, 2693.965
127.3084, 2716.228
127.7905, 2730.310
128.2727, 2739.636
128.7548, 2744.176
129.2369, 2743.220
129.7190, 2733.558
130.2011, 2719.274
130.6832, 2710.957
131.1654, 2709.276
131.6475, 2708.313
132.1296, 2700.080
132.6117, 2685.192
133.0938, 2671.979
133.5759, 2663.912
134.0581, 2660.582
134.5402, 2658.398
135.0223, 2657.116
135.5044, 2657.288
135.9865, 2660.677
136.4686, 2667.764
136.9508, 2674.461
137.4329, 2677.497
137.9150, 2675.999
138.3971, 2679.366
138.8792, 2689.355
139.3613, 2703.926
139.8434, 2717.676
140.3256, 2731.524
140.8077, 2742.945
141.2898, 2750.088
141.7719, 2751.639
142.2540, 2752.915
142.7361, 2754.755
143.2183, 2756.990
143.7004, 2757.571
144.1825, 2756.047
144.6646, 2753.249
145.1467, 2749.102
145.6288, 2738.377
146.1110, 2734.769
146.5931, 2744.779
147.0752, 2771.797
147.5573, 2783.487
148.0394, 2769.566
148.5215, 2745.311
149.0037, 2728.241
149.4858, 2726.729
149.9679, 2723.935
150.4500, 2715.203
150.9321, 2697.103
151.4142, 2682.795
151.8964, 2673.944
152.3785, 2668.906
152.8606, 2664.934
153.3427, 2663.461
153.8248, 2662.021
154.3069, 2659.465
154.7890, 2653.118
155.2712, 2650.496
155.7533, 2657.168
156.2354, 2668.932
156.7175, 2674.649
157.1996, 2668.164
157.6817, 2657.686
158.1639, 2647.172
158.6460, 2630.291
159.1281, 2621.621
159.6102, 2628.719
160.0923, 2648.761
160.5744, 2668.120
161.0566, 2684.881
161.5387, 2697.437
162.0208, 2704.511
162.5029, 2699.203
162.9850, 2693.769
163.4671, 2694.548
163.9493, 2701.135
164.4314, 2706.062
164.9135, 2706.115
165.3956, 2702.528
165.8777, 2696.710
166.3598, 2682.356
166.8420, 2670.966
167.3241, 2674.338
167.8062, 2694.436
168.2883, 2709.088
168.7704, 2697.035
169.2525, 2671.160
169.7346, 2652.602
170.2168, 2656.572
170.6989, 2669.401
171.1810, 2680.759
171.6631, 2690.492
172.1452, 2695.239
172.6273, 2687.175
173.1095, 2671.438
173.5916, 2660.398
174.0737, 2665.178
174.5558, 2676.964
175.0379, 2684.146
175.5201, 2684.358
176.0022, 2681.897
176.4843, 2679.627
176.9664, 2677.998
177.4485, 2678.889
177.9306, 2685.508
178.4128, 2695.186
178.8949, 2702.612
179.3770, 2705.190
179.8591, 2707.681
180.3412, 2720.354
180.8233, 2741.799
181.3055, 2758.342
181.7876, 2754.615
182.2697, 2737.523
182.7518, 2726.679
183.2339, 2729.441
183.7160, 2738.856
184.1982, 2740.277
184.6803, 2733.667
185.1624, 2728.850
185.6445, 2741.214
186.1266, 2765.287
186.6087, 2775.509
187.0908, 2758.284
187.5730, 2724.040
188.0551, 2702.038
188.5372, 2692.998
189.0193, 2688.395
189.5014, 2679.009
189.9835, 2665.359
190.4657, 2653.559
190.9478, 2644.834
191.4299, 2639.469
191.9120, 2640.901
192.3941, 2650.600
192.8762, 2661.234
193.3584, 2663.433
193.8405, 2657.261
194.3226, 2649.058
194.8047, 2640.229
195.2868, 2631.026
195.7689, 2624.232
196.2511, 2619.931
196.7332, 2617.790
197.2153, 2618.351
197.6974, 2622.026
198.1795, 2624.339
198.6616, 2622.774
199.1438, 2617.224
199.6259, 2612.242
200.1080, 2607.741
200.5901, 2604.048
201.0722, 2600.500
201.5543, 2596.047
202.0364, 2596.959
202.5186, 2611.221
203.0007, 2641.626
203.4828, 2654.589
203.9649, 2643.387
204.4470, 2618.824
204.9291, 2607.031
205.4113, 2610.836
205.8934, 2616.799
206.3755, 2617.857
206.8576, 2613.411
207.3397, 2606.898
207.8218, 2597.659
208.3040, 2586.922
208.7861, 2578.609
209.2682, 2573.554
209.7503, 2569.252
210.2324, 2563.275
210.7145, 2554.072
211.1967, 2550.903
211.6788, 2557.214
212.1609, 2569.992
212.6430, 2575.817
213.1251, 2572.063
213.6072, 2566.659
214.0894, 2565.615
214.5715, 2571.602
215.0536, 2573.094
215.5357, 2566.877
216.0178, 2554.628
216.4999, 2546.666
216.9820, 2542.434
217.4642, 2543.258
217.9463, 2551.492
218.4284, 2570.832
218.9105, 2587.193
219.3926, 2599.086
219.8747, 2606.371
220.3569, 2608.162
220.8390, 2601.415
221.3211, 2593.244
221.8032, 2589.573
222.2853, 2592.708
222.7674, 2595.208
223.2496, 2595.783
223.7317, 2594.583
224.2138, 2594.115
224.6959, 2595.543
225.1780, 2596.480
225.6601, 2594.361
226.1423, 2586.963
226.6244, 2581.150
227.1065, 2577.292
227.5886, 2575.319
228.0707, 2580.107
228.5528, 2597.310
229.0350, 2615.492
229.5171, 2622.008
229.9992, 2607.510
230.4813, 2599.765
230.9634, 2606.033
231.4455, 2627.340
231.9276, 2644.450
232.4098, 2655.857
232.8919, 2664.544
233.3740, 2673.742
233.8561, 2686.005
234.3382, 2694.024
234.8203, 2694.971
235.3025, 2688.037
235.7846, 2683.947
236.2667, 2681.363
236.7488, 2682.826
237.2309, 2692.092
237.7130, 2714.103
238.1952, 2734.873
238.6773, 2750.731
239.1594, 2760.935
239.6415, 2773.543
240.1236, 2790.048
240.6057, 2807.957
241.0879, 2824.343
241.5700, 2837.691
242.0521, 2851.879
242.5342, 2867.463
243.0163, 2884.254
243.4984, 2904.036
243.9806, 2928.418
244.4627, 2954.366
244.9448, 2978.215
245.4269, 2999.221
245.9090, 3019.378
246.3911, 3041.146
246.8732, 3066.336
247.3554, 3079.043
247.8375, 3076.228
248.3196, 3063.202
248.8017, 3046.523
249.2838, 3027.147
249.7659, 3002.790
250.2481, 2973.666
250.7302, 2940.556
251.2123, 2896.552
251.6944, 2835.046
252.1765, 2768.689
252.6586, 2712.525
253.1408, 2669.789
253.6229, 2631.143
254.1050, 2593.754
254.5871, 2557.646
255.0692, 2525.700
255.5513, 2497.816
256.0334, 2474.237
256.5156, 2455.122
256.9977, 2441.370
257.4798, 2429.991
257.9619, 2419.847
258.4440, 2410.506
258.9261, 2405.750
259.4083, 2407.095
259.8904, 2411.210
260.3725, 2414.131
260.8546, 2415.927
261.3367, 2415.902
261.8188, 2411.614
262.3010, 2401.951
262.7831, 2404.179
263.2652, 2423.213
263.7473, 2448.151
264.2294, 2464.636
264.7115, 2467.282
265.1937, 2475.862
265.6758, 2497.312
266.1579, 2531.695
266.6400, 2565.365
267.1221, 2601.583
267.6042, 2631.973
268.0864, 2645.140
268.5685, 2638.132
269.0506, 2624.003
269.5327, 2604.962
270.0148, 2581.090
270.4969, 2555.686
270.9791, 2527.358
271.4612, 2500.238
271.9433, 2479.726
272.4254, 2466.843
272.9075, 2456.297
273.3896, 2446.978
273.8718, 2438.993
274.3539, 2432.428
274.8360, 2426.870
275.3181, 2423.499
275.8002, 2424.363
276.2823, 2430.150
276.7645, 2435.469
277.2466, 2439.474
277.7287, 2441.968
278.2108, 2440.242
278.6929, 2432.461
279.1750, 2426.100
279.6572, 2430.498
280.1393, 2446.557
280.6214, 2459.975
281.1035, 2466.596
281.5856, 2467.937
282.0677, 2471.705
282.5499, 2478.588
283.0320, 2484.669
283.5141, 2486.264
283.9962, 2483.396
284.4783, 2477.989
284.9604, 2467.949
285.4425, 2456.708
285.9247, 2458.429
286.4068, 2474.394
286.8889, 2491.646
287.3710, 2498.087
287.8531, 2494.814
288.3352, 2492.836
288.8174, 2494.966
289.2995, 2499.377
289.7816, 2503.382
290.2637, 2507.044
290.7458, 2505.439
291.2279, 2488.840
291.7101, 2461.465
292.1922, 2445.171
292.6743, 2447.618
293.1564, 2458.826
293.6385, 2460.054
294.1206, 2451.722
294.6028, 2442.051
295.0849, 2436.869
295.5670, 2434.963
296.0491, 2432.606
296.5312, 2429.093
297.0133, 2425.305
297.4955, 2423.974
297.9776, 2424.464
298.4597, 2422.082
298.9418, 2408.101
299.4239, 2389.831
299.9060, 2383.669
300.3882, 2395.253
300.8703, 2411.079
301.3524, 2413.475
301.8345, 2405.462
302.3166, 2398.774
302.7987, 2401.642
303.2809, 2409.320
303.7630, 2415.517
304.2451, 2419.450
304.7272, 2421.291
305.2093, 2417.186
305.6914, 2410.431
306.1736, 2409.871
306.6557, 2426.518
307.1378, 2448.375
307.6199, 2462.115
308.1020, 2465.673
308.5841, 2467.774
309.0663, 2474.203
309.5484, 2484.032
310.0305, 2495.258
310.5126, 2511.865
310.9947, 2526.498
311.4768, 2531.035
311.9590, 2524.191
312.4411, 2519.290
312.9232, 2521.067
313.4053, 2530.341
313.8874, 2548.002
314.3695, 2583.399
314.8517, 2620.230
315.3337, 2648.570
315.8159, 2668.063
316.2980, 2688.698
316.7801, 2711.236
317.2622, 2738.712
317.7443, 2774.401
318.2264, 2820.640
318.7086, 2873.564
319.1907, 2933.782
319.6728, 3000.794
320.1549, 3068.677
320.6370, 3125.227
321.1191, 3187.794
321.6013, 3269.404
322.0834, 3389.521
322.5655, 3509.688
323.0476, 3623.944
323.5297, 3732.334
324.0118, 3835.694
324.4940, 3958.220
324.9761, 4059.016
325.4582, 4116.378
325.9403, 4127.416
326.4224, 4095.605
326.9045, 4011.938
327.3867, 3883.850
327.8688, 3736.460
328.3509, 3540.016
328.8330, 3350.100
329.3151, 3186.053
329.7972, 3055.798
330.2794, 2936.844
330.7615, 2826.195
331.2436, 2726.557
331.7257, 2645.565
332.2078, 2589.743
332.6899, 2542.910
333.1721, 2499.724
333.6542, 2459.448
334.1363, 2427.098
334.6184, 2404.610
335.1005, 2388.322
335.5826, 2372.844
336.0648, 2358.072
336.5469, 2344.318
337.0290, 2331.716
337.5111, 2320.240
337.9932, 2308.875
338.4753, 2297.723
338.9575, 2286.401
339.4396, 2272.925
339.9217, 2255.641
340.4038, 2244.722
340.8859, 2244.292
341.3680, 2252.300
341.8502, 2257.390
342.3323, 2259.693
342.8144, 2258.306
343.2965, 2250.766
343.7786, 2237.176
344.2607, 2225.011
344.7429, 2214.181
345.2250, 2206.919
345.7071, 2212.929
346.1892, 2232.882
346.6713, 2248.376
347.1534, 2241.059
347.6355, 2217.029
348.1176, 2203.059
348.5998, 2204.602
349.0819, 2212.935
349.5640, 2215.084
350.0461, 2211.913
350.5282, 2208.933
351.0103, 2209.193
351.4925, 2211.696
351.9746, 2215.961
352.4567, 2222.739
352.9388, 2226.826
353.4209, 2219.433
353.9030, 2205.017
354.3852, 2194.226
354.8673, 2194.516
355.3494, 2199.577
355.8315, 2204.011
356.3136, 2207.661
356.7957, 2209.532
357.2779, 2207.588
357.7600, 2203.797
358.2421, 2200.858
358.7242, 2199.114
359.2063, 2199.036
359.6884, 2203.453
360.1706, 2211.410
360.6527, 2214.430
361.1348, 2200.411
361.6169, 2183.948
362.0990, 2177.525
362.5811, 2193.466
363.0633, 2208.004
363.5454, 2213.902
364.0275, 2212.548
364.5096, 2208.834
364.9917, 2200.095
365.4738, 2192.186
365.9560, 2188.191
366.4381, 2190.390
366.9202, 2193.110
367.4023, 2196.748
367.8844, 2200.485
368.3665, 2202.739
368.8487, 2202.562
369.3308, 2201.749
369.8129, 2199.529
370.2950, 2193.810
370.7771, 2195.581
371.2592, 2210.146
371.7414, 2228.730
372.2235, 2241.547
372.7056, 2246.281
373.1877, 2249.292
373.6698, 2251.517
374.1519, 2252.923
374.6341, 2253.305
375.1162, 2251.143
375.5983, 2250.441
376.0804, 2254.196
376.5625, 2262.313
377.0446, 2275.563
377.5267, 2295.430
378.0089, 2319.748
378.4910, 2340.934
378.9731, 2358.627
379.4552, 2375.266
379.9373, 2391.958
380.4194, 2408.882
380.9016, 2424.306
381.3837, 2436.290
381.8658, 2451.763
382.3479, 2487.298
382.8300, 2540.126
383.3121, 2587.517
383.7943, 2615.688
384.2764, 2630.118
384.7585, 2641.597
385.2406, 2649.677
385.7227, 2661.097
386.2048, 2685.658
386.6870, 2718.287
387.1691, 2747.719
387.6512, 2760.325
388.1333, 2774.244
388.6154, 2810.673
389.0975, 2867.905
389.5797, 2932.215
390.0618, 2992.481
390.5439, 3055.346
391.0260, 3127.005
391.5081, 3210.378
391.9902, 3300.319
392.4724, 3395.958
392.9545, 3496.708
393.4366, 3601.862
393.9187, 3698.601
394.4008, 3808.561
394.8829, 3949.310
395.3651, 4131.230
395.8472, 4315.656
396.3293, 4495.132
396.8114, 4670.914
397.2935, 4844.654
397.7756, 5047.688
398.2578, 5217.723
398.7399, 5342.473
399.2220, 5420.616
399.7041, 5456.170
400.1862, 5452.736
400.6683, 5404.227
401.1505, 5303.625
401.6326, 5125.342
402.1147, 4936.856
402.5968, 4740.282
403.0789, 4537.413
403.5610, 4333.158
404.0432, 4118.659
404.5253, 3919.796
405.0074, 3750.882
405.4895, 3613.973
405.9716, 3494.737
406.4537, 3393.874
406.9359, 3309.286
407.4180, 3239.077
407.9001, 3183.272
408.3822, 3139.949
408.8643, 3115.252
409.3464, 3103.754
409.8285, 3072.587
410.3106, 3019.740
410.7928, 2962.178
411.2749, 2920.378
411.7570, 2889.016
412.2391, 2846.127
412.7212, 2777.392
413.2033, 2702.213
413.6855, 2651.242
414.1676, 2622.364
414.6497, 2601.309
415.1318, 2580.688
415.6139, 2561.636
416.0960, 2546.275
416.5782, 2535.348
417.0603, 2526.343
417.5424, 2521.625
418.0245, 2517.291
418.5066, 2505.857
418.9887, 2473.292
419.4709, 2441.139
419.9530, 2423.952
420.4351, 2424.045
420.9172, 2421.436
421.3993, 2403.100
421.8814, 2381.802
422.3636, 2369.133
422.8457, 2379.332
423.3278, 2385.324
423.8099, 2378.585
424.2920, 2361.558
424.7741, 2351.017
425.2563, 2354.471
425.7384, 2358.670
426.2205, 2357.433
426.7026, 2346.514
427.1847, 2339.130
427.6668, 2335.503
428.1490, 2335.303
428.6311, 2338.775
429.1132, 2348.219
429.5953, 2355.330
430.0774, 2354.623
430.5595, 2346.723
431.0417, 2353.960
431.5238, 2380.567
432.0059, 2409.987
432.4880, 2424.340
432.9701, 2423.970
433.4522, 2426.933
433.9344, 2437.967
434.4165, 2453.087
434.8986, 2464.905
435.3807, 2473.486
435.8628, 2479.441
436.3449, 2480.279
436.8271, 2479.243
437.3092, 2485.589
437.7913, 2502.009
438.2734, 2515.087
438.7555, 2507.313
439.2376, 2486.931
439.7197, 2470.348
440.2018, 2468.363
440.6840, 2470.088
441.1661, 2444.651
441.6482, 2451.134
442.1303, 2445.562
442.6124, 2428.586
443.0945, 2366.042
443.5767, 2362.335
444.0588, 2335.050
444.5409, 2306.800
445.0230, 2311.377
445.5051, 2255.462
445.9872, 2259.519
446.4694, 2239.633
446.9515, 2230.706
447.4336, 2182.146
447.9157, 2178.682
448.3978, 2174.106
448.8799, 2169.044
449.3621, 2162.447
449.8442, 2152.646
450.3263, 2136.841
450.8084, 2124.677
451.2905, 2118.793
451.7726, 2117.711
452.2548, 2113.783
452.7369, 2105.684
453.2190, 2099.073
453.7011, 2100.112
454.1832, 2108.490
454.6653, 2106.534
455.1475, 2090.356
455.6296, 2071.617
456.1117, 2069.331
456.5938, 2080.915
457.0759, 2090.016
457.5580, 2090.114
458.0402, 2083.259
458.5223, 2068.979
459.0044, 2047.901
459.4865, 2032.553
459.9686, 2036.736
460.4507, 2050.785
460.9329, 2062.309
461.4150, 2068.736
461.8971, 2070.852
462.3792, 2067.703
462.8613, 2060.610
463.3434, 2052.435
463.8256, 2042.553
464.3077, 2033.435
464.7898, 2025.786
465.2719, 2019.485
465.7540, 2016.222
466.2361, 2017.761
466.7183, 2021.682
467.2004, 2025.894
467.6825, 2031.739
468.1646, 2036.040
468.6467, 2039.551
469.1288, 2041.456
469.6110, 2037.448
470.0930, 2022.513
470.5752, 2010.106
471.0573, 2007.064
471.5394, 2015.356
472.0215, 2022.171
472.5036, 2027.237
472.9857, 2031.262
473.4679, 2035.515
473.9500, 2039.989
474.4321, 2042.575
474.9142, 2041.296
475.3963, 2038.647
475.8784, 2043.663
476.3606, 2055.828
476.8427, 2063.732
477.3248, 2053.418
477.8069, 2034.388
478.2890, 2024.928
478.7711, 2029.510
479.2533, 2036.348
479.7354, 2031.589
480.2175, 2021.998
480.6996, 2020.045
481.1817, 2040.130
481.6638, 2061.844
482.1460, 2074.896
482.6281, 2078.890
483.1102, 2076.053
483.5923, 2056.910
484.0744, 2037.543
484.5565, 2028.973
485.0387, 2042.051
485.5208, 2052.292
486.0029, 2056.647
486.4850, 2057.052
486.9671, 2056.841
487.4492, 2056.185
487.9314, 2054.717
488.4135, 2052.317
488.8956, 2049.036
489.3777, 2044.898
489.8598, 2038.946
490.3419, 2034.349
490.8241, 2033.978
491.3062, 2038.061
491.7883, 2043.557
492.2704, 2050.393
492.7525, 2058.082
493.2346, 2067.507
493.7168, 2077.962
494.1989, 2084.561
494.6810, 2082.652
495.1631, 2075.776
495.6452, 2069.410
496.1273, 2063.682
496.6095, 2060.154
497.0916, 2061.213
497.5737, 2064.900
498.0558, 2068.661
498.5379, 2070.898
499.0201, 2074.512
499.5022, 2081.733
499.9843, 2091.601
500.4664, 2101.716
500.9485, 2110.179
501.4306, 2119.637
501.9127, 2132.187
502.3948, 2149.011
502.8770, 2162.145
503.3591, 2168.961
503.8412, 2173.050
504.3233, 2177.146
504.8054, 2182.632
505.2875, 2184.566
505.7697, 2178.663
506.2518, 2170.482
506.7339, 2176.781
507.2160, 2200.537
507.6981, 2227.501
508.1802, 2253.757
508.6624, 2278.732
509.1445, 2294.051
509.6266, 2298.475
510.1087, 2301.688
510.5908, 2312.227
511.0729, 2329.407
511.5551, 2351.539
512.0372, 2379.885
512.5193, 2410.246
513.0014, 2435.879
513.4835, 2458.971
513.9656, 2485.538
514.4478, 2521.028
514.9299, 2559.578
515.4120, 2596.934
515.8941, 2632.691
516.3762, 2668.812
516.8583, 2707.483
517.3405, 2745.659
517.8226, 2780.713
518.3047, 2814.269
518.7868, 2842.093
519.2689, 2864.691
519.7510, 2881.167
520.2332, 2888.745
520.7153, 2884.467
521.1974, 2875.654
521.6795, 2864.144
522.1616, 2849.931
522.6437, 2834.738
523.1259, 2820.524
523.6080, 2800.902
524.0901, 2767.698
524.5722, 2720.811
525.0543, 2678.076
525.5364, 2644.197
526.0186, 2609.302
526.5007, 2552.616
526.9828, 2478.990
527.4649, 2408.949
527.9470, 2352.924
528.4291, 2306.292
528.9113, 2260.501
529.3934, 2216.199
529.8755, 2179.277
530.3576, 2159.001
530.8397, 2145.118
531.3218, 2128.076
531.8040, 2105.623
532.2861, 2080.559
532.7682, 2049.173
533.2503, 2016.902
533.7324, 1993.508
534.2145, 1989.635
534.6967, 1984.596
535.1788, 1974.562
535.6609, 1959.714
536.1430, 1940.010
536.6251, 1910.678
537.1072, 1884.821
537.5894, 1872.641
538.0715, 1876.715
538.5536, 1875.921
539.0357, 1868.108
539.5178, 1858.096
539.9999, 1852.398
540.4821, 1850.816
540.9642, 1851.029
541.4463, 1854.226
541.9284, 1856.998
542.4105, 1851.252
542.8926, 1838.604
543.3748, 1828.142
543.8569, 1827.417
544.3390, 1831.014
544.8211, 1834.416
545.3032, 1837.526
545.7853, 1837.557
546.2675, 1830.759
546.7495, 1821.168
547.2316, 1813.068
547.7137, 1812.928
548.1959, 1808.170
548.6780, 1788.476
549.1601, 1761.282
549.6422, 1753.116
550.1243, 1779.470
550.6064, 1802.891
551.0886, 1808.649
551.5707, 1795.091
552.0528, 1786.960
552.5349, 1784.627
553.0170, 1786.916
553.4991, 1794.652
553.9813, 1807.399
554.4634, 1816.856
554.9455, 1820.417
555.4276, 1823.353
555.9097, 1835.835
556.3918, 1855.053
556.8740, 1871.313
557.3561, 1878.094
557.8382, 1880.903
558.3203, 1883.704
558.8024, 1886.890
559.2845, 1893.011
559.7667, 1906.552
560.2488, 1921.538
560.7309, 1934.461
561.2130, 1946.522
561.6951, 1952.203
562.1772, 1945.391
562.6594, 1933.534
563.1415, 1926.300
563.6236, 1927.805
564.1057, 1927.421
564.5878, 1921.888
565.0699, 1913.267
565.5521, 1910.331
566.0342, 1913.841
566.5163, 1920.389
566.9984, 1932.033
567.4805, 1947.297
567.9626, 1946.797
568.4448, 1928.395
568.9269, 1911.053
569.4090, 1918.262
569.8911, 1940.476
570.3732, 1955.656
570.8553, 1957.753
571.3375, 1952.781
571.8196, 1940.655
572.3017, 1925.648
572.7838, 1916.943
573.2659, 1927.114
573.7480, 1936.303
574.2302, 1931.849
574.7123, 1914.131
575.1944, 1904.394
575.6765, 1914.899
576.1586, 1927.313
576.6407, 1932.701
577.1229, 1929.205
577.6050, 1923.315
578.0871, 1913.440
578.5692, 1903.137
579.0513, 1897.680
579.5334, 1897.735
580.0156, 1897.231
580.4977, 1894.977
580.9798, 1891.242
581.4619, 1885.738
581.9440, 1878.796
582.4261, 1873.009
582.9083, 1868.763
583.3904, 1867.127
583.8725, 1872.168
584.3546, 1883.743
584.8367, 1891.163
585.3188, 1883.761
585.8010, 1871.048
586.2831, 1861.903
586.7652, 1859.438
587.2473, 1858.178
587.7294, 1857.627
588.2115, 1857.178
588.6937, 1853.802
589.1758, 1862.012
589.6579, 1866.376
590.1400, 1867.099
590.6221, 1853.279
591.1042, 1858.238
591.5864, 1855.672
592.0685, 1852.797
592.5506, 1860.399
593.0327, 1848.694
593.5148, 1856.131
593.9969, 1855.926
594.4791, 1859.219
594.9612, 1848.184
595.4433, 1854.293
595.9254, 1858.384
596.4075, 1858.814
596.8896, 1855.853
597.3718, 1846.109
597.8539, 1833.612
598.3360, 1825.658
598.8181, 1826.753
599.3002, 1831.174
599.7823, 1839.035
600.2645, 1849.589
600.7466, 1855.208
601.2287, 1847.817
601.7108, 1843.425
602.1929, 1850.846
602.6750, 1874.296
603.1572, 1886.023
603.6393, 1882.738
604.1214, 1874.716
604.6035, 1870.468
605.0856, 1870.103
605.5677, 1877.552
606.0499, 1895.648
606.5320, 1916.943
607.0141, 1928.986
607.4962, 1934.704
607.9783, 1943.271
608.4604, 1961.917
608.9425, 1982.832
609.4246, 1996.277
609.9067, 2004.629
610.3889, 2020.447
610.8710, 2058.620
611.3531, 2098.229
611.8352, 2127.516
612.3173, 2143.612
612.7994, 2157.348
613.2816, 2173.917
613.7637, 2184.788
614.2458, 2181.163
614.7279, 2157.106
615.2100, 2139.551
615.6921, 2134.529
616.1743, 2131.973
616.6564, 2111.583
617.1385, 2074.127
617.6206, 2036.639
618.1027, 2004.791
618.5848, 1976.660
619.0670, 1945.190
619.5491, 1912.269
620.0312, 1888.098
620.5133, 1885.516
620.9954, 1889.657
621.4775, 1887.941
621.9597, 1878.708
622.4418, 1868.886
622.9239, 1858.237
623.4060, 1849.505
623.8881, 1844.813
624.3702, 1848.314
624.8524, 1850.103
625.3345, 1851.448
625.8166, 1850.164
626.2987, 1840.797
626.7808, 1820.154
627.2629, 1806.803
627.7451, 1806.536
628.2272, 1815.255
628.7093, 1825.280
629.1914, 1836.059
629.6735, 1840.565
630.1556, 1828.755
630.6378, 1811.089
631.1199, 1801.638
631.6020, 1800.665
632.0841, 1803.696
632.5662, 1812.157
633.0483, 1820.953
633.5305, 1825.801
634.0126, 1824.665
634.4947, 1822.704
634.9768, 1821.372
635.4589, 1819.340
635.9410, 1814.876
636.4232, 1805.064
636.9053, 1798.502
637.3874, 1795.266
637.8695, 1796.486
638.3516, 1808.098
638.8337, 1831.211
639.3159, 1847.795
639.7980, 1849.093
640.2801, 1839.917
640.7622, 1829.285
641.2443, 1817.566
641.7264, 1808.477
642.2086, 1806.450
642.6907, 1807.114
643.1728, 1805.673
643.6549, 1801.301
644.1370, 1799.096
644.6191, 1803.412
645.1013, 1809.481
645.5834, 1813.415
646.0655, 1813.242
646.5476, 1812.986
647.0297, 1811.645
647.5118, 1810.854
647.9940, 1813.575
648.4761, 1820.834
648.9582, 1826.719
649.4403, 1829.330
649.9224, 1830.275
650.4045, 1833.656
650.8867, 1839.275
651.3688, 1845.359
651.8509, 1851.825
652.3330, 1857.764
652.8151, 1862.288
653.2972, 1865.268
653.7794, 1866.093
654.2615, 1860.895
654.7436, 1855.939
655.2257, 1855.120
655.7078, 1858.644
656.1899, 1867.513
656.6721, 1890.657
657.1542, 1913.132
657.6363, 1921.796
658.1184, 1910.169
658.6005, 1903.909
659.0826, 1905.231
659.5648, 1912.065
660.0469, 1921.070
660.5290, 1932.316
661.0111, 1948.105
661.4932, 1972.764
661.9753, 1997.603
662.4575, 2005.034
662.9396, 2000.366
663.4217, 2001.769
663.9038, 2024.441
664.3859, 2052.056
664.8680, 2073.378
665.3502, 2088.483
665.8323, 2105.006
666.3144, 2124.623
666.7965, 2146.292
667.2786, 2168.277
667.7607, 2188.188
668.2429, 2219.184
668.7250, 2265.509
669.2071, 2315.694
669.6892, 2357.170
670.1713, 2390.394
670.6534, 2430.076
671.1355, 2478.370
671.6176, 2532.252
672.0997, 2585.830
672.5818, 2641.309
673.0640, 2704.630
673.5461, 2778.541
674.0282, 2860.210
674.5103, 2949.745
674.9924, 3046.307
675.4745, 3148.201
675.9567, 3244.539
676.4388, 3356.333
676.9209, 3492.928
677.4030, 3651.267
677.8851, 3813.623
678.3672, 3968.665
678.8494, 4148.076
679.3315, 4370.055
679.8136, 4631.755
680.2957, 4912.395
680.7778, 5206.589
681.2599, 5526.547
681.7421, 5863.173
682.2242, 6234.067
682.7063, 6666.791
683.1884, 7171.683
683.6705, 7725.451
684.1526, 8335.195
684.6348, 8973.119
685.1169, 9617.157
685.5990, 10304.16
686.0811, 10931.97
686.5632, 11546.20
687.0453, 12074.61
687.5275, 12413.00
688.0096, 12564.55
688.4917, 12505.94
688.9738, 12209.90
689.4559, 11715.81
689.9380, 11102.17
690.4202, 10375.43
690.9023, 9625.192
691.3844, 8865.841
691.8665, 8135.300
692.3486, 7481.355
692.8307, 6896.292
693.3129, 6367.656
693.7950, 5886.638
694.2771, 5458.999
694.7592, 5097.481
695.2413, 4806.057
695.7234, 4534.952
696.2056, 4271.286
696.6877, 4033.142
697.1698, 3834.884
697.6519, 3685.564
698.1340, 3545.758
698.6161, 3415.510
699.0983, 3294.250
699.5804, 3180.678
700.0625, 3075.915
700.5446, 2980.557
701.0267, 2894.936
701.5089, 2818.413
701.9910, 2751.855
702.4731, 2693.632
702.9552, 2640.790
703.4373, 2596.616
703.9194, 2552.862
704.4016, 2504.023
704.8837, 2452.624
705.3658, 2406.262
705.8479, 2365.397
706.3300, 2329.240
706.8121, 2297.184
707.2943, 2269.303
707.7764, 2249.011
708.2585, 2237.667
708.7406, 2223.637
709.2227, 2197.677
709.7048, 2164.522
710.1870, 2138.335
710.6691, 2118.761
711.1512, 2099.496
711.6333, 2073.380
712.1154, 2046.499
712.5975, 2024.743
713.0797, 2009.032
713.5618, 1996.342
714.0439, 1986.928
714.5260, 1979.634
715.0081, 1973.579
715.4902, 1969.367
715.9724, 1966.006
716.4545, 1966.047
716.9366, 1962.816
717.4187, 1943.590
717.9008, 1909.672
718.3829, 1886.035
718.8651, 1878.847
719.3472, 1879.554
719.8293, 1881.148
720.3114, 1881.921
720.7935, 1878.268
721.2756, 1863.441
721.7578, 1849.343
722.2399, 1842.616
722.7220, 1841.026
723.2041, 1838.918
723.6862, 1834.449
724.1683, 1830.526
724.6505, 1826.996
725.1326, 1824.450
725.6147, 1828.407
726.0968, 1841.114
726.5789, 1847.045
727.0610, 1832.699
727.5432, 1806.864
728.0253, 1795.544
728.5074, 1797.666
728.9895, 1802.511
729.4716, 1805.897
729.9537, 1806.667
730.4359, 1801.838
730.9180, 1790.577
731.4001, 1783.796
731.8822, 1790.948
732.3643, 1798.461
732.8464, 1797.054
733.3285, 1782.261
733.8106, 1774.639
734.2927, 1777.150
734.7748, 1780.668
735.2570, 1772.793
735.7391, 1755.921
736.2212, 1749.785
736.7033, 1758.300
737.1854, 1771.454
737.6675, 1784.140
738.1497, 1792.858
738.6318, 1791.487
739.1139, 1770.501
739.5960, 1752.117
740.0781, 1743.031
740.5602, 1742.510
741.0424, 1750.314
741.5245, 1775.504
742.0066, 1792.997
742.4887, 1798.430
742.9708, 1794.784
743.4529, 1785.864
743.9351, 1771.372
744.4172, 1763.213
744.8993, 1767.291
745.3814, 1778.378
745.8635, 1791.509
746.3456, 1804.805
746.8278, 1811.818
747.3099, 1802.419
747.7920, 1791.759
748.2741, 1788.704
748.7562, 1792.708
749.2383, 1797.027
749.7205, 1806.321
750.2026, 1808.869
750.6847, 1797.750
751.1668, 1774.026
751.6489, 1761.299
752.1310, 1760.625
752.6132, 1763.935
753.0953, 1767.483
753.5774, 1770.664
754.0595, 1771.411
754.5416, 1769.711
755.0237, 1767.436
755.5059, 1762.313
755.9880, 1759.401
756.4701, 1764.772
756.9522, 1782.157
757.4343, 1793.486
757.9164, 1791.577
758.3986, 1786.004
758.8807, 1782.057
759.3628, 1779.505
759.8449, 1780.382
760.3270, 1785.677
760.8091, 1791.707
761.2913, 1796.342
761.7734, 1798.605
762.2555, 1793.836
762.7376, 1779.529
763.2197, 1765.927
763.7018, 1760.834
764.1840, 1761.802
764.6661, 1766.034
765.1482, 1776.187
765.6303, 1784.419
766.1124, 1785.633
766.5945, 1786.088
767.0767, 1795.038
767.5588, 1816.292
768.0409, 1832.182
768.5230, 1839.627
769.0051, 1840.829
769.4872, 1838.296
769.9694, 1832.630
770.4515, 1826.557
770.9336, 1820.097
771.4157, 1814.920
771.8978, 1813.146
772.3799, 1813.761
772.8621, 1814.591
773.3442, 1815.258
773.8263, 1815.827
774.3084, 1817.819
774.7905, 1819.708
775.2726, 1815.577
775.7548, 1802.418
776.2369, 1794.276
776.7190, 1798.485
777.2011, 1808.913
777.6832, 1807.811
778.1653, 1796.925
778.6475, 1786.285
779.1296, 1780.749
779.6117, 1778.317
780.0938, 1779.751
780.5759, 1783.587
781.0580, 1782.732
781.5402, 1768.667
782.0223, 1755.932
782.5044, 1749.766
782.9865, 1749.796
783.4686, 1751.101
783.9507, 1754.241
784.4329, 1756.663
784.9150, 1757.230
785.3971, 1756.051
785.8792, 1752.999
786.3613, 1748.248
786.8434, 1743.537
787.3256, 1739.629
787.8077, 1736.706
788.2898, 1734.335
788.7719, 1732.499
789.2540, 1733.759
789.7361, 1745.101
790.2183, 1753.677
790.7004, 1752.564
791.1825, 1740.527
791.6646, 1731.696
792.1467, 1726.576
792.6288, 1722.330
793.1110, 1715.439
793.5930, 1707.774
794.0751, 1705.216
794.5573, 1708.155
795.0394, 1711.753
795.5215, 1709.487
796.0036, 1708.280
796.4857, 1716.660
796.9678, 1741.321
797.4500, 1752.629
797.9321, 1740.932
798.4142, 1722.100
798.8963, 1704.281
799.3784, 1685.797
799.8605, 1681.216
800.3427, 1692.831
800.8248, 1707.395
801.3069, 1712.361
801.7890, 1710.602
802.2711, 1707.783
802.7532, 1704.558
803.2354, 1701.264
803.7175, 1696.915
804.1996, 1693.190
804.6817, 1691.600
805.1638, 1692.998
805.6459, 1695.564
806.1281, 1700.185
806.6102, 1704.849
807.0923, 1708.149
807.5744, 1710.105
808.0565, 1707.832
808.5386, 1700.378
809.0208, 1692.708
809.5029, 1691.510
809.9850, 1693.464
810.4671, 1693.074
810.9492, 1688.596
811.4313, 1683.380
811.9135, 1675.744
812.3956, 1669.720
812.8777, 1670.190
813.3598, 1683.753
813.8419, 1688.243
814.3240, 1679.491
814.8062, 1667.749
815.2883, 1667.377
815.7704, 1676.151
816.2525, 1680.177
816.7346, 1676.554
817.2167, 1670.180
817.6989, 1663.455
818.1810, 1657.764
818.6631, 1655.131
819.1452, 1658.124
819.6273, 1660.482
820.1094, 1661.271
820.5916, 1660.607
821.0737, 1657.381
821.5558, 1649.592
822.0379, 1648.957
822.5200, 1658.108
823.0021, 1670.632
823.4843, 1680.376
823.9664, 1686.595
824.4485, 1686.275
824.9306, 1675.831
825.4127, 1666.905
825.8948, 1670.015
826.3770, 1677.987
826.8591, 1682.401
827.3412, 1677.824
827.8233, 1674.950
828.3054, 1675.320
828.7875, 1676.003
829.2697, 1671.834
829.7518, 1662.717
830.2339, 1658.895
830.7160, 1662.474
831.1981, 1669.310
831.6802, 1677.825
832.1624, 1685.413
832.6445, 1686.584
833.1266, 1674.211
833.6087, 1667.141
834.0908, 1680.316
834.5729, 1698.106
835.0551, 1701.471
835.5372, 1682.338
836.0193, 1670.197
836.5014, 1667.175
836.9835, 1671.160
837.4656, 1684.604
837.9478, 1703.391
838.4299, 1710.928
838.9120, 1701.740
839.3941, 1689.519
839.8762, 1685.659
840.3583, 1685.073
840.8405, 1681.528
841.3226, 1668.925
841.8047, 1661.830
842.2868, 1664.802
842.7689, 1669.742
843.2510, 1665.747
843.7332, 1651.668
844.2153, 1648.733
844.6974, 1660.923
845.1795, 1676.648
845.6616, 1684.144
846.1437, 1685.476
846.6259, 1683.368
847.1080, 1677.392
847.5901, 1671.301
848.0722, 1666.034
848.5543, 1661.798
849.0364, 1658.694
849.5186, 1656.624
850.0007, 1655.841
850.4828, 1656.331
850.9649, 1658.231
851.4470, 1662.601
851.9291, 1668.638
852.4113, 1673.547
852.8934, 1677.104
853.3755, 1678.908
853.8576, 1676.928
854.3397, 1674.078
854.8218, 1673.338
855.3040, 1676.364
855.7860, 1678.170
856.2681, 1678.340
856.7502, 1677.318
857.2324, 1675.511
857.7145, 1672.931
858.1966, 1667.988
858.6787, 1660.263
859.1608, 1653.226
859.6429, 1647.903
860.1251, 1646.117
860.6072, 1652.431
861.0893, 1668.494
861.5714, 1680.010
862.0535, 1681.412
862.5356, 1676.569
863.0178, 1666.022
863.4999, 1647.620
863.9820, 1642.461
864.4641, 1653.938
864.9462, 1664.898
865.4283, 1656.943
865.9105, 1639.901
866.3926, 1642.610
866.8747, 1664.614
867.3568, 1678.732
867.8389, 1656.940
868.3210, 1630.506
868.8032, 1620.694
869.2853, 1630.919
869.7674, 1635.228
870.2495, 1628.893
870.7316, 1625.950
871.2137, 1636.447
871.6959, 1656.420
872.1780, 1663.856
872.6601, 1659.489
873.1422, 1652.035
873.6243, 1641.339
874.1064, 1634.242
874.5886, 1640.637
875.0707, 1658.217
875.5528, 1669.282
876.0349, 1662.676
876.5170, 1657.615
876.9991, 1661.451
877.4813, 1670.781
877.9634, 1665.736
878.4455, 1645.819
878.9276, 1635.217
879.4097, 1652.009
879.8918, 1677.685
880.3740, 1687.248
880.8561, 1685.262
881.3382, 1684.366
881.8203, 1694.746
882.3024, 1701.038
882.7845, 1695.315
883.2667, 1682.969
883.7488, 1675.813
884.2309, 1674.789
884.7130, 1673.764
885.1951, 1670.556
885.6772, 1667.687
886.1594, 1670.223
886.6415, 1676.408
887.1236, 1681.972
887.6057, 1684.979
888.0878, 1687.674
888.5699, 1690.302
889.0521, 1693.531
889.5342, 1698.919
890.0163, 1709.940
890.4984, 1713.269
890.9805, 1704.927
891.4626, 1694.756
891.9448, 1697.723
892.4269, 1710.392
892.9090, 1722.434
893.3911, 1732.780
893.8732, 1737.681
894.3553, 1727.429
894.8375, 1714.177
895.3196, 1710.579
895.8017, 1723.344
896.2838, 1735.588
896.7659, 1748.682
897.2480, 1759.069
897.7302, 1762.346
898.2123, 1759.690
898.6944, 1759.902
899.1765, 1763.669
899.6586, 1765.876
900.1407, 1758.014
900.6229, 1749.742
901.1050, 1751.871
901.5871, 1767.229
902.0692, 1776.552
902.5513, 1775.188
903.0334, 1771.571
903.5156, 1768.567
903.9977, 1766.437
904.4798, 1769.237
904.9619, 1776.857
905.4440, 1785.670
905.9261, 1794.070
906.4083, 1801.869
906.8904, 1809.708
907.3725, 1817.085
907.8546, 1821.630
908.3367, 1821.608
908.8188, 1819.403
909.3010, 1813.188
909.7831, 1805.949
910.2652, 1811.737
910.7473, 1830.713
911.2294, 1841.940
911.7115, 1831.726
912.1937, 1818.278
912.6758, 1830.001
913.1579, 1855.460
913.6400, 1871.222
914.1221, 1856.188
914.6042, 1847.209
915.0864, 1854.708
915.5685, 1869.854
916.0506, 1881.555
916.5327, 1890.228
917.0148, 1889.093
917.4969, 1874.688
917.9790, 1859.871
918.4611, 1861.283
918.9432, 1872.172
919.4254, 1882.790
919.9075, 1892.298
920.3896, 1897.354
920.8717, 1894.686
921.3538, 1888.576
921.8359, 1881.312
922.3181, 1871.929
922.8002, 1866.739
923.2823, 1865.956
923.7644, 1867.671
924.2465, 1872.355
924.7286, 1877.353
925.2108, 1878.585
925.6929, 1875.772
926.1750, 1870.962
926.6571, 1862.171
927.1392, 1854.406
927.6213, 1851.056
928.1035, 1851.484
928.5856, 1846.910
929.0677, 1836.484
929.5498, 1827.738
930.0319, 1825.826
930.5140, 1826.622
930.9962, 1822.364
931.4783, 1814.771
931.9604, 1809.494
932.4425, 1818.452
932.9246, 1818.958
933.4067, 1793.292
933.8889, 1757.699
934.3710, 1744.837
934.8531, 1758.504
935.3352, 1770.360
935.8173, 1774.259
936.2994, 1774.185
936.7816, 1774.481
937.2637, 1774.902
937.7458, 1775.101
938.2279, 1775.320
938.7100, 1774.475
939.1921, 1772.519
939.6743, 1769.046
940.1564, 1762.583
940.6385, 1751.500
941.1206, 1748.235
941.6027, 1754.231
942.0848, 1760.566
942.5670, 1758.999
943.0491, 1752.619
943.5312, 1744.367
944.0133, 1734.685
944.4954, 1728.529
944.9775, 1731.873
945.4597, 1735.141
945.9418, 1733.635
946.4239, 1727.949
946.9060, 1723.983
947.3881, 1721.797
947.8702, 1720.381
948.3524, 1720.945
948.8345, 1720.487
949.3166, 1711.047
949.7987, 1697.033
950.2808, 1690.384
950.7629, 1703.053
951.2451, 1714.464
951.7272, 1719.684
952.2093, 1721.253
952.6914, 1723.300
953.1735, 1725.827
953.6556, 1728.675
954.1378, 1732.334
954.6199, 1734.114
955.1020, 1731.579
955.5841, 1725.134
956.0662, 1714.171
956.5483, 1695.099
957.0305, 1681.979
957.5126, 1678.607
957.9947, 1680.303
958.4768, 1685.340
958.9589, 1693.788
959.4410, 1699.456
959.9232, 1702.327
960.4053, 1703.655
960.8874, 1701.114
961.3695, 1699.862
961.8516, 1707.117
962.3337, 1721.772
962.8159, 1732.308
963.2980, 1732.709
963.7801, 1734.876
964.2622, 1744.518
964.7443, 1756.594
965.2264, 1751.702
965.7086, 1732.731
966.1907, 1721.010
966.6728, 1727.729
967.1549, 1738.669
967.6370, 1744.580
968.1191, 1746.322
968.6013, 1744.856
969.0834, 1736.825
969.5655, 1731.799
970.0476, 1730.474
970.5297, 1731.245
971.0118, 1732.869
971.4940, 1735.111
971.9761, 1736.821
972.4582, 1737.865
972.9403, 1739.626
973.4224, 1743.017
973.9045, 1747.545
974.3867, 1754.066
974.8688, 1762.825
975.3509, 1765.396
975.8330, 1758.938
976.3151, 1755.614
976.7972, 1763.817
977.2794, 1777.432
977.7615, 1780.368
978.2436, 1776.152
978.7257, 1777.137
979.2078, 1792.399
979.6899, 1810.105
980.1720, 1829.022
980.6541, 1846.205
981.1362, 1856.432
981.6183, 1858.264
982.1005, 1860.743
982.5826, 1864.526
983.0647, 1871.603
983.5468, 1886.140
984.0289, 1904.962
984.5110, 1923.370
984.9932, 1941.065
985.4753, 1956.186
985.9574, 1964.261
986.4395, 1973.356
986.9216, 1987.429
987.4037, 2006.425
987.8859, 2030.308
988.3680, 2058.868
988.8501, 2084.365
989.3322, 2096.719
989.8143, 2107.671
990.2964, 2129.827
990.7786, 2160.594
991.2607, 2191.204
991.7428, 2221.202
992.2249, 2248.146
992.7070, 2270.717
993.1891, 2291.240
993.6713, 2311.931
994.1534, 2333.695
994.6355, 2362.573
995.1176, 2403.022
995.5997, 2438.430
996.0818, 2453.056
996.5640, 2459.164
997.0461, 2467.572
997.5282, 2478.736
998.0103, 2494.500
998.4924, 2516.600
998.9745, 2538.063
999.4567, 2551.723
999.9388, 2561.971
1000.421, 2581.884
1000.903, 2609.013
1001.385, 2629.884
1001.867, 2630.550
1002.349, 2631.272
1002.831, 2641.624
1003.314, 2657.360
1003.796, 2668.683
1004.278, 2675.220
1004.760, 2683.115
1005.242, 2694.751
1005.724, 2705.290
1006.206, 2703.467
1006.688, 2699.350
1007.171, 2708.853
1007.653, 2742.801
1008.135, 2767.802
1008.617, 2779.040
1009.099, 2782.576
1009.581, 2780.070
1010.063, 2772.378
1010.545, 2767.972
1011.027, 2767.038
1011.510, 2772.401
1011.992, 2798.622
1012.474, 2819.962
1012.956, 2812.355
1013.438, 2783.807
1013.920, 2768.266
1014.402, 2771.384
1014.884, 2776.026
1015.367, 2781.750
1015.849, 2781.538
1016.331, 2758.342
1016.813, 2721.810
1017.295, 2693.195
1017.777, 2678.792
1018.259, 2668.351
1018.741, 2661.788
1019.223, 2654.541
1019.706, 2644.256
1020.188, 2631.114
1020.670, 2609.193
1021.152, 2577.928
1021.634, 2551.399
1022.116, 2546.695
1022.598, 2545.718
1023.080, 2526.522
1023.563, 2494.152
1024.045, 2467.828
1024.527, 2456.456
1025.009, 2443.145
1025.491, 2424.853
1025.973, 2404.718
1026.455, 2385.599
1026.937, 2368.883
1027.419, 2362.719
1027.901, 2371.265
1028.384, 2374.831
1028.866, 2353.151
1029.348, 2327.470
1029.830, 2315.073
1030.312, 2316.905
1030.794, 2319.858
1031.276, 2324.659
1031.758, 2326.492
1032.241, 2320.912
1032.723, 2312.080
1033.205, 2303.655
1033.687, 2297.171
1034.169, 2296.495
1034.651, 2315.312
1035.133, 2322.408
1035.615, 2306.520
1036.098, 2284.380
1036.580, 2281.691
1037.062, 2295.368
1037.544, 2300.684
1038.026, 2293.490
1038.508, 2289.926
1038.990, 2307.752
1039.472, 2330.074
1039.954, 2343.428
1040.437, 2346.800
1040.919, 2349.332
1041.401, 2351.119
1041.883, 2351.291
1042.365, 2345.443
1042.847, 2342.598
1043.329, 2364.000
1043.811, 2400.944
1044.293, 2433.558
1044.776, 2450.839
1045.258, 2468.780
1045.740, 2490.914
1046.222, 2514.097
1046.704, 2534.259
1047.186, 2551.765
1047.668, 2575.719
1048.150, 2606.505
1048.633, 2641.231
1049.115, 2676.593
1049.597, 2715.533
1050.079, 2761.090
1050.561, 2812.838
1051.043, 2865.606
1051.525, 2916.540
1052.007, 2975.307
1052.490, 3045.800
1052.972, 3122.837
1053.454, 3197.401
1053.936, 3272.144
1054.418, 3352.674
1054.900, 3440.255
1055.382, 3531.807
1055.864, 3627.971
1056.346, 3726.084
1056.828, 3821.332
1057.311, 3914.718
1057.793, 4029.966
1058.275, 4166.568
1058.757, 4307.574
1059.239, 4444.473
1059.721, 4581.964
1060.203, 4725.364
1060.685, 4871.841
1061.168, 5012.410
1061.650, 5138.865
1062.132, 5284.643
1062.614, 5457.630
1063.096, 5635.646
1063.578, 5794.049
1064.060, 5936.545
1064.542, 6076.132
1065.025, 6216.580
1065.507, 6327.956
1065.989, 6381.380
1066.471, 6423.733
1066.953, 6471.731
1067.435, 6522.325
1067.917, 6561.122
1068.399, 6589.446
1068.881, 6613.700
1069.364, 6641.069
1069.846, 6658.474
1070.328, 6655.069
1070.810, 6637.774
1071.292, 6619.676
1071.774, 6611.615
1072.256, 6558.553
1072.738, 6455.709
1073.220, 6331.744
1073.703, 6204.357
1074.185, 6077.161
1074.667, 5965.973
1075.149, 5864.714
1075.631, 5739.665
1076.113, 5557.430
1076.595, 5389.858
1077.077, 5254.311
1077.559, 5138.020
1078.042, 5022.063
1078.524, 4906.265
1079.006, 4785.477
1079.488, 4657.128
1079.970, 4536.408
1080.452, 4432.118
1080.934, 4336.666
1081.416, 4241.984
1081.899, 4148.749
1082.381, 4064.851
1082.863, 3990.579
1083.345, 3927.652
1083.827, 3886.517
1084.309, 3845.842
1084.791, 3778.169
1085.273, 3697.631
1085.755, 3630.740
1086.238, 3587.344
1086.720, 3541.404
1087.202, 3490.020
1087.684, 3442.209
1088.166, 3410.108
1088.648, 3386.116
1089.130, 3351.712
1089.612, 3307.750
1090.094, 3271.799
1090.577, 3262.406
1091.059, 3247.648
1091.541, 3217.349
1092.023, 3177.542
1092.505, 3138.831
1092.987, 3101.838
1093.469, 3067.635
1093.951, 3035.798
1094.434, 3009.927
1094.916, 3003.191
1095.398, 2994.768
1095.880, 2962.138
1096.362, 2904.271
1096.844, 2875.932
1097.326, 2879.046
1097.808, 2883.802
1098.291, 2880.946
1098.773, 2865.274
1099.255, 2817.236
1099.737, 2755.843
1100.219, 2716.280
1100.701, 2716.249
1101.183, 2721.690
1101.665, 2737.151
1102.147, 2744.650
1102.630, 2718.705
1103.112, 2675.036
1103.594, 2648.133
1104.076, 2637.590
1104.558, 2625.247
1105.040, 2596.189
1105.522, 2574.073
1106.004, 2566.695
1106.486, 2568.323
1106.969, 2569.429
1107.451, 2569.713
1107.933, 2567.881
1108.415, 2564.005
1108.897, 2556.037
1109.379, 2538.958
1109.861, 2520.388
1110.343, 2503.944
1110.826, 2490.192
1111.308, 2489.537
1111.790, 2502.850
1112.272, 2512.971
1112.754, 2512.547
1113.236, 2506.250
1113.718, 2493.739
1114.200, 2480.640
1114.682, 2475.726
1115.165, 2483.583
1115.647, 2491.115
1116.129, 2497.896
1116.611, 2505.445
1117.093, 2517.655
1117.575, 2530.020
1118.057, 2531.359
1118.539, 2524.919
1119.021, 2524.010
1119.504, 2542.432
1119.986, 2553.061
1120.468, 2547.389
1120.950, 2538.980
1121.432, 2554.939
1121.914, 2584.430
1122.396, 2583.873
1122.878, 2547.847
1123.361, 2519.072
1123.843, 2527.344
1124.325, 2541.739
1124.807, 2548.559
1125.289, 2549.203
1125.771, 2546.313
1126.253, 2540.593
1126.735, 2543.835
1127.218, 2564.847
1127.700, 2577.986
1128.182, 2548.975
1128.664, 2511.578
1129.146, 2502.710
1129.628, 2525.803
1130.110, 2533.349
1130.592, 2524.424
1131.074, 2508.040
1131.557, 2484.939
1132.039, 2461.073
1132.521, 2442.968
1133.003, 2429.664
1133.485, 2420.177
1133.967, 2418.373
1134.449, 2412.489
1134.931, 2402.810
1135.413, 2387.722
1135.896, 2361.632
1136.378, 2331.572
1136.860, 2309.300
1137.342, 2294.371
1137.824, 2280.962
1138.306, 2272.329
1138.788, 2256.947
1139.270, 2229.294
1139.752, 2199.414
1140.235, 2184.176
1140.717, 2178.707
1141.199, 2167.743
1141.681, 2149.008
1142.163, 2135.475
1142.645, 2138.164
1143.127, 2142.509
1143.609, 2144.961
1144.092, 2143.420
1144.574, 2127.027
1145.056, 2098.733
1145.538, 2077.159
1146.020, 2068.958
1146.502, 2064.597
1146.984, 2062.794
1147.466, 2058.760
1147.948, 2048.043
1148.431, 2030.885
1148.913, 2013.831
1149.395, 1996.947
1149.877, 1992.626
1150.359, 2022.470
1150.841, 2047.079
1151.323, 2023.668
1151.805, 1980.609
1152.287, 1962.266
1152.770, 1979.406
1153.252, 1984.441
1153.734, 1975.651
1154.216, 1963.205
1154.698, 1951.383
1155.180, 1942.953
1155.662, 1944.603
1156.144, 1952.523
1156.627, 1952.680
1157.109, 1940.126
1157.591, 1931.848
1158.073, 1931.534
1158.555, 1929.645
1159.037, 1912.106
1159.519, 1888.116
1160.001, 1869.521
1160.484, 1857.387
1160.966, 1851.752
1161.448, 1858.849
1161.930, 1859.041
1162.412, 1845.034
1162.894, 1826.930
1163.376, 1821.422
1163.858, 1824.733
1164.340, 1830.451
1164.823, 1838.414
1165.305, 1841.615
1165.787, 1835.085
1166.269, 1828.395
1166.751, 1826.080
1167.233, 1825.768
1167.715, 1819.521
1168.197, 1809.475
1168.679, 1802.309
1169.162, 1800.500
1169.644, 1801.006
1170.126, 1803.965
1170.608, 1807.770
1171.090, 1812.628
1171.572, 1817.643
1172.054, 1815.849
1172.536, 1808.233
1173.019, 1800.676
1173.501, 1790.599
1173.983, 1787.719
1174.465, 1804.479
1174.947, 1824.088
1175.429, 1828.999
1175.911, 1819.684
1176.393, 1815.960
1176.875, 1818.295
1177.358, 1822.811
1177.840, 1830.154
1178.322, 1835.718
1178.804, 1837.303
1179.286, 1835.021
1179.768, 1825.352
1180.250, 1807.927
1180.732, 1810.093
1181.214, 1835.959
1181.697, 1858.147
1182.179, 1850.181
1182.661, 1835.166
1183.143, 1828.233
1183.625, 1828.672
1184.107, 1833.478
1184.589, 1843.355
1185.071, 1845.461
1185.554, 1835.462
1186.036, 1826.843
1186.518, 1837.282
1187.000, 1851.593
1187.482, 1855.092
1187.964, 1847.753
1188.446, 1840.311
1188.928, 1832.396
1189.411, 1827.412
1189.893, 1826.770
1190.375, 1828.760
1190.857, 1836.314
1191.339, 1842.678
1191.821, 1836.840
1192.303, 1814.727
1192.785, 1808.869
1193.267, 1821.651
1193.750, 1835.828
1194.232, 1845.928
1194.714, 1849.336
1195.196, 1837.294
1195.678, 1818.794
1196.160, 1807.802
1196.642, 1807.586
1197.124, 1812.454
1197.606, 1824.582
1198.089, 1830.867
1198.571, 1813.905
1199.053, 1792.683
1199.535, 1792.624
1200.017, 1807.077
1200.499, 1822.010
1200.981, 1840.956
1201.463, 1845.351
1201.945, 1831.809
1202.428, 1815.386
1202.910, 1805.130
1203.392, 1802.266
1203.874, 1815.273
1204.356, 1837.835
1204.838, 1844.924
1205.320, 1822.371
1205.802, 1810.936
1206.285, 1816.113
1206.767, 1827.949
1207.249, 1839.387
1207.731, 1848.778
1208.213, 1853.392
1208.695, 1853.374
1209.177, 1851.005
1209.659, 1843.535
1210.141, 1842.425
1210.624, 1851.375
1211.106, 1862.480
1211.588, 1868.474
1212.070, 1868.736
1212.552, 1859.367
1213.034, 1840.402
1213.516, 1829.040
1213.998, 1828.499
1214.480, 1831.425
1214.963, 1837.625
1215.445, 1842.303
1215.927, 1834.210
1216.409, 1821.900
1216.891, 1821.515
1217.373, 1838.353
1217.855, 1835.947
1218.337, 1801.936
1218.820, 1778.263
1219.302, 1785.208
1219.784, 1801.421
1220.266, 1788.184
1220.748, 1761.995
1221.230, 1749.362
1221.712, 1759.271
1222.194, 1768.603
1222.677, 1777.105
1223.159, 1782.154
1223.641, 1782.263
1224.123, 1778.440
1224.605, 1770.268
1225.087, 1759.994
1225.569, 1751.522
1226.051, 1745.737
1226.533, 1742.179
1227.016, 1740.869
1227.498, 1741.798
1227.980, 1747.573
1228.462, 1753.099
1228.944, 1749.110
1229.426, 1739.292
1229.908, 1730.796
1230.390, 1726.077
1230.872, 1720.642
1231.355, 1714.110
1231.837, 1708.624
1232.319, 1705.606
1232.801, 1704.779
1233.283, 1704.453
1233.765, 1706.201
1234.247, 1715.281
1234.729, 1742.046
1235.212, 1748.314
1235.694, 1728.629
1236.176, 1708.132
1236.658, 1710.197
1237.140, 1721.664
1237.622, 1729.882
1238.104, 1734.171
1238.586, 1733.863
1239.068, 1727.411
1239.551, 1721.821
1240.033, 1717.110
1240.515, 1716.698
1240.997, 1729.379
1241.479, 1743.443
1241.961, 1745.328
1242.443, 1737.660
1242.925, 1732.664
1243.407, 1731.205
1243.890, 1730.979
1244.372, 1731.863
1244.854, 1732.779
1245.336, 1732.527
1245.818, 1731.890
1246.300, 1731.307
1246.782, 1730.879
1247.264, 1730.945
1247.747, 1731.458
1248.229, 1732.836
1248.711, 1735.450
1249.193, 1736.607
1249.675, 1734.114
1250.157, 1729.049
1250.639, 1719.134
1251.121, 1707.491
1251.604, 1707.983
1252.086, 1721.384
1252.568, 1723.843
1253.050, 1708.548
1253.532, 1697.644
1254.014, 1719.772
1254.496, 1743.718
1254.978, 1744.022
1255.460, 1726.954
1255.943, 1713.328
1256.425, 1703.318
1256.907, 1702.308
1257.389, 1712.998
1257.871, 1723.410
1258.353, 1726.435
1258.835, 1724.918
1259.317, 1719.892
1259.799, 1712.455
1260.281, 1706.660
1260.764, 1702.370
1261.246, 1698.897
1261.728, 1696.118
1262.210, 1694.108
1262.692, 1691.404
1263.174, 1691.729
1263.656, 1699.039
1264.138, 1709.537
1264.621, 1707.724
1265.103, 1697.542
1265.585, 1693.418
1266.067, 1701.765
1266.549, 1707.311
1267.031, 1701.880
1267.513, 1696.055
1267.995, 1694.364
1268.478, 1695.602
1268.960, 1694.334
1269.442, 1693.529
1269.924, 1702.317
1270.406, 1728.996
1270.888, 1746.049
1271.370, 1747.720
1271.852, 1743.754
1272.334, 1736.429
1272.817, 1729.272
1273.299, 1732.207
1273.781, 1739.894
1274.263, 1742.049
1274.745, 1734.414
1275.227, 1724.665
1275.709, 1710.806
1276.191, 1703.212
1276.673, 1711.961
1277.156, 1724.311
1277.638, 1716.869
1278.120, 1701.837
1278.602, 1701.025
1279.084, 1725.026
1279.566, 1731.296
1280.048, 1716.863
1280.530, 1706.856
1281.013, 1720.023
1281.495, 1737.520
1281.977, 1740.041
1282.459, 1734.862
1282.941, 1732.245
1283.423, 1733.354
1283.905, 1730.068
1284.387, 1722.309
1284.870, 1719.925
1285.352, 1735.028
1285.834, 1748.341
1286.316, 1742.841
1286.798, 1731.600
1287.280, 1730.172
1287.762, 1738.612
1288.244, 1737.825
1288.726, 1729.278
1289.208, 1724.131
1289.691, 1733.219
1290.173, 1740.061
1290.655, 1734.984
1291.137, 1727.760
1291.619, 1726.050
1292.101, 1728.687
1292.583, 1728.711
1293.065, 1727.365
1293.548, 1728.124
1294.030, 1732.428
1294.512, 1739.592
1294.994, 1753.523
1295.476, 1762.631
1295.958, 1753.830
1296.440, 1734.217
1296.922, 1720.124
1297.405, 1714.030
1297.887, 1713.264
1298.369, 1709.188
1298.851, 1715.004
1299.333, 1734.942
1299.815, 1751.358
1300.297, 1754.362
1300.779, 1743.950
##END=



