##NAMES=Beryllonite
##RRUFFID=R070249
##IDEAL CHEMISTRY=NaBePO_4_
##LOCALITY=Melrose Farm Beryllonite prospects (McAllister prospects),  Stoneham, Oxford County, Maine, USA
##OWNER=RRUFF
##SOURCE=Michael Scott
##DESCRIPTION=Two colorless single crystal fragments
##STATUS=The identification of this mineral has been confirmed by X-ray diffraction and chemical analysis
##URL=rruff.info/R070249
##MEASURED CHEMISTRY=Na_1.00_Be_1.00_P_1.00_O_4_; Be estimated by difference
121.5015, 78.01006
121.9836, 84.09811
122.4658, 89.27807
122.9479, 94.47978
123.4300, 100.7659
123.9121, 108.7531
124.3942, 117.6024
124.8763, 124.9035
125.3585, 128.5776
125.8406, 134.5474
126.3227, 144.6408
126.8048, 157.1883
127.2869, 170.4816
127.7690, 183.5775
128.2512, 196.7329
128.7333, 210.5716
129.2154, 226.0978
129.6975, 241.0593
130.1796, 254.2507
130.6617, 266.7768
131.1439, 280.3182
131.6260, 296.1063
132.1081, 313.6017
132.5902, 328.5450
133.0723, 341.0404
133.5544, 350.5883
134.0366, 355.5493
134.5187, 357.4773
135.0008, 358.7916
135.4829, 361.0322
135.9650, 364.1804
136.4471, 368.0262
136.9293, 370.9408
137.4114, 376.0761
137.8935, 386.4279
138.3756, 400.0028
138.8577, 411.8502
139.3398, 417.6845
139.8220, 417.3997
140.3041, 424.5939
140.7862, 445.9431
141.2683, 466.6249
141.7504, 477.3692
142.2325, 480.6978
142.7147, 486.9422
143.1968, 504.7771
143.6789, 534.5229
144.1610, 560.2374
144.6431, 578.6644
145.1252, 596.2186
145.6074, 617.3713
146.0895, 641.6859
146.5716, 664.8449
147.0537, 683.0651
147.5358, 696.1486
148.0179, 710.7802
148.5001, 730.6111
148.9822, 749.2882
149.4643, 761.0900
149.9464, 766.0737
150.4285, 770.3176
150.9106, 779.3348
151.3928, 792.5029
151.8749, 802.6588
152.3570, 805.0388
152.8391, 806.8771
153.3212, 816.4689
153.8033, 834.6291
154.2855, 852.2783
154.7676, 860.8911
155.2497, 862.5994
155.7318, 866.5436
156.2139, 875.9464
156.6960, 887.3767
157.1782, 894.8549
157.6603, 896.8030
158.1424, 903.5294
158.6245, 928.2285
159.1066, 964.3687
159.5887, 996.4894
160.0709, 1020.830
160.5530, 1038.884
161.0351, 1051.661
161.5172, 1058.376
161.9993, 1062.611
162.4814, 1069.594
162.9636, 1076.012
163.4457, 1074.354
163.9278, 1053.862
164.4099, 1025.920
164.8920, 1011.274
165.3741, 1011.897
165.8563, 1020.714
166.3384, 1037.360
166.8205, 1058.472
167.3026, 1078.718
167.7847, 1097.071
168.2668, 1112.915
168.7490, 1126.301
169.2311, 1140.221
169.7132, 1144.233
170.1953, 1129.750
170.6774, 1103.277
171.1595, 1073.815
171.6417, 1043.575
172.1238, 1013.759
172.6059, 987.1067
173.0880, 963.1299
173.5701, 943.7528
174.0522, 930.3790
174.5344, 921.2116
175.0165, 914.1563
175.4986, 908.3629
175.9807, 903.8546
176.4628, 900.8279
176.9449, 900.0802
177.4271, 899.3992
177.9092, 896.7562
178.3913, 893.9006
178.8734, 893.3420
179.3555, 896.6348
179.8376, 902.7104
180.3197, 908.8002
180.8019, 916.1525
181.2840, 921.0593
181.7661, 920.6544
182.2482, 918.0905
182.7303, 917.2124
183.2124, 919.9324
183.6946, 925.4313
184.1767, 931.2660
184.6588, 936.4155
185.1409, 943.8663
185.6230, 956.1624
186.1051, 970.1111
186.5873, 982.2708
187.0694, 991.0757
187.5515, 997.0662
188.0336, 1001.417
188.5157, 1002.023
188.9978, 1004.697
189.4800, 1010.713
189.9621, 1018.987
190.4442, 1028.273
190.9263, 1037.890
191.4084, 1048.745
191.8905, 1063.767
192.3727, 1087.823
192.8548, 1107.274
193.3369, 1123.771
193.8190, 1133.789
194.3011, 1132.739
194.7832, 1118.689
195.2654, 1096.145
195.7475, 1074.588
196.2296, 1053.906
196.7117, 1034.260
197.1938, 1012.882
197.6759, 993.7148
198.1581, 980.9697
198.6402, 975.9016
199.1223, 975.4097
199.6044, 974.0533
200.0865, 972.0349
200.5686, 968.5483
201.0508, 960.2687
201.5329, 952.7092
202.0150, 951.1829
202.4971, 956.8233
202.9792, 965.3285
203.4613, 969.4545
203.9435, 966.1362
204.4256, 965.3156
204.9077, 971.1274
205.3898, 976.6970
205.8719, 975.7342
206.3540, 967.7382
206.8362, 958.7830
207.3183, 957.8309
207.8004, 969.1415
208.2825, 977.7499
208.7646, 979.9553
209.2467, 982.5314
209.7289, 990.4957
210.2110, 1003.740
210.6931, 1017.738
211.1752, 1027.214
211.6573, 1031.150
212.1395, 1033.954
212.6216, 1037.311
213.1037, 1038.245
213.5858, 1034.812
214.0679, 1027.299
214.5500, 1017.094
215.0322, 1003.937
215.5143, 985.8205
215.9964, 978.8189
216.4785, 991.7801
216.9606, 1007.436
217.4427, 1021.627
217.9249, 1033.225
218.4070, 1041.563
218.8891, 1045.304
219.3712, 1044.219
219.8533, 1046.880
220.3354, 1058.402
220.8176, 1068.869
221.2997, 1072.622
221.7818, 1073.268
222.2639, 1078.790
222.7460, 1095.751
223.2281, 1122.671
223.7103, 1141.941
224.1924, 1141.899
224.6745, 1146.772
225.1566, 1163.397
225.6387, 1187.727
226.1208, 1213.065
226.6030, 1235.196
227.0851, 1256.084
227.5672, 1284.583
228.0493, 1331.723
228.5314, 1371.674
229.0135, 1396.940
229.4957, 1414.243
229.9778, 1431.260
230.4599, 1451.461
230.9420, 1472.864
231.4241, 1490.781
231.9062, 1504.408
232.3884, 1515.327
232.8705, 1530.560
233.3526, 1540.128
233.8347, 1534.366
234.3168, 1510.266
234.7989, 1474.007
235.2811, 1435.130
235.7632, 1390.983
236.2453, 1350.382
236.7274, 1311.303
237.2095, 1276.992
237.6916, 1250.533
238.1738, 1232.123
238.6559, 1218.009
239.1380, 1204.212
239.6201, 1191.281
240.1022, 1176.456
240.5843, 1157.632
241.0665, 1138.554
241.5486, 1119.933
242.0307, 1102.363
242.5128, 1087.254
242.9949, 1077.026
243.4770, 1072.311
243.9592, 1064.505
244.4413, 1045.475
244.9234, 1031.177
245.4055, 1032.138
245.8876, 1043.315
246.3697, 1051.020
246.8519, 1042.987
247.3340, 1021.825
247.8161, 1012.096
248.2982, 1022.919
248.7803, 1033.530
249.2624, 1038.937
249.7446, 1039.024
250.2267, 1032.716
250.7088, 1016.937
251.1909, 997.0947
251.6730, 989.9480
252.1551, 1002.267
252.6373, 1013.742
253.1194, 1017.582
253.6015, 1017.412
254.0836, 1016.648
254.5657, 1016.314
255.0478, 1016.613
255.5300, 1018.324
256.0121, 1022.130
256.4942, 1024.714
256.9763, 1022.480
257.4584, 1020.189
257.9406, 1021.669
258.4227, 1027.797
258.9048, 1035.749
259.3869, 1042.901
259.8690, 1049.239
260.3511, 1055.457
260.8333, 1062.982
261.3154, 1069.179
261.7975, 1070.867
262.2796, 1068.393
262.7617, 1067.447
263.2438, 1073.257
263.7260, 1084.614
264.2081, 1094.973
264.6902, 1105.669
265.1723, 1111.834
265.6544, 1108.169
266.1365, 1097.153
266.6187, 1086.886
267.1008, 1080.912
267.5829, 1078.308
268.0650, 1078.473
268.5471, 1083.083
269.0292, 1084.932
269.5114, 1073.083
269.9935, 1055.499
270.4756, 1046.393
270.9577, 1053.061
271.4398, 1066.720
271.9219, 1079.515
272.4041, 1091.546
272.8862, 1099.393
273.3683, 1098.964
273.8504, 1094.197
274.3325, 1093.603
274.8146, 1101.333
275.2968, 1106.360
275.7789, 1096.505
276.2610, 1076.280
276.7431, 1065.194
277.2252, 1072.774
277.7073, 1089.115
278.1895, 1097.293
278.6716, 1095.844
279.1537, 1095.151
279.6358, 1102.429
280.1179, 1112.092
280.6000, 1112.617
281.0822, 1100.312
281.5643, 1085.980
282.0464, 1083.649
282.5285, 1094.553
283.0106, 1101.763
283.4927, 1101.108
283.9749, 1097.417
284.4570, 1095.656
284.9391, 1095.972
285.4212, 1093.940
285.9033, 1084.539
286.3854, 1068.189
286.8676, 1060.259
287.3497, 1065.252
287.8318, 1073.415
288.3139, 1080.805
288.7960, 1087.609
289.2781, 1094.728
289.7603, 1102.488
290.2424, 1111.221
290.7245, 1122.317
291.2066, 1141.830
291.6887, 1156.142
292.1708, 1159.090
292.6530, 1157.180
293.1351, 1158.349
293.6172, 1165.389
294.0993, 1176.099
294.5814, 1186.902
295.0635, 1200.555
295.5457, 1208.558
296.0278, 1207.475
296.5099, 1203.647
296.9920, 1199.334
297.4741, 1196.044
297.9562, 1197.079
298.4384, 1206.988
298.9205, 1227.975
299.4026, 1242.523
299.8847, 1243.518
300.3668, 1245.374
300.8489, 1254.097
301.3311, 1267.608
301.8131, 1280.784
302.2953, 1290.321
302.7774, 1296.753
303.2595, 1302.972
303.7416, 1310.885
304.2237, 1315.449
304.7058, 1317.366
305.1880, 1315.115
305.6701, 1307.579
306.1522, 1294.405
306.6343, 1274.640
307.1164, 1243.701
307.5985, 1196.568
308.0807, 1157.495
308.5628, 1136.483
309.0449, 1121.162
309.5270, 1106.306
310.0091, 1090.832
310.4912, 1074.300
310.9734, 1054.162
311.4555, 1031.208
311.9376, 1015.042
312.4197, 1008.824
312.9018, 1006.340
313.3839, 1003.314
313.8661, 1000.458
314.3482, 999.8230
314.8303, 1004.273
315.3124, 1010.656
315.7945, 1012.524
316.2766, 1008.885
316.7588, 1006.590
317.2409, 1010.527
317.7230, 1017.813
318.2051, 1023.833
318.6872, 1028.278
319.1693, 1030.932
319.6515, 1030.914
320.1336, 1028.705
320.6157, 1026.157
321.0978, 1023.294
321.5799, 1021.335
322.0620, 1022.986
322.5442, 1028.892
323.0263, 1033.493
323.5084, 1033.856
323.9905, 1032.633
324.4726, 1032.676
324.9547, 1034.484
325.4369, 1038.788
325.9190, 1046.927
326.4011, 1059.390
326.8832, 1069.818
327.3653, 1077.194
327.8474, 1083.611
328.3296, 1089.890
328.8117, 1096.176
329.2938, 1102.277
329.7759, 1107.878
330.2580, 1113.623
330.7401, 1122.274
331.2223, 1139.392
331.7044, 1152.567
332.1865, 1154.153
332.6686, 1154.105
333.1507, 1165.453
333.6328, 1191.382
334.1150, 1221.410
334.5971, 1238.988
335.0792, 1236.283
335.5613, 1242.260
336.0434, 1261.716
336.5255, 1284.448
337.0077, 1304.589
337.4898, 1323.027
337.9719, 1344.671
338.4540, 1373.833
338.9361, 1409.667
339.4182, 1444.409
339.9004, 1475.285
340.3825, 1509.036
340.8646, 1544.020
341.3467, 1583.979
341.8288, 1635.800
342.3109, 1704.041
342.7931, 1776.313
343.2752, 1831.024
343.7573, 1864.628
344.2394, 1906.538
344.7215, 1965.773
345.2036, 2035.161
345.6858, 2109.177
346.1679, 2187.688
346.6500, 2272.018
347.1321, 2365.514
347.6142, 2465.320
348.0963, 2563.271
348.5785, 2657.127
349.0606, 2754.218
349.5427, 2862.334
350.0248, 2978.759
350.5069, 3095.581
350.9890, 3216.142
351.4712, 3333.448
351.9533, 3450.142
352.4354, 3562.348
352.9175, 3650.581
353.3996, 3705.969
353.8817, 3731.352
354.3639, 3731.563
354.8460, 3712.836
355.3281, 3664.917
355.8102, 3577.137
356.2923, 3462.669
356.7744, 3335.245
357.2566, 3197.945
357.7387, 3052.884
358.2208, 2901.037
358.7029, 2739.432
359.1850, 2586.271
359.6671, 2439.379
360.1493, 2302.127
360.6314, 2177.242
361.1135, 2063.144
361.5956, 1955.930
362.0777, 1852.390
362.5598, 1755.110
363.0420, 1673.299
363.5241, 1614.695
364.0062, 1560.344
364.4883, 1505.996
364.9704, 1455.556
365.4525, 1413.481
365.9347, 1380.379
366.4168, 1350.954
366.8989, 1318.857
367.3810, 1283.364
367.8631, 1253.162
368.3452, 1228.125
368.8274, 1209.522
369.3095, 1202.738
369.7916, 1202.278
370.2737, 1194.744
370.7558, 1169.082
371.2379, 1136.687
371.7201, 1117.569
372.2022, 1112.849
372.6843, 1111.225
373.1664, 1111.769
373.6485, 1110.311
374.1306, 1099.740
374.6128, 1076.749
375.0949, 1055.832
375.5770, 1045.843
376.0591, 1043.123
376.5412, 1041.188
377.0233, 1038.957
377.5055, 1035.629
377.9876, 1029.663
378.4697, 1020.685
378.9518, 1014.831
379.4339, 1012.407
379.9160, 1012.936
380.3982, 1019.620
380.8803, 1029.366
381.3624, 1033.483
381.8445, 1026.781
382.3266, 1013.020
382.8087, 1003.401
383.2909, 998.2123
383.7730, 997.5828
384.2551, 1005.939
384.7372, 1015.888
385.2193, 1021.422
385.7014, 1021.648
386.1836, 1019.415
386.6657, 1016.851
387.1478, 1013.729
387.6299, 1015.023
388.1120, 1025.435
388.5941, 1034.994
389.0763, 1037.983
389.5584, 1038.581
390.0405, 1043.590
390.5226, 1056.447
391.0047, 1073.520
391.4868, 1089.670
391.9690, 1104.790
392.4511, 1119.193
392.9332, 1130.681
393.4153, 1143.620
393.8974, 1161.671
394.3795, 1184.939
394.8617, 1211.179
395.3438, 1242.419
395.8259, 1274.842
396.3080, 1300.963
396.7901, 1319.704
397.2722, 1339.508
397.7544, 1369.333
398.2365, 1404.981
398.7186, 1426.370
399.2007, 1434.963
399.6828, 1428.094
400.1649, 1396.232
400.6471, 1350.160
401.1292, 1307.540
401.6113, 1273.960
402.0934, 1244.030
402.5755, 1208.806
403.0576, 1164.128
403.5398, 1127.714
404.0219, 1102.080
404.5040, 1080.768
404.9861, 1060.326
405.4682, 1041.284
405.9503, 1026.247
406.4325, 1017.107
406.9146, 1012.570
407.3967, 1008.429
407.8788, 1005.161
408.3609, 1001.297
408.8430, 995.8359
409.3252, 990.1658
409.8073, 986.3387
410.2894, 984.3536
410.7715, 980.4048
411.2536, 967.7902
411.7357, 949.3267
412.2179, 941.1027
412.7000, 947.4019
413.1821, 956.1923
413.6642, 959.3469
414.1463, 959.0647
414.6284, 959.3642
415.1106, 961.2366
415.5927, 963.5916
416.0748, 966.0279
416.5569, 968.3474
417.0390, 969.6340
417.5211, 969.3237
418.0033, 968.8714
418.4854, 971.1834
418.9675, 978.6721
419.4496, 980.0574
419.9317, 968.0319
420.4138, 955.4536
420.8960, 951.4504
421.3781, 954.8137
421.8602, 959.5509
422.3423, 961.9963
422.8244, 962.3811
423.3065, 961.3181
423.7887, 953.7390
424.2708, 953.0221
424.7529, 968.9780
425.2350, 986.0522
425.7171, 989.0883
426.1992, 977.3488
426.6814, 964.6672
427.1635, 965.2770
427.6456, 977.9355
428.1277, 987.5886
428.6098, 993.0684
429.0919, 997.7302
429.5741, 1004.137
430.0562, 1010.686
430.5383, 1014.484
431.0204, 1013.598
431.5025, 1012.560
431.9846, 1015.925
432.4668, 1022.395
432.9489, 1027.640
433.4310, 1030.833
433.9131, 1031.496
434.3952, 1027.979
434.8773, 1019.651
435.3595, 1014.343
435.8416, 1013.925
436.3237, 1015.349
436.8058, 1015.312
437.2879, 1015.534
437.7701, 1021.824
438.2522, 1037.682
438.7343, 1057.913
439.2164, 1068.850
439.6985, 1063.038
440.1806, 1060.997
440.6628, 1061.060
441.1449, 1066.177
441.6270, 1080.658
442.1091, 1102.559
442.5912, 1124.741
443.0733, 1141.144
443.5555, 1153.815
444.0376, 1170.582
444.5197, 1191.906
445.0018, 1216.122
445.4839, 1247.283
445.9660, 1278.829
446.4482, 1301.967
446.9303, 1313.907
447.4124, 1330.437
447.8945, 1362.481
448.3766, 1405.768
448.8587, 1450.514
449.3409, 1495.334
449.8230, 1545.862
450.3051, 1607.695
450.7872, 1680.229
451.2693, 1753.143
451.7514, 1824.528
452.2336, 1898.365
452.7157, 1982.451
453.1978, 2067.256
453.6799, 2138.089
454.1620, 2191.094
454.6441, 2234.382
455.1263, 2278.026
455.6084, 2322.409
456.0905, 2364.667
456.5726, 2395.841
457.0547, 2433.917
457.5368, 2481.394
458.0190, 2540.223
458.5011, 2613.422
458.9832, 2703.036
459.4653, 2804.387
459.9474, 2908.883
460.4295, 3015.878
460.9117, 3144.480
461.3938, 3306.916
461.8759, 3480.781
462.3580, 3650.192
462.8401, 3815.029
463.3222, 3975.282
463.8044, 4146.698
464.2865, 4302.119
464.7686, 4420.068
465.2507, 4501.006
465.7328, 4548.702
466.2149, 4564.466
466.6971, 4549.010
467.1792, 4504.199
467.6613, 4430.467
468.1434, 4319.966
468.6255, 4161.943
469.1076, 3977.302
469.5898, 3770.697
470.0719, 3549.017
470.5540, 3324.510
471.0361, 3101.360
471.5182, 2886.666
472.0003, 2698.000
472.4825, 2543.345
472.9646, 2396.367
473.4467, 2246.938
473.9288, 2108.160
474.4109, 1991.164
474.8930, 1895.552
475.3752, 1809.302
475.8573, 1725.572
476.3394, 1646.949
476.8215, 1577.518
477.3036, 1517.546
477.7857, 1464.871
478.2679, 1419.014
478.7500, 1379.440
479.2321, 1345.183
479.7142, 1318.038
480.1963, 1291.260
480.6784, 1259.646
481.1606, 1230.499
481.6427, 1212.211
482.1248, 1203.902
482.6069, 1197.574
483.0890, 1187.168
483.5711, 1173.706
484.0533, 1162.486
484.5354, 1152.900
485.0175, 1146.850
485.4996, 1146.727
485.9817, 1148.254
486.4638, 1148.201
486.9460, 1146.183
487.4281, 1143.613
487.9102, 1141.500
488.3923, 1139.688
488.8744, 1137.963
489.3565, 1136.528
489.8387, 1133.904
490.3208, 1128.531
490.8029, 1121.907
491.2850, 1118.024
491.7671, 1119.576
492.2492, 1116.130
492.7314, 1098.202
493.2135, 1076.812
493.6956, 1065.492
494.1777, 1064.785
494.6598, 1065.918
495.1419, 1062.461
495.6241, 1054.962
496.1062, 1046.887
496.5883, 1039.709
497.0704, 1029.731
497.5525, 1009.722
498.0346, 991.5476
498.5168, 987.9852
498.9989, 998.5073
499.4810, 1009.156
499.9631, 1007.145
500.4452, 996.1077
500.9273, 990.1867
501.4095, 990.5640
501.8916, 990.9313
502.3737, 987.1152
502.8558, 982.6395
503.3379, 982.9818
503.8200, 988.9827
504.3022, 996.6573
504.7843, 1006.925
505.2664, 1016.699
505.7485, 1020.163
506.2306, 1018.228
506.7127, 1019.277
507.1949, 1029.254
507.6770, 1046.242
508.1591, 1061.739
508.6412, 1074.207
509.1233, 1087.510
509.6054, 1100.995
510.0876, 1115.986
510.5697, 1133.713
511.0518, 1153.952
511.5339, 1175.070
512.0161, 1194.729
512.4982, 1215.123
512.9803, 1242.786
513.4624, 1278.101
513.9445, 1317.525
514.4266, 1360.744
514.9088, 1406.892
515.3909, 1452.187
515.8730, 1495.633
516.3551, 1550.660
516.8372, 1625.971
517.3193, 1711.247
517.8015, 1798.441
518.2836, 1887.242
518.7657, 1981.779
519.2478, 2084.147
519.7299, 2192.140
520.2120, 2301.625
520.6942, 2423.839
521.1763, 2525.939
521.6584, 2623.287
522.1405, 2689.088
522.6226, 2704.635
523.1047, 2676.679
523.5869, 2621.345
524.0690, 2541.919
524.5511, 2450.732
525.0332, 2361.550
525.5153, 2274.500
525.9974, 2209.927
526.4796, 2175.585
526.9617, 2160.455
527.4438, 2161.500
527.9259, 2176.114
528.4080, 2179.473
528.8901, 2172.960
529.3723, 2149.435
529.8544, 2096.930
530.3365, 2025.783
530.8186, 1956.892
531.3007, 1896.954
531.7828, 1836.294
532.2650, 1758.915
532.7471, 1658.887
533.2292, 1577.366
533.7113, 1521.862
534.1934, 1477.145
534.6755, 1440.880
535.1577, 1411.598
535.6398, 1386.851
536.1219, 1365.583
536.6040, 1351.367
537.0861, 1348.448
537.5682, 1355.273
538.0504, 1366.917
538.5325, 1382.625
539.0146, 1404.259
539.4967, 1434.232
539.9788, 1471.147
540.4609, 1506.997
540.9431, 1532.723
541.4252, 1570.199
541.9073, 1625.793
542.3894, 1693.724
542.8715, 1772.011
543.3536, 1858.319
543.8358, 1947.673
544.3179, 2038.731
544.8000, 2127.302
545.2821, 2197.288
545.7642, 2253.492
546.2463, 2277.938
546.7285, 2263.595
547.2106, 2215.251
547.6927, 2127.259
548.1748, 2003.058
548.6569, 1873.099
549.1390, 1743.904
549.6211, 1621.182
550.1032, 1509.412
550.5853, 1409.540
551.0674, 1327.610
551.5496, 1265.779
552.0317, 1220.133
552.5138, 1184.585
552.9959, 1160.623
553.4780, 1141.904
553.9601, 1128.244
554.4423, 1119.099
554.9244, 1117.252
555.4065, 1118.838
555.8886, 1117.631
556.3707, 1111.250
556.8528, 1104.251
557.3350, 1101.310
557.8171, 1102.407
558.2992, 1107.463
558.7813, 1116.616
559.2634, 1129.546
559.7455, 1149.119
560.2277, 1171.956
560.7098, 1186.556
561.1919, 1182.816
561.6740, 1188.461
562.1561, 1218.811
562.6382, 1258.759
563.1204, 1290.063
563.6025, 1313.135
564.0846, 1343.382
564.5667, 1393.590
565.0488, 1457.842
565.5309, 1515.312
566.0131, 1570.143
566.4952, 1607.626
566.9773, 1615.137
567.4594, 1612.075
567.9415, 1611.917
568.4236, 1612.480
568.9058, 1601.276
569.3879, 1570.802
569.8700, 1528.181
570.3521, 1476.700
570.8342, 1418.568
571.3163, 1359.865
571.7985, 1301.988
572.2806, 1248.508
572.7627, 1204.211
573.2448, 1169.538
573.7269, 1138.719
574.2090, 1107.039
574.6912, 1084.206
575.1733, 1076.494
575.6554, 1076.897
576.1375, 1079.197
576.6196, 1081.434
577.1017, 1081.847
577.5839, 1078.019
578.0660, 1071.102
578.5481, 1063.499
579.0302, 1054.526
579.5123, 1051.417
579.9944, 1058.175
580.4766, 1072.146
580.9587, 1088.751
581.4408, 1107.855
581.9229, 1129.328
582.4050, 1157.789
582.8871, 1184.240
583.3693, 1198.989
583.8514, 1207.322
584.3335, 1220.953
584.8156, 1245.137
585.2977, 1277.242
585.7798, 1314.828
586.2620, 1358.433
586.7441, 1399.569
587.2262, 1434.340
587.7083, 1473.072
588.1904, 1525.301
588.6725, 1584.476
589.1547, 1641.407
589.6368, 1698.181
590.1189, 1744.513
590.6010, 1776.508
591.0831, 1794.799
591.5652, 1799.058
592.0474, 1790.000
592.5295, 1769.207
593.0116, 1736.769
593.4937, 1696.109
593.9758, 1655.848
594.4579, 1610.704
594.9401, 1579.004
595.4222, 1566.647
595.9043, 1564.771
596.3864, 1571.800
596.8685, 1586.024
597.3506, 1605.431
597.8328, 1634.265
598.3149, 1658.114
598.7970, 1665.378
599.2791, 1657.413
599.7612, 1636.521
600.2433, 1603.032
600.7255, 1561.393
601.2076, 1515.146
601.6897, 1464.087
602.1718, 1406.371
602.6539, 1329.349
603.1360, 1263.196
603.6182, 1214.063
604.1003, 1173.346
604.5824, 1134.949
605.0645, 1098.733
605.5466, 1067.814
606.0287, 1043.981
606.5109, 1026.103
606.9930, 1014.348
607.4751, 1007.802
607.9572, 999.1659
608.4393, 986.2619
608.9214, 972.0552
609.4036, 959.1600
609.8857, 947.5753
610.3678, 937.5428
610.8499, 927.8716
611.3320, 921.1136
611.8141, 920.7363
612.2963, 921.7402
612.7784, 918.9559
613.2605, 912.0480
613.7426, 904.0887
614.2247, 896.1749
614.7068, 889.8624
615.1890, 890.6082
615.6711, 898.8421
616.1532, 904.4062
616.6353, 904.1085
617.1174, 900.5607
617.5995, 895.8518
618.0817, 889.9421
618.5638, 885.4733
619.0459, 880.8010
619.5280, 879.5975
620.0101, 888.9439
620.4922, 899.7530
620.9744, 898.1238
621.4565, 883.1829
621.9386, 868.8799
622.4207, 868.9947
622.9028, 879.2469
623.3849, 881.6675
623.8671, 874.2537
624.3492, 871.2224
624.8313, 880.0276
625.3134, 891.4064
625.7955, 893.6924
626.2776, 887.4870
626.7598, 881.3831
627.2419, 877.4852
627.7240, 872.9509
628.2061, 862.7662
628.6882, 852.5287
629.1703, 852.3311
629.6525, 863.3564
630.1346, 875.7010
630.6167, 879.1772
631.0988, 875.7066
631.5809, 876.7792
632.0630, 884.1350
632.5452, 889.2556
633.0273, 889.2903
633.5094, 886.2260
633.9915, 881.3365
634.4736, 874.7877
634.9557, 870.1359
635.4379, 867.9414
635.9200, 868.0132
636.4021, 872.1331
636.8842, 877.7586
637.3663, 881.6185
637.8484, 882.6641
638.3306, 880.3396
638.8127, 872.8491
639.2948, 861.7194
639.7769, 856.8570
640.2590, 859.6012
640.7411, 863.8615
641.2233, 868.3135
641.7054, 873.2286
642.1875, 880.5262
642.6696, 889.6987
643.1517, 893.5423
643.6339, 887.0732
644.1160, 878.6552
644.5981, 871.0673
645.0802, 865.2094
645.5623, 862.8279
646.0444, 863.9741
646.5266, 866.3574
647.0087, 867.8067
647.4908, 868.7302
647.9729, 872.0220
648.4550, 879.3928
648.9371, 881.6274
649.4193, 871.5476
649.9014, 860.7833
650.3835, 863.7219
650.8656, 877.7083
651.3477, 883.4982
651.8298, 868.1677
652.3120, 855.0289
652.7941, 857.5723
653.2762, 867.5500
653.7583, 875.2401
654.2404, 878.3328
654.7225, 877.5741
655.2047, 873.0176
655.6868, 865.8157
656.1689, 859.2573
656.6510, 852.9505
657.1331, 849.8854
657.6152, 851.6509
658.0974, 855.4569
658.5795, 860.1622
659.0616, 865.1407
659.5437, 867.2106
660.0258, 860.5031
660.5079, 857.8025
660.9901, 868.4276
661.4722, 882.0262
661.9543, 887.7404
662.4364, 885.0775
662.9185, 879.1957
663.4006, 872.9077
663.8828, 867.2271
664.3649, 864.6321
664.8470, 865.2089
665.3291, 866.0735
665.8112, 866.8129
666.2933, 867.7719
666.7755, 869.7397
667.2576, 872.1381
667.7397, 872.5583
668.2218, 869.7403
668.7039, 867.0214
669.1860, 863.6683
669.6682, 861.7748
670.1503, 863.7475
670.6324, 868.6198
671.1145, 873.8244
671.5966, 878.2803
672.0787, 881.3030
672.5609, 881.7009
673.0430, 879.6993
673.5251, 875.9988
674.0072, 869.8619
674.4893, 867.1232
674.9714, 872.7959
675.4536, 883.0165
675.9357, 887.6298
676.4178, 884.1711
676.8999, 880.4225
677.3820, 876.4116
677.8641, 872.3079
678.3463, 866.2719
678.8284, 860.8675
679.3105, 860.7262
679.7926, 867.3121
680.2747, 875.9940
680.7568, 884.2800
681.2390, 890.9388
681.7211, 891.3924
682.2032, 885.8969
682.6853, 882.4866
683.1674, 885.0353
683.6495, 889.9785
684.1317, 891.8758
684.6138, 890.3058
685.0959, 887.8682
685.5780, 882.9910
686.0601, 879.1028
686.5422, 876.5894
687.0244, 875.7340
687.5065, 877.3898
687.9886, 881.3940
688.4707, 885.3383
688.9528, 888.5248
689.4349, 890.4502
689.9171, 890.5399
690.3992, 888.8900
690.8813, 884.9965
691.3634, 878.8252
691.8455, 873.1971
692.3276, 870.5753
692.8098, 871.1406
693.2919, 877.6041
693.7740, 895.2592
694.2561, 907.0512
694.7382, 906.3199
695.2203, 901.8372
695.7025, 899.2892
696.1846, 898.0942
696.6667, 895.2781
697.1488, 886.2214
697.6309, 881.2311
698.1130, 890.5157
698.5952, 904.3054
699.0773, 910.1474
699.5594, 907.6805
700.0415, 903.0749
700.5236, 899.8076
701.0057, 898.3345
701.4879, 900.6550
701.9700, 907.1066
702.4521, 910.5604
702.9342, 910.7062
703.4163, 906.7043
703.8984, 894.6736
704.3806, 879.4872
704.8627, 872.9294
705.3448, 877.2119
705.8269, 882.9999
706.3090, 893.8564
706.7911, 901.0827
707.2733, 895.5511
707.7554, 884.1166
708.2375, 878.9190
708.7196, 883.4451
709.2017, 890.1856
709.6838, 891.6902
710.1660, 890.0825
710.6481, 891.2429
711.1302, 895.0216
711.6123, 897.2797
712.0944, 896.3240
712.5765, 894.3823
713.0587, 894.6921
713.5408, 897.5661
714.0229, 895.8558
714.5050, 881.6923
714.9871, 873.8316
715.4692, 881.4704
715.9514, 891.4615
716.4335, 891.3788
716.9156, 883.0951
717.3977, 879.0431
717.8798, 886.2651
718.3619, 896.4467
718.8441, 903.4412
719.3262, 908.7163
719.8083, 915.7354
720.2904, 924.2590
720.7725, 930.0573
721.2546, 930.2410
721.7368, 925.9319
722.2189, 918.3906
722.7010, 906.3021
723.1831, 900.6799
723.6652, 905.3649
724.1473, 910.6243
724.6295, 910.6792
725.1116, 907.7935
725.5937, 907.1235
726.0758, 910.1531
726.5579, 910.2139
727.0400, 902.9956
727.5222, 895.6328
728.0043, 892.3282
728.4864, 891.7647
728.9685, 892.0617
729.4506, 892.4573
729.9327, 891.7056
730.4149, 886.5175
730.8970, 880.2642
731.3791, 882.7558
731.8612, 892.7538
732.3433, 897.8014
732.8254, 893.7658
733.3076, 886.9238
733.7897, 882.5988
734.2718, 881.1650
734.7539, 888.2249
735.2360, 916.1001
735.7181, 931.7386
736.2003, 921.7202
736.6824, 907.9434
737.1645, 903.9534
737.6466, 907.1509
738.1287, 908.2197
738.6108, 902.4054
739.0930, 899.7183
739.5751, 909.6273
740.0572, 923.1083
740.5393, 930.0807
741.0214, 930.6762
741.5035, 928.3374
741.9857, 924.6505
742.4678, 921.3290
742.9499, 921.4800
743.4320, 924.7485
743.9141, 925.5352
744.3962, 922.9924
744.8784, 922.8698
745.3605, 929.4903
745.8426, 936.3400
746.3247, 933.2050
746.8068, 918.2652
747.2889, 910.5798
747.7711, 917.1888
748.2532, 921.4293
748.7353, 916.8472
749.2174, 910.1474
749.6995, 908.2576
750.1816, 910.3469
750.6638, 910.1868
751.1459, 904.2434
751.6280, 896.1809
752.1101, 887.5736
752.5922, 879.8762
753.0743, 876.5238
753.5565, 877.4241
754.0386, 879.8039
754.5207, 882.2859
755.0028, 883.5552
755.4849, 879.4491
755.9670, 868.6584
756.4492, 865.5945
756.9313, 873.1066
757.4134, 881.8944
757.8955, 888.7380
758.3776, 894.1163
758.8597, 899.4066
759.3419, 905.0419
759.8240, 906.5511
760.3061, 899.2416
760.7882, 892.9269
761.2703, 891.5956
761.7524, 892.9062
762.2346, 893.5820
762.7167, 893.9377
763.1988, 898.1552
763.6809, 911.8555
764.1630, 924.6119
764.6451, 920.7322
765.1273, 907.1828
765.6094, 901.3146
766.0915, 905.2244
766.5736, 912.6174
767.0557, 919.9115
767.5378, 926.9589
768.0200, 934.1010
768.5021, 942.1449
768.9842, 944.3345
769.4663, 936.2877
769.9484, 931.6062
770.4305, 938.1367
770.9127, 949.9539
771.3948, 958.7648
771.8769, 964.3901
772.3590, 969.4937
772.8411, 976.6556
773.3232, 980.5359
773.8054, 976.3671
774.2875, 969.6741
774.7696, 966.9745
775.2517, 967.9815
775.7338, 967.0428
776.2159, 959.7584
776.6981, 952.0496
777.1802, 952.4576
777.6623, 957.0505
778.1444, 956.6114
778.6265, 950.3881
779.1086, 941.9886
779.5908, 933.2024
780.0729, 925.2399
780.5550, 920.3245
781.0371, 918.5576
781.5192, 919.9918
782.0013, 927.7745
782.4835, 929.8309
782.9656, 916.2722
783.4477, 899.8068
783.9298, 898.6329
784.4119, 913.1603
784.8940, 922.3395
785.3762, 923.5841
785.8583, 921.5762
786.3404, 912.5789
786.8225, 904.7783
787.3046, 908.7891
787.7867, 920.5233
788.2689, 924.1366
788.7510, 910.0051
789.2331, 895.9710
789.7152, 899.9144
790.1973, 912.2174
790.6794, 917.8016
791.1616, 916.6992
791.6437, 915.9534
792.1258, 918.6026
792.6079, 920.0352
793.0900, 912.3472
793.5721, 897.0524
794.0543, 890.4415
794.5364, 894.1545
795.0185, 895.6713
795.5006, 890.0701
795.9827, 884.1194
796.4648, 885.2716
796.9470, 892.5791
797.4291, 895.7964
797.9112, 889.1093
798.3933, 886.6742
798.8754, 892.0872
799.3575, 898.9478
799.8397, 905.7056
800.3218, 910.6497
800.8039, 910.8658
801.2860, 905.2934
801.7681, 897.8011
802.2502, 886.2499
802.7324, 877.2279
803.2145, 878.4009
803.6966, 886.0712
804.1787, 894.2591
804.6608, 900.7297
805.1429, 903.5206
805.6251, 900.2283
806.1072, 893.1876
806.5893, 885.9026
807.0714, 878.9180
807.5535, 877.8103
808.0356, 883.9194
808.5178, 889.0359
808.9999, 887.0937
809.4820, 881.8206
809.9641, 883.4329
810.4462, 895.5958
810.9283, 901.1319
811.4105, 897.6855
811.8926, 891.3757
812.3747, 879.5477
812.8568, 869.3648
813.3389, 871.0842
813.8210, 884.6717
814.3032, 894.6110
814.7853, 896.5800
815.2674, 897.1795
815.7495, 900.4722
816.2316, 901.9566
816.7137, 895.8345
817.1959, 884.1370
817.6780, 873.2998
818.1601, 865.4713
818.6422, 861.6954
819.1243, 864.2208
819.6064, 870.5414
820.0886, 878.7026
820.5707, 887.1661
821.0528, 892.2241
821.5349, 892.4968
822.0170, 886.8629
822.4991, 870.5170
822.9813, 849.1271
823.4634, 850.7424
823.9455, 876.8695
824.4276, 894.7285
824.9097, 896.8116
825.3918, 892.2667
825.8740, 886.4637
826.3561, 880.4306
826.8382, 877.8467
827.3203, 880.4575
827.8024, 882.5174
828.2845, 884.7632
828.7667, 885.5135
829.2488, 884.2161
829.7309, 881.1145
830.2130, 874.9685
830.6951, 865.8375
831.1772, 861.4061
831.6594, 866.5168
832.1415, 873.0070
832.6236, 880.2181
833.1057, 885.0001
833.5878, 883.1179
834.0699, 875.9083
834.5521, 867.7000
835.0342, 859.7378
835.5163, 855.0905
835.9984, 858.3912
836.4805, 865.8804
836.9626, 873.8975
837.4448, 880.5268
837.9269, 878.3976
838.4090, 865.6609
838.8911, 853.7841
839.3732, 855.8547
839.8553, 867.6370
840.3375, 873.6962
840.8196, 873.9460
841.3017, 872.4142
841.7838, 869.2620
842.2659, 867.3253
842.7480, 869.2642
843.2302, 872.7553
843.7123, 871.4852
844.1944, 862.8668
844.6765, 857.9760
845.1586, 855.3693
845.6407, 858.6474
846.1229, 878.3003
846.6050, 897.9883
847.0871, 898.9678
847.5692, 882.7395
848.0513, 870.9969
848.5334, 865.9697
849.0156, 866.6782
849.4977, 879.9954
849.9798, 892.5790
850.4619, 892.8192
850.9440, 884.4088
851.4261, 876.2116
851.9083, 870.7707
852.3904, 867.7972
852.8725, 867.5054
853.3546, 869.1915
853.8367, 873.9092
854.3188, 879.4746
854.8010, 880.3826
855.2831, 876.5092
855.7652, 874.8945
856.2473, 881.8800
856.7294, 890.5524
857.2115, 885.9991
857.6937, 872.0646
858.1758, 866.6865
858.6579, 871.3537
859.1400, 877.6005
859.6221, 881.8782
860.1042, 883.1516
860.5864, 878.8595
861.0685, 869.4189
861.5506, 866.5468
862.0327, 872.3107
862.5148, 876.3308
862.9969, 875.1861
863.4791, 874.2094
863.9612, 878.6169
864.4433, 886.2568
864.9254, 889.1429
865.4075, 884.2376
865.8896, 880.9202
866.3718, 881.7085
866.8539, 880.9921
867.3360, 874.0665
867.8181, 866.3625
868.3002, 864.8436
868.7823, 869.4632
869.2645, 872.9410
869.7466, 871.0258
870.2287, 870.7499
870.7108, 878.5406
871.1929, 885.9912
871.6750, 881.9832
872.1572, 872.0713
872.6393, 871.7335
873.1214, 886.5872
873.6035, 899.6100
874.0856, 896.9519
874.5677, 887.3724
875.0499, 878.1201
875.5320, 870.4144
876.0141, 866.0885
876.4962, 865.3998
876.9783, 867.7881
877.4604, 873.3572
877.9426, 879.7990
878.4247, 883.9037
878.9068, 885.6706
879.3889, 883.3286
879.8710, 877.4840
880.3531, 877.0493
880.8353, 885.9904
881.3174, 895.6224
881.7995, 894.8846
882.2816, 885.9490
882.7637, 883.7368
883.2458, 889.8193
883.7280, 890.1885
884.2101, 880.8098
884.6922, 871.2233
885.1743, 867.2436
885.6564, 867.5342
886.1385, 869.5188
886.6207, 873.8722
887.1028, 876.5231
887.5849, 872.5654
888.0670, 875.0070
888.5491, 896.1976
889.0313, 917.2247
889.5134, 919.4683
889.9955, 907.0662
890.4776, 899.1317
890.9597, 899.3693
891.4418, 899.7114
891.9240, 898.5509
892.4061, 897.7963
892.8882, 901.4872
893.3703, 904.5667
893.8524, 897.6185
894.3345, 880.6378
894.8167, 869.1800
895.2988, 874.4295
895.7809, 880.7528
896.2630, 877.5250
896.7451, 872.9374
897.2272, 877.6203
897.7094, 888.2242
898.1915, 894.2736
898.6736, 892.0161
899.1557, 886.6465
899.6378, 881.1247
900.1199, 875.7193
900.6021, 869.1687
901.0842, 863.4761
901.5663, 863.9071
902.0484, 870.3466
902.5305, 877.1974
903.0126, 881.0684
903.4948, 882.9526
903.9769, 883.4954
904.4590, 883.3299
904.9411, 884.6790
905.4232, 887.4091
905.9053, 889.8274
906.3875, 891.3767
906.8696, 892.3427
907.3517, 893.0402
907.8338, 893.2870
908.3159, 892.4329
908.7980, 890.4771
909.2802, 887.7651
909.7623, 884.0955
910.2444, 881.7087
910.7265, 882.0691
911.2086, 882.9033
911.6907, 879.9037
912.1729, 873.2488
912.6550, 876.9035
913.1371, 895.8881
913.6192, 908.8651
914.1013, 909.4266
914.5834, 908.8814
915.0656, 917.1011
915.5477, 927.7663
916.0298, 924.7797
916.5119, 901.2897
916.9940, 890.0203
917.4761, 901.6466
917.9583, 910.3921
918.4404, 906.6288
918.9225, 900.9640
919.4046, 902.9813
919.8867, 910.2144
920.3688, 912.8400
920.8510, 906.7427
921.3331, 903.5969
921.8152, 908.4660
922.2973, 912.7004
922.7794, 911.0322
923.2615, 907.4009
923.7437, 906.2327
924.2258, 907.8420
924.7079, 910.7172
925.1900, 916.6268
925.6721, 920.0671
926.1542, 915.9823
926.6364, 911.1804
927.1185, 911.9156
927.6006, 915.5511
928.0827, 915.7938
928.5648, 911.8409
929.0469, 911.3826
929.5291, 924.1078
930.0112, 935.6241
930.4933, 933.6778
930.9754, 925.3604
931.4575, 916.8900
931.9396, 910.5186
932.4218, 909.3149
932.9039, 914.3050
933.3860, 921.7450
933.8681, 932.4106
934.3502, 940.4842
934.8323, 934.7593
935.3145, 921.8922
935.7966, 915.2587
936.2787, 916.3059
936.7608, 920.4622
937.2429, 925.4807
937.7250, 930.0143
938.2072, 930.3125
938.6893, 929.7738
939.1714, 940.2999
939.6535, 957.4741
940.1356, 962.1066
940.6177, 950.8160
941.0999, 935.6192
941.5820, 924.2795
942.0641, 917.6571
942.5462, 918.4140
943.0283, 925.4405
943.5104, 934.3676
943.9926, 944.5875
944.4747, 950.8160
944.9568, 951.3635
945.4389, 950.1121
945.9210, 951.0089
946.4031, 951.6050
946.8853, 940.9556
947.3674, 919.2043
947.8495, 918.9560
948.3316, 944.5661
948.8137, 964.3288
949.2958, 965.3437
949.7780, 959.5357
950.2601, 960.4325
950.7422, 965.8505
951.2243, 961.7485
951.7064, 944.6369
952.1885, 942.8426
952.6707, 963.8759
953.1528, 981.8651
953.6349, 984.2645
954.1170, 978.5891
954.5991, 973.7880
955.0812, 970.1012
955.5634, 973.2440
956.0455, 987.3639
956.5276, 995.0142
957.0097, 991.1144
957.4918, 986.6227
957.9739, 986.4136
958.4561, 990.2889
958.9382, 998.9996
959.4203, 1013.276
959.9024, 1022.290
960.3845, 1024.532
960.8666, 1024.186
961.3488, 1017.438
961.8309, 1014.507
962.3130, 1026.582
962.7951, 1044.101
963.2772, 1046.356
963.7593, 1028.380
964.2415, 1021.776
964.7236, 1034.379
965.2057, 1046.971
965.6878, 1053.869
966.1699, 1062.266
966.6520, 1086.081
967.1342, 1112.766
967.6163, 1108.930
968.0984, 1060.563
968.5805, 1035.296
969.0626, 1052.742
969.5447, 1071.590
970.0269, 1083.546
970.5090, 1091.362
970.9911, 1097.593
971.4732, 1101.465
971.9553, 1099.002
972.4374, 1085.214
972.9196, 1081.752
973.4017, 1099.886
973.8838, 1118.162
974.3659, 1129.400
974.8480, 1137.285
975.3301, 1143.304
975.8123, 1148.992
976.2944, 1157.995
976.7765, 1171.370
977.2586, 1186.399
977.7407, 1207.807
978.2228, 1224.199
978.7050, 1226.652
979.1871, 1224.676
979.6692, 1224.884
980.1513, 1229.210
980.6334, 1242.202
981.1155, 1269.370
981.5977, 1290.844
982.0798, 1291.607
982.5619, 1295.903
983.0440, 1322.887
983.5261, 1355.147
984.0082, 1369.963
984.4904, 1371.384
984.9725, 1383.037
985.4546, 1416.258
985.9367, 1444.684
986.4188, 1448.485
986.9009, 1456.643
987.3831, 1488.533
987.8652, 1532.585
988.3473, 1579.286
988.8294, 1624.416
989.3115, 1658.052
989.7936, 1670.851
990.2758, 1690.774
990.7579, 1732.055
991.2400, 1780.979
991.7221, 1828.013
992.2042, 1877.953
992.6863, 1941.183
993.1685, 2014.713
993.6506, 2081.865
994.1327, 2132.125
994.6148, 2189.390
995.0969, 2259.990
995.5790, 2345.878
996.0612, 2447.405
996.5433, 2565.143
997.0254, 2704.619
997.5075, 2862.304
997.9896, 3021.089
998.4717, 3171.159
998.9539, 3333.820
999.4360, 3517.056
999.9181, 3719.680
1000.400, 3940.420
1000.882, 4178.496
1001.364, 4430.896
1001.847, 4699.602
1002.329, 4988.956
1002.811, 5300.166
1003.293, 5634.750
1003.775, 5991.854
1004.257, 6376.587
1004.739, 6791.055
1005.221, 7232.869
1005.703, 7706.349
1006.186, 8201.070
1006.668, 8693.881
1007.150, 9180.389
1007.632, 9641.712
1008.114, 10088.77
1008.596, 10485.57
1009.078, 10809.88
1009.560, 11069.12
1010.043, 11309.47
1010.525, 11497.76
1011.007, 11509.22
1011.489, 11287.27
1011.971, 10954.22
1012.453, 10528.53
1012.935, 10044.83
1013.417, 9509.207
1013.899, 8940.322
1014.382, 8342.605
1014.864, 7734.357
1015.346, 7149.495
1015.828, 6593.058
1016.310, 6090.787
1016.792, 5659.352
1017.274, 5276.529
1017.756, 4940.452
1018.239, 4638.619
1018.721, 4355.462
1019.203, 4096.916
1019.685, 3884.299
1020.167, 3727.809
1020.649, 3590.348
1021.131, 3465.021
1021.613, 3348.600
1022.095, 3228.623
1022.578, 3125.348
1023.060, 3068.195
1023.542, 3041.103
1024.024, 2999.589
1024.506, 2931.633
1024.988, 2876.448
1025.470, 2860.518
1025.952, 2837.958
1026.435, 2786.870
1026.917, 2727.331
1027.399, 2669.864
1027.881, 2618.662
1028.363, 2582.296
1028.845, 2564.520
1029.327, 2539.061
1029.809, 2491.293
1030.292, 2449.036
1030.774, 2418.801
1031.256, 2397.174
1031.738, 2383.826
1032.220, 2376.482
1032.702, 2371.392
1033.184, 2368.157
1033.666, 2369.057
1034.148, 2378.085
1034.630, 2385.750
1035.113, 2376.072
1035.595, 2380.386
1036.077, 2425.950
1036.559, 2490.926
1037.041, 2544.270
1037.523, 2585.449
1038.005, 2621.642
1038.487, 2656.697
1038.970, 2680.328
1039.452, 2673.128
1039.934, 2679.241
1040.416, 2724.827
1040.898, 2787.584
1041.380, 2842.684
1041.862, 2890.504
1042.344, 2936.303
1042.826, 2979.258
1043.309, 3021.461
1043.791, 3064.323
1044.273, 3104.098
1044.755, 3140.982
1045.237, 3172.482
1045.719, 3195.544
1046.201, 3211.458
1046.683, 3228.556
1047.166, 3256.089
1047.648, 3252.078
1048.130, 3209.472
1048.612, 3154.779
1049.094, 3094.651
1049.576, 3027.462
1050.058, 2950.199
1050.540, 2867.641
1051.022, 2793.956
1051.505, 2730.985
1051.987, 2659.278
1052.469, 2578.366
1052.951, 2492.998
1053.433, 2402.929
1053.915, 2315.525
1054.397, 2234.777
1054.879, 2159.323
1055.361, 2081.945
1055.844, 2005.333
1056.326, 1967.700
1056.808, 1968.559
1057.290, 1946.571
1057.772, 1890.967
1058.254, 1838.973
1058.736, 1809.771
1059.218, 1797.372
1059.701, 1794.720
1060.183, 1802.146
1060.665, 1819.791
1061.147, 1848.394
1061.629, 1895.289
1062.111, 1959.088
1062.593, 2023.539
1063.075, 2082.183
1063.557, 2137.237
1064.040, 2192.870
1064.522, 2240.584
1065.004, 2267.563
1065.486, 2272.978
1065.968, 2254.567
1066.450, 2212.353
1066.932, 2144.320
1067.414, 2051.793
1067.896, 1943.463
1068.379, 1820.294
1068.861, 1703.828
1069.343, 1620.850
1069.825, 1557.910
1070.307, 1498.428
1070.789, 1442.866
1071.271, 1394.733
1071.753, 1353.883
1072.236, 1315.957
1072.718, 1278.324
1073.200, 1246.944
1073.682, 1228.991
1074.164, 1215.713
1074.646, 1201.874
1075.128, 1186.761
1075.610, 1168.670
1076.093, 1149.052
1076.575, 1131.312
1077.057, 1116.294
1077.539, 1103.563
1078.021, 1102.644
1078.503, 1091.192
1078.985, 1044.973
1079.467, 998.3176
1079.949, 980.8511
1080.432, 979.7603
1080.914, 971.1962
1081.396, 952.9576
1081.878, 939.0876
1082.360, 934.7172
1082.842, 930.7581
1083.324, 927.0602
1083.806, 922.0837
1084.288, 913.9734
1084.771, 905.1243
1085.253, 899.3170
1085.735, 895.3209
1086.217, 886.2521
1086.699, 866.2086
1087.181, 857.4266
1087.663, 866.3604
1088.145, 873.6119
1088.628, 874.1785
1089.110, 871.7009
1089.592, 868.1008
1090.074, 864.0945
1090.556, 861.0321
1091.038, 858.8687
1091.520, 859.6458
1092.002, 864.2906
1092.484, 865.6959
1092.967, 862.4495
1093.449, 857.3921
1093.931, 851.6074
1094.413, 846.3802
1094.895, 843.2469
1095.377, 842.0757
1095.859, 842.5035
1096.341, 844.4982
1096.823, 849.0885
1097.306, 855.6777
1097.788, 858.8071
1098.270, 856.6575
1098.752, 849.5507
1099.234, 837.1298
1099.716, 822.5299
1100.198, 807.1246
1100.680, 794.8850
1101.163, 796.8371
1101.645, 808.1469
1102.127, 816.7689
1102.609, 820.7146
1103.091, 823.7737
1103.573, 827.7718
1104.055, 829.3505
1104.537, 824.7070
1105.020, 817.4809
1105.502, 806.9527
1105.984, 798.8919
1106.466, 804.2744
1106.948, 816.5911
1107.430, 820.0439
1107.912, 811.6555
1108.394, 803.2000
1108.876, 799.0635
1109.359, 796.3188
1109.841, 794.8899
1110.323, 793.4183
1110.805, 788.5805
1111.287, 784.9781
1111.769, 791.1576
1112.251, 804.4293
1112.733, 809.0697
1113.215, 798.3550
1113.698, 792.3018
1114.180, 794.0629
1114.662, 796.5862
1115.144, 800.4351
1115.626, 801.3692
1116.108, 794.4522
1116.590, 784.9096
1117.072, 782.8775
1117.555, 788.4012
1118.037, 792.3757
1118.519, 794.8418
1119.001, 795.5070
1119.483, 794.3129
1119.965, 790.4517
1120.447, 782.7396
1120.929, 778.6583
1121.411, 787.3660
1121.894, 801.8705
1122.376, 801.9153
1122.858, 791.0121
1123.340, 788.9995
1123.822, 794.4204
1124.304, 793.4489
1124.786, 783.9114
1125.268, 775.2276
1125.750, 772.6989
1126.233, 773.9933
1126.715, 779.6201
1127.197, 784.8854
1127.679, 780.0372
1128.161, 772.3080
1128.643, 776.8546
1129.125, 788.2916
1129.607, 787.1613
1130.090, 770.0067
1130.572, 757.5638
1131.054, 762.1838
1131.536, 770.4628
1132.018, 778.1310
1132.500, 784.0908
1132.982, 788.0093
1133.464, 789.5328
1133.947, 787.0688
1134.429, 781.8150
1134.911, 778.4695
1135.393, 778.3638
1135.875, 777.5289
1136.357, 774.6176
1136.839, 772.5096
1137.321, 771.4415
1137.803, 771.6498
1138.286, 773.3627
1138.768, 776.3305
1139.250, 780.2201
1139.732, 785.0173
1140.214, 790.9665
1140.696, 798.3849
1141.178, 805.2532
1141.660, 811.7450
1142.142, 813.6675
1142.625, 809.3965
1143.107, 804.6215
1143.589, 803.4494
1144.071, 806.0030
1144.553, 815.4023
1145.035, 827.7274
1145.517, 831.0899
1145.999, 826.9050
1146.482, 817.1198
1146.964, 804.5658
1147.446, 798.5524
1147.928, 802.0970
1148.410, 805.3152
1148.892, 799.0662
1149.374, 792.6849
1149.856, 798.8192
1150.339, 804.7452
1150.821, 793.6832
1151.303, 776.2585
1151.785, 770.3920
1152.267, 775.0510
1152.749, 774.9189
1153.231, 764.3305
1153.713, 756.8380
1154.195, 759.5352
1154.677, 760.0958
1155.160, 752.0906
1155.642, 743.8741
1156.124, 740.8566
1156.606, 740.5449
1157.088, 740.1083
1157.570, 739.2640
1158.052, 733.1642
1158.534, 717.9303
1159.017, 717.8720
1159.499, 738.1794
1159.981, 748.2612
1160.463, 737.6888
1160.945, 726.0068
1161.427, 727.3759
1161.909, 735.9800
1162.391, 744.2645
1162.874, 750.8405
1163.356, 749.3765
1163.838, 742.5087
1164.320, 738.8238
1164.802, 738.4522
1165.284, 736.0767
1165.766, 730.6738
1166.248, 729.8701
1166.730, 741.3331
1167.213, 752.3256
1167.695, 753.9885
1168.177, 748.8065
1168.659, 734.0685
1169.141, 717.3971
1169.623, 706.3081
1170.105, 701.6682
1170.587, 703.9025
1171.069, 714.1220
1171.552, 722.3613
1172.034, 726.1543
1172.516, 729.1451
1172.998, 734.0132
1173.480, 735.0469
1173.962, 728.0251
1174.444, 718.2770
1174.926, 709.8810
1175.409, 704.4034
1175.891, 709.1763
1176.373, 725.4814
1176.855, 733.6834
1177.337, 733.7099
1177.819, 727.3168
1178.301, 715.2120
1178.783, 712.2810
1179.266, 725.8015
1179.748, 740.9761
1180.230, 741.9941
1180.712, 735.4553
1181.194, 730.1776
1181.676, 726.0026
1182.158, 722.2255
1182.640, 719.6157
1183.122, 720.6921
1183.604, 724.7007
1184.087, 727.7460
1184.569, 728.6326
1185.051, 726.6798
1185.533, 718.3826
1186.015, 711.5498
1186.497, 708.0447
1186.979, 708.6381
1187.461, 718.8438
1187.944, 730.1692
1188.426, 729.5994
1188.908, 719.1925
1189.390, 711.7151
1189.872, 707.5801
1190.354, 704.1846
1190.836, 700.0415
1191.318, 705.5753
1191.801, 725.4948
1192.283, 737.3184
1192.765, 727.4014
1193.247, 709.8254
1193.729, 700.7495
1194.211, 699.2804
1194.693, 706.3378
1195.175, 718.0068
1195.657, 724.3270
1196.140, 725.6790
1196.622, 725.1895
1197.104, 723.5547
1197.586, 719.3825
1198.068, 711.5480
1198.550, 706.5647
1199.032, 713.0637
1199.514, 717.6684
1199.996, 708.9614
1200.479, 699.2682
1200.961, 699.0447
1201.443, 703.6708
1201.925, 705.2460
1202.407, 704.2091
1202.889, 707.6674
1203.371, 720.4981
1203.853, 720.7059
1204.336, 701.7463
1204.818, 692.3570
1205.300, 700.3019
1205.782, 708.8957
1206.264, 709.1572
1206.746, 706.6106
1207.228, 708.0880
1207.710, 711.0417
1208.193, 708.2540
1208.675, 701.9799
1209.157, 697.4807
1209.639, 695.6799
1210.121, 700.4680
1210.603, 709.8965
1211.085, 714.0989
1211.567, 709.1209
1212.049, 701.5790
1212.531, 694.0477
1213.014, 687.0450
1213.496, 675.6659
1213.978, 670.6220
1214.460, 686.4289
1214.942, 707.7460
1215.424, 715.2718
1215.906, 711.5684
1216.388, 708.6792
1216.871, 706.7800
1217.353, 704.7087
1217.835, 702.6287
1218.317, 699.0876
1218.799, 693.2625
1219.281, 690.7936
1219.763, 694.2306
1220.245, 698.9697
1220.728, 701.0132
1221.210, 701.0671
1221.692, 700.5732
1222.174, 698.8688
1222.656, 692.9229
1223.138, 685.4982
1223.620, 682.4439
1224.102, 683.2539
1224.584, 684.4556
1225.067, 685.0771
1225.549, 685.8246
1226.031, 687.8551
1226.513, 688.3433
1226.995, 685.2300
1227.477, 681.8237
1227.959, 679.5250
1228.441, 677.4178
1228.923, 673.4158
1229.406, 670.4892
1229.888, 674.8714
1230.370, 685.3966
1230.852, 688.0742
1231.334, 682.4882
1231.816, 679.3940
1232.298, 679.4138
1232.780, 681.8870
1233.263, 686.2349
1233.745, 687.9940
1234.227, 684.5610
1234.709, 679.7327
1235.191, 675.8351
1235.673, 674.4687
1236.155, 681.9253
##END=



