##NAMES=Beryl
##RRUFFID=R050305
##IDEAL CHEMISTRY=Be_3_Al_2_Si_6_O_18_
##LOCALITY=Conselheiro Pena, Minas Gerais, Brazil
##OWNER=RRUFF
##SOURCE=Eugene Schlepp
##DESCRIPTION=Light blue fragment, variety aquamarine
##STATUS=The identification of this mineral has been confirmed by X-ray diffraction and chemical analysis
##URL=rruff.info/R050305
##MEASURED CHEMISTRY=(Be_0.91_Li_0.09_)_3_(Al_0.99_Fe^3+^_0.01_)_2_Si_6.00_O_18_Î‡Na_0.27_
128.0302, 109.0567
128.5123, 111.7231
128.9944, 113.1065
129.4765, 113.3568
129.9586, 113.8726
130.4407, 116.0810
130.9229, 119.5251
131.4050, 122.3329
131.8871, 123.9670
132.3692, 124.8524
132.8513, 125.7398
133.3334, 126.4104
133.8156, 126.7552
134.2977, 127.3134
134.7798, 128.4965
135.2619, 129.4958
135.7440, 130.1605
136.2261, 130.5102
136.7083, 130.5992
137.1904, 130.3726
137.6725, 130.0836
138.1546, 130.0847
138.6367, 130.4890
139.1188, 130.5719
139.6010, 130.1120
140.0831, 129.1148
140.5652, 128.0196
141.0473, 126.7682
141.5294, 125.4799
142.0115, 124.3263
142.4937, 123.3219
142.9758, 122.3755
143.4579, 121.4181
143.9400, 120.4003
144.4221, 119.6289
144.9042, 119.2403
145.3864, 119.0083
145.8685, 118.5318
146.3506, 117.5122
146.8327, 116.6419
147.3148, 116.1510
147.7969, 116.1929
148.2791, 116.2780
148.7612, 116.5715
149.2433, 116.8970
149.7254, 116.8361
150.2075, 115.8620
150.6896, 114.9657
151.1718, 114.5318
151.6539, 115.0836
152.1360, 115.3315
152.6181, 115.0535
153.1002, 114.4268
153.5823, 113.9812
154.0645, 113.9169
154.5466, 113.9155
155.0287, 113.8281
155.5108, 113.5497
155.9929, 113.2872
156.4750, 113.1089
156.9572, 112.9823
157.4393, 112.7803
157.9214, 112.2084
158.4035, 111.7094
158.8856, 111.5568
159.3677, 112.5532
159.8499, 113.1594
160.3320, 112.7280
160.8141, 111.4241
161.2962, 110.2124
161.7783, 109.3617
162.2604, 108.7903
162.7426, 108.4304
163.2247, 108.3071
163.7068, 108.3492
164.1889, 108.7438
164.6710, 109.4366
165.1531, 109.7262
165.6353, 108.8300
166.1174, 107.4973
166.5995, 106.5350
167.0816, 106.3244
167.5637, 106.5021
168.0458, 107.0106
168.5280, 107.8365
169.0101, 108.4940
169.4922, 108.4483
169.9743, 108.0787
170.4564, 107.9154
170.9385, 108.5342
171.4207, 109.2377
171.9028, 109.3427
172.3849, 108.8027
172.8670, 108.1458
173.3491, 107.7446
173.8312, 107.5142
174.3134, 107.2910
174.7955, 107.0340
175.2776, 106.7328
175.7597, 106.3038
176.2418, 105.7092
176.7239, 105.2479
177.2061, 105.3439
177.6882, 105.8116
178.1703, 106.1441
178.6524, 105.9976
179.1345, 105.5864
179.6166, 105.2847
180.0988, 105.1301
180.5809, 104.9808
181.0630, 104.6672
181.5451, 104.2139
182.0272, 103.7337
182.5093, 103.1382
182.9915, 102.5579
183.4736, 102.4421
183.9557, 102.9392
184.4378, 103.4607
184.9199, 103.0697
185.4020, 101.8908
185.8842, 100.7560
186.3663, 100.2584
186.8484, 100.2052
187.3305, 99.88804
187.8126, 99.20036
188.2947, 98.37048
188.7769, 97.79184
189.2590, 97.45082
189.7411, 97.05727
190.2232, 96.33430
190.7053, 95.36200
191.1874, 94.65864
191.6696, 94.30342
192.1517, 94.14588
192.6338, 93.94041
193.1159, 93.68791
193.5980, 93.37283
194.0801, 92.93947
194.5623, 92.40288
195.0444, 91.98453
195.5265, 91.76260
196.0086, 91.58862
196.4907, 91.06830
196.9728, 90.15045
197.4550, 89.31002
197.9371, 88.89364
198.4192, 88.90871
198.9013, 88.83435
199.3834, 88.58751
199.8655, 88.26578
200.3477, 88.13058
200.8298, 88.22179
201.3119, 88.32162
201.7940, 88.29358
202.2761, 88.12752
202.7582, 87.95027
203.2404, 87.76347
203.7225, 87.58047
204.2046, 87.42110
204.6867, 87.26779
205.1688, 87.20002
205.6509, 87.35844
206.1331, 87.82817
206.6152, 87.92696
207.0973, 87.43578
207.5794, 86.61995
208.0615, 86.37664
208.5436, 86.91033
209.0258, 87.47760
209.5079, 87.56500
209.9900, 87.04173
210.4721, 86.65218
210.9542, 86.46001
211.4363, 86.43864
211.9185, 86.55037
212.4006, 86.90254
212.8827, 87.15355
213.3648, 86.99449
213.8469, 86.20512
214.3290, 85.83235
214.8112, 86.08864
215.2933, 86.78702
215.7754, 87.27719
216.2575, 87.51858
216.7396, 87.62758
217.2217, 87.64006
217.7038, 87.49228
218.1860, 87.44733
218.6681, 87.55260
219.1502, 87.76863
219.6323, 87.96831
220.1144, 88.19444
220.5965, 88.32985
221.0787, 88.25013
221.5608, 87.76811
222.0429, 87.59486
222.5250, 87.85666
223.0071, 88.45029
223.4892, 89.00932
223.9714, 89.60194
224.4535, 90.06401
224.9356, 90.27171
225.4177, 90.04683
225.8998, 90.01810
226.3819, 90.34770
226.8641, 90.87932
227.3462, 91.00281
227.8283, 90.38248
228.3104, 89.86421
228.7925, 89.91393
229.2746, 90.79379
229.7568, 91.67165
230.2389, 92.59587
230.7210, 93.49449
231.2031, 94.09132
231.6852, 94.24919
232.1673, 94.30734
232.6495, 94.41444
233.1316, 94.55436
233.6137, 94.79144
234.0958, 95.20503
234.5779, 95.69848
235.0600, 95.96244
235.5422, 95.79205
236.0243, 95.69425
236.5064, 95.93913
236.9885, 96.82082
237.4706, 97.38029
237.9527, 97.48088
238.4349, 97.28861
238.9170, 97.19878
239.3991, 97.19166
239.8812, 97.31634
240.3633, 97.62138
240.8454, 98.22504
241.3276, 98.71394
241.8097, 99.05527
242.2918, 99.28758
242.7739, 99.45737
243.2560, 99.39687
243.7381, 99.53709
244.2203, 100.1396
244.7024, 101.5737
245.1845, 102.3938
245.6666, 102.3031
246.1487, 101.7399
246.6308, 101.5626
247.1130, 102.0032
247.5951, 102.4556
248.0772, 102.7605
248.5593, 102.9995
249.0414, 102.7836
249.5235, 101.9663
250.0057, 100.7858
250.4878, 99.59731
250.9699, 98.36626
251.4520, 97.18239
251.9341, 96.08585
252.4162, 95.07778
252.8984, 94.14458
253.3805, 93.40629
253.8626, 92.64136
254.3447, 91.49876
254.8268, 89.70509
255.3089, 88.05589
255.7911, 86.79070
256.2732, 85.92758
256.7553, 85.24864
257.2374, 84.81509
257.7195, 84.50424
258.2017, 84.15637
258.6838, 83.71807
259.1659, 83.36217
259.6480, 83.15959
260.1301, 83.12132
260.6122, 82.98136
261.0944, 82.68666
261.5765, 82.35536
262.0586, 82.07471
262.5407, 81.77263
263.0228, 81.74798
263.5049, 82.22598
263.9871, 83.17019
264.4692, 83.44289
264.9513, 82.71288
265.4334, 81.84652
265.9155, 81.75154
266.3976, 82.76950
266.8798, 83.37918
267.3619, 83.14449
267.8440, 82.21169
268.3261, 81.81906
268.8082, 82.11240
269.2903, 82.63716
269.7725, 83.05943
270.2546, 83.36848
270.7367, 83.60269
271.2188, 83.76598
271.7009, 83.85564
272.1830, 83.85287
272.6652, 83.74117
273.1473, 83.58064
273.6294, 83.36797
274.1115, 83.06896
274.5936, 82.94374
275.0757, 83.04368
275.5579, 83.31258
276.0400, 83.60755
276.5221, 83.93965
277.0042, 84.25020
277.4863, 84.46558
277.9684, 84.56893
278.4506, 84.82138
278.9327, 85.27940
279.4148, 85.84612
279.8969, 86.36674
280.3790, 86.86085
280.8611, 87.17699
281.3433, 87.13557
281.8254, 86.74098
282.3075, 86.56337
282.7896, 86.64629
283.2717, 86.88881
283.7538, 87.07969
284.2360, 87.20836
284.7181, 87.56560
285.2002, 88.45613
285.6823, 89.78773
286.1644, 90.67664
286.6465, 91.05091
287.1287, 91.21352
287.6108, 91.53590
288.0929, 92.00826
288.5750, 92.46288
289.0571, 92.85023
289.5392, 93.17134
290.0214, 93.38538
290.5035, 93.47538
290.9856, 93.58995
291.4677, 93.82671
291.9498, 94.20238
292.4319, 94.82365
292.9141, 95.84933
293.3962, 97.07726
293.8783, 98.14154
294.3604, 99.03981
294.8425, 99.57416
295.3246, 99.23103
295.8068, 98.32491
296.2889, 97.95812
296.7710, 98.58461
297.2531, 99.64365
297.7352, 100.1760
298.2173, 100.2328
298.6995, 100.2696
299.1816, 100.6452
299.6637, 101.2342
300.1458, 101.7583
300.6279, 102.1496
301.1100, 102.5070
301.5922, 102.9214
302.0743, 103.3941
302.5564, 103.9320
303.0385, 104.3457
303.5206, 104.8885
304.0027, 106.0699
304.4849, 108.0854
304.9670, 110.1503
305.4491, 111.3831
305.9312, 112.0575
306.4133, 112.8306
306.8954, 114.0288
307.3776, 115.4905
307.8597, 117.0746
308.3418, 118.7953
308.8239, 120.5421
309.3060, 122.1291
309.7881, 123.7241
310.2703, 125.5378
310.7524, 128.0674
311.2345, 130.5715
311.7166, 132.3003
312.1987, 133.2814
312.6808, 134.4904
313.1630, 136.4282
313.6451, 138.9140
314.1272, 141.7742
314.6093, 145.1895
315.0914, 148.7002
315.5735, 151.9908
316.0557, 155.1208
316.5378, 158.4121
317.0199, 161.9784
317.5020, 165.7549
317.9841, 169.7430
318.4662, 173.7820
318.9484, 178.1537
319.4305, 183.2363
319.9126, 188.7487
320.3947, 193.9523
320.8768, 198.6360
321.3589, 202.9567
321.8411, 207.0898
322.3232, 211.2851
322.8053, 214.6180
323.2874, 217.2067
323.7695, 218.7722
324.2516, 218.8719
324.7338, 217.2509
325.2159, 214.3281
325.6980, 210.2094
326.1801, 204.8695
326.6622, 198.3952
327.1443, 190.1128
327.6265, 180.9639
328.1086, 171.8523
328.5907, 162.4565
329.0728, 153.5918
329.5549, 145.3380
330.0370, 137.6645
330.5192, 130.7227
331.0013, 124.4921
331.4834, 118.9556
331.9655, 114.0506
332.4476, 109.8528
332.9297, 106.1521
333.4119, 103.0488
333.8940, 100.4530
334.3761, 98.04126
334.8582, 95.92560
335.3403, 93.89666
335.8224, 91.76566
336.3046, 89.23938
336.7867, 87.54688
337.2688, 87.01509
337.7509, 87.08381
338.2330, 86.52847
338.7151, 85.11557
339.1973, 83.82446
339.6794, 83.06345
340.1615, 82.86403
340.6436, 82.66513
341.1257, 82.48769
341.6078, 82.27425
342.0899, 81.94339
342.5721, 81.49747
343.0542, 80.99349
343.5363, 80.41582
344.0184, 79.80257
344.5005, 79.25820
344.9826, 78.76896
345.4648, 78.48329
345.9469, 78.66087
346.4290, 79.23737
346.9111, 79.69479
347.3932, 79.93810
347.8753, 80.00810
348.3575, 79.91531
348.8396, 79.67339
349.3217, 79.44706
349.8038, 79.35127
350.2859, 79.35321
350.7680, 79.42264
351.2502, 79.59898
351.7323, 79.67163
352.2144, 79.19997
352.6965, 78.38274
353.1786, 77.83522
353.6607, 78.15069
354.1429, 78.77491
354.6250, 78.96162
355.1071, 78.66765
355.5892, 78.37584
356.0713, 78.52710
356.5534, 78.90778
357.0356, 79.20126
357.5177, 79.23588
357.9998, 79.19225
358.4819, 79.18928
358.9640, 79.21906
359.4461, 79.23741
359.9283, 79.20551
360.4104, 79.15973
360.8925, 79.12837
361.3746, 79.11156
361.8567, 79.11839
362.3388, 79.11630
362.8210, 79.13866
363.3031, 79.26140
363.7852, 79.61345
364.2673, 79.98586
364.7494, 80.29164
365.2315, 80.52457
365.7137, 80.67971
366.1958, 80.61179
366.6779, 80.51405
367.1600, 80.61324
367.6421, 81.19072
368.1242, 81.70242
368.6064, 82.02686
369.0885, 82.15498
369.5706, 82.25120
370.0527, 82.17089
370.5348, 82.17144
371.0169, 82.43022
371.4991, 83.08765
371.9812, 83.75963
372.4633, 84.40025
372.9454, 85.04246
373.4275, 85.79900
373.9096, 86.74792
374.3918, 87.69254
374.8739, 88.54877
375.3560, 89.34886
375.8381, 89.91204
376.3202, 90.08626
376.8023, 90.21165
377.2845, 90.81978
377.7666, 91.95343
378.2487, 93.32623
378.7308, 94.91830
379.2129, 96.68570
379.6950, 98.05859
380.1772, 98.94339
380.6593, 99.97178
381.1414, 101.9049
381.6235, 104.6261
382.1056, 107.1841
382.5877, 109.2709
383.0699, 111.2213
383.5520, 113.6339
384.0341, 116.5098
384.5162, 119.6320
384.9983, 123.2064
385.4804, 126.9115
385.9626, 129.9569
386.4447, 132.1561
386.9268, 134.2796
387.4089, 136.9779
387.8910, 140.2073
388.3731, 143.8107
388.8553, 147.9395
389.3374, 152.2787
389.8195, 156.3679
390.3016, 160.1873
390.7837, 164.3714
391.2658, 169.4380
391.7480, 174.9688
392.2301, 180.5302
392.7122, 185.9289
393.1943, 191.4340
393.6764, 197.0420
394.1585, 202.8318
394.6407, 208.9063
395.1228, 215.8121
395.6049, 222.6478
396.0870, 228.9866
396.5691, 234.5802
397.0512, 240.2013
397.5334, 246.8617
398.0155, 253.3758
398.4976, 258.1780
398.9797, 260.6742
399.4618, 261.9692
399.9439, 262.7311
400.4261, 262.9527
400.9082, 260.1896
401.3903, 253.1316
401.8724, 244.3260
402.3545, 235.2742
402.8366, 226.0997
403.3188, 216.5863
403.8009, 206.5871
404.2830, 196.3048
404.7651, 186.0883
405.2472, 175.8187
405.7293, 166.2388
406.2115, 157.6570
406.6936, 150.1545
407.1757, 143.2858
407.6578, 137.0064
408.1399, 131.4437
408.6220, 126.8185
409.1042, 123.1151
409.5863, 119.6029
410.0684, 116.0338
410.5505, 112.5850
411.0326, 109.4020
411.5147, 106.4828
411.9969, 104.1169
412.4790, 102.7878
412.9611, 102.1177
413.4432, 101.2064
413.9253, 99.88276
414.4074, 98.47421
414.8896, 97.26225
415.3717, 96.23005
415.8538, 95.34886
416.3359, 94.79402
416.8180, 94.26949
417.3001, 93.42784
417.7823, 92.26781
418.2644, 91.26018
418.7465, 90.67121
419.2286, 90.34351
419.7107, 90.14656
420.1928, 90.21427
420.6750, 90.17184
421.1571, 89.69037
421.6392, 88.97285
422.1213, 88.56010
422.6034, 89.14257
423.0855, 89.59081
423.5677, 89.33275
424.0498, 88.03865
424.5319, 87.08308
425.0140, 86.81317
425.4961, 86.81042
425.9782, 86.65291
426.4604, 86.23582
426.9425, 85.80597
427.4246, 85.26656
427.9067, 84.69453
428.3888, 84.73982
428.8709, 85.77049
429.3531, 86.76762
429.8352, 87.13422
430.3173, 86.73875
430.7994, 86.32259
431.2815, 85.86444
431.7636, 85.45440
432.2458, 85.15270
432.7279, 84.93773
433.2100, 85.20761
433.6921, 86.35689
434.1742, 88.06336
434.6563, 89.06654
435.1385, 89.36326
435.6206, 89.46513
436.1027, 89.76270
436.5848, 90.20918
437.0669, 90.67418
437.5490, 91.12727
438.0312, 91.61278
438.5133, 92.31011
438.9954, 93.10579
439.4775, 93.68230
439.9596, 93.65077
440.4417, 93.47289
440.9239, 93.53703
441.4060, 93.86659
441.8881, 94.36528
442.3702, 95.20042
442.8523, 96.07097
443.3344, 96.69557
443.8166, 97.01018
444.2987, 97.05337
444.7808, 96.60471
445.2629, 95.86132
445.7450, 95.39910
446.2271, 96.02612
446.7093, 96.35989
447.1914, 95.73926
447.6735, 93.71502
448.1556, 92.14388
448.6377, 91.25168
449.1198, 90.67397
449.6020, 90.06461
450.0841, 89.45682
450.5662, 88.75548
451.0483, 87.83760
451.5304, 86.81779
452.0125, 86.29893
452.4947, 86.43504
452.9768, 86.58334
453.4589, 86.34878
453.9410, 85.71696
454.4231, 85.18640
454.9052, 84.77916
455.3874, 84.41289
455.8695, 83.95289
456.3516, 83.41577
456.8337, 82.94958
457.3158, 82.64225
457.7979, 82.39330
458.2801, 81.92045
458.7622, 81.27769
459.2443, 80.83266
459.7264, 81.09627
460.2085, 81.61391
460.6906, 81.79517
461.1728, 81.53907
461.6549, 81.03240
462.1370, 80.27985
462.6191, 79.39442
463.1012, 78.55763
463.5833, 77.63250
464.0655, 76.95800
464.5476, 76.83720
465.0297, 77.19875
465.5118, 77.43456
465.9939, 77.38075
466.4760, 77.15395
466.9582, 76.80540
467.4403, 76.24331
467.9224, 75.71822
468.4045, 75.11069
468.8866, 74.59575
469.3687, 74.46297
469.8509, 75.02637
470.3330, 75.39671
470.8151, 75.29210
471.2972, 74.77713
471.7793, 74.59224
472.2614, 74.89120
472.7436, 75.09795
473.2257, 74.62752
473.7078, 73.45903
474.1899, 72.95729
474.6720, 73.37273
475.1541, 74.05773
475.6363, 73.95422
476.1184, 73.19039
476.6005, 72.58846
477.0826, 72.51345
477.5647, 72.77638
478.0468, 73.20099
478.5290, 73.75176
479.0111, 74.10561
479.4932, 73.81501
479.9753, 73.29424
480.4574, 73.06622
480.9395, 73.31059
481.4217, 73.56412
481.9038, 73.46480
482.3859, 73.20889
482.8680, 73.08581
483.3501, 73.23595
483.8322, 73.49010
484.3144, 73.84955
484.7965, 74.29491
485.2786, 74.64211
485.7607, 74.84623
486.2428, 74.95203
486.7249, 74.97202
487.2071, 74.83766
487.6892, 74.77272
488.1713, 74.86089
488.6534, 74.96117
489.1355, 74.82188
489.6176, 74.30035
490.0998, 73.97207
490.5819, 74.02390
491.0640, 74.37388
491.5461, 74.61832
492.0282, 74.75826
492.5103, 74.80852
492.9925, 74.70676
493.4746, 74.50093
493.9567, 74.45531
494.4388, 74.60046
494.9209, 74.83447
495.4030, 75.08889
495.8852, 75.34164
496.3673, 75.54638
496.8494, 75.68649
497.3315, 75.76397
497.8136, 75.76009
498.2957, 75.68736
498.7779, 75.60076
499.2600, 75.51059
499.7421, 75.42833
500.2242, 75.34901
500.7063, 75.25636
501.1884, 75.23899
501.6706, 75.29622
502.1527, 75.45522
502.6348, 75.74402
503.1169, 76.49152
503.5990, 76.97758
504.0811, 76.98612
504.5633, 76.66316
505.0454, 76.56421
505.5275, 76.83278
506.0096, 77.07909
506.4917, 77.10378
506.9738, 76.87115
507.4560, 76.87115
507.9381, 77.14583
508.4202, 77.53822
508.9023, 77.90248
509.3844, 78.24029
509.8665, 78.59854
510.3487, 79.01762
510.8308, 79.40319
511.3129, 79.50411
511.7950, 79.39409
512.2772, 79.41583
512.7593, 79.83743
513.2414, 80.44380
513.7235, 80.97836
514.2056, 81.43942
514.6877, 81.93873
515.1699, 82.63987
515.6520, 83.36335
516.1341, 83.95116
516.6162, 84.38614
517.0983, 84.64763
517.5804, 84.43383
518.0626, 84.10196
518.5447, 84.23837
519.0268, 85.54366
519.5089, 86.67906
519.9910, 87.34971
520.4731, 87.57594
520.9553, 87.57767
521.4374, 87.17181
521.9195, 86.81555
522.4016, 86.79927
522.8837, 87.20509
523.3658, 87.49234
523.8480, 87.59222
524.3301, 87.71439
524.8122, 88.34509
525.2943, 89.42347
525.7764, 89.87627
526.2585, 89.08874
526.7407, 87.88885
527.2228, 87.94170
527.7049, 89.05428
528.1870, 90.08859
528.6691, 90.30412
529.1512, 90.10014
529.6334, 89.92767
530.1155, 89.81923
530.5976, 89.65611
531.0797, 89.25117
531.5618, 88.80643
532.0439, 88.53164
532.5261, 88.59508
533.0082, 88.65768
533.4903, 88.70779
533.9724, 88.69196
534.4545, 88.49507
534.9366, 87.96177
535.4188, 87.41457
535.9009, 86.93468
536.3830, 86.52044
536.8651, 86.06276
537.3472, 85.55094
537.8293, 85.02257
538.3115, 84.51198
538.7936, 84.02545
539.2757, 83.48434
539.7578, 82.85229
540.2399, 82.27132
540.7220, 82.02412
541.2042, 82.03873
541.6863, 81.88341
542.1684, 81.39091
542.6505, 80.69842
543.1326, 79.96570
543.6147, 79.19593
544.0969, 78.38106
544.5790, 77.36816
545.0611, 76.42527
545.5432, 75.82973
546.0253, 75.62045
546.5074, 75.41965
546.9896, 75.11891
547.4717, 74.73502
547.9538, 74.27618
548.4359, 73.54112
548.9180, 73.01033
549.4001, 72.76617
549.8823, 72.72853
550.3644, 72.80123
550.8465, 73.17293
551.3286, 73.29250
551.8107, 72.95789
552.2928, 72.23631
552.7750, 71.59032
553.2571, 70.98969
553.7392, 70.59203
554.2213, 70.62035
554.7034, 70.98342
555.1855, 71.13679
555.6677, 71.03827
556.1498, 70.84973
556.6319, 70.68256
557.1140, 70.55841
557.5961, 70.52604
558.0782, 70.60896
558.5604, 70.77129
559.0425, 71.14755
559.5246, 71.58034
560.0067, 71.71359
560.4888, 70.99837
560.9709, 70.31554
561.4531, 70.13637
561.9352, 70.47350
562.4173, 70.71217
562.8994, 70.58418
563.3815, 70.49144
563.8636, 70.67781
564.3458, 71.37133
564.8279, 71.69624
565.3100, 71.50252
565.7921, 71.13480
566.2742, 71.00908
566.7563, 71.13130
567.2385, 71.46626
567.7206, 72.11315
568.2027, 72.83422
568.6848, 72.99872
569.1669, 72.68011
569.6490, 72.40823
570.1312, 72.52141
570.6133, 72.82628
571.0954, 73.09222
571.5775, 73.31100
572.0596, 73.40732
572.5417, 73.18577
573.0239, 72.90885
573.5060, 72.82951
573.9881, 73.07799
574.4702, 73.28471
574.9523, 73.37642
575.4344, 73.35475
575.9166, 73.22034
576.3987, 72.87526
576.8808, 72.55052
577.3629, 72.27922
577.8450, 72.04292
578.3271, 71.75816
578.8093, 71.38000
579.2914, 71.09045
579.7735, 71.01431
580.2556, 71.11142
580.7377, 71.05836
581.2198, 70.84646
581.7020, 70.56518
582.1841, 70.17651
582.6662, 69.78477
583.1483, 69.70789
583.6304, 70.04945
584.1125, 70.37097
584.5947, 70.23952
585.0768, 69.85233
585.5589, 69.49730
586.0410, 69.28416
586.5231, 69.11260
587.0052, 68.90724
587.4873, 68.71258
587.9694, 68.64886
588.4515, 69.05946
588.9337, 69.26750
589.4158, 68.95811
589.8979, 68.12640
590.3800, 67.71451
590.8621, 67.91001
591.3442, 68.19216
591.8264, 68.23452
592.3085, 68.02303
592.7906, 67.78376
593.2727, 67.52113
593.7548, 67.23051
594.2369, 66.83044
594.7191, 66.37707
595.2012, 66.12231
595.6833, 66.20437
596.1654, 66.34752
596.6475, 66.12275
597.1296, 65.72302
597.6118, 65.59006
598.0939, 66.25507
598.5760, 66.94835
599.0581, 67.25371
599.5402, 67.18414
600.0223, 67.02548
600.5045, 66.69260
600.9866, 66.41781
601.4687, 66.35908
601.9508, 66.63744
602.4329, 66.54969
602.9150, 65.81279
603.3972, 65.10416
603.8793, 65.16301
604.3614, 66.09559
604.8435, 66.60161
605.3256, 66.43037
605.8077, 66.00577
606.2899, 65.98688
606.7720, 66.30611
607.2541, 66.65974
607.7362, 67.00087
608.2183, 67.25194
608.7004, 67.18441
609.1826, 66.91368
609.6647, 66.84280
610.1468, 67.26577
610.6289, 67.88155
611.1110, 68.57376
611.5931, 69.34721
612.0753, 69.96774
612.5574, 70.22750
613.0395, 70.45540
613.5216, 70.85091
614.0037, 71.53098
614.4858, 72.08792
614.9680, 72.50232
615.4501, 72.81926
615.9322, 73.07176
616.4143, 73.25418
616.8964, 73.49344
617.3785, 73.89811
617.8607, 74.20631
618.3428, 73.83576
618.8249, 72.92766
619.3070, 72.07319
619.7891, 71.65652
620.2712, 71.34920
620.7534, 70.76752
621.2355, 69.97856
621.7176, 69.31527
622.1997, 68.99548
622.6818, 68.80267
623.1639, 68.65102
623.6461, 68.55402
624.1282, 68.34231
624.6103, 67.80956
625.0924, 67.32047
625.5745, 67.16853
626.0566, 67.64522
626.5388, 67.51565
627.0209, 66.47435
627.5030, 65.29797
627.9851, 65.23714
628.4672, 66.22356
628.9493, 66.82672
629.4315, 66.59080
629.9136, 66.03311
630.3957, 65.93994
630.8778, 66.19209
631.3599, 66.43604
631.8420, 66.50642
632.3242, 66.49925
632.8063, 66.44158
633.2884, 66.35444
633.7705, 66.33678
634.2526, 66.36568
634.7347, 66.52300
635.2169, 66.94194
635.6990, 67.71947
636.1811, 68.11070
636.6632, 67.82401
637.1453, 67.51917
637.6274, 67.75715
638.1096, 68.67376
638.5917, 69.16182
639.0738, 69.09837
639.5559, 68.82127
640.0380, 68.73503
640.5201, 68.80310
641.0023, 68.85773
641.4844, 68.82683
641.9665, 68.82797
642.4486, 69.02054
642.9307, 69.34107
643.4128, 69.64716
643.8950, 69.94103
644.3771, 70.15068
644.8592, 70.19363
645.3413, 70.10612
645.8234, 70.08137
646.3055, 70.09946
646.7877, 70.24490
647.2698, 70.59615
647.7519, 71.16819
648.2340, 71.56898
648.7161, 71.76036
649.1982, 71.88237
649.6804, 71.98101
650.1625, 72.07285
650.6446, 72.36580
651.1267, 72.89269
651.6088, 73.42561
652.0909, 73.63148
652.5731, 73.69324
653.0552, 73.93584
653.5373, 74.44823
654.0194, 75.12975
654.5015, 76.08501
654.9836, 77.13458
655.4658, 78.02064
655.9479, 78.62916
656.4300, 79.11990
656.9121, 79.27706
657.3942, 79.35437
657.8763, 80.11655
658.3585, 81.92487
658.8406, 83.56908
659.3227, 84.58040
659.8048, 85.12374
660.2869, 86.00539
660.7690, 87.23085
661.2512, 88.60867
661.7333, 89.93154
662.2154, 91.33150
662.6975, 93.05203
663.1796, 95.09910
663.6617, 97.39360
664.1439, 99.90324
664.6260, 102.6212
665.1081, 105.5598
665.5902, 108.7075
666.0723, 112.0254
666.5544, 115.1960
667.0366, 118.7265
667.5187, 123.0709
668.0008, 128.5018
668.4829, 134.1823
668.9650, 139.9292
669.4471, 146.0007
669.9293, 152.8223
670.4114, 160.3954
670.8935, 168.7549
671.3756, 177.9942
671.8577, 187.9218
672.3398, 198.4190
672.8220, 209.5278
673.3041, 221.1935
673.7862, 233.4438
674.2683, 246.1696
674.7504, 259.1065
675.2325, 272.4164
675.7147, 286.5250
676.1968, 301.8241
676.6789, 317.9694
677.1610, 334.3054
677.6431, 350.8543
678.1252, 369.2164
678.6074, 389.3354
679.0895, 411.0958
679.5716, 434.4008
680.0537, 459.4408
680.5358, 484.9382
681.0179, 510.8219
681.5001, 536.8484
681.9822, 562.7806
682.4643, 588.4550
682.9464, 613.1696
683.4285, 637.3328
683.9106, 659.2792
684.3928, 680.3275
684.8749, 697.7233
685.3570, 708.5483
685.8391, 712.1487
686.3212, 709.1931
686.8033, 699.0687
687.2855, 682.5900
687.7676, 660.4403
688.2497, 631.3317
688.7318, 598.7692
689.2139, 562.5582
689.6960, 523.7766
690.1782, 485.5335
690.6603, 447.8974
691.1424, 412.3573
691.6245, 378.9617
692.1066, 347.9481
692.5887, 319.7486
693.0709, 294.3878
693.5530, 271.9258
694.0351, 253.6796
694.5172, 237.6124
694.9993, 222.4927
695.4814, 208.2190
695.9636, 195.6175
696.4457, 185.4272
696.9278, 176.3285
697.4099, 167.7879
697.8920, 159.7962
698.3741, 152.4112
698.8563, 145.6148
699.3384, 139.4846
699.8205, 134.0959
700.3026, 129.4639
700.7847, 125.5355
701.2668, 122.3639
701.7490, 119.4741
702.2311, 116.4925
702.7132, 113.4830
703.1953, 110.5147
703.6774, 107.5213
704.1595, 104.7400
704.6417, 102.2708
705.1238, 100.0293
705.6059, 97.94621
706.0880, 96.11855
706.5701, 94.21329
707.0522, 92.06039
707.5344, 89.90629
708.0165, 88.33096
708.4986, 87.36790
708.9807, 86.55482
709.4628, 85.84354
709.9449, 85.09763
710.4271, 83.95718
710.9092, 82.53711
711.3913, 81.22058
711.8734, 80.34966
712.3555, 79.55203
712.8376, 78.40327
713.3198, 77.02884
713.8019, 76.08746
714.2840, 76.21561
714.7661, 76.34312
715.2482, 76.06678
715.7303, 75.40007
716.2125, 74.75217
716.6946, 74.13573
717.1767, 73.49091
717.6588, 72.72099
718.1409, 71.86353
718.6230, 71.32332
719.1052, 71.10191
719.5873, 70.87811
720.0694, 70.25352
720.5515, 69.53284
721.0336, 69.14520
721.5157, 69.18114
721.9979, 69.20634
722.4800, 68.87810
722.9621, 68.54326
723.4442, 68.52330
723.9263, 69.19762
724.4084, 69.39412
724.8906, 68.92060
725.3727, 68.19556
725.8548, 67.62060
726.3369, 67.19831
726.8190, 66.81844
727.3011, 66.48051
727.7833, 66.15367
728.2654, 65.71331
728.7475, 65.26403
729.2296, 65.10841
729.7117, 65.53671
730.1938, 65.84551
730.6760, 65.26094
731.1581, 64.32440
731.6402, 63.86066
732.1223, 64.63424
732.6044, 65.19205
733.0865, 65.31974
733.5687, 65.11239
734.0508, 64.69732
734.5329, 63.97446
735.0150, 63.47150
735.4971, 63.36873
735.9792, 63.51571
736.4614, 63.63199
736.9435, 63.70969
737.4256, 63.70759
737.9077, 63.47189
738.3898, 63.24995
738.8719, 63.37087
739.3541, 63.71974
739.8362, 63.89080
740.3183, 63.50599
740.8004, 63.14798
741.2825, 63.07265
741.7646, 63.24363
742.2468, 63.38242
742.7289, 63.52052
743.2110, 63.53757
743.6931, 63.26886
744.1752, 62.81697
744.6573, 62.88920
745.1395, 63.46788
745.6216, 63.95975
746.1037, 63.82356
746.5858, 63.43135
747.0679, 63.25751
747.5500, 63.31625
748.0322, 63.31783
748.5143, 62.99997
748.9964, 62.68761
749.4785, 62.59130
749.9606, 62.76814
750.4427, 62.93820
750.9249, 63.13451
751.4070, 63.27285
751.8891, 63.24880
752.3712, 63.06680
752.8533, 63.05665
753.3354, 63.24667
753.8176, 63.42004
754.2997, 63.28328
754.7818, 63.03017
755.2639, 62.98029
755.7460, 63.21062
756.2281, 63.46384
756.7103, 63.66880
757.1924, 63.79801
757.6745, 63.81800
758.1566, 63.65866
758.6387, 63.51562
759.1208, 63.36841
759.6030, 63.25980
760.0851, 63.27625
760.5672, 63.42577
761.0493, 63.40672
761.5314, 63.15787
762.0135, 62.85128
762.4957, 62.59645
762.9778, 62.45119
763.4599, 62.55888
763.9420, 63.06304
764.4241, 63.55474
764.9063, 63.92763
765.3884, 64.11342
765.8705, 64.02099
766.3526, 63.22491
766.8347, 62.77594
767.3168, 62.88855
767.7990, 63.20858
768.2811, 63.12004
768.7632, 62.58954
769.2453, 62.41005
769.7274, 62.86174
770.2095, 63.42089
770.6917, 63.27512
771.1738, 62.67402
771.6559, 62.15264
772.1380, 61.83641
772.6201, 61.74703
773.1022, 62.04157
773.5844, 62.54152
774.0665, 62.93311
774.5486, 63.24246
775.0307, 63.32690
775.5128, 63.05714
775.9949, 62.62722
776.4771, 62.51674
776.9592, 62.73979
777.4413, 62.85855
777.9234, 62.74243
778.4055, 62.46366
778.8876, 61.97948
779.3698, 61.41741
779.8519, 61.10428
780.3340, 61.42919
780.8161, 61.79033
781.2982, 61.90873
781.7803, 61.85088
782.2625, 61.78970
782.7446, 61.62324
783.2267, 61.66509
783.7088, 62.10323
784.1909, 62.72143
784.6730, 62.91215
785.1552, 62.67902
785.6373, 62.17501
786.1194, 61.19884
786.6015, 60.28387
787.0836, 60.43588
787.5657, 61.32230
788.0479, 62.02557
788.5300, 62.08590
789.0121, 61.89214
789.4942, 61.47416
789.9763, 60.91447
790.4584, 60.50965
790.9406, 60.25925
791.4227, 60.18555
791.9048, 60.33223
792.3869, 60.64143
792.8690, 61.01559
793.3511, 61.43909
793.8333, 61.61687
794.3154, 61.24960
794.7975, 60.70276
795.2796, 60.34132
795.7617, 60.16436
796.2438, 60.18367
796.7260, 60.76727
797.2081, 61.16878
797.6902, 60.94749
798.1723, 60.28327
798.6544, 59.86500
799.1365, 59.74249
799.6187, 59.75822
800.1008, 59.93382
800.5829, 60.16570
801.0650, 60.03925
801.5471, 59.62543
802.0292, 59.38328
802.5114, 59.76184
802.9935, 60.26414
803.4756, 60.47469
803.9577, 60.42981
804.4398, 60.25555
804.9219, 59.66835
805.4041, 59.32561
805.8862, 59.55717
806.3683, 60.17741
806.8504, 60.38149
807.3325, 60.08688
807.8146, 59.77675
808.2968, 59.62978
808.7789, 59.58515
809.2610, 59.53316
809.7431, 59.46893
810.2252, 59.37195
810.7073, 59.06819
811.1895, 58.88116
811.6716, 59.18573
812.1537, 59.80700
812.6358, 60.09033
813.1179, 59.64663
813.6000, 59.25259
814.0822, 59.06136
814.5643, 59.04944
815.0464, 59.21675
815.5285, 59.56995
816.0106, 59.71400
816.4927, 59.33003
816.9749, 58.80944
817.4570, 58.79629
817.9391, 59.14678
818.4212, 59.44625
818.9033, 59.46156
819.3854, 59.43223
819.8676, 59.52145
820.3497, 59.64312
820.8318, 59.47010
821.3139, 58.73429
821.7960, 58.37150
822.2781, 58.75986
822.7603, 59.52124
823.2424, 59.69754
823.7245, 59.37365
824.2066, 59.10047
824.6887, 59.16390
825.1708, 59.29120
825.6530, 59.21813
826.1351, 59.01844
826.6172, 58.85901
827.0993, 58.91294
827.5814, 58.84907
828.0635, 58.47796
828.5457, 58.00871
829.0278, 57.89119
829.5099, 58.16856
829.9920, 58.55355
830.4741, 59.04939
830.9562, 59.47742
831.4384, 59.50007
831.9205, 59.22579
832.4026, 58.91974
832.8847, 58.52836
833.3668, 58.33929
833.8489, 58.77499
834.3311, 59.43709
834.8132, 59.60415
835.2953, 58.85917
835.7774, 58.38365
836.2595, 58.39285
836.7416, 58.59827
837.2238, 58.46142
837.7059, 58.03875
838.1880, 57.89897
838.6701, 58.23952
839.1522, 58.67282
839.6343, 58.84668
840.1165, 58.84721
840.5986, 58.78929
841.0807, 58.67336
841.5628, 58.55248
842.0449, 58.37608
842.5270, 58.24308
843.0092, 58.29936
843.4913, 58.61257
843.9734, 58.68552
844.4555, 58.41261
844.9376, 58.12667
845.4197, 58.31260
845.9019, 58.76373
846.3840, 59.05124
846.8661, 59.08221
847.3482, 59.00678
847.8303, 58.81634
848.3124, 58.61491
848.7946, 58.50253
849.2767, 58.52652
849.7588, 58.52782
850.2409, 58.48210
850.7230, 58.45910
851.2051, 58.57194
851.6873, 58.78063
852.1694, 58.79952
852.6515, 58.60312
853.1336, 58.38689
853.6157, 58.26126
854.0978, 58.22364
854.5800, 58.31078
855.0621, 58.55070
855.5442, 58.68790
856.0263, 58.71272
856.5084, 58.56747
856.9905, 58.09913
857.4727, 57.30819
857.9548, 57.18791
858.4369, 57.80159
858.9190, 58.40439
859.4011, 58.37757
859.8832, 58.05698
860.3654, 58.02222
860.8475, 58.24360
861.3296, 58.32306
861.8117, 57.86986
862.2938, 57.42799
862.7759, 57.27903
863.2581, 57.38957
863.7402, 57.54233
864.2223, 57.77163
864.7044, 57.92164
865.1865, 57.92703
865.6686, 57.80828
866.1508, 57.55780
866.6329, 57.21147
867.1150, 56.93522
867.5971, 56.68290
868.0792, 56.65474
868.5613, 57.16931
869.0435, 58.01798
869.5256, 58.52805
870.0077, 58.51974
870.4898, 58.41601
870.9719, 58.26451
871.4540, 58.08860
871.9362, 57.91484
872.4183, 57.75226
872.9004, 57.67988
873.3825, 57.75451
873.8646, 57.85973
874.3467, 57.86522
874.8289, 57.83252
875.3110, 57.85466
875.7931, 58.11129
876.2752, 58.20244
876.7573, 57.97587
877.2394, 57.68736
877.7216, 57.66524
878.2037, 57.92783
878.6858, 58.14940
879.1679, 58.29879
879.6500, 58.37170
880.1321, 58.30761
880.6143, 58.18885
881.0964, 58.12734
881.5785, 58.13971
882.0606, 58.23082
882.5427, 58.63555
883.0248, 58.92754
883.5070, 58.75510
883.9891, 57.98464
884.4712, 57.58767
884.9533, 57.61326
885.4354, 57.77599
885.9175, 57.85132
886.3997, 57.90355
886.8818, 58.15128
887.3639, 58.57024
887.8460, 58.77610
888.3281, 58.21836
888.8102, 57.69400
889.2924, 57.73394
889.7745, 58.30119
890.2566, 58.69083
890.7387, 58.89732
891.2208, 58.92730
891.7029, 58.73469
892.1851, 58.40177
892.6672, 58.06493
893.1493, 57.75690
893.6314, 57.62239
894.1135, 57.75185
894.5956, 58.05696
895.0778, 58.68444
895.5599, 59.43923
896.0420, 59.77602
896.5241, 59.35946
897.0062, 59.23423
897.4883, 59.71951
897.9705, 60.35602
898.4526, 60.15937
898.9347, 59.32391
899.4168, 58.73797
899.8989, 58.61927
900.3810, 58.80489
900.8632, 59.46343
901.3453, 60.20820
901.8274, 60.58713
902.3095, 60.15705
902.7916, 60.00947
903.2737, 60.27468
903.7559, 60.64170
904.2380, 60.85423
904.7201, 60.91956
905.2022, 60.82996
905.6843, 60.58026
906.1664, 60.43800
906.6486, 60.75409
907.1307, 61.18903
907.6128, 61.38609
908.0949, 61.29072
908.5770, 61.39852
909.0591, 62.08608
909.5413, 62.54058
910.0234, 62.29298
910.5055, 61.51679
910.9876, 61.29825
911.4697, 61.61951
911.9518, 62.13973
912.4340, 62.97204
912.9161, 63.67448
913.3982, 63.57920
913.8803, 62.97007
914.3624, 62.63651
914.8445, 63.31181
915.3267, 63.58621
915.8088, 62.99117
916.2909, 62.03696
916.7730, 61.83229
917.2551, 62.35600
917.7372, 62.63406
918.2194, 62.34114
918.7015, 62.07693
919.1836, 62.71500
919.6657, 63.70377
920.1478, 64.27434
920.6299, 64.07448
921.1121, 63.81990
921.5942, 63.59320
922.0763, 63.37613
922.5584, 63.09725
923.0405, 62.74464
923.5226, 62.79712
924.0048, 63.29456
924.4869, 63.74396
924.9690, 63.70269
925.4511, 63.42283
925.9332, 63.17018
926.4153, 62.96117
926.8975, 62.72694
927.3796, 62.33913
927.8617, 62.04760
928.3438, 61.94778
928.8259, 62.01002
929.3080, 62.08416
929.7902, 62.17051
930.2723, 62.29266
930.7544, 62.56362
931.2365, 62.75318
931.7186, 62.41306
932.2007, 61.81304
932.6829, 61.50719
933.1650, 62.02110
933.6471, 62.35064
934.1292, 62.26188
934.6113, 62.02670
935.0934, 62.10109
935.5756, 62.47970
936.0577, 62.47256
936.5398, 61.92963
937.0219, 61.37218
937.5040, 61.40653
937.9861, 61.67103
938.4683, 61.71220
938.9504, 61.38290
939.4325, 61.23821
939.9146, 61.47990
940.3967, 61.77970
940.8788, 62.00526
941.3610, 62.14938
941.8431, 62.07789
942.3252, 61.79927
942.8073, 61.57623
943.2894, 61.79697
943.7715, 61.97274
944.2537, 61.39642
944.7358, 60.34626
945.2179, 59.86528
945.7000, 60.74118
946.1821, 61.44477
946.6642, 61.74306
947.1464, 61.71569
947.6285, 61.42648
948.1106, 60.92170
948.5927, 60.54785
949.0748, 60.37843
949.5569, 60.40621
950.0391, 60.74055
950.5212, 61.21217
951.0033, 61.63346
951.4854, 62.00124
951.9675, 62.24789
952.4496, 62.38682
952.9318, 62.38067
953.4139, 62.09802
953.8960, 61.61749
954.3781, 61.40800
954.8602, 61.47189
955.3423, 61.66437
955.8245, 62.04723
956.3066, 62.38675
956.7887, 62.44860
957.2708, 62.27801
957.7529, 62.29282
958.2350, 62.59872
958.7172, 62.88811
959.1993, 63.12690
959.6814, 63.24071
960.1635, 62.89880
960.6456, 62.28126
961.1277, 61.98676
961.6099, 62.33497
962.0920, 62.79726
962.5741, 63.29840
963.0562, 63.62969
963.5383, 63.49229
964.0204, 62.55203
964.5026, 62.14252
964.9847, 62.34982
965.4668, 62.81865
965.9489, 63.43496
966.4310, 64.00990
966.9131, 64.00941
967.3953, 63.46171
967.8774, 63.15195
968.3595, 63.65784
968.8416, 64.31969
969.3237, 64.90388
969.8058, 65.38154
970.2880, 65.60462
970.7701, 65.55365
971.2522, 65.40606
971.7343, 65.16302
972.2164, 64.95241
972.6985, 64.93858
973.1807, 65.09478
973.6628, 65.37040
974.1449, 65.82516
974.6270, 66.28352
975.1091, 66.82204
975.5912, 67.25675
976.0734, 67.33600
976.5555, 67.04762
977.0376, 67.06732
977.5197, 67.43974
978.0018, 67.87355
978.4839, 68.14989
978.9661, 68.36174
979.4482, 68.64399
979.9303, 68.99141
980.4124, 69.14287
980.8945, 68.73854
981.3766, 68.67482
981.8588, 69.34727
982.3409, 70.43108
982.8230, 70.98891
983.3051, 71.10816
983.7872, 71.23838
984.2693, 71.50508
984.7515, 71.89567
985.2336, 72.50280
985.7157, 73.18315
986.1978, 73.73484
986.6799, 74.01167
987.1620, 74.49342
987.6442, 75.24300
988.1263, 76.02267
988.6084, 76.49574
989.0905, 76.85938
989.5726, 77.65025
990.0547, 78.85799
990.5369, 80.04562
991.0190, 81.03786
991.5011, 81.90051
991.9832, 82.49976
992.4653, 82.99730
992.9474, 84.08428
993.4296, 85.83055
993.9117, 87.42073
994.3938, 88.58006
994.8759, 89.55141
995.3580, 90.49989
995.8401, 91.53045
996.3223, 92.88857
996.8044, 94.94527
997.2865, 96.62168
997.7686, 97.46272
998.2507, 98.27099
998.7328, 99.75783
999.2150, 101.8664
999.6971, 103.5076
1000.179, 104.6640
1000.661, 105.8516
1001.143, 107.5051
1001.626, 109.2519
1002.108, 110.7979
1002.590, 112.1784
1003.072, 113.7440
1003.554, 115.7500
1004.036, 117.2430
1004.518, 117.8204
1005.000, 118.1568
1005.482, 119.5903
1005.965, 121.6901
1006.447, 123.2241
1006.929, 123.7675
1007.411, 124.2962
1007.893, 125.6415
1008.375, 126.8565
1008.857, 127.1328
1009.339, 126.3613
1009.822, 126.3546
1010.304, 127.1952
1010.786, 127.8880
1011.268, 127.7942
1011.750, 127.1973
1012.232, 126.1358
1012.714, 124.8548
1013.196, 124.0401
1013.678, 124.5595
1014.161, 124.6481
1014.643, 123.9183
1015.125, 122.8250
1015.607, 122.0406
1016.089, 121.5053
1016.571, 120.8394
1017.053, 119.9939
1017.535, 118.9957
1018.018, 117.7003
1018.500, 116.3906
1018.982, 115.3314
1019.464, 114.5440
1019.946, 113.5012
1020.428, 112.0516
1020.910, 110.9203
1021.392, 110.5055
1021.874, 110.5009
1022.357, 110.4598
1022.839, 110.3467
1023.321, 110.0732
1023.803, 109.4749
1024.285, 108.8990
1024.767, 108.4073
1025.249, 107.9866
1025.731, 107.5719
1026.214, 107.1567
1026.696, 107.2416
1027.178, 107.8663
1027.660, 108.4454
1028.142, 108.5406
1028.624, 108.3805
1029.106, 107.9692
1029.588, 107.4110
1030.070, 107.3785
1030.553, 108.0184
1031.035, 108.9161
1031.517, 110.0857
1031.999, 111.2761
1032.481, 111.9993
1032.963, 112.3997
1033.445, 112.8232
1033.927, 113.3175
1034.410, 113.9863
1034.892, 115.0284
1035.374, 116.1263
1035.856, 117.0047
1036.338, 117.6561
1036.820, 118.5602
1037.302, 119.7010
1037.784, 121.1691
1038.266, 123.2497
1038.749, 125.4759
1039.231, 127.4293
1039.713, 129.1416
1040.195, 130.6163
1040.677, 131.3288
1041.159, 132.7881
1041.641, 135.2917
1042.123, 138.2698
1042.605, 141.0832
1043.088, 143.8192
1043.570, 146.6069
1044.052, 149.4617
1044.534, 152.5354
1045.016, 155.8756
1045.498, 159.4984
1045.980, 163.3934
1046.462, 167.5413
1046.945, 171.8578
1047.427, 176.3730
1047.909, 181.2558
1048.391, 186.5957
1048.873, 192.1164
1049.355, 197.5491
1049.837, 203.0108
1050.319, 208.6741
1050.802, 214.5348
1051.284, 220.7151
1051.766, 227.0037
1052.248, 233.9028
1052.730, 241.8716
1053.212, 250.6372
1053.694, 259.3896
1054.176, 268.1551
1054.658, 277.0775
1055.141, 286.2667
1055.623, 295.5768
1056.105, 304.9284
1056.587, 314.4767
1057.069, 324.6129
1057.551, 335.3613
1058.033, 345.6500
1058.515, 355.3184
1058.997, 365.0886
1059.480, 376.3152
1059.962, 387.5983
1060.444, 397.4807
1060.926, 405.7365
1061.408, 414.4015
1061.890, 423.7198
1062.372, 433.0447
1062.854, 442.2132
1063.337, 451.0552
1063.819, 459.6576
1064.301, 467.4509
1064.783, 472.8580
1065.265, 474.3511
1065.747, 476.1039
1066.229, 480.6440
1066.711, 484.6424
1067.193, 485.9082
1067.676, 484.5385
1068.158, 482.5909
1068.640, 480.0425
1069.122, 476.7693
1069.604, 472.4051
1070.086, 467.5399
1070.568, 462.4839
1071.050, 457.1170
1071.532, 451.3181
1072.015, 445.1052
1072.497, 438.2996
1072.979, 430.8282
1073.461, 422.7319
1073.943, 413.5919
1074.425, 404.1096
1074.907, 395.2953
1075.389, 387.2619
1075.872, 378.7657
1076.354, 369.0100
1076.836, 359.5944
1077.318, 351.1774
1077.800, 343.2527
1078.282, 334.1248
1078.764, 324.1990
1079.246, 314.8487
1079.729, 306.3315
1080.211, 298.4586
1080.693, 291.6020
1081.175, 284.9208
1081.657, 277.9455
1082.139, 270.6523
1082.621, 262.9902
1083.103, 254.8838
1083.585, 247.4130
1084.068, 241.4383
1084.550, 236.0241
1085.032, 230.4879
1085.514, 224.8547
1085.996, 219.2764
1086.478, 213.4139
1086.960, 208.4589
1087.442, 204.6394
1087.924, 201.1273
1088.406, 197.0193
1088.889, 192.7453
1089.371, 189.0211
1089.853, 185.8384
1090.335, 182.8965
1090.817, 180.3163
1091.299, 177.6486
1091.781, 174.6262
1092.263, 171.6263
1092.746, 169.5309
1093.228, 168.1356
1093.710, 166.4526
1094.192, 164.2724
1094.674, 162.1950
1095.156, 160.7992
1095.638, 159.4598
1096.120, 157.7146
1096.603, 155.6384
1097.085, 153.7093
1097.567, 151.9234
1098.049, 150.3575
1098.531, 149.0579
1099.013, 147.9439
1099.495, 146.9274
1099.977, 146.0299
1100.459, 145.2731
1100.942, 144.7033
1101.424, 144.2181
1101.906, 143.9097
1102.388, 143.3827
1102.870, 142.2867
1103.352, 140.8415
1103.834, 139.2043
1104.316, 137.5615
1104.798, 136.4837
1105.281, 136.7846
1105.763, 136.7794
1106.245, 136.1737
1106.727, 135.3146
1107.209, 134.5961
1107.691, 133.9654
1108.173, 133.1429
1108.655, 132.1397
1109.138, 131.4153
1109.620, 131.3186
1110.102, 131.4671
1110.584, 131.9301
1111.066, 132.4002
1111.548, 132.1728
1112.030, 131.2566
1112.512, 130.2671
1112.995, 129.3065
1113.477, 128.2760
1113.959, 126.7214
1114.441, 125.3352
1114.923, 124.9735
1115.405, 125.6007
1115.887, 125.3204
1116.369, 123.9112
1116.851, 122.8594
1117.333, 122.8231
1117.816, 123.1041
1118.298, 122.8748
1118.780, 122.3175
1119.262, 121.6461
1119.744, 120.7554
1120.226, 120.2667
1120.708, 120.3252
1121.190, 120.4738
1121.673, 120.5268
1122.155, 120.4296
1122.637, 119.9711
1123.119, 119.2541
1123.601, 118.5623
1124.083, 118.0150
1124.565, 117.4784
1125.047, 116.8051
1125.530, 116.2893
1126.012, 116.2406
1126.494, 116.5947
1126.976, 117.1674
1127.458, 117.8845
1127.940, 118.2098
1128.422, 117.3961
1128.904, 116.6177
1129.386, 116.4425
1129.869, 116.5902
1130.351, 116.6888
1130.833, 116.7369
1131.315, 116.7110
1131.797, 116.6117
1132.279, 116.3519
1132.761, 115.5368
1133.243, 114.8234
1133.725, 114.8395
1134.208, 115.4263
1134.690, 115.7033
1135.172, 115.6201
1135.654, 115.6475
1136.136, 115.9588
1136.618, 116.1832
1137.100, 115.7270
1137.582, 115.0782
1138.065, 114.7953
1138.547, 115.0143
1139.029, 115.1804
1139.511, 115.3670
1139.993, 115.2015
1140.475, 114.3839
1140.957, 113.3841
1141.439, 112.9193
1141.922, 112.8080
1142.404, 112.7813
1142.886, 112.9790
1143.368, 112.6138
1143.850, 111.3681
1144.332, 110.1900
1144.814, 109.8541
1145.296, 109.9231
1145.778, 109.1709
1146.260, 107.8450
1146.743, 106.6456
1147.225, 105.8750
1147.707, 105.2697
1148.189, 104.9002
1148.671, 104.4898
1149.153, 103.8231
1149.635, 102.9087
1150.117, 101.6324
1150.600, 100.0615
1151.082, 98.66623
1151.564, 97.92260
1152.046, 97.09237
1152.528, 95.72820
1153.010, 94.29295
1153.492, 93.55721
1153.974, 93.42935
1154.457, 92.74913
1154.939, 91.43025
1155.421, 90.05711
1155.903, 88.98138
1156.385, 88.01244
1156.867, 87.17296
1157.349, 86.31954
1157.831, 85.00137
1158.313, 83.20015
1158.796, 81.90352
1159.278, 81.32328
1159.760, 80.79598
1160.242, 79.73245
1160.724, 78.51158
1161.206, 77.34798
1161.688, 76.28426
1162.170, 75.60482
1162.652, 75.34748
1163.135, 75.03246
1163.617, 74.50361
1164.099, 73.94544
1164.581, 73.56340
1165.063, 73.23945
1165.545, 72.84077
1166.027, 72.34679
1166.509, 71.88623
1166.992, 71.46711
1167.474, 71.02328
1167.956, 70.52422
1168.438, 69.99200
1168.920, 69.32015
1169.402, 68.68605
1169.884, 68.37273
1170.366, 68.60344
1170.849, 68.57621
1171.331, 68.19798
1171.813, 67.90254
1172.295, 68.10235
1172.777, 68.37012
1173.259, 67.83772
1173.741, 66.88017
1174.223, 66.25022
1174.705, 66.31184
1175.188, 66.46153
1175.670, 66.75356
1176.152, 66.96762
1176.634, 66.87536
1177.116, 66.62196
1177.598, 66.49274
1178.080, 66.45013
1178.562, 66.37279
1179.044, 66.14967
1179.527, 66.01460
1180.009, 66.04868
1180.491, 66.03859
1180.973, 65.67919
1181.455, 65.15477
1181.937, 64.96360
1182.419, 65.04239
1182.901, 64.98920
1183.384, 64.45558
1183.866, 64.05074
1184.348, 63.85609
1184.830, 63.84779
1185.312, 64.13399
1185.794, 64.55390
1186.276, 64.62090
1186.758, 64.33504
1187.240, 64.10825
1187.723, 64.33554
1188.205, 64.31465
1188.687, 63.73437
1189.169, 63.02632
1189.651, 63.02672
1190.133, 63.47906
1190.615, 63.54707
1191.097, 63.11947
1191.579, 62.74855
1192.062, 62.80364
1192.544, 62.79215
1193.026, 62.51022
1193.508, 62.11077
1193.990, 61.88691
1194.472, 61.83294
1194.954, 62.02562
1195.436, 62.53603
1195.919, 62.74192
1196.401, 61.95560
1196.883, 61.28646
1197.365, 61.28005
1197.847, 61.64809
1198.329, 61.47713
1198.811, 60.93048
1199.293, 60.68587
1199.776, 60.99611
1200.258, 61.20745
1200.740, 60.76719
1201.222, 60.43158
1201.704, 60.66454
1202.186, 61.26285
1202.668, 61.37494
1203.150, 61.11433
1203.632, 60.98608
1204.115, 61.30910
1204.597, 61.31441
1205.079, 60.02968
1205.561, 58.96622
1206.043, 59.17874
1206.525, 60.33493
1207.007, 60.73157
1207.489, 60.50106
1207.971, 60.26012
1208.454, 60.32245
1208.936, 60.26154
1209.418, 59.70387
1209.900, 59.14311
1210.382, 58.93156
1210.864, 59.00615
1211.346, 58.91389
1211.828, 58.70325
1212.311, 58.62105
1212.793, 58.91799
1213.275, 59.14590
1213.757, 59.10410
1214.239, 58.96484
1214.721, 58.83508
1215.203, 58.71474
1215.685, 58.57285
1216.167, 58.42667
1216.650, 58.36338
1217.132, 58.58759
1217.614, 58.68394
1218.096, 58.36127
1218.578, 58.03153
1219.060, 58.17065
1219.542, 58.66128
1220.024, 58.57172
1220.506, 58.01282
1220.989, 57.68516
1221.471, 58.27209
1221.953, 58.68678
1222.435, 58.49533
1222.917, 58.15991
1223.399, 58.15970
1223.881, 58.43029
1224.363, 58.73978
1224.846, 59.04008
1225.328, 59.09571
1225.810, 58.52075
1226.292, 58.04360
1226.774, 57.83467
1227.256, 57.79369
1227.738, 57.91016
1228.220, 58.08972
1228.703, 57.85435
1229.185, 57.27327
1229.667, 56.98156
1230.149, 57.76208
1230.631, 58.16559
1231.113, 57.73831
1231.595, 57.03753
1232.077, 56.76850
1232.559, 56.80080
1233.042, 56.77818
1233.524, 56.68799
1234.006, 56.65189
1234.488, 56.80126
1234.970, 56.90575
1235.452, 56.95409
1235.934, 56.88408
1236.416, 56.53297
1236.898, 56.02706
1237.381, 55.61074
1237.863, 55.31544
1238.345, 55.17881
1238.827, 55.31810
1239.309, 55.48220
1239.791, 55.65644
1240.273, 55.79012
1240.755, 55.82420
1241.238, 55.76810
1241.720, 55.61592
1242.202, 55.37631
1242.684, 55.13817
1243.166, 54.84551
1243.648, 54.71511
1244.130, 54.82079
1244.612, 55.00795
1245.094, 55.10300
1245.577, 55.13143
1246.059, 55.14772
1246.541, 55.14927
1247.023, 55.00382
1247.505, 54.57324
1247.987, 54.41839
1248.469, 54.73820
1248.951, 55.07598
1249.433, 54.74215
1249.916, 54.17665
1250.398, 53.87499
1250.880, 53.88540
1251.362, 53.99929
1251.844, 54.23228
1252.326, 54.48531
1252.808, 54.78397
1253.290, 54.89058
1253.773, 54.23703
1254.255, 53.50068
1254.737, 53.44186
1255.219, 54.03104
1255.701, 54.36318
1256.183, 54.40705
1256.665, 54.48952
1257.147, 54.70770
1257.630, 54.84318
1258.112, 54.44161
1258.594, 54.07833
1259.076, 54.45649
1259.558, 55.32757
1260.040, 55.55447
1260.522, 55.14304
1261.004, 54.64187
1261.486, 54.13519
1261.969, 53.80123
1262.451, 53.98042
1262.933, 54.17342
1263.415, 53.93701
1263.897, 53.48345
1264.379, 53.66727
1264.861, 54.37027
1265.343, 54.62458
1265.825, 54.14367
1266.308, 53.84372
1266.790, 54.76460
1267.272, 55.40465
1267.754, 54.90311
1268.236, 53.76150
1268.718, 53.21706
1269.200, 53.16688
1269.682, 53.27666
1270.165, 53.49253
1270.647, 53.74620
1271.129, 54.11477
1271.611, 54.37621
1272.093, 54.44742
1272.575, 54.39225
1273.057, 54.34469
1273.539, 54.27043
1274.021, 54.04556
##END=



