##NAMES=Beryl
##RRUFFID=R060943
##IDEAL CHEMISTRY=Be_3_Al_2_Si_6_O_18_
##LOCALITY=Xinjiang, China
##OWNER=RRUFF
##SOURCE=Lawrence W. Snee
##DESCRIPTION=Green hexagonal prisms, variety emerald
##STATUS=The identification of this mineral has been confirmed by X-ray diffraction and chemical analysis
##URL=rruff.info/R060943
##MEASURED CHEMISTRY=(Be_2.96_Li_0.04_)_Σ=3_(Al_1.64_Mg_0.21_V^3+^_0.06_Fe^3+^_0.04_Sc^3+^_0.03_Cr^3+^_0.02_)_Σ=2_Si_6.00_O_18_·Na_0.25_
126.8263, 7986.964
127.3084, 8032.647
127.7905, 8070.716
128.2727, 8128.060
128.7548, 8199.010
129.2369, 8268.226
129.7190, 8336.441
130.2011, 8397.852
130.6832, 8432.789
131.1654, 8438.888
131.6475, 8443.638
132.1296, 8486.691
132.6117, 8563.071
133.0938, 8617.414
133.5759, 8612.489
134.0581, 8560.151
134.5402, 8554.354
135.0223, 8603.865
135.5044, 8677.537
135.9865, 8727.780
136.4686, 8751.832
136.9508, 8772.595
137.4329, 8798.276
137.9150, 8828.355
138.3971, 8867.958
138.8792, 8920.210
139.3613, 8980.321
139.8434, 9038.897
140.3256, 9100.142
140.8077, 9151.712
141.2898, 9186.380
141.7719, 9200.534
142.2540, 9208.895
142.7361, 9213.523
143.2183, 9213.605
143.7004, 9201.979
144.1825, 9170.601
144.6646, 9136.722
145.1467, 9113.875
145.6288, 9109.200
146.1110, 9102.487
146.5931, 9091.720
147.0752, 9076.633
147.5573, 9054.617
148.0394, 9025.914
148.5215, 8989.846
149.0037, 8944.701
149.4858, 8869.722
149.9679, 8808.373
150.4500, 8773.308
150.9321, 8776.166
151.4142, 8767.683
151.8964, 8742.346
152.3785, 8707.502
152.8606, 8673.366
153.3427, 8633.711
153.8248, 8601.389
154.3069, 8582.241
154.7890, 8584.052
155.2712, 8583.881
155.7533, 8575.304
156.2354, 8562.901
156.7175, 8556.413
157.1996, 8556.474
157.6817, 8563.652
158.1639, 8578.815
158.6460, 8609.578
159.1281, 8637.156
159.6102, 8656.021
160.0923, 8666.879
160.5744, 8673.505
161.0566, 8669.669
161.5387, 8665.061
162.0208, 8666.649
162.5029, 8682.405
162.9850, 8698.332
163.4671, 8704.968
163.9493, 8703.757
164.4314, 8709.781
164.9135, 8750.037
165.3956, 8794.232
165.8777, 8811.311
166.3598, 8762.565
166.8420, 8704.652
167.3241, 8668.980
167.8062, 8656.601
168.2883, 8661.163
168.7704, 8699.531
169.2525, 8749.525
169.7346, 8777.690
170.2168, 8749.605
170.6989, 8705.004
171.1810, 8679.184
171.6631, 8676.349
172.1452, 8678.209
172.6273, 8666.501
173.1095, 8648.177
173.5916, 8638.488
174.0737, 8655.882
174.5558, 8682.358
175.0379, 8694.912
175.5201, 8689.748
176.0022, 8675.337
176.4843, 8650.806
176.9664, 8621.436
177.4485, 8605.543
177.9306, 8625.532
178.4128, 8664.539
178.8949, 8690.988
179.3770, 8694.868
179.8591, 8694.671
180.3412, 8722.252
180.8233, 8773.363
181.3055, 8815.476
181.7876, 8820.709
182.2697, 8799.101
182.7518, 8775.932
183.2339, 8752.757
183.7160, 8734.861
184.1981, 8736.101
184.6803, 8755.986
185.1624, 8777.788
185.6445, 8788.971
186.1266, 8790.684
186.6087, 8787.519
187.0908, 8775.367
187.5730, 8761.637
188.0551, 8768.590
188.5372, 8797.864
189.0193, 8831.965
189.5014, 8857.310
189.9835, 8874.143
190.4657, 8881.850
190.9478, 8876.356
191.4299, 8861.785
191.9120, 8856.393
192.3941, 8861.983
192.8762, 8868.627
193.3584, 8868.734
193.8405, 8862.397
194.3226, 8840.976
194.8047, 8790.749
195.2868, 8717.690
195.7689, 8677.357
196.2511, 8676.419
196.7332, 8689.795
197.2153, 8678.962
197.6974, 8641.460
198.1795, 8611.479
198.6616, 8606.739
199.1437, 8627.362
199.6259, 8638.634
200.1080, 8638.610
200.5901, 8632.640
201.0722, 8629.760
201.5543, 8630.598
202.0364, 8630.348
202.5186, 8627.219
203.0007, 8621.106
203.4828, 8609.002
203.9649, 8586.176
204.4470, 8561.812
204.9291, 8555.511
205.4113, 8568.990
205.8934, 8592.577
206.3755, 8628.774
206.8576, 8684.051
207.3397, 8709.718
207.8218, 8695.762
208.3040, 8656.620
208.7861, 8630.432
209.2682, 8623.333
209.7503, 8614.344
210.2324, 8587.479
210.7145, 8534.719
211.1967, 8501.885
211.6788, 8495.747
212.1609, 8510.674
212.6430, 8530.917
213.1251, 8562.979
213.6072, 8587.212
214.0894, 8588.580
214.5715, 8557.621
215.0536, 8535.205
215.5357, 8528.712
216.0178, 8533.209
216.4999, 8524.826
216.9820, 8494.568
217.4642, 8465.974
217.9463, 8453.730
218.4284, 8459.470
218.9105, 8477.904
219.3926, 8517.031
219.8747, 8570.243
220.3569, 8595.760
220.8390, 8582.277
221.3211, 8557.013
221.8032, 8537.646
222.2853, 8522.396
222.7674, 8519.376
223.2496, 8535.410
223.7317, 8567.978
224.2138, 8587.246
224.6959, 8591.697
225.1780, 8585.542
225.6601, 8569.501
226.1423, 8534.648
226.6244, 8510.012
227.1065, 8502.179
227.5886, 8510.343
228.0707, 8516.916
228.5528, 8518.286
229.0350, 8521.729
229.5171, 8536.708
229.9992, 8580.032
230.4813, 8599.714
230.9634, 8574.606
231.4455, 8504.548
231.9276, 8476.017
232.4098, 8510.312
232.8919, 8564.574
233.3740, 8598.505
233.8561, 8605.822
234.3382, 8605.291
234.8203, 8597.219
235.3025, 8581.223
235.7846, 8573.353
236.2667, 8577.806
236.7488, 8586.586
237.2309, 8590.962
237.7130, 8585.420
238.1952, 8586.046
238.6773, 8598.385
239.1594, 8623.542
239.6415, 8641.646
240.1236, 8647.536
240.6057, 8651.358
241.0879, 8664.411
241.5700, 8692.258
242.0521, 8718.844
242.5342, 8738.971
243.0163, 8751.387
243.4984, 8772.918
243.9806, 8806.074
244.4627, 8845.722
244.9448, 8886.667
245.4269, 8929.605
245.9090, 8972.185
246.3911, 9016.686
246.8732, 9064.224
247.3554, 9094.468
247.8375, 9095.854
248.3196, 9089.863
248.8017, 9102.883
249.2838, 9152.013
249.7659, 9187.682
250.2481, 9198.286
250.7302, 9182.570
251.2123, 9159.943
251.6944, 9131.984
252.1765, 9096.563
252.6586, 9051.208
253.1408, 8996.928
253.6229, 8931.595
254.1050, 8853.313
254.5871, 8762.575
255.0692, 8664.354
255.5513, 8551.246
256.0334, 8438.479
256.5156, 8341.412
256.9977, 8262.858
257.4798, 8192.843
257.9619, 8127.732
258.4440, 8066.220
258.9261, 8021.337
259.4083, 7996.434
259.8904, 7983.123
260.3725, 7973.156
260.8546, 7967.702
261.3367, 7961.704
261.8188, 7953.073
262.3010, 7941.438
262.7831, 7933.774
263.2652, 7930.697
263.7473, 7930.423
264.2294, 7931.146
264.7115, 7932.912
265.1937, 7935.460
265.6758, 7939.331
266.1579, 7944.458
266.6400, 7946.270
267.1221, 7941.794
267.6042, 7939.023
268.0864, 7948.627
268.5685, 7975.927
269.0506, 7997.772
269.5327, 8006.166
270.0148, 8002.448
270.4969, 8011.477
270.9791, 8039.806
271.4612, 8068.274
271.9433, 8074.621
272.4254, 8054.215
272.9075, 8034.446
273.3896, 8022.493
273.8718, 8017.197
274.3539, 8006.019
274.8360, 7986.439
275.3181, 7966.832
275.8002, 7954.343
276.2823, 7948.960
276.7645, 7950.638
277.2466, 7961.624
277.7287, 7979.886
278.2108, 7992.866
278.6929, 7999.815
279.1750, 8003.863
279.6572, 8005.714
280.1393, 8004.762
280.6214, 8009.634
281.1035, 8022.382
281.5856, 8042.053
282.0677, 8069.512
282.5499, 8107.737
283.0320, 8138.246
283.5141, 8135.946
283.9962, 8101.446
284.4783, 8087.274
284.9604, 8110.311
285.4425, 8156.654
285.9247, 8181.557
286.4068, 8183.237
286.8889, 8183.405
287.3710, 8201.787
287.8531, 8236.219
288.3352, 8264.566
288.8174, 8278.788
289.2995, 8289.148
289.7816, 8326.091
290.2637, 8389.248
290.7458, 8445.637
291.2279, 8469.156
291.7101, 8464.351
292.1922, 8451.208
292.6743, 8430.855
293.1564, 8407.149
293.6385, 8384.771
294.1206, 8364.135
294.6028, 8348.944
295.0849, 8347.993
295.5670, 8355.004
296.0491, 8350.522
296.5312, 8329.866
297.0133, 8302.271
297.4955, 8277.406
297.9776, 8256.314
298.4597, 8241.340
298.9418, 8232.943
299.4239, 8232.164
299.9060, 8244.257
300.3882, 8273.240
300.8703, 8303.144
301.3524, 8307.978
301.8345, 8295.505
302.3166, 8292.903
302.7987, 8327.127
303.2809, 8375.322
303.7630, 8404.073
304.2451, 8406.719
304.7272, 8404.511
305.2093, 8414.596
305.6914, 8434.626
306.1736, 8458.650
306.6557, 8489.560
307.1378, 8520.418
307.6199, 8543.590
308.1020, 8558.379
308.5841, 8570.644
309.0663, 8575.468
309.5484, 8582.235
310.0305, 8606.300
310.5126, 8668.567
310.9947, 8740.949
311.4768, 8802.175
311.9590, 8850.874
312.4411, 8899.008
312.9232, 8946.093
313.4053, 8998.496
313.8874, 9063.103
314.3695, 9144.133
314.8516, 9237.864
315.3337, 9347.316
315.8159, 9471.719
316.2980, 9594.225
316.7801, 9701.222
317.2622, 9806.978
317.7443, 9925.686
318.2264, 10047.49
318.7086, 10195.14
319.1907, 10384.20
319.6728, 10610.57
320.1549, 10843.48
320.6370, 11053.36
321.1191, 11278.87
321.6013, 11547.27
322.0834, 11932.38
322.5655, 12280.58
323.0476, 12589.74
323.5297, 12847.05
324.0118, 13001.20
324.4940, 13064.42
324.9761, 13006.99
325.4582, 12810.29
325.9403, 12400.79
326.4224, 11953.68
326.9045, 11437.29
327.3867, 10885.94
327.8688, 10393.23
328.3509, 9953.814
328.8330, 9579.858
329.3151, 9277.475
329.7972, 9074.399
330.2794, 8883.751
330.7615, 8694.283
331.2436, 8519.241
331.7257, 8386.307
332.2078, 8318.859
332.6899, 8259.466
333.1721, 8188.555
333.6542, 8099.483
334.1363, 8033.983
334.6184, 8001.392
335.1005, 7983.759
335.5826, 7956.584
336.0648, 7912.916
336.5469, 7875.892
337.0290, 7850.801
337.5111, 7837.549
337.9932, 7834.906
338.4753, 7850.393
338.9575, 7861.921
339.4396, 7839.660
339.9217, 7772.940
340.4038, 7730.213
340.8859, 7733.064
341.3680, 7769.896
341.8502, 7785.524
342.3323, 7777.477
342.8144, 7758.805
343.2965, 7734.759
343.7786, 7705.659
344.2607, 7689.923
344.7429, 7693.947
345.2250, 7709.277
345.7071, 7717.844
346.1892, 7719.848
346.6713, 7717.218
347.1534, 7707.705
347.6355, 7693.771
348.1176, 7685.205
348.5998, 7682.926
349.0819, 7685.853
349.5640, 7698.158
350.0461, 7716.804
350.5282, 7725.633
351.0103, 7705.118
351.4925, 7671.528
351.9746, 7653.666
352.4567, 7654.403
352.9388, 7664.410
353.4209, 7680.164
353.9030, 7698.482
354.3852, 7712.325
354.8673, 7721.083
355.3494, 7722.749
355.8315, 7712.188
356.3136, 7689.818
356.7957, 7667.964
357.2779, 7654.097
357.7600, 7646.464
358.2421, 7642.893
358.7242, 7645.464
359.2063, 7649.359
359.6884, 7650.510
360.1706, 7649.793
360.6527, 7652.736
361.1348, 7666.495
361.6169, 7682.242
362.0990, 7692.991
362.5811, 7695.995
363.0633, 7695.468
363.5454, 7690.971
364.0275, 7683.533
364.5096, 7676.274
364.9917, 7663.399
365.4738, 7655.939
365.9560, 7661.060
366.4381, 7689.277
366.9202, 7708.852
367.4023, 7702.687
367.8844, 7688.725
368.3665, 7696.033
368.8487, 7759.934
369.3308, 7812.025
369.8129, 7831.292
370.2950, 7809.700
370.7771, 7799.200
371.2592, 7801.280
371.7414, 7813.393
372.2235, 7834.050
372.7056, 7868.641
373.1877, 7901.228
373.6698, 7926.094
374.1519, 7944.397
374.6341, 7975.314
375.1162, 8025.625
375.5983, 8074.938
376.0804, 8102.808
376.5625, 8101.006
377.0446, 8119.234
377.5267, 8167.744
378.0089, 8236.730
378.4910, 8297.789
378.9731, 8349.801
379.4552, 8401.053
379.9373, 8455.833
380.4194, 8514.482
380.9016, 8574.108
381.3837, 8636.673
381.8658, 8696.924
382.3479, 8741.982
382.8300, 8774.526
383.3121, 8816.070
383.7943, 8878.836
384.2764, 8956.729
384.7585, 9040.335
385.2406, 9129.294
385.7227, 9215.137
386.2048, 9268.940
386.6870, 9312.046
387.1691, 9391.658
387.6512, 9538.305
388.1333, 9713.392
388.6154, 9884.128
389.0975, 10049.89
389.5797, 10213.67
390.0618, 10358.31
390.5439, 10508.91
391.0260, 10688.75
391.5081, 10905.75
391.9902, 11147.08
392.4724, 11418.33
392.9545, 11710.88
393.4366, 12006.45
393.9187, 12296.02
394.4008, 12587.29
394.8829, 12899.51
395.3651, 13247.19
395.8472, 13557.58
396.3293, 13832.04
396.8114, 14052.77
397.2935, 14198.25
397.7756, 14298.62
398.2578, 14288.44
398.7399, 14134.76
399.2220, 13830.14
399.7041, 13486.30
400.1862, 13078.90
400.6683, 12651.51
401.1505, 12232.07
401.6326, 11813.23
402.1147, 11412.99
402.5968, 11023.20
403.0789, 10651.74
403.5610, 10327.83
404.0432, 10058.50
404.5253, 9823.051
405.0074, 9615.784
405.4895, 9440.225
405.9716, 9268.009
406.4537, 9092.592
406.9359, 8931.512
407.4180, 8818.505
407.9001, 8756.273
408.3822, 8707.224
408.8643, 8659.975
409.3464, 8614.393
409.8285, 8570.565
410.3106, 8528.960
410.7928, 8487.003
411.2749, 8433.612
411.7570, 8375.358
412.2391, 8340.939
412.7212, 8347.133
413.2033, 8366.930
413.6855, 8357.690
414.1676, 8324.371
414.6497, 8292.489
415.1318, 8279.867
415.6139, 8277.820
416.0960, 8276.498
416.5782, 8274.840
417.0603, 8271.707
417.5424, 8265.346
418.0245, 8256.898
418.5066, 8248.487
418.9887, 8247.894
419.4709, 8241.822
419.9530, 8219.624
420.4351, 8180.720
420.9172, 8143.692
421.3993, 8117.234
421.8814, 8094.990
422.3636, 8071.716
422.8457, 8038.360
423.3278, 8013.287
423.8099, 8003.522
424.2920, 8006.098
424.7741, 8007.332
425.2563, 8014.108
425.7384, 8012.594
426.2205, 7994.395
426.7026, 7944.896
427.1847, 7915.542
427.6668, 7912.691
428.1490, 7925.869
428.6311, 7940.865
429.1132, 7960.563
429.5953, 7974.609
430.0774, 7978.996
430.5595, 7974.315
431.0417, 7966.414
431.5238, 7952.341
432.0059, 7944.342
432.4880, 7956.861
432.9701, 7989.326
433.4522, 8019.325
433.9344, 8043.025
434.4165, 8062.985
434.8986, 8077.562
435.3807, 8088.770
435.8628, 8118.384
436.3449, 8199.806
436.8271, 8305.388
437.3092, 8373.481
437.7913, 8395.048
438.2734, 8409.109
438.7555, 8447.140
439.2376, 8503.679
439.7197, 8568.626
440.2018, 8653.318
440.6840, 8732.927
441.1661, 8780.537
441.6482, 8800.491
442.1303, 8830.051
442.6124, 8910.443
443.0945, 8994.408
443.5767, 9045.114
444.0588, 9052.348
444.5409, 9032.190
445.0230, 8974.107
445.5051, 8892.165
445.9872, 8816.281
446.4694, 8770.288
446.9515, 8713.340
447.4336, 8628.479
447.9157, 8508.657
448.3978, 8400.022
448.8799, 8304.113
449.3621, 8219.014
449.8442, 8143.529
450.3263, 8075.520
450.8084, 8024.538
451.2905, 8000.890
451.7726, 7993.641
452.2548, 7953.797
452.7369, 7870.981
453.2190, 7791.639
453.7011, 7740.881
454.1832, 7718.570
454.6653, 7711.752
455.1475, 7723.751
455.6296, 7738.336
456.1117, 7731.053
456.5938, 7705.516
457.0759, 7681.827
457.5580, 7665.415
458.0402, 7657.103
458.5223, 7665.907
459.0044, 7689.790
459.4865, 7703.505
459.9686, 7677.622
460.4507, 7634.916
460.9329, 7603.828
461.4150, 7592.361
461.8971, 7590.468
462.3792, 7598.871
462.8613, 7611.866
463.3434, 7618.365
463.8256, 7604.882
464.3077, 7591.563
464.7898, 7590.872
465.2719, 7605.638
465.7540, 7611.914
466.2361, 7591.843
466.7183, 7568.471
467.2004, 7560.616
467.6825, 7592.489
468.1646, 7609.956
468.6467, 7598.424
469.1288, 7569.682
469.6109, 7567.600
470.0930, 7611.043
470.5752, 7647.226
471.0573, 7650.028
471.5394, 7612.898
472.0215, 7590.271
472.5036, 7585.010
472.9857, 7588.077
473.4679, 7590.202
473.9500, 7591.392
474.4321, 7590.222
474.9142, 7587.309
475.3963, 7581.248
475.8784, 7568.313
476.3606, 7548.847
476.8427, 7525.285
477.3248, 7486.389
477.8069, 7448.164
478.2890, 7444.934
478.7711, 7486.543
479.2533, 7534.054
479.7354, 7551.977
480.2175, 7552.914
480.6996, 7558.281
481.1817, 7593.298
481.6638, 7620.849
482.1460, 7604.727
482.6281, 7551.803
483.1102, 7526.433
483.5923, 7580.917
484.0744, 7649.186
484.5565, 7690.249
485.0387, 7684.980
485.5208, 7673.913
486.0029, 7650.679
486.4850, 7625.873
486.9671, 7617.374
487.4492, 7639.672
487.9314, 7656.353
488.4135, 7657.330
488.8956, 7643.223
489.3777, 7631.615
489.8598, 7622.184
490.3419, 7616.686
490.8241, 7616.690
491.3062, 7622.505
491.7883, 7634.413
492.2704, 7656.955
492.7525, 7677.359
493.2346, 7666.063
493.7168, 7627.628
494.1989, 7597.420
494.6810, 7595.733
495.1631, 7612.008
495.6452, 7629.512
496.1273, 7647.867
496.6095, 7665.536
497.0916, 7679.803
497.5737, 7692.729
498.0558, 7707.708
498.5379, 7728.784
499.0201, 7745.984
499.5022, 7753.444
499.9843, 7753.093
500.4664, 7748.577
500.9485, 7732.537
501.4306, 7720.620
501.9127, 7719.351
502.3948, 7729.736
502.8770, 7745.132
503.3591, 7773.092
503.8412, 7800.034
504.3233, 7815.898
504.8054, 7809.749
505.2875, 7812.952
505.7697, 7828.786
506.2518, 7853.991
506.7339, 7881.038
507.2160, 7910.028
507.6981, 7940.064
508.1802, 7972.225
508.6624, 8005.709
509.1445, 8031.510
509.6266, 8048.432
510.1087, 8067.740
510.5908, 8106.864
511.0729, 8158.005
511.5551, 8193.186
512.0372, 8199.514
512.5193, 8204.011
513.0014, 8237.882
513.4835, 8294.903
513.9656, 8358.532
514.4478, 8426.469
514.9299, 8493.486
515.4120, 8552.869
515.8941, 8604.235
516.3762, 8661.907
516.8583, 8721.160
517.3405, 8794.343
517.8226, 8891.286
518.3047, 9040.422
518.7868, 9177.866
519.2689, 9297.636
519.7510, 9401.484
520.2332, 9491.050
520.7153, 9551.390
521.1974, 9618.500
521.6795, 9705.826
522.1616, 9813.271
522.6437, 9913.197
523.1259, 10010.97
523.6080, 10084.81
524.0901, 10108.56
524.5722, 10083.18
525.0543, 10060.14
525.5364, 10049.32
526.0186, 10032.48
526.5007, 9981.227
526.9828, 9899.303
527.4649, 9801.157
527.9470, 9694.537
528.4291, 9575.105
528.9113, 9423.339
529.3934, 9244.341
529.8755, 9075.401
530.3576, 8941.143
530.8397, 8827.038
531.3218, 8719.294
531.8040, 8618.141
532.2861, 8518.695
532.7682, 8424.222
533.2503, 8330.655
533.7324, 8234.504
534.2145, 8120.358
534.6967, 8019.758
535.1788, 7941.749
535.6609, 7884.742
536.1430, 7823.026
536.6251, 7752.052
537.1072, 7686.113
537.5894, 7633.587
538.0715, 7595.069
538.5536, 7569.396
539.0357, 7560.941
539.5178, 7555.021
539.9999, 7527.248
540.4821, 7480.876
540.9642, 7443.410
541.4463, 7424.771
541.9284, 7416.861
542.4105, 7409.500
542.8926, 7401.869
543.3748, 7390.033
543.8569, 7365.767
544.3390, 7339.370
544.8211, 7322.409
545.3032, 7317.041
545.7853, 7309.712
546.2675, 7288.268
546.7495, 7263.997
547.2316, 7248.043
547.7137, 7255.468
548.1959, 7257.016
548.6780, 7242.919
549.1601, 7219.405
549.6422, 7204.633
550.1243, 7203.219
550.6064, 7204.006
551.0886, 7203.829
551.5707, 7202.674
552.0528, 7203.060
552.5349, 7207.222
553.0170, 7206.800
553.4991, 7187.446
553.9813, 7151.362
554.4634, 7135.783
554.9455, 7148.687
555.4276, 7175.568
555.9097, 7198.710
556.3918, 7218.419
556.8740, 7235.991
557.3561, 7255.634
557.8382, 7271.074
558.3203, 7271.277
558.8024, 7259.023
559.2845, 7252.608
559.7667, 7268.771
560.2488, 7289.202
560.7309, 7299.236
561.2130, 7289.705
561.6951, 7290.634
562.1772, 7325.601
562.6594, 7366.103
563.1415, 7378.407
563.6236, 7339.928
564.1057, 7308.042
564.5878, 7287.861
565.0699, 7279.453
565.5521, 7286.416
566.0342, 7314.169
566.5163, 7337.280
566.9984, 7341.416
567.4805, 7328.924
567.9626, 7316.917
568.4448, 7304.368
568.9269, 7302.216
569.4090, 7327.599
569.8911, 7370.340
570.3732, 7410.977
570.8553, 7449.911
571.3375, 7473.475
571.8196, 7457.074
572.3017, 7417.137
572.7838, 7385.172
573.2659, 7373.881
573.7480, 7372.901
574.2302, 7381.435
574.7123, 7398.374
575.1944, 7411.985
575.6765, 7420.520
576.1586, 7425.039
576.6407, 7424.085
577.1229, 7411.002
577.6050, 7416.168
578.0871, 7452.786
578.5692, 7491.127
579.0513, 7485.854
579.5334, 7429.038
580.0156, 7405.413
580.4977, 7442.902
580.9798, 7506.720
581.4619, 7522.182
581.9440, 7494.704
582.4261, 7463.411
582.9083, 7446.569
583.3904, 7439.915
583.8725, 7441.080
584.3546, 7449.179
584.8367, 7453.019
585.3188, 7434.645
585.8010, 7414.899
586.2831, 7415.806
586.7652, 7458.627
587.2473, 7483.511
587.7294, 7455.597
588.2115, 7407.285
588.6937, 7384.792
589.1758, 7415.890
589.6579, 7433.778
590.1400, 7420.794
590.6221, 7387.087
591.1042, 7378.772
591.5864, 7403.058
592.0685, 7427.623
592.5506, 7439.284
593.0327, 7438.196
593.5148, 7418.348
593.9969, 7377.190
594.4791, 7343.616
594.9612, 7350.658
595.4433, 7383.514
595.9254, 7412.086
596.4075, 7427.949
596.8896, 7445.461
597.3718, 7489.825
597.8539, 7541.154
598.3360, 7566.154
598.8181, 7521.861
599.3002, 7480.110
599.7823, 7472.542
600.2645, 7493.739
600.7466, 7504.070
601.2287, 7489.600
601.7108, 7475.686
602.1929, 7472.197
602.6750, 7480.666
603.1572, 7489.000
603.6393, 7497.583
604.1214, 7505.300
604.6035, 7508.663
605.0856, 7508.172
605.5677, 7518.458
606.0499, 7545.623
606.5320, 7573.511
607.0141, 7572.229
607.4962, 7552.075
607.9783, 7542.613
608.4604, 7564.060
608.9425, 7595.824
609.4246, 7626.461
609.9067, 7654.355
610.3889, 7671.424
610.8710, 7663.077
611.3531, 7652.238
611.8352, 7649.418
612.3173, 7655.299
612.7994, 7670.685
613.2816, 7697.400
613.7637, 7731.967
614.2458, 7774.062
614.7279, 7828.983
615.2100, 7871.658
615.6921, 7894.167
616.1743, 7913.774
616.6564, 7968.482
617.1385, 8055.548
617.6206, 8121.449
618.1027, 8140.513
618.5848, 8136.593
619.0670, 8146.609
619.5491, 8169.095
620.0312, 8197.444
620.5133, 8248.191
620.9954, 8289.301
621.4775, 8289.476
621.9597, 8244.651
622.4418, 8194.247
622.9239, 8154.319
623.4060, 8112.033
623.8881, 8056.230
624.3702, 7961.558
624.8524, 7897.610
625.3345, 7877.536
625.8166, 7878.064
626.2987, 7865.954
626.7808, 7836.872
627.2629, 7818.057
627.7451, 7820.158
628.2272, 7831.153
628.7093, 7815.667
629.1914, 7777.085
629.6735, 7749.338
630.1556, 7759.576
630.6378, 7787.528
631.1199, 7809.641
631.6020, 7825.330
632.0841, 7833.311
632.5662, 7833.381
633.0483, 7825.206
633.5305, 7803.629
634.0126, 7757.196
634.4947, 7732.522
634.9768, 7759.799
635.4589, 7801.268
635.9410, 7818.790
636.4232, 7794.401
636.9053, 7786.732
637.3874, 7812.432
637.8695, 7847.996
638.3516, 7839.570
638.8337, 7784.616
639.3159, 7729.512
639.7980, 7686.667
640.2801, 7656.849
640.7622, 7648.560
641.2443, 7658.783
641.7264, 7666.948
642.2086, 7656.881
642.6907, 7640.499
643.1728, 7628.792
643.6549, 7622.861
644.1370, 7619.393
644.6191, 7614.711
645.1013, 7613.562
645.5834, 7620.009
646.0655, 7644.139
646.5476, 7659.912
647.0297, 7667.084
647.5118, 7665.641
647.9940, 7651.686
648.4761, 7619.390
648.9582, 7600.191
649.4403, 7602.669
649.9224, 7618.248
650.4045, 7628.461
650.8867, 7634.085
651.3688, 7641.611
651.8509, 7656.664
652.3330, 7674.145
652.8151, 7687.471
653.2972, 7696.919
653.7794, 7705.362
654.2615, 7706.019
654.7436, 7712.557
655.2257, 7741.082
655.7078, 7803.988
656.1899, 7839.006
656.6721, 7810.559
657.1542, 7771.385
657.6363, 7759.196
658.1184, 7783.675
658.6005, 7804.800
659.0826, 7818.496
659.5648, 7831.114
660.0469, 7851.171
660.5290, 7878.584
661.0111, 7913.951
661.4932, 7960.305
661.9753, 8009.889
662.4575, 8048.325
662.9396, 8080.111
663.4217, 8118.729
663.9038, 8176.846
664.3859, 8239.761
664.8680, 8293.332
665.3502, 8339.697
665.8323, 8400.496
666.3144, 8496.613
666.7965, 8594.487
667.2786, 8675.758
667.7607, 8733.834
668.2429, 8808.769
668.7250, 8900.394
669.2071, 9008.926
669.6892, 9135.937
670.1713, 9281.228
670.6534, 9436.039
671.1355, 9599.701
671.6176, 9771.104
672.0997, 9934.248
672.5818, 10102.94
673.0640, 10313.78
673.5461, 10604.90
674.0282, 10902.44
674.5103, 11134.63
674.9924, 11341.36
675.4745, 11607.72
675.9567, 11982.13
676.4388, 12393.84
676.9209, 12816.97
677.4030, 13254.42
677.8851, 13743.95
678.3672, 14277.27
678.8494, 14870.66
679.3315, 15534.91
679.8136, 16263.44
680.2957, 17047.10
680.7778, 17871.24
681.2599, 18768.05
681.7421, 19744.42
682.2242, 20807.43
682.7063, 21967.10
683.1884, 23245.92
683.6705, 24534.72
684.1526, 25887.88
684.6348, 27147.85
685.1169, 28173.39
685.5990, 29007.99
686.0811, 29473.96
686.5632, 29556.58
687.0453, 29251.83
687.5275, 28492.63
688.0096, 27146.03
688.4917, 25671.72
688.9738, 24082.17
689.4559, 22446.72
689.9380, 20905.30
690.4202, 19464.37
690.9023, 18135.02
691.3844, 16927.95
691.8665, 15850.28
692.3486, 14893.01
692.8307, 14050.51
693.3129, 13339.95
693.7950, 12831.53
694.2771, 12408.19
694.7592, 11994.86
695.2413, 11577.21
695.7234, 11216.24
696.2056, 10955.61
696.6877, 10727.62
697.1698, 10494.19
697.6519, 10241.38
698.1340, 10043.03
698.6161, 9911.217
699.0983, 9804.256
699.5804, 9669.371
700.0625, 9516.955
700.5446, 9400.444
701.0267, 9336.007
701.5089, 9286.241
701.9910, 9210.771
702.4731, 9122.269
702.9552, 9042.341
703.4373, 8973.737
703.9194, 8920.730
704.4016, 8903.785
704.8837, 8902.855
705.3658, 8865.530
705.8479, 8759.051
706.3300, 8657.857
706.8121, 8575.557
707.2943, 8510.207
707.7764, 8458.072
708.2585, 8420.997
708.7406, 8381.104
709.2227, 8322.438
709.7048, 8255.619
710.1870, 8214.438
710.6691, 8196.755
711.1512, 8177.112
711.6333, 8133.880
712.1154, 8082.899
712.5975, 8038.632
713.0797, 8002.980
713.5618, 7968.516
714.0439, 7932.786
714.5260, 7898.023
715.0081, 7865.574
715.4902, 7836.817
715.9724, 7805.783
716.4545, 7766.481
716.9366, 7735.360
717.4187, 7742.583
717.9008, 7784.146
718.3829, 7797.627
718.8651, 7766.388
719.3472, 7723.362
719.8293, 7706.254
720.3114, 7706.621
720.7935, 7707.813
721.2756, 7711.353
721.7578, 7705.270
722.2399, 7667.267
722.7220, 7615.850
723.2041, 7596.349
723.6862, 7646.373
724.1683, 7687.934
724.6505, 7706.434
725.1326, 7705.335
725.6147, 7696.662
726.0968, 7679.159
726.5789, 7661.370
727.0610, 7643.888
727.5432, 7630.121
728.0253, 7633.405
728.5074, 7651.573
728.9895, 7667.630
729.4716, 7666.757
729.9537, 7661.283
730.4359, 7665.002
730.9180, 7679.480
731.4000, 7683.266
731.8821, 7656.482
732.3643, 7628.717
732.8464, 7616.004
733.3285, 7620.041
733.8106, 7635.536
734.2927, 7670.554
734.7748, 7699.120
735.2570, 7694.449
735.7391, 7660.226
736.2212, 7618.143
736.7033, 7566.890
737.1854, 7529.192
737.6675, 7546.719
738.1497, 7587.356
738.6318, 7600.530
739.1139, 7552.943
739.5960, 7515.588
740.0781, 7525.221
740.5602, 7558.781
741.0424, 7582.695
741.5245, 7590.237
742.0066, 7597.837
742.4887, 7610.286
742.9708, 7621.044
743.4529, 7610.424
743.9351, 7577.761
744.4172, 7560.803
744.8993, 7578.035
745.3814, 7609.098
745.8635, 7619.992
746.3456, 7616.794
746.8278, 7618.266
747.3099, 7639.984
747.7920, 7662.762
748.2741, 7679.671
748.7562, 7689.654
749.2383, 7687.968
749.7205, 7681.810
750.2026, 7653.715
750.6847, 7585.023
751.1668, 7483.215
751.6489, 7439.976
752.1310, 7460.941
752.6132, 7500.009
753.0953, 7527.491
753.5774, 7551.785
754.0595, 7599.054
754.5416, 7668.263
755.0237, 7728.004
755.5059, 7748.937
755.9880, 7757.639
756.4701, 7777.484
756.9522, 7814.139
757.4343, 7840.696
757.9164, 7844.878
758.3986, 7843.962
758.8807, 7847.785
759.3628, 7857.741
759.8449, 7866.236
760.3270, 7872.921
760.8091, 7880.220
761.2913, 7894.617
761.7734, 7912.229
762.2555, 7917.233
762.7376, 7904.659
763.2197, 7896.664
763.7018, 7916.104
764.1840, 7948.394
764.6661, 7977.886
765.1482, 8007.600
765.6303, 8021.417
766.1124, 7997.564
766.5945, 7966.830
767.0767, 7966.317
767.5588, 8004.790
768.0409, 8041.792
768.5230, 8074.771
769.0051, 8098.040
769.4872, 8097.194
769.9694, 8077.577
770.4515, 8062.206
770.9336, 8061.458
771.4157, 8062.211
771.8978, 8055.120
772.3799, 8040.900
772.8621, 8021.110
773.3442, 7989.890
773.8263, 7960.598
774.3084, 7928.413
774.7905, 7901.906
775.2726, 7908.841
775.7548, 7964.278
776.2369, 7999.316
776.7190, 7986.378
777.2011, 7946.840
777.6832, 7937.091
778.1653, 7951.120
778.6475, 7957.928
779.1296, 7933.019
779.6117, 7900.720
780.0938, 7882.252
780.5759, 7874.724
781.0580, 7864.160
781.5402, 7834.123
782.0223, 7813.466
782.5044, 7814.950
782.9865, 7835.174
783.4686, 7849.053
783.9507, 7857.787
784.4329, 7854.981
784.9150, 7831.425
785.3971, 7795.129
785.8792, 7771.690
786.3613, 7760.556
786.8434, 7757.217
787.3256, 7767.995
787.8077, 7778.751
788.2898, 7775.863
788.7719, 7758.974
789.2540, 7744.539
789.7361, 7733.588
790.2183, 7729.225
790.7004, 7735.509
791.1825, 7753.401
791.6646, 7760.153
792.1467, 7754.267
792.6288, 7743.243
793.1110, 7726.615
793.5930, 7709.437
794.0751, 7709.238
794.5573, 7726.354
795.0394, 7740.821
795.5215, 7735.694
796.0036, 7723.711
796.4857, 7714.391
796.9678, 7709.316
797.4500, 7706.309
797.9321, 7710.449
798.4142, 7711.195
798.8963, 7698.657
799.3784, 7668.425
799.8605, 7658.042
800.3427, 7669.224
800.8248, 7689.841
801.3069, 7715.856
801.7890, 7741.624
802.2711, 7755.600
802.7532, 7755.913
803.2354, 7748.084
803.7175, 7718.932
804.1996, 7693.327
804.6817, 7695.296
805.1638, 7750.383
805.6459, 7778.514
806.1281, 7767.881
806.6102, 7745.240
807.0923, 7732.956
807.5744, 7730.896
808.0565, 7734.407
808.5386, 7744.521
809.0208, 7750.730
809.5029, 7736.574
809.9850, 7713.062
810.4671, 7696.870
810.9492, 7691.240
811.4313, 7693.118
811.9135, 7704.844
812.3956, 7721.399
812.8777, 7738.964
813.3598, 7763.281
813.8419, 7773.910
814.3240, 7766.388
814.8062, 7753.178
815.2883, 7743.253
815.7704, 7738.599
816.2525, 7758.687
816.7346, 7813.639
817.2167, 7854.384
817.6989, 7809.575
818.1810, 7733.892
818.6631, 7698.756
819.1452, 7744.031
819.6273, 7779.950
820.1094, 7779.834
820.5916, 7767.211
821.0737, 7760.814
821.5558, 7760.230
822.0379, 7771.606
822.5200, 7800.250
823.0021, 7826.113
823.4843, 7816.217
823.9664, 7784.347
824.4485, 7765.524
824.9306, 7767.813
825.4127, 7781.845
825.8948, 7818.261
826.3770, 7854.507
826.8591, 7866.160
827.3412, 7818.371
827.8233, 7790.494
828.3054, 7786.543
828.7875, 7798.665
829.2697, 7825.314
829.7518, 7866.808
830.2339, 7883.190
830.7160, 7865.369
831.1981, 7840.996
831.6802, 7844.430
832.1624, 7861.216
832.6445, 7868.386
833.1266, 7856.826
833.6087, 7844.287
834.0908, 7835.927
834.5729, 7830.571
835.0551, 7828.650
835.5372, 7838.663
836.0193, 7824.809
836.5014, 7777.258
836.9835, 7725.012
837.4656, 7703.939
837.9478, 7709.257
838.4299, 7726.570
838.9120, 7756.931
839.3941, 7781.814
839.8762, 7776.773
840.3583, 7762.991
840.8405, 7765.940
841.3226, 7814.271
841.8047, 7831.940
842.2868, 7801.400
842.7689, 7753.645
843.2510, 7713.757
843.7332, 7680.837
844.2153, 7675.241
844.6974, 7702.208
845.1795, 7737.442
845.6616, 7760.604
846.1437, 7771.942
846.6259, 7768.194
847.1080, 7743.444
847.5901, 7725.052
848.0722, 7729.338
848.5543, 7742.054
849.0364, 7752.431
849.5186, 7766.038
850.0007, 7756.360
850.4828, 7713.487
850.9649, 7673.393
851.4470, 7679.696
851.9291, 7719.343
852.4113, 7747.125
852.8934, 7758.856
853.3755, 7756.361
853.8576, 7732.193
854.3397, 7700.093
854.8218, 7668.270
855.3039, 7630.549
855.7860, 7623.313
856.2681, 7672.903
856.7502, 7720.804
857.2324, 7718.365
857.7145, 7664.521
858.1966, 7645.886
858.6787, 7666.150
859.1608, 7694.190
859.6429, 7700.083
860.1251, 7699.343
860.6072, 7718.585
861.0893, 7762.146
861.5714, 7786.501
862.0535, 7748.243
862.5356, 7710.702
863.0178, 7715.194
863.4999, 7768.165
863.9820, 7784.016
864.4641, 7755.681
864.9462, 7720.963
865.4283, 7702.663
865.9105, 7698.509
866.3926, 7708.841
866.8747, 7731.736
867.3568, 7748.182
867.8389, 7740.068
868.3210, 7727.396
868.8032, 7717.068
869.2853, 7710.379
869.7674, 7729.716
870.2495, 7797.434
870.7316, 7845.931
871.2137, 7833.892
871.6959, 7779.396
872.1780, 7767.869
872.6601, 7795.176
873.1422, 7821.937
873.6243, 7810.423
874.1064, 7799.601
874.5886, 7834.429
875.0707, 7904.551
875.5528, 7951.145
876.0349, 7935.366
876.5170, 7925.261
876.9991, 7938.254
877.4813, 7968.695
877.9634, 7997.022
878.4455, 8023.247
878.9276, 8045.069
879.4097, 8056.432
879.8918, 8068.492
880.3740, 8101.481
880.8561, 8146.788
881.3382, 8183.096
881.8203, 8194.710
882.3024, 8205.119
882.7845, 8219.253
883.2667, 8237.154
883.7488, 8261.274
884.2309, 8293.933
884.7130, 8319.856
885.1951, 8335.610
885.6772, 8343.018
886.1594, 8336.507
886.6415, 8324.884
887.1236, 8330.991
887.6057, 8383.391
888.0878, 8418.459
888.5699, 8380.193
889.0521, 8319.592
889.5342, 8309.184
890.0163, 8382.574
890.4984, 8422.180
890.9805, 8416.104
891.4626, 8384.734
891.9448, 8344.964
892.4269, 8301.141
892.9090, 8265.076
893.3911, 8237.902
893.8732, 8222.461
894.3553, 8225.991
894.8375, 8238.541
895.3196, 8253.771
895.8017, 8282.313
896.2838, 8278.119
896.7659, 8226.635
897.2480, 8168.359
897.7302, 8135.640
898.2123, 8125.556
898.6944, 8118.123
899.1765, 8112.748
899.6586, 8103.839
900.1407, 8075.240
900.6229, 8050.144
901.1050, 8055.875
901.5871, 8097.664
902.0692, 8121.010
902.5513, 8113.302
903.0334, 8097.143
903.5156, 8072.865
903.9977, 8046.282
904.4798, 8075.338
904.9619, 8157.491
905.4440, 8231.819
905.9261, 8256.363
906.4083, 8258.385
906.8904, 8260.167
907.3725, 8262.260
907.8546, 8264.617
908.3367, 8263.457
908.8188, 8267.049
909.3010, 8275.786
909.7831, 8291.158
910.2652, 8323.165
910.7473, 8371.763
911.2294, 8406.850
911.7115, 8412.930
912.1937, 8410.641
912.6758, 8430.718
913.1579, 8460.215
913.6400, 8475.240
914.1221, 8448.741
914.6042, 8431.361
915.0864, 8430.068
915.5685, 8442.943
916.0506, 8472.763
916.5327, 8522.124
917.0148, 8559.533
917.4969, 8580.759
917.9790, 8592.018
918.4611, 8600.986
918.9432, 8604.538
919.4254, 8594.338
919.9075, 8561.994
920.3896, 8542.011
920.8717, 8568.352
921.3538, 8592.030
921.8359, 8575.359
922.3181, 8509.866
922.8002, 8469.070
923.2823, 8454.649
923.7644, 8450.548
924.2465, 8452.985
924.7286, 8452.561
925.2108, 8426.587
925.6929, 8376.892
926.1750, 8345.305
926.6571, 8388.308
927.1392, 8411.271
927.6213, 8355.508
928.1035, 8239.132
928.5856, 8191.269
929.0677, 8219.608
929.5498, 8254.159
930.0319, 8266.154
930.5140, 8264.746
930.9962, 8261.797
931.4783, 8257.659
931.9604, 8253.234
932.4425, 8251.729
932.9246, 8246.653
933.4067, 8234.919
933.8889, 8218.854
934.3710, 8200.961
934.8531, 8180.835
935.3352, 8161.716
935.8173, 8143.832
936.2994, 8129.230
936.7816, 8122.411
937.2637, 8120.498
937.7458, 8119.237
938.2279, 8118.645
938.7100, 8115.505
939.1921, 8108.052
939.6743, 8098.031
940.1564, 8085.367
940.6385, 8068.463
941.1206, 8061.157
941.6027, 8065.172
942.0848, 8066.749
942.5670, 8043.035
943.0491, 8015.223
943.5312, 8024.139
944.0133, 8068.982
944.4954, 8089.903
944.9775, 8029.919
945.4597, 7977.384
945.9418, 7975.124
946.4239, 8013.606
946.9060, 8028.667
947.3881, 8019.872
947.8702, 7998.094
948.3524, 7959.170
948.8345, 7919.794
949.3166, 7903.797
949.7987, 7905.153
950.2808, 7910.060
950.7629, 7915.840
951.2451, 7921.891
951.7272, 7931.048
952.2093, 7938.160
952.6914, 7931.828
953.1735, 7911.103
953.6556, 7902.303
954.1378, 7911.012
954.6199, 7926.228
955.1020, 7944.675
955.5841, 7958.840
956.0662, 7954.938
956.5483, 7920.949
957.0305, 7905.755
957.5126, 7926.905
957.9947, 7958.774
958.4768, 7992.396
958.9589, 8027.337
959.4410, 8029.784
959.9232, 7999.751
960.4053, 7966.738
960.8874, 7948.552
961.3695, 7938.761
961.8516, 7931.122
962.3337, 7926.028
962.8159, 7928.197
963.2980, 7945.337
963.7801, 7959.403
964.2622, 7966.025
964.7443, 7967.057
965.2264, 7963.133
965.7086, 7956.439
966.1907, 7962.224
966.6728, 7991.283
967.1549, 8022.629
967.6370, 8042.635
968.1191, 8053.130
968.6013, 8055.817
969.0834, 8046.030
969.5655, 8036.289
970.0476, 8023.298
970.5297, 8016.824
971.0118, 8030.769
971.4940, 8059.714
971.9761, 8084.935
972.4582, 8105.201
972.9403, 8117.580
973.4224, 8114.632
973.9045, 8108.281
974.3867, 8104.586
974.8688, 8104.107
975.3509, 8112.353
975.8330, 8129.539
976.3151, 8155.396
976.7972, 8197.228
977.2794, 8240.776
977.7615, 8251.230
978.2435, 8237.419
978.7256, 8227.235
979.2078, 8231.280
979.6899, 8242.912
980.1720, 8264.867
980.6541, 8290.808
981.1362, 8313.212
981.6183, 8333.119
982.1005, 8339.655
982.5826, 8327.688
983.0647, 8320.307
983.5468, 8346.139
984.0289, 8393.160
984.5110, 8451.213
984.9932, 8524.407
985.4753, 8565.718
985.9574, 8511.603
986.4395, 8472.278
986.9216, 8507.137
987.4037, 8609.155
987.8859, 8686.120
988.3680, 8737.636
988.8501, 8772.734
989.3322, 8774.716
989.8143, 8780.461
990.2964, 8835.896
990.7786, 8923.912
991.2607, 8997.178
991.7428, 9025.550
992.2249, 9070.336
992.7070, 9143.100
993.1891, 9230.732
993.6713, 9317.069
994.1534, 9399.844
994.6355, 9461.155
995.1176, 9491.386
995.5997, 9533.266
996.0818, 9632.175
996.5640, 9746.512
997.0461, 9838.263
997.5282, 9899.599
998.0103, 9967.800
998.4924, 10045.42
998.9745, 10122.16
999.4567, 10183.37
999.9388, 10241.88
1000.421, 10324.88
1000.903, 10430.67
1001.385, 10551.72
1001.867, 10721.26
1002.349, 10861.99
1002.831, 10920.78
1003.314, 10939.84
1003.796, 11002.54
1004.278, 11113.40
1004.760, 11216.57
1005.242, 11301.23
1005.724, 11379.31
1006.206, 11472.01
1006.688, 11564.36
1007.171, 11637.73
1007.653, 11687.02
1008.135, 11725.37
1008.617, 11754.84
1009.099, 11775.77
1009.581, 11784.53
1010.063, 11783.92
1010.545, 11802.00
1011.027, 11834.99
1011.510, 11850.27
1011.992, 11833.49
1012.474, 11786.51
1012.956, 11685.76
1013.438, 11555.00
1013.920, 11476.60
1014.402, 11486.41
1014.884, 11447.27
1015.367, 11323.96
1015.849, 11171.59
1016.331, 11063.49
1016.813, 10988.71
1017.295, 10932.27
1017.777, 10900.83
1018.259, 10840.93
1018.741, 10683.24
1019.223, 10535.52
1019.706, 10472.25
1020.188, 10494.06
1020.670, 10451.96
1021.152, 10343.96
1021.634, 10246.97
1022.116, 10233.05
1022.598, 10234.74
1023.080, 10168.52
1023.563, 10060.28
1024.045, 9987.409
1024.527, 9999.663
1025.009, 9990.071
1025.491, 9936.638
1025.973, 9871.802
1026.455, 9849.931
1026.937, 9857.972
1027.419, 9846.754
1027.901, 9806.563
1028.384, 9761.670
1028.866, 9718.689
1029.348, 9684.454
1029.830, 9666.916
1030.312, 9665.899
1030.794, 9663.979
1031.276, 9662.368
1031.758, 9652.810
1032.241, 9621.282
1032.723, 9589.089
1033.205, 9595.561
1033.687, 9625.402
1034.169, 9642.848
1034.651, 9624.686
1035.133, 9607.000
1035.615, 9587.308
1036.098, 9577.749
1036.580, 9598.481
1037.062, 9644.666
1037.544, 9687.909
1038.026, 9725.519
1038.508, 9750.917
1038.990, 9739.344
1039.472, 9730.072
1039.954, 9763.775
1040.437, 9838.316
1040.919, 9867.187
1041.401, 9830.915
1041.883, 9834.313
1042.365, 9936.503
1042.847, 10071.66
1043.329, 10117.07
1043.811, 10111.26
1044.293, 10134.59
1044.776, 10238.55
1045.258, 10330.25
1045.740, 10379.53
1046.222, 10423.82
1046.704, 10495.16
1047.186, 10592.95
1047.668, 10702.66
1048.150, 10823.43
1048.633, 10951.21
1049.115, 11091.83
1049.597, 11228.86
1050.079, 11336.57
1050.561, 11425.27
1051.043, 11558.50
1051.525, 11740.14
1052.007, 11952.67
1052.490, 12199.38
1052.972, 12458.19
1053.454, 12688.58
1053.936, 12908.02
1054.418, 13146.71
1054.900, 13404.63
1055.382, 13697.82
1055.864, 14049.28
1056.346, 14416.34
1056.828, 14770.32
1057.311, 15115.30
1057.793, 15505.23
1058.275, 15939.28
1058.757, 16386.97
1059.239, 16834.13
1059.721, 17291.42
1060.203, 17753.34
1060.685, 18234.37
1061.168, 18773.50
1061.650, 19391.58
1062.132, 19985.28
1062.614, 20537.89
1063.096, 21065.05
1063.578, 21586.78
1064.060, 22089.92
1064.542, 22563.77
1065.025, 23006.93
1065.507, 23421.46
1065.989, 23839.23
1066.471, 24175.24
1066.953, 24402.04
1067.435, 24522.38
1067.917, 24532.61
1068.399, 24439.70
1068.881, 24278.62
1069.364, 24044.32
1069.846, 23775.70
1070.328, 23498.94
1070.810, 23196.83
1071.292, 22856.95
1071.774, 22477.69
1072.256, 22048.09
1072.738, 21562.12
1073.220, 21085.37
1073.703, 20704.42
1074.185, 20350.79
1074.667, 19942.33
1075.149, 19486.40
1075.631, 19044.92
1076.113, 18638.13
1076.595, 18241.89
1077.077, 17864.95
1077.559, 17484.37
1078.042, 17043.21
1078.524, 16569.24
1079.006, 16135.13
1079.488, 15756.87
1079.970, 15421.30
1080.452, 15145.08
1080.934, 14884.09
1081.416, 14602.63
1081.899, 14306.06
1082.381, 14038.36
1082.863, 13800.44
1083.345, 13589.44
1083.827, 13412.77
1084.309, 13249.73
1084.791, 13078.67
1085.273, 12904.99
1085.755, 12736.10
1086.238, 12565.22
1086.720, 12418.30
1087.202, 12302.49
1087.684, 12188.98
1088.166, 12040.55
1088.648, 11880.96
1089.130, 11750.23
1089.612, 11648.27
1090.094, 11560.52
1090.577, 11498.99
1091.059, 11428.69
1091.541, 11334.57
1092.023, 11233.84
1092.505, 11166.29
1092.987, 11123.24
1093.469, 11049.01
1093.951, 10925.50
1094.434, 10816.55
1094.916, 10781.17
1095.398, 10762.35
1095.880, 10715.47
1096.362, 10641.01
1096.844, 10580.87
1097.326, 10535.22
1097.808, 10495.17
1098.291, 10455.88
1098.773, 10421.24
1099.255, 10405.54
1099.737, 10395.15
1100.219, 10367.75
1100.701, 10297.71
1101.183, 10251.78
1101.665, 10234.47
1102.147, 10228.39
1102.630, 10227.61
1103.112, 10223.80
1103.594, 10189.88
1104.076, 10132.46
1104.558, 10090.78
1105.040, 10099.33
1105.522, 10101.81
1106.004, 10081.45
1106.486, 10051.49
1106.969, 10037.28
1107.451, 10035.36
1107.933, 10024.89
1108.415, 10001.27
1108.897, 9984.033
1109.379, 9997.780
1109.861, 10012.58
1110.343, 10008.47
1110.826, 9987.579
1111.308, 9963.253
1111.790, 9935.781
1112.272, 9902.654
1112.754, 9859.039
1113.236, 9816.486
1113.718, 9785.790
1114.200, 9763.662
1114.682, 9745.925
1115.165, 9731.197
1115.647, 9724.818
1116.129, 9731.065
1116.611, 9729.714
1117.093, 9704.909
1117.575, 9663.707
1118.057, 9609.119
1118.539, 9548.092
1119.021, 9502.521
1119.504, 9484.512
1119.986, 9478.979
1120.468, 9491.484
1120.950, 9504.098
1121.432, 9479.158
1121.914, 9436.256
1122.396, 9453.182
1122.878, 9534.974
1123.361, 9598.282
1123.843, 9578.029
1124.325, 9553.330
1124.807, 9559.213
1125.289, 9584.812
1125.771, 9599.760
1126.253, 9605.008
1126.735, 9609.388
1127.218, 9611.450
1127.700, 9627.154
1128.182, 9690.934
1128.664, 9757.123
1129.146, 9775.325
1129.628, 9743.869
1130.110, 9762.046
1130.592, 9835.356
1131.074, 9889.458
1131.557, 9881.772
1132.039, 9845.995
1132.521, 9803.129
1133.003, 9764.745
1133.485, 9752.363
1133.967, 9791.363
1134.449, 9808.991
1134.931, 9803.888
1135.413, 9784.497
1135.896, 9747.494
1136.378, 9706.875
1136.860, 9696.729
1137.342, 9706.069
1137.824, 9688.776
1138.306, 9596.350
1138.788, 9523.448
1139.270, 9482.638
1139.752, 9462.562
1140.235, 9457.708
1140.717, 9459.075
1141.199, 9441.476
1141.681, 9402.264
1142.163, 9356.502
1142.645, 9299.136
1143.127, 9251.069
1143.609, 9221.854
1144.092, 9206.125
1144.574, 9200.007
1145.056, 9198.267
1145.538, 9166.182
1146.020, 9087.172
1146.502, 9014.678
1146.984, 8983.577
1147.466, 8973.166
1147.948, 8970.228
1148.431, 8974.148
1148.913, 8980.325
1149.395, 8988.174
1149.877, 8978.334
1150.359, 8924.581
1150.841, 8876.876
1151.323, 8891.705
1151.805, 8925.113
1152.287, 8912.618
1152.770, 8830.918
1153.252, 8806.115
1153.734, 8844.181
1154.216, 8880.278
1154.698, 8864.398
1155.180, 8826.187
1155.662, 8784.739
1156.144, 8746.403
1156.627, 8728.681
1157.109, 8738.514
1157.591, 8751.606
1158.073, 8767.601
1158.555, 8780.883
1159.037, 8796.524
1159.519, 8799.876
1160.001, 8750.971
1160.484, 8658.439
1160.966, 8617.245
1161.448, 8672.321
1161.930, 8721.649
1162.412, 8748.021
1162.894, 8753.774
1163.376, 8732.056
1163.858, 8695.680
1164.340, 8664.744
1164.823, 8640.537
1165.305, 8646.974
1165.787, 8733.304
1166.269, 8783.569
1166.751, 8739.632
1167.233, 8650.293
1167.715, 8639.796
1168.197, 8685.498
1168.679, 8723.489
1169.162, 8736.775
1169.644, 8737.163
1170.126, 8704.239
1170.608, 8686.605
1171.090, 8721.046
1171.572, 8792.645
1172.054, 8823.765
1172.536, 8820.702
1173.019, 8815.182
1173.501, 8815.118
1173.983, 8823.739
1174.465, 8850.154
1174.947, 8879.731
1175.429, 8900.531
1175.911, 8912.697
1176.393, 8922.673
1176.875, 8930.827
1177.358, 8940.671
1177.840, 8956.148
1178.322, 8971.979
1178.804, 8984.375
1179.286, 8996.007
1179.768, 9015.325
1180.250, 9042.578
1180.732, 9039.583
1181.214, 9002.619
1181.697, 8966.797
1182.179, 8963.462
1182.661, 8964.761
1183.143, 8953.268
1183.625, 8930.363
1184.107, 8897.661
1184.589, 8853.541
1185.071, 8825.131
1185.554, 8817.564
1186.036, 8821.984
1186.518, 8849.112
1187.000, 8870.195
1187.482, 8847.543
1187.964, 8789.715
1188.446, 8772.846
1188.928, 8801.812
1189.411, 8825.782
1189.893, 8830.944
1190.375, 8825.672
1190.857, 8812.410
1191.339, 8797.690
1191.821, 8788.829
1192.303, 8786.715
1192.785, 8786.439
1193.267, 8789.102
1193.750, 8784.182
1194.232, 8761.299
1194.714, 8739.222
1195.196, 8749.516
1195.678, 8769.296
1196.160, 8761.285
1196.642, 8703.890
1197.124, 8697.304
1197.606, 8750.688
1198.089, 8802.157
1198.571, 8815.403
1199.053, 8806.362
1199.535, 8780.931
1200.017, 8751.264
1200.499, 8742.212
1200.981, 8778.403
1201.463, 8779.672
1201.945, 8737.824
1202.428, 8696.756
1202.910, 8685.896
1203.392, 8698.940
1203.874, 8745.360
1204.356, 8808.572
1204.838, 8837.811
1205.320, 8811.848
1205.802, 8787.063
1206.285, 8764.991
1206.767, 8754.632
1207.249, 8779.374
1207.731, 8811.824
1208.213, 8804.930
1208.695, 8767.719
1209.177, 8765.087
1209.659, 8824.943
1210.141, 8861.584
1210.624, 8857.751
1211.106, 8843.507
1211.588, 8852.066
1212.070, 8872.771
1212.552, 8893.977
1213.034, 8913.834
1213.516, 8928.668
1213.998, 8939.793
1214.480, 8940.344
1214.963, 8924.514
1215.445, 8909.492
1215.927, 8927.953
1216.409, 8957.373
1216.891, 8966.109
1217.373, 8949.164
1217.855, 8920.718
1218.337, 8863.540
1218.820, 8853.794
1219.302, 8931.670
1219.784, 9032.763
1220.266, 9061.729
1220.748, 9048.988
1221.230, 9029.995
1221.712, 9005.421
1222.194, 9019.687
1222.677, 9090.869
1223.159, 9144.495
1223.641, 9142.012
1224.123, 9117.944
1224.605, 9121.932
1225.087, 9141.630
1225.569, 9159.505
1226.051, 9174.624
1226.533, 9176.310
1227.016, 9162.323
1227.498, 9140.863
1227.980, 9103.252
1228.462, 9075.982
1228.944, 9116.432
1229.426, 9189.549
1229.908, 9233.981
1230.390, 9222.794
1230.872, 9221.396
1231.355, 9231.649
1231.837, 9244.412
1232.319, 9257.658
1232.801, 9266.620
1233.283, 9260.270
1233.765, 9245.803
1234.247, 9238.352
1234.729, 9244.890
1235.212, 9245.021
1235.694, 9237.280
1236.176, 9228.984
1236.658, 9231.397
1237.140, 9231.505
1237.622, 9204.523
1238.104, 9164.740
1238.586, 9151.646
1239.068, 9183.945
1239.551, 9181.138
1240.033, 9134.358
1240.515, 9086.521
1240.997, 9075.009
1241.479, 9078.196
1241.961, 9077.572
1242.443, 9073.704
1242.925, 9067.716
1243.407, 9054.863
1243.890, 9068.582
1244.372, 9114.627
1244.854, 9159.245
1245.336, 9179.361
1245.818, 9177.690
1246.300, 9139.939
1246.782, 9081.863
1247.264, 9058.733
1247.747, 9075.152
1248.229, 9085.154
1248.711, 9082.723
1249.193, 9074.289
1249.675, 9056.298
1250.157, 9042.757
1250.639, 9056.519
1251.121, 9082.236
1251.604, 9070.562
1252.086, 9020.730
1252.568, 8976.018
1253.050, 8943.867
1253.532, 8919.660
1254.014, 8889.770
1254.496, 8877.615
1254.978, 8916.584
1255.460, 8980.567
1255.943, 8992.827
1256.425, 8957.217
1256.907, 8926.497
1257.389, 8909.510
1257.871, 8903.285
1258.353, 8913.500
1258.835, 8925.979
1259.317, 8937.308
1259.799, 8942.640
1260.281, 8918.261
1260.764, 8872.296
1261.246, 8846.879
1261.728, 8852.759
1262.210, 8871.225
1262.692, 8919.715
1263.174, 8946.931
1263.656, 8926.218
1264.138, 8873.251
1264.621, 8819.543
1265.103, 8771.203
1265.585, 8748.611
1266.067, 8759.321
1266.549, 8783.477
1267.031, 8825.731
1267.513, 8865.024
1267.995, 8893.056
1268.478, 8912.995
1268.960, 8927.608
1269.442, 8941.674
1269.924, 8972.848
1270.406, 9039.055
1270.888, 9055.458
1271.370, 8982.455
1271.852, 8926.987
1272.334, 8943.621
1272.817, 8994.853
1273.299, 9027.094
1273.781, 9037.505
1274.263, 9015.349
1274.745, 8941.166
1275.227, 8906.503
1275.709, 8924.929
1276.191, 8943.629
1276.673, 8933.062
1277.156, 8918.792
1277.638, 8949.841
1278.120, 8994.579
1278.602, 9001.771
1279.084, 8954.423
1279.566, 8935.692
1280.048, 8948.131
1280.530, 8968.556
1281.013, 8992.106
1281.495, 9008.833
1281.977, 8997.192
1282.459, 8980.383
1282.941, 8993.594
1283.423, 9041.195
1283.905, 9038.354
1284.387, 8986.054
1284.870, 8953.283
1285.352, 8985.002
1285.834, 9026.655
1286.316, 9056.424
1286.798, 9066.728
1287.280, 9045.725
1287.762, 8996.624
1288.244, 8980.710
1288.726, 8993.327
1289.208, 9004.482
1289.691, 8993.590
1290.173, 8991.200
1290.655, 9025.258
1291.137, 9056.835
1291.619, 9058.149
1292.101, 9034.198
1292.583, 9003.869
1293.065, 8973.136
1293.548, 8956.798
1294.030, 8970.350
1294.512, 8978.845
1294.994, 8973.172
1295.476, 8969.703
1295.958, 8985.265
1296.440, 9005.847
1296.922, 8998.046
1297.405, 8988.702
1297.887, 8996.370
1298.369, 8995.847
1298.851, 9010.047
1299.333, 9045.931
1299.815, 9071.849
1300.297, 9072.199
1300.779, 9046.976
##END=



