##NAMES=Beryl
##RRUFFID=R050347
##IDEAL CHEMISTRY=Be_3_Al_2_Si_6_O_18_
##LOCALITY=North Keystone, South Dakota, USA
##OWNER=RRUFF
##SOURCE=California Institute of Technology
##DESCRIPTION=Colorless fragment
##STATUS=The identification of this mineral has been confirmed by X-ray diffraction and chemical analysis
##URL=rruff.info/R050347
##MEASURED CHEMISTRY=(Be_0.96_Li_0.04_)_3_Al_2.00_(Si_0.99_Al_0.01_)_6_O_18_ Î‡0.17Na
127.7179, 94.44036
128.2001, 95.20742
128.6822, 96.14162
129.1643, 97.17664
129.6464, 98.27461
130.1285, 98.88747
130.6107, 98.45396
131.0928, 98.03870
131.5749, 97.86761
132.0570, 97.92014
132.5391, 98.07289
133.0212, 98.21208
133.5034, 98.31532
133.9855, 98.60549
134.4676, 99.18156
134.9497, 99.82275
135.4318, 100.5000
135.9139, 101.1734
136.3960, 101.6757
136.8782, 101.7312
137.3603, 101.1982
137.8424, 101.0233
138.3245, 101.5929
138.8066, 102.4196
139.2887, 103.0095
139.7709, 103.2953
140.2530, 103.1779
140.7351, 102.2640
141.2172, 100.6391
141.6993, 99.23139
142.1814, 98.62114
142.6636, 98.59954
143.1457, 98.34962
143.6278, 97.45860
144.1099, 96.58080
144.5920, 96.42627
145.0741, 96.97955
145.5563, 97.39388
146.0384, 96.82220
146.5205, 95.14608
147.0026, 93.51761
147.4847, 92.14977
147.9668, 90.87437
148.4490, 89.61169
148.9311, 88.34833
149.4132, 87.10027
149.8953, 85.88595
150.3774, 84.65581
150.8595, 83.56463
151.3417, 82.70753
151.8238, 81.92193
152.3059, 81.03323
152.7880, 79.99022
153.2701, 78.91731
153.7522, 78.14735
154.2344, 78.11852
154.7165, 77.92044
155.1986, 77.34894
155.6807, 76.63592
156.1628, 76.09353
156.6449, 75.89057
157.1271, 75.92743
157.6092, 75.79739
158.0913, 75.32410
158.5734, 74.91377
159.0555, 74.73706
159.5376, 74.72078
160.0198, 74.65358
160.5019, 74.37569
160.9840, 73.98958
161.4661, 73.86152
161.9482, 74.26271
162.4303, 74.62965
162.9125, 74.49136
163.3946, 73.87086
163.8767, 73.30824
164.3588, 73.12403
164.8409, 73.21657
165.3230, 73.43322
165.8052, 73.89906
166.2873, 74.34311
166.7694, 74.33765
167.2515, 73.74691
167.7336, 73.16885
168.2157, 72.92996
168.6979, 72.86124
169.1800, 72.73915
169.6621, 72.36828
170.1442, 71.95794
170.6263, 72.19578
171.1084, 73.74120
171.5906, 74.87241
172.0727, 74.85303
172.5548, 74.18076
173.0369, 73.54735
173.5190, 73.37962
174.0011, 73.61789
174.4833, 73.75780
174.9654, 73.59501
175.4475, 73.53693
175.9296, 73.84554
176.4117, 74.31953
176.8938, 74.56601
177.3760, 74.24786
177.8581, 73.34025
178.3402, 72.84536
178.8223, 72.96481
179.3044, 73.24265
179.7865, 73.65739
180.2687, 74.12277
180.7508, 74.46539
181.2329, 74.52974
181.7150, 74.28752
182.1971, 74.00105
182.6792, 73.53129
183.1614, 73.13633
183.6435, 72.97523
184.1256, 73.04993
184.6077, 73.25676
185.0898, 73.54169
185.5719, 73.90669
186.0541, 74.16739
186.5362, 74.41128
187.0183, 74.49467
187.5004, 74.15752
187.9825, 73.34591
188.4646, 72.57173
188.9468, 72.38538
189.4289, 72.65852
189.9110, 72.89689
190.3931, 73.00285
190.8752, 73.00690
191.3573, 73.01468
191.8395, 73.12140
192.3216, 72.96880
192.8037, 72.01749
193.2858, 70.58762
193.7679, 69.40621
194.2500, 68.96790
194.7322, 69.04866
195.2143, 68.91235
195.6964, 68.45186
196.1785, 67.90712
196.6606, 67.31568
197.1427, 66.74381
197.6249, 66.34807
198.1070, 66.27595
198.5891, 66.49649
199.0712, 66.70545
199.5533, 66.96545
200.0354, 67.13268
200.5176, 67.12668
200.9997, 66.98655
201.4818, 66.80515
201.9639, 66.67439
202.4460, 66.60007
202.9281, 66.36083
203.4103, 65.74355
203.8924, 65.14741
204.3745, 64.64375
204.8566, 64.25589
205.3387, 64.01073
205.8208, 63.93816
206.3030, 64.05144
206.7851, 64.22327
207.2672, 64.53980
207.7493, 64.82934
208.2314, 65.09008
208.7135, 65.27654
209.1957, 65.26647
209.6778, 64.90464
210.1599, 64.10146
210.6420, 63.68727
211.1241, 63.95316
211.6062, 64.27290
212.0884, 64.31062
212.5705, 64.07642
213.0526, 63.79165
213.5347, 63.65289
214.0168, 63.68288
214.4989, 63.66597
214.9811, 63.65427
215.4632, 63.56212
215.9453, 63.23995
216.4274, 62.71143
216.9095, 62.27719
217.3916, 62.25331
217.8737, 62.64589
218.3559, 62.80222
218.8380, 62.46778
219.3201, 62.05218
219.8022, 61.98849
220.2843, 62.30852
220.7664, 62.54450
221.2486, 62.16761
221.7307, 61.35794
222.2128, 60.90888
222.6949, 61.26956
223.1770, 61.86827
223.6591, 62.02288
224.1413, 61.66130
224.6234, 61.23232
225.1055, 61.03965
225.5876, 61.00965
226.0697, 61.03010
226.5518, 61.07169
227.0340, 61.14811
227.5161, 61.29713
227.9982, 61.54280
228.4803, 61.77652
228.9624, 61.88639
229.4445, 61.95459
229.9267, 62.09844
230.4088, 62.38630
230.8909, 62.75034
231.3730, 63.10684
231.8551, 63.54582
232.3372, 63.73208
232.8194, 63.27465
233.3015, 62.59054
233.7836, 62.17350
234.2657, 62.26168
234.7478, 62.67601
235.2299, 63.04688
235.7121, 63.43947
236.1942, 63.64148
236.6763, 63.37844
237.1584, 63.00843
237.6405, 62.97323
238.1227, 63.50790
238.6048, 64.31159
239.0869, 64.56612
239.5690, 63.80824
240.0511, 63.30941
240.5332, 63.58485
241.0154, 64.07728
241.4975, 64.15382
241.9796, 63.53654
242.4617, 62.58974
242.9438, 62.27680
243.4259, 63.25127
243.9081, 63.83778
244.3902, 63.53928
244.8723, 62.95801
245.3544, 62.67611
245.8365, 62.91714
246.3186, 63.47178
246.8008, 63.87170
247.2829, 64.06113
247.7650, 64.14714
248.2471, 63.98649
248.7292, 63.80704
249.2113, 63.90811
249.6935, 64.37022
250.1756, 64.90854
250.6577, 64.94826
251.1398, 63.89103
251.6219, 63.18581
252.1040, 63.14698
252.5862, 63.27988
253.0683, 63.18523
253.5504, 62.73909
254.0325, 62.01741
254.5146, 61.13540
254.9967, 60.03715
255.4789, 58.85588
255.9610, 57.50261
256.4431, 56.12579
256.9252, 54.78910
257.4073, 53.52054
257.8894, 52.43460
258.3716, 51.71179
258.8537, 51.56887
259.3358, 51.24194
259.8179, 50.39531
260.3000, 49.56327
260.7821, 49.34161
261.2643, 49.80097
261.7464, 50.33447
262.2285, 50.22153
262.7106, 49.24708
263.1927, 48.68083
263.6748, 48.89456
264.1570, 49.29955
264.6391, 49.35617
265.1212, 49.02056
265.6033, 48.68605
266.0854, 48.77076
266.5675, 49.29503
267.0497, 49.55279
267.5318, 49.22769
268.0139, 48.83884
268.4960, 48.82883
268.9781, 49.21057
269.4602, 49.68286
269.9424, 50.08408
270.4245, 50.37877
270.9066, 50.47322
271.3887, 50.15524
271.8708, 49.79483
272.3529, 49.62247
272.8351, 49.64345
273.3172, 49.88729
273.7993, 50.50994
274.2814, 51.34077
274.7635, 51.84295
275.2456, 51.82087
275.7278, 51.67352
276.2099, 51.64848
276.6920, 51.73707
277.1741, 51.87959
277.6562, 52.09783
278.1383, 52.31718
278.6205, 52.37330
279.1026, 52.15674
279.5847, 52.01395
280.0668, 52.23263
280.5489, 52.75719
281.0310, 53.25101
281.5132, 53.57903
281.9953, 53.83920
282.4774, 54.14553
282.9595, 54.48472
283.4416, 54.93661
283.9237, 55.70678
284.4059, 56.67488
284.8880, 57.27623
285.3701, 57.13439
285.8522, 56.91388
286.3343, 57.41749
286.8164, 58.60411
287.2986, 59.66439
287.7807, 59.97868
288.2628, 59.80470
288.7449, 60.00548
289.2270, 60.81656
289.7091, 61.81487
290.1913, 62.81736
290.6734, 63.75879
291.1555, 64.37155
291.6376, 64.28638
292.1197, 63.80293
292.6018, 63.71825
293.0840, 64.29823
293.5661, 64.71973
294.0482, 64.23985
294.5303, 63.24474
295.0124, 62.40870
295.4945, 62.00916
295.9767, 61.91702
296.4588, 61.95835
296.9409, 62.19191
297.4230, 62.35662
297.9051, 62.20731
298.3872, 61.94398
298.8694, 61.81139
299.3515, 61.92089
299.8336, 62.11435
300.3157, 62.15371
300.7978, 61.99960
301.2799, 61.93276
301.7621, 62.17352
302.2442, 62.49439
302.7263, 62.61753
303.2084, 62.43817
303.6905, 62.39533
304.1726, 63.11835
304.6548, 64.65162
305.1369, 65.82054
305.6190, 65.93271
306.1011, 65.91576
306.5832, 66.56889
307.0653, 67.92280
307.5475, 69.28867
308.0296, 70.11132
308.5117, 70.42562
308.9938, 70.63471
309.4759, 70.61092
309.9580, 70.70993
310.4402, 71.17719
310.9223, 71.95744
311.4044, 72.83532
311.8865, 73.59572
312.3686, 74.31892
312.8507, 75.40587
313.3329, 77.02254
313.8150, 78.73919
314.2971, 80.45827
314.7792, 82.10307
315.2613, 83.51649
315.7434, 84.52736
316.2256, 85.33565
316.7077, 86.34099
317.1898, 87.53419
317.6719, 88.98820
318.1540, 90.89012
318.6361, 93.00363
319.1183, 95.08692
319.6004, 97.07170
320.0825, 99.02480
320.5646, 101.0736
321.0467, 103.2501
321.5288, 105.3291
322.0110, 107.6655
322.4931, 109.5778
322.9752, 110.5476
323.4573, 110.4902
323.9394, 109.5044
324.4215, 107.6163
324.9037, 104.8443
325.3858, 101.3311
325.8679, 96.80846
326.3500, 91.77669
326.8321, 86.39288
327.3142, 80.75648
327.7964, 75.40800
328.2785, 70.66032
328.7606, 66.49458
329.2427, 62.76112
329.7248, 59.42475
330.2069, 56.62954
330.6891, 54.54378
331.1712, 52.99023
331.6533, 51.60274
332.1354, 50.16065
332.6175, 48.80954
333.0996, 47.92640
333.5818, 47.65942
334.0639, 47.36802
334.5460, 46.60021
335.0281, 45.67331
335.5102, 44.94073
335.9923, 44.50369
336.4745, 44.24982
336.9566, 44.09100
337.4387, 44.03577
337.9208, 43.94123
338.4029, 43.76493
338.8850, 43.51976
339.3671, 43.18113
339.8492, 42.73420
340.3314, 42.35790
340.8135, 42.24523
341.2956, 42.34727
341.7777, 42.35374
342.2598, 42.15739
342.7419, 41.92773
343.2241, 41.80755
343.7062, 41.78171
344.1883, 41.78468
344.6704, 41.80614
345.1525, 41.83142
345.6346, 41.84242
346.1168, 41.85511
346.5989, 41.79914
347.0810, 41.50547
347.5631, 41.11591
348.0452, 40.89375
348.5273, 40.98328
349.0095, 41.19861
349.4916, 41.36504
349.9737, 41.48276
350.4558, 41.50913
350.9379, 41.33859
351.4200, 41.11495
351.9022, 41.10089
352.3843, 41.40754
352.8664, 41.64640
353.3485, 41.47327
353.8306, 40.99477
354.3127, 40.63255
354.7949, 40.50919
355.2770, 40.53128
355.7591, 40.61574
356.2412, 40.76258
356.7233, 40.85668
357.2054, 40.78673
357.6876, 40.66053
358.1697, 40.65486
358.6518, 40.79990
359.1339, 41.01348
359.6160, 41.27836
360.0981, 41.56636
360.5803, 41.71830
361.0624, 41.58229
361.5445, 41.40240
362.0266, 41.30982
362.5087, 41.32308
362.9908, 41.58739
363.4730, 42.30906
363.9551, 43.26311
364.4372, 43.77929
364.9193, 43.73384
365.4014, 43.50689
365.8835, 43.06391
366.3657, 42.56693
366.8478, 42.39481
367.3299, 42.71439
367.8120, 43.22589
368.2941, 43.41158
368.7762, 43.13638
369.2584, 43.14860
369.7405, 43.84642
370.2226, 44.70412
370.7047, 45.14013
371.1868, 45.10729
371.6689, 45.04845
372.1511, 45.35062
372.6332, 46.03878
373.1153, 46.81206
373.5974, 47.82714
374.0795, 48.77296
374.5616, 49.38459
375.0438, 49.80041
375.5259, 50.38779
376.0080, 51.34987
376.4901, 52.60682
376.9722, 53.88134
377.4543, 55.13127
377.9365, 56.44770
378.4186, 57.88000
378.9007, 59.36657
379.3828, 60.83086
379.8649, 62.25262
380.3470, 63.66243
380.8292, 65.10236
381.3113, 66.59683
381.7934, 68.06535
382.2755, 69.44083
382.7576, 70.85292
383.2397, 72.49773
383.7219, 74.27470
384.2040, 75.77901
384.6861, 76.60663
385.1682, 76.84487
385.6503, 77.87785
386.1324, 80.64137
386.6146, 83.19493
387.0967, 85.12496
387.5788, 86.67029
388.0609, 87.99335
388.5430, 89.16663
389.0251, 90.57100
389.5073, 93.11205
389.9894, 97.61915
390.4715, 101.5430
390.9536, 104.2444
391.4357, 106.7888
391.9178, 109.8915
392.4000, 113.5824
392.8821, 117.4370
393.3642, 121.1073
393.8463, 124.6018
394.3284, 127.7975
394.8105, 130.6922
395.2927, 133.2792
395.7748, 135.6421
396.2569, 137.6949
396.7390, 139.3938
397.2211, 140.8072
397.7032, 141.6522
398.1854, 141.3015
398.6675, 139.6881
399.1496, 137.0552
399.6317, 133.0278
400.1138, 128.2501
400.5959, 123.0104
401.0781, 117.3851
401.5602, 111.6818
402.0423, 106.1208
402.5244, 100.7253
403.0065, 95.64142
403.4886, 90.96154
403.9708, 86.54002
404.4529, 82.17770
404.9350, 77.95171
405.4171, 74.05759
405.8992, 70.54253
406.3813, 67.44945
406.8635, 64.84789
407.3456, 62.75014
407.8277, 61.01707
408.3098, 59.71769
408.7919, 58.67828
409.2740, 57.55938
409.7562, 56.23320
410.2383, 55.10540
410.7204, 54.57886
411.2025, 54.45044
411.6846, 54.06316
412.1667, 53.16752
412.6489, 52.21007
413.1310, 51.75741
413.6131, 51.78265
414.0952, 51.93118
414.5773, 52.39882
415.0594, 52.79192
415.5416, 52.53995
416.0237, 51.72252
416.5058, 51.19824
416.9879, 51.63096
417.4700, 52.79166
417.9521, 53.41563
418.4343, 53.13698
418.9164, 52.86025
419.3985, 52.74270
419.8806, 52.80187
420.3627, 53.15117
420.8448, 53.82214
421.3270, 54.53782
421.8091, 54.89373
422.2912, 54.80928
422.7733, 54.52727
423.2554, 53.98606
423.7375, 53.32114
424.2197, 52.60499
424.7018, 51.84003
425.1839, 50.96168
425.6660, 49.88739
426.1481, 48.69662
426.6302, 47.91785
427.1124, 47.97986
427.5945, 47.95965
428.0766, 47.70786
428.5587, 47.34299
429.0408, 46.93004
429.5229, 46.50807
430.0051, 46.18876
430.4872, 46.20593
430.9693, 46.70885
431.4514, 46.92343
431.9335, 46.43158
432.4156, 45.99816
432.8978, 45.95234
433.3799, 46.21890
433.8620, 46.55201
434.3441, 46.79698
434.8262, 47.00405
435.3083, 47.30955
435.7905, 47.70865
436.2726, 48.21872
436.7547, 49.03811
437.2368, 49.87276
437.7189, 50.40269
438.2010, 50.55001
438.6832, 50.67173
439.1653, 51.08476
439.6474, 51.74152
440.1295, 52.40541
440.6116, 53.06607
441.0938, 53.67538
441.5759, 54.17123
442.0580, 54.57925
442.5401, 54.96754
443.0222, 55.31757
443.5043, 55.67970
443.9865, 56.16941
444.4686, 56.75840
444.9507, 57.19762
445.4328, 57.33055
445.9149, 57.28094
446.3970, 57.34485
446.8792, 57.58648
447.3613, 57.74067
447.8434, 57.93817
448.3255, 57.91520
448.8076, 57.28590
449.2897, 56.00087
449.7719, 54.36694
450.2540, 52.57866
450.7361, 50.60480
451.2182, 49.22280
451.7003, 48.82579
452.1824, 48.49291
452.6646, 47.93313
453.1467, 47.19823
453.6288, 46.38766
454.1109, 45.54257
454.5930, 44.70141
455.0751, 43.94487
455.5573, 43.38053
456.0394, 42.68543
456.5215, 41.72050
457.0036, 40.76531
457.4857, 39.92162
457.9678, 39.23042
458.4500, 38.74200
458.9321, 38.53823
459.4142, 38.55564
459.8963, 38.41315
460.3784, 38.04189
460.8605, 37.62722
461.3427, 37.23534
461.8248, 36.81850
462.3069, 36.25877
462.7890, 35.52821
463.2711, 34.90797
463.7532, 34.81673
464.2354, 35.20199
464.7175, 35.29508
465.1996, 34.85351
465.6817, 34.35625
466.1638, 34.18174
466.6459, 34.21835
467.1281, 34.18391
467.6102, 33.89474
468.0923, 33.57706
468.5744, 33.54392
469.0565, 33.75867
469.5386, 33.81910
470.0208, 33.47015
470.5029, 33.01052
470.9850, 33.04603
471.4671, 33.67948
471.9492, 34.11881
472.4313, 34.06530
472.9135, 33.77906
473.3956, 33.51451
473.8777, 33.30196
474.3598, 33.06587
474.8419, 32.71609
475.3240, 32.28950
475.8062, 32.16641
476.2883, 32.68309
476.7704, 33.04674
477.2525, 32.93652
477.7346, 32.65954
478.2167, 32.60171
478.6989, 32.85873
479.1810, 33.22872
479.6631, 33.47260
480.1452, 33.59019
480.6273, 33.56935
481.1094, 33.16371
481.5916, 32.87259
482.0737, 33.03793
482.5558, 33.39810
483.0379, 33.45522
483.5200, 32.93616
484.0021, 32.17434
484.4843, 31.79222
484.9664, 31.83471
485.4485, 32.05131
485.9306, 32.57739
486.4127, 33.11304
486.8948, 33.54911
487.3770, 33.84674
487.8591, 33.86250
488.3412, 33.25095
488.8233, 32.38386
489.3054, 32.05919
489.7875, 32.33958
490.2697, 32.61428
490.7518, 32.59621
491.2339, 32.35946
491.7160, 32.01421
492.1981, 31.39560
492.6802, 31.15441
493.1624, 32.02253
493.6445, 33.27179
494.1266, 33.71278
494.6087, 33.16059
495.0908, 32.38872
495.5729, 32.04913
496.0551, 32.14260
496.5372, 32.30032
497.0193, 32.57592
497.5014, 32.84243
497.9835, 33.08694
498.4656, 33.29074
498.9478, 33.42306
499.4299, 33.47619
499.9120, 33.48204
500.3941, 33.47260
500.8762, 33.41706
501.3583, 33.47050
501.8405, 33.70378
502.3226, 33.97407
502.8047, 34.24467
503.2868, 34.51419
503.7689, 34.78254
504.2510, 35.05045
504.7331, 35.32224
505.2152, 35.61169
505.6974, 35.92523
506.1795, 36.22010
506.6616, 36.46539
507.1437, 36.70959
507.6258, 36.98545
508.1079, 37.29295
508.5901, 37.61447
509.0722, 37.92775
509.5543, 38.25731
510.0364, 38.67966
510.5185, 39.19138
511.0006, 39.60088
511.4828, 39.73867
511.9649, 39.79141
512.4470, 40.17073
512.9291, 40.94656
513.4113, 41.73647
513.8934, 42.41870
514.3755, 43.07885
514.8576, 43.85166
515.3397, 44.72099
515.8218, 45.47243
516.3040, 45.92136
516.7861, 46.13082
517.2682, 46.55070
517.7503, 47.49695
518.2324, 48.25813
518.7145, 48.52460
519.1967, 48.73068
519.6788, 49.40917
520.1609, 50.57319
520.6430, 51.66581
521.1251, 52.01675
521.6072, 51.66401
522.0894, 51.92504
522.5715, 53.32136
523.0536, 54.50515
523.5357, 54.80875
524.0178, 54.77276
524.4999, 55.10061
524.9821, 56.01191
525.4642, 56.84234
525.9463, 56.82927
526.4284, 56.17754
526.9105, 55.86138
527.3926, 56.11568
527.8748, 56.41026
528.3569, 56.36387
528.8390, 56.01891
529.3211, 55.52330
529.8032, 54.89017
530.2853, 54.11096
530.7675, 53.11303
531.2496, 51.97945
531.7317, 50.82168
532.2138, 49.66468
532.6959, 48.65302
533.1780, 48.00050
533.6602, 47.79061
534.1423, 47.41444
534.6244, 46.74666
535.1065, 46.07430
535.5886, 45.50697
536.0707, 45.00637
536.5529, 44.52592
537.0350, 44.04733
537.5171, 43.52136
537.9992, 42.84428
538.4813, 41.96531
538.9634, 41.20457
539.4456, 40.65693
539.9277, 40.14786
540.4098, 39.62954
540.8919, 39.09059
541.3740, 38.50032
541.8561, 37.81117
542.3383, 37.14314
542.8204, 36.70553
543.3025, 36.46554
543.7846, 36.09029
544.2667, 35.45447
544.7488, 34.74625
545.2310, 34.11517
545.7131, 33.56382
546.1952, 33.20852
546.6773, 33.29102
547.1594, 33.36953
547.6415, 33.11372
548.1237, 32.62432
548.6058, 32.16230
549.0879, 31.83397
549.5700, 31.57557
550.0521, 31.27625
550.5342, 30.88645
551.0164, 30.61726
551.4985, 30.59094
551.9806, 30.54343
552.4627, 30.32750
552.9448, 30.00948
553.4269, 29.68303
553.9091, 29.38023
554.3912, 29.21644
554.8733, 29.50395
555.3554, 30.35706
555.8375, 30.86995
556.3196, 30.74532
556.8018, 30.45231
557.2839, 30.20921
557.7660, 30.04477
558.2481, 30.04720
558.7302, 30.34888
559.2123, 30.70958
559.6945, 30.89616
560.1766, 30.93047
560.6587, 30.88622
561.1408, 30.76323
561.6229, 30.64330
562.1050, 30.61715
562.5872, 30.69234
563.0693, 30.86847
563.5514, 31.39586
564.0335, 31.77178
564.5156, 31.61999
564.9977, 31.15837
565.4799, 30.73643
565.9620, 30.50080
566.4441, 30.49410
566.9262, 30.86529
567.4083, 31.80791
567.8904, 32.33972
568.3726, 32.07662
568.8547, 31.78032
569.3368, 31.72212
569.8189, 31.79966
570.3010, 31.80822
570.7831, 31.65433
571.2653, 31.50632
571.7474, 31.54562
572.2295, 31.76488
572.7116, 32.17458
573.1937, 32.91003
573.6758, 33.49493
574.1580, 33.38184
574.6401, 32.75710
575.1222, 32.35344
575.6043, 32.35740
576.0864, 32.46130
576.5685, 32.57917
577.0507, 32.67966
577.5328, 32.69530
578.0149, 32.61340
578.4970, 32.50937
578.9791, 32.47583
579.4612, 32.52068
579.9434, 32.43837
580.4255, 32.06957
580.9076, 31.75931
581.3897, 31.57142
581.8718, 31.47116
582.3539, 31.47734
582.8361, 31.56866
583.3182, 31.57224
583.8003, 31.24331
584.2824, 30.63948
584.7645, 30.21578
585.2466, 30.03926
585.7288, 29.84840
586.2108, 29.44436
586.6929, 28.98283
587.1750, 28.67448
587.6572, 28.52810
588.1393, 28.56023
588.6214, 29.09648
589.1035, 29.65471
589.5856, 29.44147
590.0677, 28.47142
590.5499, 27.53978
591.0320, 27.16765
591.5141, 27.20866
591.9962, 27.12689
592.4783, 26.80981
592.9604, 26.52394
593.4426, 26.28992
593.9247, 26.07334
594.4068, 25.77788
594.8889, 25.47005
595.3710, 25.37727
595.8531, 25.70936
596.3353, 26.22043
596.8174, 26.26695
597.2995, 25.74251
597.7816, 25.36676
598.2637, 25.36855
598.7458, 25.49930
599.2280, 25.59322
599.7101, 25.63780
600.1922, 25.56465
600.6743, 25.15278
601.1564, 24.78667
601.6385, 24.92541
602.1207, 25.38283
602.6028, 25.54856
603.0849, 25.20035
603.5670, 24.73561
604.0491, 24.69089
604.5313, 25.16951
605.0134, 25.42303
605.4955, 25.20816
605.9776, 25.07940
606.4597, 25.31728
606.9418, 25.69705
607.4240, 25.87437
607.9061, 25.76863
608.3882, 25.66496
608.8703, 25.97847
609.3524, 26.65903
609.8345, 26.93919
610.3167, 26.52396
610.7988, 26.43127
611.2809, 27.69728
611.7630, 29.33981
612.2451, 29.94400
612.7272, 29.20385
613.2094, 28.33268
613.6915, 27.71916
614.1736, 27.36690
614.6557, 27.31170
615.1378, 27.53727
615.6199, 27.99190
616.1021, 28.68171
616.5842, 29.47820
617.0663, 29.99937
617.5484, 30.02621
618.0305, 30.14802
618.5126, 30.44221
618.9948, 30.74999
619.4769, 30.99005
619.9590, 31.16878
620.4411, 31.34587
620.9232, 31.57842
621.4053, 31.72017
621.8875, 31.44829
622.3696, 30.77303
622.8517, 30.30033
623.3338, 30.21513
623.8159, 30.19131
624.2980, 29.97291
624.7802, 29.59882
625.2623, 29.18383
625.7444, 28.70531
626.2265, 28.23404
626.7086, 27.70768
627.1907, 27.24602
627.6729, 27.11649
628.1550, 27.31896
628.6371, 27.46299
629.1192, 27.18621
629.6013, 26.54842
630.0834, 26.03222
630.5656, 25.49237
631.0477, 25.33468
631.5298, 25.89299
632.0119, 26.58983
632.4940, 27.06937
632.9761, 27.28507
633.4583, 27.28755
633.9404, 27.04133
634.4225, 26.65436
634.9046, 26.18658
635.3867, 25.66577
635.8688, 25.53658
636.3510, 26.04705
636.8331, 26.73362
637.3152, 27.03903
637.7973, 26.91952
638.2794, 26.84312
638.7615, 26.83447
639.2437, 26.84851
639.7258, 26.89173
640.2079, 26.93578
640.6900, 26.90641
641.1721, 26.80280
641.6542, 26.76334
642.1364, 26.97595
642.6185, 27.41015
643.1006, 27.66035
643.5827, 27.69427
644.0648, 27.61167
644.5469, 27.23038
645.0291, 26.88412
645.5112, 26.93481
645.9933, 27.40299
646.4754, 27.86256
646.9575, 28.12477
647.4396, 28.28136
647.9218, 28.33435
648.4039, 28.35062
648.8860, 28.65071
649.3681, 29.40052
649.8502, 30.20495
650.3323, 30.42665
650.8145, 29.87359
651.2966, 29.61965
651.7787, 29.91939
652.2608, 30.21143
652.7429, 30.20498
653.2250, 30.15103
653.7072, 30.45108
654.1893, 31.18513
654.6714, 31.89439
655.1535, 32.12521
655.6356, 31.98681
656.1177, 31.75619
656.5999, 31.39735
657.0820, 31.34747
657.5641, 31.89535
658.0462, 32.78672
658.5283, 33.58395
659.0104, 34.27645
659.4926, 34.95037
659.9747, 35.46601
660.4568, 36.10503
660.9389, 37.14583
661.4210, 38.43045
661.9031, 39.61552
662.3853, 40.57314
662.8674, 41.44260
663.3495, 42.34628
663.8316, 43.26086
664.3137, 44.64412
664.7958, 46.65692
665.2780, 48.84312
665.7601, 50.92205
666.2422, 53.11608
666.7243, 55.66337
667.2064, 58.58661
667.6885, 61.89977
668.1707, 65.77287
668.6528, 69.93093
669.1349, 74.02036
669.6170, 78.08723
670.0991, 82.47764
670.5812, 87.35664
671.0634, 92.40689
671.5455, 97.06472
672.0276, 101.1123
672.5097, 105.4939
672.9918, 110.3395
673.4739, 115.3782
673.9561, 120.5354
674.4382, 125.7978
674.9203, 131.1523
675.4024, 136.5728
675.8845, 142.2256
676.3666, 147.9809
676.8488, 154.0971
677.3309, 161.1732
677.8130, 169.2248
678.2951, 178.1134
678.7772, 187.8958
679.2593, 198.3752
679.7415, 209.3592
680.2236, 221.0226
680.7057, 232.6577
681.1878, 243.8186
681.6699, 255.4818
682.1520, 268.6240
682.6342, 282.4328
683.1163, 296.0585
683.5984, 309.2229
684.0805, 320.7247
684.5626, 330.0896
685.0447, 336.9222
685.5269, 339.1525
686.0090, 336.6428
686.4911, 330.1765
686.9732, 319.6582
687.4553, 305.7366
687.9374, 288.8524
688.4196, 268.8488
688.9017, 248.6421
689.3838, 227.7301
689.8659, 207.7522
690.3480, 189.5266
690.8301, 173.0001
691.3123, 157.8680
691.7944, 144.0591
692.2765, 131.7197
692.7586, 121.0773
693.2407, 112.0415
693.7228, 103.5787
694.2050, 95.45204
694.6871, 88.36677
695.1692, 82.81184
695.6513, 78.24594
696.1334, 74.08607
696.6155, 70.31316
697.0977, 66.91273
697.5798, 63.80817
698.0619, 61.11907
698.5440, 59.13821
699.0261, 57.58804
699.5082, 55.88676
699.9904, 53.88427
700.4725, 51.96674
700.9546, 50.58744
701.4367, 49.70575
701.9188, 48.66779
702.4009, 47.45496
702.8831, 46.12513
703.3652, 44.32141
703.8473, 42.68110
704.3294, 41.81314
704.8115, 41.62404
705.2936, 41.38647
705.7758, 40.76352
706.2579, 40.03675
706.7400, 39.40754
707.2221, 38.85281
707.7042, 38.34867
708.1863, 37.88152
708.6685, 37.32692
709.1506, 36.55675
709.6327, 35.60433
710.1148, 34.69913
710.5969, 33.61368
711.0790, 33.01233
711.5612, 33.32226
712.0433, 33.81577
712.5254, 34.15910
713.0075, 34.29984
713.4896, 34.18028
713.9717, 33.70685
714.4539, 33.10092
714.9360, 32.37112
715.4181, 31.69212
715.9002, 31.62966
716.3823, 32.22862
716.8644, 32.68789
717.3466, 32.40078
717.8287, 31.55796
718.3108, 30.83045
718.7929, 30.04824
719.2750, 29.72420
719.7571, 30.42973
720.2393, 31.01100
720.7214, 30.72049
721.2035, 29.92632
721.6856, 29.39643
722.1677, 29.42223
722.6498, 29.52810
723.1320, 29.21233
723.6141, 28.72461
724.0962, 28.63297
724.5783, 28.95356
725.0604, 29.27886
725.5425, 29.40338
726.0247, 29.35851
726.5068, 29.18833
726.9889, 28.80143
727.4710, 28.56968
727.9531, 28.73655
728.4352, 28.77860
728.9174, 28.32261
729.3995, 27.73714
729.8816, 27.55696
730.3637, 27.88389
730.8458, 28.22035
731.3279, 28.14166
731.8101, 27.89160
732.2922, 27.94293
732.7743, 28.23368
733.2564, 28.25524
733.7385, 27.78514
734.2206, 27.25034
734.7028, 27.23832
735.1849, 27.80568
735.6670, 28.03633
736.1491, 27.48214
736.6312, 27.16476
737.1133, 27.39899
737.5955, 27.82235
738.0776, 28.16767
738.5597, 28.39803
739.0418, 28.54281
739.5239, 28.61928
740.0060, 28.61770
740.4882, 28.45947
740.9703, 28.21392
741.4524, 28.08737
741.9345, 28.12283
742.4166, 28.30558
742.8987, 28.66143
743.3809, 29.12437
743.8630, 29.36352
744.3451, 29.30758
744.8272, 29.15075
745.3093, 28.67201
745.7914, 28.32821
746.2736, 28.49746
746.7557, 28.95842
747.2378, 29.24953
747.7199, 29.21391
748.2020, 29.03817
748.6841, 28.73481
749.1663, 28.44130
749.6484, 28.43289
750.1305, 28.69665
750.6126, 28.99429
751.0947, 29.20192
751.5768, 29.39495
752.0590, 29.74361
752.5411, 30.34402
753.0232, 30.63166
753.5053, 30.23024
753.9874, 30.02190
754.4695, 30.50245
754.9517, 31.15955
755.4338, 31.44286
755.9159, 31.29548
756.3980, 31.03375
756.8801, 30.66410
757.3622, 30.36551
757.8444, 30.31372
758.3265, 30.46931
758.8086, 30.78684
759.2907, 31.23536
759.7728, 31.64927
760.2549, 31.84188
760.7371, 31.87106
761.2192, 32.14275
761.7013, 32.87809
762.1834, 33.24844
762.6655, 32.74100
763.1476, 32.21358
763.6298, 32.29914
764.1119, 32.81471
764.5940, 33.25151
765.0761, 33.53220
765.5582, 33.66845
766.0403, 33.54823
766.5225, 33.36449
767.0046, 33.37948
767.4867, 33.54729
767.9688, 33.62577
768.4509, 33.49165
768.9330, 33.21518
769.4152, 32.83455
769.8973, 32.33127
770.3794, 32.23335
770.8615, 32.77102
771.3436, 33.10616
771.8257, 32.74615
772.3079, 32.07410
772.7900, 31.65287
773.2721, 31.50025
773.7542, 31.35170
774.2363, 31.11749
774.7184, 30.93019
775.2006, 30.91482
775.6827, 30.95792
776.1648, 30.93571
776.6469, 30.81088
777.1290, 30.55622
777.6111, 30.10324
778.0933, 29.57603
778.5754, 29.24014
779.0575, 29.09321
779.5396, 29.14259
780.0217, 29.45514
780.5038, 29.72020
780.9860, 29.66635
781.4681, 29.37531
781.9502, 29.20937
782.4323, 29.40833
782.9144, 29.33056
783.3965, 28.55406
783.8787, 27.88681
784.3608, 27.93786
784.8429, 28.37887
785.3250, 28.57709
785.8071, 28.33227
786.2892, 28.00314
786.7714, 27.91593
787.2535, 27.94224
787.7356, 27.76969
788.2177, 27.44404
788.6998, 27.37199
789.1819, 27.72071
789.6641, 28.20290
790.1462, 28.48783
790.6283, 28.57571
791.1104, 28.49309
791.5925, 28.02433
792.0746, 27.75236
792.5568, 28.01301
793.0389, 28.29291
793.5210, 28.16080
794.0031, 27.73408
794.4852, 27.45892
794.9673, 27.49393
795.4495, 27.65265
795.9316, 27.98874
796.4137, 28.28197
796.8958, 28.13639
797.3779, 27.63817
797.8600, 27.25822
798.3422, 27.24135
798.8243, 27.42320
799.3064, 27.56205
799.7885, 27.65886
800.2706, 27.67903
800.7527, 27.58666
801.2349, 27.53485
801.7170, 27.65557
802.1991, 27.78309
802.6812, 27.61102
803.1633, 27.13522
803.6454, 26.90080
804.1276, 27.16111
804.6097, 27.42294
805.0918, 27.52552
805.5739, 27.52744
806.0560, 27.46972
806.5381, 27.37611
807.0203, 27.29181
807.5024, 27.25591
807.9845, 27.20298
808.4666, 26.97944
808.9487, 26.65514
809.4308, 26.44019
809.9130, 26.35633
810.3951, 26.73234
810.8772, 27.91851
811.3593, 29.28484
811.8414, 29.44777
812.3235, 27.85131
812.8057, 27.15471
813.2878, 28.39119
813.7699, 29.24049
814.2520, 28.78259
814.7341, 27.84811
815.2162, 27.21500
815.6984, 26.95727
816.1805, 26.85218
816.6626, 26.87660
817.1447, 26.95051
817.6268, 27.07088
818.1089, 27.17761
818.5911, 27.14417
819.0732, 26.98012
819.5553, 26.82376
820.0374, 26.76086
820.5195, 26.78131
821.0016, 26.86451
821.4838, 27.01031
821.9659, 27.23706
822.4480, 27.57235
822.9301, 27.91484
823.4122, 28.29144
823.8943, 28.57763
824.3765, 28.51618
824.8586, 28.02765
825.3407, 27.60847
825.8228, 27.19279
826.3049, 26.94950
826.7870, 26.99599
827.2692, 27.20260
827.7513, 27.51890
828.2334, 27.87656
828.7155, 28.07818
829.1976, 27.97258
829.6797, 27.75279
830.1619, 27.57332
830.6440, 27.45993
831.1261, 27.54856
831.6082, 27.81795
832.0903, 27.94781
832.5724, 27.74292
833.0546, 27.35168
833.5367, 27.03289
834.0188, 26.76398
834.5009, 26.74794
834.9830, 27.15745
835.4651, 27.46867
835.9473, 27.40242
836.4294, 27.21563
836.9115, 27.23689
837.3936, 27.44865
837.8757, 27.49222
838.3578, 27.07991
838.8400, 26.78073
839.3221, 26.90577
839.8042, 27.17265
840.2863, 27.31076
840.7684, 27.32023
841.2505, 27.33517
841.7327, 27.42698
842.2148, 27.50164
842.6969, 27.41632
843.1790, 27.22979
843.6611, 27.03497
844.1432, 26.85968
844.6254, 27.05760
845.1075, 27.84674
845.5896, 28.62985
846.0717, 28.54350
846.5538, 27.58250
847.0359, 27.07051
847.5181, 27.28742
848.0002, 27.40955
848.4823, 27.13726
848.9644, 26.85147
849.4465, 26.84734
849.9286, 27.04031
850.4108, 27.16223
850.8929, 27.12700
851.3750, 27.11668
851.8571, 27.22910
852.3392, 27.36246
852.8214, 27.48806
853.3035, 27.55427
853.7856, 27.45553
854.2677, 27.16840
854.7498, 26.82219
855.2319, 26.43577
855.7141, 26.13130
856.1962, 26.30842
856.6783, 26.88077
857.1604, 27.22027
857.6425, 27.16314
858.1246, 26.98569
858.6068, 26.90987
859.0889, 26.90336
859.5710, 26.84206
860.0531, 26.70364
860.5352, 26.56748
861.0173, 26.41900
861.4995, 26.29663
861.9816, 26.24496
862.4637, 26.21375
862.9458, 26.11510
863.4279, 25.93529
863.9100, 25.83780
864.3922, 25.98119
864.8743, 26.08240
865.3564, 25.92655
865.8385, 25.68518
866.3206, 25.52303
866.8027, 25.48454
867.2849, 25.61852
867.7670, 25.99569
868.2491, 26.38474
868.7312, 26.52260
869.2133, 26.42496
869.6954, 25.97087
870.1776, 25.21390
870.6597, 24.90637
871.1418, 25.42772
871.6239, 26.21033
872.1060, 26.43332
872.5881, 26.10210
873.0703, 26.12938
873.5524, 26.78633
874.0345, 27.09639
874.5166, 26.64454
874.9987, 26.01320
875.4808, 25.60621
875.9630, 25.39091
876.4451, 25.29941
876.9272, 25.41994
877.4093, 25.46514
877.8914, 25.33328
878.3735, 25.15625
878.8557, 24.97075
879.3378, 24.81244
879.8199, 24.73658
880.3020, 24.74735
880.7841, 24.76581
881.2662, 24.65351
881.7484, 24.60078
882.2305, 25.02632
882.7126, 25.65845
883.1947, 25.76638
883.6768, 25.29518
884.1589, 24.79802
884.6411, 24.62417
885.1232, 24.67730
885.6053, 24.86731
886.0874, 25.20921
886.5695, 24.99440
887.0516, 23.96214
887.5338, 23.46589
888.0159, 24.28875
888.4980, 25.43567
888.9801, 25.69001
889.4622, 25.05420
889.9443, 24.59053
890.4265, 24.30742
890.9086, 24.18262
891.3907, 24.33207
891.8728, 24.52574
892.3549, 24.62494
892.8370, 24.66351
893.3192, 24.77465
893.8013, 25.02382
894.2834, 25.02983
894.7655, 24.21621
895.2476, 23.45441
895.7297, 23.66137
896.2119, 24.36238
896.6940, 24.68710
897.1761, 24.51733
897.6582, 24.35425
898.1403, 24.55775
898.6224, 24.91958
899.1046, 25.13111
899.5867, 25.20542
900.0688, 25.17044
900.5509, 25.03400
901.0330, 24.95835
901.5151, 25.03016
901.9973, 25.14331
902.4794, 25.14134
902.9615, 25.02415
903.4436, 24.86065
903.9257, 24.50800
904.4078, 24.51387
904.8900, 25.32764
905.3721, 26.09726
905.8542, 26.02579
906.3363, 25.40306
906.8184, 25.12493
907.3005, 25.31910
907.7827, 25.58019
908.2648, 26.01748
908.7469, 26.33369
909.2290, 26.29880
909.7111, 26.11047
910.1932, 26.07603
910.6754, 26.18789
911.1575, 26.07490
911.6396, 25.30317
912.1217, 24.62165
912.6038, 24.82688
913.0859, 25.38834
913.5681, 25.47840
914.0502, 25.17983
914.5323, 25.14040
915.0144, 25.63876
915.4965, 26.25975
915.9786, 26.53643
916.4607, 26.52490
916.9428, 26.40379
917.4249, 26.17699
917.9070, 25.87344
918.3892, 25.49087
918.8713, 25.13975
919.3534, 24.91011
919.8355, 24.77619
920.3176, 24.65891
920.7997, 24.54133
921.2819, 24.49849
921.7640, 24.51875
922.2461, 24.65039
922.7282, 25.10101
923.2103, 25.51633
923.6924, 25.41307
924.1746, 24.81923
924.6567, 24.19688
925.1388, 23.37817
925.6209, 22.79659
926.1030, 22.62966
926.5851, 22.63016
927.0673, 22.72037
927.5494, 22.82622
928.0315, 22.82966
928.5136, 22.69923
928.9957, 22.58498
929.4778, 22.59021
929.9600, 22.61852
930.4421, 22.59949
930.9242, 22.54696
931.4063, 22.49965
931.8884, 22.44875
932.3705, 22.30700
932.8527, 22.00306
933.3348, 21.74751
933.8169, 21.89307
934.2990, 22.28389
934.7811, 22.53186
935.2632, 22.61452
935.7454, 22.48722
936.2275, 22.13415
936.7096, 21.76463
937.1917, 21.58903
937.6738, 21.55489
938.1559, 21.40511
938.6381, 21.08508
939.1202, 21.18135
939.6023, 21.92785
940.0844, 22.50403
940.5665, 22.45786
941.0486, 22.05164
941.5308, 21.65714
942.0129, 21.25856
942.4950, 21.03088
942.9771, 20.96497
943.4592, 21.08641
943.9413, 21.65026
944.4235, 22.14975
944.9056, 22.17115
945.3877, 21.91966
945.8698, 21.89898
946.3519, 22.27821
946.8340, 22.39724
947.3162, 21.74222
947.7983, 21.18344
948.2804, 21.30688
948.7625, 21.68698
949.2446, 21.82926
949.7267, 21.71985
950.2089, 21.61692
950.6910, 21.64326
951.1731, 21.67200
951.6552, 21.52095
952.1373, 21.37576
952.6194, 21.55868
953.1016, 21.92953
953.5837, 22.08655
954.0658, 21.94138
954.5479, 21.79152
955.0300, 21.91628
955.5121, 22.11146
955.9943, 21.89903
956.4764, 21.42251
956.9585, 21.32809
957.4406, 21.64990
957.9227, 21.83076
958.4048, 21.59919
958.8870, 21.30889
959.3691, 21.48130
959.8512, 22.02338
960.3333, 22.13566
960.8154, 21.74784
961.2975, 21.43506
961.7797, 21.28318
962.2618, 21.29277
962.7439, 21.54849
963.2260, 21.86289
963.7081, 21.78914
964.1902, 21.18387
964.6724, 20.96863
965.1545, 21.45793
965.6366, 21.81315
966.1187, 21.70059
966.6008, 21.52366
967.0829, 21.62188
967.5651, 21.90329
968.0472, 22.09693
968.5293, 22.21874
969.0114, 22.17171
969.4935, 21.67212
969.9756, 21.31952
970.4578, 21.55680
970.9399, 21.95286
971.4220, 21.92523
971.9041, 21.56176
972.3862, 21.54007
972.8683, 22.25415
973.3505, 22.97403
973.8326, 23.46162
974.3147, 23.67298
974.7968, 23.35193
975.2789, 22.80870
975.7610, 22.57808
976.2432, 22.75853
976.7253, 23.06432
977.2074, 23.32059
977.6895, 23.60386
978.1716, 24.11266
978.6537, 24.64702
979.1359, 24.81644
979.6180, 24.67844
980.1001, 24.51586
980.5822, 24.44941
981.0643, 24.57889
981.5464, 25.08046
982.0286, 25.76587
982.5107, 26.21472
982.9928, 26.44586
983.4749, 26.51719
983.9570, 26.44674
984.4391, 26.33036
984.9213, 26.20344
985.4034, 26.21469
985.8855, 26.62568
986.3676, 27.38079
986.8497, 28.06703
987.3318, 28.72085
987.8140, 28.67952
988.2961, 27.55806
988.7782, 27.01117
989.2603, 28.32917
989.7424, 30.54621
990.2245, 31.60767
990.7067, 31.31012
991.1888, 31.54557
991.6709, 32.52501
992.1530, 33.54353
992.6351, 34.53485
993.1172, 35.37898
993.5994, 35.92858
994.0815, 36.27805
994.5636, 36.68524
995.0457, 37.03931
995.5278, 37.76447
996.0099, 39.32318
996.4921, 40.65191
996.9742, 41.07056
997.4563, 41.49979
997.9384, 42.89397
998.4205, 44.96934
998.9026, 46.63351
999.3848, 47.58753
999.8669, 48.54735
1000.349, 49.64709
1000.831, 50.78600
1001.313, 51.83750
1001.795, 52.95746
1002.277, 54.43511
1002.760, 56.16819
1003.242, 57.68255
1003.724, 58.75850
1004.206, 59.74969
1004.688, 60.77642
1005.170, 61.82870
1005.652, 62.83995
1006.134, 63.90932
1006.617, 65.26222
1007.099, 66.86019
1007.581, 68.33670
1008.063, 69.49114
1008.545, 70.53465
1009.027, 71.85844
1009.509, 72.99438
1009.991, 73.31945
1010.473, 73.03019
1010.956, 72.59254
1011.438, 72.12830
1011.920, 71.52394
1012.402, 70.68975
1012.884, 69.70399
1013.366, 68.64064
1013.848, 67.50381
1014.330, 66.33095
1014.813, 65.08769
1015.295, 63.65262
1015.777, 61.99416
1016.259, 60.24795
1016.741, 58.49834
1017.223, 56.79926
1017.705, 55.26559
1018.187, 53.86434
1018.669, 52.51112
1019.152, 51.19367
1019.634, 49.91647
1020.116, 48.67884
1020.598, 47.43223
1021.080, 46.09708
1021.562, 44.79813
1022.044, 43.97337
1022.526, 43.57343
1023.008, 43.08899
1023.491, 42.46932
1023.973, 41.90743
1024.455, 41.49172
1024.937, 41.09442
1025.419, 40.56282
1025.901, 39.93133
1026.383, 39.31301
1026.865, 38.69204
1027.348, 38.35592
1027.830, 38.36778
1028.312, 38.46108
1028.794, 38.54457
1029.276, 38.55720
1029.758, 38.40192
1030.240, 38.10954
1030.722, 37.96515
1031.204, 38.05707
1031.687, 37.84501
1032.169, 37.09621
1032.651, 36.59688
1033.133, 36.81460
1033.615, 37.27676
1034.097, 37.31657
1034.579, 36.98693
1035.061, 37.14240
1035.544, 38.03192
1036.026, 38.74842
1036.508, 39.11214
1036.990, 39.50120
1037.472, 40.15456
1037.954, 40.85450
1038.436, 41.30512
1038.918, 41.51421
1039.401, 41.72750
1039.883, 41.87871
1040.365, 42.15102
1040.847, 42.46030
1041.329, 43.02037
1041.811, 44.08138
1042.293, 45.34640
1042.775, 46.38565
1043.257, 47.20913
1043.740, 48.29718
1044.222, 50.09130
1044.704, 51.46778
1045.186, 51.84599
1045.668, 52.41314
1046.150, 53.59856
1046.632, 55.31039
1047.114, 57.68672
1047.596, 60.63279
1048.079, 62.97052
1048.561, 63.79812
1049.043, 65.23180
1049.525, 67.81841
1050.007, 70.70767
1050.489, 73.60481
1050.971, 76.51778
1051.453, 79.44643
1051.936, 82.41228
1052.418, 85.51546
1052.900, 88.79570
1053.382, 92.18816
1053.864, 95.56480
1054.346, 99.22435
1054.828, 103.4048
1055.310, 107.9079
1055.792, 112.5695
1056.275, 117.3329
1056.757, 121.9041
1057.239, 125.9114
1057.721, 130.3686
1058.203, 135.7813
1058.685, 141.4509
1059.167, 147.2256
1059.649, 152.8572
1060.131, 158.0687
1060.614, 162.9032
1061.096, 167.6869
1061.578, 172.3287
1062.060, 177.3013
1062.542, 183.4267
1063.024, 189.1359
1063.506, 193.7271
1063.988, 197.2805
1064.471, 199.5906
1064.953, 200.9736
1065.435, 202.5102
1065.917, 204.7336
1066.399, 206.2983
1066.881, 206.6399
1067.363, 206.2150
1067.845, 205.4284
1068.328, 203.9142
1068.810, 200.8854
1069.292, 196.7828
1069.774, 193.1043
1070.256, 190.4612
1070.738, 187.1143
1071.220, 181.9349
1071.702, 176.3239
1072.184, 170.9294
1072.667, 165.6672
1073.149, 160.5017
1073.631, 155.3995
1074.113, 150.3448
1074.595, 145.3400
1075.077, 140.4581
1075.559, 135.7460
1076.041, 131.2084
1076.523, 126.9539
1077.006, 122.7930
1077.488, 118.4555
1077.970, 114.0664
1078.452, 109.9476
1078.934, 106.1743
1079.416, 102.4067
1079.898, 98.14143
1080.380, 94.26313
1080.862, 91.52987
1081.345, 89.08772
1081.827, 86.06609
1082.309, 82.79595
1082.791, 80.13905
1083.273, 78.20056
1083.755, 76.14183
1084.237, 73.30460
1084.719, 70.68307
1085.202, 69.00047
1085.684, 67.48790
1086.166, 65.47154
1086.648, 63.23038
1087.130, 61.32455
1087.612, 59.77690
1088.094, 58.00735
1088.576, 55.49293
1089.058, 53.35835
1089.541, 52.27792
1090.023, 51.53918
1090.505, 50.73268
1090.987, 49.90122
1091.469, 49.19836
1091.951, 48.57951
1092.433, 47.75995
1092.915, 46.54485
1093.397, 45.45000
1093.880, 44.79724
1094.362, 44.18982
1094.844, 43.43771
1095.326, 42.58443
1095.808, 41.59588
1096.290, 40.57074
1096.772, 39.76837
1097.254, 39.28682
1097.737, 38.86973
1098.219, 38.52280
1098.701, 38.11016
1099.183, 37.52268
1099.665, 36.88219
1100.147, 36.27551
1100.629, 35.71018
1101.111, 35.17457
1101.594, 34.66384
1102.076, 34.18913
1102.558, 33.76807
1103.040, 33.36026
1103.522, 32.76128
1104.004, 32.36160
1104.486, 32.68634
1104.968, 33.27432
1105.450, 33.30611
1105.932, 32.72390
1106.415, 32.32328
1106.897, 32.49807
1107.379, 32.50024
1107.861, 31.96688
1108.343, 31.47896
1108.825, 31.47711
1109.307, 31.59067
1109.789, 31.28110
1110.272, 30.61410
1110.754, 30.21965
1111.236, 30.40833
1111.718, 30.37787
1112.200, 29.83535
1112.682, 29.34723
1113.164, 29.09770
1113.646, 28.99164
1114.129, 29.00677
1114.611, 29.08967
1115.093, 29.07271
1115.575, 28.94608
1116.057, 28.73884
1116.539, 28.32126
1117.021, 28.02215
1117.503, 28.01980
1117.985, 28.01457
1118.468, 27.74327
1118.950, 27.37971
1119.432, 27.27172
1119.914, 27.44477
1120.396, 27.56369
1120.878, 27.61674
1121.360, 27.64903
1121.842, 27.73535
1122.324, 27.65508
1122.807, 27.17134
1123.289, 26.63779
1123.771, 26.51299
1124.253, 26.75579
1124.735, 27.05776
1125.217, 27.55930
1125.699, 27.56315
1126.181, 26.80186
1126.664, 26.29357
1127.146, 26.44506
1127.628, 26.81131
1128.110, 26.98893
1128.592, 27.06791
1129.074, 27.37815
1129.556, 27.98406
1130.038, 28.02794
1130.521, 27.39345
1131.003, 27.03714
1131.485, 27.19594
1131.967, 27.54236
1132.449, 27.89893
1132.931, 28.19034
1133.413, 28.26521
1133.895, 28.16705
1134.377, 28.22342
1134.859, 28.42796
1135.342, 28.58776
1135.824, 28.67625
1136.306, 28.62245
1136.788, 28.38769
1137.270, 28.26740
1137.752, 28.62778
1138.234, 29.21496
1138.716, 29.34200
1139.199, 29.14165
1139.681, 29.25126
1140.163, 29.63079
1140.645, 29.77263
1141.127, 29.56117
1141.609, 29.34125
1142.091, 29.35767
1142.573, 29.42427
1143.056, 29.24026
1143.538, 28.94273
1144.020, 28.89798
1144.502, 28.95013
1144.984, 28.58604
1145.466, 27.86113
1145.948, 27.32743
1146.430, 27.21943
1146.912, 27.33801
1147.395, 27.63410
1147.877, 27.92106
1148.359, 28.10154
1148.841, 28.06056
1149.323, 27.42128
1149.805, 26.49029
1150.287, 26.02220
1150.769, 26.11731
1151.251, 26.14268
1151.734, 25.77795
1152.216, 25.23816
1152.698, 24.43462
1153.180, 23.75521
1153.662, 23.70516
1154.144, 23.85997
1154.626, 23.63515
1155.108, 23.07975
1155.591, 22.57854
1156.073, 22.22961
1156.555, 21.96816
1157.037, 21.90609
1157.519, 21.74859
1158.001, 21.21686
1158.483, 20.69881
1158.965, 20.46969
1159.448, 20.46792
1159.930, 20.65063
1160.412, 21.00334
1160.894, 21.07884
1161.376, 20.61314
1161.858, 20.20811
1162.340, 19.86696
1162.822, 19.65798
1163.304, 19.75007
1163.786, 19.84253
1164.269, 19.59645
1164.751, 19.13590
1165.233, 18.89286
1165.715, 18.92164
1166.197, 18.92991
1166.679, 18.89761
1167.161, 18.90573
1167.643, 18.98672
1168.126, 19.08080
1168.608, 19.18983
1169.090, 19.20278
1169.572, 18.92699
1170.054, 18.40808
1170.536, 17.90994
1171.018, 17.40577
1171.500, 17.71074
1171.983, 18.93900
1172.465, 19.56916
1172.947, 19.05203
1173.429, 18.31363
1173.911, 18.11710
1174.393, 18.24422
1174.875, 18.32529
1175.357, 18.36951
1175.839, 18.39360
1176.322, 18.41424
1176.804, 18.53637
1177.286, 18.74435
1177.768, 18.86583
1178.250, 18.82072
1178.732, 18.59993
1179.214, 18.04627
1179.696, 17.51364
1180.178, 17.51712
1180.661, 17.82484
1181.143, 18.15029
1181.625, 18.45033
1182.107, 18.76333
1182.589, 19.04963
1183.071, 19.05026
1183.553, 18.52284
1184.035, 18.17995
1184.518, 18.75902
1185.000, 19.35094
1185.482, 19.28901
1185.964, 18.92554
1186.446, 18.52550
1186.928, 18.19329
1187.410, 18.07218
1187.892, 18.18951
1188.375, 18.34961
1188.857, 18.46308
1189.339, 18.68128
1189.821, 19.29667
1190.303, 19.71309
1190.785, 19.56424
1191.267, 19.13074
1191.749, 18.53687
1192.231, 17.93473
1192.714, 17.98070
1193.196, 18.99295
1193.678, 19.38068
1194.160, 18.84736
1194.642, 18.53044
1195.124, 18.76863
1195.606, 18.88949
1196.088, 18.44461
1196.570, 17.85367
1197.053, 17.71279
1197.535, 17.93034
1198.017, 18.04806
1198.499, 18.06997
1198.981, 18.20299
1199.463, 18.45171
1199.945, 18.58880
1200.427, 18.55106
1200.910, 18.42147
1201.392, 18.25260
1201.874, 18.06159
1202.356, 17.81908
1202.838, 17.60189
1203.320, 17.66780
1203.802, 17.85548
1204.284, 17.66023
1204.766, 17.23285
1205.249, 17.34217
1205.731, 18.13829
1206.213, 18.70508
1206.695, 18.37593
1207.177, 17.88498
1207.659, 17.72887
1208.141, 17.72341
1208.623, 17.80233
1209.105, 17.86612
1209.588, 17.68066
1210.070, 17.39745
1210.552, 17.57761
1211.034, 18.42507
1211.516, 18.84995
1211.998, 18.20858
1212.480, 17.69138
1212.962, 17.58841
1213.445, 17.67366
1213.927, 17.97448
1214.409, 18.28329
1214.891, 18.37065
1215.373, 18.27423
1215.855, 18.15403
1216.337, 17.99093
1216.819, 17.87873
1217.302, 17.79343
1217.784, 17.87170
1218.266, 18.17053
1218.748, 18.52034
1219.230, 18.85431
1219.712, 19.06323
1220.194, 18.96394
1220.676, 18.69526
1221.158, 18.79962
1221.641, 19.15511
1222.123, 19.01579
1222.605, 18.46342
1223.087, 18.12418
1223.569, 18.14679
1224.051, 18.41378
1224.533, 18.87382
1225.015, 19.26886
1225.497, 19.34264
1225.980, 19.20787
1226.462, 18.81308
1226.944, 18.43122
1227.426, 18.45641
1227.908, 18.76635
1228.390, 19.08021
1228.872, 19.34220
1229.354, 19.61652
1229.837, 19.96487
1230.319, 20.21308
1230.801, 20.35164
1231.283, 20.31240
1231.765, 19.78033
1232.247, 19.34189
1232.729, 19.56160
1233.211, 20.13899
1233.693, 20.53841
1234.176, 20.76280
1234.658, 20.89483
1235.140, 20.93202
1235.622, 20.89147
1236.104, 20.79005
1236.586, 20.49813
1237.068, 19.89527
1237.550, 19.50516
1238.032, 19.75136
1238.515, 20.24243
1238.997, 20.30387
1239.479, 20.06635
1239.961, 20.12119
1240.443, 20.36522
1240.925, 20.29619
1241.407, 19.93293
1241.889, 19.62725
1242.372, 19.45560
1242.854, 19.11502
1243.336, 18.35536
1243.818, 17.76359
1244.300, 18.09038
1244.782, 18.63520
1245.264, 18.79082
1245.746, 18.70252
1246.229, 18.52835
1246.711, 18.28556
1247.193, 17.87413
1247.675, 17.32655
1248.157, 17.08218
1248.639, 17.40469
1249.121, 17.72007
1249.603, 18.14064
1250.085, 18.24104
1250.568, 17.63609
1251.050, 16.98794
1251.532, 16.69721
1252.014, 16.66709
1252.496, 16.76400
1252.978, 16.97142
1253.460, 17.10280
1253.942, 17.15204
1254.424, 17.24194
1254.907, 17.38944
1255.389, 17.14614
1255.871, 16.40149
1256.353, 15.99796
1256.835, 16.50142
1257.317, 17.26114
1257.799, 17.50322
1258.281, 17.38765
1258.764, 17.07952
1259.246, 16.69806
1259.728, 16.41839
1260.210, 16.26177
1260.692, 16.24069
1261.174, 16.34179
1261.656, 16.54111
1262.138, 16.88141
1262.620, 17.03431
1263.103, 16.55461
1263.585, 16.24906
1264.067, 16.66349
1264.549, 17.17888
1265.031, 17.52056
1265.513, 17.58514
1265.995, 17.03780
1266.477, 16.09596
1266.959, 15.94536
1267.442, 16.89689
1267.924, 17.33436
1268.406, 17.15866
1268.888, 16.92034
1269.370, 16.71921
1269.852, 16.45629
1270.334, 16.06617
1270.816, 15.79800
1271.299, 15.95409
1271.781, 16.30783
1272.263, 16.41511
1272.745, 16.35156
1273.227, 16.21892
1273.709, 16.10357
1274.191, 16.30681
1274.673, 16.71341
1275.156, 16.73167
1275.638, 16.20240
1276.120, 15.88172
1276.602, 16.36772
1277.084, 16.83043
1277.566, 16.77916
1278.048, 16.67483
##END=



