##NAMES=Beryl
##RRUFFID=R060944
##IDEAL CHEMISTRY=Be_3_Al_2_Si_6_O_18_
##LOCALITY=Habachtal, Salzburg, Austria
##OWNER=RRUFF
##SOURCE=Lawrence W. Snee
##DESCRIPTION=Green hexagonal prisms in a muscovite schist, variety emerald. Note that there are micro inclusions of actinolite. The Raman signal is a mixture of the two phases.
##STATUS=The identification of this mineral has been confirmed by X-ray diffraction and chemical analysis
##URL=rruff.info/R060944
##MEASURED CHEMISTRY=Be_3.00_(Al_1.59_Mg_0.33_Fe^3+^_0.04_Cr^3+^_0.04_)_Σ=2_Si_6.00_O_18_·Na_0.33_ ; bright inclusions are actinolite
148.5215, 3125.619
149.0037, 3126.126
149.4858, 3151.119
149.9679, 3176.655
150.4500, 3197.399
150.9321, 3211.040
151.4142, 3226.010
151.8964, 3245.545
152.3785, 3266.236
152.8606, 3282.322
153.3427, 3284.719
153.8248, 3290.293
154.3069, 3305.271
154.7890, 3334.422
155.2712, 3366.181
155.7533, 3404.396
156.2354, 3444.752
156.7175, 3476.501
157.1996, 3487.466
157.6817, 3496.218
158.1639, 3513.105
158.6460, 3551.593
159.1281, 3584.362
159.6102, 3605.501
160.0923, 3615.105
160.5744, 3614.405
161.0566, 3593.083
161.5387, 3566.383
162.0208, 3546.170
162.5029, 3543.270
162.9850, 3540.780
163.4671, 3529.742
163.9493, 3510.718
164.4314, 3494.231
164.9135, 3485.427
165.3956, 3481.862
165.8777, 3480.805
166.3598, 3477.633
166.8420, 3479.414
167.3241, 3494.896
167.8062, 3525.830
168.2883, 3552.526
168.7704, 3558.255
169.2525, 3552.279
169.7346, 3549.802
170.2168, 3558.568
170.6989, 3573.628
171.1810, 3589.526
171.6631, 3604.833
172.1452, 3626.357
172.6273, 3666.164
173.1095, 3717.293
173.5916, 3763.688
174.0737, 3788.881
174.5558, 3807.060
175.0379, 3837.388
175.5201, 3885.352
176.0022, 3938.660
176.4843, 3988.678
176.9664, 4033.880
177.4485, 4069.151
177.9306, 4088.937
178.4128, 4096.599
178.8949, 4099.821
179.3770, 4102.971
179.8591, 4097.408
180.3412, 4068.512
180.8233, 4017.541
181.3055, 3958.514
181.7876, 3894.492
182.2697, 3829.652
182.7518, 3773.093
183.2339, 3725.874
183.7160, 3689.750
184.1982, 3675.631
184.6803, 3683.531
185.1624, 3690.599
185.6445, 3669.837
186.1266, 3628.342
186.6087, 3598.824
187.0908, 3596.676
187.5730, 3611.155
188.0551, 3610.201
188.5372, 3591.746
189.0193, 3574.313
189.5014, 3582.838
189.9835, 3614.357
190.4657, 3636.670
190.9478, 3634.925
191.4299, 3614.758
191.9120, 3602.464
192.3941, 3599.346
192.8762, 3598.953
193.3584, 3591.247
193.8405, 3576.307
194.3226, 3566.669
194.8047, 3570.299
195.2868, 3585.753
195.7689, 3596.316
196.2511, 3602.412
196.7332, 3603.055
197.2153, 3593.410
197.6974, 3572.125
198.1795, 3555.197
198.6616, 3552.842
199.1438, 3565.625
199.6259, 3569.926
200.1080, 3562.828
200.5901, 3551.081
201.0722, 3546.769
201.5543, 3550.327
202.0364, 3558.526
202.5186, 3573.277
203.0007, 3596.256
203.4828, 3606.772
203.9649, 3600.607
204.4470, 3584.404
204.9291, 3572.161
205.4113, 3562.802
205.8934, 3560.377
206.3755, 3569.096
206.8576, 3591.205
207.3397, 3611.124
207.8218, 3627.350
208.3040, 3641.027
208.7861, 3654.825
209.2682, 3667.350
209.7503, 3683.430
210.2324, 3708.076
210.7145, 3744.607
211.1967, 3774.916
211.6788, 3794.166
212.1609, 3806.622
212.6430, 3831.299
213.1251, 3873.199
213.6072, 3917.320
214.0894, 3952.829
214.5715, 3975.352
215.0536, 4003.222
215.5357, 4038.241
216.0178, 4080.031
216.4999, 4126.266
216.9820, 4177.185
217.4642, 4231.069
217.9463, 4288.903
218.4284, 4354.329
218.9105, 4411.792
219.3926, 4459.130
219.8747, 4496.176
220.3569, 4524.746
220.8390, 4540.340
221.3211, 4553.531
221.8032, 4576.415
222.2853, 4620.979
222.7674, 4646.716
223.2496, 4644.785
223.7317, 4616.066
224.2138, 4580.938
224.6959, 4535.904
225.1780, 4488.456
225.6601, 4443.757
226.1423, 4402.655
226.6244, 4363.099
227.1065, 4323.420
227.5886, 4283.190
228.0707, 4253.710
228.5528, 4239.284
229.0350, 4230.617
229.5171, 4219.285
229.9992, 4205.087
230.4813, 4187.871
230.9634, 4166.684
231.4455, 4140.997
231.9276, 4117.596
232.4098, 4098.201
232.8919, 4079.402
233.3740, 4058.537
233.8561, 4036.556
234.3382, 4010.467
234.8203, 3976.995
235.3025, 3935.055
235.7846, 3902.279
236.2667, 3882.787
236.7488, 3868.925
237.2309, 3852.252
237.7130, 3830.646
238.1952, 3810.328
238.6773, 3791.391
239.1594, 3773.106
239.6415, 3763.491
240.1236, 3764.055
240.6057, 3772.068
241.0879, 3786.618
241.5700, 3818.587
242.0521, 3837.130
242.5342, 3829.354
243.0163, 3789.587
243.4984, 3768.514
243.9806, 3773.317
244.4627, 3790.887
244.9448, 3805.488
245.4269, 3814.380
245.9090, 3824.865
246.3911, 3839.905
246.8732, 3860.816
247.3554, 3876.560
247.8375, 3889.724
248.3196, 3895.433
248.8017, 3885.333
249.2838, 3847.995
249.7659, 3816.240
250.2481, 3800.582
250.7302, 3804.396
251.2123, 3799.993
251.6944, 3786.511
252.1765, 3765.957
252.6586, 3739.155
253.1408, 3700.480
253.6229, 3666.887
254.1050, 3643.800
254.5871, 3633.048
255.0692, 3619.510
255.5513, 3600.544
256.0334, 3581.365
256.5156, 3569.096
256.9977, 3567.850
257.4798, 3564.521
257.9619, 3553.207
258.4440, 3531.745
258.9261, 3523.923
259.4083, 3536.701
259.8904, 3555.497
260.3725, 3560.141
260.8546, 3542.652
261.3367, 3529.484
261.8188, 3528.672
262.3010, 3541.168
262.7831, 3551.337
263.2652, 3556.833
263.7473, 3562.804
264.2294, 3578.705
264.7115, 3612.311
265.1937, 3633.709
265.6758, 3630.626
266.1579, 3602.344
266.6400, 3584.039
267.1221, 3579.583
267.6042, 3579.852
268.0864, 3573.118
268.5685, 3556.132
269.0506, 3543.002
269.5327, 3538.104
270.0148, 3541.406
270.4969, 3545.951
270.9791, 3553.805
271.4612, 3559.320
271.9433, 3553.634
272.4254, 3533.309
272.9075, 3517.916
273.3896, 3513.983
273.8718, 3520.585
274.3539, 3524.852
274.8360, 3526.562
275.3181, 3526.494
275.8002, 3524.334
276.2823, 3519.253
276.7645, 3517.492
277.2466, 3521.573
277.7287, 3530.609
278.2108, 3536.690
278.6929, 3538.649
279.1750, 3541.245
279.6572, 3551.353
280.1393, 3569.822
280.6214, 3582.798
281.1035, 3585.871
281.5856, 3580.894
282.0677, 3575.514
282.5499, 3569.155
283.0320, 3564.952
283.5141, 3566.506
283.9962, 3573.809
284.4783, 3582.164
284.9604, 3590.872
285.4425, 3599.872
285.9247, 3608.550
286.4068, 3616.829
286.8889, 3625.512
287.3710, 3636.761
287.8531, 3650.022
288.3352, 3659.036
288.8174, 3661.182
289.2995, 3659.375
289.7816, 3660.559
290.2637, 3664.729
290.7458, 3670.453
291.2279, 3678.406
291.7101, 3687.548
292.1922, 3693.082
292.6743, 3694.311
293.1564, 3691.125
293.6385, 3679.977
294.1206, 3661.487
294.6028, 3646.258
295.0849, 3644.875
295.5670, 3653.001
296.0491, 3656.912
296.5312, 3652.648
297.0133, 3646.696
297.4955, 3650.544
297.9776, 3662.715
298.4597, 3673.452
298.9418, 3674.280
299.4239, 3669.443
299.9060, 3666.146
300.3882, 3664.109
300.8703, 3667.266
301.3524, 3686.486
301.8345, 3716.944
302.3166, 3740.455
302.7987, 3739.415
303.2809, 3727.207
303.7630, 3723.117
304.2451, 3730.341
304.7272, 3741.825
305.2093, 3752.378
305.6914, 3762.039
306.1736, 3770.580
306.6557, 3779.427
307.1378, 3786.539
307.6199, 3787.983
308.1020, 3782.214
308.5841, 3779.079
309.0663, 3788.934
309.5484, 3806.671
310.0305, 3822.510
310.5126, 3831.488
310.9947, 3837.647
311.4768, 3840.841
311.9590, 3840.332
312.4411, 3847.904
312.9232, 3877.397
313.4053, 3917.650
313.8874, 3953.045
314.3695, 3969.078
314.8517, 3986.631
315.3337, 4021.510
315.8159, 4074.227
316.2980, 4119.980
316.7801, 4142.070
317.2622, 4154.688
317.7443, 4172.359
318.2264, 4200.475
318.7086, 4233.264
319.1907, 4269.521
319.6728, 4309.133
320.1549, 4350.759
320.6370, 4398.604
321.1191, 4445.820
321.6013, 4487.552
322.0834, 4516.816
322.5655, 4546.203
323.0476, 4581.974
323.5297, 4621.523
324.0118, 4650.856
324.4940, 4672.940
324.9761, 4680.481
325.4582, 4669.518
325.9403, 4635.291
326.4224, 4587.788
326.9045, 4520.370
327.3867, 4438.575
327.8688, 4361.238
328.3509, 4288.570
328.8330, 4220.566
329.3151, 4156.986
329.7972, 4099.899
330.2794, 4043.003
330.7615, 3978.834
331.2436, 3916.098
331.7257, 3874.434
332.2078, 3866.312
332.6899, 3862.034
333.1721, 3851.825
333.6542, 3833.510
334.1363, 3817.297
334.6184, 3801.303
335.1005, 3788.871
335.5826, 3785.809
336.0648, 3796.826
336.5469, 3806.409
337.0290, 3808.784
337.5111, 3803.311
337.9932, 3805.532
338.4753, 3818.528
338.9575, 3833.575
339.4396, 3839.876
339.9217, 3834.929
340.4038, 3833.778
340.8859, 3840.219
341.3680, 3853.322
341.8502, 3870.420
342.3323, 3893.106
342.8144, 3912.087
343.2965, 3916.222
343.7786, 3905.890
344.2607, 3899.030
344.7429, 3900.254
345.2250, 3905.931
345.7071, 3906.237
346.1892, 3901.077
346.6713, 3896.022
347.1534, 3895.169
347.6355, 3897.727
348.1176, 3899.294
348.5998, 3897.573
349.0819, 3898.171
349.5640, 3914.286
350.0461, 3943.047
350.5282, 3966.118
351.0103, 3970.421
351.4925, 3962.556
351.9746, 3952.901
352.4567, 3941.560
352.9388, 3932.461
353.4209, 3931.935
353.9030, 3936.938
354.3852, 3940.216
354.8673, 3932.783
355.3494, 3925.249
355.8315, 3932.489
356.3136, 3955.497
356.7957, 3974.358
357.2779, 3967.688
357.7600, 3950.080
358.2421, 3941.525
358.7242, 3957.882
359.2063, 3978.213
359.6884, 3990.129
360.1706, 3994.412
360.6527, 3999.026
361.1348, 4011.018
361.6169, 4023.109
362.0990, 4028.624
362.5811, 4013.582
363.0633, 4007.045
363.5454, 4024.794
364.0275, 4059.707
364.5096, 4087.207
364.9917, 4095.961
365.4738, 4099.523
365.9560, 4104.864
366.4381, 4115.699
366.9202, 4122.968
367.4023, 4125.456
367.8844, 4123.969
368.3665, 4119.972
368.8487, 4111.178
369.3308, 4102.163
369.8129, 4092.698
370.2950, 4080.447
370.7771, 4078.277
371.2592, 4097.825
371.7414, 4119.826
372.2235, 4120.921
372.7056, 4086.262
373.1877, 4057.160
373.6698, 4041.941
374.1519, 4040.230
374.6341, 4045.837
375.1162, 4063.061
375.5983, 4079.756
376.0804, 4084.991
376.5625, 4076.467
377.0446, 4066.914
377.5267, 4057.160
378.0089, 4048.187
378.4910, 4043.296
378.9731, 4042.611
379.4552, 4045.625
379.9373, 4052.421
380.4194, 4063.040
380.9016, 4075.883
381.3837, 4090.745
381.8658, 4108.733
382.3479, 4133.597
382.8300, 4164.473
383.3121, 4194.491
383.7943, 4217.573
384.2764, 4237.304
384.7585, 4261.196
385.2406, 4288.884
385.7227, 4324.047
386.2048, 4373.926
386.6870, 4433.171
387.1691, 4490.697
387.6512, 4542.950
388.1333, 4589.916
388.6154, 4628.376
389.0975, 4659.366
389.5797, 4694.539
390.0618, 4739.533
390.5439, 4793.259
391.0260, 4855.906
391.5081, 4937.646
391.9902, 5011.493
392.4724, 5059.397
392.9545, 5087.842
393.4366, 5115.043
393.9187, 5152.311
394.4008, 5187.690
394.8829, 5214.314
395.3651, 5228.417
395.8472, 5242.605
396.3293, 5257.970
396.8114, 5275.853
397.2935, 5298.042
397.7756, 5347.413
398.2578, 5378.499
398.7399, 5379.484
399.2220, 5348.363
399.7041, 5300.352
400.1862, 5233.879
400.6683, 5151.725
401.1505, 5053.186
401.6326, 4912.546
402.1147, 4799.889
402.5968, 4731.953
403.0789, 4697.463
403.5610, 4644.607
404.0432, 4565.000
404.5253, 4483.180
405.0074, 4409.962
405.4895, 4343.879
405.9716, 4294.190
406.4537, 4264.378
406.9359, 4246.468
407.4180, 4226.882
407.9001, 4204.951
408.3822, 4187.731
408.8643, 4179.522
409.3464, 4178.657
409.8285, 4176.274
410.3106, 4172.307
410.7928, 4167.345
411.2749, 4161.443
411.7570, 4154.882
412.2391, 4149.073
412.7212, 4145.293
413.2033, 4141.417
413.6855, 4133.166
414.1676, 4121.279
414.6497, 4110.126
415.1318, 4101.752
415.6139, 4096.222
416.0960, 4094.722
416.5782, 4098.910
417.0603, 4102.269
417.5424, 4100.848
418.0245, 4094.928
418.5066, 4085.149
418.9887, 4066.568
419.4709, 4048.224
419.9530, 4035.501
420.4351, 4029.215
420.9172, 4024.151
421.3993, 4016.154
421.8814, 4009.859
422.3636, 4009.483
422.8457, 4032.711
423.3278, 4043.652
423.8099, 4026.899
424.2920, 3987.751
424.7741, 3962.305
425.2563, 3960.807
425.7384, 3965.818
426.2205, 3970.335
426.7026, 3975.710
427.1847, 3977.633
427.6668, 3974.813
428.1490, 3969.164
428.6311, 3963.061
429.1132, 3954.013
429.5953, 3950.581
430.0774, 3957.854
430.5595, 3975.164
431.0417, 3982.324
431.5238, 3975.007
432.0059, 3969.859
432.4880, 3988.723
432.9701, 4030.934
433.4522, 4061.012
433.9344, 4070.159
434.4165, 4065.750
434.8986, 4063.571
435.3807, 4063.280
435.8628, 4059.655
436.3449, 4042.068
436.8271, 4019.912
437.3092, 4015.510
437.7913, 4033.393
438.2734, 4055.362
438.7555, 4066.312
439.2376, 4068.453
439.7197, 4066.197
440.2018, 4060.731
440.6840, 4052.020
441.1661, 4037.061
441.6482, 4016.792
442.1303, 4000.921
442.6124, 4000.251
443.0945, 4002.729
443.5767, 3998.384
444.0588, 3982.115
444.5409, 3963.233
445.0230, 3939.946
445.5051, 3915.628
445.9872, 3898.782
446.4694, 3899.052
446.9515, 3899.491
447.4336, 3894.195
447.9157, 3881.486
448.3978, 3869.743
448.8799, 3856.708
449.3621, 3846.492
449.8442, 3844.878
450.3263, 3858.498
450.8084, 3864.434
451.2905, 3855.254
451.7726, 3835.635
452.2548, 3827.528
452.7369, 3832.870
453.2190, 3843.040
453.7011, 3855.472
454.1832, 3869.903
454.6653, 3874.923
455.1475, 3867.227
455.6296, 3857.535
456.1117, 3865.701
456.5938, 3888.161
457.0759, 3902.736
457.5580, 3893.810
458.0402, 3873.877
458.5223, 3865.626
459.0044, 3868.418
459.4865, 3872.224
459.9686, 3869.542
460.4507, 3863.295
460.9329, 3857.292
461.4150, 3852.810
461.8971, 3848.327
462.3792, 3840.561
462.8613, 3832.045
463.3434, 3828.231
463.8256, 3833.859
464.3077, 3842.719
464.7898, 3852.896
465.2719, 3864.739
465.7540, 3873.966
466.2361, 3882.367
466.7183, 3886.514
467.2004, 3883.149
467.6825, 3859.599
468.1646, 3844.208
468.6467, 3843.047
469.1288, 3852.388
469.6110, 3855.440
470.0930, 3848.163
470.5752, 3841.319
471.0573, 3838.395
471.5394, 3838.409
472.0215, 3850.519
472.5036, 3880.285
472.9857, 3911.509
473.4679, 3918.767
473.9500, 3901.668
474.4321, 3889.440
474.9142, 3893.294
475.3963, 3905.885
475.8784, 3906.964
476.3606, 3897.205
476.8427, 3888.578
477.3248, 3892.604
477.8069, 3903.389
478.2890, 3909.796
478.7711, 3909.499
479.2533, 3908.305
479.7354, 3911.211
480.2175, 3916.906
480.6996, 3922.950
481.1817, 3929.812
481.6638, 3935.257
482.1460, 3934.674
482.6281, 3928.858
483.1102, 3930.266
483.5923, 3951.533
484.0744, 3975.898
484.5565, 3992.098
485.0387, 3992.854
485.5208, 3993.027
486.0029, 3996.745
486.4850, 3999.993
486.9671, 3994.213
487.4492, 3966.064
487.9314, 3949.338
488.4135, 3958.117
488.8956, 3993.183
489.3777, 4012.699
489.8598, 4012.930
490.3419, 4006.513
490.8241, 4005.026
491.3062, 4009.197
491.7883, 4005.357
492.2704, 3988.617
492.7525, 3968.485
493.2346, 3965.065
493.7168, 3976.499
494.1989, 3985.644
494.6810, 3977.978
495.1631, 3963.898
495.6452, 3964.825
496.1273, 3981.081
496.6095, 3998.135
497.0916, 4003.665
497.5737, 4002.928
498.0558, 4002.354
498.5379, 4002.622
499.0201, 4005.199
499.5022, 4014.793
499.9843, 4027.531
500.4664, 4034.034
500.9485, 4021.559
501.4306, 4010.719
501.9127, 4010.189
502.3948, 4021.625
502.8770, 4036.830
503.3591, 4062.723
503.8412, 4086.995
504.3233, 4099.668
504.8054, 4090.004
505.2875, 4088.843
505.7697, 4100.928
506.2518, 4122.035
506.7339, 4141.375
507.2160, 4159.471
507.6981, 4173.403
508.1802, 4178.477
508.6624, 4176.313
509.1445, 4187.319
509.6266, 4213.387
510.1087, 4240.432
510.5908, 4251.197
511.0729, 4250.914
511.5551, 4256.472
512.0372, 4271.716
512.5193, 4294.689
513.0014, 4330.194
513.4835, 4372.607
513.9656, 4405.025
514.4478, 4406.523
514.9299, 4403.093
515.4120, 4417.244
515.8941, 4451.464
516.3762, 4480.378
516.8583, 4488.483
517.3405, 4489.204
517.8226, 4493.439
518.3047, 4502.257
518.7868, 4515.634
519.2689, 4539.465
519.7510, 4567.638
520.2332, 4585.553
520.7153, 4590.167
521.1974, 4588.533
521.6795, 4580.932
522.1616, 4567.088
522.6437, 4558.942
523.1259, 4559.156
523.6080, 4558.720
524.0901, 4551.003
524.5722, 4535.843
525.0543, 4509.972
525.5364, 4468.630
526.0186, 4425.164
526.5007, 4402.117
526.9828, 4396.847
527.4649, 4395.962
527.9470, 4399.041
528.4291, 4399.629
528.9113, 4379.601
529.3934, 4372.471
529.8755, 4360.341
530.3576, 4343.483
530.8397, 4307.733
531.3218, 4296.380
531.8040, 4275.245
532.2861, 4253.715
532.7682, 4245.793
533.2503, 4212.792
533.7324, 4204.654
534.2145, 4186.594
534.6967, 4173.069
535.1788, 4149.715
535.6609, 4129.396
536.1430, 4118.918
536.6251, 4102.991
537.1072, 4071.662
537.5894, 4056.252
538.0715, 4046.425
538.5536, 4042.333
539.0357, 4046.805
539.5178, 4050.813
539.9999, 4034.959
540.4821, 4002.394
540.9642, 3983.768
541.4463, 3995.391
541.9284, 4020.902
542.4105, 4034.259
542.8926, 4036.422
543.3748, 4033.290
543.8569, 4024.498
544.3390, 4014.470
544.8211, 4007.918
545.3032, 4005.767
545.7853, 4003.976
546.2675, 3997.529
546.7495, 3991.660
547.2316, 3991.920
547.7137, 4010.173
548.1959, 4022.661
548.6780, 4021.591
549.1601, 4011.110
549.6422, 4006.036
550.1243, 4010.625
550.6064, 4014.553
551.0886, 4012.663
551.5707, 4003.964
552.0528, 4004.536
552.5349, 4016.542
553.0170, 4032.149
553.4991, 4046.410
553.9813, 4058.985
554.4634, 4062.066
554.9455, 4051.206
555.4276, 4037.931
555.9097, 4041.454
556.3918, 4058.134
556.8740, 4075.247
557.3561, 4091.594
557.8382, 4102.347
558.3203, 4098.311
558.8024, 4081.249
559.2845, 4068.210
559.7667, 4069.482
560.2488, 4077.257
560.7309, 4086.998
561.2130, 4101.089
561.6951, 4109.540
562.1772, 4103.034
562.6594, 4092.674
563.1415, 4093.288
563.6236, 4117.406
564.1057, 4132.103
564.5878, 4127.086
565.0699, 4109.022
565.5521, 4109.602
566.0342, 4135.701
566.5163, 4156.326
566.9984, 4147.887
567.4805, 4114.713
567.9626, 4109.585
568.4448, 4135.828
568.9269, 4164.322
569.4090, 4159.268
569.8911, 4135.021
570.3732, 4127.371
570.8553, 4152.553
571.3375, 4180.241
571.8196, 4178.184
572.3017, 4158.333
572.7838, 4145.204
573.2659, 4157.752
573.7480, 4171.156
574.2302, 4170.580
574.7123, 4156.331
575.1944, 4150.876
575.6765, 4168.910
576.1586, 4187.898
576.6407, 4196.065
577.1229, 4187.574
577.6050, 4184.552
578.0871, 4190.015
578.5692, 4197.521
579.0513, 4199.128
579.5334, 4194.650
580.0156, 4184.657
580.4977, 4164.458
580.9798, 4144.120
581.4619, 4154.368
581.9440, 4190.864
582.4261, 4218.132
582.9083, 4204.194
583.3904, 4173.450
583.8725, 4161.532
584.3546, 4169.325
584.8367, 4176.881
585.3188, 4168.202
585.8010, 4154.995
586.2831, 4147.959
586.7652, 4149.682
587.2473, 4157.014
587.7294, 4176.565
588.2115, 4199.366
588.6937, 4210.654
589.1758, 4198.517
589.6579, 4191.673
590.1400, 4197.807
590.6221, 4213.667
591.1042, 4220.403
591.5864, 4215.452
592.0685, 4209.961
592.5506, 4211.803
593.0327, 4219.775
593.5148, 4218.489
593.9969, 4206.643
594.4791, 4195.735
594.9612, 4199.361
595.4433, 4211.918
595.9254, 4221.699
596.4075, 4225.366
596.8896, 4227.421
597.3718, 4231.967
597.8539, 4237.407
598.3360, 4240.838
598.8181, 4239.978
599.3002, 4238.085
599.7823, 4234.649
600.2645, 4230.227
600.7466, 4230.709
601.2287, 4236.670
601.7108, 4247.339
602.1929, 4264.850
602.6750, 4292.631
603.1572, 4307.660
603.6393, 4307.337
604.1214, 4299.874
604.6035, 4288.424
605.0856, 4273.615
605.5677, 4276.914
606.0499, 4306.660
606.5320, 4344.960
607.0141, 4362.515
607.4962, 4365.826
607.9783, 4375.070
608.4604, 4407.486
608.9425, 4443.650
609.4246, 4468.428
609.9067, 4482.600
610.3889, 4489.898
610.8710, 4482.812
611.3531, 4476.537
611.8352, 4480.179
612.3173, 4497.311
612.7994, 4514.064
613.2816, 4529.521
613.7637, 4544.873
614.2458, 4563.511
614.7279, 4591.719
615.2100, 4600.965
615.6921, 4583.763
616.1743, 4553.754
616.6564, 4534.107
617.1385, 4524.676
617.6206, 4522.341
618.1027, 4531.875
618.5848, 4543.050
619.0670, 4535.318
619.5491, 4511.654
620.0312, 4488.150
620.5133, 4469.269
620.9954, 4457.919
621.4775, 4460.511
621.9597, 4479.109
622.4418, 4491.139
622.9239, 4482.014
623.4060, 4467.421
623.8881, 4459.104
624.3702, 4459.999
624.8524, 4464.746
625.3345, 4476.022
625.8166, 4489.301
626.2987, 4498.604
626.7808, 4504.767
627.2629, 4502.578
627.7451, 4487.648
628.2272, 4466.233
628.7093, 4453.637
629.1914, 4449.730
629.6735, 4452.629
630.1556, 4469.872
630.6378, 4489.161
631.1199, 4490.331
631.6020, 4473.743
632.0841, 4457.559
632.5662, 4445.850
633.0483, 4443.515
633.5305, 4457.691
634.0126, 4499.951
634.4947, 4531.292
634.9768, 4541.065
635.4589, 4537.917
635.9410, 4530.140
636.4232, 4512.681
636.9053, 4500.514
637.3874, 4494.191
637.8695, 4494.904
638.3516, 4508.427
638.8337, 4535.786
639.3159, 4560.404
639.7980, 4576.313
640.2801, 4584.913
640.7622, 4586.313
641.2443, 4581.613
641.7264, 4579.547
642.2086, 4586.689
642.6907, 4599.012
643.1728, 4611.887
643.6549, 4624.677
644.1370, 4642.350
644.6191, 4676.493
645.1013, 4711.113
645.5834, 4733.026
646.0655, 4727.425
646.5476, 4728.767
647.0297, 4739.988
647.5118, 4756.018
647.9940, 4766.418
648.4761, 4766.462
648.9582, 4784.310
649.4403, 4836.106
649.9224, 4899.819
650.4045, 4914.929
650.8867, 4887.027
651.3688, 4866.570
651.8509, 4887.328
652.3330, 4927.397
652.8151, 4958.082
653.2972, 4979.964
653.7794, 5005.738
654.2615, 5049.063
654.7436, 5093.947
655.2257, 5127.357
655.7078, 5143.103
656.1899, 5166.061
656.6721, 5206.168
657.1542, 5250.553
657.6363, 5286.788
658.1184, 5306.138
658.6005, 5344.771
659.0826, 5410.384
659.5648, 5488.293
660.0469, 5550.841
660.5290, 5599.517
661.0111, 5660.953
661.4932, 5745.926
661.9753, 5843.911
662.4575, 5940.388
662.9396, 6036.470
663.4217, 6135.706
663.9038, 6237.637
664.3859, 6346.053
664.8680, 6462.539
665.3502, 6587.603
665.8323, 6719.207
666.3144, 6855.877
666.7965, 7000.071
667.2786, 7152.950
667.7607, 7315.148
668.2429, 7482.938
668.7250, 7659.146
669.2071, 7836.273
669.6892, 8013.776
670.1713, 8191.332
670.6534, 8336.657
671.1355, 8441.155
671.6176, 8527.480
672.0997, 8638.825
672.5818, 8753.737
673.0640, 8822.393
673.5461, 8811.405
674.0282, 8770.024
674.5103, 8730.259
674.9924, 8686.101
675.4745, 8622.543
675.9567, 8516.433
676.4388, 8410.774
676.9209, 8313.590
677.4030, 8226.922
677.8851, 8166.144
678.3672, 8133.232
678.8494, 8122.887
679.3315, 8129.218
679.8136, 8152.873
680.2957, 8219.979
680.7778, 8331.277
681.2599, 8463.464
681.7421, 8594.006
682.2242, 8730.073
682.7063, 8883.674
683.1884, 9059.140
683.6705, 9244.780
684.1526, 9450.479
684.6348, 9653.623
685.1169, 9832.055
685.5990, 9999.213
686.0811, 10113.96
686.5632, 10171.26
687.0453, 10172.82
687.5275, 10118.08
688.0096, 10007.95
688.4917, 9838.617
688.9738, 9602.351
689.4559, 9308.189
689.9380, 8961.362
690.4202, 8565.800
690.9023, 8183.332
691.3844, 7847.533
691.8665, 7548.386
692.3486, 7266.584
692.8307, 7000.479
693.3129, 6756.420
693.7950, 6529.270
694.2771, 6331.218
694.7592, 6178.800
695.2413, 6078.737
695.7234, 5975.254
696.2056, 5848.307
696.6877, 5726.356
697.1698, 5629.158
697.6519, 5566.925
698.1340, 5490.564
698.6161, 5391.385
699.0983, 5297.989
699.5804, 5253.125
700.0625, 5248.275
700.5446, 5232.326
701.0267, 5193.757
701.5089, 5145.693
701.9910, 5092.418
702.4731, 5041.462
702.9552, 5006.541
703.4373, 5011.905
703.9194, 5014.203
704.4016, 4989.452
704.8837, 4947.959
705.3658, 4920.948
705.8479, 4924.059
706.3300, 4922.081
706.8121, 4902.408
707.2943, 4869.762
707.7764, 4858.180
708.2585, 4871.467
708.7406, 4878.649
709.2227, 4856.039
709.7048, 4814.903
710.1870, 4787.687
710.6691, 4773.957
711.1512, 4761.227
711.6333, 4733.099
712.1154, 4705.945
712.5975, 4697.606
713.0797, 4713.240
713.5618, 4728.464
714.0439, 4741.028
714.5260, 4746.785
715.0081, 4742.272
715.4902, 4723.058
715.9724, 4702.666
716.4545, 4678.174
716.9366, 4657.401
717.4187, 4655.696
717.9008, 4671.300
718.3829, 4674.093
718.8651, 4654.629
719.3472, 4629.729
719.8293, 4621.070
720.3114, 4622.743
720.7935, 4622.046
721.2756, 4605.059
721.7578, 4593.664
722.2399, 4607.151
722.7220, 4634.713
723.2041, 4646.613
723.6862, 4621.507
724.1683, 4602.330
724.6505, 4599.899
725.1326, 4610.879
725.6147, 4619.081
726.0968, 4624.354
726.5789, 4627.166
727.0610, 4625.952
727.5432, 4622.800
728.0253, 4625.192
728.5074, 4632.430
728.9895, 4637.664
729.4716, 4631.293
729.9537, 4624.038
730.4359, 4628.206
730.9180, 4645.984
731.4001, 4657.708
731.8822, 4652.375
732.3643, 4643.608
732.8464, 4639.112
733.3285, 4637.932
733.8106, 4646.354
734.2927, 4669.956
734.7748, 4691.555
735.2570, 4688.741
735.7391, 4665.630
736.2212, 4655.711
736.7033, 4665.195
737.1854, 4679.603
737.6675, 4683.426
738.1497, 4682.024
738.6318, 4684.226
739.1139, 4696.804
739.5960, 4706.592
740.0781, 4703.456
740.5602, 4695.808
741.0424, 4698.582
741.5245, 4727.100
742.0066, 4740.183
742.4887, 4726.168
742.9708, 4697.839
743.4529, 4684.393
743.9351, 4685.987
744.4172, 4690.357
744.8993, 4692.163
745.3814, 4694.862
745.8635, 4707.303
746.3456, 4726.186
746.8278, 4740.558
747.3099, 4744.258
747.7920, 4741.905
748.2741, 4732.767
748.7562, 4718.270
749.2383, 4709.145
749.7205, 4710.612
750.2026, 4713.506
750.6847, 4716.662
751.1668, 4719.909
751.6489, 4712.935
752.1310, 4693.824
752.6132, 4677.788
753.0953, 4678.942
753.5774, 4690.509
754.0595, 4692.706
754.5416, 4685.306
755.0237, 4682.288
755.5059, 4699.293
755.9880, 4720.591
756.4701, 4732.954
756.9522, 4732.755
757.4343, 4730.921
757.9164, 4731.906
758.3986, 4729.397
758.8807, 4717.278
759.3628, 4690.907
759.8449, 4675.928
760.3270, 4674.549
760.8091, 4680.063
761.2913, 4688.644
761.7734, 4698.503
762.2555, 4702.640
762.7376, 4698.821
763.2197, 4694.825
763.7018, 4698.788
764.1840, 4705.835
764.6661, 4709.894
765.1482, 4705.503
765.6303, 4703.481
766.1124, 4706.871
766.5945, 4712.676
767.0767, 4716.831
767.5588, 4718.019
768.0409, 4721.313
768.5230, 4727.320
769.0051, 4735.634
769.4872, 4749.873
769.9694, 4767.107
770.4515, 4773.859
770.9336, 4761.473
771.4157, 4742.346
771.8978, 4720.177
772.3799, 4700.165
772.8621, 4693.677
773.3442, 4720.324
773.8263, 4742.721
774.3084, 4749.255
774.7905, 4744.946
775.2726, 4743.074
775.7548, 4743.300
776.2369, 4748.323
776.7190, 4761.970
777.2011, 4779.005
777.6832, 4785.971
778.1653, 4783.328
778.6475, 4773.112
779.1296, 4742.874
779.6117, 4715.902
780.0938, 4718.893
780.5759, 4746.080
781.0580, 4765.549
781.5402, 4760.244
782.0223, 4752.692
782.5044, 4751.095
782.9865, 4754.865
783.4686, 4756.846
783.9507, 4757.232
784.4329, 4754.834
784.9150, 4745.145
785.3971, 4732.347
785.8792, 4735.463
786.3613, 4752.954
786.8434, 4767.131
787.3256, 4759.795
787.8077, 4748.188
788.2898, 4748.884
788.7719, 4763.460
789.2540, 4773.104
789.7361, 4764.793
790.2183, 4758.309
790.7004, 4764.846
791.1825, 4786.695
791.6646, 4795.750
792.1467, 4789.997
792.6288, 4779.514
793.1110, 4765.132
793.5930, 4752.574
794.0751, 4764.959
794.5573, 4803.689
795.0394, 4833.652
795.5215, 4821.333
796.0036, 4793.799
796.4857, 4769.486
796.9678, 4746.986
797.4500, 4746.653
797.9321, 4792.004
798.4142, 4837.896
798.8963, 4852.579
799.3784, 4831.277
799.8605, 4811.279
800.3427, 4792.620
800.8248, 4778.197
801.3069, 4771.645
801.7890, 4771.153
802.2711, 4772.616
802.7532, 4775.187
803.2354, 4781.348
803.7175, 4798.264
804.1996, 4816.159
804.6817, 4825.590
805.1638, 4816.819
805.6459, 4817.811
806.1281, 4838.151
806.6102, 4856.439
807.0923, 4846.406
807.5744, 4808.301
808.0565, 4786.204
808.5386, 4786.054
809.0208, 4791.925
809.5029, 4779.819
809.9850, 4764.060
810.4671, 4772.933
810.9492, 4825.025
811.4313, 4863.214
811.9135, 4851.120
812.3956, 4820.165
812.8777, 4802.701
813.3598, 4803.909
813.8419, 4810.151
814.3240, 4823.860
814.8062, 4837.607
815.2883, 4842.669
815.7704, 4839.631
816.2525, 4829.021
816.7346, 4807.476
817.2167, 4793.874
817.6989, 4820.137
818.1810, 4860.387
818.6631, 4878.622
819.1452, 4848.666
819.6273, 4827.738
820.1094, 4838.276
820.5916, 4857.368
821.0737, 4861.124
821.5558, 4844.303
822.0379, 4835.371
822.5200, 4838.152
823.0021, 4846.766
823.4843, 4857.867
823.9664, 4868.385
824.4485, 4868.073
824.9306, 4849.163
825.4127, 4834.127
825.8948, 4841.559
826.3770, 4859.989
826.8591, 4876.039
827.3412, 4883.439
827.8233, 4894.026
828.3054, 4913.257
828.7875, 4929.918
829.2697, 4924.390
829.7518, 4896.390
830.2339, 4883.172
830.7160, 4892.920
831.1981, 4908.092
831.6802, 4909.171
832.1624, 4901.431
832.6445, 4892.551
833.1266, 4881.202
833.6087, 4876.242
834.0908, 4885.747
834.5729, 4900.993
835.0551, 4911.971
835.5372, 4918.093
836.0193, 4920.546
836.5014, 4917.809
836.9835, 4914.855
837.4656, 4921.709
837.9478, 4934.564
838.4299, 4938.022
838.9120, 4927.090
839.3941, 4913.898
839.8762, 4908.754
840.3583, 4906.844
840.8405, 4902.142
841.3226, 4886.941
841.8047, 4880.307
842.2868, 4886.567
842.7689, 4898.206
843.2510, 4909.521
843.7332, 4921.048
844.2153, 4920.272
844.6974, 4903.535
845.1795, 4884.689
845.6616, 4879.484
846.1437, 4883.190
846.6259, 4889.319
847.1080, 4898.375
847.5901, 4903.364
848.0722, 4898.905
848.5543, 4890.322
849.0364, 4882.126
849.5186, 4871.417
850.0007, 4870.506
850.4828, 4883.029
850.9649, 4897.074
851.4470, 4898.523
851.9291, 4890.620
852.4113, 4886.148
852.8934, 4887.266
853.3755, 4886.997
853.8576, 4875.896
854.3397, 4863.243
854.8218, 4859.127
855.3040, 4871.082
855.7860, 4873.415
856.2681, 4853.192
856.7502, 4836.885
857.2324, 4849.929
857.7145, 4892.999
858.1966, 4917.038
858.6787, 4919.172
859.1608, 4912.717
859.6429, 4902.389
860.1251, 4894.378
860.6072, 4900.186
861.0893, 4923.021
861.5714, 4938.513
862.0535, 4929.690
862.5356, 4917.356
863.0178, 4915.514
863.4999, 4926.738
863.9820, 4928.968
864.4641, 4920.951
864.9462, 4909.136
865.4283, 4895.774
865.9105, 4882.928
866.3926, 4874.552
866.8747, 4871.052
867.3568, 4874.083
867.8389, 4890.660
868.3210, 4909.311
868.8032, 4924.567
869.2853, 4935.876
869.7674, 4937.550
870.2495, 4921.950
870.7316, 4912.113
871.2137, 4923.883
871.6959, 4951.372
872.1780, 4962.294
872.6601, 4957.589
873.1422, 4948.357
873.6243, 4939.582
874.1064, 4930.737
874.5886, 4919.825
875.0707, 4907.508
875.5528, 4899.302
876.0349, 4892.586
876.5170, 4895.246
876.9991, 4914.312
877.4813, 4944.190
877.9634, 4955.570
878.4455, 4947.957
878.9276, 4945.172
879.4097, 4964.166
879.8918, 4988.335
880.3740, 4997.045
880.8561, 4992.733
881.3382, 4982.056
881.8203, 4950.987
882.3024, 4933.024
882.7845, 4949.726
883.2667, 4984.066
883.7488, 4997.781
884.2309, 4987.046
884.7130, 4974.784
885.1951, 4965.199
885.6772, 4959.647
886.1594, 4962.210
886.6415, 4970.439
887.1236, 4978.278
887.6057, 4982.031
888.0878, 4987.303
888.5699, 5000.980
889.0521, 5016.091
889.5342, 5020.954
890.0163, 5007.455
890.4984, 5004.468
890.9805, 5016.282
891.4626, 5035.589
891.9448, 5054.584
892.4269, 5072.563
892.9090, 5088.542
893.3911, 5103.062
893.8732, 5111.792
894.3553, 5106.478
894.8375, 5096.435
895.3196, 5090.857
895.8017, 5091.130
896.2838, 5096.998
896.7659, 5114.361
897.2480, 5127.329
897.7302, 5115.821
898.2123, 5085.343
898.6944, 5072.730
899.1765, 5080.783
899.6586, 5092.929
900.1407, 5099.681
900.6229, 5102.099
901.1050, 5098.767
901.5871, 5088.371
902.0692, 5086.136
902.5513, 5099.913
903.0334, 5112.811
903.5156, 5114.907
903.9977, 5107.775
904.4798, 5108.793
904.9619, 5117.833
905.4440, 5132.869
905.9261, 5163.020
906.4083, 5190.709
906.8904, 5195.242
907.3725, 5179.674
907.8546, 5164.226
908.3367, 5147.785
908.8188, 5140.912
909.3010, 5149.535
909.7831, 5168.993
910.2652, 5183.144
910.7473, 5191.991
911.2294, 5199.493
911.7115, 5210.948
912.1937, 5216.538
912.6758, 5191.395
913.1579, 5152.446
913.6400, 5134.234
914.1221, 5162.233
914.6042, 5195.624
915.0864, 5233.793
915.5685, 5268.110
916.0506, 5283.655
916.5327, 5278.776
917.0148, 5273.902
917.4969, 5271.779
917.9790, 5272.387
918.4611, 5278.846
918.9432, 5287.051
919.4254, 5288.530
919.9075, 5275.908
920.3896, 5273.592
920.8717, 5297.803
921.3538, 5329.128
921.8359, 5353.478
922.3181, 5369.826
922.8002, 5385.088
923.2823, 5399.160
923.7644, 5411.689
924.2465, 5421.031
924.7286, 5428.741
925.2108, 5437.564
925.6929, 5447.543
926.1750, 5455.628
926.6571, 5462.919
927.1392, 5465.396
927.6213, 5457.408
928.1035, 5441.234
928.5856, 5442.524
929.0677, 5463.765
929.5498, 5484.988
930.0319, 5500.702
930.5140, 5507.586
930.9962, 5494.069
931.4783, 5466.317
931.9604, 5444.622
932.4425, 5443.933
932.9246, 5442.764
933.4067, 5430.862
933.8889, 5414.800
934.3710, 5410.572
934.8531, 5422.340
935.3352, 5414.382
935.8173, 5372.386
936.2994, 5326.610
936.7816, 5323.755
937.2637, 5346.571
937.7458, 5364.455
938.2279, 5369.609
938.7100, 5368.061
939.1921, 5358.922
939.6743, 5345.667
940.1564, 5331.064
940.6385, 5315.568
941.1206, 5293.360
941.6027, 5261.669
942.0848, 5238.690
942.5670, 5250.041
943.0491, 5276.292
943.5312, 5286.751
944.0133, 5279.086
944.4954, 5276.357
944.9775, 5295.605
945.4597, 5313.712
945.9418, 5320.156
946.4239, 5315.939
946.9060, 5309.300
947.3881, 5299.871
947.8702, 5293.476
948.3524, 5293.118
948.8345, 5297.323
949.3166, 5308.536
949.7987, 5322.765
950.2808, 5329.099
950.7629, 5312.622
951.2451, 5301.419
951.7272, 5306.885
952.2093, 5317.640
952.6914, 5310.785
953.1735, 5285.118
953.6556, 5269.703
954.1378, 5271.331
954.6199, 5279.525
955.1020, 5287.303
955.5841, 5292.574
956.0662, 5291.656
956.5483, 5280.767
957.0305, 5272.752
957.5126, 5270.278
957.9947, 5270.955
958.4768, 5273.573
958.9589, 5278.185
959.4410, 5285.333
959.9232, 5295.146
960.4053, 5301.547
960.8874, 5296.212
961.3695, 5288.078
961.8516, 5286.493
962.3337, 5291.016
962.8159, 5293.897
963.2980, 5285.029
963.7801, 5288.460
964.2622, 5319.578
964.7443, 5362.115
965.2264, 5359.355
965.7086, 5317.533
966.1907, 5281.285
966.6728, 5266.134
967.1549, 5263.392
967.6370, 5273.152
968.1191, 5288.494
968.6013, 5298.828
969.0834, 5302.180
969.5655, 5300.322
970.0476, 5290.452
970.5297, 5280.710
971.0118, 5279.980
971.4940, 5287.030
971.9761, 5297.499
972.4582, 5311.174
972.9403, 5326.026
973.4224, 5344.953
973.9045, 5361.602
974.3867, 5369.890
974.8688, 5369.250
975.3509, 5372.000
975.8330, 5380.194
976.3151, 5384.751
976.7972, 5378.752
977.2794, 5367.647
977.7615, 5362.675
978.2436, 5363.315
978.7257, 5367.717
979.2078, 5375.666
979.6899, 5386.253
980.1720, 5405.192
980.6541, 5424.173
981.1362, 5427.345
981.6183, 5410.491
982.1005, 5402.587
982.5826, 5408.843
983.0647, 5420.500
983.5468, 5424.576
984.0289, 5427.928
984.5110, 5445.108
984.9932, 5483.836
985.4753, 5509.357
985.9574, 5496.433
986.4395, 5481.415
986.9216, 5485.558
987.4037, 5507.970
987.8859, 5511.313
988.3680, 5495.627
988.8501, 5487.927
989.3322, 5516.121
989.8143, 5551.811
990.2964, 5564.984
990.7786, 5561.240
991.2607, 5562.104
991.7428, 5578.446
992.2249, 5589.297
992.7070, 5588.511
993.1891, 5584.259
993.6713, 5589.374
994.1534, 5603.766
994.6355, 5630.406
995.1176, 5674.692
995.5997, 5712.251
996.0818, 5717.801
996.5640, 5712.852
997.0461, 5718.458
997.5282, 5739.115
998.0103, 5756.701
998.4924, 5771.285
998.9745, 5782.514
999.4567, 5784.169
999.9388, 5784.060
1000.421, 5801.382
1000.903, 5834.587
1001.385, 5874.663
1001.867, 5942.290
1002.349, 5987.522
1002.831, 5970.643
1003.314, 5922.333
1003.796, 5912.207
1004.278, 5943.346
1004.760, 5979.345
1005.242, 6016.307
1005.724, 6043.493
1006.206, 6040.459
1006.688, 6023.193
1007.171, 6013.450
1007.653, 6015.583
1008.135, 6026.708
1008.617, 6053.236
1009.099, 6078.684
1009.581, 6091.426
1010.063, 6092.694
1010.545, 6092.405
1011.027, 6091.007
1011.510, 6094.004
1011.992, 6114.067
1012.474, 6131.232
1012.956, 6122.598
1013.438, 6098.271
1013.920, 6100.048
1014.402, 6139.468
1014.884, 6175.450
1015.367, 6201.908
1015.849, 6218.338
1016.331, 6219.208
1016.813, 6210.543
1017.295, 6205.656
1017.777, 6208.445
1018.259, 6212.452
1018.741, 6214.365
1019.223, 6217.539
1019.706, 6225.909
1020.188, 6240.195
1020.670, 6240.868
1021.152, 6227.035
1021.634, 6221.350
1022.116, 6247.619
1022.598, 6282.730
1023.080, 6302.257
1023.563, 6309.541
1024.045, 6317.632
1024.527, 6335.625
1025.009, 6343.011
1025.491, 6331.483
1025.973, 6315.410
1026.455, 6322.152
1026.937, 6345.223
1027.419, 6357.925
1027.901, 6352.894
1028.384, 6350.040
1028.866, 6376.852
1029.348, 6399.517
1029.830, 6386.486
1030.312, 6335.858
1030.794, 6296.772
1031.276, 6270.109
1031.758, 6250.650
1032.241, 6237.271
1032.723, 6228.475
1033.205, 6227.082
1033.687, 6228.334
1034.169, 6219.231
1034.651, 6174.326
1035.133, 6147.621
1035.615, 6151.271
1036.098, 6170.970
1036.580, 6191.122
1037.062, 6210.343
1037.544, 6217.720
1038.026, 6210.818
1038.508, 6202.746
1038.990, 6201.191
1039.472, 6204.177
1039.954, 6207.956
1040.437, 6212.493
1040.919, 6235.042
1041.401, 6281.917
1041.883, 6323.914
1042.365, 6349.619
1042.847, 6363.472
1043.329, 6366.342
1043.811, 6364.826
1044.293, 6373.660
1044.776, 6398.039
1045.258, 6434.379
1045.740, 6487.585
1046.222, 6546.000
1046.704, 6598.791
1047.186, 6646.245
1047.668, 6695.516
1048.150, 6746.903
1048.633, 6801.969
1049.115, 6861.399
1049.597, 6924.579
1050.079, 6989.532
1050.561, 7057.132
1051.043, 7136.506
1051.525, 7231.871
1052.007, 7321.542
1052.490, 7397.353
1052.972, 7468.769
1053.454, 7548.587
1053.936, 7636.215
1054.418, 7734.167
1054.900, 7853.396
1055.382, 7950.669
1055.864, 7987.013
1056.346, 8025.879
1056.828, 8116.084
1057.311, 8253.100
1057.793, 8346.294
1058.275, 8398.141
1058.757, 8445.159
1059.239, 8500.122
1059.721, 8569.018
1060.203, 8665.607
1060.685, 8779.175
1061.168, 8882.701
1061.650, 8980.338
1062.132, 9045.978
1062.614, 9067.729
1063.096, 9082.678
1063.578, 9140.099
1064.060, 9220.100
1064.542, 9295.901
1065.025, 9364.810
1065.507, 9413.927
1065.989, 9422.271
1066.471, 9428.974
1066.953, 9451.151
1067.435, 9482.527
1067.917, 9488.129
1068.399, 9474.238
1068.881, 9483.932
1069.364, 9582.945
1069.846, 9635.167
1070.328, 9501.362
1070.810, 9297.976
1071.292, 9183.830
1071.774, 9196.511
1072.256, 9161.116
1072.738, 9071.312
1073.220, 8951.490
1073.703, 8796.229
1074.185, 8642.155
1074.667, 8553.088
1075.149, 8518.302
1075.631, 8463.658
1076.113, 8365.772
1076.595, 8252.422
1077.077, 8120.280
1077.559, 7988.579
1078.042, 7902.247
1078.524, 7846.586
1079.006, 7769.477
1079.488, 7655.897
1079.970, 7544.676
1080.452, 7445.246
1080.934, 7365.649
1081.416, 7315.285
1081.899, 7292.141
1082.381, 7233.875
1082.863, 7139.978
1083.345, 7060.718
1083.827, 7035.873
1084.309, 7019.838
1084.791, 6954.606
1085.273, 6870.975
1085.755, 6829.231
1086.238, 6868.167
1086.720, 6876.333
1087.202, 6845.469
1087.684, 6796.669
1088.166, 6735.785
1088.648, 6676.730
1089.130, 6652.188
1089.612, 6659.831
1090.094, 6660.176
1090.577, 6630.730
1091.059, 6600.783
1091.541, 6579.463
1092.023, 6562.379
1092.505, 6537.186
1092.987, 6506.194
1093.469, 6481.506
1093.951, 6466.600
1094.434, 6454.625
1094.916, 6438.943
1095.398, 6425.753
1095.880, 6422.921
1096.362, 6430.610
1096.844, 6423.500
1097.326, 6400.173
1097.808, 6380.349
1098.291, 6374.179
1098.773, 6376.427
1099.255, 6388.049
1099.737, 6402.038
1100.219, 6405.370
1100.701, 6392.032
1101.183, 6372.962
1101.665, 6345.626
1102.147, 6319.560
1102.630, 6306.401
1103.112, 6300.577
1103.594, 6286.913
1104.076, 6266.908
1104.558, 6256.366
1105.040, 6279.687
1105.522, 6290.476
1106.004, 6273.308
1106.486, 6239.658
1106.969, 6207.335
1107.451, 6178.326
1107.933, 6164.596
1108.415, 6169.670
1108.897, 6182.884
1109.379, 6209.507
1109.861, 6231.021
1110.343, 6230.700
1110.826, 6210.930
1111.308, 6199.638
1111.790, 6197.213
1112.272, 6199.215
1112.754, 6206.454
1113.236, 6213.064
1113.718, 6212.379
1114.200, 6207.120
1114.682, 6200.661
1115.165, 6189.296
1115.647, 6188.455
1116.129, 6201.825
1116.611, 6213.071
1117.093, 6209.505
1117.575, 6195.175
1118.057, 6170.623
1118.539, 6140.634
1119.021, 6123.136
1119.504, 6130.714
1119.986, 6143.800
1120.468, 6161.212
1120.950, 6180.505
1121.432, 6203.268
1121.914, 6225.115
1122.396, 6226.973
1122.878, 6206.483
1123.361, 6189.315
1123.843, 6191.212
1124.325, 6198.258
1124.807, 6204.868
1125.289, 6210.661
1125.771, 6213.426
1126.253, 6213.553
1126.735, 6217.177
1127.218, 6227.072
1127.700, 6237.089
1128.182, 6237.576
1128.664, 6238.830
1129.146, 6254.742
1129.628, 6287.139
1130.110, 6300.850
1130.592, 6294.161
1131.074, 6284.076
1131.557, 6280.806
1132.039, 6277.562
1132.521, 6265.003
1133.003, 6247.417
1133.485, 6232.633
1133.967, 6220.715
1134.449, 6216.165
1134.931, 6222.046
1135.413, 6226.561
1135.896, 6219.932
1136.378, 6204.713
1136.860, 6177.085
1137.342, 6142.484
1137.824, 6125.458
1138.306, 6159.487
1138.788, 6175.846
1139.270, 6159.286
1139.752, 6126.958
1140.235, 6098.360
1140.717, 6075.721
1141.199, 6068.103
1141.681, 6077.064
1142.163, 6085.316
1142.645, 6082.749
1143.127, 6080.071
1143.609, 6083.756
1144.092, 6089.736
1144.574, 6081.950
1145.056, 6063.163
1145.538, 6050.975
1146.020, 6054.049
1146.502, 6053.864
1146.984, 6032.894
1147.466, 6009.235
1147.948, 5996.834
1148.431, 5995.722
1148.913, 5997.550
1149.395, 6002.258
1149.877, 6006.966
1150.359, 6008.983
1150.841, 6011.643
1151.323, 6021.870
1151.805, 6032.134
1152.287, 6030.579
1152.770, 6013.123
1153.252, 5994.548
1153.734, 5972.842
1154.216, 5965.512
1154.698, 6006.376
1155.180, 6052.562
1155.662, 6054.167
1156.144, 6021.720
1156.627, 5994.391
1157.109, 5975.950
1157.591, 5962.388
1158.073, 5952.392
1158.555, 5950.705
1159.037, 5975.848
1159.519, 6005.284
1160.001, 5999.331
1160.484, 5957.764
1160.966, 5932.197
1161.448, 5939.814
1161.930, 5947.576
1162.412, 5947.174
1162.894, 5944.277
1163.376, 5953.280
1163.858, 5965.790
1164.340, 5960.500
1164.823, 5929.509
1165.305, 5910.757
1165.787, 5922.075
1166.269, 5936.125
1166.751, 5942.869
1167.233, 5944.576
1167.715, 5947.689
1168.197, 5951.026
1168.679, 5948.547
1169.162, 5928.311
1169.644, 5926.145
1170.126, 5977.606
1170.608, 6026.694
1171.090, 6034.351
1171.572, 6007.697
1172.054, 5997.505
1172.536, 6001.404
1173.019, 6006.203
1173.501, 6007.351
1173.983, 6005.349
1174.465, 6000.387
1174.947, 5992.076
1175.429, 5976.956
1175.911, 5955.627
1176.393, 5945.287
1176.875, 5946.629
1177.358, 5958.068
1177.840, 5989.212
1178.322, 6019.196
1178.804, 6035.666
1179.286, 6043.025
1179.768, 6049.032
1180.250, 6053.784
1180.732, 6048.437
1181.214, 6031.293
1181.697, 6018.633
1182.179, 6029.324
1182.661, 6043.535
1183.143, 6045.279
1183.625, 6038.015
1184.107, 6036.018
1184.589, 6039.540
1185.071, 6042.948
1185.554, 6044.369
1186.036, 6049.288
1186.518, 6068.236
1187.000, 6089.223
1187.482, 6104.153
1187.964, 6111.837
1188.446, 6097.689
1188.928, 6058.265
1189.411, 6026.492
1189.893, 6013.469
1190.375, 6011.411
1190.857, 6018.378
1191.339, 6027.841
1191.821, 6030.799
1192.303, 6024.801
1192.785, 6028.740
1193.267, 6045.415
1193.750, 6052.713
1194.232, 6030.520
1194.714, 6007.138
1195.196, 6023.496
1195.678, 6058.447
1196.160, 6078.800
1196.642, 6074.001
1197.124, 6073.695
1197.606, 6079.118
1198.089, 6082.532
1198.571, 6076.734
1199.053, 6067.555
1199.535, 6059.456
1200.017, 6054.367
1200.499, 6057.216
1200.981, 6075.177
1201.463, 6085.890
1201.945, 6087.959
1202.428, 6084.999
1202.910, 6073.020
1203.392, 6062.575
1203.874, 6071.093
1204.356, 6093.925
1204.838, 6112.529
1205.320, 6127.019
1205.802, 6130.140
1206.285, 6119.461
1206.767, 6103.442
1207.249, 6084.116
1207.731, 6069.310
1208.213, 6073.315
1208.695, 6094.552
1209.177, 6113.566
1209.659, 6130.252
1210.141, 6137.283
1210.624, 6130.246
1211.106, 6122.029
1211.588, 6131.772
1212.070, 6149.291
1212.552, 6159.517
1213.034, 6160.753
1213.516, 6166.144
1213.998, 6181.520
1214.480, 6188.070
1214.963, 6178.167
1215.445, 6163.701
1215.927, 6163.125
1216.409, 6169.364
1216.891, 6172.272
1217.373, 6170.105
1217.855, 6166.602
1218.337, 6162.203
1218.820, 6156.339
1219.302, 6147.316
1219.784, 6139.579
1220.266, 6144.408
1220.748, 6153.882
1221.230, 6155.016
1221.712, 6142.888
1222.194, 6129.898
1222.677, 6112.366
1223.159, 6107.655
1223.641, 6130.761
1224.123, 6162.416
1224.605, 6172.686
1225.087, 6168.762
1225.569, 6161.884
1226.051, 6150.356
1226.533, 6148.699
1227.016, 6161.122
1227.498, 6169.924
1227.980, 6162.220
1228.462, 6146.739
1228.944, 6127.947
1229.426, 6113.664
1229.908, 6120.628
1230.390, 6176.755
1230.872, 6200.880
1231.355, 6185.484
1231.837, 6167.216
1232.319, 6175.398
1232.801, 6195.047
1233.283, 6211.165
1233.765, 6221.703
1234.247, 6220.413
1234.729, 6196.801
1235.212, 6187.351
1235.694, 6195.298
1236.176, 6207.442
1236.658, 6210.167
1237.140, 6212.498
1237.622, 6230.781
1238.104, 6257.483
1238.586, 6267.674
1239.068, 6252.740
1239.551, 6248.031
1240.033, 6258.633
1240.515, 6266.554
1240.997, 6251.004
1241.479, 6228.449
1241.961, 6212.949
1242.443, 6205.977
1242.925, 6209.368
1243.407, 6226.703
1243.890, 6234.871
1244.372, 6229.380
1244.854, 6226.475
1245.336, 6251.544
1245.818, 6277.620
1246.300, 6274.698
1246.782, 6249.026
1247.264, 6237.199
1247.747, 6240.025
1248.229, 6250.660
1248.711, 6269.255
1249.193, 6285.934
1249.675, 6298.137
1250.157, 6299.919
1250.639, 6275.480
1251.121, 6236.475
1251.604, 6228.677
1252.086, 6253.532
1252.568, 6279.284
1253.050, 6301.193
1253.532, 6311.469
1254.014, 6291.665
1254.496, 6268.188
1254.978, 6259.177
1255.460, 6262.780
1255.943, 6275.968
1256.425, 6297.722
1256.907, 6314.209
1257.389, 6322.742
1257.871, 6323.048
1258.353, 6301.373
1258.835, 6285.421
1259.317, 6297.405
1259.799, 6326.663
1260.281, 6328.149
1260.764, 6307.023
1261.246, 6292.704
1261.728, 6294.584
1262.210, 6297.245
1262.692, 6301.292
1263.174, 6293.012
1263.656, 6256.707
1264.138, 6209.039
1264.621, 6216.289
1265.103, 6262.373
1265.585, 6290.176
1266.067, 6279.456
1266.549, 6265.574
1267.031, 6248.192
1267.513, 6248.472
1267.995, 6287.192
1268.478, 6341.325
1268.960, 6304.757
1269.442, 6325.959
1269.924, 6337.544
1270.406, 6340.027
1270.888, 6306.149
1271.370, 6319.224
1271.852, 6313.482
1272.334, 6306.968
1272.817, 6326.650
1273.299, 6298.060
1273.781, 6317.328
1274.263, 6317.492
1274.745, 6326.398
1275.227, 6316.373
1275.709, 6312.195
1276.191, 6326.956
1276.673, 6331.230
1277.156, 6335.151
1277.638, 6366.139
1278.120, 6400.425
1278.602, 6405.303
1279.084, 6362.491
1279.566, 6347.430
1280.048, 6363.789
1280.530, 6380.961
1281.013, 6378.220
1281.495, 6373.620
1281.977, 6395.255
1282.459, 6421.363
1282.941, 6416.750
1283.423, 6373.578
1283.905, 6356.529
1284.387, 6365.463
1284.870, 6383.075
1285.352, 6406.981
1285.834, 6426.262
1286.316, 6431.460
1286.798, 6429.280
1287.280, 6427.346
1287.762, 6425.687
1288.244, 6420.151
1288.726, 6412.549
1289.208, 6416.713
1289.691, 6457.156
1290.173, 6487.313
1290.655, 6479.170
1291.137, 6461.508
1291.619, 6455.391
1292.101, 6458.330
1292.583, 6460.472
1293.065, 6461.855
1293.548, 6457.250
1294.030, 6434.436
1294.512, 6419.305
1294.994, 6418.518
1295.476, 6419.398
1295.958, 6408.517
1296.440, 6391.413
##END=



