##NAMES=Beryl
##RRUFFID=R060944
##IDEAL CHEMISTRY=Be_3_Al_2_Si_6_O_18_
##LOCALITY=Habachtal, Salzburg, Austria
##OWNER=RRUFF
##SOURCE=Lawrence W. Snee
##DESCRIPTION=Green hexagonal prisms in a muscovite schist, variety emerald. Note that there are micro inclusions of actinolite. The Raman signal is a mixture of the two phases.
##STATUS=The identification of this mineral has been confirmed by X-ray diffraction and chemical analysis
##URL=rruff.info/R060944
##MEASURED CHEMISTRY=Be_3.00_(Al_1.59_Mg_0.33_Fe^3+^_0.04_Cr^3+^_0.04_)_Σ=2_Si_6.00_O_18_·Na_0.33_ ; bright inclusions are actinolite
187.0959, 6356.432
187.5780, 6349.221
188.0601, 6356.118
188.5422, 6375.329
189.0243, 6389.302
189.5065, 6385.136
189.9886, 6370.405
190.4707, 6365.244
190.9528, 6373.045
191.4349, 6386.946
191.9170, 6408.038
192.3992, 6434.668
192.8813, 6449.147
193.3634, 6435.943
193.8455, 6407.920
194.3276, 6394.217
194.8097, 6402.061
195.2919, 6414.744
195.7740, 6419.558
196.2561, 6417.630
196.7382, 6419.204
197.2203, 6430.530
197.7024, 6447.227
198.1846, 6461.204
198.6667, 6474.193
199.1488, 6480.967
199.6309, 6469.832
200.1130, 6444.461
200.5951, 6435.454
201.0773, 6464.867
201.5594, 6509.758
202.0415, 6531.240
202.5236, 6523.886
203.0057, 6506.825
203.4878, 6488.894
203.9700, 6470.577
204.4521, 6454.212
204.9342, 6438.783
205.4163, 6427.982
205.8984, 6426.709
206.3805, 6436.752
206.8626, 6449.103
207.3448, 6464.591
207.8269, 6479.874
208.3090, 6476.660
208.7911, 6436.960
209.2732, 6391.228
209.7553, 6383.178
210.2375, 6418.119
210.7196, 6450.769
211.2017, 6451.722
211.6838, 6429.595
212.1659, 6414.187
212.6480, 6415.246
213.1302, 6421.979
213.6123, 6419.232
214.0944, 6406.417
214.5765, 6399.021
215.0586, 6408.125
215.5407, 6428.249
216.0229, 6445.838
216.5050, 6459.241
216.9871, 6467.342
217.4692, 6466.043
217.9513, 6456.218
218.4334, 6449.940
218.9156, 6452.869
219.3977, 6462.587
219.8798, 6476.126
220.3619, 6495.541
220.8440, 6511.936
221.3261, 6509.836
221.8083, 6493.294
222.2904, 6487.188
222.7725, 6514.564
223.2546, 6552.481
223.7367, 6560.618
224.2188, 6529.867
224.7010, 6491.161
225.1831, 6472.261
225.6652, 6468.726
226.1473, 6465.480
226.6294, 6456.942
227.1115, 6447.833
227.5937, 6444.481
228.0758, 6447.581
228.5579, 6452.986
229.0400, 6461.774
229.5221, 6470.785
230.0042, 6467.831
230.4863, 6435.365
230.9685, 6400.512
231.4506, 6389.955
231.9327, 6403.949
232.4148, 6425.374
232.8969, 6445.553
233.3790, 6464.578
233.8612, 6483.206
234.3433, 6510.889
234.8254, 6530.277
235.3075, 6520.869
235.7896, 6487.155
236.2717, 6462.078
236.7539, 6466.055
237.2360, 6489.917
237.7181, 6503.544
238.2002, 6503.101
238.6823, 6497.913
239.1644, 6490.501
239.6466, 6481.779
240.1287, 6475.227
240.6108, 6473.053
241.0929, 6473.099
241.5750, 6470.283
242.0571, 6464.800
242.5393, 6457.084
243.0214, 6445.378
243.5035, 6431.792
243.9856, 6420.179
244.4677, 6411.646
244.9498, 6406.389
245.4320, 6406.054
245.9141, 6412.820
246.3962, 6416.995
246.8783, 6416.135
247.3604, 6411.662
247.8425, 6404.018
248.3247, 6392.928
248.8068, 6382.544
249.2889, 6378.194
249.7710, 6380.352
250.2531, 6387.494
250.7352, 6406.980
251.2174, 6427.050
251.6995, 6435.757
252.1816, 6431.599
252.6637, 6421.737
253.1458, 6412.319
253.6279, 6402.653
254.1100, 6399.581
254.5922, 6412.703
255.0743, 6424.335
255.5564, 6419.251
256.0385, 6399.973
256.5206, 6382.815
257.0027, 6381.684
257.4849, 6397.038
257.9670, 6406.801
258.4491, 6406.600
258.9312, 6406.497
259.4133, 6412.574
259.8954, 6422.192
260.3776, 6429.380
260.8597, 6431.013
261.3418, 6426.716
261.8239, 6413.067
262.3060, 6367.629
262.7881, 6339.335
263.2703, 6349.034
263.7524, 6378.385
264.2345, 6403.082
264.7166, 6412.074
265.1987, 6408.754
265.6808, 6402.124
266.1630, 6389.952
266.6451, 6377.056
267.1272, 6361.630
267.6093, 6346.580
268.0914, 6333.987
268.5735, 6324.627
269.0557, 6318.913
269.5378, 6318.028
270.0199, 6325.694
270.5020, 6330.435
270.9841, 6333.907
271.4662, 6333.861
271.9484, 6326.711
272.4305, 6313.381
272.9126, 6299.750
273.3947, 6291.911
273.8768, 6290.473
274.3589, 6291.233
274.8411, 6294.608
275.3232, 6299.794
275.8053, 6307.839
276.2874, 6317.604
276.7695, 6326.360
277.2516, 6331.431
277.7338, 6333.458
278.2159, 6339.548
278.6980, 6354.499
279.1801, 6367.184
279.6622, 6376.072
280.1443, 6380.348
280.6265, 6377.886
281.1086, 6366.109
281.5907, 6349.703
282.0728, 6341.544
282.5549, 6346.861
283.0370, 6347.443
283.5192, 6327.231
284.0013, 6305.154
284.4834, 6303.880
284.9655, 6332.725
285.4476, 6363.694
285.9297, 6355.140
286.4118, 6301.534
286.8940, 6264.285
287.3761, 6270.220
287.8582, 6289.191
288.3403, 6299.011
288.8224, 6297.923
289.3045, 6292.054
289.7867, 6283.202
290.2688, 6272.560
290.7509, 6267.571
291.2330, 6274.486
291.7151, 6278.752
292.1972, 6264.089
292.6794, 6234.509
293.1615, 6209.785
293.6436, 6201.302
294.1257, 6201.371
294.6078, 6195.379
295.0899, 6180.802
295.5721, 6169.997
296.0542, 6173.558
296.5363, 6188.461
297.0184, 6204.306
297.5005, 6225.166
297.9826, 6242.236
298.4648, 6246.187
298.9469, 6238.597
299.4290, 6230.214
299.9111, 6225.595
300.3932, 6224.692
300.8753, 6226.760
301.3575, 6230.375
301.8396, 6238.421
302.3217, 6258.080
302.8038, 6282.048
303.2859, 6296.454
303.7680, 6296.228
304.2502, 6286.427
304.7323, 6273.980
305.2144, 6252.840
305.6965, 6244.226
306.1786, 6262.483
306.6607, 6286.103
307.1429, 6295.662
307.6250, 6288.375
308.1071, 6273.939
308.5892, 6262.298
309.0713, 6254.328
309.5534, 6243.760
310.0356, 6226.098
310.5177, 6210.593
310.9998, 6201.084
311.4819, 6197.236
311.9640, 6198.043
312.4461, 6203.704
312.9283, 6212.746
313.4104, 6214.204
313.8925, 6197.567
314.3746, 6185.595
314.8567, 6188.694
315.3388, 6195.394
315.8210, 6189.738
316.3031, 6165.346
316.7852, 6134.089
317.2673, 6120.379
317.7494, 6134.733
318.2315, 6140.399
318.7137, 6124.188
319.1958, 6105.441
319.6779, 6096.479
320.1600, 6098.569
320.6421, 6104.700
321.1242, 6106.504
321.6064, 6103.832
322.0885, 6110.149
322.5706, 6134.092
323.0527, 6157.109
323.5348, 6169.229
324.0169, 6172.667
324.4991, 6173.629
324.9812, 6177.559
325.4633, 6180.124
325.9454, 6168.032
326.4275, 6135.669
326.9096, 6111.130
327.3918, 6117.580
327.8739, 6138.250
328.3560, 6149.334
328.8381, 6143.278
329.3202, 6133.836
329.8023, 6133.820
330.2844, 6141.147
330.7665, 6144.159
331.2487, 6138.869
331.7308, 6127.649
332.2129, 6112.655
332.6950, 6092.704
333.1771, 6076.346
333.6592, 6063.588
334.1414, 6056.883
334.6235, 6065.200
335.1056, 6090.192
335.5877, 6109.994
336.0698, 6100.312
336.5519, 6056.543
337.0341, 6028.272
337.5162, 6029.005
337.9983, 6032.520
338.4804, 6021.752
338.9625, 6000.911
339.4446, 5985.541
339.9268, 5985.930
340.4089, 5997.729
340.8910, 6000.268
341.3731, 5979.523
341.8552, 5966.104
342.3373, 5967.478
342.8195, 5975.496
343.3016, 5981.176
343.7837, 5981.811
344.2658, 5981.071
344.7479, 5985.786
345.2300, 6001.053
345.7122, 6007.492
346.1943, 5994.311
346.6764, 5982.012
347.1585, 5984.190
347.6406, 5997.614
348.1227, 6007.918
348.6049, 6001.710
349.0870, 5982.369
349.5691, 5973.395
350.0512, 5980.195
350.5333, 5988.700
351.0154, 5994.919
351.4976, 5998.952
351.9797, 6001.607
352.4618, 6004.381
352.9439, 6002.805
353.4260, 5986.228
353.9081, 5954.040
354.3903, 5933.255
354.8724, 5938.612
355.3545, 5953.137
355.8366, 5955.395
356.3187, 5944.123
356.8008, 5934.278
357.2830, 5934.665
357.7651, 5940.897
358.2472, 5947.364
358.7293, 5954.252
359.2114, 5952.911
359.6935, 5930.011
360.1757, 5886.995
360.6578, 5862.125
361.1399, 5870.844
361.6220, 5885.346
362.1041, 5891.547
362.5862, 5889.842
363.0684, 5883.022
363.5505, 5872.071
364.0326, 5858.144
364.5147, 5844.725
364.9968, 5826.329
365.4789, 5815.616
365.9611, 5819.262
366.4432, 5827.571
366.9253, 5831.288
367.4074, 5828.650
367.8895, 5824.070
368.3716, 5821.669
368.8538, 5820.167
369.3359, 5827.974
369.8180, 5856.978
370.3001, 5883.589
370.7822, 5904.693
371.2643, 5916.840
371.7465, 5912.188
372.2286, 5881.082
372.7107, 5838.574
373.1928, 5828.993
373.6749, 5866.369
374.1570, 5898.614
374.6392, 5910.853
375.1213, 5910.872
375.6034, 5901.426
376.0855, 5882.499
376.5676, 5863.244
377.0497, 5850.997
377.5318, 5844.902
378.0139, 5842.480
378.4961, 5846.272
378.9782, 5847.548
379.4603, 5833.940
379.9424, 5809.442
380.4245, 5790.642
380.9066, 5788.652
381.3888, 5788.632
381.8709, 5772.871
382.3530, 5744.261
382.8351, 5723.963
383.3172, 5725.527
383.7993, 5741.287
384.2815, 5744.295
384.7636, 5720.871
385.2457, 5707.271
385.7278, 5722.177
386.2099, 5744.087
386.6920, 5744.909
387.1742, 5720.104
387.6563, 5691.814
388.1384, 5687.181
388.6205, 5711.521
389.1026, 5730.714
389.5847, 5744.918
390.0669, 5754.096
390.5490, 5753.989
391.0311, 5749.260
391.5132, 5749.570
391.9953, 5761.669
392.4774, 5778.151
392.9596, 5778.413
393.4417, 5755.888
393.9238, 5734.801
394.4059, 5714.764
394.8880, 5702.054
395.3701, 5705.169
395.8523, 5724.537
396.3344, 5745.463
396.8165, 5757.038
397.2986, 5761.028
397.7807, 5765.730
398.2628, 5775.059
398.7450, 5775.784
399.2271, 5745.593
399.7092, 5697.470
400.1913, 5671.021
400.6734, 5697.205
401.1555, 5725.287
401.6377, 5714.963
402.1198, 5676.528
402.6019, 5641.988
403.0840, 5624.555
403.5661, 5618.183
404.0482, 5611.694
404.5304, 5603.847
405.0125, 5598.899
405.4946, 5597.095
405.9767, 5598.412
406.4588, 5606.787
406.9409, 5619.767
407.4231, 5627.034
407.9052, 5619.034
408.3873, 5597.112
408.8694, 5581.455
409.3515, 5583.948
409.8336, 5577.447
410.3158, 5540.250
410.7979, 5499.054
411.2800, 5487.868
411.7621, 5517.703
412.2442, 5560.177
412.7263, 5576.829
413.2085, 5565.632
413.6906, 5566.620
414.1727, 5595.699
414.6548, 5624.052
415.1369, 5630.556
415.6190, 5619.415
416.1012, 5606.360
416.5833, 5595.869
417.0654, 5587.832
417.5475, 5582.794
418.0296, 5580.619
418.5117, 5579.857
418.9939, 5581.683
419.4760, 5582.866
419.9581, 5573.441
420.4402, 5544.192
420.9223, 5526.798
421.4044, 5539.554
421.8865, 5562.217
422.3687, 5571.796
422.8508, 5565.510
423.3329, 5555.896
423.8150, 5555.995
424.2971, 5566.516
424.7792, 5563.392
425.2614, 5530.209
425.7435, 5501.928
426.2256, 5484.246
426.7077, 5477.051
427.1898, 5483.015
427.6719, 5503.152
428.1541, 5525.121
428.6362, 5527.269
429.1183, 5505.460
429.6004, 5491.577
430.0825, 5498.250
430.5646, 5504.110
431.0468, 5492.001
431.5289, 5467.020
432.0110, 5448.900
432.4931, 5454.707
432.9752, 5468.231
433.4573, 5464.047
433.9395, 5442.369
434.4216, 5421.271
434.9037, 5406.514
435.3858, 5399.319
435.8679, 5403.771
436.3500, 5424.850
436.8322, 5442.185
437.3143, 5451.381
437.7964, 5453.923
438.2785, 5449.465
438.7606, 5438.967
439.2427, 5427.175
439.7249, 5417.920
440.2070, 5411.204
440.6891, 5406.620
441.1712, 5406.988
441.6533, 5406.141
442.1354, 5401.231
442.6176, 5395.237
443.0997, 5392.765
443.5818, 5394.957
444.0639, 5396.538
444.5460, 5386.600
445.0281, 5363.498
445.5103, 5357.589
445.9924, 5384.993
446.4745, 5411.161
446.9566, 5412.063
447.4387, 5396.359
447.9208, 5385.909
448.4030, 5395.057
448.8851, 5405.207
449.3672, 5391.816
449.8493, 5359.355
450.3314, 5336.458
450.8135, 5335.877
451.2957, 5344.123
451.7778, 5338.972
452.2599, 5316.704
452.7420, 5297.300
453.2241, 5279.237
453.7062, 5267.544
454.1884, 5269.803
454.6705, 5282.587
455.1526, 5294.250
455.6347, 5297.280
456.1168, 5293.372
456.5989, 5289.212
457.0811, 5285.532
457.5632, 5280.025
458.0453, 5271.456
458.5274, 5261.804
459.0095, 5249.755
459.4916, 5236.653
459.9738, 5229.736
460.4559, 5239.579
460.9380, 5261.391
461.4201, 5273.765
461.9022, 5274.374
462.3843, 5273.263
462.8665, 5276.294
463.3486, 5280.780
463.8307, 5281.972
464.3128, 5278.708
464.7949, 5274.144
465.2770, 5271.346
465.7591, 5267.963
466.2412, 5259.035
466.7234, 5243.694
467.2055, 5226.428
467.6876, 5210.304
468.1697, 5194.957
468.6518, 5189.500
469.1339, 5202.459
469.6161, 5214.029
470.0982, 5220.346
470.5803, 5221.388
471.0624, 5215.601
471.5445, 5202.851
472.0266, 5189.716
472.5088, 5188.619
472.9909, 5202.431
473.4730, 5200.539
473.9551, 5166.170
474.4372, 5135.543
474.9193, 5129.812
475.4015, 5141.239
475.8836, 5153.553
476.3657, 5163.563
476.8478, 5169.339
477.3299, 5168.801
477.8120, 5162.346
478.2942, 5150.465
478.7763, 5131.960
479.2584, 5112.507
479.7405, 5099.807
480.2226, 5095.563
480.7047, 5090.236
481.1869, 5085.617
481.6690, 5078.114
482.1511, 5058.792
482.6332, 5035.622
483.1153, 5026.997
483.5974, 5042.483
484.0796, 5070.769
484.5617, 5087.707
485.0438, 5089.725
485.5259, 5090.717
486.0080, 5089.979
486.4901, 5089.834
486.9723, 5091.562
487.4544, 5094.857
487.9365, 5099.073
488.4186, 5107.574
488.9007, 5113.380
489.3828, 5100.477
489.8650, 5069.882
490.3471, 5050.324
490.8292, 5055.463
491.3113, 5071.637
491.7934, 5076.055
492.2755, 5066.230
492.7577, 5062.549
493.2398, 5080.028
493.7219, 5094.998
494.2040, 5086.729
494.6861, 5059.474
495.1682, 5028.196
495.6504, 5000.315
496.1325, 4979.137
496.6146, 4976.588
497.0967, 5009.189
497.5788, 5025.312
498.0609, 5002.697
498.5431, 4978.892
499.0252, 4978.703
499.5073, 4998.764
499.9894, 5018.460
500.4715, 5025.965
500.9536, 5025.212
501.4358, 5023.220
501.9179, 5020.042
502.4000, 5013.064
502.8821, 4998.816
503.3642, 4983.046
503.8463, 4975.503
504.3285, 4977.019
504.8106, 4979.244
505.2927, 4985.115
505.7748, 4987.625
506.2569, 4974.830
506.7390, 4952.463
507.2212, 4941.655
507.7033, 4955.793
508.1854, 4984.238
508.6675, 4996.896
509.1496, 4986.469
509.6317, 4975.378
510.1138, 4963.129
510.5959, 4952.610
511.0781, 4944.090
511.5602, 4938.547
512.0423, 4939.425
512.5244, 4956.541
513.0065, 4974.610
513.4886, 4959.729
513.9708, 4912.430
514.4529, 4880.831
514.9350, 4884.010
515.4171, 4907.897
515.8992, 4938.204
516.3813, 4979.860
516.8635, 4997.352
517.3456, 4966.107
517.8277, 4926.310
518.3098, 4902.748
518.7919, 4894.106
519.2740, 4892.589
519.7562, 4894.595
520.2383, 4896.922
520.7204, 4891.198
521.2025, 4872.276
521.6846, 4860.493
522.1667, 4864.441
522.6489, 4869.658
523.1310, 4869.983
523.6131, 4866.036
524.0952, 4860.138
524.5773, 4850.909
525.0594, 4843.369
525.5416, 4848.937
526.0237, 4863.878
526.5058, 4863.318
526.9879, 4835.797
527.4700, 4803.806
527.9521, 4796.871
528.4343, 4821.564
528.9164, 4830.213
529.3985, 4802.363
529.8806, 4780.098
530.3627, 4792.103
530.8448, 4820.392
531.3270, 4832.405
531.8091, 4816.282
532.2912, 4789.911
532.7733, 4780.299
533.2554, 4789.927
533.7375, 4792.643
534.2197, 4781.237
534.7018, 4772.244
535.1839, 4777.340
535.6660, 4789.844
536.1481, 4798.091
536.6302, 4798.830
537.1124, 4795.842
537.5945, 4790.060
538.0766, 4782.659
538.5587, 4776.014
539.0408, 4770.560
539.5229, 4766.136
540.0051, 4763.200
540.4872, 4761.546
540.9693, 4756.019
541.4514, 4737.440
541.9335, 4726.580
542.4156, 4732.198
542.8978, 4743.855
543.3799, 4753.982
543.8620, 4760.044
544.3441, 4759.671
544.8262, 4748.946
545.3083, 4729.962
545.7905, 4709.016
546.2726, 4684.046
546.7547, 4667.955
547.2368, 4671.606
547.7189, 4684.284
548.2010, 4685.596
548.6832, 4671.251
549.1653, 4663.279
549.6474, 4676.542
550.1295, 4692.019
550.6116, 4692.509
551.0938, 4678.927
551.5759, 4658.392
552.0580, 4634.045
552.5401, 4611.028
553.0222, 4605.273
553.5043, 4626.030
553.9865, 4639.959
554.4686, 4641.884
554.9507, 4638.169
555.4328, 4628.236
555.9149, 4614.860
556.3970, 4604.739
556.8792, 4599.091
557.3613, 4600.007
557.8434, 4615.225
558.3255, 4640.023
558.8076, 4656.035
559.2897, 4658.138
559.7719, 4651.667
560.2540, 4640.876
560.7361, 4625.056
561.2182, 4614.108
561.7003, 4613.212
562.1824, 4610.333
562.6646, 4595.595
563.1467, 4579.938
563.6288, 4579.568
564.1109, 4597.158
564.5930, 4616.189
565.0751, 4619.216
565.5573, 4608.356
566.0394, 4596.814
566.5215, 4583.219
567.0036, 4574.804
567.4857, 4580.845
567.9678, 4591.057
568.4500, 4584.839
568.9321, 4555.924
569.4142, 4532.347
569.8963, 4522.979
570.3784, 4521.667
570.8605, 4527.794
571.3427, 4537.537
571.8248, 4538.664
572.3069, 4522.856
572.7890, 4501.172
573.2711, 4505.593
573.7532, 4552.256
574.2354, 4572.469
574.7175, 4532.616
575.1996, 4492.400
575.6817, 4489.062
576.1638, 4511.055
576.6459, 4526.100
577.1281, 4522.101
577.6101, 4509.684
578.0922, 4490.194
578.5743, 4469.853
579.0565, 4467.449
579.5386, 4487.301
580.0207, 4511.066
580.5028, 4521.774
580.9849, 4519.560
581.4670, 4513.791
581.9492, 4501.889
582.4313, 4489.322
582.9134, 4474.846
583.3955, 4461.101
583.8776, 4449.400
584.3597, 4440.441
584.8419, 4436.417
585.3240, 4441.752
585.8061, 4452.088
586.2882, 4458.196
586.7703, 4460.054
587.2524, 4459.863
587.7346, 4458.496
588.2167, 4455.416
588.6988, 4449.334
589.1809, 4439.073
589.6630, 4430.671
590.1451, 4425.141
590.6273, 4420.625
591.1094, 4417.932
591.5915, 4415.164
592.0736, 4409.717
592.5557, 4400.585
593.0378, 4388.016
593.5200, 4367.206
594.0021, 4339.609
594.4842, 4332.708
594.9663, 4355.709
595.4484, 4376.355
595.9305, 4375.590
596.4127, 4360.827
596.8948, 4348.251
597.3769, 4337.005
597.8590, 4330.793
598.3411, 4333.045
598.8232, 4339.110
599.3054, 4348.712
599.7875, 4358.637
600.2696, 4359.016
600.7517, 4343.212
601.2338, 4320.202
601.7159, 4310.720
602.1981, 4317.046
602.6802, 4326.696
603.1623, 4343.399
603.6444, 4357.116
604.1265, 4360.173
604.6086, 4355.828
605.0908, 4351.333
605.5729, 4344.672
606.0550, 4344.034
606.5371, 4365.147
607.0192, 4390.926
607.5013, 4389.483
607.9835, 4359.101
608.4656, 4330.479
608.9477, 4330.026
609.4298, 4350.247
609.9119, 4351.034
610.3940, 4320.770
610.8762, 4295.684
611.3583, 4280.092
611.8404, 4272.691
612.3225, 4277.210
612.8046, 4290.508
613.2867, 4300.157
613.7689, 4298.983
614.2510, 4294.298
614.7331, 4294.625
615.2152, 4296.719
615.6973, 4289.492
616.1794, 4270.104
616.6616, 4252.326
617.1437, 4250.758
617.6258, 4265.049
618.1079, 4278.687
618.5900, 4300.079
619.0721, 4308.085
619.5543, 4286.299
620.0364, 4259.525
620.5185, 4250.448
621.0006, 4259.413
621.4827, 4268.422
621.9648, 4264.232
622.4470, 4256.317
622.9291, 4260.319
623.4112, 4272.496
623.8933, 4274.030
624.3754, 4257.660
624.8575, 4236.494
625.3397, 4227.500
625.8218, 4232.568
626.3039, 4232.093
626.7860, 4213.963
627.2681, 4204.896
627.7502, 4223.269
628.2324, 4245.883
628.7145, 4244.688
629.1966, 4216.932
629.6787, 4191.038
630.1608, 4189.500
630.6429, 4201.063
631.1251, 4209.977
631.6072, 4215.500
632.0893, 4212.858
632.5714, 4198.812
633.0535, 4181.239
633.5356, 4171.409
634.0178, 4170.188
634.4999, 4172.376
634.9820, 4189.207
635.4641, 4196.088
635.9462, 4178.699
636.4283, 4151.042
636.9105, 4127.941
637.3926, 4113.008
637.8747, 4106.363
638.3568, 4110.485
638.8389, 4122.009
639.3210, 4138.079
639.8032, 4157.430
640.2853, 4166.643
640.7674, 4157.846
641.2495, 4143.712
641.7316, 4146.796
642.2137, 4176.317
642.6959, 4185.509
643.1780, 4157.057
643.6601, 4129.688
644.1422, 4119.029
644.6243, 4115.020
645.1064, 4099.444
645.5886, 4069.040
646.0707, 4050.723
646.5528, 4080.879
647.0349, 4131.424
647.5170, 4144.935
647.9991, 4122.783
648.4813, 4102.380
648.9634, 4099.965
649.4455, 4105.749
649.9276, 4103.132
650.4097, 4088.187
650.8918, 4080.683
651.3740, 4089.301
651.8561, 4094.991
652.3382, 4088.008
652.8203, 4076.702
653.3024, 4072.183
653.7845, 4076.710
654.2667, 4082.551
654.7488, 4087.211
655.2309, 4088.093
655.7130, 4075.965
656.1951, 4053.638
656.6772, 4042.404
657.1594, 4052.632
657.6415, 4070.338
658.1236, 4073.289
658.6057, 4057.684
659.0878, 4047.086
659.5699, 4047.119
660.0521, 4045.659
660.5342, 4036.230
661.0163, 4025.613
661.4984, 4022.778
661.9805, 4029.123
662.4626, 4034.453
662.9448, 4035.066
663.4269, 4029.822
663.9090, 4011.222
664.3911, 3984.242
664.8732, 3968.944
665.3553, 3973.026
665.8375, 3987.788
666.3196, 4003.242
666.8017, 4020.289
667.2838, 4026.686
667.7659, 4015.103
668.2480, 4003.866
668.7301, 3996.045
669.2122, 3992.229
669.6943, 3994.023
670.1765, 4001.354
670.6586, 4009.594
671.1407, 4024.078
671.6228, 4032.356
672.1049, 4016.475
672.5870, 3986.051
673.0692, 3963.818
673.5513, 3956.625
674.0334, 3958.079
674.5155, 3962.526
674.9976, 3969.448
675.4797, 3970.332
675.9619, 3962.534
676.4440, 3955.357
676.9261, 3951.832
677.4082, 3949.748
677.8903, 3947.200
678.3724, 3944.191
678.8546, 3940.971
679.3367, 3934.059
679.8188, 3930.764
680.3009, 3938.578
680.7830, 3951.212
681.2651, 3960.044
681.7473, 3963.202
682.2294, 3963.568
682.7115, 3964.248
683.1936, 3963.440
683.6757, 3952.340
684.1578, 3928.600
684.6400, 3912.673
685.1221, 3910.171
685.6042, 3915.668
686.0863, 3930.204
686.5684, 3951.268
687.0505, 3954.220
687.5327, 3920.011
688.0148, 3891.507
688.4969, 3883.754
688.9790, 3883.748
689.4611, 3879.299
689.9432, 3870.502
690.4254, 3864.856
690.9075, 3867.780
691.3896, 3873.784
691.8717, 3873.414
692.3538, 3867.814
692.8359, 3865.904
693.3181, 3869.976
693.8002, 3871.177
694.2823, 3860.844
694.7644, 3843.328
695.2465, 3837.178
695.7286, 3854.750
696.2108, 3864.969
696.6929, 3867.831
697.1750, 3863.345
697.6571, 3845.634
698.1392, 3821.769
698.6213, 3805.992
699.1035, 3804.526
699.5856, 3805.979
700.0677, 3800.705
700.5498, 3792.236
701.0319, 3787.259
701.5140, 3785.789
701.9962, 3783.428
702.4783, 3777.709
702.9604, 3770.810
703.4425, 3767.814
703.9246, 3771.322
704.4067, 3766.620
704.8889, 3747.072
705.3710, 3729.128
705.8531, 3718.513
706.3352, 3713.535
706.8173, 3713.310
707.2994, 3718.250
707.7816, 3723.179
708.2637, 3726.263
708.7458, 3728.710
709.2279, 3734.081
709.7100, 3738.824
710.1921, 3734.085
710.6743, 3718.070
711.1564, 3700.977
711.6385, 3693.385
712.1206, 3693.906
712.6027, 3696.807
713.0848, 3702.848
713.5670, 3704.802
714.0491, 3699.269
714.5312, 3690.757
715.0133, 3683.024
715.4954, 3676.080
715.9775, 3674.190
716.4597, 3679.613
716.9418, 3686.969
717.4239, 3698.167
717.9060, 3708.465
718.3881, 3713.880
718.8702, 3714.254
719.3524, 3711.130
719.8345, 3704.701
720.3166, 3696.398
720.7987, 3686.487
721.2808, 3676.148
721.7629, 3669.946
722.2451, 3668.397
722.7272, 3664.091
723.2093, 3650.583
723.6914, 3633.069
724.1735, 3629.252
724.6556, 3647.306
725.1378, 3656.409
725.6199, 3648.527
726.1020, 3639.323
726.5841, 3637.616
727.0662, 3639.308
727.5483, 3637.366
728.0305, 3630.408
728.5126, 3621.661
728.9947, 3608.922
729.4768, 3597.855
729.9589, 3594.176
730.4410, 3596.015
730.9232, 3599.099
731.4053, 3601.763
731.8874, 3603.890
732.3695, 3605.978
732.8516, 3607.464
733.3337, 3605.433
733.8159, 3599.700
734.2980, 3591.283
734.7801, 3579.000
735.2622, 3567.272
735.7443, 3561.203
736.2264, 3560.920
736.7086, 3564.273
737.1907, 3577.888
737.6728, 3586.265
738.1549, 3590.127
738.6370, 3585.093
739.1191, 3559.359
739.6013, 3519.549
740.0834, 3493.326
740.5655, 3498.177
741.0476, 3512.465
741.5297, 3521.136
742.0118, 3524.754
742.4940, 3523.728
742.9761, 3518.498
743.4582, 3508.930
743.9403, 3493.500
744.4224, 3480.075
744.9045, 3491.574
745.3867, 3533.341
745.8688, 3552.500
746.3509, 3536.176
746.8330, 3518.983
747.3151, 3520.875
747.7972, 3532.992
748.2794, 3538.190
748.7615, 3536.566
749.2436, 3528.464
749.7257, 3506.084
750.2078, 3485.696
750.6899, 3474.627
751.1721, 3470.781
751.6542, 3473.227
752.1363, 3480.635
752.6184, 3485.787
753.1005, 3481.885
753.5826, 3473.510
754.0648, 3465.722
754.5469, 3459.333
755.0290, 3459.130
755.5111, 3466.201
755.9932, 3471.807
756.4753, 3467.808
756.9574, 3455.953
757.4395, 3444.477
757.9216, 3431.554
758.4037, 3425.127
758.8859, 3430.244
759.3680, 3436.983
759.8501, 3442.290
760.3322, 3443.829
760.8143, 3433.767
761.2964, 3401.401
761.7786, 3380.283
762.2607, 3388.560
762.7428, 3401.616
763.2249, 3402.214
763.7070, 3394.199
764.1891, 3386.527
764.6713, 3382.311
765.1534, 3382.330
765.6355, 3392.791
766.1176, 3405.832
766.5997, 3401.613
767.0818, 3382.901
767.5640, 3369.571
768.0461, 3368.283
768.5282, 3373.056
769.0103, 3378.280
769.4924, 3383.532
769.9745, 3383.227
770.4567, 3376.636
770.9388, 3366.019
771.4209, 3345.413
771.9030, 3327.917
772.3851, 3323.078
772.8672, 3329.361
773.3494, 3343.426
773.8315, 3379.560
774.3136, 3398.455
774.7957, 3373.258
775.2778, 3341.008
775.7599, 3331.047
776.2421, 3337.761
776.7242, 3343.360
777.2063, 3341.220
777.6884, 3335.442
778.1705, 3328.516
778.6526, 3321.273
779.1348, 3316.300
779.6169, 3312.954
780.0990, 3305.148
780.5811, 3290.420
781.0632, 3278.262
781.5453, 3281.354
782.0275, 3298.285
782.5096, 3310.165
782.9917, 3317.032
783.4738, 3318.378
783.9559, 3312.759
784.4380, 3303.064
784.9202, 3289.601
785.4023, 3273.673
785.8844, 3261.240
786.3665, 3252.865
786.8486, 3247.486
787.3307, 3245.762
787.8129, 3246.131
788.2950, 3247.841
788.7771, 3250.693
789.2592, 3255.438
789.7413, 3262.574
790.2234, 3267.437
790.7056, 3265.514
791.1877, 3259.493
791.6698, 3252.495
792.1519, 3244.990
792.6340, 3235.924
793.1161, 3225.305
793.5983, 3220.923
794.0804, 3234.336
794.5625, 3259.638
795.0446, 3263.167
795.5267, 3241.128
796.0089, 3223.389
796.4910, 3216.819
796.9731, 3214.386
797.4552, 3210.216
797.9373, 3205.458
798.4194, 3205.912
798.9016, 3224.215
799.3837, 3228.000
799.8658, 3202.137
800.3479, 3177.412
800.8300, 3173.644
801.3121, 3179.471
801.7943, 3172.817
802.2764, 3148.002
802.7585, 3131.737
803.2406, 3148.129
803.7227, 3169.071
804.2048, 3168.770
804.6870, 3155.674
805.1691, 3143.720
805.6512, 3137.540
806.1333, 3140.511
806.6154, 3159.600
807.0975, 3182.688
807.5797, 3181.819
808.0618, 3160.056
808.5439, 3137.269
809.0260, 3116.008
809.5081, 3104.887
809.9902, 3111.249
810.4724, 3128.125
810.9545, 3137.850
811.4366, 3137.775
811.9187, 3140.740
812.4008, 3154.782
812.8829, 3158.786
813.3651, 3132.575
813.8472, 3099.118
814.3293, 3087.612
814.8114, 3099.218
815.2935, 3108.231
815.7756, 3110.328
816.2578, 3110.018
816.7399, 3112.069
817.2220, 3110.206
817.7041, 3091.752
818.1862, 3062.950
818.6683, 3048.355
819.1505, 3064.185
819.6326, 3082.073
820.1147, 3073.228
820.5968, 3051.728
821.0789, 3038.176
821.5610, 3033.754
822.0432, 3035.302
822.5253, 3041.394
823.0074, 3046.998
823.4895, 3044.932
823.9716, 3036.517
824.4537, 3028.586
824.9359, 3020.832
825.4180, 3018.751
825.9001, 3024.966
826.3822, 3033.495
826.8643, 3039.576
827.3464, 3042.939
827.8286, 3041.404
828.3107, 3031.378
828.7928, 3023.650
829.2749, 3020.933
829.7570, 3018.426
830.2391, 3014.148
830.7213, 3008.410
831.2034, 3001.584
831.6855, 2993.550
832.1676, 2985.447
832.6497, 2977.217
833.1318, 2969.425
833.6140, 2961.499
834.0961, 2954.745
834.5782, 2950.519
835.0603, 2949.097
835.5424, 2950.421
836.0245, 2956.332
836.5067, 2961.856
836.9888, 2961.909
837.4709, 2958.000
837.9530, 2952.346
838.4351, 2945.568
838.9172, 2937.855
839.3994, 2929.211
839.8815, 2922.124
840.3636, 2921.953
840.8457, 2927.427
841.3278, 2928.112
841.8099, 2923.642
842.2921, 2919.679
842.7742, 2917.847
843.2563, 2918.232
843.7384, 2921.162
844.2205, 2926.401
844.7026, 2932.372
845.1848, 2942.706
845.6669, 2944.726
846.1490, 2928.024
846.6310, 2913.705
847.1132, 2920.433
847.5953, 2936.992
848.0774, 2940.191
848.5595, 2924.330
849.0416, 2912.198
849.5237, 2912.215
850.0059, 2910.419
850.4880, 2895.543
850.9701, 2878.364
851.4522, 2872.778
851.9343, 2879.122
852.4164, 2886.135
852.8986, 2891.526
853.3807, 2891.689
853.8628, 2879.390
854.3449, 2863.086
854.8270, 2852.448
855.3091, 2848.640
855.7913, 2851.821
856.2734, 2862.259
856.7555, 2872.183
857.2376, 2871.049
857.7197, 2862.730
858.2018, 2857.945
858.6840, 2856.053
859.1661, 2851.418
859.6482, 2842.384
860.1303, 2829.549
860.6124, 2812.208
861.0945, 2793.474
861.5767, 2785.847
862.0588, 2790.511
862.5409, 2799.001
863.0230, 2813.712
863.5051, 2821.291
863.9872, 2811.068
864.4694, 2792.802
864.9515, 2785.200
865.4336, 2790.521
865.9157, 2796.090
866.3978, 2807.363
866.8799, 2811.194
867.3621, 2793.936
867.8442, 2777.052
868.3263, 2788.135
868.8084, 2817.734
869.2905, 2818.151
869.7726, 2752.893
870.2548, 2707.876
870.7369, 2724.500
871.2190, 2750.343
871.7011, 2746.017
872.1832, 2726.066
872.6653, 2721.623
873.1475, 2739.541
873.6296, 2756.398
874.1117, 2757.317
874.5938, 2751.769
875.0759, 2744.780
875.5580, 2738.674
876.0402, 2738.163
876.5223, 2742.540
877.0044, 2745.613
877.4865, 2743.635
877.9686, 2739.781
878.4507, 2738.919
878.9329, 2739.314
879.4150, 2736.057
879.8971, 2729.320
880.3792, 2722.076
880.8613, 2715.423
881.3434, 2708.286
881.8256, 2698.596
882.3077, 2688.267
882.7898, 2686.871
883.2719, 2695.123
883.7540, 2700.235
884.2361, 2699.726
884.7183, 2699.059
885.2004, 2703.120
885.6825, 2706.744
886.1646, 2696.429
886.6467, 2665.927
887.1288, 2654.791
887.6110, 2677.854
888.0931, 2690.570
888.5752, 2669.272
889.0573, 2643.021
889.5394, 2642.282
890.0215, 2663.720
890.5037, 2677.407
890.9858, 2676.776
891.4679, 2678.055
891.9500, 2689.671
892.4321, 2695.785
892.9142, 2683.823
893.3964, 2663.060
893.8785, 2646.994
894.3606, 2637.519
894.8427, 2632.431
895.3248, 2633.221
895.8069, 2635.524
896.2891, 2639.405
896.7712, 2642.031
897.2533, 2640.837
897.7354, 2635.660
898.2175, 2625.011
898.6996, 2605.756
899.1818, 2594.703
899.6639, 2615.616
900.1460, 2642.567
900.6281, 2645.446
901.1102, 2630.239
901.5923, 2608.515
902.0745, 2585.855
902.5566, 2573.150
903.0387, 2581.484
903.5208, 2598.883
904.0029, 2608.382
904.4850, 2611.784
904.9672, 2614.173
905.4493, 2615.843
905.9314, 2613.519
906.4135, 2605.605
906.8956, 2598.445
907.3777, 2602.274
907.8599, 2613.495
908.3420, 2613.042
908.8241, 2601.231
909.3062, 2590.951
909.7883, 2584.498
910.2704, 2586.067
910.7526, 2601.652
911.2347, 2620.406
911.7168, 2611.446
912.1989, 2568.087
912.6810, 2545.464
913.1631, 2549.279
913.6453, 2555.891
914.1274, 2559.399
914.6095, 2558.488
915.0916, 2550.427
915.5737, 2536.320
916.0558, 2526.601
916.5380, 2524.451
917.0201, 2519.488
917.5022, 2501.994
917.9843, 2494.072
918.4664, 2516.191
918.9485, 2549.286
919.4307, 2563.102
919.9128, 2555.772
920.3949, 2546.816
920.8770, 2532.661
921.3591, 2522.931
921.8412, 2524.009
922.3234, 2526.024
922.8055, 2520.424
923.2876, 2510.345
923.7697, 2504.936
924.2518, 2507.643
924.7339, 2506.696
925.2161, 2490.711
925.6982, 2479.517
926.1803, 2489.575
926.6624, 2505.866
927.1445, 2509.504
927.6266, 2501.366
928.1088, 2497.244
928.5909, 2506.522
929.0730, 2512.812
929.5551, 2502.878
930.0372, 2489.056
930.5193, 2481.827
931.0015, 2479.838
931.4836, 2480.975
931.9657, 2483.670
932.4478, 2481.544
932.9299, 2465.447
933.4120, 2449.604
933.8942, 2451.694
934.3763, 2460.860
934.8584, 2458.899
935.3405, 2447.930
935.8226, 2441.637
936.3047, 2445.332
936.7868, 2451.287
937.2689, 2451.910
937.7510, 2449.773
938.2332, 2450.175
938.7153, 2451.329
939.1974, 2446.867
939.6795, 2436.941
940.1616, 2429.263
940.6437, 2428.400
941.1259, 2431.245
941.6080, 2435.971
942.0901, 2440.329
942.5722, 2433.525
943.0543, 2417.695
943.5364, 2409.838
944.0186, 2414.261
944.5007, 2419.681
944.9828, 2416.273
945.4649, 2409.730
945.9470, 2417.112
946.4291, 2436.295
946.9113, 2437.799
947.3934, 2419.650
947.8755, 2400.091
948.3576, 2385.359
948.8397, 2375.888
949.3218, 2372.622
949.8040, 2374.503
950.2861, 2377.397
950.7682, 2381.649
951.2503, 2383.071
951.7324, 2381.032
952.2145, 2376.668
952.6967, 2369.679
953.1788, 2362.916
953.6609, 2360.751
954.1430, 2363.057
954.6251, 2366.038
955.1072, 2370.256
955.5894, 2372.925
956.0715, 2373.358
956.5536, 2373.075
957.0357, 2374.336
957.5178, 2373.851
957.9999, 2363.300
958.4821, 2339.636
958.9642, 2328.662
959.4463, 2336.527
959.9284, 2343.275
960.4105, 2342.848
960.8926, 2342.932
961.3748, 2353.241
961.8569, 2367.055
962.3390, 2362.986
962.8211, 2329.985
963.3032, 2312.273
963.7853, 2321.937
964.2675, 2328.525
964.7496, 2320.308
965.2317, 2308.818
965.7138, 2302.536
966.1959, 2301.574
966.6780, 2307.115
967.1602, 2330.306
967.6423, 2338.999
968.1244, 2320.017
968.6065, 2301.969
969.0886, 2294.805
969.5707, 2293.589
970.0529, 2294.573
970.5350, 2297.198
971.0171, 2297.866
971.4992, 2293.907
971.9813, 2291.622
972.4634, 2293.354
972.9456, 2294.981
973.4277, 2293.075
973.9098, 2290.729
974.3919, 2293.766
974.8740, 2302.001
975.3561, 2304.100
975.8383, 2293.283
976.3204, 2283.230
976.8025, 2275.287
977.2846, 2270.451
977.7667, 2273.630
978.2488, 2278.243
978.7310, 2271.022
979.2131, 2250.375
979.6952, 2239.742
980.1773, 2254.472
980.6594, 2266.947
981.1415, 2268.549
981.6237, 2264.553
982.1058, 2255.737
982.5879, 2245.446
983.0700, 2239.510
983.5521, 2239.195
984.0342, 2238.569
984.5164, 2234.448
984.9985, 2231.386
985.4806, 2236.813
985.9627, 2239.331
986.4448, 2223.436
986.9269, 2197.948
987.4091, 2184.548
987.8912, 2188.980
988.3733, 2195.910
988.8554, 2200.721
989.3375, 2205.417
989.8196, 2214.958
990.3018, 2221.699
990.7839, 2214.225
991.2660, 2198.086
991.7481, 2190.551
992.2302, 2198.164
992.7123, 2201.182
993.1945, 2185.027
993.6766, 2169.378
994.1587, 2162.967
994.6408, 2164.936
995.1229, 2180.895
995.6050, 2203.518
996.0872, 2211.295
996.5693, 2195.001
997.0514, 2177.683
997.5335, 2163.836
998.0156, 2158.666
998.4977, 2173.242
998.9799, 2192.725
999.4620, 2200.260
999.9441, 2196.381
1000.426, 2190.384
1000.908, 2184.285
1001.390, 2179.963
1001.873, 2181.048
1002.355, 2181.182
1002.837, 2174.220
1003.319, 2165.171
1003.801, 2161.440
1004.283, 2161.902
1004.765, 2158.149
1005.247, 2144.673
1005.729, 2136.053
1006.212, 2143.373
1006.694, 2153.231
1007.176, 2155.889
1007.658, 2156.268
1008.140, 2162.194
1008.622, 2172.696
1009.104, 2180.594
1009.586, 2185.189
1010.069, 2181.720
1010.551, 2157.963
1011.033, 2136.265
1011.515, 2135.623
1011.997, 2143.194
1012.479, 2140.692
1012.961, 2129.270
1013.443, 2124.991
1013.925, 2135.733
1014.408, 2146.349
1014.890, 2154.866
1015.372, 2156.438
1015.854, 2139.032
1016.336, 2118.693
1016.818, 2120.938
1017.300, 2140.831
1017.782, 2143.790
1018.265, 2109.824
1018.747, 2083.466
1019.229, 2090.254
1019.711, 2099.601
1020.193, 2088.750
1020.675, 2073.276
1021.157, 2076.678
1021.639, 2095.175
1022.121, 2100.851
1022.604, 2077.394
1023.086, 2063.526
1023.568, 2082.620
1024.050, 2101.156
1024.532, 2101.396
1025.014, 2091.486
1025.496, 2078.762
1025.978, 2065.207
1026.460, 2054.229
1026.943, 2046.245
1027.425, 2041.544
1027.907, 2043.946
1028.389, 2045.090
1028.871, 2033.719
1029.353, 2024.675
1029.835, 2038.698
1030.317, 2070.005
1030.800, 2089.812
1031.282, 2091.115
1031.764, 2087.960
1032.246, 2078.185
1032.728, 2069.847
1033.210, 2069.512
1033.692, 2069.271
1034.174, 2058.445
1034.656, 2040.858
1035.139, 2033.113
1035.621, 2043.178
1036.103, 2046.490
1036.585, 2033.487
1037.067, 2023.661
1037.549, 2024.530
1038.031, 2029.486
1038.513, 2035.934
1038.995, 2041.786
1039.478, 2039.045
1039.960, 2021.244
1040.442, 2013.033
1040.924, 2021.788
1041.406, 2028.945
1041.888, 2031.148
1042.370, 2028.861
1042.852, 2019.517
1043.335, 2007.001
1043.817, 2003.363
1044.299, 2013.050
1044.781, 2011.641
1045.263, 1990.282
1045.745, 1977.188
1046.227, 1982.691
1046.709, 1990.438
1047.192, 1986.696
1047.674, 1979.766
1048.156, 1990.828
1048.638, 2024.349
1049.120, 2033.195
1049.602, 2009.043
1050.084, 1988.058
1050.566, 1975.276
1051.048, 1973.257
1051.531, 1987.234
1052.013, 2005.677
1052.495, 2007.391
1052.977, 1992.631
1053.459, 1976.564
1053.941, 1957.357
1054.423, 1955.032
1054.905, 1976.044
1055.387, 1990.437
1055.870, 1980.127
1056.352, 1962.514
1056.834, 1963.718
1057.316, 1979.772
1057.798, 1988.223
1058.280, 1989.112
1058.762, 1982.990
1059.244, 1970.005
1059.727, 1959.737
1060.209, 1956.487
1060.691, 1957.971
1061.173, 1962.684
1061.655, 1968.600
1062.137, 1971.281
1062.619, 1970.167
1063.101, 1959.278
1063.583, 1940.383
1064.066, 1929.343
1064.548, 1931.438
1065.030, 1936.478
1065.512, 1935.321
1065.994, 1931.585
1066.476, 1930.470
1066.958, 1931.884
1067.440, 1937.922
1067.922, 1946.165
1068.405, 1947.475
1068.887, 1940.620
1069.369, 1935.962
1069.851, 1942.059
1070.333, 1948.073
1070.815, 1938.419
1071.297, 1924.190
1071.779, 1922.178
1072.261, 1926.958
1072.744, 1925.917
1073.226, 1918.024
1073.708, 1911.187
1074.190, 1909.669
1074.672, 1907.855
1075.154, 1900.960
1075.636, 1892.903
1076.118, 1885.530
1076.601, 1879.920
1077.083, 1877.505
1077.565, 1877.879
1078.047, 1880.509
1078.529, 1886.348
1079.011, 1886.933
1079.493, 1871.633
1079.975, 1859.233
1080.458, 1863.110
1080.940, 1870.037
1081.422, 1866.378
1081.904, 1857.075
1082.386, 1855.377
1082.868, 1864.065
1083.350, 1869.544
1083.832, 1864.541
1084.314, 1863.523
1084.797, 1878.567
1085.279, 1888.590
1085.761, 1877.407
1086.243, 1855.976
1086.725, 1837.184
1087.207, 1821.171
1087.689, 1822.531
1088.171, 1860.930
1088.653, 1872.656
1089.136, 1838.539
1089.618, 1807.023
1090.100, 1795.031
1090.582, 1798.978
1091.064, 1819.866
1091.546, 1850.742
1092.028, 1856.540
1092.510, 1830.591
1092.993, 1826.061
1093.475, 1849.543
1093.957, 1860.140
1094.439, 1844.375
1094.921, 1821.844
1095.403, 1806.896
1095.885, 1799.907
1096.367, 1805.133
1096.849, 1820.145
1097.332, 1826.944
1097.814, 1825.607
1098.296, 1816.105
1098.778, 1799.531
1099.260, 1786.622
1099.742, 1783.250
1100.224, 1785.087
1100.706, 1787.741
1101.188, 1791.112
1101.671, 1798.036
1102.153, 1804.434
1102.635, 1795.468
1103.117, 1776.646
1103.599, 1775.777
1104.081, 1800.200
1104.563, 1816.173
1105.045, 1790.655
1105.528, 1758.866
1106.010, 1754.622
1106.492, 1759.920
1106.974, 1750.906
1107.456, 1737.719
1107.938, 1745.720
1108.420, 1774.385
1108.902, 1792.824
1109.385, 1785.323
1109.867, 1775.125
1110.349, 1770.280
1110.831, 1767.083
1111.313, 1764.138
1111.795, 1761.166
1112.277, 1757.145
1112.759, 1752.935
1113.241, 1751.865
1113.724, 1755.851
1114.206, 1757.251
1114.688, 1751.595
1115.170, 1749.370
1115.652, 1757.883
1116.134, 1762.728
1116.616, 1751.582
1117.098, 1734.874
1117.580, 1731.744
1118.063, 1741.872
1118.545, 1739.661
1119.027, 1720.748
1119.509, 1709.597
1119.991, 1709.109
1120.473, 1715.988
1120.955, 1730.865
1121.437, 1741.549
1121.920, 1733.546
1122.402, 1715.748
1122.884, 1716.795
1123.366, 1732.442
1123.848, 1730.082
1124.330, 1711.603
1124.812, 1703.032
1125.294, 1709.385
1125.776, 1712.497
1126.259, 1700.481
1126.741, 1684.848
1127.223, 1677.969
1127.705, 1677.958
1128.187, 1687.236
1128.669, 1698.371
1129.151, 1695.247
1129.633, 1681.124
1130.115, 1670.976
1130.598, 1669.833
1131.080, 1673.899
1131.562, 1686.942
1132.044, 1696.686
1132.526, 1692.434
1133.008, 1685.087
1133.490, 1682.537
1133.972, 1683.626
1134.455, 1687.773
1134.937, 1693.610
1135.419, 1692.762
1135.901, 1678.957
1136.383, 1668.102
1136.865, 1663.415
1137.347, 1660.025
1137.829, 1655.516
1138.312, 1652.792
1138.794, 1655.611
1139.276, 1660.842
1139.758, 1660.604
1140.240, 1654.208
1140.722, 1650.682
1141.204, 1651.029
1141.686, 1648.256
1142.168, 1640.132
1142.651, 1637.178
1143.133, 1645.510
1143.615, 1654.253
1144.097, 1649.565
1144.579, 1637.392
1145.061, 1635.005
1145.543, 1640.408
1146.025, 1648.931
1146.507, 1657.324
1146.990, 1648.745
1147.472, 1622.561
1147.954, 1606.030
1148.436, 1617.734
1148.918, 1634.583
1149.400, 1633.017
1149.882, 1623.947
1150.364, 1617.569
1150.847, 1613.072
1151.329, 1608.696
1151.811, 1604.516
1152.293, 1601.225
1152.775, 1598.976
1153.257, 1598.448
1153.739, 1605.119
1154.221, 1606.040
1154.703, 1587.194
1155.186, 1572.395
1155.668, 1581.051
1156.150, 1598.160
1156.632, 1603.029
1157.114, 1598.604
1157.596, 1602.248
1158.078, 1619.372
1158.560, 1627.923
1159.042, 1627.100
1159.525, 1618.605
1160.007, 1599.722
1160.489, 1584.407
1160.971, 1582.454
1161.453, 1586.595
1161.935, 1585.714
1162.417, 1580.599
1162.899, 1573.686
1163.381, 1565.809
1163.864, 1564.162
1164.346, 1567.668
1164.828, 1563.469
1165.310, 1548.644
1165.792, 1539.400
1166.274, 1549.278
1166.756, 1563.813
1167.238, 1568.266
1167.721, 1566.947
1168.203, 1562.948
1168.685, 1558.016
1169.167, 1552.727
1169.649, 1548.669
1170.131, 1550.792
1170.613, 1561.223
1171.095, 1567.827
1171.578, 1566.737
1172.060, 1560.951
1172.542, 1545.956
1173.024, 1532.675
1173.506, 1529.464
1173.988, 1530.262
1174.470, 1527.761
1174.952, 1522.704
1175.434, 1518.943
1175.917, 1515.263
1176.399, 1518.705
1176.881, 1531.250
1177.363, 1542.368
1177.845, 1550.503
1178.327, 1547.077
1178.809, 1524.758
1179.291, 1501.124
1179.773, 1504.593
1180.256, 1523.942
1180.738, 1528.468
1181.220, 1521.835
1181.702, 1510.775
1182.184, 1499.430
1182.666, 1499.953
1183.148, 1513.266
1183.630, 1521.948
1184.113, 1515.211
1184.595, 1504.338
1185.077, 1494.132
1185.559, 1486.708
1186.041, 1483.562
1186.523, 1484.103
1187.005, 1491.510
1187.487, 1500.946
1187.969, 1499.677
1188.452, 1484.736
1188.934, 1476.894
1189.416, 1483.396
1189.898, 1486.489
1190.380, 1482.905
1190.862, 1479.958
1191.344, 1480.851
1191.826, 1482.457
1192.308, 1482.177
1192.791, 1480.015
1193.273, 1473.527
1193.755, 1463.940
1194.237, 1471.360
1194.719, 1492.400
1195.201, 1499.448
1195.683, 1489.677
1196.165, 1474.624
1196.648, 1459.692
1197.130, 1452.918
1197.612, 1465.960
1198.094, 1480.907
1198.576, 1475.812
1199.058, 1465.334
1199.540, 1467.841
1200.022, 1474.730
1200.505, 1469.602
1200.987, 1454.913
1201.469, 1447.534
1201.951, 1453.577
1202.433, 1454.098
1202.915, 1436.910
1203.397, 1427.366
1203.879, 1435.934
1204.361, 1444.050
1204.844, 1442.912
1205.326, 1437.265
1205.808, 1432.022
1206.290, 1427.300
1206.772, 1423.355
1207.254, 1420.204
1207.736, 1418.145
1208.218, 1417.336
1208.700, 1421.116
1209.183, 1429.424
1209.665, 1435.319
1210.147, 1435.374
1210.629, 1434.264
1211.111, 1437.006
1211.593, 1440.197
1212.075, 1441.879
1212.557, 1440.049
1213.040, 1427.285
1213.522, 1412.087
1214.004, 1411.362
1214.486, 1422.594
1214.968, 1424.299
1215.450, 1406.648
1215.932, 1398.633
1216.414, 1420.264
1216.896, 1428.324
1217.379, 1403.231
1217.861, 1383.038
1218.343, 1390.595
1218.825, 1405.435
1219.307, 1401.664
1219.789, 1386.458
1220.271, 1389.978
1220.753, 1410.069
1221.235, 1412.291
1221.718, 1398.727
1222.200, 1393.187
1222.682, 1399.318
1223.164, 1406.973
1223.646, 1411.305
1224.128, 1411.091
1224.610, 1402.146
1225.092, 1392.568
1225.575, 1389.124
1226.057, 1389.247
1226.539, 1392.477
1227.021, 1396.324
1227.503, 1398.336
1227.985, 1397.970
1228.467, 1394.035
1228.949, 1384.815
1229.432, 1378.156
1229.914, 1374.765
1230.396, 1373.142
1230.878, 1374.091
1231.360, 1373.133
1231.842, 1366.539
1232.324, 1365.145
1232.806, 1383.227
1233.288, 1406.359
1233.771, 1394.758
1234.253, 1359.828
1234.735, 1342.036
1235.217, 1338.923
1235.699, 1342.451
1236.181, 1348.803
1236.663, 1350.360
1237.145, 1344.933
1237.627, 1341.501
1238.110, 1346.580
1238.592, 1352.763
1239.074, 1360.810
1239.556, 1363.366
1240.038, 1349.886
1240.520, 1333.895
1241.002, 1330.285
1241.484, 1334.494
1241.967, 1336.509
1242.449, 1336.317
1242.931, 1333.914
1243.413, 1328.194
1243.895, 1329.859
1244.377, 1340.322
1244.859, 1345.876
1245.341, 1342.160
1245.823, 1337.183
1246.306, 1336.785
1246.788, 1336.114
1247.270, 1325.873
1247.752, 1314.567
1248.234, 1314.804
1248.716, 1320.567
1249.198, 1327.557
1249.680, 1331.546
1250.162, 1322.569
1250.645, 1302.097
1251.127, 1291.678
1251.609, 1301.426
1252.091, 1307.572
1252.573, 1306.635
1253.055, 1303.995
1253.537, 1299.238
1254.019, 1296.573
1254.501, 1299.094
1254.984, 1302.158
1255.466, 1299.252
1255.948, 1294.002
1256.430, 1298.224
1256.912, 1308.745
1257.394, 1314.933
1257.876, 1316.638
1258.358, 1314.335
1258.841, 1308.964
1259.323, 1302.312
1259.805, 1295.110
1260.287, 1291.124
1260.769, 1294.952
1261.251, 1298.535
1261.733, 1301.312
1262.215, 1299.536
1262.698, 1284.189
1263.180, 1270.343
1263.662, 1274.017
1264.144, 1286.078
1264.626, 1287.123
1265.108, 1277.945
1265.590, 1274.348
1266.072, 1276.262
1266.554, 1270.941
1267.036, 1258.472
1267.519, 1251.437
##END=



