##NAMES=Beryl
##RRUFFID=R050065
##IDEAL CHEMISTRY=Be_3_Al_2_Si_6_O_18_
##LOCALITY=Xuebaoding, Sichuan Province, China
##OWNER=RRUFF
##SOURCE=Rock Currier
##DESCRIPTION=Light blue colored tabular single crystal
##STATUS=The identification of this mineral has been confirmed by X-ray diffraction and chemical analysis
##URL=rruff.info/R050065
##MEASURED CHEMISTRY=(Be_2.78_Li_0.22_)_Σ=3_Al_2.00_Si_6.00_O_18_·Na_0.22_
93.78320, 63.61217
94.26532, 64.77901
94.74744, 65.11173
95.22955, 64.43887
95.71167, 63.18353
96.19379, 61.51072
96.67590, 59.22981
97.15802, 57.61490
97.64014, 57.27522
98.12225, 57.62680
98.60437, 57.65534
99.08649, 56.99180
99.56860, 55.95302
100.0507, 55.07093
100.5328, 54.30078
101.0150, 53.46835
101.4971, 52.35077
101.9792, 50.91791
102.4613, 49.74724
102.9434, 49.26757
103.4255, 49.02798
103.9077, 48.70761
104.3898, 48.18834
104.8719, 47.60767
105.3540, 47.25187
105.8361, 47.22744
106.3182, 47.25022
106.8004, 47.30815
107.2825, 47.35047
107.7646, 47.31270
108.2467, 47.15060
108.7288, 46.87103
109.2109, 46.57573
109.6931, 46.10365
110.1752, 45.76891
110.6573, 45.68738
111.1394, 45.82229
111.6215, 46.07269
112.1036, 46.36680
112.5858, 46.71937
113.0679, 46.96338
113.5500, 46.78561
114.0321, 46.71544
114.5142, 47.28100
114.9964, 48.56324
115.4785, 49.93998
115.9606, 50.58013
116.4427, 50.53032
116.9248, 50.63110
117.4069, 51.25309
117.8891, 52.14459
118.3712, 52.79057
118.8533, 53.05175
119.3354, 53.07976
119.8175, 52.99368
120.2996, 52.80526
120.7818, 52.65011
121.2639, 52.56139
121.7460, 52.53144
122.2281, 52.77834
122.7102, 54.00351
123.1923, 55.06993
123.6745, 55.26144
124.1566, 54.48308
124.6387, 53.27489
125.1208, 52.38529
125.6029, 51.91904
126.0850, 51.58814
126.5672, 51.39416
127.0493, 51.27674
127.5314, 51.19675
128.0135, 51.13688
128.4956, 51.09579
128.9777, 51.06892
129.4599, 51.24234
129.9420, 51.21311
130.4241, 50.77761
130.9062, 50.14752
131.3883, 49.61755
131.8705, 49.34096
132.3526, 49.30304
132.8347, 49.41007
133.3168, 49.88764
133.7989, 50.25698
134.2810, 50.24934
134.7632, 49.92168
135.2453, 49.56427
135.7274, 49.28652
136.2095, 49.15419
136.6916, 49.29198
137.1737, 50.10149
137.6559, 50.94643
138.1380, 51.08868
138.6201, 50.39775
139.1022, 49.61518
139.5843, 49.24103
140.0664, 49.08407
140.5486, 48.89245
141.0307, 48.52202
141.5128, 48.04859
141.9949, 47.71581
142.4770, 47.63256
142.9591, 47.53034
143.4413, 47.31289
143.9234, 46.99878
144.4055, 46.62068
144.8876, 46.19372
145.3697, 45.71856
145.8518, 45.23810
146.3340, 44.83687
146.8161, 44.35259
147.2982, 43.60599
147.7803, 42.69707
148.2624, 41.90900
148.7445, 41.55964
149.2267, 41.83506
149.7088, 41.77480
150.1909, 41.01748
150.6730, 40.28583
151.1551, 40.01104
151.6372, 40.23551
152.1194, 40.69872
152.6015, 41.10870
153.0836, 41.49310
153.5657, 41.67481
154.0478, 41.57178
154.5299, 41.30671
155.0121, 40.96180
155.4942, 40.55027
155.9763, 40.14473
156.4584, 39.88048
156.9405, 39.76665
157.4227, 39.63734
157.9048, 39.38696
158.3869, 39.09228
158.8690, 38.93911
159.3511, 39.03566
159.8332, 39.19402
160.3154, 39.16339
160.7975, 38.93938
161.2796, 38.72668
161.7617, 38.67601
162.2438, 38.77353
162.7259, 38.84407
163.2081, 38.87069
163.6902, 38.83014
164.1723, 38.70409
164.6544, 38.48997
165.1365, 38.21781
165.6186, 37.87328
166.1008, 37.40878
166.5829, 37.09922
167.0650, 37.07460
167.5471, 37.16048
168.0292, 37.33418
168.5113, 37.57098
168.9935, 37.73472
169.4756, 37.53625
169.9577, 36.57722
170.4398, 36.03667
170.9219, 36.30947
171.4040, 36.79861
171.8862, 37.00393
172.3683, 36.74177
172.8504, 36.19182
173.3325, 35.77506
173.8146, 35.55568
174.2967, 35.42202
174.7789, 35.44007
175.2610, 35.51880
175.7431, 35.56785
176.2252, 35.54908
176.7073, 35.45721
177.1894, 35.26605
177.6716, 34.79231
178.1537, 34.45054
178.6358, 34.40108
179.1179, 34.53358
179.6000, 34.64861
180.0821, 34.66250
180.5643, 34.57287
181.0464, 34.37336
181.5285, 33.96613
182.0106, 33.60669
182.4927, 33.44402
182.9749, 33.44370
183.4570, 33.45447
183.9391, 33.41815
184.4212, 33.33592
184.9033, 33.21976
185.3854, 33.04049
185.8676, 32.87557
186.3497, 32.84053
186.8318, 32.94225
187.3139, 32.92724
187.7960, 32.53329
188.2781, 32.02574
188.7603, 31.72474
189.2424, 31.75718
189.7245, 31.86053
190.2066, 31.65688
190.6887, 31.04683
191.1708, 30.48837
191.6530, 30.12065
192.1351, 29.88449
192.6172, 29.75795
193.0993, 29.74304
193.5814, 29.79925
194.0635, 29.84826
194.5457, 29.88242
195.0278, 29.92497
195.5099, 30.03609
195.9920, 30.13402
196.4741, 30.12785
196.9562, 29.97391
197.4384, 29.72049
197.9205, 29.50496
198.4026, 29.36136
198.8847, 29.21358
199.3668, 29.06520
199.8489, 28.90342
200.3311, 28.71713
200.8132, 28.50100
201.2953, 28.25323
201.7774, 27.96933
202.2595, 27.55355
202.7416, 27.20766
203.2238, 26.94925
203.7059, 26.77210
204.1880, 26.66619
204.6701, 26.62852
205.1522, 26.65302
205.6344, 26.71729
206.1165, 26.99307
206.5986, 27.11256
207.0807, 26.84960
207.5628, 26.38309
208.0449, 26.06528
208.5271, 26.10382
209.0092, 26.39040
209.4913, 26.47646
209.9734, 26.26718
210.4555, 26.02172
210.9376, 25.83951
211.4198, 25.69414
211.9019, 25.48834
212.3840, 25.12847
212.8661, 24.72477
213.3482, 24.57143
213.8303, 24.76549
214.3125, 25.02761
214.7946, 25.22466
215.2767, 25.36429
215.7588, 25.48364
216.2409, 25.60320
216.7230, 25.70554
217.2052, 25.77591
217.6873, 25.82198
218.1694, 25.81739
218.6515, 25.68548
219.1336, 25.43415
219.6157, 25.29505
220.0979, 25.45646
220.5800, 25.71285
221.0621, 25.82530
221.5442, 25.74266
222.0263, 25.62212
222.5084, 25.60077
222.9906, 25.68098
223.4727, 25.83621
223.9548, 26.15079
224.4369, 26.48372
224.9190, 26.77086
225.4011, 27.00709
225.8833, 27.10031
226.3654, 26.84117
226.8475, 26.10536
227.3296, 25.62551
227.8117, 25.72097
228.2938, 26.01758
228.7760, 26.39365
229.2581, 26.80407
229.7402, 27.09682
230.2223, 26.95605
230.7044, 26.10227
231.1866, 25.72256
231.6687, 26.39798
232.1508, 27.22693
232.6329, 27.66818
233.1150, 27.62045
233.5971, 27.32978
234.0793, 27.12992
234.5614, 27.06709
235.0435, 26.98371
235.5256, 26.88543
236.0077, 26.76263
236.4898, 26.53732
236.9720, 26.23310
237.4541, 26.01469
237.9362, 26.14828
238.4183, 26.89636
238.9004, 27.34876
239.3825, 27.32387
239.8647, 27.19527
240.3468, 27.19404
240.8289, 27.35325
241.3110, 27.56473
241.7931, 27.70638
242.2752, 27.79218
242.7574, 27.73331
243.2395, 27.41176
243.7216, 27.05685
244.2037, 26.77443
244.6858, 26.59653
245.1679, 26.54858
245.6501, 26.68368
246.1322, 27.08633
246.6143, 27.31457
247.0964, 27.28466
247.5785, 27.16517
248.0606, 27.02982
248.5428, 26.90173
249.0249, 26.81411
249.5070, 26.80077
249.9891, 26.87370
250.4712, 26.97898
250.9533, 27.25015
251.4355, 27.45082
251.9176, 27.38750
252.3997, 27.06848
252.8818, 26.67487
253.3639, 26.34951
253.8460, 26.09491
254.3282, 25.83019
254.8103, 25.58817
255.2924, 25.31124
255.7745, 24.93210
256.2566, 24.46146
256.7387, 24.00515
257.2209, 23.62964
257.7030, 23.34103
258.1851, 23.09880
258.6672, 22.85774
259.1493, 22.69980
259.6314, 22.77042
260.1136, 23.03552
260.5957, 23.18176
261.0778, 22.97932
261.5599, 22.52308
262.0420, 22.15135
262.5241, 21.79980
263.0063, 21.61170
263.4884, 21.81863
263.9705, 22.36490
264.4526, 22.74146
264.9347, 22.59360
265.4168, 22.20100
265.8990, 22.14766
266.3811, 22.62001
266.8632, 23.04169
267.3453, 22.88200
267.8275, 22.22614
268.3096, 21.74380
268.7917, 21.70310
269.2738, 21.94604
269.7559, 22.25377
270.2380, 22.64400
270.7202, 22.98641
271.2023, 23.21509
271.6844, 23.32798
272.1665, 23.28987
272.6486, 22.98667
273.1307, 22.63906
273.6129, 22.51075
274.0950, 22.59817
274.5771, 22.61563
275.0592, 22.23538
275.5413, 21.56240
276.0234, 21.23556
276.5056, 21.50383
276.9877, 21.95282
277.4698, 22.31468
277.9519, 22.58036
278.4340, 22.70977
278.9161, 22.56156
279.3983, 22.22531
279.8804, 22.12346
280.3625, 22.39902
280.8446, 22.73309
281.3267, 22.91847
281.8088, 23.00525
282.2910, 23.11424
282.7731, 23.34695
283.2552, 23.64937
283.7373, 23.82965
284.2194, 23.82279
284.7015, 23.81243
285.1837, 23.88763
285.6658, 24.01490
286.1479, 24.14137
286.6300, 24.22683
287.1121, 24.31204
287.5942, 24.49948
288.0764, 24.82916
288.5585, 25.16981
289.0406, 25.49904
289.5227, 25.80316
290.0048, 26.04854
290.4869, 26.21352
290.9691, 26.36091
291.4512, 26.62313
291.9333, 27.06023
292.4154, 27.41848
292.8975, 27.50898
293.3796, 27.56748
293.8618, 27.82889
294.3439, 28.35213
294.8260, 28.87710
295.3081, 29.06058
295.7902, 28.85357
296.2723, 28.53726
296.7545, 27.94372
297.2366, 27.40189
297.7187, 27.18826
298.2008, 27.28910
298.6829, 27.38085
299.1650, 27.05045
299.6472, 26.22576
300.1293, 25.65718
300.6114, 25.67538
301.0935, 25.71283
301.5756, 25.47278
302.0577, 25.01632
302.5399, 24.60193
303.0220, 24.46592
303.5041, 24.59352
303.9862, 24.63699
304.4683, 24.44641
304.9504, 24.35051
305.4326, 24.53498
305.9147, 24.88868
306.3968, 25.20979
306.8789, 25.38345
307.3610, 25.42681
307.8431, 25.38347
308.3253, 25.08873
308.8074, 24.98135
309.2895, 25.32665
309.7716, 25.84865
310.2537, 26.18485
310.7358, 26.15721
311.2180, 25.96534
311.7001, 26.08772
312.1822, 26.74327
312.6643, 27.22779
313.1464, 27.24921
313.6285, 27.16040
314.1107, 27.25831
314.5928, 27.62062
315.0749, 28.08536
315.5570, 28.38441
316.0392, 28.41838
316.5213, 28.65263
317.0034, 29.26092
317.4855, 29.98603
317.9676, 30.68598
318.4497, 31.35520
318.9319, 32.08580
319.4140, 33.02882
319.8961, 34.22329
320.3782, 35.22674
320.8603, 35.81788
321.3424, 36.41126
321.8246, 37.15600
322.3067, 38.03257
322.7888, 38.98241
323.2709, 39.99751
323.7530, 41.05108
324.2351, 41.93698
324.7173, 42.83733
325.1994, 43.26329
325.6815, 43.06668
326.1636, 42.36975
326.6457, 41.31214
327.1278, 39.93596
327.6100, 38.31521
328.0921, 36.58622
328.5742, 34.65186
329.0563, 32.81630
329.5384, 31.02139
330.0205, 29.40725
330.5027, 28.16658
330.9848, 27.34631
331.4669, 26.69723
331.9490, 25.86632
332.4311, 24.80495
332.9132, 23.77640
333.3954, 22.71181
333.8775, 21.77057
334.3596, 21.05741
334.8417, 20.57505
335.3238, 20.26649
335.8059, 20.17233
336.2881, 20.29841
336.7702, 20.20472
337.2523, 19.61477
337.7344, 19.10320
338.2165, 18.97920
338.6986, 19.13326
339.1808, 19.29263
339.6629, 19.28762
340.1450, 19.16140
340.6271, 19.08556
341.1092, 19.11321
341.5913, 19.08612
342.0735, 18.83709
342.5556, 18.54165
343.0377, 18.46319
343.5198, 18.75926
344.0019, 19.12736
344.4840, 18.97403
344.9662, 18.11392
345.4483, 17.54377
345.9304, 17.91026
346.4125, 18.48582
346.8946, 18.77090
347.3767, 18.68759
347.8589, 18.48152
348.3410, 18.33934
348.8231, 18.26155
349.3052, 18.30635
349.7873, 18.60937
350.2694, 18.89231
350.7516, 18.95540
351.2337, 18.83158
351.7158, 18.67134
352.1979, 18.52777
352.6800, 18.41401
353.1621, 18.39465
353.6443, 18.52293
354.1264, 18.62548
354.6085, 18.49997
355.0906, 18.29943
355.5727, 18.29844
356.0548, 18.71765
356.5370, 19.21767
357.0191, 19.28111
357.5012, 18.86309
357.9833, 18.51056
358.4654, 18.52079
358.9475, 18.67244
359.4297, 18.67262
359.9118, 18.45392
360.3939, 18.28612
360.8760, 18.41986
361.3581, 18.79601
361.8402, 19.12873
362.3224, 19.38048
362.8045, 19.51938
363.2866, 19.48449
363.7687, 19.29384
364.2508, 19.09778
364.7329, 18.93781
365.2151, 18.81431
365.6972, 18.73307
366.1793, 18.69789
366.6614, 18.68029
367.1436, 18.62597
367.6257, 18.57342
368.1078, 18.64268
368.5899, 18.96956
369.0720, 19.32477
369.5541, 19.48712
370.0363, 19.48864
370.5184, 19.55253
371.0005, 19.82294
371.4826, 20.18228
371.9647, 20.36811
372.4468, 20.35006
372.9290, 20.26329
373.4111, 20.06183
373.8932, 19.84390
374.3753, 19.79865
374.8574, 19.98028
375.3395, 20.30699
375.8217, 20.69338
376.3038, 21.14240
376.7859, 21.62437
377.2680, 22.15683
377.7501, 22.70821
378.2322, 23.27588
378.7144, 23.84939
379.1965, 24.36722
379.6786, 24.77092
380.1607, 25.07361
380.6428, 25.44590
381.1249, 25.91288
381.6071, 26.40647
382.0892, 26.89618
382.5713, 27.39860
383.0534, 27.92560
383.5355, 28.47949
384.0176, 29.10344
384.4998, 29.90335
384.9819, 31.03553
385.4640, 32.10059
385.9461, 32.94996
386.4282, 33.81401
386.9103, 34.96240
387.3925, 36.38787
387.8746, 37.79732
388.3567, 38.83202
388.8388, 39.40225
389.3209, 40.25268
389.8030, 41.34020
390.2852, 42.70384
390.7673, 44.41049
391.2494, 46.40342
391.7315, 48.58926
392.2136, 50.91414
392.6957, 53.37362
393.1779, 55.91474
393.6600, 58.58485
394.1421, 61.27974
394.6242, 63.64824
395.1063, 66.23933
395.5884, 69.61161
396.0706, 73.87759
396.5527, 78.55489
397.0348, 83.12289
397.5169, 87.60974
397.9990, 91.77267
398.4811, 95.98125
398.9633, 99.46619
399.4454, 101.9800
399.9275, 103.4980
400.4096, 104.0727
400.8917, 103.6967
401.3738, 102.4168
401.8560, 100.4690
402.3381, 98.04279
402.8202, 94.50713
403.3023, 89.05834
403.7844, 82.83228
404.2665, 76.85326
404.7487, 71.40280
405.2308, 66.45338
405.7129, 62.09819
406.1950, 58.33443
406.6771, 54.70816
407.1592, 51.08807
407.6414, 47.68665
408.1235, 44.56975
408.6056, 41.76117
409.0877, 39.35606
409.5698, 37.49676
410.0519, 36.07774
410.5341, 34.89393
411.0162, 33.99714
411.4983, 33.13189
411.9804, 32.04631
412.4625, 30.92025
412.9446, 30.09221
413.4268, 29.73116
413.9089, 29.48289
414.3910, 29.02866
414.8731, 28.42930
415.3553, 27.98298
415.8374, 27.79928
416.3195, 27.78558
416.8016, 27.84853
417.2837, 27.99539
417.7658, 28.09206
418.2480, 28.04819
418.7301, 27.96470
419.2122, 27.99274
419.6943, 28.13995
420.1764, 28.22853
420.6585, 28.09337
421.1407, 27.76015
421.6228, 27.55158
422.1049, 27.59806
422.5870, 27.61125
423.0691, 27.48549
423.5512, 27.24710
424.0334, 26.94371
424.5155, 26.59534
424.9976, 26.19404
425.4797, 25.71836
425.9618, 25.06325
426.4439, 24.55569
426.9261, 24.34493
427.4082, 24.15932
427.8903, 23.77773
428.3724, 23.21754
428.8545, 22.66710
429.3366, 22.28871
429.8188, 22.06932
430.3009, 21.76711
430.7830, 21.26426
431.2651, 20.80349
431.7472, 20.41709
432.2293, 20.09604
432.7115, 19.81887
433.1936, 19.57903
433.6757, 19.41580
434.1578, 19.41643
434.6399, 19.63307
435.1220, 19.82739
435.6042, 19.99619
436.0863, 20.12481
436.5684, 20.16910
437.0505, 20.15826
437.5326, 20.18573
438.0147, 20.34781
438.4969, 20.58746
438.9790, 20.68439
439.4611, 20.57455
439.9432, 20.48349
440.4253, 20.54911
440.9074, 20.66175
441.3896, 20.69900
441.8717, 20.62494
442.3538, 20.53790
442.8359, 20.49829
443.3180, 20.51223
443.8001, 20.63938
444.2823, 20.94931
444.7644, 21.26932
445.2465, 21.43112
445.7286, 21.46163
446.2107, 21.44074
446.6928, 21.42498
447.1750, 21.34477
447.6571, 21.07932
448.1392, 20.65069
448.6213, 20.26446
449.1034, 20.04505
449.5855, 19.92767
450.0677, 19.73536
450.5498, 19.47798
451.0319, 19.14761
451.5140, 18.68456
451.9961, 18.17356
452.4782, 17.64900
452.9604, 17.13758
453.4425, 16.83867
453.9246, 17.02422
454.4067, 17.78228
454.8888, 18.06948
455.3709, 17.58060
455.8531, 17.04251
456.3352, 16.66797
456.8173, 16.43426
457.2994, 16.28951
457.7815, 16.21165
458.2636, 16.15452
458.7458, 16.00083
459.2279, 15.61697
459.7100, 15.42369
460.1921, 15.58008
460.6742, 15.77993
461.1563, 15.84658
461.6385, 15.78705
462.1206, 15.70860
462.6027, 15.70203
463.0848, 15.74327
463.5669, 15.70351
464.0491, 15.55675
464.5312, 15.37972
465.0133, 15.13910
465.4954, 14.91331
465.9775, 14.78772
466.4597, 14.78420
466.9418, 14.83967
467.4239, 14.92205
467.9060, 15.02196
468.3881, 15.08344
468.8702, 15.11194
469.3524, 15.07383
469.8345, 14.85597
470.3166, 14.53599
470.7987, 14.35678
471.2808, 14.54414
471.7629, 14.76812
472.2451, 14.66844
472.7272, 14.31554
473.2093, 14.08491
473.6914, 14.16003
474.1735, 14.38994
474.6556, 14.47974
475.1378, 14.39035
475.6199, 14.31980
476.1020, 14.29972
476.5841, 14.30872
477.0662, 14.31932
477.5483, 14.33539
478.0305, 14.40772
478.5126, 14.59667
478.9947, 14.86984
479.4768, 14.93434
479.9589, 14.56463
480.4410, 14.25873
480.9232, 14.07506
481.4053, 13.98777
481.8874, 14.00592
482.3695, 14.11410
482.8516, 14.21745
483.3337, 14.17396
483.8159, 13.94994
484.2980, 13.87210
484.7801, 14.11420
485.2622, 14.30878
485.7443, 14.28950
486.2264, 14.14948
486.7086, 14.04060
487.1907, 14.02658
487.6728, 14.06613
488.1549, 14.10559
488.6370, 14.14496
489.1191, 14.18412
489.6013, 14.22314
490.0834, 14.26201
490.5655, 14.30649
491.0476, 14.35397
491.5297, 14.38533
492.0118, 14.39070
492.4940, 14.37724
492.9761, 14.34789
493.4582, 14.30390
493.9403, 14.26222
494.4224, 14.22643
494.9045, 14.20313
495.3867, 14.22624
495.8688, 14.36030
496.3509, 14.37927
496.8330, 14.10669
497.3151, 13.76386
497.7972, 13.58929
498.2794, 13.60556
498.7615, 13.70123
499.2436, 13.79190
499.7257, 13.87553
500.2078, 13.92006
500.6899, 13.86916
501.1721, 13.84726
501.6542, 13.88074
502.1363, 13.94984
502.6184, 14.05965
503.1005, 14.20006
503.5826, 14.30196
504.0648, 14.26130
504.5469, 14.06008
505.0290, 13.89620
505.5111, 13.76201
505.9932, 13.67910
506.4753, 13.67256
506.9575, 13.71441
507.4396, 13.75494
507.9217, 13.76720
508.4038, 13.80177
508.8859, 13.94386
509.3680, 14.18619
509.8502, 14.40120
510.3323, 14.59104
510.8144, 14.69805
511.2965, 14.60470
511.7786, 14.35392
512.2607, 14.18245
512.7429, 14.20640
513.2250, 14.28722
513.7071, 14.26858
514.1892, 14.19024
514.6713, 14.24852
515.1534, 14.55445
515.6356, 14.97500
516.1177, 15.24941
516.5998, 15.32722
517.0819, 15.36509
517.5640, 15.25385
518.0461, 15.19658
518.5283, 15.39299
519.0104, 15.78024
519.4925, 16.13855
519.9746, 16.32660
520.4567, 16.36844
520.9388, 16.34129
521.4210, 16.17337
521.9031, 16.07199
522.3852, 16.13963
522.8673, 16.21377
523.3494, 16.13446
523.8315, 15.92505
524.3137, 15.77593
524.7958, 15.86275
525.2779, 16.12163
525.7600, 16.33286
526.2421, 16.49006
526.7242, 16.62302
527.2064, 16.75738
527.6885, 16.86475
528.1706, 16.90547
528.6527, 16.86846
529.1348, 16.81021
529.6169, 16.73305
530.0991, 16.66245
530.5812, 16.66186
531.0633, 16.73709
531.5454, 16.78233
532.0275, 16.70234
532.5096, 16.52513
532.9918, 16.44854
533.4739, 16.61921
533.9560, 16.68736
534.4381, 16.43049
534.9202, 16.11593
535.4023, 16.08245
535.8845, 16.36337
536.3666, 16.69353
536.8487, 16.81142
537.3308, 16.71800
537.8129, 16.54749
538.2951, 16.15923
538.7772, 15.88188
539.2593, 15.89955
539.7415, 16.00312
540.2236, 15.93598
540.7057, 15.63841
541.1878, 15.33901
541.6699, 15.34294
542.1520, 15.58553
542.6342, 15.56174
543.1163, 15.10571
543.5984, 14.70603
544.0805, 14.78650
544.5626, 15.12197
545.0447, 15.30710
545.5269, 15.29027
546.0090, 15.11401
546.4911, 14.65730
546.9732, 14.08938
547.4553, 13.76911
547.9374, 13.77227
548.4196, 13.86783
548.9017, 13.82341
549.3838, 13.63299
549.8659, 13.59196
550.3480, 13.84893
550.8301, 14.05038
551.3123, 14.04125
551.7944, 13.94859
552.2765, 13.93609
552.7586, 14.04439
553.2407, 14.19197
553.7228, 14.28551
554.2050, 14.32322
554.6871, 14.34017
555.1692, 14.34477
555.6513, 14.31368
556.1334, 14.22192
556.6155, 14.10115
557.0977, 13.96710
557.5798, 13.81130
558.0619, 13.74068
558.5440, 13.91946
559.0261, 14.27234
559.5082, 14.53244
559.9904, 14.66734
560.4725, 14.68397
560.9546, 14.52308
561.4367, 14.23732
561.9188, 14.09381
562.4009, 14.20429
562.8831, 14.32038
563.3652, 14.32079
563.8473, 14.28396
564.3294, 14.32134
564.8115, 14.45453
565.2936, 14.64226
565.7758, 14.86966
566.2579, 15.13836
566.7400, 15.16329
567.2221, 14.57298
567.7042, 14.18499
568.1863, 14.27176
568.6685, 14.54925
569.1506, 14.74391
569.6327, 14.79099
570.1148, 14.77879
570.5969, 14.75496
571.0790, 14.73376
571.5612, 14.81435
572.0433, 15.01830
572.5254, 15.26954
573.0075, 15.60229
573.4896, 15.92515
573.9717, 16.08352
574.4539, 16.01357
574.9360, 15.96296
575.4181, 16.14938
575.9002, 16.37872
576.3823, 16.34048
576.8644, 16.01922
577.3466, 15.65087
577.8287, 15.38404
578.3108, 15.22102
578.7929, 15.17442
579.2750, 15.47218
579.7571, 15.58457
580.2393, 15.32344
580.7214, 14.98648
581.2035, 14.82818
581.6856, 14.83805
582.1677, 14.81778
582.6498, 14.60441
583.1320, 14.26362
583.6141, 14.03308
584.0962, 13.94495
584.5783, 13.85205
585.0604, 13.66516
585.5425, 13.49844
586.0247, 13.50259
586.5068, 13.65819
586.9889, 13.70231
587.4710, 13.40229
587.9531, 13.00968
588.4352, 12.82360
588.9174, 12.82310
589.3995, 12.84550
589.8816, 12.82136
590.3637, 12.78776
590.8458, 12.82582
591.3279, 13.02447
591.8101, 13.02234
592.2922, 12.60437
592.7743, 12.20058
593.2564, 12.09352
593.7385, 12.16238
594.2206, 12.12665
594.7028, 11.85726
595.1849, 11.52650
595.6670, 11.48119
596.1491, 11.79146
596.6312, 11.84474
597.1133, 11.36958
597.5955, 10.93554
598.0776, 10.91735
598.5597, 11.13851
599.0418, 11.25647
599.5239, 11.14449
600.0060, 10.99546
600.4882, 10.93447
600.9703, 10.95578
601.4524, 11.08804
601.9345, 11.34405
602.4166, 11.53887
602.8987, 11.48527
603.3809, 11.20586
603.8630, 11.03970
604.3451, 11.08137
604.8272, 11.09723
605.3093, 11.01760
605.7914, 10.90875
606.2736, 10.84706
606.7557, 10.83400
607.2378, 10.79681
607.7199, 10.64864
608.2020, 10.43513
608.6841, 10.41999
609.1663, 10.71492
609.6484, 10.88110
610.1305, 10.55429
610.6126, 10.21685
611.0947, 10.39363
611.5768, 11.06788
612.0590, 11.55140
612.5411, 11.37589
613.0232, 10.98490
613.5053, 10.85509
613.9874, 10.96403
614.4695, 11.14719
614.9517, 11.34945
615.4338, 11.54664
615.9159, 11.70947
616.3980, 11.85960
616.8801, 11.88695
617.3622, 11.61633
617.8444, 11.42293
618.3265, 11.55287
618.8086, 11.83780
619.2907, 11.99153
619.7728, 11.91204
620.2549, 11.76455
620.7371, 11.74964
621.2192, 11.86404
621.7013, 12.05286
622.1834, 12.39423
622.6655, 12.62591
623.1476, 12.52347
623.6298, 12.23270
624.1119, 11.98017
624.5940, 11.78771
625.0761, 11.62557
625.5582, 11.46300
626.0403, 11.33443
626.5225, 11.31339
627.0046, 11.38659
627.4867, 11.43651
627.9688, 11.38094
628.4509, 11.26351
628.9330, 11.23346
629.4152, 11.39689
629.8973, 11.45265
630.3794, 11.33061
630.8615, 11.17050
631.3436, 11.00102
631.8257, 10.86064
632.3079, 10.83476
632.7900, 10.99915
633.2721, 11.20030
633.7542, 11.15625
634.2363, 10.90963
634.7184, 10.88904
635.2006, 11.24228
635.6827, 11.63866
636.1648, 11.78763
636.6469, 11.71265
637.1291, 11.65901
637.6112, 11.69583
638.0933, 11.67208
638.5754, 11.41759
639.0576, 11.14412
639.5397, 11.14053
640.0218, 11.41189
640.5039, 11.70237
640.9860, 11.80031
641.4681, 11.74694
641.9503, 11.74936
642.4324, 11.82841
642.9145, 11.91091
643.3966, 11.99610
643.8787, 12.06813
644.3608, 12.11971
644.8430, 12.14909
645.3251, 12.15053
645.8072, 12.08381
646.2893, 12.02258
646.7714, 12.04467
647.2535, 12.13504
647.7357, 12.28366
648.2178, 12.49782
648.6999, 12.61666
649.1820, 12.40805
649.6641, 11.83987
650.1462, 11.61046
650.6284, 12.03841
651.1105, 12.38962
651.5926, 12.47117
652.0747, 12.43529
652.5568, 12.40462
653.0389, 12.41564
653.5211, 12.48928
654.0032, 12.65851
654.4853, 12.89551
654.9674, 13.14573
655.4495, 13.41737
655.9316, 13.59985
656.4138, 13.62762
656.8959, 13.58402
657.3780, 13.55437
657.8601, 13.53656
658.3422, 13.58152
658.8243, 13.68786
659.3065, 13.86733
659.7886, 14.19420
660.2707, 14.57657
660.7528, 14.85514
661.2349, 14.98937
661.7170, 15.09368
662.1992, 15.29042
662.6813, 15.57767
663.1634, 15.90913
663.6455, 16.28961
664.1276, 16.71141
664.6097, 17.19196
665.0919, 17.70118
665.5740, 18.21426
666.0561, 18.73138
666.5382, 19.26188
667.0203, 19.73654
667.5024, 20.28152
667.9846, 21.06479
668.4667, 22.03712
668.9488, 23.02221
669.4309, 23.94935
669.9130, 24.93694
670.3951, 26.16336
670.8773, 27.66151
671.3594, 29.13006
671.8415, 30.40090
672.3236, 31.85089
672.8057, 33.63829
673.2878, 35.59822
673.7700, 37.58636
674.2521, 39.56009
674.7342, 41.52272
675.2163, 43.34813
675.6984, 45.19933
676.1805, 47.41824
676.6627, 50.00756
677.1448, 52.75168
677.6269, 55.51356
678.1090, 58.52638
678.5911, 62.06175
679.0732, 66.14710
679.5554, 70.93633
680.0375, 76.85368
680.5196, 82.98888
681.0017, 88.63081
681.4838, 94.45364
681.9659, 101.2643
682.4481, 109.2315
682.9302, 117.9887
683.4123, 127.3492
683.8944, 137.1924
684.3765, 147.5876
684.8586, 158.7446
685.3408, 169.0456
685.8229, 178.5418
686.3050, 186.2457
686.7871, 190.9629
687.2692, 192.8431
687.7513, 191.8930
688.2335, 187.6365
688.7156, 181.0645
689.1977, 171.9229
689.6798, 161.1294
690.1619, 149.6487
690.6440, 137.8712
691.1262, 126.1964
691.6083, 114.8967
692.0904, 104.0669
692.5725, 94.39174
693.0546, 86.01509
693.5367, 78.49089
694.0189, 71.80515
694.5010, 65.87821
694.9831, 60.67969
695.4652, 56.18974
695.9473, 52.19621
696.4294, 48.69199
696.9116, 45.60920
697.3937, 42.96482
697.8758, 40.68531
698.3579, 38.66760
698.8400, 36.87955
699.3221, 35.27940
699.8043, 33.85314
700.2864, 32.58212
700.7685, 31.32586
701.2506, 30.07170
701.7327, 28.85924
702.2148, 27.58184
702.6970, 26.45634
703.1791, 25.71539
703.6612, 25.27696
704.1433, 24.77649
704.6254, 23.97882
705.1075, 23.21917
705.5897, 22.88246
706.0718, 22.76333
706.5539, 22.40501
707.0360, 21.73224
707.5181, 21.04017
708.0002, 20.57671
708.4824, 20.28144
708.9645, 19.82814
709.4466, 19.02301
709.9287, 18.42982
710.4108, 18.23520
710.8929, 18.12673
711.3751, 17.94859
711.8572, 17.71495
712.3393, 17.49429
712.8214, 17.31164
713.3035, 17.14453
713.7856, 16.97170
714.2678, 16.80105
714.7499, 16.68021
715.2320, 16.60660
715.7141, 16.41251
716.1962, 15.94830
716.6783, 15.36323
717.1605, 15.12579
717.6426, 15.52972
718.1247, 15.70880
718.6068, 15.44872
719.0889, 15.19797
719.5710, 15.17146
720.0532, 15.28840
720.5353, 15.42580
721.0174, 15.56217
721.4995, 15.57916
721.9816, 15.29861
722.4637, 14.85966
722.9459, 14.51036
723.4280, 14.27086
723.9101, 14.14146
724.3922, 14.12997
724.8743, 14.20035
725.3564, 14.29775
725.8386, 14.46375
726.3207, 14.50600
726.8028, 14.33002
727.2849, 14.14318
727.7670, 13.98422
728.2491, 13.86078
728.7313, 13.75906
729.2134, 13.68104
729.6955, 13.69773
730.1776, 13.96472
730.6597, 14.29926
731.1418, 14.40843
731.6240, 14.31309
732.1061, 14.14429
732.5882, 13.94004
733.0703, 13.72995
733.5524, 13.54539
734.0345, 13.38555
734.5167, 13.27141
734.9988, 13.18716
735.4809, 13.17396
735.9631, 13.38855
736.4452, 13.56315
736.9273, 13.39322
737.4094, 12.94177
737.8915, 12.59394
738.3737, 12.54488
738.8558, 12.69251
739.3379, 13.09087
739.8200, 13.59197
740.3021, 13.65994
740.7842, 13.19121
741.2664, 12.72434
741.7485, 12.70705
742.2306, 13.03431
742.7127, 13.19403
743.1948, 13.11233
743.6769, 12.99340
744.1591, 12.81061
744.6412, 12.63289
745.1233, 12.46716
745.6054, 12.33963
746.0875, 12.29373
746.5696, 12.34181
747.0518, 12.47933
747.5339, 12.83565
748.0160, 13.22206
748.4981, 13.24252
748.9802, 12.92486
749.4623, 12.66405
749.9445, 12.66139
750.4266, 12.81994
750.9087, 12.98801
751.3908, 13.21440
751.8729, 13.20943
752.3550, 12.72288
752.8372, 12.33493
753.3193, 12.26218
753.8014, 12.35458
754.2835, 12.47277
754.7656, 12.59685
755.2477, 12.70020
755.7299, 12.75428
756.2120, 12.79637
756.6941, 12.85475
757.1762, 12.93045
757.6583, 13.02954
758.1404, 13.15206
758.6226, 13.27688
759.1047, 13.38679
759.5868, 13.47950
760.0689, 13.53417
760.5510, 13.51737
761.0331, 13.55298
761.5153, 13.70893
761.9974, 13.87985
762.4795, 14.03587
762.9616, 14.14789
763.4437, 14.10911
763.9258, 13.76518
764.4080, 13.50414
764.8901, 13.58101
765.3722, 13.79664
765.8543, 13.94470
766.3364, 14.00818
766.8185, 14.03954
767.3007, 14.06638
767.7828, 14.08587
768.2649, 14.09809
768.7470, 14.10387
769.2291, 14.07871
769.7112, 14.03160
770.1934, 13.92089
770.6755, 13.67525
771.1576, 13.38694
771.6397, 13.22599
772.1218, 13.21213
772.6039, 13.16309
773.0861, 13.02051
773.5682, 12.86750
774.0503, 12.74173
774.5324, 12.63590
775.0145, 12.49766
775.4966, 12.34112
775.9788, 12.31575
776.4609, 12.61751
776.9430, 13.06853
777.4251, 13.20407
777.9072, 13.03289
778.3893, 12.93233
778.8715, 13.00136
779.3536, 13.11741
779.8357, 13.21005
780.3178, 13.26013
780.7999, 13.13619
781.2820, 12.60831
781.7642, 12.24097
782.2463, 12.09869
782.7284, 12.08787
783.2105, 12.21556
783.6926, 12.41592
784.1747, 12.59360
784.6569, 12.72426
785.1390, 12.75475
785.6211, 12.60653
786.1032, 12.33767
786.5853, 12.00096
787.0674, 11.62880
787.5496, 11.42096
788.0317, 11.47791
788.5138, 11.63492
788.9959, 11.64545
789.4780, 11.49000
789.9601, 11.47016
790.4423, 11.64858
790.9244, 11.86417
791.4065, 12.15345
791.8886, 12.40632
792.3707, 12.54048
792.8528, 12.55714
793.3350, 12.49751
793.8171, 12.33988
794.2992, 12.15590
794.7813, 11.96207
795.2634, 11.78258
795.7455, 11.63517
796.2277, 11.53267
796.7098, 11.52157
797.1919, 11.63801
797.6740, 11.80371
798.1561, 11.87094
798.6382, 11.83758
799.1204, 11.73842
799.6025, 11.52125
800.0846, 11.40246
800.5667, 11.56553
801.0488, 11.83674
801.5309, 11.86295
802.0131, 11.58867
802.4952, 11.46322
802.9773, 11.69769
803.4594, 11.89052
803.9415, 11.80250
804.4236, 11.61638
804.9058, 11.59424
805.3879, 11.74076
805.8700, 11.80314
806.3521, 11.54686
806.8342, 11.20804
807.3163, 11.16844
807.7985, 11.36753
808.2806, 11.59964
808.7627, 11.83083
809.2448, 11.87686
809.7269, 11.55185
810.2090, 11.03260
810.6912, 10.88106
811.1733, 11.29597
811.6554, 11.60524
812.1375, 11.83517
812.6196, 11.92068
813.1017, 11.74419
813.5839, 11.45588
814.0660, 11.23950
814.5481, 11.11960
815.0302, 11.06764
815.5123, 11.08111
815.9944, 11.14940
816.4766, 11.33605
816.9587, 11.54800
817.4408, 11.59521
817.9229, 11.45319
818.4050, 11.27208
818.8871, 11.17183
819.3693, 11.12984
819.8514, 11.05547
820.3335, 10.94130
820.8156, 11.01717
821.2977, 11.39050
821.7798, 11.73958
822.2620, 11.86614
822.7441, 11.80485
823.2262, 11.63568
823.7083, 11.21227
824.1904, 11.02149
824.6725, 11.31083
825.1547, 11.57533
825.6368, 11.52006
826.1189, 11.33600
826.6010, 11.31607
827.0831, 11.49997
827.5652, 11.63942
828.0474, 11.52673
828.5295, 11.32160
829.0116, 11.19868
829.4937, 11.14019
829.9758, 11.10946
830.4579, 11.09544
830.9401, 11.06294
831.4222, 10.96897
831.9043, 10.87752
832.3864, 11.03618
832.8685, 11.54445
833.3506, 11.78729
833.8328, 11.63993
834.3149, 11.36345
834.7971, 10.96022
835.2792, 10.58298
835.7613, 10.54958
836.2434, 10.94768
836.7255, 11.19291
837.2076, 10.99372
837.6898, 10.84561
838.1719, 11.07769
838.6540, 11.44467
839.1361, 11.64732
839.6182, 11.64627
840.1003, 11.57561
840.5825, 11.50670
841.0646, 11.43592
841.5467, 11.30074
842.0288, 11.16092
842.5109, 11.28662
842.9930, 11.69431
843.4752, 11.97112
843.9573, 11.84577
844.4394, 11.51003
844.9215, 11.37648
845.4036, 11.48973
845.8857, 11.57863
846.3679, 11.64334
846.8500, 11.68394
847.3321, 11.70247
847.8142, 11.69432
848.2963, 11.63494
848.7784, 11.52956
849.2606, 11.47361
849.7427, 11.50777
850.2248, 11.56624
850.7069, 11.68801
851.1890, 11.77480
851.6711, 11.70057
852.1533, 11.49757
852.6354, 11.27931
853.1175, 11.08945
853.5996, 10.98320
854.0817, 11.04403
854.5638, 11.23245
855.0460, 11.47553
855.5281, 11.75793
856.0102, 12.00532
856.4923, 12.19874
856.9744, 12.24399
857.4565, 11.97610
857.9387, 11.41377
858.4208, 11.12607
858.9029, 11.22610
859.3850, 11.32728
859.8671, 11.32655
860.3492, 11.33931
860.8314, 11.50666
861.3135, 11.75024
861.7956, 11.84910
862.2777, 11.72955
862.7598, 11.58868
863.2419, 11.45117
863.7241, 11.33466
864.2062, 11.25583
864.6883, 11.20461
865.1704, 11.15771
865.6525, 11.11148
866.1346, 11.09450
866.6168, 11.17663
867.0989, 11.26346
867.5810, 11.15697
868.0631, 10.92506
868.5452, 10.81581
869.0273, 10.87355
869.5095, 10.95745
869.9916, 10.96368
870.4737, 10.92892
870.9558, 10.96646
871.4379, 11.10926
871.9200, 11.12347
872.4022, 10.93488
872.8843, 10.76467
873.3664, 10.71138
873.8485, 10.72676
874.3306, 10.75582
874.8127, 10.80043
875.2949, 10.81581
875.7770, 10.76127
876.2591, 10.72618
876.7412, 10.73853
877.2233, 10.77903
877.7054, 10.87596
878.1876, 10.98299
878.6697, 10.95447
879.1518, 10.68587
879.6339, 10.48950
880.1160, 10.69133
880.5981, 11.06763
881.0803, 11.38595
881.5624, 11.59323
882.0445, 11.55313
882.5266, 11.23586
883.0087, 10.89590
883.4908, 10.82529
883.9730, 10.92779
884.4551, 10.75193
884.9372, 10.26696
885.4193, 10.09618
885.9014, 10.43381
886.3835, 10.80125
886.8657, 10.83321
887.3478, 10.68241
887.8299, 10.79751
888.3120, 11.41136
888.7941, 11.66462
889.2762, 11.32195
889.7584, 10.90774
890.2405, 10.39193
890.7226, 10.00483
891.2047, 10.08799
891.6868, 10.58701
892.1689, 10.92326
892.6511, 10.81914
893.1332, 10.63513
893.6153, 10.46768
894.0974, 10.37454
894.5795, 10.48609
895.0616, 10.72375
895.5438, 10.86578
896.0259, 10.82164
896.5080, 10.69099
896.9901, 10.52207
897.4722, 10.36680
897.9543, 10.36634
898.4365, 10.50131
898.9186, 10.67332
899.4007, 10.85499
899.8828, 10.98383
900.3649, 10.99584
900.8470, 10.92813
901.3292, 10.92172
901.8113, 10.99582
902.2934, 11.03318
902.7755, 11.00965
903.2576, 10.98351
903.7397, 10.98274
904.2219, 10.99730
904.7040, 11.02019
905.1861, 11.05869
905.6682, 11.04749
906.1503, 10.89717
906.6324, 10.81414
907.1146, 10.85960
907.5967, 10.98138
908.0788, 11.22926
908.5609, 11.51008
909.0430, 11.54320
909.5251, 11.14502
910.0073, 10.88333
910.4894, 11.32437
910.9715, 11.86166
911.4536, 11.80107
911.9357, 11.37871
912.4178, 11.15415
912.9000, 11.25646
913.3821, 11.41740
913.8642, 11.43267
914.3463, 11.34781
914.8284, 11.21959
915.3105, 11.06315
915.7927, 10.92431
916.2748, 10.81336
916.7569, 10.83993
917.2390, 11.08913
917.7211, 11.37554
918.2032, 11.35698
918.6854, 11.01483
919.1675, 10.89819
919.6496, 11.09267
920.1317, 11.25154
920.6138, 11.29076
921.0959, 11.26093
921.5781, 11.19415
922.0602, 11.09459
922.5423, 10.98234
923.0244, 10.85708
923.5065, 10.71919
923.9886, 10.48218
924.4708, 10.33049
924.9529, 10.43714
925.4350, 10.62244
925.9171, 10.65012
926.3992, 10.50375
926.8813, 10.36181
927.3635, 10.27985
927.8456, 10.23796
928.3277, 10.26341
928.8098, 10.29550
929.2919, 10.23532
929.7740, 10.12206
930.2562, 10.09327
930.7383, 10.20476
931.2204, 10.32391
931.7025, 10.30167
932.1846, 10.20816
932.6667, 10.16055
933.1489, 10.15769
933.6310, 10.20496
934.1132, 10.29759
934.5953, 10.37195
935.0774, 10.38081
935.5595, 10.33885
936.0416, 10.28949
936.5237, 10.23333
937.0059, 10.07200
937.4880, 9.774493
937.9701, 9.514116
938.4522, 9.331198
938.9343, 9.290114
939.4164, 9.520750
939.8986, 9.994562
940.3807, 10.19525
940.8628, 9.933807
941.3449, 9.771017
941.8270, 9.809854
942.3091, 9.896926
942.7913, 9.971313
943.2734, 10.03303
943.7555, 10.09964
944.2376, 10.18495
944.7197, 10.16206
945.2018, 9.893396
945.6840, 9.659491
946.1661, 9.561721
946.6482, 9.548306
947.1303, 9.600358
947.6124, 9.689651
948.0945, 9.749392
948.5767, 9.743943
949.0588, 9.775434
949.5409, 10.02454
950.0230, 10.23946
950.5051, 10.09590
950.9872, 9.754902
951.4694, 9.491819
951.9515, 9.386640
952.4336, 9.482843
952.9157, 9.875216
953.3978, 10.29205
953.8799, 10.28459
954.3621, 10.00138
954.8442, 9.821630
955.3263, 9.772245
955.8084, 9.809557
956.2905, 9.916402
956.7726, 9.961262
957.2548, 9.755691
957.7369, 9.393500
958.2190, 9.309669
958.7011, 9.518467
959.1832, 9.732574
959.6653, 9.933329
960.1475, 10.00987
960.6296, 9.867029
961.1117, 9.619322
961.5938, 9.464765
962.0759, 9.399817
962.5580, 9.477478
963.0402, 9.838302
963.5223, 10.03984
964.0044, 9.898973
964.4865, 9.675747
964.9686, 9.472661
965.4507, 9.351480
965.9329, 9.541063
966.4150, 10.28054
966.8971, 10.68173
967.3792, 10.40654
967.8613, 10.12456
968.3434, 10.10298
968.8256, 10.17319
969.3077, 10.15469
969.7898, 10.05781
970.2719, 9.998805
970.7540, 9.980347
971.2361, 10.06660
971.7183, 10.45378
972.2004, 10.79281
972.6825, 10.73458
973.1646, 10.47109
973.6467, 10.33161
974.1288, 10.37246
974.6110, 10.42125
975.0931, 10.37323
975.5752, 10.29996
976.0573, 10.27092
976.5394, 10.25719
977.0215, 10.18486
977.5037, 10.08757
977.9858, 10.09247
978.4679, 10.24032
978.9500, 10.42747
979.4321, 10.57070
979.9142, 10.66747
980.3964, 10.64087
980.8785, 10.56135
981.3606, 10.74003
981.8427, 11.19217
982.3248, 11.61189
982.8069, 11.83987
983.2891, 11.89658
983.7712, 11.77145
984.2533, 11.49722
984.7354, 11.29005
985.2175, 11.14814
985.6996, 11.15743
986.1818, 11.35153
986.6639, 11.60401
987.1460, 11.83210
987.6281, 12.04342
988.1102, 12.24667
988.5923, 12.43398
989.0745, 12.68842
989.5566, 13.03757
990.0387, 13.38519
990.5208, 13.75413
991.0029, 14.01779
991.4850, 14.00061
991.9672, 13.80055
992.4493, 13.79735
992.9314, 14.03748
993.4135, 14.36571
993.8956, 14.86462
994.3777, 15.33839
994.8599, 15.60265
995.3420, 15.91144
995.8241, 16.63365
996.3062, 17.65665
996.7883, 18.33029
997.2704, 18.38018
997.7526, 18.47810
998.2347, 18.68563
998.7168, 18.99470
999.1989, 19.54567
999.6810, 20.10830
1000.163, 20.30710
1000.645, 20.18406
1001.127, 20.30076
1001.609, 21.02917
1002.092, 21.69587
1002.574, 21.90999
1003.056, 22.07615
1003.538, 22.59819
1004.020, 23.25647
1004.502, 23.60431
1004.984, 23.59261
1005.466, 23.64964
1005.949, 24.02112
1006.431, 24.50762
1006.913, 25.02276
1007.395, 25.52838
1007.877, 26.00598
1008.359, 26.42684
1008.841, 26.71348
1009.323, 26.85414
1009.805, 26.97956
1010.288, 27.25338
1010.770, 27.48647
1011.252, 27.40665
1011.734, 27.13934
1012.216, 26.89967
1012.698, 26.70225
1013.180, 26.48551
1013.662, 26.22345
1014.145, 25.91139
1014.627, 25.54099
1015.109, 25.12059
1015.591, 24.59812
1016.073, 24.04767
1016.555, 23.80992
1017.037, 23.86056
1017.519, 23.66720
1018.001, 22.95815
1018.484, 22.13829
1018.966, 21.76373
1019.448, 21.70236
1019.930, 21.49179
1020.412, 21.14369
1020.894, 20.76757
1021.376, 20.38267
1021.858, 19.87831
1022.341, 19.17184
1022.823, 18.43852
1023.305, 17.94051
1023.787, 17.66998
1024.269, 17.59260
1024.751, 17.72501
1025.233, 17.70715
1025.715, 17.45465
1026.198, 17.13469
1026.680, 16.83653
1027.162, 16.58463
1027.644, 16.43743
1028.126, 16.39776
1028.608, 16.34382
1029.090, 16.28553
1029.572, 16.15698
1030.054, 15.91639
1030.536, 15.67794
1031.019, 15.49455
1031.501, 15.40313
1031.983, 15.53340
1032.465, 15.96499
1032.947, 15.92884
1033.429, 15.12905
1033.911, 14.65098
1034.393, 14.85653
1034.876, 15.21215
1035.358, 15.36643
1035.840, 15.38280
1036.322, 15.41433
1036.804, 15.47840
1037.286, 15.46453
1037.768, 15.24118
1038.250, 15.18318
1038.733, 15.49783
1039.215, 15.84830
1039.697, 16.02391
1040.179, 16.04702
1040.661, 15.94133
1041.143, 15.61371
1041.625, 15.50209
1042.107, 15.68408
1042.589, 15.97715
1043.072, 16.53370
1043.554, 17.01174
1044.036, 17.05983
1044.518, 16.86868
1045.000, 16.90569
1045.482, 17.23642
1045.964, 17.59188
1046.446, 18.03039
1046.928, 18.38864
1047.411, 18.48159
1047.893, 18.61347
1048.375, 19.08479
1048.857, 19.75333
1049.339, 20.27097
1049.821, 20.59002
1050.303, 20.84266
1050.785, 20.91172
1051.268, 21.09869
1051.750, 21.52175
1052.232, 22.07748
1052.714, 22.73503
1053.196, 23.44472
1053.678, 24.06972
1054.160, 24.54221
1054.642, 25.26136
1055.125, 26.54540
1055.607, 27.79561
1056.089, 28.69398
1056.571, 29.55333
1057.053, 30.74818
1057.535, 32.07382
1058.017, 32.99135
1058.499, 33.34489
1058.981, 33.96560
1059.464, 35.20106
1059.946, 36.61891
1060.428, 38.16485
1060.910, 39.71781
1061.392, 41.28551
1061.874, 42.76012
1062.356, 43.92558
1062.838, 44.73168
1063.320, 45.51401
1063.803, 46.40735
1064.285, 47.28269
1064.767, 48.22191
1065.249, 48.98895
1065.731, 49.17535
1066.213, 49.10590
1066.695, 49.52183
1067.177, 50.55334
1067.660, 51.27128
1068.142, 51.14878
1068.624, 50.83514
1069.106, 50.49229
1069.588, 50.21511
1070.070, 50.18510
1070.552, 50.23438
1071.034, 50.04709
1071.516, 49.57410
1071.999, 49.05016
1072.481, 48.52882
1072.963, 48.03486
1073.445, 47.70533
1073.927, 47.28439
1074.409, 46.56536
1074.891, 45.60349
1075.373, 44.45455
1075.855, 43.16101
1076.338, 41.91163
1076.820, 40.66043
1077.302, 39.65895
1077.784, 39.34853
1078.266, 39.02182
1078.748, 38.05850
1079.230, 36.74240
1079.712, 35.51451
1080.195, 34.44654
1080.677, 33.45293
1081.159, 32.50417
1081.641, 31.63001
1082.123, 30.88386
1082.605, 30.18720
1083.087, 29.57581
1083.569, 28.92693
1084.052, 27.97583
1084.534, 26.80319
1085.016, 25.92092
1085.498, 25.64096
1085.980, 25.25195
1086.462, 24.17702
1086.944, 23.17995
1087.426, 22.88247
1087.908, 22.85665
1088.391, 22.55621
1088.873, 22.01994
1089.355, 21.63482
1089.837, 21.55424
1090.319, 21.43570
1090.801, 21.06853
1091.283, 20.71185
1091.765, 20.57311
1092.248, 20.46679
1092.730, 20.18272
1093.212, 19.76458
1093.694, 19.36745
1094.176, 19.02751
1094.658, 18.71469
1095.140, 18.33700
1095.622, 18.09018
1096.104, 18.27121
1096.587, 18.43229
1097.069, 18.06978
1097.551, 17.42305
1098.033, 17.05461
1098.515, 17.07252
1098.997, 17.03364
1099.479, 16.70397
1099.961, 16.44388
1100.443, 16.41771
1100.926, 16.45881
1101.408, 16.50851
1101.890, 16.51683
1102.372, 16.36886
1102.854, 16.06935
1103.336, 15.91565
1103.818, 16.12491
1104.300, 16.26319
1104.783, 16.22819
1105.265, 16.10830
1105.747, 15.88719
1106.229, 15.64988
1106.711, 15.51571
1107.193, 15.32764
1107.675, 15.36975
1108.157, 15.09410
1108.640, 14.94779
1109.122, 14.96953
1109.604, 15.12607
1110.086, 15.62063
1110.568, 16.06874
1111.050, 16.04823
1111.532, 15.66376
1112.014, 15.33576
1112.496, 15.04884
1112.979, 14.91259
1113.461, 15.09174
1113.943, 15.20408
1114.425, 15.15998
1114.907, 15.01894
1115.389, 14.75519
1115.871, 14.44646
1116.353, 14.27822
1116.835, 14.28138
1117.318, 14.23528
1117.800, 14.01294
1118.282, 13.98776
1118.764, 14.39331
1119.246, 14.73318
1119.728, 14.69522
1120.210, 14.46953
1120.692, 14.34050
1121.175, 14.30534
1121.657, 14.22596
1122.139, 14.01006
1122.621, 14.03319
1123.103, 14.46877
1123.585, 14.79220
1124.067, 14.76052
1124.549, 14.55776
1125.031, 14.35121
1125.514, 14.16688
1125.996, 14.15349
1126.478, 14.36563
1126.960, 14.44201
1127.442, 14.34612
1127.924, 14.22973
1128.406, 14.12813
1128.888, 14.05266
1129.370, 14.00169
1129.853, 14.00796
1130.335, 14.21499
1130.817, 14.02512
1131.299, 14.53190
1131.781, 13.90788
1132.263, 13.60216
1132.745, 13.79649
1133.227, 14.13576
1133.710, 14.43403
1134.192, 14.62457
1134.674, 14.56620
1135.156, 14.34454
1135.638, 14.30695
1136.120, 14.44073
1136.602, 14.71285
1137.084, 15.08903
1137.567, 15.24659
1138.049, 15.06342
1138.531, 14.82326
1139.013, 14.80690
1139.495, 14.63843
1139.977, 14.74394
1140.459, 14.49324
1140.941, 14.37492
1141.423, 14.39882
1141.906, 14.59908
1142.388, 14.93658
1142.870, 15.12288
1143.352, 14.96264
1143.834, 14.68969
1144.316, 14.52800
1144.798, 14.46938
1145.280, 14.62726
1145.762, 14.82370
1146.245, 14.60537
1146.727, 14.06715
1147.209, 13.77158
1147.691, 13.93382
1148.173, 14.13488
1148.655, 14.00923
1149.137, 13.83999
1149.619, 13.89924
1150.102, 14.03258
1150.584, 14.07059
1151.066, 14.03490
1151.548, 14.02729
1152.030, 14.05196
1152.512, 13.97056
1152.994, 13.69263
1153.476, 13.35990
1153.958, 12.93911
1154.441, 12.60103
1154.923, 12.55928
1155.405, 12.59405
1155.887, 12.42863
1156.369, 12.09031
1156.851, 11.77067
1157.333, 11.49262
1157.815, 11.28228
1158.297, 11.16318
1158.780, 11.08961
1159.262, 11.07246
1159.744, 11.07095
1160.226, 11.07852
1160.708, 11.07290
1161.190, 10.99359
1161.672, 10.83105
1162.154, 10.75531
1162.637, 10.78484
1163.119, 10.87698
1163.601, 11.14430
1164.083, 11.25992
1164.565, 10.98703
1165.047, 10.66259
1165.529, 10.67749
1166.011, 10.48366
1166.494, 10.38816
1166.976, 10.47192
1167.458, 10.36248
1167.940, 10.62317
1168.422, 10.89871
1168.904, 11.14445
1169.386, 11.13624
1169.868, 10.67104
1170.350, 10.08291
1170.833, 9.941028
1171.315, 10.17071
1171.797, 10.36618
1172.279, 10.52638
1172.761, 10.64670
1173.243, 10.72583
1173.725, 10.75288
1174.207, 10.72345
1174.689, 10.62398
1175.172, 10.42449
1175.654, 10.20145
1176.136, 10.09188
1176.618, 10.05643
1177.100, 9.994227
1177.582, 9.929821
1178.064, 9.953003
1178.546, 10.06853
1179.029, 10.22257
1179.511, 10.39541
1179.993, 10.49584
1180.475, 10.35552
1180.957, 10.20087
1181.439, 10.33782
1181.921, 10.53074
1182.403, 10.37460
1182.885, 10.05919
1183.368, 10.12322
1183.850, 10.62947
1184.332, 10.93284
1184.814, 10.61859
1185.296, 10.33048
1185.778, 10.33005
1186.260, 10.43460
1186.742, 10.61973
1187.225, 10.78523
1187.707, 10.81336
1188.189, 10.73365
1188.671, 10.66421
1189.153, 10.60796
1189.635, 10.59410
1190.117, 10.61616
1190.599, 10.69960
1191.082, 10.97174
1191.564, 11.12311
1192.046, 10.89850
1192.528, 10.56613
1193.010, 10.49989
1193.492, 10.66736
1193.974, 10.79824
1194.456, 10.89099
1194.938, 10.96327
1195.421, 11.02664
1195.903, 10.98974
1196.385, 10.81164
1196.867, 10.61798
1197.349, 10.49378
1197.831, 10.44770
1198.313, 10.53415
1198.795, 10.70626
1199.277, 10.71443
1199.760, 10.59285
1200.242, 10.51473
1200.724, 10.49883
1201.206, 10.51377
1201.688, 10.54118
1202.170, 10.52061
1202.652, 10.40260
1203.134, 10.21017
1203.617, 9.838510
1204.099, 9.513350
1204.581, 9.632521
1205.063, 10.01307
1205.545, 10.34926
1206.027, 10.56747
1206.509, 10.63551
1206.991, 10.52489
1207.474, 10.47472
1207.956, 10.72679
1208.438, 10.92086
1208.920, 10.80741
1209.402, 10.62573
1209.884, 10.55668
1210.366, 10.55289
1210.848, 10.54028
1211.330, 10.50822
1211.813, 10.42859
1212.295, 10.21140
1212.777, 10.12708
1213.259, 10.30848
1213.741, 10.40484
1214.223, 10.21244
1214.705, 10.10305
1215.187, 10.38244
1215.669, 10.84877
1216.152, 11.15893
1216.634, 11.30859
1217.116, 11.13144
1217.598, 10.57940
1218.080, 10.33494
1218.562, 10.47629
1219.044, 10.69023
1219.526, 10.87140
1220.009, 10.97343
1220.491, 10.95488
1220.973, 10.85878
1221.455, 10.70689
1221.937, 10.55879
1222.419, 10.51788
1222.901, 10.62489
1223.383, 11.18508
1223.865, 12.00303
1224.348, 12.20895
1224.830, 11.55624
1225.312, 10.93877
1225.794, 11.00767
1226.276, 11.23170
1226.758, 11.25600
1227.240, 11.20159
1227.722, 11.16556
1228.204, 11.12349
1228.687, 10.95761
1229.169, 10.75284
1229.651, 10.83961
1230.133, 11.36305
1230.615, 11.67074
1231.097, 11.41383
1231.579, 11.27986
1232.061, 11.72120
1232.544, 11.88450
1233.026, 11.07398
1233.508, 10.16932
1233.990, 10.25334
1234.472, 11.03339
1234.954, 11.24848
1235.436, 10.78491
1235.918, 10.55312
1236.401, 10.57463
1236.883, 10.60651
1237.365, 10.60144
1237.847, 10.54787
1238.329, 10.43645
1238.811, 10.34053
1239.293, 10.36911
1239.775, 10.42642
1240.257, 10.25413
1240.740, 9.980923
1241.222, 9.928262
1241.704, 10.03693
1242.186, 10.14036
1242.668, 10.17341
1243.150, 10.02536
1243.632, 9.629473
1244.114, 9.302176
1244.596, 9.232203
1245.079, 9.324729
1245.561, 9.693683
1246.043, 10.02632
1246.525, 10.01614
1247.007, 9.819718
1247.489, 9.646951
1247.971, 9.529800
1248.453, 9.528722
1248.936, 9.441461
1249.418, 9.375268
1249.900, 9.485188
1250.382, 9.315816
1250.864, 9.513016
1251.346, 9.667993
1251.828, 9.510891
1252.310, 9.297272
1252.792, 9.396332
1253.275, 9.695001
1253.757, 9.694632
1254.239, 9.424103
1254.721, 9.233403
1255.203, 9.135957
1255.685, 9.093359
1256.167, 9.095740
1256.649, 9.156899
1257.131, 9.285033
1257.614, 9.399332
1258.096, 9.409338
1258.578, 9.377637
1259.060, 9.358337
1259.542, 9.356172
1260.024, 9.390435
1260.506, 9.439336
1260.988, 9.483129
1261.471, 9.505491
1261.953, 9.453965
1262.435, 9.288998
1262.917, 9.172828
1263.399, 9.203477
1263.881, 9.204935
1264.363, 9.021576
1264.845, 8.935648
1265.328, 9.162602
1265.810, 9.474941
1266.292, 9.632100
1266.774, 9.649060
1267.256, 9.551688
1267.738, 9.312026
1268.220, 9.271637
1268.702, 9.436229
1269.184, 9.662137
1269.667, 9.915807
1270.149, 9.964853
1270.631, 9.705061
1271.113, 9.410363
1271.595, 9.359120
1272.077, 9.371530
1272.559, 9.118605
1273.041, 8.804280
1273.523, 8.720183
1274.006, 8.812784
1274.488, 9.035084
1274.970, 9.302542
1275.452, 9.423726
1275.934, 9.347149
1276.416, 9.268202
1276.898, 9.234704
1277.380, 9.246509
1277.863, 9.269541
1278.345, 9.380457
1278.827, 9.765059
1279.309, 10.10215
1279.791, 10.10727
1280.273, 9.892868
1280.755, 9.684203
1281.237, 9.482804
1281.719, 9.456327
1282.202, 9.625657
1282.684, 9.636614
1283.166, 9.456373
1283.648, 9.318266
1284.130, 9.295342
1284.612, 9.298520
1285.094, 9.262685
1285.576, 9.255827
1286.059, 9.434315
1286.541, 9.628942
1287.023, 9.652184
1287.505, 9.502606
##END=



