##NAMES=Beryl
##RRUFFID=R050120
##IDEAL CHEMISTRY=Be_3_Al_2_Si_6_O_18_
##LOCALITY=Cruziero mine, San Jose, Minas Gerais, Brazil
##OWNER=RRUFF
##SOURCE=Carlos and Paulo Vasconcelos
##DESCRIPTION=Yellow gemmy fragment
##STATUS=The identification of this mineral has been confirmed by X-ray diffraction and chemical analysis
##URL=rruff.info/R050120
##MEASURED CHEMISTRY=(Be_2.76_Li_0.24_)_Σ=3_Al_2.00_Si_6.00_O_18_·Na_0.24_
93.78320, 58.07499
94.26532, 58.25954
94.74744, 58.52420
95.22955, 58.72201
95.71167, 58.87057
96.19379, 58.64653
96.67590, 58.10387
97.15802, 57.52037
97.64014, 56.90181
98.12225, 56.27070
98.60437, 55.67304
99.08649, 55.14881
99.56860, 54.67158
100.0507, 54.16708
100.5328, 53.51789
101.0150, 52.91479
101.4971, 52.51065
101.9792, 52.30651
102.4613, 52.19463
102.9434, 52.22284
103.4255, 52.27197
103.9077, 52.26096
104.3898, 52.16684
104.8719, 51.99848
105.3540, 51.73650
105.8361, 51.18778
106.3182, 50.88718
106.8004, 51.01594
107.2825, 51.39241
107.7646, 51.81508
108.2467, 52.16793
108.7288, 52.45083
109.2109, 52.66499
109.6931, 52.62250
110.1752, 52.69718
110.6573, 53.00462
111.1394, 53.51855
111.6215, 54.15134
112.1036, 54.82925
112.5858, 55.56234
113.0679, 56.32086
113.5500, 57.07756
114.0321, 57.86948
114.5142, 58.76811
114.9964, 59.78389
115.4785, 60.77135
115.9606, 61.51962
116.4427, 62.04343
116.9248, 62.57175
117.4069, 63.24224
117.8891, 63.94561
118.3712, 64.46066
118.8533, 64.72068
119.3354, 64.79328
119.8175, 64.70319
120.2996, 64.46778
120.7818, 64.28851
121.2639, 64.30693
121.7460, 64.52619
122.2281, 64.85361
122.7102, 65.65154
123.1923, 66.29172
123.6745, 66.37802
124.1566, 65.85579
124.6387, 65.01250
125.1208, 64.20509
125.6029, 63.32146
126.0850, 62.74829
126.5672, 62.66706
127.0493, 62.75645
127.5314, 62.78104
128.0135, 62.64405
128.4956, 62.38066
128.9777, 62.08297
129.4599, 61.52150
129.9420, 61.19532
130.4241, 61.32713
130.9062, 61.68862
131.3883, 61.91450
131.8705, 61.77783
132.3526, 61.38275
132.8347, 61.32355
133.3168, 61.95465
133.7989, 62.49137
134.2810, 62.56100
134.7632, 62.22188
135.2453, 61.78571
135.7274, 61.37735
136.2095, 61.04586
136.6916, 60.89769
137.1737, 61.11002
137.6559, 61.40403
138.1380, 61.49865
138.6201, 61.37253
139.1022, 61.14350
139.5843, 60.86256
140.0664, 60.53249
140.5486, 60.14690
141.0307, 59.69018
141.5128, 59.17678
141.9949, 58.63927
142.4770, 57.99572
142.9591, 57.45972
143.4413, 57.23212
143.9234, 57.16237
144.4055, 56.97372
144.8876, 56.45214
145.3697, 55.59734
145.8518, 54.72367
146.3340, 53.52316
146.8161, 52.58937
147.2982, 52.23900
147.7803, 52.36135
148.2624, 52.62126
148.7445, 52.71499
149.2267, 52.66185
149.7088, 52.30973
150.1909, 51.21979
150.6730, 50.23962
151.1551, 49.96605
151.6372, 50.41905
152.1194, 51.07860
152.6015, 51.30061
153.0836, 50.85277
153.5657, 50.53450
154.0478, 50.45414
154.5299, 50.45090
155.0121, 50.36802
155.4942, 50.16490
155.9763, 49.89688
156.4584, 49.64506
156.9405, 49.41753
157.4227, 49.15019
157.9048, 48.73178
158.3869, 48.26472
158.8690, 47.97788
159.3511, 47.96692
159.8332, 48.10750
160.3154, 48.33722
160.7975, 48.67725
161.2796, 48.76852
161.7617, 48.18389
162.2438, 46.98928
162.7259, 46.10285
163.2081, 45.89811
163.6902, 45.97046
164.1723, 46.10203
164.6544, 46.26712
165.1365, 46.32235
165.6186, 46.02697
166.1008, 45.25616
166.5829, 44.70903
167.0650, 44.67953
167.5471, 44.78950
168.0292, 44.83645
168.5113, 44.76437
168.9935, 44.62483
169.4756, 44.48020
169.9577, 44.23202
170.4398, 44.18923
170.9219, 44.62735
171.4040, 45.10975
171.8862, 45.22355
172.3683, 44.82594
172.8504, 44.14634
173.3325, 43.72740
173.8146, 43.90432
174.2967, 43.96714
174.7789, 43.72261
175.2610, 43.41006
175.7431, 43.36221
176.2252, 43.74212
176.7073, 44.37293
177.1894, 44.66044
177.6716, 44.38781
178.1537, 44.08624
178.6358, 43.82192
179.1179, 43.59660
179.6000, 43.41625
180.0821, 43.29347
180.5643, 43.20790
181.0464, 43.08395
181.5285, 42.81385
182.0106, 42.65883
182.4927, 42.86809
182.9749, 43.34868
183.4570, 43.67432
183.9391, 43.60521
184.4212, 43.25399
184.9033, 42.91537
185.3854, 42.57061
185.8676, 42.27558
186.3497, 42.13959
186.8318, 42.17043
187.3139, 42.08347
187.7960, 41.64520
188.2781, 41.06133
188.7603, 40.55429
189.2424, 40.17644
189.7245, 39.85884
190.2066, 39.51657
190.6887, 39.14285
191.1708, 38.76596
191.6530, 38.31995
192.1351, 37.90844
192.6172, 37.67272
193.0993, 37.69440
193.5814, 37.79189
194.0635, 37.54678
194.5457, 36.65972
195.0278, 36.03819
195.5099, 35.99389
195.9920, 36.20663
196.4741, 36.39048
196.9562, 36.42112
197.4384, 36.32525
197.9205, 36.17492
198.4026, 35.93540
198.8847, 35.68275
199.3668, 35.41956
199.8489, 35.15256
200.3311, 34.85484
200.8132, 34.50794
201.2953, 34.17249
201.7774, 34.09219
202.2595, 34.62516
202.7416, 35.02938
203.2238, 35.23516
203.7059, 35.26863
204.1880, 35.15690
204.6701, 34.90638
205.1522, 34.54911
205.6344, 34.22767
206.1165, 33.86037
206.5986, 33.61013
207.0807, 33.61370
207.5628, 33.75367
208.0449, 33.78120
208.5271, 33.53383
209.0092, 33.12759
209.4913, 33.05818
209.9734, 33.72593
210.4555, 34.18444
210.9376, 33.91125
211.4198, 33.13799
211.9019, 32.49481
212.3840, 32.29702
212.8661, 32.45580
213.3482, 32.68254
213.8303, 33.06362
214.3125, 33.37303
214.7946, 33.45077
215.2767, 33.32962
215.7588, 33.17458
216.2409, 33.01328
216.7230, 32.89780
217.2052, 32.89894
217.6873, 33.04653
218.1694, 33.25032
218.6515, 33.48687
219.1336, 33.75254
219.6157, 33.92163
220.0979, 33.90194
220.5800, 33.78241
221.0621, 33.64346
221.5442, 33.47819
222.0263, 33.35606
222.5084, 33.34457
222.9906, 33.44759
223.4727, 33.62279
223.9548, 34.01590
224.4369, 34.37796
224.9190, 34.47204
225.4011, 34.24363
225.8833, 33.94866
226.3654, 33.93058
226.8475, 34.27193
227.3296, 34.49071
227.8117, 34.36197
228.2938, 34.15749
228.7760, 33.99694
229.2581, 33.91419
229.7402, 33.95017
230.2223, 34.20269
230.7044, 34.77557
231.1866, 35.23457
231.6687, 35.47054
232.1508, 35.63318
232.6329, 35.82583
233.1150, 36.06229
233.5971, 36.26475
234.0793, 36.31584
234.5614, 36.15610
235.0435, 35.98443
235.5256, 35.71969
236.0077, 35.50693
236.4898, 35.41309
236.9720, 35.46189
237.4541, 35.66692
237.9362, 36.08927
238.4183, 36.93501
238.9004, 37.47367
239.3825, 37.52318
239.8647, 37.45988
240.3468, 37.47940
240.8289, 37.62935
241.3110, 37.88678
241.7931, 38.25277
242.2752, 38.84737
242.7574, 39.16441
243.2395, 38.95704
243.7216, 38.69964
244.2037, 38.68746
244.6858, 38.95609
245.1679, 39.36527
245.6501, 39.76839
246.1322, 40.16470
246.6143, 40.55379
247.0964, 40.91012
247.5785, 41.28038
248.0606, 41.78527
248.5428, 42.39098
249.0249, 42.85471
249.5070, 42.91844
249.9891, 42.50595
250.4712, 42.13209
250.9533, 41.91835
251.4355, 41.64803
251.9176, 41.19691
252.3997, 40.55235
252.8818, 39.72656
253.3639, 38.70476
253.8460, 37.47217
254.3282, 36.25925
254.8103, 34.94717
255.2924, 33.74472
255.7745, 32.84533
256.2566, 32.23439
256.7387, 31.71457
257.2209, 31.13944
257.7030, 30.54423
258.1851, 30.09118
258.6672, 29.85999
259.1493, 29.70728
259.6314, 29.57694
260.1136, 29.45924
260.5957, 29.27254
261.0778, 28.91829
261.5599, 28.47355
262.0420, 28.16480
262.5241, 28.01959
263.0063, 27.97976
263.4884, 28.06515
263.9705, 28.25621
264.4526, 28.37250
264.9347, 28.28019
265.4168, 28.09118
265.8990, 28.03975
266.3811, 28.20188
266.8632, 28.34215
267.3453, 28.16761
267.8275, 27.74447
268.3096, 27.63480
268.7917, 28.25217
269.2738, 29.09845
269.7559, 29.48856
270.2380, 29.34924
270.7202, 29.10091
271.2023, 29.04476
271.6844, 29.14541
272.1665, 29.14623
272.6486, 28.90627
273.1307, 28.62757
273.6129, 28.51847
274.0950, 28.57739
274.5771, 28.65962
275.0592, 28.64487
275.5413, 28.56003
276.0234, 28.57896
276.5056, 28.82274
276.9877, 29.04676
277.4698, 29.07693
277.9519, 28.93174
278.4340, 28.70720
278.9161, 28.38746
279.3983, 28.01634
279.8804, 27.77481
280.3625, 27.64460
280.8446, 27.71336
281.3267, 28.12697
281.8088, 28.75531
282.2910, 29.29748
282.7731, 29.58395
283.2552, 29.65879
283.7373, 29.64142
284.2194, 29.45407
284.7015, 29.32314
285.1837, 29.42194
285.6658, 29.62464
286.1479, 29.72034
286.6300, 29.53856
287.1121, 29.26525
287.5942, 29.39409
288.0764, 30.17393
288.5585, 30.76475
289.0406, 30.69303
289.5227, 30.35933
290.0048, 30.16070
290.4869, 30.23634
290.9691, 30.49951
291.4512, 30.81671
291.9333, 31.19683
292.4154, 31.60323
292.8975, 32.11636
293.3796, 32.59928
293.8618, 32.92630
294.3439, 33.06605
294.8260, 33.11649
295.3081, 33.18959
295.7902, 33.28333
296.2723, 33.40889
296.7545, 33.56339
297.2366, 33.75555
297.7187, 34.07118
298.2008, 34.48301
298.6829, 34.78337
299.1650, 34.66853
299.6472, 34.07234
300.1293, 33.68354
300.6114, 33.67327
301.0935, 33.77573
301.5756, 33.94184
302.0577, 34.13325
302.5399, 34.27173
303.0220, 34.25380
303.5041, 34.09177
303.9862, 34.07226
304.4683, 34.28774
304.9504, 34.55329
305.4326, 34.86021
305.9147, 35.16157
306.3968, 35.36706
306.8789, 35.38934
307.3610, 35.29337
307.8431, 35.36156
308.3253, 35.66515
308.8074, 36.03661
309.2895, 36.44824
309.7716, 36.88394
310.2537, 37.31786
310.7358, 37.73888
311.2180, 38.16225
311.7001, 38.63140
312.1822, 39.20766
312.6643, 39.69715
313.1464, 39.94438
313.6285, 40.17120
314.1107, 40.53416
314.5928, 41.07967
315.0749, 41.79949
315.5570, 42.71208
316.0392, 43.87474
316.5213, 45.01925
317.0034, 46.03408
317.4855, 47.09534
317.9676, 48.31820
318.4497, 49.69998
318.9319, 51.13853
319.4140, 52.44618
319.8961, 53.56292
320.3782, 55.11599
320.8603, 57.41225
321.3424, 59.89326
321.8246, 62.42701
322.3067, 64.97754
322.7888, 67.56293
323.2709, 70.27068
323.7530, 73.02576
324.2351, 75.20112
324.7173, 76.83568
325.1994, 77.74229
325.6815, 78.02525
326.1636, 77.61279
326.6457, 76.34937
327.1278, 74.09666
327.6100, 71.12197
328.0921, 68.01264
328.5742, 64.70401
329.0563, 61.38273
329.5384, 58.03214
330.0205, 54.71770
330.5027, 51.46804
330.9848, 48.27867
331.4669, 45.24001
331.9490, 42.45773
332.4311, 39.93175
332.9132, 37.66674
333.3954, 35.66358
333.8775, 33.93321
334.3596, 32.53203
334.8417, 31.45186
335.3238, 30.63996
335.8059, 30.14026
336.2881, 29.95721
336.7702, 29.68506
337.2523, 29.31171
337.7344, 28.83976
338.2165, 28.16017
338.6986, 27.38502
339.1808, 26.76433
339.6629, 26.50180
340.1450, 26.49847
340.6271, 26.37667
341.1092, 26.08166
341.5913, 25.77059
342.0735, 25.42866
342.5556, 25.13137
343.0377, 25.01777
343.5198, 25.19098
344.0019, 25.41043
344.4840, 25.20608
344.9662, 24.43150
345.4483, 23.87185
345.9304, 23.98774
346.4125, 24.28395
346.8946, 24.41756
347.3767, 24.33486
347.8589, 24.22754
348.3410, 24.30987
348.8231, 24.57533
349.3052, 24.75869
349.7873, 24.87485
350.2694, 24.82459
350.7516, 24.41308
351.2337, 23.74611
351.7158, 23.26661
352.1979, 23.36780
352.6800, 23.86820
353.1621, 24.18118
353.6443, 24.28298
354.1264, 24.22477
354.6085, 23.88322
355.0906, 23.43521
355.5727, 23.18265
356.0548, 23.31307
356.5370, 23.57426
357.0191, 23.61110
357.5012, 23.40190
357.9833, 23.20928
358.4654, 23.14059
358.9475, 23.14778
359.4297, 23.17564
359.9118, 23.22116
360.3939, 23.28007
360.8760, 23.37084
361.3581, 23.47997
361.8402, 23.52787
362.3224, 23.45661
362.8045, 23.38132
363.2866, 23.48532
363.7687, 23.74188
364.2508, 23.85068
364.7329, 23.56990
365.2151, 23.10498
365.6972, 22.79468
366.1793, 22.67539
366.6614, 22.65415
367.1436, 22.68138
367.6257, 22.75568
368.1078, 22.87244
368.5899, 23.09084
369.0720, 23.30313
369.5541, 23.41492
370.0363, 23.43693
370.5184, 23.42581
371.0005, 23.37464
371.4826, 23.33913
371.9647, 23.46900
372.4468, 23.87732
372.9290, 24.15124
373.4111, 24.03314
373.8932, 23.68970
374.3753, 23.40995
374.8574, 23.26493
375.3395, 23.21984
375.8217, 23.24958
376.3038, 23.36155
376.7859, 23.48286
377.2680, 23.54937
377.7501, 23.66210
378.2322, 23.96907
378.7144, 24.44793
379.1965, 24.86155
379.6786, 25.00278
380.1607, 24.90959
380.6428, 25.02942
381.1249, 25.60647
381.6071, 26.09408
382.0892, 26.23145
382.5713, 26.15230
383.0534, 26.08806
383.5355, 26.13043
384.0176, 26.29602
384.4998, 26.63323
384.9819, 27.36671
385.4640, 27.90364
385.9461, 28.06151
386.4282, 28.12238
386.9103, 28.34796
387.3925, 28.76185
387.8746, 29.18792
388.3567, 29.41700
388.8388, 29.39759
389.3209, 29.56013
389.8030, 29.98326
390.2852, 30.47654
390.7673, 31.00150
391.2494, 31.53923
391.7315, 32.05502
392.2136, 32.52084
392.6957, 32.97736
393.1779, 33.56787
393.6600, 34.25108
394.1421, 35.15704
394.6242, 36.42127
395.1063, 37.82915
395.5884, 39.17891
396.0706, 40.42660
396.5527, 41.64681
397.0348, 42.94552
397.5169, 44.32361
397.9990, 45.74851
398.4811, 47.38061
398.9633, 48.89940
399.4454, 50.16688
399.9275, 51.21063
400.4096, 52.18008
400.8917, 53.26200
401.3738, 54.29863
401.8560, 54.60677
402.3381, 54.09092
402.8202, 52.97251
403.3023, 51.03353
403.7844, 48.74141
404.2665, 46.52668
404.7487, 44.51055
405.2308, 42.64537
405.7129, 40.87551
406.1950, 39.18550
406.6771, 37.69033
407.1592, 36.57905
407.6414, 35.50981
408.1235, 34.18036
408.6056, 32.64357
409.0877, 31.20826
409.5698, 29.99117
410.0519, 29.01448
410.5341, 28.41053
411.0162, 28.29136
411.4983, 28.12911
411.9804, 27.45294
412.4625, 26.55940
412.9446, 25.95433
413.4268, 25.78686
413.9089, 25.80519
414.3910, 25.83943
414.8731, 25.89613
415.3553, 26.03161
415.8374, 26.31602
416.3195, 26.59871
416.8016, 26.63473
417.2837, 26.42525
417.7658, 26.18030
418.2480, 25.91494
418.7301, 25.66434
419.2122, 25.46439
419.6943, 25.31925
420.1764, 25.22542
420.6585, 25.19447
421.1407, 25.21837
421.6228, 25.20247
422.1049, 25.07757
422.5870, 24.99164
423.0691, 25.08772
423.5512, 25.24957
424.0334, 25.24148
424.5155, 24.96390
424.9976, 24.55544
425.4797, 24.27012
425.9618, 24.12929
426.4439, 24.09424
426.9261, 24.28802
427.4082, 24.48906
427.8903, 24.55276
428.3724, 24.47030
428.8545, 24.28406
429.3366, 24.00075
429.8188, 23.63402
430.3009, 23.51147
430.7830, 23.96163
431.2651, 24.30310
431.7472, 24.33262
432.2293, 24.23287
432.7115, 24.24724
433.1936, 24.46251
433.6757, 24.73451
434.1578, 24.78273
434.6399, 24.48308
435.1220, 24.39850
435.6042, 24.87763
436.0863, 25.32079
436.5684, 25.30306
437.0505, 24.96424
437.5326, 24.82131
438.0147, 25.32071
438.4969, 26.25986
438.9790, 26.89855
439.4611, 27.11642
439.9432, 27.33544
440.4253, 27.77289
440.9074, 28.28542
441.3896, 28.74028
441.8717, 29.11746
442.3538, 29.40404
442.8359, 29.50643
443.3180, 29.47427
443.8001, 29.62515
444.2823, 30.09991
444.7644, 30.62577
445.2465, 30.97212
445.7286, 31.15994
446.2107, 31.20268
446.6928, 31.08888
447.1750, 30.84276
447.6571, 30.39532
448.1392, 29.78311
448.6213, 29.32995
449.1034, 29.27754
449.5855, 29.43734
450.0677, 29.26391
450.5498, 28.63358
451.0319, 28.00534
451.5140, 27.46687
451.9961, 27.00590
452.4782, 26.59800
452.9604, 26.24100
453.4425, 25.99726
453.9246, 25.97865
454.4067, 26.24078
454.8888, 26.11078
455.3709, 25.21991
455.8531, 24.41160
456.3352, 24.04696
456.8173, 23.96225
457.2994, 23.86426
457.7815, 23.61847
458.2636, 23.28048
458.7458, 22.94904
459.2279, 22.55160
459.7100, 22.32241
460.1921, 22.38762
460.6742, 22.49829
461.1563, 22.50329
461.6385, 22.41403
462.1206, 22.33924
462.6027, 22.38160
463.0848, 22.50387
463.5669, 22.49633
464.0491, 22.27543
464.5312, 22.09432
465.0133, 22.09276
465.4954, 22.14337
465.9775, 22.12018
466.4597, 21.99254
466.9418, 21.81483
467.4239, 21.60907
467.9060, 21.38612
468.3881, 21.23902
468.8702, 21.24300
469.3524, 21.20222
469.8345, 20.79725
470.3166, 20.18943
470.7987, 19.88624
471.2808, 20.34399
471.7629, 20.90069
472.2451, 20.92572
472.7272, 20.50418
473.2093, 20.04713
473.6914, 19.68876
474.1735, 19.45111
474.6556, 19.40959
475.1378, 19.61369
475.6199, 19.80803
476.1020, 20.00662
476.5841, 20.14532
477.0662, 20.13313
477.5483, 19.98643
478.0305, 19.81855
478.5126, 19.70444
478.9947, 19.64977
479.4768, 19.71010
479.9589, 20.10799
480.4410, 20.34844
480.9232, 20.17824
481.4053, 19.91876
481.8874, 19.97565
482.3695, 20.41094
482.8516, 20.86544
483.3337, 20.86839
483.8159, 20.35235
484.2980, 19.95626
484.7801, 19.68145
485.2622, 19.54062
485.7443, 19.59710
486.2264, 19.77246
486.7086, 19.95558
487.1907, 20.10879
487.6728, 20.22107
488.1549, 20.25793
488.6370, 20.21272
489.1191, 20.20017
489.6013, 20.24335
490.0834, 20.33277
490.5655, 20.46857
491.0476, 20.64410
491.5297, 20.81160
492.0118, 21.05553
492.4940, 21.22370
492.9761, 21.02817
493.4582, 20.48752
493.9403, 20.03315
494.4224, 19.87685
494.9045, 19.95478
495.3867, 20.13460
495.8688, 20.48795
496.3509, 20.75089
496.8330, 20.81419
497.3151, 20.78492
497.7972, 20.75704
498.2794, 20.75021
498.7615, 20.77087
499.2436, 20.83224
499.7257, 20.92910
500.2078, 20.97010
500.6899, 20.91451
501.1721, 20.85161
501.6542, 20.73114
502.1363, 20.64227
502.6184, 20.72814
503.1005, 21.00467
503.5826, 21.28651
504.0648, 21.31400
504.5469, 21.05177
505.0290, 20.88998
505.5111, 20.84085
505.9932, 20.88720
506.4753, 21.08436
506.9575, 21.34872
507.4396, 21.55380
507.9217, 21.65372
508.4038, 21.67924
508.8859, 21.61049
509.3680, 21.45960
509.8502, 21.46913
510.3323, 21.77365
510.8144, 22.12202
511.2965, 22.24961
511.7786, 22.19367
512.2607, 22.14414
512.7429, 22.08290
513.2250, 22.09771
513.7071, 22.31765
514.1892, 22.69592
514.6713, 23.03003
515.1534, 23.22425
515.6356, 23.35057
516.1177, 23.55990
516.5998, 23.95070
517.0819, 24.20139
517.5640, 24.17165
518.0461, 24.10780
518.5283, 24.13846
519.0104, 24.28552
519.4925, 24.58504
519.9746, 25.08982
520.4567, 25.68323
520.9388, 25.90842
521.4210, 25.53718
521.9031, 25.21505
522.3852, 24.95042
522.8673, 24.80326
523.3494, 24.82201
523.8315, 25.00447
524.3137, 25.32383
524.7958, 25.87890
525.2779, 26.53856
525.7600, 26.76689
526.2421, 26.43384
526.7242, 26.15844
527.2064, 26.26570
527.6885, 26.55398
528.1706, 26.79108
528.6527, 26.96807
529.1348, 27.05187
529.6169, 27.00354
530.0991, 26.85946
530.5812, 26.59951
531.0633, 26.22797
531.5454, 26.05062
532.0275, 26.36295
532.5096, 27.06450
532.9918, 27.44492
533.4739, 27.29627
533.9560, 27.14802
534.4381, 27.11946
534.9202, 27.13861
535.4023, 27.12209
535.8845, 27.05743
536.3666, 27.00050
536.8487, 27.02947
537.3308, 27.14380
537.8129, 27.05933
538.2951, 26.56726
538.7772, 26.14465
539.2593, 25.97626
539.7415, 25.88961
540.2236, 25.69884
540.7057, 25.35702
541.1878, 24.95381
541.6699, 24.56415
542.1520, 24.18868
542.6342, 23.80721
543.1163, 23.37589
543.5984, 23.04700
544.0805, 23.04762
544.5626, 23.19589
545.0447, 23.13665
545.5269, 22.72577
546.0090, 22.28976
546.4911, 22.04844
546.9732, 21.90595
547.4553, 21.66262
547.9374, 21.27263
548.4196, 20.86838
548.9017, 20.57848
549.3838, 20.40468
549.8659, 20.21939
550.3480, 19.90141
550.8301, 19.71574
551.3123, 19.89584
551.7944, 20.17729
552.2765, 20.22477
552.7586, 19.95687
553.2407, 19.54720
553.7228, 19.16852
554.2050, 18.81388
554.6871, 18.63419
555.1692, 18.80369
555.6513, 18.90127
556.1334, 18.69079
556.6155, 18.36359
557.0977, 18.18506
557.5798, 18.24187
558.0619, 18.32205
558.5440, 18.17458
559.0261, 17.88392
559.5082, 17.80419
559.9904, 18.03232
560.4725, 18.24800
560.9546, 18.16598
561.4367, 17.85587
561.9188, 17.70050
562.4009, 17.90276
562.8831, 18.00961
563.3652, 17.68732
563.8473, 17.23680
564.3294, 17.12963
564.8115, 17.43939
565.2936, 17.81912
565.7758, 17.91949
566.2579, 17.73978
566.7400, 17.59198
567.2221, 17.39468
567.7042, 17.33743
568.1863, 17.59241
568.6685, 17.92401
569.1506, 18.06220
569.6327, 17.96345
570.1148, 17.84588
570.5969, 17.93068
571.0790, 18.18783
571.5612, 18.44507
572.0433, 18.72567
572.5254, 18.93288
573.0075, 19.00304
573.4896, 18.97162
573.9717, 18.87811
574.4539, 18.70254
574.9360, 18.54677
575.4181, 18.44891
575.9002, 18.40421
576.3823, 18.47164
576.8644, 18.63247
577.3466, 18.63425
577.8287, 18.24228
578.3108, 17.58678
578.7929, 17.31081
579.2750, 17.89367
579.7571, 18.23277
580.2393, 18.05529
580.7214, 17.77449
581.2035, 17.76800
581.6856, 18.00352
582.1677, 18.14597
582.6498, 17.91791
583.1320, 17.43251
583.6141, 17.06700
584.0962, 16.81785
584.5783, 16.69817
585.0604, 16.77282
585.5425, 16.93664
586.0247, 17.20768
586.5068, 17.55122
586.9889, 17.61119
587.4710, 16.89059
587.9531, 16.03160
588.4352, 15.91117
588.9174, 16.40828
589.3995, 16.70518
589.8816, 16.40841
590.3637, 15.85997
590.8458, 15.65969
591.3279, 15.98156
591.8101, 16.17257
592.2922, 16.19551
592.7743, 16.12783
593.2564, 15.96730
593.7385, 15.75463
594.2206, 15.52268
594.7028, 15.28565
595.1849, 15.13194
595.6670, 15.32004
596.1491, 15.95433
596.6312, 16.11840
597.1133, 15.36345
597.5955, 14.63742
598.0776, 14.47636
598.5597, 14.69365
599.0418, 14.96100
599.5239, 15.25029
600.0060, 15.43915
600.4882, 15.32125
600.9703, 15.04008
601.4524, 15.00356
601.9345, 15.30139
602.4166, 15.56511
602.8987, 15.41720
603.3809, 14.90582
603.8630, 14.76012
604.3451, 15.34971
604.8272, 15.77657
605.3093, 15.83848
605.7914, 15.68396
606.2736, 15.37832
606.7557, 14.98661
607.2378, 14.67094
607.7199, 14.57958
608.2020, 14.67329
608.6841, 14.77035
609.1663, 14.88713
609.6484, 14.95762
610.1305, 14.86064
610.6126, 14.78513
611.0947, 14.94655
611.5768, 15.33630
612.0590, 15.64477
612.5411, 15.67934
613.0232, 15.61012
613.5053, 15.60317
613.9874, 15.66154
614.4695, 15.77682
614.9517, 15.95247
615.4338, 16.15821
615.9159, 16.34997
616.3980, 16.53139
616.8801, 16.68056
617.3622, 16.81810
617.8444, 16.90702
618.3265, 16.88475
618.8086, 16.81846
619.2907, 16.82907
619.7728, 16.95846
620.2549, 17.09403
620.7371, 17.10176
621.2192, 16.98330
621.7013, 16.76260
622.1834, 16.38199
622.6655, 16.03210
623.1476, 15.81155
623.6298, 15.69959
624.1119, 15.70005
624.5940, 15.88380
625.0761, 15.96137
625.5582, 15.68004
626.0403, 15.28560
626.5225, 15.12022
627.0046, 15.18273
627.4867, 15.20672
627.9688, 14.99824
628.4509, 14.67951
628.9330, 14.67038
629.4152, 15.29375
629.8973, 15.63565
630.3794, 15.54834
630.8615, 15.32512
631.3436, 15.02621
631.8257, 14.73289
632.3079, 14.60264
632.7900, 14.74411
633.2721, 14.98977
633.7542, 15.10249
634.2363, 15.09749
634.7184, 15.11594
635.2006, 15.19490
635.6827, 15.26990
636.1648, 15.26964
636.6469, 15.20864
637.1291, 15.20285
637.6112, 15.31417
638.0933, 15.40643
638.5754, 15.38661
639.0576, 15.35128
639.5397, 15.42195
640.0218, 15.60657
640.5039, 15.82449
640.9860, 16.01841
641.4681, 16.18443
641.9503, 16.30347
642.4324, 16.35771
642.9145, 16.40877
643.3966, 16.42136
643.8787, 16.47522
644.3608, 16.69559
644.8430, 17.03096
645.3251, 17.22565
645.8072, 17.04101
646.2893, 16.79034
646.7714, 16.83965
647.2535, 17.09385
647.7357, 17.23042
648.2178, 17.15015
648.6999, 17.00357
649.1820, 16.94960
649.6641, 16.98999
650.1462, 17.08872
650.6284, 17.29756
651.1105, 17.49829
651.5926, 17.66660
652.0747, 17.81588
652.5568, 17.99921
653.0389, 18.19958
653.5211, 18.27535
654.0032, 17.98824
654.4853, 17.54751
654.9674, 17.63327
655.4495, 18.30426
655.9316, 18.82293
656.4138, 18.87511
656.8959, 18.74905
657.3780, 18.79024
657.8601, 18.98826
658.3422, 19.28874
658.8243, 19.85398
659.3065, 20.34481
659.7886, 20.44628
660.2707, 20.38921
660.7528, 20.61229
661.2349, 21.21745
661.7170, 21.86491
662.1992, 22.11889
662.6813, 22.00850
663.1634, 22.25428
663.6455, 23.03107
664.1276, 23.82607
664.6097, 24.43918
665.0919, 25.02387
665.5740, 25.72674
666.0561, 26.55536
666.5382, 27.37529
667.0203, 27.95314
667.5024, 28.62164
667.9846, 29.83231
668.4667, 31.45157
668.9488, 33.01150
669.4309, 34.33368
669.9130, 35.61001
670.3951, 37.11436
670.8773, 38.88042
671.3594, 40.59956
671.8415, 41.96735
672.3236, 43.66326
672.8057, 46.06334
673.2878, 48.72743
673.7700, 51.10667
674.2521, 53.14811
674.7342, 55.41982
675.2163, 58.56682
675.6984, 62.14884
676.1805, 65.11445
676.6627, 67.50751
677.1448, 70.22482
677.6269, 73.50548
678.1090, 77.47932
678.5911, 82.38879
679.0732, 88.42286
679.5554, 94.62975
680.0375, 100.5367
680.5196, 107.1790
681.0017, 114.8810
681.4838, 123.5463
681.9659, 133.0679
682.4481, 143.3627
682.9302, 154.2391
683.4123, 165.5611
683.8944, 177.3109
684.3765, 190.0818
684.8586, 204.1395
685.3408, 217.4875
685.8229, 230.3740
686.3050, 241.1876
686.7871, 247.9898
687.2692, 250.9794
687.7513, 250.2735
688.2335, 245.0023
688.7156, 236.9906
689.1977, 226.5391
689.6798, 214.2673
690.1619, 200.6227
690.6440, 185.8897
691.1262, 170.7379
691.6083, 155.5956
692.0904, 140.6527
692.5725, 127.2556
693.0546, 115.5841
693.5367, 105.0909
694.0189, 95.65663
694.5010, 87.38839
694.9831, 80.53400
695.4652, 75.00255
695.9473, 69.99218
696.4294, 65.33266
696.9116, 61.05688
697.3937, 57.17186
697.8758, 53.68358
698.3579, 50.62001
698.8400, 47.98449
699.3221, 45.72606
699.8043, 43.84921
700.2864, 42.30503
700.7685, 40.71742
701.2506, 39.02003
701.7327, 37.42037
702.2148, 36.00900
702.6970, 34.68104
703.1791, 33.31591
703.6612, 31.97233
704.1433, 30.85513
704.6254, 30.16464
705.1075, 29.57565
705.5897, 28.81686
706.0718, 27.96893
706.5539, 27.18642
707.0360, 26.50113
707.5181, 25.94824
708.0002, 25.58288
708.4824, 25.34034
708.9645, 24.86618
709.4466, 23.89561
709.9287, 23.19954
710.4108, 23.10886
710.8929, 23.05141
711.3751, 22.68571
711.8572, 22.09542
712.3393, 21.52470
712.8214, 21.02319
713.3035, 20.65814
713.7856, 20.59166
714.2678, 20.67965
714.7499, 20.59811
715.2320, 20.31117
715.7141, 19.98718
716.1962, 19.73343
716.6783, 19.53231
717.1605, 19.32657
717.6426, 19.04662
718.1247, 18.90325
718.6068, 19.03865
719.0889, 19.15533
719.5710, 19.12368
720.0532, 18.98021
720.5353, 18.77624
721.0174, 18.51511
721.4995, 18.30245
721.9816, 18.29572
722.4637, 18.37182
722.9459, 18.24494
723.4280, 17.91725
723.9101, 17.65187
724.3922, 17.57879
724.8743, 17.63604
725.3564, 17.72479
725.8386, 17.89823
726.3207, 17.90978
726.8028, 17.59833
727.2849, 17.31577
727.7670, 17.20212
728.2491, 17.15816
728.7313, 17.02467
729.2134, 16.78177
729.6955, 16.63476
730.1776, 16.83301
730.6597, 17.15786
731.1418, 17.27493
731.6240, 17.19898
732.1061, 17.02977
732.5882, 16.79251
733.0703, 16.53965
733.5524, 16.32640
734.0345, 16.15111
734.5167, 16.05732
734.9988, 16.15310
735.4809, 16.18988
735.9631, 16.12694
736.4452, 15.99454
736.9273, 15.75765
737.4094, 15.46054
737.8915, 15.26657
738.3737, 15.26138
738.8558, 15.39567
739.3379, 15.71414
739.8200, 16.12722
740.3021, 16.34792
740.7842, 16.31935
741.2664, 16.19853
741.7485, 16.09768
742.2306, 16.01970
742.7127, 15.98100
743.1948, 16.00078
743.6769, 16.02552
744.1591, 16.12791
744.6412, 16.16024
745.1233, 15.95661
745.6054, 15.64095
746.0875, 15.47464
746.5696, 15.55965
747.0518, 15.71878
747.5339, 15.87128
748.0160, 15.98504
748.4981, 15.96779
748.9802, 15.83691
749.4623, 15.74196
749.9445, 15.75837
750.4266, 15.85684
750.9087, 16.00658
751.3908, 16.25847
751.8729, 16.31200
752.3550, 15.94708
752.8372, 15.67520
753.3193, 15.74025
753.8014, 15.92607
754.2835, 15.95977
754.7656, 15.81686
755.2477, 15.78542
755.7299, 16.09011
756.2120, 16.49079
756.6941, 16.83047
757.1762, 17.07392
757.6583, 17.10720
758.1404, 16.91321
758.6226, 16.69733
759.1047, 16.67869
759.5868, 16.81135
760.0689, 16.74081
760.5510, 16.31129
761.0331, 16.10428
761.5153, 16.44406
761.9974, 16.82048
762.4795, 16.74981
762.9616, 16.40872
763.4437, 16.40467
763.9258, 17.17242
764.4080, 17.73835
764.8901, 17.39362
765.3722, 16.75125
765.8543, 16.53946
766.3364, 16.73140
766.8185, 16.88587
767.3007, 16.75982
767.7828, 16.51752
768.2649, 16.46481
768.7470, 16.61143
769.2291, 16.68210
769.7112, 16.65830
770.1934, 16.57679
770.6755, 16.42933
771.1576, 16.25025
771.6397, 16.07863
772.1218, 15.89746
772.6039, 15.82722
773.0861, 16.06927
773.5682, 16.23080
774.0503, 15.99857
774.5324, 15.60484
775.0145, 15.34740
775.4966, 15.30629
775.9788, 15.45760
776.4609, 15.87156
776.9430, 16.37849
777.4251, 16.53743
777.9072, 16.35622
778.3893, 16.16674
778.8715, 16.03172
779.3536, 15.95062
779.8357, 15.93112
780.3178, 15.96622
780.7999, 16.00795
781.2820, 16.09893
781.7642, 16.13466
782.2463, 16.06658
782.7284, 15.98249
783.2105, 15.88198
783.6926, 15.81975
784.1747, 15.94676
784.6569, 16.34788
785.1390, 16.65108
785.6211, 16.44366
786.1032, 15.93899
786.5853, 15.48192
787.0674, 15.11330
787.5496, 14.96653
788.0317, 15.12250
788.5138, 15.35208
788.9959, 15.30517
789.4780, 14.94936
789.9601, 14.78613
790.4423, 14.92156
790.9244, 15.08147
791.4065, 15.17807
791.8886, 15.29116
792.3707, 15.54291
792.8528, 15.89166
793.3350, 16.10306
793.8171, 16.06538
794.2992, 15.92081
794.7813, 15.71219
795.2634, 15.47375
795.7455, 15.20494
796.2277, 14.94236
796.7098, 14.82927
797.1919, 14.96307
797.6740, 15.21611
798.1561, 15.33869
798.6382, 15.32548
799.1204, 15.32505
799.6025, 15.35281
800.0846, 15.37098
800.5667, 15.35094
801.0488, 15.31696
801.5309, 15.33283
802.0131, 15.42305
802.4952, 15.40844
802.9773, 15.10865
803.4594, 14.89014
803.9415, 14.96980
804.4236, 15.18283
804.9058, 15.38242
805.3879, 15.51243
805.8700, 15.48912
806.3521, 15.18700
806.8342, 14.80144
807.3163, 14.63410
807.7985, 14.64737
808.2806, 14.69557
808.7627, 14.75306
809.2448, 14.81421
809.7269, 14.88493
810.2090, 14.94120
810.6912, 14.89287
811.1733, 14.62387
811.6554, 14.52747
812.1375, 14.74854
812.6196, 14.97960
813.1017, 15.16416
813.5839, 15.26255
814.0660, 15.15912
814.5481, 14.82884
815.0302, 14.64934
815.5123, 14.95841
815.9944, 15.31136
816.4766, 15.33725
816.9587, 15.15440
817.4408, 14.95554
817.9229, 14.80436
818.4050, 14.75014
818.8871, 14.86293
819.3693, 15.04801
819.8514, 15.00702
820.3335, 14.72513
820.8156, 14.58108
821.2977, 14.64746
821.7798, 14.82770
822.2620, 15.14885
822.7441, 15.49592
823.2262, 15.49329
823.7083, 14.81461
824.1904, 14.54803
824.6725, 15.24023
825.1547, 15.77741
825.6368, 15.40599
826.1189, 14.70216
826.6010, 14.50324
827.0831, 14.93272
827.5652, 15.36086
828.0474, 15.37484
828.5295, 15.17642
829.0116, 14.94613
829.4937, 14.70640
829.9758, 14.52514
830.4579, 14.41228
830.9401, 14.27372
831.4222, 14.00403
831.9043, 13.73882
832.3864, 13.97936
832.8685, 14.90106
833.3506, 15.42846
833.8328, 15.37586
834.3149, 15.11010
834.7971, 14.66856
835.2792, 14.21178
835.7613, 14.04071
836.2434, 14.20231
836.7255, 14.38547
837.2076, 14.57706
837.6898, 14.73971
838.1719, 14.87416
838.6540, 14.95857
839.1361, 14.95952
839.6182, 14.87984
840.1003, 14.75210
840.5825, 14.55867
841.0646, 14.39497
841.5467, 14.40394
842.0288, 14.55143
842.5109, 14.75647
842.9930, 15.00093
843.4752, 15.19411
843.9573, 15.27551
844.4394, 15.28942
844.9215, 15.33891
845.4036, 15.45405
845.8857, 15.43570
846.3679, 15.14987
846.8500, 14.97025
847.3321, 15.18413
847.8142, 15.46267
848.2963, 15.39006
848.7784, 14.98833
849.2606, 14.78328
849.7427, 15.05201
850.2248, 15.31181
850.7069, 15.40635
851.1890, 15.37648
851.6711, 15.18978
852.1533, 14.91965
852.6354, 14.76730
853.1175, 14.84349
853.5996, 14.96706
854.0817, 14.89002
854.5638, 14.70780
855.0460, 14.70908
855.5281, 14.88669
856.0102, 14.98731
856.4923, 14.90301
856.9744, 14.76792
857.4565, 14.76522
857.9387, 14.88641
858.4208, 14.88199
858.9029, 14.67905
859.3850, 14.52363
859.8671, 14.43135
860.3492, 14.43600
860.8314, 14.64443
861.3135, 14.96204
861.7956, 15.12438
862.2777, 15.04910
862.7598, 14.95241
863.2419, 14.86056
863.7241, 14.79408
864.2062, 14.81638
864.6883, 14.85518
865.1704, 14.76542
865.6525, 14.52414
866.1346, 14.29965
866.6168, 14.22107
867.0989, 14.23942
867.5810, 14.31392
868.0631, 14.42048
868.5452, 14.47052
869.0273, 14.44825
869.5095, 14.40548
869.9916, 14.38237
870.4737, 14.35728
870.9558, 14.24869
871.4379, 14.01540
871.9200, 13.95378
872.4022, 14.18212
872.8843, 14.33511
873.3664, 14.17519
873.8485, 13.91292
874.3306, 13.86744
874.8127, 14.04275
875.2949, 14.21151
875.7770, 14.48107
876.2591, 14.58410
876.7412, 14.21097
877.2233, 13.82486
877.7054, 13.89361
878.1876, 14.30738
878.6697, 14.66567
879.1518, 14.82058
879.6339, 14.83889
880.1160, 14.68545
880.5981, 14.48326
881.0803, 14.42727
881.5624, 14.48160
882.0445, 14.49737
882.5266, 14.42197
883.0087, 14.27395
883.4908, 14.04454
883.9730, 13.78089
884.4551, 13.68878
884.9372, 13.77726
885.4193, 13.89592
885.9014, 14.03574
886.3835, 14.12759
886.8657, 14.07939
887.3478, 13.98494
887.8299, 14.13119
888.3120, 14.73440
888.7941, 14.99591
889.2762, 14.72682
889.7584, 14.34830
890.2405, 13.77405
890.7226, 13.29326
891.2047, 13.27835
891.6868, 13.69148
892.1689, 14.03401
892.6511, 14.14747
893.1332, 14.15426
893.6153, 14.02343
894.0974, 13.88501
894.5795, 13.91841
895.0616, 14.06935
895.5438, 14.14504
896.0259, 14.06642
896.5080, 13.94143
896.9901, 13.87258
897.4722, 13.84779
897.9543, 13.82395
898.4365, 13.81292
898.9186, 13.90354
899.4007, 14.12088
899.8828, 14.37029
900.3649, 14.58513
900.8470, 14.74092
901.3292, 14.73620
901.8113, 14.53857
902.2934, 14.32883
902.7755, 14.08191
903.2576, 13.90852
903.7397, 13.87275
904.2219, 13.93748
904.7040, 14.06929
905.1861, 14.28778
905.6682, 14.41693
906.1503, 14.39592
906.6324, 14.36194
907.1146, 14.32623
907.5967, 14.30897
908.0788, 14.28031
908.5609, 14.28644
909.0430, 14.48376
909.5251, 14.99686
910.0073, 15.39582
910.4894, 15.37630
910.9715, 15.16844
911.4536, 14.88593
911.9357, 14.63123
912.4178, 14.61719
912.9000, 14.86602
913.3821, 15.13095
913.8642, 15.21895
914.3463, 15.18618
914.8284, 15.09151
915.3105, 14.96283
915.7927, 14.94916
916.2748, 15.06665
916.7569, 15.18076
917.2390, 15.22448
917.7211, 15.18649
918.2032, 15.00668
918.6854, 14.67139
919.1675, 14.62453
919.6496, 14.96835
920.1317, 15.29625
920.6138, 15.56363
921.0959, 15.69532
921.5781, 15.57113
922.0602, 15.25080
922.5423, 15.02992
923.0244, 14.98433
923.5065, 14.89015
923.9886, 14.66769
924.4708, 14.47553
924.9529, 14.37729
925.4350, 14.35249
925.9171, 14.37972
926.3992, 14.45368
926.8813, 14.56014
927.3635, 14.78769
927.8456, 14.93387
928.3277, 14.84901
928.8098, 14.64596
929.2919, 14.36683
929.7740, 14.09355
930.2562, 14.01765
930.7383, 14.21729
931.2204, 14.44438
931.7025, 14.44017
932.1846, 14.30515
932.6667, 14.17490
933.1489, 14.07764
933.6310, 14.14796
934.1132, 14.40097
934.5953, 14.64265
935.0774, 14.73450
935.5595, 14.69379
936.0416, 14.51255
936.5237, 14.18813
937.0059, 14.03002
937.4880, 14.08322
937.9701, 14.11073
938.4522, 13.99419
938.9343, 13.87589
939.4164, 13.94426
939.8986, 14.18299
940.3807, 14.30309
940.8628, 14.26500
941.3449, 14.18094
941.8270, 13.91770
942.3091, 13.77935
942.7913, 14.10474
943.2734, 14.57765
943.7555, 14.64493
944.2376, 14.21836
944.7197, 13.91407
945.2018, 13.95430
945.6840, 13.98021
946.1661, 13.74846
946.6482, 13.53096
947.1303, 13.65302
947.6124, 14.01067
948.0945, 14.23344
948.5767, 14.17943
949.0588, 14.07037
949.5409, 14.05951
950.0230, 14.04622
950.5051, 13.85472
950.9872, 13.61114
951.4694, 13.60481
951.9515, 13.85090
952.4336, 14.06136
952.9157, 14.03131
953.3978, 13.88754
953.8799, 13.77868
954.3621, 13.70932
954.8442, 13.70067
955.3263, 13.74801
955.8084, 13.83090
956.2905, 13.94139
956.7726, 13.99714
957.2548, 13.88768
957.7369, 13.65837
958.2190, 13.47167
958.7011, 13.32010
959.1832, 13.42064
959.6653, 13.87004
960.1475, 14.24620
960.6296, 14.29742
961.1117, 14.14202
961.5938, 13.97659
962.0759, 13.78690
962.5580, 13.72663
963.0402, 13.84614
963.5223, 13.99769
964.0044, 14.25035
964.4865, 14.40298
964.9686, 14.16618
965.4507, 13.71923
965.9329, 13.65851
966.4150, 14.22962
966.8971, 14.52099
967.3792, 14.13300
967.8613, 13.87121
968.3434, 14.19676
968.8256, 14.66387
969.3077, 14.82034
969.7898, 14.68550
970.2719, 14.52574
970.7540, 14.33747
971.2361, 14.29941
971.7183, 14.70419
972.2004, 15.07665
972.6825, 14.92686
973.1646, 14.53801
973.6467, 14.40740
974.1288, 14.61009
974.6110, 14.83501
975.0931, 14.89937
975.5752, 14.91544
976.0573, 15.01335
976.5394, 15.11500
977.0215, 15.05574
977.5037, 14.89110
977.9858, 14.82983
978.4679, 14.94443
978.9500, 15.13154
979.4321, 15.32889
979.9142, 15.49290
980.3964, 15.47667
980.8785, 15.34908
981.3606, 15.38058
981.8427, 15.59688
982.3248, 15.83383
982.8069, 16.00692
983.2891, 16.10843
983.7712, 16.08052
984.2533, 15.96542
984.7354, 16.13657
985.2175, 16.60732
985.6996, 16.84594
986.1818, 16.69853
986.6639, 16.58108
987.1460, 16.79545
987.6281, 17.21140
988.1102, 17.51991
988.5923, 17.68601
989.0745, 18.05474
989.5566, 18.75386
990.0387, 19.27276
990.5208, 19.42089
991.0029, 19.42111
991.4850, 19.39776
991.9672, 19.39800
992.4493, 19.61085
992.9314, 20.09800
993.4135, 20.65202
993.8956, 21.40743
994.3777, 22.04460
994.8599, 22.39684
995.3420, 22.64162
995.8241, 22.90808
996.3062, 23.20661
996.7883, 23.58376
997.2704, 24.01186
997.7526, 24.57396
998.2347, 25.50699
998.7168, 26.32514
999.1989, 26.65200
999.6810, 26.81588
1000.163, 27.25271
1000.645, 27.96748
1001.127, 28.59872
1001.609, 28.97605
1002.092, 29.35839
1002.574, 29.76165
1003.056, 30.29354
1003.538, 31.19297
1004.020, 32.20950
1004.502, 32.91121
1004.984, 33.23633
1005.466, 33.50195
1005.949, 33.79829
1006.431, 34.19789
1006.913, 34.82852
1007.395, 35.53706
1007.877, 36.24272
1008.359, 36.84597
1008.841, 37.11797
1009.323, 37.01636
1009.805, 36.85318
1010.288, 36.87824
1010.770, 36.95577
1011.252, 36.85293
1011.734, 36.71520
1012.216, 36.92579
1012.698, 37.38023
1013.180, 37.57793
1013.662, 37.31441
1014.145, 36.78765
1014.627, 36.09701
1015.109, 35.36906
1015.591, 34.83606
1016.073, 34.49038
1016.555, 34.39912
1017.037, 34.51286
1017.519, 34.44813
1018.001, 34.00912
1018.484, 33.48624
1018.966, 33.36886
1019.448, 32.63611
1019.930, 32.72403
1020.412, 31.34715
1020.894, 30.21918
1021.376, 29.50209
1021.858, 29.00459
1022.341, 28.62772
1022.823, 28.34411
1023.305, 28.10441
1023.787, 27.91422
1024.269, 27.85250
1024.751, 27.92934
1025.233, 27.96665
1025.715, 27.95292
1026.198, 27.68343
1026.680, 26.95520
1027.162, 26.11253
1027.644, 25.85912
1028.126, 26.21378
1028.608, 26.27533
1029.090, 25.97266
1029.572, 25.69588
1030.054, 25.48200
1030.536, 25.46861
1031.019, 25.83329
1031.501, 26.34446
1031.983, 26.48952
1032.465, 26.21026
1032.947, 26.01728
1033.429, 25.96341
1033.911, 25.83999
1034.393, 25.50449
1034.876, 25.26241
1035.358, 25.35386
1035.840, 25.67820
1036.322, 26.00908
1036.804, 26.36243
1037.286, 26.64678
1037.768, 26.80276
1038.250, 26.99758
1038.733, 27.29355
1039.215, 27.60617
1039.697, 27.87608
1040.179, 28.11739
1040.661, 28.34197
1041.143, 28.48846
1041.625, 28.84772
1042.107, 29.71325
1042.589, 30.38828
1043.072, 30.51384
1043.554, 30.61952
1044.036, 31.11024
1044.518, 31.84835
1045.000, 32.50768
1045.482, 33.07835
1045.964, 33.56211
1046.446, 33.72202
1046.928, 34.11266
1047.411, 34.94414
1047.893, 35.98824
1048.375, 37.20094
1048.857, 38.47300
1049.339, 39.54545
1049.821, 40.34582
1050.303, 41.21259
1050.785, 42.19999
1051.268, 43.25871
1051.750, 44.32307
1052.232, 45.49451
1052.714, 46.86012
1053.196, 48.38702
1053.678, 50.00344
1054.160, 51.70377
1054.642, 53.43540
1055.125, 55.10540
1055.607, 56.90834
1056.089, 58.91819
1056.571, 61.07897
1057.053, 63.58757
1057.535, 66.13681
1058.017, 67.95821
1058.499, 68.80126
1058.981, 70.18906
1059.464, 72.88454
1059.946, 75.80403
1060.428, 78.68563
1060.910, 81.46146
1061.392, 84.18813
1061.874, 86.75829
1062.356, 89.00362
1062.838, 90.89323
1063.320, 92.46696
1063.803, 93.48940
1064.285, 94.52361
1064.767, 95.96511
1065.249, 97.38512
1065.731, 98.37214
1066.213, 99.06265
1066.695, 99.81508
1067.177, 100.6937
1067.660, 101.3256
1068.142, 101.5568
1068.624, 101.5133
1069.106, 101.1435
1069.588, 100.6263
1070.070, 100.1172
1070.552, 99.56699
1071.034, 98.84276
1071.516, 97.92954
1071.999, 96.96463
1072.481, 95.93273
1072.963, 94.95604
1073.445, 94.09921
1073.927, 93.30540
1074.409, 92.88681
1074.891, 92.32811
1075.373, 90.64689
1075.855, 87.80816
1076.338, 85.04656
1076.820, 82.80730
1077.302, 80.80254
1077.784, 79.12492
1078.266, 77.40942
1078.748, 75.20460
1079.230, 72.85711
1079.712, 71.03333
1080.195, 69.71410
1080.677, 68.15189
1081.159, 65.84581
1081.641, 63.74707
1082.123, 62.55389
1082.605, 61.49081
1083.087, 60.01336
1083.569, 58.31445
1084.052, 56.65107
1084.534, 55.06149
1085.016, 53.50380
1085.498, 51.92750
1085.980, 50.48882
1086.462, 49.24638
1086.944, 48.16582
1087.426, 47.27410
1087.908, 46.49381
1088.391, 45.82848
1088.873, 45.19354
1089.355, 44.31948
1089.837, 43.02815
1090.319, 41.94143
1090.801, 41.45649
1091.283, 41.06327
1091.765, 40.53400
1092.248, 39.91021
1092.730, 39.16459
1093.212, 38.38447
1093.694, 37.79010
1094.176, 37.46464
1094.658, 37.07459
1095.140, 36.22792
1095.622, 35.64413
1096.104, 35.99977
1096.587, 36.43890
1097.069, 36.21666
1097.551, 35.49618
1098.033, 34.64037
1098.515, 33.69990
1098.997, 33.02863
1099.479, 32.84317
1099.961, 32.78559
1100.443, 32.91341
1100.926, 32.94586
1101.408, 32.54106
1101.890, 31.98023
1102.372, 31.77434
1102.854, 31.95525
1103.336, 31.97551
1103.818, 31.57700
1104.300, 31.21257
1104.783, 30.94202
1105.265, 30.77343
1105.747, 30.81002
1106.229, 30.88534
1106.711, 30.75562
1107.193, 30.44805
1107.675, 30.26191
1108.157, 30.31806
1108.640, 30.33324
1109.122, 30.09217
1109.604, 30.02745
1110.086, 30.51691
1110.568, 31.08945
1111.050, 31.34394
1111.532, 31.29466
1112.014, 31.04068
1112.496, 30.50985
1112.979, 29.98516
1113.461, 29.35100
1113.943, 28.89954
1114.425, 28.75193
1114.907, 28.75797
1115.389, 28.88898
1115.871, 29.07466
1116.353, 29.18700
1116.835, 29.26174
1117.318, 29.03055
1117.800, 28.10895
1118.282, 27.61111
1118.764, 28.02762
1119.246, 28.39244
1119.728, 28.04235
1120.210, 27.46391
1120.692, 27.46756
1121.175, 28.03381
1121.657, 28.12618
1122.139, 27.47135
1122.621, 27.11466
1123.103, 27.24617
1123.585, 27.42552
1124.067, 27.48805
1124.549, 27.48511
1125.031, 27.48145
1125.514, 27.45612
1125.996, 27.26925
1126.478, 27.30175
1126.960, 26.74925
1127.442, 27.13200
1127.924, 27.30133
1128.406, 26.98586
1128.888, 26.67527
1129.370, 26.77586
1129.853, 27.11706
1130.335, 27.36036
1130.817, 27.50568
1131.299, 27.13325
1131.781, 26.19614
1132.263, 25.80948
1132.745, 26.23177
1133.227, 26.56018
1133.710, 26.25196
1134.192, 25.75327
1134.674, 25.69946
1135.156, 26.00475
1135.638, 26.38906
1136.120, 26.82286
1136.602, 27.06052
1137.084, 27.08764
1137.567, 27.09385
1138.049, 27.15110
1138.531, 27.08618
1139.013, 26.68818
1139.495, 26.17626
1139.977, 25.99502
1140.459, 26.04543
1140.941, 26.01927
1141.423, 25.95205
1141.906, 26.14497
1142.388, 26.60483
1142.870, 26.85604
1143.352, 26.58806
1143.834, 26.08848
1144.316, 25.52900
1144.798, 25.08136
1145.280, 25.18008
1145.762, 25.51724
1146.245, 25.41489
1146.727, 24.91392
1147.209, 24.54509
1147.691, 24.51218
1148.173, 24.50043
1148.655, 24.12868
1149.137, 23.83352
1149.619, 24.26283
1150.102, 24.76762
1150.584, 24.40441
1151.066, 23.58087
1151.548, 23.30790
1152.030, 23.70858
1152.512, 23.93944
1152.994, 23.52687
1153.476, 23.09281
1153.958, 23.05384
1154.441, 22.97073
1154.923, 22.52106
1155.405, 21.87499
1155.887, 21.13590
1156.369, 20.40599
1156.851, 19.95172
1157.333, 19.85806
1157.815, 19.89564
1158.297, 20.24795
1158.780, 20.40903
1159.262, 20.10291
1159.744, 19.66598
1160.226, 19.24345
1160.708, 18.89816
1161.190, 18.77644
1161.672, 18.90194
1162.154, 18.87052
1162.637, 18.51673
1163.119, 18.32608
1163.601, 18.46780
1164.083, 18.53713
1164.565, 18.34167
1165.047, 18.04021
1165.529, 17.77789
1166.011, 17.55911
1166.494, 17.40154
1166.976, 17.30469
1167.458, 17.29292
1167.940, 17.40681
1168.422, 17.37176
1168.904, 17.08111
1169.386, 16.86556
1169.868, 16.96723
1170.350, 17.17991
1170.833, 17.14433
1171.315, 16.91809
1171.797, 16.84008
1172.279, 16.90002
1172.761, 17.00233
1173.243, 17.12735
1173.725, 17.17871
1174.207, 17.12181
1174.689, 17.07445
1175.172, 17.17199
1175.654, 17.25595
1176.136, 16.91008
1176.618, 16.40758
1177.100, 16.51778
1177.582, 17.00001
1178.064, 17.02291
1178.546, 16.53717
1179.029, 16.12872
1179.511, 16.06527
1179.993, 16.45287
1180.475, 18.00287
1180.957, 19.40287
1181.439, 19.14704
1181.921, 18.13974
1182.403, 17.34803
1182.885, 16.84500
1183.368, 16.51760
1183.850, 16.32825
1184.332, 16.19901
1184.814, 16.08139
1185.296, 16.04832
1185.778, 16.16259
1186.260, 16.33299
1186.742, 16.57772
1187.225, 16.79201
1187.707, 16.89476
1188.189, 16.87029
1188.671, 16.65489
1189.153, 16.12944
1189.635, 15.85591
1190.117, 15.99743
1190.599, 16.20252
1191.082, 16.50845
1191.564, 16.73849
1192.046, 16.76085
1192.528, 16.70067
1193.010, 16.74176
1193.492, 16.86026
1193.974, 16.82067
1194.456, 16.54612
1194.938, 16.58471
1195.421, 17.06144
1195.903, 17.23217
1196.385, 16.83952
1196.867, 16.32799
1197.349, 16.00714
1197.831, 15.85704
1198.313, 15.86976
1198.795, 16.01608
1199.277, 16.15600
1199.760, 16.29861
1200.242, 16.52783
1200.724, 16.82124
1201.206, 16.97490
1201.688, 16.91785
1202.170, 16.78645
1202.652, 16.69859
1203.134, 16.57566
1203.617, 16.20275
1204.099, 15.82087
1204.581, 15.83264
1205.063, 16.07521
1205.545, 16.24257
1206.027, 16.29505
1206.509, 16.30542
1206.991, 16.29085
1207.474, 16.34777
1207.956, 16.67326
1208.438, 16.89167
1208.920, 16.67602
1209.402, 16.40947
1209.884, 16.46463
1210.366, 16.63386
1210.848, 16.54440
1211.330, 16.20300
1211.813, 15.96816
1212.295, 15.91650
1212.777, 15.89528
1213.259, 15.94422
1213.741, 15.93887
1214.223, 15.73006
1214.705, 15.66677
1215.187, 16.11412
1215.669, 16.69318
1216.152, 16.65187
1216.634, 16.04471
1217.116, 15.81653
1217.598, 15.99900
1218.080, 16.18633
1218.562, 16.34123
1219.044, 16.50470
1219.526, 16.69552
1220.009, 16.74656
1220.491, 16.50054
1220.973, 16.14960
1221.455, 15.98912
1221.937, 15.99926
1222.419, 16.24049
1222.901, 16.57814
1223.383, 16.61970
1223.865, 16.39044
1224.348, 16.18102
1224.830, 16.09504
1225.312, 16.06391
1225.794, 16.05259
1226.276, 16.05787
1226.758, 16.06737
1227.240, 16.10224
1227.722, 16.30007
1228.204, 16.45205
1228.687, 16.11742
1229.169, 15.49881
1229.651, 15.38543
1230.133, 16.03864
1230.615, 16.50544
1231.097, 16.50044
1231.579, 16.46906
1232.061, 16.54168
1232.544, 16.54310
1233.026, 16.31463
1233.508, 16.07110
1233.990, 16.07689
1234.472, 16.26063
1234.954, 16.32951
1235.436, 16.27732
1235.918, 16.12639
1236.401, 15.85948
1236.883, 15.67602
1237.365, 15.61773
1237.847, 15.67143
1238.329, 15.83920
1238.811, 15.94957
1239.293, 15.77416
1239.775, 15.46196
1240.257, 15.33722
1240.740, 15.31096
1241.222, 15.09240
1241.704, 14.80550
1242.186, 14.91535
1242.668, 15.38240
1243.150, 15.62392
1243.632, 15.37548
1244.114, 15.04257
1244.596, 14.72975
1245.079, 14.62737
1245.561, 15.05939
1246.043, 15.55117
1246.525, 15.76280
1247.007, 15.72781
1247.489, 15.40750
1247.971, 14.89162
1248.453, 14.73548
1248.936, 15.23381
1249.418, 15.49200
1249.900, 15.35133
1250.382, 15.26627
1250.864, 15.35721
1251.346, 15.45399
1251.828, 15.45908
1252.310, 15.42654
1252.792, 15.42780
1253.275, 15.45294
1253.757, 15.47753
1254.239, 15.49481
1254.721, 15.37360
1255.203, 15.13819
1255.685, 15.05096
1256.167, 15.15312
1256.649, 15.24721
1257.131, 15.23004
1257.614, 15.25428
1258.096, 15.54762
1258.578, 15.86648
1259.060, 15.95213
1259.542, 15.87607
1260.024, 15.57699
1260.506, 15.26068
1260.988, 15.34259
1261.471, 15.74984
1261.953, 15.95087
1262.435, 15.77045
1262.917, 15.55013
1263.399, 15.30475
1263.881, 15.13212
1264.363, 15.04509
1264.845, 15.05632
1265.328, 15.17813
1265.810, 15.40176
1266.292, 15.78032
1266.774, 16.22106
1267.256, 16.33629
1267.738, 16.09963
1268.220, 15.72067
1268.702, 15.18330
1269.184, 15.16185
1269.667, 15.75994
1270.149, 16.24768
1270.631, 16.29183
1271.113, 16.17253
1271.595, 16.15144
1272.077, 16.13207
1272.559, 15.90577
1273.041, 15.63953
1273.523, 15.58787
1274.006, 15.68259
1274.488, 15.84451
1274.970, 16.00492
1275.452, 15.97641
1275.934, 15.70912
1276.416, 15.67369
1276.898, 16.39974
1277.380, 16.84275
1277.863, 16.41324
1278.345, 16.02239
1278.827, 16.16009
1279.309, 16.46409
1279.791, 16.71485
1280.273, 16.86432
1280.755, 16.77323
1281.237, 16.44587
1281.719, 16.27962
1282.202, 16.29186
1282.684, 16.16191
1283.166, 15.86099
1283.648, 15.75071
1284.130, 15.93900
1284.612, 16.17576
1285.094, 16.29435
1285.576, 16.33869
1286.059, 16.35109
1286.541, 16.33526
1287.023, 16.29992
1287.505, 16.24812
##END=



