##NAMES=Beryl
##RRUFFID=R050305
##IDEAL CHEMISTRY=Be_3_Al_2_Si_6_O_18_
##LOCALITY=Conselheiro Pena, Minas Gerais, Brazil
##OWNER=RRUFF
##SOURCE=Eugene Schlepp
##DESCRIPTION=Light blue fragment, variety aquamarine
##STATUS=The identification of this mineral has been confirmed by X-ray diffraction and chemical analysis
##URL=rruff.info/R050305
##MEASURED CHEMISTRY=(Be_0.91_Li_0.09_)_3_(Al_0.99_Fe^3+^_0.01_)_2_Si_6.00_O_18_Î‡Na_0.27_
127.2358, 149.7290
127.7179, 150.3916
128.2001, 152.0410
128.6822, 153.4649
129.1643, 153.8844
129.6464, 153.3851
130.1285, 153.0368
130.6107, 153.1437
131.0928, 153.1166
131.5749, 152.7581
132.0570, 152.1422
132.5391, 151.4361
133.0212, 150.7639
133.5034, 150.0923
133.9855, 149.7503
134.4676, 149.8572
134.9497, 150.1210
135.4318, 150.5412
135.9139, 151.0547
136.3961, 151.3519
136.8782, 150.9824
137.3603, 149.7518
137.8424, 148.8983
138.3245, 148.7873
138.8066, 148.9756
139.2888, 148.9488
139.7709, 148.5790
140.2530, 148.0589
140.7351, 147.6402
141.2172, 147.3169
141.6993, 146.9070
142.1815, 146.2923
142.6636, 145.5213
143.1457, 144.7780
143.6278, 144.1719
144.1099, 143.5205
144.5920, 142.5593
145.0742, 141.3047
145.5563, 140.1954
146.0384, 139.7171
146.5205, 139.9587
147.0026, 140.0763
147.4847, 139.7687
147.9668, 139.3943
148.4490, 139.1314
148.9311, 139.0215
149.4132, 139.0049
149.8953, 139.0130
150.3774, 139.1114
150.8595, 139.0868
151.3417, 138.7631
151.8238, 138.4200
152.3059, 138.3641
152.7880, 138.6946
153.2701, 139.1734
153.7522, 139.1918
154.2344, 137.9042
154.7165, 137.1052
155.1986, 137.1454
155.6807, 137.6281
156.1628, 138.0865
156.6449, 138.2953
157.1271, 138.2904
157.6092, 138.1981
158.0913, 138.0001
158.5734, 137.7575
159.0555, 137.3778
159.5376, 136.9494
160.0198, 136.7362
160.5019, 136.9646
160.9840, 137.4777
161.4661, 137.6803
161.9482, 137.4228
162.4303, 137.0331
162.9125, 136.7329
163.3946, 136.5164
163.8767, 136.2356
164.3588, 135.7215
164.8409, 135.1119
165.3230, 134.6223
165.8052, 134.2419
166.2873, 134.0414
166.7694, 134.2177
167.2515, 134.9178
167.7336, 135.4902
168.2157, 135.6758
168.6979, 135.5484
169.1800, 135.0793
169.6621, 134.0550
170.1442, 132.8269
170.6263, 132.4769
171.1084, 133.7320
171.5906, 134.7289
172.0727, 134.7465
172.5548, 134.1981
173.0369, 133.6719
173.5190, 133.5446
174.0011, 133.7502
174.4833, 133.7306
174.9654, 133.2010
175.4475, 132.7092
175.9296, 132.3796
176.4117, 132.1729
176.8938, 131.9774
177.3760, 131.6910
177.8581, 131.3039
178.3402, 131.2238
178.8223, 131.9785
179.3044, 132.4955
179.7865, 132.2663
180.2687, 131.4312
180.7508, 130.4730
181.2329, 129.7989
181.7150, 129.4393
182.1971, 129.0254
182.6792, 128.4875
183.1614, 127.9623
183.6435, 127.5234
184.1256, 127.1762
184.6077, 126.9034
185.0898, 126.7563
185.5719, 126.7293
186.0541, 126.3623
186.5362, 125.3213
187.0183, 124.1214
187.5004, 123.1693
187.9825, 122.4988
188.4646, 122.1467
188.9468, 122.3648
189.4289, 123.0015
189.9110, 123.4413
190.3931, 123.4938
190.8752, 123.2846
191.3573, 122.9551
191.8395, 122.4526
192.3216, 122.0089
192.8037, 121.9067
193.2858, 122.0086
193.7679, 121.9966
194.2500, 121.6189
194.7322, 121.0073
195.2143, 120.6490
195.6964, 120.8854
196.1785, 120.8298
196.6606, 119.6393
197.1427, 117.8129
197.6249, 116.4818
198.1070, 116.7000
198.5891, 118.2526
199.0712, 118.9053
199.5533, 117.6401
200.0354, 116.5566
200.5176, 116.6154
200.9997, 117.4962
201.4818, 118.4312
201.9639, 118.8532
202.4460, 118.7579
202.9281, 118.4159
203.4103, 117.2747
203.8924, 116.3886
204.3745, 116.2029
204.8566, 116.5706
205.3387, 117.0873
205.8208, 117.4291
206.3030, 117.6025
206.7851, 117.5300
207.2672, 117.0234
207.7493, 116.4780
208.2314, 115.9219
208.7135, 115.4391
209.1957, 115.2196
209.6778, 115.4798
210.1599, 116.3197
210.6420, 116.8455
211.1241, 116.9523
211.6062, 116.9048
212.0884, 116.9834
212.5705, 117.1046
213.0526, 116.7709
213.5347, 115.3324
214.0168, 112.5858
214.4989, 111.3140
214.9811, 112.6444
215.4632, 114.4299
215.9453, 115.4109
216.4274, 115.4814
216.9095, 114.9693
217.3916, 113.8831
217.8738, 112.2717
218.3559, 111.6799
218.8380, 113.0237
219.3201, 114.8191
219.8022, 115.8133
220.2843, 115.9132
220.7665, 115.6995
221.2486, 115.5777
221.7307, 115.5119
222.2128, 115.3542
222.6949, 114.9624
223.1770, 114.5307
223.6592, 114.2398
224.1413, 114.0844
224.6234, 114.1363
225.1055, 114.6845
225.5876, 115.4666
226.0697, 115.9939
226.5519, 116.1125
227.0340, 115.9188
227.5161, 115.3904
227.9982, 114.3332
228.4803, 113.6264
228.9624, 114.0818
229.4446, 115.1256
229.9267, 116.0878
230.4088, 116.8176
230.8909, 117.2513
231.3730, 117.1350
231.8551, 116.1736
232.3373, 115.4172
232.8194, 115.5156
233.3015, 115.9755
233.7836, 116.2124
234.2657, 115.9366
234.7478, 115.3821
235.2300, 115.0611
235.7121, 115.0022
236.1942, 115.1455
236.6763, 115.7271
237.1584, 116.3684
237.6405, 116.6008
238.1227, 116.1742
238.6048, 115.4132
239.0869, 115.1733
239.5690, 115.8018
240.0511, 116.3652
240.5332, 116.7414
241.0154, 116.9523
241.4975, 116.9359
241.9796, 116.6599
242.4617, 116.3140
242.9438, 116.4133
243.4259, 117.4198
243.9081, 118.1504
244.3902, 118.4442
244.8723, 118.4492
245.3544, 118.2422
245.8365, 117.8611
246.3186, 117.4124
246.8008, 117.1457
247.2829, 117.2809
247.7650, 117.2836
248.2471, 117.1518
248.7292, 116.8781
249.2113, 116.3931
249.6935, 115.6880
250.1756, 114.9100
250.6577, 114.3511
251.1398, 114.2325
251.6219, 114.0296
252.1040, 113.5380
252.5862, 113.0741
253.0683, 113.1499
253.5504, 113.8527
254.0325, 114.4989
254.5146, 113.9003
254.9967, 110.8194
255.4789, 108.7834
255.9610, 108.3700
256.4431, 108.6574
256.9252, 108.9605
257.4073, 109.0937
257.8894, 109.0907
258.3716, 108.9846
258.8537, 108.7135
259.3358, 108.4989
259.8179, 108.2988
260.3000, 108.1792
260.7821, 108.2770
261.2643, 108.5973
261.7464, 108.8709
262.2285, 108.7275
262.7106, 107.9982
263.1927, 107.7959
263.6748, 108.8025
264.1570, 109.9187
264.6391, 110.0126
265.1212, 109.0185
265.6033, 108.0375
266.0854, 108.2641
266.5675, 109.7515
267.0497, 110.3665
267.5318, 109.0697
268.0139, 107.5717
268.4960, 107.4429
268.9781, 108.7064
269.4602, 109.9849
269.9424, 110.2678
270.4245, 109.6019
270.9066, 108.8782
271.3887, 107.8415
271.8708, 106.9577
272.3529, 106.6794
272.8351, 106.9671
273.3172, 107.3240
273.7993, 107.4879
274.2814, 107.4836
274.7635, 107.4366
275.2456, 107.2114
275.7278, 107.0984
276.2099, 107.4468
276.6920, 108.1858
277.1741, 108.6980
277.6562, 108.5353
278.1383, 108.0642
278.6205, 108.0627
279.1026, 108.7042
279.5847, 109.4383
280.0668, 110.1132
280.5489, 110.6588
281.0310, 110.5400
281.5132, 109.1479
281.9953, 107.4258
282.4774, 106.7344
282.9595, 107.2023
283.4416, 107.8942
283.9237, 108.2570
284.4059, 108.3768
284.8880, 108.6326
285.3701, 109.1678
285.8522, 109.7963
286.3343, 110.3236
286.8164, 110.7546
287.2986, 111.1629
287.7807, 111.7049
288.2628, 112.2709
288.7449, 112.4538
289.2270, 112.0534
289.7091, 111.5186
290.1913, 111.1144
290.6734, 110.8572
291.1555, 110.8452
291.6376, 111.2324
292.1197, 111.8865
292.6018, 112.5655
293.0840, 113.3632
293.5661, 113.9179
294.0482, 113.9325
294.5303, 113.5615
295.0124, 113.0186
295.4945, 112.1787
295.9767, 111.3275
296.4588, 111.0947
296.9409, 111.6919
297.4230, 112.1811
297.9051, 111.9178
298.3872, 111.3128
298.8694, 110.7912
299.3515, 110.4154
299.8336, 110.2696
300.3157, 110.5974
300.7978, 111.5137
301.2799, 112.2201
301.7621, 112.4368
302.2442, 112.2693
302.7263, 111.5829
303.2084, 110.2307
303.6905, 109.0867
304.1726, 109.3692
304.6548, 111.1637
305.1369, 112.2732
305.6190, 111.5216
306.1011, 110.4072
306.5832, 110.1716
307.0653, 110.8714
307.5475, 111.5988
308.0296, 111.4734
308.5117, 110.5908
308.9938, 110.1396
309.4759, 110.5748
309.9580, 111.1249
310.4402, 111.1880
310.9223, 110.8850
311.4044, 110.7029
311.8865, 111.1074
312.3686, 111.9236
312.8507, 112.3133
313.3329, 111.9103
313.8150, 111.7041
314.2971, 112.4445
314.7792, 113.7105
315.2613, 114.7173
315.7434, 114.9782
316.2256, 114.8495
316.7077, 115.1514
317.1898, 116.0714
317.6719, 116.9076
318.1540, 117.2224
318.6361, 117.3409
319.1183, 117.6055
319.6004, 118.1310
320.0825, 118.7998
320.5646, 119.5580
321.0467, 120.4722
321.5288, 121.0428
322.0110, 120.6709
322.4931, 120.1543
322.9752, 120.2135
323.4573, 120.9725
323.9394, 121.7510
324.4215, 121.9144
324.9037, 121.4722
325.3858, 120.8990
325.8679, 120.3222
326.3500, 119.5599
326.8321, 118.4739
327.3142, 117.0896
327.7964, 115.5830
328.2785, 113.8523
328.7606, 112.0342
329.2427, 110.8412
329.7248, 110.6011
330.2069, 110.5070
330.6891, 110.0345
331.1712, 109.3323
331.6533, 108.7322
332.1354, 108.6080
332.6175, 108.5663
333.0996, 107.5730
333.5818, 105.1808
334.0639, 103.2738
334.5460, 103.5200
335.0281, 104.5394
335.5102, 104.7005
335.9923, 103.2998
336.4745, 101.5917
336.9566, 101.2082
337.4387, 102.2460
337.9208, 102.9745
338.4029, 102.5611
338.8850, 101.7735
339.3672, 101.3418
339.8493, 101.3324
340.3314, 101.5007
340.8135, 101.7715
341.2956, 102.1070
341.7777, 102.2038
342.2599, 101.7924
342.7420, 101.4497
343.2241, 101.8621
343.7062, 102.8563
344.1883, 103.5303
344.6704, 103.1804
345.1526, 102.2565
345.6347, 101.7423
346.1168, 101.7557
346.5989, 101.9598
347.0810, 102.2811
347.5631, 102.6146
348.0453, 102.7435
348.5274, 102.4900
349.0095, 102.1196
349.4916, 101.9971
349.9737, 102.1324
350.4558, 102.0828
350.9380, 101.5108
351.4201, 100.7058
351.9022, 100.0979
352.3843, 99.66753
352.8664, 99.55029
353.3485, 100.1245
353.8307, 101.1630
354.3128, 101.7129
354.7949, 101.3674
355.2770, 100.6817
355.7591, 100.2775
356.2412, 100.1327
356.7234, 100.2623
357.2055, 100.8693
357.6876, 101.6918
358.1697, 102.3902
358.6518, 102.9490
359.1339, 103.1756
359.6161, 102.6835
360.0982, 101.6348
360.5803, 100.9357
361.0624, 100.8637
361.5445, 101.0550
362.0266, 101.2849
362.5088, 101.5382
362.9909, 101.7672
363.4730, 101.9780
363.9551, 102.1196
364.4372, 102.0387
364.9193, 101.5073
365.4015, 101.1465
365.8836, 101.3109
366.3657, 101.8164
366.8478, 102.3624
367.3299, 102.8912
367.8120, 103.2447
368.2942, 103.0419
368.7763, 102.0636
369.2584, 101.5303
369.7405, 101.9387
370.2226, 102.6748
370.7047, 103.1291
371.1869, 103.2342
371.6690, 103.3123
372.1511, 103.6700
372.6332, 104.3245
373.1153, 104.8348
373.5974, 105.1333
374.0796, 105.3757
374.5617, 105.6951
375.0438, 106.0241
375.5259, 106.1332
376.0080, 105.8516
376.4901, 105.3656
376.9723, 105.3485
377.4544, 106.0640
377.9365, 106.8944
378.4186, 108.1321
378.9007, 109.2955
379.3828, 109.5941
379.8650, 108.8829
380.3471, 108.0876
380.8292, 108.5787
381.3113, 111.0499
381.7934, 112.7573
382.2755, 113.0745
382.7577, 113.2795
383.2398, 114.1014
383.7219, 115.4895
384.2040, 116.9999
384.6861, 118.2836
385.1682, 119.3595
385.6504, 120.4821
386.1325, 121.8901
386.6146, 123.0700
387.0967, 123.6375
387.5788, 124.0156
388.0609, 124.6940
388.5431, 125.8813
389.0252, 127.5266
389.5073, 129.5534
389.9894, 132.0372
390.4715, 134.7892
390.9536, 138.2494
391.4358, 141.5855
391.9179, 144.1281
392.4000, 145.9177
392.8821, 147.6138
393.3642, 149.8289
393.8463, 152.5778
394.3285, 155.5089
394.8106, 158.9535
395.2927, 162.2212
395.7748, 164.9003
396.2569, 167.2789
396.7390, 169.9605
397.2212, 173.3860
397.7033, 176.9796
398.1854, 179.4423
398.6675, 180.6441
399.1496, 181.1196
399.6317, 180.9009
400.1139, 180.0820
400.5960, 178.6793
401.0781, 176.7011
401.5602, 174.1525
402.0423, 170.9448
402.5244, 167.1223
403.0066, 163.0414
403.4887, 158.5820
403.9708, 154.1202
404.4529, 149.7989
404.9350, 145.6683
405.4171, 141.8485
405.8993, 138.3530
406.3814, 135.2404
406.8635, 132.7177
407.3456, 130.8504
407.8277, 128.9233
408.3098, 126.4164
408.7920, 123.6938
409.2741, 121.3618
409.7562, 119.4849
410.2383, 117.8991
410.7204, 116.2571
411.2025, 114.8008
411.6847, 114.4237
412.1668, 115.6302
412.6489, 117.1629
413.1310, 117.3630
413.6131, 116.2857
414.0952, 115.3274
414.5774, 114.8528
415.0595, 114.5126
415.5416, 113.9505
416.0237, 113.1785
416.5058, 112.4545
416.9879, 111.8960
417.4701, 111.5443
417.9522, 111.6156
418.4343, 112.6893
418.9164, 113.4204
419.3985, 113.2412
419.8806, 112.5567
420.3628, 111.8537
420.8449, 111.2923
421.3270, 111.0129
421.8091, 111.2900
422.2912, 112.5037
422.7733, 113.1554
423.2555, 112.9472
423.7376, 112.4858
424.2197, 112.0642
424.7018, 111.7060
425.1839, 111.3538
425.6660, 110.9816
426.1482, 110.5682
426.6303, 109.9298
427.1124, 108.3838
427.5945, 107.4927
428.0766, 108.1089
428.5587, 109.1244
429.0409, 109.3587
429.5230, 108.4830
430.0051, 107.1408
430.4872, 106.1418
430.9693, 105.4583
431.4514, 105.2482
431.9336, 105.9860
432.4157, 106.8054
432.8978, 107.4377
433.3799, 107.8740
433.8620, 108.1839
434.3441, 108.4112
434.8263, 108.5379
435.3084, 108.4817
435.7905, 108.1748
436.2726, 107.8728
436.7547, 107.6013
437.2368, 107.4100
437.7190, 107.4465
438.2011, 107.7647
438.6832, 107.9264
439.1653, 107.3208
439.6474, 106.1475
440.1295, 105.5164
440.6117, 105.7143
441.0938, 106.2621
441.5759, 106.8396
442.0580, 107.4378
442.5401, 108.0332
443.0222, 108.8022
443.5044, 109.4361
443.9865, 109.5935
444.4686, 109.3032
444.9507, 108.8079
445.4328, 108.1379
445.9149, 107.4140
446.3971, 106.9320
446.8792, 106.7598
447.3613, 106.5826
447.8434, 106.3519
448.3255, 106.0533
448.8076, 105.6559
449.2898, 105.1569
449.7719, 104.5891
450.2540, 103.9376
450.7361, 103.1852
451.2182, 102.8095
451.7003, 103.2023
452.1825, 103.4849
452.6646, 103.2348
453.1467, 102.6808
453.6288, 102.2351
454.1109, 102.0778
454.5930, 102.0601
455.0751, 101.8744
455.5573, 101.3810
456.0394, 100.9904
456.5215, 100.7358
457.0036, 100.5371
457.4857, 100.2432
457.9678, 99.94045
458.4500, 99.93984
458.9321, 100.5901
459.4142, 101.7031
459.8963, 102.1348
460.3784, 101.5017
460.8605, 100.8498
461.3427, 100.4207
461.8248, 100.1244
462.3069, 99.86116
462.7890, 99.60654
463.2711, 99.44376
463.7532, 99.51566
464.2354, 99.80156
464.7175, 100.0186
465.1996, 100.2004
465.6817, 100.1964
466.1638, 99.77013
466.6459, 99.08376
467.1281, 98.54272
467.6102, 98.27146
468.0923, 98.21235
468.5744, 98.37904
469.0565, 98.74892
469.5386, 99.07493
470.0208, 99.23621
470.5029, 99.33434
470.9850, 99.64565
471.4671, 100.2991
471.9492, 100.4951
472.4313, 99.65918
472.9135, 98.48438
473.3956, 97.70582
473.8777, 97.38218
474.3598, 97.18484
474.8419, 96.86969
475.3240, 96.45833
475.8062, 96.17045
476.2883, 95.81429
476.7704, 95.79482
477.2525, 96.70737
477.7346, 97.77665
478.2167, 97.97148
478.6989, 97.06262
479.1810, 95.75542
479.6631, 94.92069
480.1452, 94.63194
480.6273, 94.47286
481.1094, 94.47127
481.5916, 94.57361
482.0737, 94.78837
482.5558, 95.09257
483.0379, 95.47267
483.5200, 95.93619
484.0021, 96.40797
484.4843, 96.78209
484.9664, 97.09309
485.4485, 97.14402
485.9306, 96.66390
486.4127, 96.10127
486.8948, 95.74890
487.3770, 95.59192
487.8591, 95.46674
488.3412, 95.11590
488.8233, 94.78491
489.3054, 95.13391
489.7875, 96.26065
490.2697, 97.11156
490.7518, 97.07471
491.2339, 96.44008
491.7160, 95.86713
492.1981, 95.39113
492.6802, 94.88287
493.1624, 94.06345
493.6445, 93.26543
494.1266, 93.06647
494.6087, 93.55239
495.0908, 94.27277
495.5729, 94.91858
496.0551, 95.47700
496.5372, 95.53999
497.0193, 94.58896
497.5014, 93.82415
497.9835, 93.69442
498.4656, 93.94263
498.9478, 94.23507
499.4299, 94.45075
499.9120, 94.59709
500.3941, 94.66268
500.8762, 94.59229
501.3583, 94.66408
501.8405, 94.98405
502.3226, 95.33819
502.8047, 95.75432
503.2868, 96.13322
503.7689, 96.29201
504.2510, 96.12526
504.7332, 95.77221
505.2153, 95.43604
505.6974, 95.08634
506.1795, 94.95215
506.6616, 95.33080
507.1437, 95.70115
507.6259, 95.53732
508.1080, 94.95748
508.5901, 94.63926
509.0722, 95.17585
509.5543, 96.03185
510.0364, 96.43517
510.5186, 96.38422
511.0007, 96.12754
511.4828, 95.64471
511.9649, 95.14891
512.4470, 95.13577
512.9291, 95.73443
513.4113, 96.27200
513.8934, 96.73042
514.3755, 96.95039
514.8576, 96.51329
515.3397, 95.52687
515.8218, 94.84476
516.3040, 95.15973
516.7861, 96.30276
517.2682, 97.04378
517.7503, 96.86846
518.2324, 96.92642
518.7145, 97.76833
519.1967, 98.62221
519.6788, 98.59261
520.1609, 97.63774
520.6430, 96.59963
521.1251, 96.40476
521.6072, 97.01608
522.0894, 97.11095
522.5715, 96.20798
523.0536, 95.55717
523.5357, 95.93298
524.0178, 96.60225
524.4999, 96.56725
524.9821, 95.50355
525.4642, 94.51064
525.9463, 94.72778
526.4284, 95.90891
526.9105, 97.00191
527.3926, 97.90789
527.8748, 98.57429
528.3569, 98.93909
528.8390, 99.02046
529.3211, 98.88110
529.8032, 98.27245
530.2853, 97.73326
530.7675, 97.64089
531.2496, 97.81245
531.7317, 97.89775
532.2138, 97.79460
532.6959, 97.59450
533.1780, 97.41006
533.6602, 97.25255
534.1423, 97.03352
534.6244, 96.75769
535.1065, 96.42436
535.5886, 96.05892
536.0707, 95.62921
536.5529, 95.00921
537.0350, 94.16371
537.5171, 93.35192
537.9992, 92.98579
538.4813, 93.09352
538.9634, 93.53701
539.4456, 95.05705
539.9277, 96.06648
540.4098, 95.27127
540.8919, 93.52458
541.3740, 92.65086
541.8561, 93.71636
542.3383, 95.17725
542.8204, 94.90076
543.3025, 93.10032
543.7846, 91.88338
544.2667, 91.91434
544.7488, 92.38457
545.2310, 92.47929
545.7131, 92.23462
546.1952, 91.87853
546.6773, 91.13253
547.1594, 90.57531
547.6415, 90.71541
548.1237, 91.34368
548.6058, 91.99263
549.0879, 92.48437
549.5700, 92.73320
550.0521, 92.53904
550.5342, 91.61111
551.0164, 91.14421
551.4985, 91.55830
551.9806, 91.93431
552.4627, 91.60933
552.9448, 90.99538
553.4269, 90.97356
553.9091, 91.99458
554.3912, 93.44443
554.8733, 94.30896
555.3554, 94.56181
555.8375, 94.38136
556.3196, 93.32354
556.8018, 92.37379
557.2839, 92.26830
557.7660, 92.75835
558.2481, 93.16248
558.7302, 93.36647
559.2123, 93.23144
559.6945, 92.27631
560.1766, 90.75903
560.6587, 89.90742
561.1408, 90.17672
561.6229, 90.96960
562.1050, 91.68358
562.5872, 92.35418
563.0693, 92.43916
563.5514, 91.16827
564.0335, 90.07887
564.5156, 90.11916
564.9977, 90.86606
565.4799, 91.55521
565.9620, 91.87456
566.4441, 91.91486
566.9262, 91.78728
567.4083, 91.43590
567.8904, 91.14014
568.3726, 90.73064
568.8547, 90.56779
569.3368, 91.00237
569.8189, 91.71011
570.3010, 92.12402
570.7831, 91.99519
571.2653, 91.74969
571.7474, 91.97279
572.2295, 92.58548
572.7116, 92.92641
573.1937, 92.82564
573.6758, 92.59708
574.1580, 92.46188
574.6401, 92.40977
575.1222, 92.40425
575.6043, 92.71910
576.0864, 92.76580
576.5685, 91.88281
577.0507, 90.64696
577.5328, 90.08993
578.0149, 90.44698
578.4970, 91.13469
578.9791, 91.58335
579.4612, 91.79947
579.9434, 91.61525
580.4255, 90.52959
580.9076, 89.62742
581.3897, 89.09624
581.8718, 88.84767
582.3539, 88.93509
582.8361, 89.30214
583.3182, 89.48205
583.8003, 88.65724
584.2824, 87.07464
584.7645, 86.75042
585.2466, 88.16591
585.7288, 89.48214
586.2109, 89.71673
586.6930, 89.34248
587.1751, 88.99486
587.6572, 88.70979
588.1393, 88.48268
588.6215, 88.41288
589.1036, 88.34789
589.5857, 87.94129
590.0678, 87.23495
590.5499, 86.86838
591.0320, 87.34413
591.5142, 88.34183
591.9963, 88.66516
592.4784, 87.71564
592.9605, 86.90135
593.4426, 86.29620
593.9247, 85.78184
594.4069, 85.13498
594.8890, 84.48777
595.3711, 84.28127
595.8532, 84.88731
596.3353, 85.93672
596.8174, 86.58389
597.2996, 86.78603
597.7817, 86.79082
598.2638, 86.49014
598.7459, 86.18246
599.2280, 86.34080
599.7101, 86.80260
600.1923, 86.67525
600.6744, 84.84855
601.1565, 83.03870
601.6386, 82.92210
602.1207, 84.01817
602.6028, 84.91666
603.0850, 85.15038
603.5671, 84.99682
604.0492, 84.76180
604.5313, 84.39490
605.0134, 84.26875
605.4955, 84.83623
605.9777, 85.09238
606.4598, 84.30182
606.9419, 83.19707
607.4240, 82.81429
607.9061, 83.41336
608.3882, 84.28453
608.8704, 84.65485
609.3525, 84.55621
609.8346, 84.38252
610.3167, 84.07571
610.7988, 83.84589
611.2809, 83.74821
611.7631, 83.81767
612.2452, 84.19707
612.7273, 85.01557
613.2094, 85.58776
613.6915, 85.37992
614.1736, 84.87779
614.6558, 84.78593
615.1379, 85.07487
615.6200, 85.09534
616.1021, 84.38821
616.5842, 83.31587
617.0663, 82.94943
617.5485, 84.09279
618.0306, 84.57030
618.5127, 83.68785
618.9948, 82.84554
619.4769, 82.99863
619.9590, 83.83096
620.4412, 84.47035
620.9233, 84.46297
621.4054, 84.13804
621.8875, 83.93253
622.3696, 83.84826
622.8517, 84.10414
623.3339, 85.02325
623.8160, 85.72875
624.2981, 85.10902
624.7802, 83.64308
625.2623, 82.93709
625.7444, 83.79856
626.2266, 84.64085
626.7087, 84.60533
627.1908, 84.16219
627.6729, 84.01075
628.1550, 84.25748
628.6371, 84.51567
629.1193, 84.43765
629.6014, 84.06733
630.0835, 83.75294
630.5656, 83.36375
631.0477, 83.26124
631.5298, 83.69908
632.0120, 84.24730
632.4941, 84.65017
632.9762, 84.86678
633.4583, 84.90073
633.9404, 84.62648
634.4225, 84.27841
634.9047, 84.31287
635.3868, 84.69138
635.8689, 84.87598
636.3510, 84.63546
636.8331, 84.29564
637.3152, 84.23852
637.7974, 84.49403
638.2795, 84.80640
638.7616, 85.35120
639.2437, 85.75514
639.7258, 85.81349
640.2079, 85.65858
640.6901, 85.48842
641.1722, 85.34863
641.6543, 85.11442
642.1364, 84.53687
642.6185, 83.68562
643.1006, 83.59932
643.5828, 84.71455
644.0649, 85.62824
644.5470, 85.76431
645.0291, 85.52222
645.5112, 85.06323
645.9933, 84.41537
646.4755, 84.18272
646.9576, 85.13844
647.4397, 86.28471
647.9218, 86.40417
648.4039, 85.69710
648.8860, 85.17352
649.3682, 85.25645
649.8503, 85.54673
650.3324, 85.38631
650.8145, 84.55557
651.2966, 84.29285
651.7787, 85.10164
652.2609, 85.87206
652.7430, 86.34406
653.2251, 86.55309
653.7072, 86.51060
654.1893, 86.23522
654.6714, 85.90556
655.1536, 85.59602
655.6357, 85.36662
656.1178, 85.50941
656.5999, 86.08877
657.0820, 86.54553
657.5641, 86.57854
658.0463, 86.38092
658.5284, 86.30707
659.0105, 86.37808
659.4926, 86.43397
659.9747, 86.31110
660.4568, 86.30011
660.9390, 86.48413
661.4211, 86.94111
661.9032, 88.01662
662.3853, 89.80986
662.8674, 91.46166
663.3495, 91.42619
663.8317, 89.50813
664.3138, 89.16620
664.7959, 91.44862
665.2780, 93.39833
665.7601, 93.16917
666.2422, 92.15807
666.7244, 91.91796
667.2065, 92.66008
667.6886, 93.80116
668.1707, 95.21378
668.6528, 96.78879
669.1349, 98.43742
669.6171, 100.1392
670.0992, 101.8729
670.5813, 103.6282
671.0634, 105.3381
671.5455, 106.8456
672.0276, 107.9720
672.5098, 109.5470
672.9919, 112.0048
673.4740, 114.4404
673.9561, 116.3677
674.4382, 118.1960
674.9203, 120.4879
675.4025, 123.3726
675.8846, 126.5360
676.3667, 129.8185
676.8488, 133.1526
677.3309, 136.2253
677.8130, 139.0376
678.2952, 142.4663
678.7773, 146.9843
679.2594, 152.2891
679.7415, 157.9003
680.2236, 163.8251
680.7057, 170.0795
681.1879, 176.9549
681.6700, 183.8695
682.1521, 190.7455
682.6342, 197.4650
683.1163, 203.9787
683.5984, 210.2868
684.0806, 215.9176
684.5627, 220.6220
685.0448, 224.2972
685.5269, 226.4856
686.0090, 227.2134
686.4911, 226.3471
686.9733, 223.8746
687.4554, 219.7193
687.9375, 213.4594
688.4196, 205.0149
688.9017, 196.1197
689.3839, 186.1555
689.8660, 176.7202
690.3481, 168.9752
690.8302, 162.3827
691.3123, 155.8294
691.7944, 149.0005
692.2766, 142.5761
692.7587, 137.3781
693.2408, 133.3226
693.7229, 129.3672
694.2050, 125.4446
694.6871, 121.7115
695.1693, 118.1118
695.6514, 114.8066
696.1335, 111.9122
696.6156, 109.4266
697.0977, 107.3373
697.5798, 105.8261
698.0620, 104.5201
698.5441, 103.2248
699.0262, 101.9071
699.5083, 100.4547
699.9904, 98.86152
700.4725, 97.40836
700.9547, 96.37743
701.4368, 95.76822
701.9189, 95.67510
702.4010, 96.71918
702.8831, 97.03723
703.3652, 95.25342
703.8474, 93.25507
704.3295, 92.52322
704.8116, 92.95348
705.2937, 93.40255
705.7758, 93.64351
706.2579, 93.51642
706.7401, 92.60741
707.2222, 91.27657
707.7043, 90.32978
708.1864, 89.95027
708.6685, 89.76089
709.1506, 89.39027
709.6328, 88.91252
710.1149, 88.95619
710.5970, 90.12528
711.0791, 90.69837
711.5612, 90.11001
712.0433, 89.19390
712.5255, 88.23844
713.0076, 87.39215
713.4897, 87.02866
713.9718, 87.61330
714.4539, 88.12004
714.9360, 87.23168
715.4182, 85.65308
715.9003, 85.11710
716.3824, 85.85700
716.8645, 86.80273
717.3466, 87.19174
717.8287, 87.16331
718.3109, 87.23611
718.7930, 87.47096
719.2751, 87.69197
719.7572, 88.10982
720.2393, 88.29838
720.7214, 87.86440
721.2036, 87.08546
721.6857, 86.50846
722.1678, 86.34291
722.6499, 86.24071
723.1320, 85.80666
723.6141, 85.25981
724.0963, 85.06825
724.5784, 85.25414
725.0605, 85.62857
725.5426, 86.15547
726.0247, 86.60725
726.5068, 86.45541
726.9890, 85.30747
727.4711, 84.75837
727.9532, 85.42305
728.4353, 85.97419
728.9174, 85.77769
729.3995, 85.30967
729.8817, 85.26928
730.3638, 85.79060
730.8459, 86.23365
731.3280, 86.00963
731.8101, 85.49637
732.2922, 85.34619
732.7744, 85.51077
733.2565, 85.51900
733.7386, 85.15886
734.2207, 84.88676
734.7028, 85.37609
735.1849, 86.71919
735.6671, 87.42220
736.1492, 86.88496
736.6313, 86.45980
737.1134, 86.61925
737.5955, 86.78949
738.0776, 86.32182
738.5598, 85.31135
739.0419, 84.52348
739.5240, 84.39429
740.0061, 84.61293
740.4882, 84.83720
740.9703, 85.11005
741.4525, 85.66760
741.9346, 86.55444
742.4167, 87.24938
742.8988, 87.26435
743.3809, 86.76675
743.8630, 86.60902
744.3452, 87.10048
744.8273, 87.36742
745.3094, 87.33140
745.7915, 87.10390
746.2736, 86.45575
746.7557, 85.71592
747.2379, 85.61184
747.7200, 86.52981
748.2021, 87.42513
748.6842, 87.35498
749.1663, 86.79851
749.6484, 86.52938
750.1306, 86.59942
750.6127, 86.84528
751.0948, 87.19734
751.5769, 87.60401
752.0590, 88.00857
752.5411, 88.48497
753.0233, 88.59576
753.5054, 87.98262
753.9875, 87.48161
754.4696, 87.48576
754.9517, 87.63748
755.4338, 87.55656
755.9160, 87.20285
756.3981, 86.78636
756.8802, 86.08755
757.3623, 85.63686
757.8444, 86.29073
758.3265, 87.55000
758.8087, 88.21376
759.2908, 87.97560
759.7729, 87.28661
760.2550, 86.50283
760.7371, 85.70066
761.2192, 85.39027
761.7014, 85.68281
762.1835, 86.17793
762.6656, 87.02660
763.1477, 87.83314
763.6298, 88.32823
764.1119, 88.57750
764.5941, 88.80257
765.0762, 89.20625
765.5583, 89.26344
766.0404, 88.49756
766.5225, 87.40117
767.0046, 86.27892
767.4868, 85.32935
767.9689, 85.04657
768.4510, 85.69469
768.9331, 86.75252
769.4152, 87.40806
769.8973, 87.65899
770.3795, 87.57332
770.8616, 86.91525
771.3437, 86.58504
771.8258, 87.26890
772.3079, 88.28223
772.7900, 88.59669
773.2722, 88.16856
773.7543, 87.68864
774.2364, 86.97752
774.7185, 86.55632
775.2006, 87.01909
775.6827, 87.76482
776.1649, 87.90807
776.6470, 87.37889
777.1291, 86.85323
777.6112, 86.87373
778.0933, 87.22275
778.5754, 87.40553
779.0576, 87.43034
779.5397, 87.59344
780.0218, 88.05869
780.5039, 88.22861
780.9860, 87.38808
781.4681, 85.92336
781.9503, 85.55031
782.4324, 87.40825
782.9145, 88.44593
783.3966, 88.00741
783.8787, 87.24001
784.3608, 86.60110
784.8430, 86.15780
785.3251, 85.91982
785.8072, 85.88997
786.2893, 86.05865
786.7714, 86.58683
787.2535, 87.23439
787.7357, 87.54621
788.2178, 87.53662
788.6999, 87.39198
789.1820, 87.16614
789.6641, 86.94573
790.1462, 86.80893
790.6284, 86.75673
791.1105, 87.05511
791.5926, 88.28078
792.0747, 88.87178
792.5568, 88.12938
793.0389, 87.05986
793.5211, 85.96346
794.0032, 85.10817
794.4853, 85.33314
794.9674, 87.60760
795.4495, 89.58100
795.9316, 89.41247
796.4138, 88.30648
796.8959, 87.78542
797.3780, 87.89516
797.8601, 87.97441
798.3422, 87.67675
798.8243, 87.28682
799.3065, 87.35580
799.7886, 87.91055
800.2707, 88.03318
800.7528, 87.50765
801.2349, 87.21628
801.7170, 87.68092
802.1992, 88.39803
802.6813, 88.64442
803.1634, 88.42148
803.6455, 88.28641
804.1276, 88.52966
804.6097, 88.57744
805.0919, 87.85715
805.5740, 87.08270
806.0561, 87.18597
806.5382, 88.02505
807.0203, 88.58583
807.5024, 88.17831
807.9846, 87.53502
808.4667, 87.83017
808.9488, 88.77800
809.4309, 89.20518
809.9130, 88.96824
810.3951, 88.65490
810.8773, 88.60092
811.3594, 88.67274
811.8415, 88.57521
812.3236, 88.19111
812.8057, 88.08055
813.2878, 88.63290
813.7700, 88.96999
814.2521, 88.67541
814.7342, 88.17754
815.2163, 87.84314
815.6984, 87.72388
816.1805, 87.83151
816.6627, 88.50759
817.1448, 89.06441
817.6269, 88.77139
818.1090, 88.12187
818.5911, 88.00605
819.0732, 88.43903
819.5554, 88.63995
820.0375, 88.04829
820.5196, 87.19180
821.0017, 87.33445
821.4838, 88.52028
821.9659, 88.98625
822.4481, 88.35281
822.9302, 87.86536
823.4123, 88.26445
823.8944, 89.07921
824.3765, 89.44088
824.8586, 89.20263
825.3407, 89.29139
825.8228, 90.43099
826.3049, 91.05887
826.7870, 90.07617
827.2692, 88.69378
827.7513, 88.25699
828.2334, 88.76674
828.7155, 89.28050
829.1976, 89.30625
829.6797, 89.09510
830.1619, 88.85978
830.6440, 88.61876
831.1261, 88.37247
831.6082, 88.14153
832.0903, 88.11292
832.5724, 88.41579
833.0546, 88.86067
833.5367, 89.08260
834.0188, 89.06316
834.5009, 88.94341
834.9830, 88.68036
835.4651, 88.38976
835.9473, 87.82608
836.4294, 87.48662
836.9115, 88.29726
837.3936, 90.14514
837.8757, 90.83299
838.3578, 88.73086
838.8400, 87.02844
839.3221, 87.06227
839.8042, 87.95268
840.2863, 89.23199
840.7684, 90.52145
841.2505, 91.10533
841.7327, 90.58746
842.2148, 89.62181
842.6969, 88.74844
843.1790, 88.08570
843.6611, 88.13045
844.1432, 88.84776
844.6254, 89.39781
845.1075, 89.42464
845.5896, 89.15914
846.0717, 88.88248
846.5538, 88.59541
847.0359, 88.34536
847.5181, 87.93721
848.0002, 87.96461
848.4823, 89.19773
848.9644, 90.28727
849.4465, 90.09557
849.9286, 89.01765
850.4108, 88.25622
850.8929, 88.03559
851.3750, 88.07084
851.8571, 88.48932
852.3392, 88.92280
852.8214, 89.06123
853.3035, 88.97783
853.7856, 88.91116
854.2677, 88.91956
854.7498, 88.74084
855.2319, 87.86773
855.7141, 86.76289
856.1962, 86.55433
856.6783, 87.14052
857.1604, 87.94593
857.6425, 88.86955
858.1246, 89.31026
858.6068, 88.63864
859.0889, 87.24420
859.5710, 86.66228
860.0531, 87.42001
860.5352, 87.55912
861.0173, 86.24574
861.4995, 85.32146
861.9816, 86.12770
862.4637, 87.51398
862.9458, 87.89134
863.4279, 87.08569
863.9100, 86.40226
864.3922, 86.12985
864.8743, 86.09969
865.3564, 86.37173
865.8385, 86.74403
866.3206, 87.03224
866.8027, 87.18642
867.2849, 87.16078
867.7670, 86.89210
868.2491, 86.57951
868.7312, 86.50810
869.2133, 86.59743
869.6954, 86.63048
870.1776, 86.58859
870.6597, 86.50250
871.1418, 86.38981
871.6239, 86.19803
872.1060, 85.79958
872.5881, 85.19976
873.0703, 85.00356
873.5524, 85.26449
874.0345, 85.83840
874.5166, 87.25581
874.9987, 88.34419
875.4808, 87.81367
875.9630, 86.20311
876.4451, 85.09478
876.9272, 84.77324
877.4093, 84.53802
877.8914, 84.34216
878.3735, 84.09760
878.8557, 83.52244
879.3378, 82.95903
879.8199, 83.04211
880.3020, 83.84148
880.7841, 84.60358
881.2662, 84.77632
881.7484, 84.68151
882.2305, 84.60784
882.7126, 84.60331
883.1947, 84.98027
883.6768, 85.67107
884.1589, 85.83286
884.6411, 84.87801
885.1232, 83.36610
885.6053, 82.39018
886.0874, 81.96017
886.5695, 81.54259
887.0516, 80.99434
887.5338, 81.13847
888.0159, 82.74435
888.4980, 84.41957
888.9801, 84.26068
889.4622, 82.27512
889.9443, 81.37469
890.4265, 82.81901
890.9086, 83.52269
891.3907, 82.43325
891.8728, 81.27641
892.3549, 81.26991
892.8370, 81.93633
893.3192, 82.22724
893.8013, 81.87508
894.2834, 81.49343
894.7655, 81.18731
895.2476, 81.15944
895.7297, 81.88914
896.2119, 82.89237
896.6940, 83.29942
897.1761, 83.01549
897.6582, 82.60170
898.1403, 82.40451
898.6224, 82.41454
899.1046, 82.81139
899.5867, 83.42328
900.0688, 83.34748
900.5509, 82.52376
901.0330, 81.95818
901.5151, 82.16396
901.9973, 82.62808
902.4794, 82.55711
902.9615, 81.95012
903.4436, 81.74875
903.9257, 82.16204
904.4078, 82.44150
904.8900, 82.48516
905.3721, 82.28319
905.8542, 81.59863
906.3363, 80.67713
906.8184, 80.30904
907.3005, 80.76231
907.7827, 81.14290
908.2648, 81.33238
908.7469, 81.43721
909.2290, 81.70332
909.7111, 81.80055
910.1932, 81.00359
910.6754, 79.45331
911.1575, 78.57317
911.6396, 79.37228
912.1217, 80.61693
912.6038, 81.65733
913.0859, 82.31771
913.5681, 82.07268
914.0502, 81.18440
914.5323, 80.62323
915.0144, 80.81145
915.4965, 81.30980
915.9786, 81.71342
916.4608, 81.97663
916.9429, 81.88299
917.4250, 81.45628
917.9071, 80.98520
918.3892, 80.52934
918.8713, 80.16331
919.3535, 79.94766
919.8356, 79.86746
920.3177, 79.90418
920.7998, 80.12771
921.2819, 80.19225
921.7640, 79.97070
922.2462, 79.83036
922.7283, 79.94029
923.2104, 80.18077
923.6925, 80.44148
924.1746, 80.71821
924.6567, 80.91624
925.1389, 81.00409
925.6210, 81.04987
926.1031, 81.17068
926.5852, 81.14989
927.0673, 80.67837
927.5494, 80.01471
928.0316, 79.67250
928.5137, 79.78642
928.9958, 79.84160
929.4779, 79.34480
929.9600, 78.90646
930.4421, 79.08083
930.9243, 79.61610
931.4064, 80.22549
931.8885, 80.78502
932.3706, 81.09357
932.8527, 81.02507
933.3348, 80.77532
933.8170, 80.55569
934.2991, 80.36569
934.7812, 80.25741
935.2633, 80.20140
935.7454, 79.90855
936.2275, 79.28172
936.7097, 78.79701
937.1918, 78.95721
937.6739, 79.58218
938.1560, 80.00700
938.6381, 80.22341
939.1202, 80.26000
939.6024, 80.06725
940.0845, 79.85598
940.5666, 79.69786
941.0487, 79.62828
941.5308, 79.72139
942.0129, 79.99568
942.4951, 80.23283
942.9772, 80.53262
943.4593, 80.64218
943.9414, 80.33709
944.4235, 80.02354
944.9056, 80.06451
945.3878, 80.25763
945.8699, 80.11655
946.3520, 79.48753
946.8341, 78.95881
947.3162, 78.53339
947.7983, 78.41338
948.2805, 78.91148
948.7626, 79.63758
949.2447, 80.19151
949.7268, 80.53363
950.2089, 80.81679
950.6910, 81.16795
951.1732, 81.27677
951.6553, 80.69593
952.1374, 79.88487
952.6195, 79.24544
953.1016, 78.89902
953.5837, 79.21311
954.0659, 80.16966
954.5480, 80.89899
955.0301, 80.62070
955.5122, 79.82594
955.9943, 79.33226
956.4764, 79.11105
956.9586, 79.19322
957.4407, 79.53053
957.9228, 79.39684
958.4049, 78.41138
958.8870, 77.40021
959.3691, 77.54317
959.8513, 78.66347
960.3334, 79.30366
960.8155, 79.38698
961.2976, 79.60594
961.7797, 80.22156
962.2618, 80.47772
962.7440, 79.71123
963.2261, 78.46600
963.7082, 77.90536
964.1903, 78.13326
964.6724, 78.51033
965.1545, 79.36797
965.6367, 79.81004
966.1188, 79.04778
966.6009, 78.35716
967.0830, 78.96732
967.5651, 80.42037
968.0472, 81.28982
968.5294, 81.28925
969.0115, 81.26112
969.4936, 81.40421
969.9757, 81.44300
970.4578, 81.33936
970.9399, 81.01123
971.4221, 79.95027
971.9042, 78.49254
972.3863, 78.28651
972.8684, 80.73890
973.3505, 82.61335
973.8326, 81.68950
974.3148, 79.98186
974.7969, 78.87086
975.2790, 78.48049
975.7611, 79.16150
976.2432, 80.70497
976.7253, 81.50378
977.2075, 80.05573
977.6896, 78.22444
978.1717, 78.23381
978.6538, 79.16313
979.1359, 79.34862
979.6180, 78.90752
980.1002, 78.98740
980.5823, 79.97780
981.0644, 81.02300
981.5465, 81.22816
982.0286, 80.90948
982.5107, 80.71386
982.9929, 80.64224
983.4750, 80.71667
983.9571, 80.93443
984.4392, 81.23836
984.9213, 81.60709
985.4034, 81.94839
985.8856, 82.10396
986.3677, 82.10549
986.8498, 82.23170
987.3319, 82.49150
987.8140, 82.78231
988.2961, 83.09864
988.7783, 83.35809
989.2604, 83.46168
989.7425, 83.56055
990.2246, 83.99982
990.7067, 84.84122
991.1888, 85.53516
991.6710, 86.09859
992.1531, 86.47395
992.6352, 86.56078
993.1173, 86.58406
993.5994, 86.67547
994.0815, 86.84843
994.5637, 87.14649
995.0458, 87.59618
995.5279, 88.09441
996.0100, 88.85963
996.4921, 89.39030
996.9742, 89.33518
997.4564, 89.18349
997.9385, 89.49650
998.4206, 90.07060
998.9027, 90.05071
999.3848, 88.74847
999.8669, 88.36873
1000.349, 90.17825
1000.831, 92.01921
1001.313, 93.18410
1001.795, 93.61464
1002.278, 92.65897
1002.760, 90.87139
1003.242, 90.61597
1003.724, 93.40281
1004.206, 95.86055
1004.688, 96.09526
1005.170, 95.75768
1005.652, 96.06731
1006.134, 96.68922
1006.617, 97.05233
1007.099, 97.05348
1007.581, 96.79555
1008.063, 96.17549
1008.545, 95.70033
1009.027, 96.09665
1009.509, 96.61217
1009.991, 96.10511
1010.474, 95.05774
1010.956, 94.73134
1011.438, 95.32478
1011.920, 95.89422
1012.402, 95.77414
1012.884, 95.39558
1013.366, 95.32285
1013.848, 95.35493
1014.330, 95.19113
1014.813, 94.76949
1015.295, 93.79695
1015.777, 92.27983
1016.259, 91.18121
1016.741, 91.46303
1017.223, 92.36226
1017.705, 92.57503
1018.187, 92.19352
1018.669, 91.30989
1019.152, 90.06118
1019.634, 89.29302
1020.116, 89.31331
1020.598, 89.73273
1021.080, 90.25202
1021.562, 90.70235
1022.044, 90.44437
1022.526, 89.57235
1023.009, 89.17380
1023.491, 89.35555
1023.973, 89.27938
1024.455, 88.56459
1024.937, 87.75417
1025.419, 87.51168
1025.901, 87.66548
1026.383, 87.24680
1026.865, 86.15874
1027.348, 86.16856
1027.830, 87.67631
1028.312, 88.90003
1028.794, 89.04517
1029.276, 88.50095
1029.758, 87.64878
1030.240, 86.57227
1030.722, 86.01284
1031.205, 86.10288
1031.687, 86.08997
1032.169, 85.78703
1032.651, 85.74927
1033.133, 86.34636
1033.615, 87.14996
1034.097, 87.64104
1034.579, 87.82214
1035.062, 87.64635
1035.544, 86.75520
1036.026, 86.49396
1036.508, 87.39723
1036.990, 88.12652
1037.472, 87.83766
1037.954, 87.29000
1038.436, 87.59699
1038.918, 88.71040
1039.401, 89.19344
1039.883, 88.66786
1040.365, 88.20272
1040.847, 87.68915
1041.329, 87.47725
1041.811, 87.94213
1042.293, 88.64251
1042.775, 88.98277
1043.257, 88.97453
1043.740, 89.10374
1044.222, 89.48048
1044.704, 89.82524
1045.186, 90.27424
1045.668, 90.51650
1046.150, 90.06747
1046.632, 89.56104
1047.114, 89.82205
1047.597, 90.82130
1048.079, 91.81588
1048.561, 93.03233
1049.043, 93.79552
1049.525, 93.79266
1050.007, 93.58403
1050.489, 93.13401
1050.971, 92.82393
1051.453, 93.21804
1051.936, 94.24626
1052.418, 95.09755
1052.900, 95.57492
1053.382, 95.98588
1053.864, 95.96522
1054.346, 96.38107
1054.828, 98.15096
1055.310, 100.2973
1055.792, 101.6289
1056.275, 102.1694
1056.757, 102.6965
1057.239, 103.4732
1057.721, 104.0576
1058.203, 103.9630
1058.685, 104.0619
1059.167, 105.0266
1059.649, 106.3164
1060.132, 107.2384
1060.614, 107.8454
1061.096, 108.7617
1061.578, 110.4061
1062.060, 111.6636
1062.542, 111.8381
1063.024, 111.8761
1063.506, 112.3116
1063.989, 112.9056
1064.471, 113.3058
1064.953, 113.5721
1065.435, 114.1326
1065.917, 115.3305
1066.399, 116.0146
1066.881, 115.2155
1067.363, 114.3709
1067.845, 114.3875
1068.328, 114.7500
1068.810, 114.9631
1069.292, 114.9618
1069.774, 114.8490
1070.256, 114.7157
1070.738, 114.1068
1071.220, 112.0955
1071.702, 110.4180
1072.184, 110.4875
1072.667, 111.0919
1073.149, 110.9438
1073.631, 110.2032
1074.113, 109.7587
1074.595, 109.9095
1075.077, 109.5441
1075.559, 107.2610
1076.041, 105.4251
1076.523, 105.9154
1077.006, 107.0182
1077.488, 107.1600
1077.970, 106.4922
1078.452, 105.6850
1078.934, 104.8981
1079.416, 104.0995
1079.898, 103.1352
1080.380, 102.3263
1080.863, 101.8283
1081.345, 101.5642
1081.827, 101.5540
1082.309, 101.6900
1082.791, 101.9115
1083.273, 102.1651
1083.755, 102.0098
1084.237, 100.9901
1084.719, 99.90318
1085.202, 99.01155
1085.684, 98.32021
1086.166, 97.97859
1086.648, 97.76538
1087.130, 97.21967
1087.612, 96.37878
1088.094, 96.00797
1088.576, 96.72693
1089.058, 97.29199
1089.541, 97.03526
1090.023, 96.57571
1090.505, 96.26749
1090.987, 96.07458
1091.469, 95.84355
1091.951, 95.62563
1092.433, 95.73283
1092.915, 96.39462
1093.398, 96.99158
1093.880, 97.45041
1094.362, 97.57708
1094.844, 97.09311
1095.326, 96.33300
1095.808, 95.43672
1096.290, 94.61380
1096.772, 94.43100
1097.255, 95.20895
1097.737, 95.69508
1098.219, 95.14900
1098.701, 94.62273
1099.183, 94.64967
1099.665, 94.85518
1100.147, 95.11180
1100.629, 95.20663
1101.111, 94.52912
1101.594, 92.86005
1102.076, 92.07623
1102.558, 93.97274
1103.040, 95.03053
1103.522, 92.91762
1104.004, 90.77528
1104.486, 91.15897
1104.968, 92.84343
1105.450, 93.68472
1105.933, 93.48891
1106.415, 93.45358
1106.897, 94.00681
1107.379, 94.42893
1107.861, 94.54638
1108.343, 94.54028
1108.825, 94.51900
1109.307, 94.41561
1109.790, 93.95439
1110.272, 93.25893
1110.754, 93.22176
1111.236, 94.64113
1111.718, 95.31121
1112.200, 94.36166
1112.682, 93.50146
1113.164, 93.18569
1113.646, 93.32072
1114.129, 94.15796
1114.611, 95.35972
1115.093, 95.74208
1115.575, 94.90987
1116.057, 94.45158
1116.539, 94.55068
1117.021, 94.75661
1117.503, 95.31366
1117.985, 95.54939
1118.468, 94.72847
1118.950, 93.45921
1119.432, 92.85774
1119.914, 92.94124
1120.396, 93.54167
1120.878, 95.23883
1121.360, 96.17531
1121.842, 95.83989
1122.325, 95.23002
1122.807, 94.61862
1123.289, 94.26862
1123.771, 94.62948
1124.253, 95.57684
1124.735, 96.03156
1125.217, 95.81465
1125.699, 95.76418
1126.182, 96.00005
1126.664, 96.12907
1127.146, 95.96230
1127.628, 95.77413
1128.110, 95.77355
1128.592, 96.00029
1129.074, 96.69532
1129.556, 97.96523
1130.038, 98.43832
1130.521, 97.98361
1131.003, 97.64464
1131.485, 97.65802
1131.967, 97.82454
1132.449, 98.04028
1132.931, 98.23595
1133.413, 98.26318
1133.895, 98.17139
1134.377, 98.39961
1134.860, 98.92828
1135.342, 99.04683
1135.824, 98.66856
1136.306, 98.35155
1136.788, 98.34084
1137.270, 98.42262
1137.752, 98.40044
1138.234, 98.24772
1138.717, 97.58877
1139.199, 96.73936
1139.681, 97.44320
1140.163, 99.44145
1140.645, 100.6282
1141.127, 100.4724
1141.609, 99.88378
1142.091, 99.42338
1142.573, 99.27914
1143.056, 100.0479
1143.538, 101.1348
1144.020, 101.1750
1144.502, 100.5573
1144.984, 100.4456
1145.466, 100.8314
1145.948, 100.7238
1146.430, 99.71671
1146.912, 98.82198
1147.395, 98.90376
1147.877, 99.58057
1148.359, 100.8761
1148.841, 102.1799
1149.323, 102.5048
1149.805, 102.1502
1150.287, 101.9636
1150.769, 102.1073
1151.252, 102.0896
1151.734, 101.5044
1152.216, 101.0768
1152.698, 101.3223
1153.180, 101.8859
1153.662, 102.9031
1154.144, 103.7676
1154.626, 103.4083
1155.109, 102.2086
1155.591, 101.7006
1156.073, 102.3953
1156.555, 103.1034
1157.037, 103.4329
1157.519, 103.6601
1158.001, 104.0678
1158.483, 104.2508
1158.965, 103.6555
1159.448, 102.7371
1159.930, 102.1865
1160.412, 102.0678
1160.894, 102.4769
1161.376, 104.3181
1161.858, 105.2743
1162.340, 104.3238
1162.822, 103.5118
1163.304, 103.5819
1163.787, 104.1227
1164.269, 105.0453
1164.751, 106.0589
1165.233, 106.0672
1165.715, 104.6773
1166.197, 104.0253
1166.679, 104.2441
1167.161, 104.9027
1167.644, 106.1670
1168.126, 107.1808
1168.608, 107.4095
1169.090, 107.1417
1169.572, 106.6662
1170.054, 106.1269
1170.536, 106.9354
1171.018, 109.2077
1171.500, 109.9597
1171.983, 108.8793
1172.465, 108.2938
1172.947, 109.0412
1173.429, 109.6250
1173.911, 108.6921
1174.393, 107.2608
1174.875, 107.4929
1175.357, 108.8447
1175.839, 109.0403
1176.322, 108.4052
1176.804, 108.6047
1177.286, 109.7498
1177.768, 110.5984
1178.250, 110.5951
1178.732, 110.4308
1179.214, 110.6359
1179.696, 111.2208
1180.179, 112.7758
1180.661, 114.3370
1181.143, 113.8883
1181.625, 112.3474
1182.107, 112.1304
1182.589, 113.4724
1183.071, 114.5912
1183.553, 114.6173
1184.036, 114.3858
1184.518, 114.2743
1185.000, 114.2574
1185.482, 114.2921
1185.964, 114.4328
1186.446, 114.7429
1186.928, 115.2054
1187.410, 115.8966
1187.892, 116.8409
1188.375, 117.2690
1188.857, 116.5252
1189.339, 115.9604
1189.821, 115.6577
1190.303, 115.8281
1190.785, 117.1097
1191.267, 118.4874
1191.749, 118.6844
1192.231, 118.0804
1192.714, 118.2691
1193.196, 119.8081
1193.678, 119.8046
1194.160, 117.2287
1194.642, 116.0361
1195.124, 117.4181
1195.606, 119.1105
1196.088, 119.8939
1196.571, 120.0828
1197.053, 120.0389
1197.535, 119.8450
1198.017, 119.9798
1198.499, 120.4300
1198.981, 120.5875
1199.463, 120.4255
1199.945, 120.1708
1200.427, 119.9132
1200.910, 120.2886
1201.392, 121.8135
1201.874, 123.5030
1202.356, 123.6792
1202.838, 123.1692
1203.320, 124.0558
1203.802, 125.5520
1204.284, 125.5788
1204.766, 124.4510
1205.249, 124.0582
1205.731, 124.8991
1206.213, 125.6789
1206.695, 125.4785
1207.177, 125.2513
1207.659, 125.7033
1208.141, 126.4715
1208.623, 127.6788
1209.106, 128.6881
1209.588, 128.3990
1210.070, 127.2661
1210.552, 126.8324
1211.034, 127.4692
1211.516, 128.2790
1211.998, 129.6145
1212.480, 130.2784
1212.963, 129.1035
1213.445, 128.2148
1213.927, 129.1226
1214.409, 130.5667
1214.891, 131.1544
1215.373, 131.1063
1215.855, 131.4550
1216.337, 132.3981
1216.819, 132.8146
1217.302, 132.5371
1217.784, 132.3579
1218.266, 132.4187
1218.748, 132.7308
1219.230, 133.3566
1219.712, 133.9602
1220.194, 134.0596
1220.676, 133.8695
1221.158, 134.0867
1221.641, 134.6531
1222.123, 135.4173
1222.605, 136.2459
1223.087, 136.4084
1223.569, 135.8631
1224.051, 135.5747
1224.533, 136.0891
1225.015, 136.8752
1225.498, 137.5938
1225.980, 138.1018
1226.462, 138.0488
1226.944, 137.8238
1227.426, 137.9505
1227.908, 138.3162
1228.390, 138.6745
1228.872, 138.9350
1229.354, 138.9102
1229.837, 138.3728
1230.319, 138.0253
1230.801, 137.9714
1231.283, 138.3342
1231.765, 139.8178
1232.247, 141.0952
1232.729, 140.8513
1233.211, 139.8246
1233.693, 139.3209
1234.176, 139.3341
1234.658, 139.6762
1235.140, 140.4426
1235.622, 141.3280
1236.104, 142.5122
1236.586, 143.0446
1237.068, 142.5100
1237.550, 141.8904
1238.033, 141.8756
1238.515, 142.2733
1238.997, 142.8208
1239.479, 143.4756
1239.961, 144.1712
1240.443, 144.8280
1240.925, 144.8695
1241.407, 144.4695
1241.890, 144.7800
1242.372, 145.9959
1242.854, 146.9577
1243.336, 146.9315
1243.818, 146.5535
1244.300, 146.1860
1244.782, 146.0012
1245.264, 146.3118
1245.746, 146.7866
1246.229, 146.9944
1246.711, 147.0589
1247.193, 147.3495
1247.675, 147.8886
1248.157, 148.2151
1248.639, 147.6949
1249.121, 148.0148
1249.603, 150.8581
1250.085, 152.6424
1250.568, 151.5650
1251.050, 149.9184
1251.532, 148.8846
1252.014, 148.5541
1252.496, 149.2477
1252.978, 150.8158
1253.460, 151.5531
1253.942, 151.3895
1254.425, 151.0921
1254.907, 150.6946
1255.389, 150.7247
1255.871, 151.3173
1256.353, 151.7469
1256.835, 151.5285
1257.317, 151.2086
1257.799, 151.6210
1258.281, 152.2672
1258.764, 152.0488
1259.246, 151.5298
1259.728, 151.7554
1260.210, 152.5489
1260.692, 153.5221
1261.174, 154.4100
1261.656, 154.4466
1262.138, 153.0506
1262.620, 152.2951
1263.103, 153.9511
1263.585, 155.3635
1264.067, 155.0003
1264.549, 154.3491
1265.031, 154.4217
1265.513, 154.8831
1265.995, 155.2078
1266.477, 155.4396
1266.960, 155.8979
1267.442, 156.7946
1267.924, 156.9209
1268.406, 155.9776
1268.888, 155.6893
1269.370, 156.4335
1269.852, 157.5009
1270.334, 158.5853
1270.817, 159.3152
1271.299, 159.2465
1271.781, 158.6929
1272.263, 158.0056
1272.745, 157.4647
1273.227, 158.0271
1273.709, 159.2175
##END=



