##NAMES=Beryl
##RRUFFID=R050368
##IDEAL CHEMISTRY=Be_3_Al_2_Si_6_O_18_
##LOCALITY=Wah Wah Mountains, Utah, USA
##OWNER=RRUFF
##SOURCE=Eugene Schlepp
##DESCRIPTION=Red-violet hexagonal prism
##STATUS=The identification of this mineral has been confirmed by X-ray diffraction and chemical analysis
##URL=rruff.info/R050368
##MEASURED CHEMISTRY=(Be_0.99_Li_0.01_)_3_(Al_0.95_Fe^3+^_0.05_)_2_Si_6.00_O_18_Î‡K_0.02_Na_0.01_
92.35352, 73.58963
92.83563, 72.14669
93.31775, 71.53396
93.79987, 72.24819
94.28198, 73.85849
94.76410, 75.12300
95.24622, 75.74643
95.72833, 75.94705
96.21045, 76.00822
96.69257, 75.90617
97.17468, 76.02965
97.65680, 76.89172
98.13892, 78.47786
98.62103, 79.87843
99.10315, 80.72134
99.58527, 81.13715
100.0674, 81.99239
100.5495, 83.35233
101.0316, 84.99327
101.5137, 86.55956
101.9958, 87.93760
102.4780, 89.68092
102.9601, 92.01797
103.4422, 95.03877
103.9243, 98.08346
104.4064, 101.3088
104.8885, 104.4761
105.3707, 107.1263
105.8528, 108.5705
106.3349, 110.4354
106.8170, 113.4108
107.2991, 118.4191
107.7813, 122.7969
108.2634, 126.4703
108.7455, 129.5204
109.2276, 132.0967
109.7097, 133.6794
110.1918, 135.1871
110.6740, 137.0031
111.1561, 139.1090
111.6382, 141.5548
112.1203, 144.5823
112.6024, 148.0896
113.0845, 151.2863
113.5667, 153.1152
114.0488, 155.0944
114.5309, 158.2744
115.0130, 164.0692
115.4951, 169.9483
115.9772, 175.0680
116.4594, 179.4837
116.9415, 184.1516
117.4236, 190.3203
117.9057, 196.6421
118.3878, 201.6541
118.8699, 203.1078
119.3521, 204.4361
119.8342, 207.8628
120.3163, 213.6871
120.7984, 219.8040
121.2805, 225.0928
121.7626, 229.7959
122.2448, 234.3282
122.7269, 239.7963
123.2090, 244.7464
123.6911, 247.4850
124.1732, 247.5166
124.6553, 246.6652
125.1375, 246.2225
125.6196, 246.1886
126.1017, 246.5637
126.5838, 247.2313
127.0659, 248.3305
127.5480, 250.2079
128.0302, 253.1046
128.5123, 256.4081
128.9944, 259.3910
129.4765, 262.0595
129.9586, 264.4721
130.4407, 266.4283
130.9229, 268.0917
131.4050, 270.1185
131.8871, 272.5296
132.3692, 275.4134
132.8513, 279.1053
133.3334, 283.2141
133.8156, 286.2281
134.2977, 287.7863
134.7798, 288.9125
135.2619, 290.2880
135.7440, 292.0549
136.2261, 294.1731
136.7083, 296.8782
137.1904, 300.4736
137.6725, 303.7822
138.1546, 305.8310
138.6367, 306.7137
139.1188, 306.0879
139.6010, 303.8947
140.0831, 300.1656
140.5652, 294.7856
141.0473, 287.2746
141.5294, 278.7358
142.0115, 270.4552
142.4937, 261.8692
142.9758, 254.6057
143.4579, 249.2222
143.9400, 246.0810
144.4221, 243.1077
144.9042, 240.4088
145.3864, 237.7936
145.8685, 234.9987
146.3506, 231.8824
146.8327, 228.7364
147.3148, 225.5913
147.7969, 222.3581
148.2791, 219.3464
148.7612, 216.2469
149.2433, 213.3954
149.7254, 211.5437
150.2075, 211.1825
150.6896, 211.3970
151.1718, 211.9410
151.6539, 214.0308
152.1360, 214.7044
152.6181, 212.6360
153.1002, 208.9245
153.5823, 206.8629
154.0645, 208.4452
154.5466, 210.4083
155.0287, 211.2370
155.5108, 210.0293
155.9929, 208.5897
156.4750, 207.0775
156.9572, 205.5113
157.4393, 204.0071
157.9214, 202.2300
158.4035, 200.7170
158.8856, 199.7952
159.3677, 199.6668
159.8499, 199.9980
160.3320, 200.7199
160.8141, 201.8237
161.2962, 203.3021
161.7783, 205.9235
162.2604, 208.5516
162.7426, 210.2500
163.2247, 210.4423
163.7068, 209.9218
164.1889, 208.4648
164.6710, 206.2082
165.1531, 204.8173
165.6353, 205.9540
166.1174, 208.0975
166.5995, 209.6109
167.0816, 209.3002
167.5637, 208.6223
168.0458, 208.4549
168.5280, 208.8139
169.0101, 209.3830
169.4922, 209.9766
169.9743, 210.6460
170.4564, 211.4612
170.9385, 212.7809
171.4207, 214.0622
171.9028, 214.6423
172.3849, 214.4573
172.8670, 214.4130
173.3491, 215.6667
173.8312, 217.5505
174.3134, 218.7886
174.7955, 218.2523
175.2776, 216.9936
175.7597, 216.1692
176.2418, 215.8332
176.7239, 215.9038
177.2061, 216.4650
177.6882, 217.3941
178.1703, 218.3423
178.6524, 219.2713
179.1345, 220.0911
179.6166, 220.5582
180.0988, 220.6076
180.5809, 220.6056
181.0630, 220.8927
181.5451, 221.4623
182.0272, 222.2784
182.5093, 223.5990
182.9915, 225.1499
183.4736, 226.1245
183.9557, 226.3492
184.4378, 226.4615
184.9199, 227.7128
185.4020, 229.8643
185.8842, 231.3823
186.3663, 230.9806
186.8484, 229.1658
187.3305, 227.7585
187.8126, 226.8925
188.2947, 226.4318
188.7769, 226.1966
189.2590, 226.1851
189.7411, 226.3540
190.2232, 226.6919
190.7053, 227.1954
191.1874, 227.9164
191.6696, 228.9739
192.1517, 230.0497
192.6338, 230.5275
193.1159, 230.3945
193.5980, 230.0421
194.0801, 229.5548
194.5623, 228.9623
195.0444, 228.7118
195.5265, 228.8952
196.0086, 229.3647
196.4907, 230.0647
196.9728, 231.0976
197.4550, 231.5015
197.9371, 230.3062
198.4192, 227.4760
198.9013, 225.3415
199.3834, 224.1917
199.8655, 223.7565
200.3477, 223.4697
200.8298, 223.3784
201.3119, 223.2234
201.7940, 222.7209
202.2761, 221.8040
202.7582, 221.3518
203.2404, 221.5818
203.7225, 222.2217
204.2046, 222.5373
204.6867, 222.5020
205.1688, 222.2417
205.6509, 221.7728
206.1331, 221.0454
206.6152, 220.4679
207.0973, 220.2014
207.5794, 220.0426
208.0615, 219.1874
208.5436, 217.2764
209.0258, 215.6106
209.5079, 215.2463
209.9900, 216.6129
210.4721, 217.2036
210.9542, 216.5780
211.4363, 215.1214
211.9185, 214.1387
212.4006, 213.7474
212.8827, 213.5676
213.3648, 213.4635
213.8469, 213.5651
214.3290, 213.1519
214.8112, 211.7066
215.2933, 209.8082
215.7754, 209.6841
216.2575, 212.0782
216.7396, 214.8449
217.2217, 216.7339
217.7038, 217.5593
218.1860, 218.0067
218.6681, 217.8536
219.1502, 217.3912
219.6323, 217.8450
220.1144, 219.8369
220.5965, 221.6773
221.0787, 222.2169
221.5608, 220.6943
222.0429, 219.9713
222.5250, 220.4049
223.0071, 221.7423
223.4892, 223.1037
223.9714, 224.7025
224.4535, 226.0169
224.9356, 226.6587
225.4177, 226.0914
225.8998, 226.2133
226.3819, 227.5408
226.8641, 229.5729
227.3462, 230.4087
227.8283, 229.2540
228.3104, 228.1120
228.7925, 228.0539
229.2746, 229.5568
229.7568, 231.0800
230.2389, 232.5899
230.7210, 234.0926
231.2031, 235.5746
231.6852, 237.0823
232.1673, 238.4957
232.6495, 239.6634
233.1316, 240.1850
233.6137, 241.4049
234.0958, 243.7000
234.5779, 246.6270
235.0600, 248.9062
235.5422, 250.3835
236.0243, 251.4741
236.5064, 252.3120
236.9885, 252.6902
237.4706, 253.3279
237.9527, 254.5821
238.4349, 255.9918
238.9170, 256.3295
239.3991, 255.0841
239.8812, 253.5283
240.3633, 252.1385
240.8454, 250.8586
241.3276, 249.9320
241.8097, 249.6795
242.2918, 249.6736
242.7739, 248.8039
243.2560, 245.9768
243.7381, 243.9842
244.2203, 244.1146
244.7024, 247.4320
245.1845, 249.8381
245.6666, 250.9103
246.1487, 251.2707
246.6308, 252.1090
247.1130, 253.4933
247.5951, 255.2502
248.0772, 257.2765
248.5593, 259.5105
249.0414, 262.3455
249.5235, 266.2581
250.0057, 270.4632
250.4878, 273.8004
250.9699, 276.3445
251.4520, 277.9019
251.9341, 278.5677
252.4162, 278.5946
252.8984, 276.4342
253.3805, 271.4761
253.8626, 264.7468
254.3447, 257.7421
254.8268, 249.9154
255.3089, 242.7061
255.7911, 236.5642
256.2732, 231.4851
256.7553, 227.2210
257.2374, 223.7682
257.7195, 221.1277
258.2017, 219.3562
258.6838, 218.6720
259.1659, 218.3520
259.6480, 218.4107
260.1301, 218.8890
260.6122, 218.5585
261.0944, 216.9356
261.5765, 215.1006
262.0586, 214.2924
262.5407, 214.9375
263.0228, 215.4185
263.5049, 215.2782
263.9871, 214.5572
264.4692, 214.3363
264.9513, 214.7854
265.4334, 215.4603
265.9155, 215.9288
266.3976, 216.0609
266.8798, 216.4166
267.3619, 217.1931
267.8440, 218.3129
268.3261, 219.0078
268.8082, 219.0487
269.2903, 219.1415
269.7725, 220.0282
270.2546, 221.9938
270.7367, 223.3526
271.2188, 223.7054
271.7009, 223.2925
272.1830, 223.1201
272.6652, 223.2328
273.1473, 223.4651
273.6294, 223.7838
274.1115, 224.2460
274.5936, 224.3983
275.0757, 224.1246
275.5579, 223.5627
276.0400, 223.0487
276.5221, 222.5350
277.0042, 222.2539
277.4863, 222.4477
277.9684, 223.1626
278.4506, 223.6662
278.9327, 223.8312
279.4148, 223.8602
279.8969, 224.2321
280.3790, 225.0008
280.8611, 225.7442
281.3433, 226.1453
281.8254, 226.2124
282.3075, 226.6769
282.7896, 227.6778
283.2717, 228.8309
283.7538, 229.5472
284.2360, 229.8205
284.7181, 229.8575
285.2002, 229.5922
285.6823, 229.0881
286.1644, 228.9333
286.6465, 229.1521
287.1287, 229.6301
287.6108, 230.1836
288.0929, 230.8229
288.5750, 231.7949
289.0571, 233.5496
289.5392, 235.7249
290.0214, 236.7243
290.5035, 236.4578
290.9856, 235.7599
291.4677, 235.2550
291.9498, 234.9854
292.4319, 235.2176
292.9141, 236.0814
293.3962, 237.4702
293.8783, 239.2913
294.3604, 241.5456
294.8425, 243.7968
295.3246, 245.4324
295.8068, 246.7375
296.2889, 248.6442
296.7710, 251.5107
297.2531, 254.9592
297.7352, 258.5129
298.2173, 262.1263
298.6995, 265.5511
299.1816, 267.8561
299.6637, 269.8799
300.1458, 273.4051
300.6279, 278.9879
301.1100, 285.7043
301.5922, 292.5667
302.0743, 299.5797
302.5564, 306.7422
303.0385, 314.0097
303.5206, 321.4660
304.0027, 329.5350
304.4849, 338.3416
304.9670, 347.1291
305.4491, 355.2687
305.9312, 362.7573
306.4133, 369.5898
306.8954, 374.7785
307.3776, 379.8576
307.8597, 386.6712
308.3418, 395.5697
308.8239, 404.2298
309.3060, 410.3233
309.7881, 415.2203
310.2703, 420.8796
310.7524, 427.8861
311.2345, 436.1742
311.7166, 445.8529
312.1987, 456.8900
312.6808, 468.4991
313.1630, 480.1048
313.6451, 492.2053
314.1272, 505.4295
314.6093, 519.1017
315.0914, 534.5767
315.5735, 552.2863
316.0557, 572.2057
316.5378, 594.2257
317.0199, 619.0172
317.5020, 645.3586
317.9841, 672.8954
318.4662, 701.9803
318.9484, 730.7373
319.4305, 761.7403
319.9126, 792.2667
320.3947, 815.1539
320.8768, 832.3480
321.3589, 838.3623
321.8411, 830.4808
322.3232, 807.9882
322.8053, 772.6630
323.2874, 717.7189
323.7695, 651.4318
324.2516, 586.9059
324.7338, 521.1448
325.2159, 462.0274
325.6980, 412.1961
326.1801, 372.2896
326.6622, 338.7177
327.1443, 312.3057
327.6265, 291.3474
328.1086, 274.1182
328.5907, 262.4422
329.0728, 252.5709
329.5549, 244.2474
330.0370, 237.4524
330.5192, 231.4177
331.0013, 225.9483
331.4834, 221.3556
331.9655, 217.8769
332.4476, 216.2274
332.9297, 214.4660
333.4119, 212.4707
333.8940, 210.2509
334.3761, 207.7550
334.8582, 204.5569
335.3403, 201.8352
335.8224, 200.2865
336.3046, 200.3000
336.7867, 200.3535
337.2688, 200.5137
337.7509, 200.6231
338.2330, 200.3062
338.7151, 199.4347
339.1973, 198.5465
339.6794, 197.8439
340.1615, 197.3424
340.6436, 196.8351
341.1257, 196.3002
341.6078, 195.8273
342.0899, 195.6040
342.5721, 195.6656
343.0542, 195.5659
343.5363, 195.0198
344.0184, 194.2248
344.5005, 194.1824
344.9826, 194.9897
345.4648, 195.8486
345.9469, 195.9196
346.4290, 195.3103
346.9111, 194.8724
347.3932, 194.7870
347.8753, 194.9200
348.3575, 195.0579
348.8396, 195.1953
349.3217, 195.3133
349.8038, 195.3596
350.2859, 195.3728
350.7680, 195.4550
351.2502, 195.6227
351.7323, 195.8336
352.2144, 196.1488
352.6965, 196.4914
353.1786, 196.6205
353.6607, 196.3888
354.1429, 195.8945
354.6250, 195.1126
355.1071, 194.0312
355.5892, 193.1684
356.0713, 193.0787
356.5534, 193.4364
357.0356, 193.7545
357.5177, 193.5715
357.9998, 193.5298
358.4819, 194.1825
358.9640, 195.4361
359.4461, 196.7624
359.9283, 198.0640
360.4104, 199.2219
360.8925, 200.0956
361.3746, 200.4201
361.8567, 200.8569
362.3388, 201.9685
362.8210, 203.3900
363.3031, 204.3223
363.7852, 203.5956
364.2673, 203.0568
364.7494, 203.7554
365.2315, 206.2440
365.7137, 208.3340
366.1958, 209.1544
366.6779, 209.4894
367.1600, 210.2688
367.6421, 211.9940
368.1242, 213.7600
368.6064, 215.3244
369.0885, 216.6716
369.5706, 218.2727
370.0527, 220.1303
370.5348, 222.2493
371.0169, 224.6761
371.4991, 227.5310
371.9812, 230.4391
372.4633, 233.2903
372.9454, 236.1955
373.4275, 239.4099
373.9096, 242.7487
374.3918, 246.7914
374.8739, 251.7451
375.3560, 257.7427
375.8381, 264.2470
376.3202, 271.1144
376.8023, 278.5718
377.2845, 287.1618
377.7666, 297.0192
378.2487, 306.9269
378.7308, 316.3578
379.2129, 325.4383
379.6950, 334.1170
380.1772, 342.4482
380.6593, 350.4623
381.1414, 358.7899
381.6235, 367.1695
382.1056, 373.6121
382.5877, 377.0312
383.0699, 379.1445
383.5520, 383.3642
384.0341, 389.5332
384.5162, 395.6454
384.9983, 399.0096
385.4804, 401.6392
385.9626, 408.2089
386.4447, 419.5081
386.9268, 432.9648
387.4089, 446.0302
387.8910, 459.2996
388.3731, 473.8160
388.8553, 490.1726
389.3374, 507.9473
389.8195, 526.5637
390.3016, 545.8003
390.7837, 566.3297
391.2658, 590.1843
391.7480, 614.6119
392.2301, 636.9077
392.7122, 657.3057
393.1943, 674.1041
393.6764, 687.2954
394.1585, 696.2830
394.6407, 699.1849
395.1228, 697.3075
395.6049, 687.8637
396.0870, 668.3410
396.5691, 636.2082
397.0512, 601.6094
397.5334, 564.2902
398.0155, 526.0794
398.4976, 489.7697
398.9797, 453.5985
399.4618, 421.1725
399.9439, 393.3904
400.4261, 370.2389
400.9082, 349.6071
401.3903, 331.4335
401.8724, 315.8283
402.3545, 302.9997
402.8366, 294.0255
403.3188, 285.7610
403.8009, 278.0200
404.2830, 270.8968
404.7651, 264.5981
405.2472, 259.1815
405.7293, 254.6066
406.2115, 251.0088
406.6936, 248.4438
407.1757, 245.8561
407.6578, 243.0833
408.1399, 240.7206
408.6220, 239.7785
409.1042, 240.2166
409.5863, 240.0645
410.0684, 238.4646
410.5505, 236.2110
411.0326, 235.3244
411.5147, 235.7596
411.9969, 236.1939
412.4790, 235.2617
412.9611, 233.6495
413.4432, 233.1687
413.9253, 234.2623
414.4074, 235.6909
414.8896, 236.2812
415.3717, 236.1857
415.8538, 235.7466
416.3359, 234.6929
416.8180, 233.6486
417.3001, 233.2574
417.7823, 233.5105
418.2644, 233.8818
418.7465, 234.0941
419.2286, 234.2630
419.7107, 234.5302
420.1928, 235.3535
420.6750, 235.7081
421.1571, 235.0332
421.6392, 233.5779
422.1213, 232.0034
422.6034, 229.9031
423.0855, 228.2227
423.5677, 227.3789
424.0498, 227.5633
424.5319, 228.0485
425.0140, 229.3652
425.4961, 230.6905
425.9782, 231.1540
426.4604, 229.7614
426.9425, 228.9804
427.4246, 229.3252
427.9067, 230.6374
428.3888, 231.7618
428.8709, 232.5615
429.3531, 233.4128
429.8352, 234.6136
430.3173, 236.2740
430.7994, 237.5721
431.2815, 238.3457
431.7636, 238.9664
432.2458, 240.0830
432.7279, 241.7260
433.2100, 243.2903
433.6921, 244.4593
434.1742, 245.4018
434.6563, 246.5173
435.1385, 247.7972
435.6206, 249.7802
436.1027, 253.5237
436.5848, 258.3540
437.0669, 262.4169
437.5490, 265.2947
438.0312, 267.5078
438.5133, 269.2580
438.9954, 270.8043
439.4775, 272.8616
439.9596, 276.3312
440.4417, 280.1441
440.9239, 283.2865
441.4060, 285.7023
441.8881, 288.0940
442.3702, 291.5613
442.8523, 294.8503
443.3344, 296.7734
443.8166, 296.5031
444.2987, 295.4155
444.7808, 293.5513
445.2629, 291.1360
445.7450, 288.8168
446.2271, 287.2330
446.7093, 285.3730
447.1914, 282.6628
447.6735, 278.5555
448.1556, 275.3908
448.6377, 274.3665
449.1198, 273.5096
449.6020, 270.6568
450.0841, 264.6578
450.5662, 259.1965
451.0483, 254.8484
451.5304, 251.4447
452.0125, 248.3870
452.4947, 245.7185
452.9768, 243.1844
453.4589, 240.5038
453.9410, 237.6409
454.4231, 235.4121
454.9052, 233.8534
455.3874, 232.7513
455.8695, 231.9019
456.3516, 231.2794
456.8337, 230.7399
457.3158, 230.2957
457.7979, 229.8490
458.2801, 229.2223
458.7622, 228.4297
459.2443, 227.5352
459.7264, 226.4155
460.2085, 225.2962
460.6906, 224.4537
461.1728, 223.9090
461.6549, 223.7441
462.1370, 224.5473
462.6191, 225.6641
463.1012, 226.1132
463.5833, 224.1905
464.0655, 222.7698
464.5476, 224.0773
465.0297, 227.6332
465.5118, 229.3151
465.9939, 225.8746
466.4760, 221.7893
466.9582, 219.5424
467.4403, 220.3847
467.9224, 221.1505
468.4045, 221.7478
468.8866, 222.2305
469.3687, 222.6559
469.8509, 222.8622
470.3330, 223.3285
470.8151, 224.3873
471.2972, 225.9117
471.7793, 226.3924
472.2614, 225.4861
472.7436, 224.4913
473.2257, 224.2264
473.7078, 224.6979
474.1899, 225.8978
474.6720, 228.0840
475.1541, 230.3017
475.6363, 230.7935
476.1184, 229.8472
476.6005, 229.3239
477.0826, 230.2644
477.5647, 231.8962
478.0468, 233.1066
478.5290, 233.8931
479.0111, 234.2322
479.4932, 233.5074
479.9753, 232.5841
480.4574, 232.6692
480.9395, 234.3412
481.4217, 235.8192
481.9038, 235.4461
482.3859, 234.2922
482.8680, 233.9355
483.3501, 235.7474
483.8322, 237.6126
484.3144, 238.5689
484.7965, 238.6812
485.2786, 239.3382
485.7607, 241.7279
486.2428, 243.9164
486.7249, 244.8347
487.2071, 243.4170
487.6892, 243.0595
488.1713, 244.4930
488.6534, 246.4788
489.1355, 247.1371
489.6176, 245.9921
490.0998, 244.9071
490.5819, 244.2351
491.0640, 243.9813
491.5461, 244.1637
492.0282, 244.7866
492.5103, 245.8334
492.9925, 247.6740
493.4746, 250.0599
493.9567, 251.4893
494.4388, 251.7935
494.9209, 251.5844
495.4030, 251.1000
495.8852, 250.6317
496.3673, 250.9458
496.8494, 252.8881
497.3315, 255.1877
497.8136, 256.5698
498.2957, 257.2311
498.7779, 257.9337
499.2600, 259.3956
499.7421, 260.8326
500.2242, 261.4056
500.7063, 260.6070
501.1884, 260.8600
501.6706, 264.1326
502.1527, 268.2653
502.6348, 271.0244
503.1169, 271.7897
503.5990, 271.5377
504.0811, 269.6731
504.5633, 266.8112
505.0454, 265.2993
505.5275, 265.9434
506.0096, 266.5781
506.4917, 266.0590
506.9738, 264.1607
507.4560, 264.0041
507.9381, 265.9814
508.4202, 268.6367
508.9023, 270.3670
509.3844, 271.2490
509.8665, 272.7448
510.3487, 275.3836
510.8308, 278.2818
511.3129, 279.8544
511.7950, 280.3194
512.2772, 280.6886
512.7593, 281.0772
513.2414, 281.8865
513.7235, 283.8675
514.2056, 286.9760
514.6877, 290.0759
515.1699, 292.4435
515.6520, 294.4659
516.1341, 296.3771
516.6162, 297.6906
517.0983, 299.9614
517.5804, 305.0312
518.0626, 311.1298
518.5447, 315.3552
519.0268, 314.3669
519.5089, 314.5679
519.9910, 318.0806
520.4731, 324.6124
520.9553, 329.2952
521.4374, 331.0553
521.9195, 332.5005
522.4016, 335.2907
522.8837, 339.8762
523.3658, 343.2747
523.8480, 345.3082
524.3301, 346.4982
524.8122, 347.4724
525.2943, 348.2233
525.7764, 348.6712
526.2585, 349.0369
526.7407, 348.8102
527.2228, 346.7954
527.7049, 343.1857
528.1870, 339.1982
528.6691, 335.6229
529.1512, 331.9948
529.6334, 327.5803
530.1155, 322.2587
530.5976, 317.1268
531.0797, 312.6685
531.5618, 308.7263
532.0439, 305.2501
532.5261, 302.9188
533.0082, 299.9887
533.4903, 295.1553
533.9724, 289.4682
534.4545, 285.0672
534.9366, 283.2725
535.4188, 281.5223
535.9009, 279.1948
536.3830, 276.3140
536.8651, 273.8325
537.3472, 271.8374
537.8293, 270.0878
538.3115, 268.4745
538.7936, 267.0105
539.2757, 265.6118
539.7578, 264.2702
540.2399, 263.0417
540.7220, 262.0380
541.2042, 261.2313
541.6863, 260.3599
542.1684, 259.1630
542.6505, 258.0612
543.1326, 258.0612
543.6147, 258.8008
544.0969, 258.8902
544.5790, 256.8024
545.0611, 254.1947
545.5432, 252.4839
546.0253, 251.8299
546.5074, 251.2284
546.9896, 250.0712
547.4717, 248.9058
547.9538, 248.1759
548.4359, 248.1277
548.9180, 248.2957
549.4001, 248.9585
549.8823, 249.7220
550.3644, 249.8553
550.8465, 248.8947
551.3286, 248.2022
551.8107, 248.2534
552.2928, 248.8978
552.7750, 248.9162
553.2571, 248.1686
553.7392, 247.4890
554.2213, 247.5386
554.7034, 248.1730
555.1855, 248.4375
555.6677, 248.2131
556.1498, 248.1638
556.6319, 249.2690
557.1140, 251.0370
557.5961, 252.4522
558.0782, 253.1769
558.5604, 253.5382
559.0425, 253.6713
559.5246, 253.6380
560.0067, 253.5741
560.4888, 253.0043
560.9709, 252.8988
561.4531, 254.0534
561.9352, 256.4780
562.4173, 258.2345
562.8994, 258.5230
563.3815, 258.5150
563.8636, 258.8487
564.3458, 259.8796
564.8279, 260.2086
565.3100, 259.4611
565.7921, 258.4917
566.2742, 258.4218
566.7563, 259.3180
567.2385, 260.4760
567.7206, 261.7997
568.2027, 263.2312
568.6848, 264.5563
569.1669, 265.8136
569.6490, 267.1609
570.1312, 268.6568
570.6133, 270.3256
571.0954, 272.4646
571.5775, 275.0339
572.0596, 276.9857
572.5417, 276.9985
573.0239, 276.5074
573.5060, 276.7857
573.9881, 278.2893
574.4702, 279.9340
574.9523, 281.0898
575.4344, 282.3442
575.9166, 284.4390
576.3987, 288.9036
576.8808, 292.2403
577.3629, 293.5406
577.8450, 293.5211
578.3271, 294.6570
578.8093, 297.3278
579.2914, 299.9993
579.7735, 301.9412
580.2556, 303.2575
580.7377, 305.1580
581.2198, 307.7083
581.7020, 309.9743
582.1841, 310.7002
582.6662, 310.5890
583.1483, 311.3735
583.6304, 313.3287
584.1125, 315.8648
584.5947, 319.1785
585.0768, 322.5536
585.5589, 324.9145
586.0410, 324.5181
586.5231, 324.5984
587.0052, 326.9973
587.4873, 330.9467
587.9694, 334.3246
588.4515, 336.4653
588.9337, 338.2924
589.4158, 340.1103
589.8979, 341.9231
590.3800, 343.3094
590.8621, 344.1861
591.3442, 344.7778
591.8264, 345.1133
592.3085, 345.1562
592.7906, 345.3951
593.2727, 345.7982
593.7548, 346.5459
594.2369, 348.3214
594.7191, 350.7282
595.2012, 352.1644
595.6833, 352.0287
596.1654, 351.2100
596.6475, 350.6268
597.1296, 350.1227
597.6118, 349.3225
598.0939, 347.1629
598.5760, 345.4678
599.0581, 345.7572
599.5402, 347.7741
600.0223, 348.9948
600.5045, 348.3337
600.9866, 347.2065
601.4687, 346.1852
601.9508, 345.2377
602.4329, 344.6256
602.9150, 344.6168
603.3972, 344.5770
603.8793, 343.7494
604.3614, 341.9913
604.8435, 340.9871
605.3256, 341.1139
605.8077, 341.6346
606.2899, 341.4074
606.7720, 340.5420
607.2541, 339.5570
607.7362, 338.4621
608.2183, 337.5240
608.7004, 336.9360
609.1826, 336.7520
609.6647, 337.1815
610.1468, 339.2455
610.6289, 341.2244
611.1110, 341.8493
611.5931, 341.0193
612.0753, 340.4960
612.5574, 340.3360
613.0395, 340.8354
613.5216, 342.2807
614.0037, 345.4707
614.4858, 347.5377
614.9680, 348.1651
615.4501, 348.0945
615.9322, 348.0722
616.4143, 348.0807
616.8964, 348.4630
617.3785, 349.4482
617.8607, 350.5157
618.3428, 350.5505
618.8249, 349.8039
619.3070, 349.3338
619.7891, 350.3105
620.2712, 351.3217
620.7534, 350.8793
621.2355, 349.1832
621.7176, 347.1563
622.1997, 344.9576
622.6818, 342.8015
623.1639, 340.8646
623.6461, 339.2311
624.1282, 337.3303
624.6103, 334.7938
625.0924, 332.2401
625.5745, 330.0204
626.0566, 328.0585
626.5388, 326.6084
627.0209, 325.7794
627.5030, 325.2956
627.9851, 324.7667
628.4672, 324.2071
628.9493, 323.9018
629.4315, 323.9259
629.9136, 324.2144
630.3957, 324.6750
630.8778, 325.3156
631.3599, 326.1597
631.8420, 327.6864
632.3242, 329.0476
632.8063, 329.2462
633.2884, 328.5563
633.7705, 328.5004
634.2526, 330.7263
634.7347, 332.7570
635.2169, 333.0180
635.6990, 330.9085
636.1811, 330.5225
636.6632, 332.8223
637.1453, 335.6343
637.6274, 337.3116
638.1096, 337.6414
638.5917, 338.4555
639.0738, 339.9693
639.5559, 341.6048
640.0380, 342.5989
640.5201, 343.0800
641.0023, 343.5871
641.4844, 344.2593
641.9665, 345.0214
642.4486, 345.8799
642.9307, 346.7840
643.4128, 347.6069
643.8950, 348.1680
644.3771, 348.7763
644.8592, 349.7325
645.3413, 350.9237
645.8234, 351.7778
646.3055, 351.5627
646.7877, 351.6673
647.2698, 352.7350
647.7519, 354.8337
648.2340, 356.0079
648.7161, 355.9791
649.1982, 355.7798
649.6804, 355.9963
650.1625, 356.6451
650.6446, 358.1150
651.1267, 360.5187
651.6088, 362.9150
652.0909, 364.0659
652.5731, 364.5566
653.0552, 365.4380
653.5373, 367.0165
654.0194, 368.8965
654.5015, 370.7418
654.9836, 372.7918
655.4658, 375.4047
655.9479, 378.4845
656.4300, 382.3530
656.9121, 387.3903
657.3942, 393.2969
657.8763, 399.2737
658.3585, 405.3563
658.8406, 411.4409
659.3227, 417.1496
659.8048, 422.8609
660.2869, 430.6497
660.7690, 440.5804
661.2512, 450.6563
661.7333, 458.4039
662.2154, 465.6614
662.6975, 476.2794
663.1796, 490.3123
663.6617, 505.1118
664.1439, 517.9678
664.6260, 531.2860
665.1081, 547.3791
665.5902, 566.9200
666.0723, 587.6595
666.5544, 609.6259
667.0366, 632.2497
667.5187, 654.9300
668.0008, 676.9834
668.4829, 700.6877
668.9650, 726.3582
669.4471, 753.2247
669.9293, 780.7946
670.4114, 809.0970
670.8935, 836.0670
671.3756, 860.2358
671.8577, 884.2958
672.3398, 913.0706
672.8220, 946.0643
673.3041, 981.0332
673.7862, 1015.204
674.2683, 1052.239
674.7504, 1095.089
675.2325, 1143.406
675.7147, 1193.983
676.1968, 1245.959
676.6789, 1300.794
677.1610, 1358.179
677.6431, 1418.469
678.1252, 1481.794
678.6074, 1549.607
679.0895, 1616.764
679.5716, 1680.934
680.0537, 1742.628
680.5358, 1795.577
681.0179, 1840.055
681.5001, 1872.017
681.9822, 1891.546
682.4643, 1894.486
682.9464, 1870.703
683.4285, 1816.236
683.9106, 1743.489
684.3928, 1652.327
684.8749, 1550.883
685.3570, 1447.804
685.8391, 1337.253
686.3212, 1234.067
686.8033, 1138.779
687.2855, 1052.013
687.7676, 975.3201
688.2497, 908.6325
688.7318, 850.2549
689.2139, 800.2709
689.6960, 757.2133
690.1782, 719.0323
690.6603, 685.6608
691.1424, 655.9468
691.6245, 629.2333
692.1066, 605.5079
692.5887, 585.4385
693.0709, 568.6371
693.5530, 553.3899
694.0351, 539.2953
694.5172, 526.2303
694.9993, 514.2147
695.4814, 503.2498
695.9636, 492.9205
696.4457, 483.2713
696.9278, 474.1113
697.4099, 465.1537
697.8920, 456.1481
698.3741, 449.3272
698.8563, 445.2183
699.3384, 441.6727
699.8205, 436.6232
700.3026, 430.4646
700.7847, 424.7753
701.2668, 419.7147
701.7490, 415.1846
702.2311, 411.4203
702.7132, 408.0157
703.1953, 404.3153
703.6774, 399.6914
704.1595, 395.7286
704.6417, 393.5930
705.1238, 392.2355
705.6059, 390.2003
706.0880, 386.6190
706.5701, 383.6616
707.0522, 381.7768
707.5344, 380.4341
708.0165, 378.5753
708.4986, 376.1854
708.9807, 373.5914
709.4628, 370.7076
709.9449, 367.9030
710.4271, 365.7818
710.9092, 364.3370
711.3913, 363.4653
711.8734, 363.7484
712.3555, 364.0659
712.8376, 363.5344
713.3198, 362.2963
713.8019, 361.1382
714.2840, 360.3796
714.7661, 359.6178
715.2482, 358.5553
715.7303, 357.2240
716.2125, 356.7723
716.6946, 357.6378
717.1767, 358.1776
717.6588, 357.1414
718.1409, 354.7931
718.6230, 353.1211
719.1052, 352.1091
719.5873, 351.7881
720.0694, 352.7914
720.5515, 354.1867
721.0336, 354.6662
721.5157, 353.9671
721.9979, 353.3067
722.4800, 353.4001
722.9621, 353.6664
723.4442, 353.5753
723.9263, 352.5480
724.4084, 352.4040
724.8906, 353.7037
725.3727, 355.2241
725.8548, 355.6253
726.3369, 354.8212
726.8190, 354.2084
727.3011, 353.9463
727.7833, 353.9219
728.2654, 354.1750
728.7475, 354.5478
729.2296, 354.5938
729.7117, 353.9111
730.1938, 353.4583
730.6760, 354.0700
731.1581, 355.2907
731.6402, 356.4254
732.1223, 357.7052
732.6044, 358.3566
733.0865, 357.7737
733.5687, 356.7043
734.0508, 356.8533
734.5329, 358.5800
735.0150, 360.0443
735.4971, 360.7319
735.9792, 360.9211
736.4614, 361.1590
736.9435, 361.4413
737.4256, 361.7439
737.9077, 361.8781
738.3898, 362.1642
738.8719, 363.1341
739.3541, 364.5512
739.8362, 365.5729
740.3183, 365.2056
740.8004, 365.0712
741.2825, 366.0498
741.7646, 367.9600
742.2468, 369.2556
742.7289, 369.7419
743.2110, 370.0808
743.6931, 370.5129
744.1752, 371.0452
744.6573, 371.6913
745.1395, 372.4495
745.6216, 373.4400
746.1037, 375.0069
746.5858, 376.7048
747.0679, 378.0329
747.5500, 378.9673
748.0322, 379.4979
748.5143, 379.2964
748.9964, 378.9474
749.4785, 378.7731
749.9606, 378.7960
750.4427, 378.9506
750.9249, 379.0486
751.4070, 379.5920
751.8891, 381.1546
752.3712, 383.7246
752.8533, 385.7721
753.3354, 387.2690
753.8176, 388.2959
754.2997, 388.3530
754.7818, 388.2058
755.2639, 389.1498
755.7460, 391.5005
756.2281, 394.1275
756.7103, 396.9228
757.1924, 399.4294
757.6745, 401.1610
758.1566, 401.4403
758.6387, 402.1953
759.1208, 403.6568
759.6030, 405.3223
760.0851, 406.5684
760.5672, 407.3744
761.0493, 408.6901
761.5314, 410.6808
762.0135, 412.9187
762.4957, 415.0057
762.9778, 416.9380
763.4599, 418.7245
763.9420, 420.3058
764.4241, 421.8555
764.9063, 423.4177
765.3884, 425.0235
765.8705, 426.7148
766.3526, 428.7391
766.8347, 430.5234
767.3168, 432.1902
767.7990, 433.4993
768.2811, 434.0145
768.7632, 433.7073
769.2453, 433.2902
769.7274, 433.0217
770.2095, 432.4183
770.6917, 430.1748
771.1738, 427.1249
771.6559, 425.1620
772.1380, 426.0532
772.6201, 426.6658
773.1022, 424.6528
773.5844, 421.3823
774.0665, 419.3096
774.5486, 419.6399
775.0307, 419.9261
775.5128, 420.1263
775.9949, 419.9449
776.4771, 418.3150
776.9592, 415.1450
777.4413, 413.0217
777.9234, 412.9810
778.4055, 413.8935
778.8876, 414.3509
779.3698, 414.3649
779.8519, 413.9601
780.3340, 412.4833
780.8161, 411.2826
781.2982, 411.2375
781.7803, 411.9387
782.2625, 412.2606
782.7446, 411.8254
783.2267, 411.4907
783.7088, 411.4236
784.1909, 411.5632
784.6730, 411.8700
785.1552, 412.3395
785.6373, 412.3929
786.1194, 411.5722
786.6015, 410.4699
787.0836, 409.9140
787.5657, 409.7961
788.0479, 409.8265
788.5300, 409.8537
789.0121, 410.0175
789.4942, 410.4232
789.9763, 411.0239
790.4584, 411.6275
790.9406, 412.2267
791.4227, 412.8451
791.9048, 413.6068
792.3869, 414.3216
792.8690, 414.1155
793.3511, 413.0692
793.8333, 412.4486
794.3154, 413.0626
794.7975, 414.2369
795.2796, 415.2590
795.7617, 416.1735
796.2438, 417.0652
796.7260, 418.3112
797.2081, 419.2115
797.6902, 419.1403
798.1723, 418.4448
798.6544, 418.5802
799.1365, 420.0243
799.6187, 420.9462
800.1008, 420.3289
800.5829, 419.0345
801.0650, 420.3232
801.5471, 423.6968
802.0292, 425.9723
802.5114, 423.8640
802.9935, 421.1114
803.4756, 421.3390
803.9577, 423.8419
804.4398, 426.2262
804.9219, 428.2484
805.4041, 429.5002
805.8862, 429.7233
806.3683, 429.1200
806.8504, 428.3035
807.3325, 427.0425
807.8146, 426.7990
808.2968, 428.6541
808.7789, 431.4247
809.2610, 432.1688
809.7431, 431.3695
810.2252, 430.9932
810.7073, 432.4592
811.1895, 434.3241
811.6716, 436.0866
812.1537, 437.5639
812.6358, 438.1122
813.1179, 436.3549
813.6000, 435.4698
814.0822, 436.5140
814.5643, 438.8502
815.0464, 439.9659
815.5285, 439.8273
816.0106, 440.2159
816.4927, 442.5381
816.9749, 445.0898
817.4570, 444.6306
817.9391, 442.1822
818.4212, 440.6772
818.9033, 442.4799
819.3854, 444.4171
819.8676, 444.9514
820.3497, 444.5545
820.8318, 444.8950
821.3139, 446.1378
821.7960, 447.8280
822.2781, 450.3097
822.7603, 452.7278
823.2424, 452.6205
823.7245, 450.3725
824.2066, 448.4743
824.6887, 447.9034
825.1708, 448.1247
825.6530, 448.7373
826.1351, 449.7646
826.6172, 451.2208
827.0993, 454.5315
827.5814, 456.4966
828.0635, 455.7327
828.5457, 453.6639
829.0278, 453.3833
829.5099, 455.1820
829.9920, 456.9005
830.4741, 458.0529
830.9562, 458.8041
831.4384, 459.1203
831.9205, 459.2580
832.4026, 459.8957
832.8847, 461.6569
833.3668, 463.4378
833.8489, 464.9513
834.3311, 466.0383
834.8132, 466.3279
835.2953, 465.0610
835.7774, 464.4513
836.2595, 464.7193
836.7416, 465.7367
837.2238, 467.8012
837.7059, 470.7158
838.1880, 472.2793
838.6701, 471.6613
839.1522, 470.6756
839.6343, 471.4676
840.1165, 472.9753
840.5986, 473.5829
841.0807, 471.5552
841.5628, 470.7980
842.0449, 473.1232
842.5270, 476.3524
843.0092, 478.3226
843.4913, 478.8075
843.9734, 479.2327
844.4555, 479.6458
844.9376, 480.3127
845.4197, 481.9721
845.9019, 484.0386
846.3840, 485.1884
846.8661, 484.9901
847.3482, 484.7730
847.8303, 485.3489
848.3124, 486.2138
848.7946, 486.8958
849.2767, 487.1754
849.7588, 487.7703
850.2409, 488.7962
850.7230, 489.9136
851.2051, 491.0062
851.6873, 491.9755
852.1694, 491.9030
852.6515, 490.6639
853.1336, 489.9446
853.6157, 491.6707
854.0978, 494.2347
854.5800, 495.9995
855.0621, 496.6354
855.5442, 497.6938
856.0263, 500.4592
856.5084, 502.6597
856.9905, 502.7634
857.4727, 500.7709
857.9548, 500.8414
858.4369, 503.1554
858.9190, 505.6654
859.4011, 506.7283
859.8832, 507.2010
860.3654, 508.7053
860.8475, 511.0978
861.3296, 512.8051
861.8117, 512.2582
862.2938, 511.6710
862.7759, 512.3033
863.2581, 513.9615
863.7402, 515.0824
864.2223, 515.3271
864.7044, 516.2341
865.1865, 518.9638
865.6686, 522.4365
866.1508, 523.1315
866.6329, 521.7959
867.1150, 521.6408
867.5971, 526.1920
868.0792, 530.6354
868.5613, 531.1602
869.0435, 529.2175
869.5256, 529.5480
870.0077, 534.3380
870.4898, 537.9647
870.9719, 539.1014
871.4540, 538.8400
871.9362, 539.5777
872.4183, 541.1974
872.9004, 542.7482
873.3825, 543.8912
873.8646, 544.9673
874.3467, 545.9935
874.8289, 547.2693
875.3110, 549.2400
875.7931, 553.0472
876.2752, 556.1264
876.7573, 557.9720
877.2394, 559.2925
877.7216, 560.9235
878.2037, 562.8755
878.6858, 564.8109
879.1679, 566.6781
879.6500, 568.6188
880.1321, 571.1597
880.6143, 573.7557
881.0964, 575.5438
881.5785, 576.2360
882.0606, 576.7525
882.5427, 577.2751
883.0248, 577.8507
883.5070, 578.4435
883.9891, 578.9785
884.4712, 580.0861
884.9533, 581.8441
885.4354, 583.7104
885.9175, 585.2595
886.3997, 586.6044
886.8818, 587.7911
887.3639, 588.8736
887.8460, 590.3971
888.3281, 593.6721
888.8102, 596.5281
889.2924, 597.0196
889.7745, 595.4095
890.2566, 596.3146
890.7387, 600.7936
891.2208, 604.5608
891.7029, 605.6624
892.1851, 604.9749
892.6672, 604.3070
893.1493, 603.8126
893.6314, 604.1438
894.1135, 606.4951
894.5956, 608.9072
895.0778, 609.7250
895.5599, 609.8033
896.0420, 611.4580
896.5241, 616.0642
897.0062, 619.4626
897.4883, 620.4819
897.9705, 620.6746
898.4526, 623.1013
898.9347, 627.2742
899.4168, 630.9647
899.8989, 633.6877
900.3810, 635.6700
900.8632, 635.9344
901.3453, 636.1404
901.8274, 638.3514
902.3095, 645.2003
902.7916, 649.6329
903.2737, 650.2434
903.7559, 650.4857
904.2380, 653.8678
904.7201, 660.0148
905.2022, 664.9655
905.6843, 668.4008
906.1664, 671.8202
906.6486, 677.0743
907.1307, 682.3527
907.6128, 685.7598
908.0949, 686.9852
908.5770, 688.7100
909.0591, 691.2187
909.5413, 694.4592
910.0234, 698.7624
910.5055, 703.8276
910.9876, 707.5308
911.4697, 709.9510
911.9518, 712.5164
912.4340, 716.4058
912.9161, 720.5380
913.3982, 723.9977
913.8803, 726.7575
914.3624, 728.7030
914.8445, 729.2996
915.3267, 729.6631
915.8088, 729.9600
916.2909, 730.1454
916.7730, 730.3997
917.2551, 730.6864
917.7372, 729.5911
918.2194, 726.5243
918.7015, 722.8473
919.1836, 720.3870
919.6657, 718.1125
920.1478, 714.4220
920.6299, 707.6370
921.1121, 702.3280
921.5942, 699.5663
922.0763, 697.8427
922.5584, 696.1455
923.0405, 694.4849
923.5226, 692.5244
924.0048, 690.2430
924.4869, 688.0101
924.9690, 686.4064
925.4511, 684.8029
925.9332, 681.8544
926.4153, 677.6415
926.8975, 675.3604
927.3796, 678.2336
927.8617, 680.5733
928.3438, 680.1927
928.8259, 677.7444
929.3080, 676.8802
929.7902, 677.5580
930.2723, 677.6448
930.7544, 675.6591
931.2365, 673.2611
931.7186, 672.6239
932.2007, 673.0145
932.6829, 672.9244
933.1650, 671.1849
933.6471, 669.8789
934.1292, 669.0432
934.6113, 668.9718
935.0934, 670.6677
935.5756, 674.1122
936.0577, 675.6255
936.5398, 674.5054
937.0219, 672.6770
937.5040, 671.4050
937.9861, 670.8269
938.4683, 671.3558
938.9504, 673.3603
939.4325, 674.7806
939.9146, 674.6100
940.3967, 674.6434
940.8788, 676.2036
941.3610, 679.0468
941.8431, 679.7714
942.3252, 678.4507
942.8073, 677.0619
943.2894, 676.4985
943.7715, 676.7549
944.2537, 678.4511
944.7358, 681.0714
945.2179, 682.7594
945.7000, 682.2365
946.1821, 681.9330
946.6642, 682.2049
947.1464, 682.9748
947.6285, 684.3386
948.1106, 686.1686
948.5927, 687.4100
949.0748, 687.7279
949.5569, 687.6258
950.0391, 686.7645
950.5212, 686.1246
951.0033, 686.9226
951.4854, 690.1573
951.9675, 693.0764
952.4496, 695.7276
952.9318, 697.8860
953.4139, 699.1033
953.8960, 699.5978
954.3781, 700.7097
954.8602, 702.4254
955.3423, 704.2689
955.8245, 706.2103
956.3066, 707.9091
956.7887, 709.0981
957.2708, 709.7950
957.7529, 710.2512
958.2350, 710.3094
958.7172, 710.5518
959.1993, 711.1376
959.6814, 712.0112
960.1635, 712.8865
960.6456, 713.9259
961.1277, 715.7956
961.6099, 719.4999
962.0920, 722.4822
962.5741, 722.1902
963.0562, 721.0098
963.5383, 721.7997
964.0204, 725.7259
964.5026, 728.2865
964.9847, 729.1063
965.4668, 729.7172
965.9489, 731.7039
966.4310, 734.4308
966.9131, 736.7069
967.3953, 738.4499
967.8774, 739.9305
968.3595, 740.2571
968.8416, 741.3903
969.3237, 744.9572
969.8058, 750.1735
970.2880, 753.4100
970.7701, 754.5076
971.2522, 755.0697
971.7343, 755.3846
972.2164, 755.8810
972.6985, 757.3669
973.1807, 759.4623
973.6628, 761.4221
974.1449, 762.9982
974.6270, 764.4825
975.1091, 765.7158
975.5912, 767.0946
976.0734, 769.1439
976.5555, 771.8831
977.0376, 774.0409
977.5197, 775.5089
978.0018, 776.9507
978.4839, 778.9677
978.9661, 781.2145
979.4482, 783.2634
979.9303, 785.1305
980.4124, 787.4440
980.8945, 790.4438
981.3766, 793.7831
981.8588, 797.7147
982.3409, 801.6862
982.8230, 803.6992
983.3051, 804.1674
983.7872, 805.2943
984.2693, 807.9991
984.7515, 811.3096
985.2336, 815.0223
985.7157, 818.7187
986.1978, 821.7758
986.6799, 823.5983
987.1620, 826.2664
987.6442, 830.1761
988.1263, 833.8156
988.6084, 834.6948
989.0905, 834.5027
989.5726, 837.8204
990.0547, 844.5823
990.5369, 851.4122
991.0190, 857.3015
991.5011, 862.0793
991.9832, 865.0356
992.4653, 866.8436
992.9474, 869.7075
993.4296, 873.5897
993.9117, 878.8221
994.3938, 885.8698
994.8759, 893.4899
995.3580, 900.1922
995.8401, 906.2307
996.3223, 912.2367
996.8044, 918.4478
997.2865, 924.4423
997.7686, 930.2528
998.2507, 935.7956
998.7328, 940.9878
999.2150, 945.7988
999.6971, 950.4149
1000.179, 954.7855
1000.661, 959.4254
1001.143, 964.7235
1001.626, 970.3777
1002.108, 976.3255
1002.590, 982.4743
1003.072, 988.8071
1003.554, 995.7296
1004.036, 1001.412
1004.518, 1004.899
1005.000, 1007.945
1005.482, 1014.379
1005.965, 1022.680
1006.447, 1028.524
1006.929, 1030.504
1007.411, 1031.603
1007.893, 1032.798
1008.375, 1034.066
1008.857, 1035.602
1009.339, 1037.535
1009.822, 1037.860
1010.304, 1036.478
1010.786, 1034.594
1011.268, 1033.498
1011.750, 1032.000
1012.232, 1027.984
1012.714, 1022.250
1013.196, 1017.084
1013.678, 1013.886
1014.161, 1010.288
1014.643, 1005.678
1015.125, 1000.940
1015.607, 997.2710
1016.089, 994.6442
1016.571, 993.1115
1017.053, 992.8151
1017.535, 992.2627
1018.018, 990.2302
1018.500, 987.5645
1018.982, 984.2361
1019.464, 980.2571
1019.946, 979.7736
1020.428, 983.9758
1020.910, 987.2362
1021.392, 986.4608
1021.874, 984.0295
1022.357, 984.3354
1022.839, 986.6747
1023.321, 989.4562
1023.803, 993.0665
1024.285, 995.5965
1024.767, 995.8448
1025.249, 995.4229
1025.731, 995.8116
1026.214, 997.0157
1026.696, 998.0750
1027.178, 998.9412
1027.660, 1000.106
1028.142, 1001.949
1028.624, 1004.294
1029.106, 1007.426
1029.588, 1011.115
1030.070, 1013.541
1030.553, 1013.350
1031.035, 1015.051
1031.517, 1020.216
1031.999, 1027.003
1032.481, 1032.476
1032.963, 1036.943
1033.445, 1041.095
1033.927, 1044.902
1034.410, 1049.246
1034.892, 1054.707
1035.374, 1060.671
1035.856, 1066.827
1036.338, 1073.226
1036.820, 1078.383
1037.302, 1082.198
1037.784, 1085.921
1038.266, 1089.386
1038.749, 1093.834
1039.231, 1101.517
1039.713, 1111.066
1040.195, 1118.971
1040.677, 1123.435
1041.159, 1128.145
1041.641, 1133.079
1042.123, 1139.097
1042.605, 1147.730
1043.088, 1158.286
1043.570, 1168.371
1044.052, 1177.739
1044.534, 1188.080
1045.016, 1200.921
1045.498, 1214.353
1045.980, 1227.046
1046.462, 1239.390
1046.945, 1253.200
1047.427, 1268.604
1047.909, 1285.154
1048.391, 1302.309
1048.873, 1321.046
1049.355, 1343.882
1049.837, 1368.474
1050.319, 1391.601
1050.802, 1411.055
1051.284, 1432.947
1051.766, 1457.244
1052.248, 1483.551
1052.730, 1510.779
1053.212, 1539.621
1053.694, 1573.037
1054.176, 1610.321
1054.658, 1648.235
1055.141, 1684.682
1055.623, 1722.045
1056.105, 1760.922
1056.587, 1801.732
1057.069, 1846.009
1057.551, 1893.877
1058.033, 1940.224
1058.515, 1984.450
1058.997, 2028.228
1059.480, 2072.509
1059.962, 2118.144
1060.444, 2166.556
1060.926, 2217.497
1061.408, 2268.555
1061.890, 2320.717
1062.372, 2370.433
1062.854, 2416.571
1063.337, 2458.810
1063.819, 2495.863
1064.301, 2527.817
1064.783, 2554.794
1065.265, 2578.238
1065.747, 2593.283
1066.229, 2599.339
1066.711, 2595.430
1067.193, 2578.825
1067.676, 2550.192
1068.158, 2521.497
1068.640, 2492.101
1069.122, 2455.071
1069.604, 2399.904
1070.086, 2341.451
1070.568, 2288.318
1071.050, 2238.310
1071.532, 2186.837
1072.015, 2132.647
1072.497, 2079.312
1072.979, 2026.369
1073.461, 1975.737
1073.943, 1929.120
1074.425, 1886.198
1074.907, 1845.852
1075.389, 1808.371
1075.872, 1774.376
1076.354, 1746.129
1076.836, 1718.742
1077.318, 1690.389
1077.800, 1663.084
1078.282, 1641.600
1078.764, 1624.457
1079.246, 1605.648
1079.729, 1582.635
1080.211, 1560.610
1080.693, 1541.507
1081.175, 1525.312
1081.657, 1512.732
1082.139, 1503.696
1082.621, 1492.768
1083.103, 1479.829
1083.585, 1467.192
1084.068, 1456.124
1084.550, 1445.850
1085.032, 1436.082
1085.514, 1426.532
1085.996, 1416.758
1086.478, 1404.722
1086.960, 1397.620
1087.442, 1397.322
1087.924, 1396.782
1088.406, 1387.798
1088.889, 1374.708
1089.371, 1364.787
1089.853, 1358.251
1090.335, 1353.843
1090.817, 1352.913
1091.299, 1351.929
1091.781, 1350.568
1092.263, 1348.185
1092.746, 1342.280
1093.228, 1334.028
1093.710, 1329.886
1094.192, 1331.393
1094.674, 1332.648
1095.156, 1329.239
1095.638, 1324.754
1096.120, 1321.490
1096.603, 1319.344
1097.085, 1317.296
1097.567, 1315.327
1098.049, 1313.557
1098.531, 1311.722
1099.013, 1310.733
1099.495, 1312.603
1099.977, 1315.367
1100.459, 1316.366
1100.942, 1314.349
1101.424, 1313.570
1101.906, 1314.764
1102.388, 1314.812
1102.870, 1310.136
1103.352, 1303.788
1103.834, 1302.056
1104.316, 1303.626
1104.798, 1304.852
1105.281, 1303.874
1105.763, 1303.308
1106.245, 1303.565
1106.727, 1304.236
1107.209, 1304.885
1107.691, 1305.560
1108.173, 1306.470
1108.655, 1307.617
1109.138, 1308.694
1109.620, 1309.741
1110.102, 1310.462
1110.584, 1310.721
1111.066, 1310.573
1111.548, 1309.880
1112.030, 1308.652
1112.512, 1308.009
1112.995, 1308.124
1113.477, 1308.931
1113.959, 1311.119
1114.441, 1313.383
1114.923, 1314.293
1115.405, 1313.867
1115.887, 1314.409
1116.369, 1315.928
1116.851, 1318.603
1117.333, 1323.197
1117.816, 1327.532
1118.298, 1328.328
1118.780, 1327.154
1119.262, 1326.151
1119.744, 1325.544
1120.226, 1325.826
1120.708, 1326.795
1121.190, 1329.227
1121.673, 1335.227
1122.155, 1342.072
1122.637, 1342.013
1123.119, 1337.429
1123.601, 1334.884
1124.083, 1338.876
1124.565, 1342.408
1125.047, 1344.072
1125.530, 1345.313
1126.012, 1348.101
1126.494, 1351.792
1126.976, 1352.016
1127.458, 1349.129
1127.940, 1347.240
1128.422, 1349.644
1128.904, 1352.479
1129.386, 1353.684
1129.869, 1354.467
1130.351, 1357.066
1130.833, 1361.426
1131.315, 1364.340
1131.797, 1365.364
1132.279, 1366.311
1132.761, 1368.845
1133.243, 1371.635
1133.725, 1373.902
1134.208, 1375.548
1134.690, 1376.186
1135.172, 1375.561
1135.654, 1375.865
1136.136, 1377.617
1136.618, 1380.505
1137.100, 1385.784
1137.582, 1391.021
1138.065, 1393.120
1138.547, 1391.125
1139.029, 1390.528
1139.511, 1391.979
1139.993, 1392.638
1140.475, 1390.655
1140.957, 1388.441
1141.439, 1390.197
1141.922, 1394.320
1142.404, 1398.221
1142.886, 1401.547
1143.368, 1403.603
1143.850, 1403.926
1144.332, 1403.894
1144.814, 1404.031
1145.296, 1404.570
1145.778, 1406.621
1146.260, 1409.622
1146.743, 1411.988
1147.225, 1411.997
1147.707, 1412.923
1148.189, 1416.130
1148.671, 1419.208
1149.153, 1419.390
1149.635, 1417.528
1150.117, 1417.877
1150.600, 1420.320
1151.082, 1423.189
1151.564, 1425.780
1152.046, 1428.495
1152.528, 1431.521
1153.010, 1434.713
1153.492, 1438.222
1153.974, 1441.901
1154.457, 1443.754
1154.939, 1443.608
1155.421, 1443.704
1155.903, 1445.463
1156.385, 1447.989
1156.867, 1451.182
1157.349, 1454.629
1157.831, 1457.205
1158.313, 1458.883
1158.796, 1461.770
1159.278, 1466.380
1159.760, 1470.884
1160.242, 1473.874
1160.724, 1475.993
1161.206, 1477.358
1161.688, 1478.210
1162.170, 1479.665
1162.652, 1481.612
1163.135, 1485.707
1163.617, 1493.006
1164.099, 1500.650
1164.581, 1506.591
1165.063, 1510.782
1165.545, 1512.591
1166.027, 1511.683
1166.509, 1511.980
1166.992, 1513.385
1167.474, 1516.742
1167.956, 1523.548
1168.438, 1530.391
1168.920, 1532.289
1169.402, 1531.666
1169.884, 1531.913
1170.366, 1533.621
1170.849, 1536.713
1171.331, 1541.726
1171.813, 1546.290
1172.295, 1548.595
1172.777, 1550.183
1173.259, 1554.182
1173.741, 1559.277
1174.223, 1562.716
1174.705, 1561.442
1175.188, 1562.938
1175.670, 1568.175
1176.152, 1573.864
1176.634, 1576.664
1177.116, 1578.636
1177.598, 1585.655
1178.080, 1595.562
1178.562, 1601.849
1179.044, 1598.815
1179.527, 1597.316
1180.009, 1598.179
1180.491, 1600.790
1180.973, 1605.432
1181.455, 1611.106
1181.937, 1615.293
1182.419, 1618.177
1182.901, 1621.168
1183.384, 1625.146
1183.866, 1628.700
1184.348, 1631.252
1184.830, 1633.974
1185.312, 1638.993
1185.794, 1645.217
1186.276, 1649.677
1186.758, 1652.280
1187.240, 1654.315
1187.723, 1654.427
1188.205, 1656.732
1188.687, 1663.105
1189.169, 1670.738
1189.651, 1674.386
1190.133, 1675.499
1190.615, 1679.007
1191.097, 1685.559
1191.579, 1690.808
1192.062, 1691.306
1192.544, 1692.053
1193.026, 1694.729
1193.508, 1698.622
1193.990, 1702.794
1194.472, 1706.889
1194.954, 1709.305
1195.436, 1709.631
1195.919, 1709.976
1196.401, 1711.133
1196.883, 1712.775
1197.365, 1714.518
1197.847, 1716.826
1198.329, 1721.691
1198.811, 1728.373
1199.293, 1734.077
1199.776, 1738.105
1200.258, 1741.240
1200.740, 1742.600
1201.222, 1744.510
1201.704, 1748.510
1202.186, 1753.766
1202.668, 1756.519
1203.150, 1757.397
1203.632, 1759.013
1204.115, 1762.313
1204.597, 1766.117
1205.079, 1770.261
1205.561, 1774.396
1206.043, 1778.287
1206.525, 1781.950
1207.007, 1785.065
1207.489, 1787.777
1207.971, 1790.845
1208.454, 1794.515
1208.936, 1798.609
1209.418, 1803.480
1209.900, 1808.277
1210.382, 1812.291
1210.864, 1815.712
1211.346, 1819.937
1211.828, 1824.719
1212.311, 1828.608
1212.793, 1828.885
1213.275, 1831.461
1213.757, 1841.673
1214.239, 1851.987
1214.721, 1855.898
1215.203, 1854.509
1215.685, 1856.428
1216.167, 1861.205
1216.650, 1866.409
1217.132, 1871.121
1217.614, 1875.751
1218.096, 1881.461
1218.578, 1886.059
1219.060, 1886.392
1219.542, 1883.516
1220.024, 1884.842
1220.506, 1889.992
1220.989, 1896.150
1221.471, 1903.637
1221.953, 1909.698
1222.435, 1912.854
1222.917, 1915.207
1223.399, 1918.960
1223.881, 1923.809
1224.363, 1928.151
1224.846, 1932.005
1225.328, 1935.753
1225.810, 1940.033
1226.292, 1943.449
1226.774, 1944.727
1227.256, 1946.326
1227.738, 1952.251
1228.220, 1960.860
1228.703, 1966.291
1229.185, 1968.525
1229.667, 1969.847
1230.149, 1969.720
1230.631, 1970.963
1231.113, 1974.230
1231.595, 1978.876
1232.077, 1985.016
1232.559, 1991.675
1233.042, 1995.972
1233.524, 1997.859
1234.006, 1998.756
1234.488, 1996.822
1234.970, 1997.664
1235.452, 2003.424
1235.934, 2010.271
1236.416, 2012.423
1236.898, 2011.917
1237.381, 2012.791
1237.863, 2015.447
1238.345, 2020.002
1238.827, 2029.101
1239.309, 2036.083
1239.791, 2039.554
1240.273, 2041.368
1240.755, 2043.744
1241.238, 2046.446
1241.720, 2048.881
1242.202, 2051.067
1242.684, 2053.773
1243.166, 2057.428
1243.648, 2060.959
1244.130, 2064.011
1244.612, 2067.298
1245.094, 2072.487
1245.577, 2078.185
1246.059, 2082.044
1246.541, 2084.016
1247.023, 2086.300
1247.505, 2089.219
1247.987, 2092.018
1248.469, 2094.375
1248.951, 2097.067
1249.433, 2101.370
1249.916, 2106.261
1250.398, 2110.761
1250.880, 2114.698
1251.362, 2117.753
1251.844, 2119.568
1252.326, 2122.275
1252.808, 2126.504
1253.290, 2131.096
1253.773, 2135.419
1254.255, 2139.060
1254.737, 2140.895
1255.219, 2141.321
1255.701, 2144.655
1256.183, 2151.446
1256.665, 2155.836
1257.147, 2155.871
1257.630, 2156.602
1258.112, 2164.355
1258.594, 2173.463
1259.076, 2178.678
1259.558, 2180.914
1260.040, 2184.642
1260.522, 2189.811
1261.004, 2194.449
1261.486, 2197.962
1261.969, 2201.951
1262.451, 2208.941
1262.933, 2215.462
1263.415, 2218.367
1263.897, 2219.267
1264.379, 2224.658
1264.861, 2233.569
1265.343, 2237.925
1265.825, 2235.311
1266.308, 2233.426
1266.790, 2236.561
1267.272, 2242.160
1267.754, 2249.961
1268.236, 2258.199
1268.718, 2261.275
1269.200, 2260.802
1269.682, 2262.253
1270.165, 2266.648
1270.647, 2273.373
1271.129, 2286.192
1271.611, 2296.035
1272.093, 2299.362
1272.575, 2299.107
1273.057, 2300.019
1273.539, 2302.331
1274.021, 2307.489
1274.504, 2316.240
1274.986, 2321.243
1275.468, 2318.432
1275.950, 2318.160
1276.432, 2324.209
1276.914, 2332.773
1277.396, 2338.252
1277.878, 2342.248
1278.360, 2347.241
1278.843, 2353.615
1279.325, 2359.948
1279.807, 2366.530
1280.289, 2371.304
1280.771, 2373.137
1281.253, 2374.971
1281.735, 2381.692
1282.217, 2389.479
1282.700, 2393.360
1283.182, 2393.469
1283.664, 2396.912
1284.146, 2403.883
1284.628, 2412.144
1285.110, 2421.721
1285.592, 2429.856
1286.074, 2432.562
1286.557, 2434.311
1287.039, 2439.710
1287.521, 2447.072
1288.003, 2448.656
1288.485, 2445.170
1288.967, 2445.652
1289.449, 2452.452
1289.931, 2459.786
1290.413, 2464.969
1290.896, 2468.642
1291.378, 2470.517
1291.860, 2471.855
1292.342, 2476.188
1292.824, 2482.681
1293.306, 2488.545
1293.788, 2493.288
1294.270, 2497.826
1294.752, 2502.604
1295.235, 2506.885
1295.717, 2509.743
1296.199, 2513.174
1296.681, 2521.942
1297.163, 2533.094
1297.645, 2541.145
1298.127, 2545.403
1298.609, 2549.146
1299.092, 2552.315
1299.574, 2556.205
1300.056, 2561.365
1300.538, 2566.891
1301.020, 2571.189
1301.502, 2575.800
1301.984, 2583.595
1302.466, 2594.003
1302.948, 2599.991
1303.431, 2600.670
1303.913, 2603.364
1304.395, 2609.694
1304.877, 2618.069
##END=



