##NAMES=Beryllonite
##RRUFFID=R060299
##IDEAL CHEMISTRY=NaBePO_4_
##LOCALITY=Paprok, near Kamdesh, Nuristan, Kunar Province, Afghanistan
##OWNER=RRUFF
##SOURCE=Herb Obodda
##DESCRIPTION=Pale blue fragment
##STATUS=The identification of this mineral has been confirmed by X-ray diffraction and chemical analysis
##URL=rruff.info/R060299
##MEASURED CHEMISTRY=Na_1.00_Be_1.00_P_1.00_O_4_
90.52570, 0.0000000E+00
91.00781, 32.67772
91.48993, 32.74282
91.97205, 32.76985
92.45416, 32.61088
92.93628, 32.41921
93.41840, 32.58522
93.90051, 33.27805
94.38263, 34.16204
94.86475, 34.78014
95.34686, 35.13196
95.82898, 35.18543
96.31110, 34.47163
96.79321, 33.13293
97.27533, 32.84978
97.75745, 34.42001
98.23956, 37.27695
98.72168, 38.80815
99.20380, 38.67403
99.68591, 38.23112
100.1680, 39.06327
100.6501, 41.42851
101.1323, 43.77509
101.6144, 45.64586
102.0965, 47.00830
102.5786, 48.20536
103.0607, 49.00075
103.5428, 49.84607
104.0250, 51.55067
104.5071, 54.37785
104.9892, 57.59657
105.4713, 60.83010
105.9534, 63.55635
106.4355, 67.44049
106.9177, 72.89470
107.3998, 79.51720
107.8819, 86.24308
108.3640, 92.58480
108.8461, 99.34169
109.3282, 106.9910
109.8104, 115.6361
110.2925, 124.8669
110.7746, 134.7495
111.2567, 145.1911
111.7388, 155.9005
112.2209, 166.3330
112.7031, 177.1772
113.1852, 189.0358
113.6673, 201.8773
114.1494, 215.7742
114.6315, 230.3841
115.1136, 245.7844
115.5958, 263.4438
116.0779, 284.9214
116.5600, 308.5897
117.0421, 332.5199
117.5242, 355.0825
118.0063, 378.7280
118.4885, 405.2057
118.9706, 434.9280
119.4527, 466.0074
119.9348, 496.7179
120.4169, 527.9349
120.8990, 561.8046
121.3812, 599.7603
121.8633, 640.5416
122.3454, 682.0519
122.8275, 723.3994
123.3096, 767.6224
123.7917, 818.2178
124.2739, 874.2501
124.7560, 932.2845
125.2381, 992.0330
125.7202, 1052.294
126.2023, 1110.509
126.6844, 1167.686
127.1666, 1221.367
127.6487, 1269.047
128.1308, 1310.813
128.6129, 1345.107
129.0950, 1369.151
129.5771, 1384.576
130.0593, 1397.235
130.5414, 1408.593
131.0235, 1418.270
131.5056, 1422.482
131.9877, 1415.594
132.4698, 1402.586
132.9520, 1396.365
133.4341, 1396.600
133.9162, 1398.016
134.3983, 1397.141
134.8804, 1395.092
135.3625, 1401.473
135.8447, 1417.137
136.3268, 1438.678
136.8089, 1462.130
137.2910, 1487.604
137.7731, 1514.813
138.2552, 1544.617
138.7374, 1577.355
139.2195, 1609.010
139.7016, 1640.702
140.1837, 1670.756
140.6658, 1694.640
141.1479, 1710.836
141.6301, 1724.964
142.1122, 1740.531
142.5943, 1760.680
143.0764, 1773.745
143.5585, 1778.773
144.0406, 1776.824
144.5228, 1771.401
145.0049, 1761.740
145.4870, 1749.690
145.9691, 1736.189
146.4512, 1719.247
146.9333, 1703.864
147.4155, 1690.498
147.8976, 1678.924
148.3797, 1668.096
148.8618, 1656.373
149.3439, 1646.433
149.8260, 1639.970
150.3082, 1640.157
150.7903, 1640.172
151.2724, 1638.654
151.7545, 1635.500
152.2366, 1634.582
152.7188, 1635.441
153.2009, 1638.769
153.6830, 1645.121
154.1651, 1656.075
154.6472, 1668.487
155.1293, 1681.075
155.6115, 1693.540
156.0936, 1708.631
156.5757, 1728.217
157.0578, 1750.214
157.5399, 1772.090
158.0220, 1793.390
158.5042, 1814.560
158.9863, 1836.272
159.4684, 1859.358
159.9505, 1879.702
160.4326, 1898.029
160.9147, 1912.465
161.3969, 1920.173
161.8790, 1919.900
162.3611, 1912.980
162.8432, 1898.799
163.3253, 1875.329
163.8074, 1851.246
164.2896, 1829.157
164.7717, 1809.203
165.2538, 1791.709
165.7359, 1777.414
166.2180, 1765.205
166.7001, 1754.106
167.1823, 1743.716
167.6644, 1735.098
168.1465, 1729.535
168.6286, 1726.399
169.1107, 1723.955
169.5928, 1722.777
170.0750, 1721.187
170.5571, 1717.221
171.0392, 1709.633
171.5213, 1701.043
172.0034, 1693.151
172.4855, 1685.965
172.9677, 1679.668
173.4498, 1673.557
173.9319, 1668.538
174.4140, 1666.023
174.8961, 1667.141
175.3782, 1670.036
175.8604, 1672.966
176.3425, 1675.954
176.8246, 1679.075
177.3067, 1682.284
177.7888, 1685.709
178.2709, 1689.637
178.7531, 1694.810
179.2352, 1700.066
179.7173, 1703.324
180.1994, 1704.671
180.6815, 1705.907
181.1636, 1708.240
181.6458, 1711.675
182.1279, 1716.279
182.6100, 1723.505
183.0921, 1731.324
183.5742, 1735.338
184.0563, 1735.358
184.5385, 1733.999
185.0206, 1732.983
185.5027, 1732.476
185.9848, 1733.415
186.4669, 1736.858
186.9490, 1741.880
187.4312, 1745.923
187.9133, 1748.859
188.3954, 1751.135
188.8775, 1752.084
189.3596, 1752.039
189.8417, 1754.457
190.3239, 1762.032
190.8060, 1773.559
191.2881, 1782.016
191.7702, 1786.660
192.2523, 1790.855
192.7344, 1799.609
193.2166, 1812.893
193.6987, 1825.789
194.1808, 1837.299
194.6629, 1847.218
195.1450, 1853.416
195.6271, 1855.575
196.1093, 1854.877
196.5914, 1852.931
197.0735, 1849.763
197.5556, 1844.957
198.0377, 1838.139
198.5198, 1829.231
199.0020, 1819.068
199.4841, 1806.836
199.9662, 1794.705
200.4483, 1785.997
200.9304, 1780.926
201.4125, 1777.865
201.8947, 1776.230
202.3768, 1776.032
202.8589, 1777.375
203.3410, 1780.847
203.8231, 1785.115
204.3052, 1787.379
204.7874, 1787.155
205.2695, 1787.087
205.7516, 1788.199
206.2337, 1790.488
206.7158, 1794.058
207.1979, 1799.065
207.6801, 1805.234
208.1622, 1811.804
208.6443, 1818.609
209.1264, 1826.432
209.6085, 1835.986
210.0906, 1847.831
210.5728, 1859.042
211.0549, 1869.896
211.5370, 1879.804
212.0191, 1887.197
212.5012, 1892.044
212.9833, 1894.674
213.4655, 1895.062
213.9476, 1892.938
214.4297, 1889.332
214.9118, 1882.906
215.3939, 1875.736
215.8760, 1873.148
216.3581, 1876.621
216.8403, 1881.657
217.3224, 1886.092
217.8045, 1889.536
218.2866, 1893.475
218.7687, 1897.384
219.2508, 1901.956
219.7330, 1909.170
220.2151, 1919.826
220.6972, 1931.492
221.1793, 1943.183
221.6614, 1955.733
222.1435, 1966.165
222.6257, 1974.234
223.1078, 1980.229
223.5899, 1985.243
224.0720, 1989.699
224.5541, 1992.535
225.0362, 1993.166
225.5184, 1990.838
226.0005, 1987.992
226.4826, 1983.289
226.9647, 1978.495
227.4468, 1978.809
227.9289, 1986.734
228.4111, 1996.023
228.8932, 2004.019
229.3753, 2010.648
229.8574, 2016.360
230.3395, 2021.873
230.8216, 2026.292
231.3038, 2027.242
231.7859, 2024.792
232.2680, 2018.706
232.7501, 2008.340
233.2322, 1991.167
233.7143, 1975.334
234.1965, 1960.617
234.6786, 1947.196
235.1607, 1935.392
235.6428, 1925.164
236.1249, 1916.543
236.6070, 1909.675
237.0892, 1905.251
237.5713, 1900.902
238.0534, 1896.056
238.5355, 1891.409
239.0176, 1889.206
239.4997, 1892.157
239.9819, 1893.587
240.4640, 1890.357
240.9461, 1880.172
241.4282, 1870.734
241.9103, 1862.218
242.3924, 1854.411
242.8746, 1846.747
243.3567, 1838.920
243.8388, 1831.737
244.3209, 1825.364
244.8030, 1819.458
245.2851, 1815.592
245.7673, 1814.429
246.2494, 1815.063
246.7315, 1815.650
247.2136, 1816.488
247.6957, 1816.826
248.1778, 1816.277
248.6600, 1814.489
249.1421, 1812.934
249.6242, 1811.812
250.1063, 1810.800
250.5884, 1809.113
251.0705, 1805.905
251.5527, 1803.427
252.0348, 1802.567
252.5169, 1803.638
252.9990, 1805.175
253.4811, 1807.382
253.9632, 1809.917
254.4454, 1812.252
254.9275, 1814.695
255.4096, 1816.338
255.8917, 1816.568
256.3738, 1814.815
256.8560, 1814.347
257.3381, 1815.666
257.8202, 1817.846
258.3023, 1819.585
258.7844, 1820.913
259.2665, 1821.726
259.7487, 1822.068
260.2308, 1822.007
260.7129, 1820.629
261.1950, 1816.730
261.6771, 1812.806
262.1592, 1812.883
262.6414, 1819.043
263.1235, 1823.829
263.6056, 1824.279
264.0877, 1819.895
264.5698, 1819.130
265.0519, 1823.391
265.5341, 1829.336
266.0162, 1833.358
266.4983, 1835.403
266.9804, 1835.443
267.4625, 1832.413
267.9446, 1826.437
268.4268, 1824.616
268.9089, 1828.572
269.3910, 1833.880
269.8731, 1835.674
270.3552, 1832.884
270.8373, 1830.811
271.3195, 1830.611
271.8016, 1832.157
272.2837, 1834.259
272.7658, 1837.059
273.2479, 1840.132
273.7300, 1843.039
274.2122, 1845.659
274.6943, 1848.888
275.1764, 1853.150
275.6585, 1858.165
276.1406, 1862.457
276.6227, 1866.002
277.1049, 1868.961
277.5870, 1871.362
278.0691, 1873.177
278.5512, 1874.794
279.0333, 1876.057
279.5154, 1877.280
279.9976, 1879.719
280.4797, 1883.598
280.9618, 1887.559
281.4439, 1891.253
281.9260, 1894.666
282.4081, 1895.712
282.8903, 1893.619
283.3724, 1889.544
283.8545, 1885.688
284.3366, 1881.932
284.8187, 1879.618
285.3008, 1880.565
285.7830, 1884.411
286.2651, 1886.589
286.7472, 1886.370
287.2293, 1884.969
287.7114, 1884.415
288.1935, 1884.698
288.6757, 1885.448
289.1578, 1886.666
289.6399, 1888.234
290.1220, 1889.436
290.6041, 1890.141
291.0862, 1890.769
291.5684, 1891.881
292.0505, 1893.462
292.5326, 1895.307
293.0147, 1897.519
293.4968, 1899.929
293.9789, 1902.224
294.4611, 1904.440
294.9432, 1906.215
295.4253, 1906.470
295.9074, 1905.689
296.3895, 1905.912
296.8716, 1909.003
297.3538, 1913.470
297.8359, 1916.002
298.3180, 1916.549
298.8001, 1916.889
299.2822, 1918.321
299.7643, 1920.849
300.2465, 1924.540
300.7286, 1930.766
301.2107, 1937.262
301.6928, 1940.023
302.1749, 1939.304
302.6570, 1939.370
303.1392, 1945.141
303.6213, 1953.776
304.1034, 1960.308
304.5855, 1963.281
305.0676, 1963.737
305.5497, 1962.880
306.0319, 1960.582
306.5140, 1956.113
306.9961, 1948.269
307.4782, 1938.295
307.9603, 1927.185
308.4424, 1914.181
308.9246, 1902.065
309.4067, 1893.151
309.8888, 1886.909
310.3709, 1881.710
310.8530, 1876.936
311.3351, 1872.743
311.8173, 1869.277
312.2994, 1866.529
312.7815, 1864.478
313.2636, 1863.748
313.7457, 1863.686
314.2278, 1863.104
314.7100, 1860.705
315.1921, 1858.251
315.6742, 1856.974
316.1563, 1857.215
316.6384, 1857.394
317.1205, 1856.531
317.6027, 1855.318
318.0848, 1854.633
318.5669, 1855.500
319.0490, 1856.270
319.5311, 1855.999
320.0132, 1854.578
320.4954, 1853.762
320.9775, 1853.722
321.4596, 1854.631
321.9417, 1856.654
322.4238, 1861.474
322.9059, 1865.678
323.3881, 1868.460
323.8702, 1869.850
324.3523, 1870.705
324.8344, 1870.174
325.3165, 1869.795
325.7986, 1870.474
326.2808, 1873.476
326.7629, 1876.164
327.2450, 1878.435
327.7271, 1880.295
328.2092, 1881.746
328.6913, 1881.394
329.1735, 1881.867
329.6556, 1884.331
330.1377, 1890.208
330.6198, 1895.365
331.1019, 1899.775
331.5840, 1903.431
332.0662, 1906.183
332.5483, 1906.211
333.0304, 1907.958
333.5125, 1913.275
333.9946, 1923.168
334.4767, 1931.330
334.9589, 1936.684
335.4410, 1941.238
335.9231, 1947.722
336.4052, 1957.020
336.8873, 1965.736
337.3694, 1972.539
337.8515, 1977.616
338.3336, 1984.764
338.8158, 1994.418
339.2979, 2005.346
339.7800, 2016.761
340.2621, 2028.625
340.7442, 2040.818
341.2263, 2053.062
341.7085, 2065.603
342.1906, 2078.547
342.6727, 2091.980
343.1548, 2105.999
343.6369, 2120.584
344.1190, 2135.667
344.6012, 2152.542
345.0833, 2171.449
345.5654, 2191.727
346.0475, 2211.564
346.5296, 2231.022
347.0117, 2253.039
347.4939, 2280.653
347.9760, 2311.892
348.4581, 2340.454
348.9402, 2365.492
349.4223, 2390.607
349.9044, 2421.743
350.3866, 2457.189
350.8687, 2491.406
351.3508, 2523.309
351.8329, 2552.441
352.3150, 2578.668
352.7971, 2602.053
353.2793, 2621.352
353.7614, 2636.972
354.2435, 2648.004
354.7256, 2653.379
355.2077, 2654.292
355.6898, 2647.580
356.1720, 2629.156
356.6541, 2600.038
357.1362, 2565.191
357.6183, 2524.988
358.1004, 2481.371
358.5826, 2435.276
359.0647, 2385.154
359.5468, 2337.033
360.0289, 2293.849
360.5110, 2254.958
360.9931, 2218.984
361.4753, 2186.312
361.9574, 2156.140
362.4395, 2128.222
362.9216, 2102.570
363.4037, 2078.955
363.8858, 2057.680
364.3680, 2038.283
364.8501, 2020.207
365.3322, 2003.051
365.8143, 1987.787
366.2964, 1974.993
366.7785, 1964.604
367.2607, 1955.195
367.7428, 1946.498
368.2249, 1938.769
368.7070, 1932.161
369.1891, 1927.023
369.6712, 1922.621
370.1534, 1919.497
370.6355, 1917.070
371.1176, 1913.458
371.5997, 1907.481
372.0818, 1901.734
372.5639, 1897.166
373.0461, 1893.911
373.5282, 1891.254
374.0103, 1889.426
374.4924, 1887.858
374.9745, 1885.660
375.4566, 1882.565
375.9388, 1879.614
376.4209, 1877.082
376.9030, 1874.964
377.3851, 1873.379
377.8672, 1872.318
378.3493, 1871.886
378.8315, 1872.409
379.3136, 1873.945
379.7957, 1875.504
380.2778, 1877.185
380.7599, 1878.571
381.2420, 1878.213
381.7242, 1876.117
382.2063, 1874.222
382.6884, 1873.919
383.1705, 1874.835
383.6526, 1875.740
384.1347, 1876.447
384.6169, 1877.227
385.0990, 1878.760
385.5811, 1880.703
386.0632, 1881.922
386.5453, 1880.688
387.0274, 1878.964
387.5096, 1879.701
387.9917, 1882.911
388.4738, 1886.513
388.9559, 1889.240
389.4380, 1891.256
389.9201, 1892.747
390.4023, 1893.384
390.8844, 1893.994
391.3665, 1894.874
391.8486, 1896.133
392.3307, 1898.111
392.8128, 1901.153
393.2950, 1904.827
393.7771, 1908.911
394.2592, 1913.441
394.7413, 1918.063
395.2234, 1922.890
395.7055, 1927.624
396.1877, 1931.819
396.6698, 1934.536
397.1519, 1937.484
397.6340, 1941.289
398.1161, 1946.071
398.5982, 1950.886
399.0804, 1958.125
399.5625, 1963.929
400.0446, 1965.473
400.5267, 1960.870
401.0088, 1954.739
401.4909, 1946.466
401.9731, 1936.924
402.4552, 1929.809
402.9373, 1925.967
403.4194, 1923.196
403.9015, 1920.301
404.3836, 1916.791
404.8658, 1915.217
405.3479, 1916.074
405.8300, 1918.161
406.3121, 1919.806
406.7942, 1920.941
407.2763, 1921.843
407.7585, 1922.271
408.2406, 1922.466
408.7227, 1923.904
409.2048, 1926.615
409.6869, 1930.026
410.1690, 1932.882
410.6512, 1935.716
411.1333, 1941.542
411.6154, 1951.571
412.0975, 1963.691
412.5796, 1975.502
413.0617, 1986.919
413.5439, 1997.695
414.0260, 2006.513
414.5081, 2015.210
414.9902, 2026.949
415.4723, 2042.335
415.9544, 2057.442
416.4366, 2068.396
416.9187, 2077.068
417.4008, 2086.212
417.8829, 2101.116
418.3650, 2113.237
418.8471, 2117.787
419.3293, 2115.161
419.8114, 2108.140
420.2935, 2094.277
420.7756, 2078.702
421.2577, 2064.991
421.7398, 2053.129
422.2220, 2043.840
422.7041, 2037.160
423.1862, 2033.108
423.6683, 2031.630
424.1504, 2033.088
424.6325, 2036.776
425.1147, 2042.488
425.5968, 2050.304
426.0789, 2059.868
426.5610, 2070.188
427.0431, 2083.151
427.5252, 2100.411
428.0074, 2123.271
428.4895, 2147.452
428.9716, 2172.581
429.4537, 2198.348
429.9358, 2224.038
430.4179, 2250.254
430.9001, 2273.970
431.3822, 2294.922
431.8643, 2313.208
432.3464, 2322.841
432.8285, 2324.360
433.3106, 2315.499
433.7928, 2290.635
434.2749, 2251.122
434.7570, 2207.641
435.2391, 2160.405
435.7212, 2113.662
436.2033, 2075.447
436.6855, 2045.799
437.1676, 2021.736
437.6497, 2001.762
438.1318, 1985.943
438.6139, 1974.890
439.0960, 1969.345
439.5782, 1966.179
440.0603, 1962.209
440.5424, 1958.822
441.0245, 1958.647
441.5066, 1965.391
441.9887, 1973.496
442.4709, 1979.321
442.9530, 1982.876
443.4351, 1987.734
443.9172, 1995.495
444.3993, 2004.872
444.8814, 2014.831
445.3636, 2025.240
445.8457, 2036.214
446.3278, 2047.288
446.8099, 2058.877
447.2920, 2072.312
447.7741, 2087.749
448.2563, 2105.048
448.7384, 2124.535
449.2205, 2146.967
449.7026, 2166.965
450.1847, 2182.804
450.6668, 2198.145
451.1490, 2216.213
451.6311, 2237.409
452.1132, 2260.145
452.5953, 2284.552
453.0774, 2310.257
453.5595, 2337.593
454.0417, 2366.708
454.5238, 2397.044
455.0059, 2429.465
455.4880, 2463.159
455.9701, 2494.992
456.4522, 2524.335
456.9344, 2554.248
457.4165, 2586.456
457.8986, 2621.877
458.3807, 2662.220
458.8628, 2709.733
459.3449, 2760.975
459.8271, 2811.676
460.3092, 2862.804
460.7913, 2919.313
461.2734, 2987.783
461.7555, 3060.406
462.2376, 3131.850
462.7198, 3200.762
463.2019, 3268.207
463.6840, 3339.230
464.1661, 3406.880
464.6482, 3462.743
465.1303, 3509.156
465.6125, 3538.751
466.0946, 3548.211
466.5767, 3538.337
467.0588, 3515.433
467.5409, 3478.636
468.0230, 3430.097
468.5052, 3370.524
468.9873, 3299.474
469.4694, 3217.989
469.9515, 3122.608
470.4336, 3020.283
470.9157, 2918.171
471.3979, 2815.457
471.8800, 2717.509
472.3621, 2624.060
472.8442, 2536.948
473.3263, 2461.677
473.8084, 2398.749
474.2906, 2343.614
474.7727, 2293.528
475.2548, 2248.518
475.7369, 2209.019
476.2190, 2175.123
476.7011, 2146.048
477.1833, 2121.182
477.6654, 2100.034
478.1475, 2081.273
478.6296, 2064.917
479.1117, 2050.291
479.5938, 2036.968
480.0760, 2024.830
480.5581, 2013.516
481.0402, 2002.289
481.5223, 1991.979
482.0044, 1983.457
482.4865, 1977.629
482.9687, 1971.826
483.4508, 1964.880
483.9329, 1957.479
484.4150, 1950.693
484.8971, 1946.510
485.3792, 1940.985
485.8614, 1931.649
486.3435, 1918.968
486.8256, 1910.365
487.3077, 1908.584
487.7898, 1907.754
488.2719, 1904.512
488.7541, 1897.645
489.2362, 1892.604
489.7183, 1889.916
490.2004, 1888.389
490.6825, 1886.271
491.1646, 1883.505
491.6468, 1880.480
492.1289, 1876.819
492.6110, 1873.211
493.0931, 1871.838
493.5752, 1872.670
494.0573, 1873.811
494.5395, 1874.221
495.0216, 1873.899
495.5037, 1872.675
495.9858, 1870.433
496.4679, 1867.980
496.9500, 1866.078
497.4322, 1864.487
497.9143, 1862.844
498.3964, 1861.171
498.8785, 1859.272
499.3606, 1856.710
499.8427, 1853.703
500.3249, 1851.400
500.8070, 1850.090
501.2891, 1849.647
501.7712, 1850.196
502.2533, 1852.218
502.7354, 1853.877
503.2176, 1854.914
503.6997, 1855.568
504.1818, 1856.003
504.6639, 1855.788
505.1460, 1856.021
505.6281, 1856.453
506.1103, 1857.466
506.5924, 1861.285
507.0745, 1869.035
507.5566, 1875.525
508.0387, 1877.471
508.5208, 1875.122
509.0030, 1873.336
509.4851, 1872.026
509.9672, 1871.818
510.4493, 1874.017
510.9314, 1878.003
511.4135, 1881.498
511.8957, 1883.401
512.3778, 1885.525
512.8599, 1890.285
513.3420, 1897.083
513.8242, 1904.096
514.3063, 1910.027
514.7884, 1916.202
515.2705, 1923.707
515.7526, 1932.590
516.2347, 1941.895
516.7169, 1951.274
517.1990, 1960.867
517.6811, 1970.774
518.1632, 1981.091
518.6453, 1991.551
519.1274, 2001.281
519.6096, 2011.308
520.0917, 2023.646
520.5738, 2040.425
521.0559, 2055.943
521.5380, 2069.226
522.0201, 2080.201
522.5023, 2087.325
522.9844, 2090.157
523.4665, 2090.446
523.9486, 2088.910
524.4307, 2085.644
524.9128, 2082.467
525.3950, 2079.622
525.8771, 2076.653
526.3592, 2071.501
526.8413, 2065.390
527.3234, 2062.726
527.8055, 2066.456
528.2877, 2073.136
528.7698, 2079.928
529.2519, 2086.520
529.7340, 2091.901
530.2161, 2096.361
530.6982, 2098.789
531.1804, 2098.176
531.6625, 2094.167
532.1446, 2088.672
532.6267, 2080.750
533.1088, 2072.462
533.5909, 2065.832
534.0731, 2059.082
534.5552, 2056.620
535.0373, 2060.245
535.5194, 2068.068
536.0015, 2075.370
536.4836, 2080.848
536.9658, 2088.254
537.4479, 2098.409
537.9300, 2111.287
538.4121, 2128.594
538.8942, 2150.577
539.3763, 2175.544
539.8585, 2202.241
540.3406, 2230.700
540.8227, 2260.846
541.3048, 2292.694
541.7869, 2327.195
542.2690, 2367.021
542.7512, 2410.612
543.2333, 2454.048
543.7154, 2494.360
544.1975, 2534.978
544.6796, 2580.063
545.1617, 2628.637
545.6439, 2674.547
546.1260, 2721.148
546.6081, 2759.637
547.0902, 2787.536
547.5723, 2807.411
548.0544, 2803.307
548.5366, 2763.825
549.0187, 2704.223
549.5008, 2637.200
549.9829, 2556.294
550.4650, 2479.373
550.9471, 2406.148
551.4293, 2338.844
551.9114, 2281.234
552.3935, 2233.802
552.8756, 2193.769
553.3577, 2160.648
553.8398, 2134.063
554.3220, 2112.936
554.8041, 2097.269
555.2862, 2085.093
555.7683, 2076.399
556.2504, 2069.663
556.7325, 2061.378
557.2147, 2050.800
557.6968, 2040.234
558.1789, 2031.920
558.6610, 2024.747
559.1431, 2017.158
559.6252, 2008.181
560.1074, 1999.104
560.5895, 1990.076
561.0716, 1981.249
561.5537, 1973.331
562.0358, 1965.602
562.5179, 1959.541
563.0001, 1955.818
563.4822, 1954.559
563.9643, 1954.157
564.4464, 1954.352
564.9285, 1955.789
565.4106, 1959.494
565.8928, 1966.056
566.3749, 1970.987
566.8570, 1973.663
567.3391, 1975.372
567.8212, 1979.598
568.3033, 1985.524
568.7855, 1986.539
569.2676, 1978.251
569.7497, 1966.053
570.2318, 1957.244
570.7139, 1951.496
571.1960, 1946.656
571.6782, 1941.572
572.1603, 1936.881
572.6424, 1932.912
573.1245, 1929.602
573.6066, 1927.941
574.0887, 1928.730
574.5709, 1931.050
575.0530, 1934.178
575.5351, 1938.214
576.0172, 1942.838
576.4993, 1947.334
576.9814, 1952.743
577.4636, 1960.824
577.9457, 1972.297
578.4278, 1984.480
578.9099, 1996.368
579.3920, 2010.415
579.8741, 2022.791
580.3563, 2039.760
580.8384, 2056.270
581.3205, 2072.236
581.8026, 2086.369
582.2847, 2094.741
582.7668, 2097.311
583.2490, 2093.538
583.7311, 2082.584
584.2131, 2065.239
584.6953, 2040.833
585.1774, 2005.100
585.6595, 1972.525
586.1416, 1950.853
586.6237, 1937.151
587.1058, 1926.571
587.5880, 1921.593
588.0701, 1915.723
588.5522, 1905.706
589.0343, 1893.076
589.5164, 1885.209
589.9985, 1883.859
590.4807, 1884.351
590.9628, 1885.270
591.4449, 1886.642
591.9270, 1886.073
592.4091, 1882.896
592.8912, 1880.559
593.3734, 1883.153
593.8555, 1889.561
594.3376, 1894.380
594.8197, 1896.640
595.3018, 1898.080
595.7839, 1900.278
596.2661, 1903.080
596.7482, 1906.173
597.2303, 1908.961
597.7124, 1912.578
598.1945, 1918.675
598.6766, 1926.290
599.1588, 1932.532
599.6409, 1938.427
600.1230, 1941.006
600.6051, 1938.219
601.0872, 1929.817
601.5693, 1921.331
602.0515, 1912.689
602.5336, 1904.137
603.0157, 1895.715
603.4978, 1887.331
603.9799, 1879.205
604.4620, 1871.150
604.9442, 1863.640
605.4263, 1857.255
605.9084, 1851.925
606.3905, 1847.700
606.8726, 1844.311
607.3547, 1842.387
607.8369, 1844.094
608.3190, 1847.939
608.8011, 1850.158
609.2832, 1846.690
609.7653, 1842.923
610.2474, 1842.835
610.7296, 1845.917
611.2117, 1847.692
611.6938, 1845.655
612.1759, 1843.078
612.6580, 1841.857
613.1401, 1842.770
613.6223, 1841.398
614.1044, 1836.247
614.5865, 1830.852
615.0686, 1828.829
615.5507, 1830.746
616.0328, 1831.147
616.5150, 1829.324
616.9971, 1826.363
617.4792, 1823.537
617.9613, 1820.924
618.4434, 1818.822
618.9255, 1817.455
619.4077, 1816.545
619.8898, 1815.713
620.3719, 1815.064
620.8540, 1814.882
621.3361, 1816.282
621.8182, 1817.369
622.3004, 1816.804
622.7825, 1814.557
623.2646, 1812.630
623.7467, 1811.299
624.2288, 1810.469
624.7109, 1810.045
625.1931, 1809.926
625.6752, 1810.508
626.1573, 1811.889
626.6394, 1813.741
627.1215, 1816.178
627.6036, 1819.217
628.0858, 1820.543
628.5679, 1819.539
629.0500, 1817.333
629.5321, 1815.001
630.0142, 1812.801
630.4963, 1811.634
630.9785, 1812.117
631.4606, 1813.529
631.9427, 1816.213
632.4248, 1819.500
632.9069, 1821.207
633.3890, 1817.411
633.8712, 1814.579
634.3533, 1816.663
634.8354, 1824.321
635.3175, 1828.946
635.7996, 1828.438
636.2817, 1826.920
636.7639, 1826.531
637.2460, 1827.487
637.7281, 1828.340
638.2102, 1828.990
638.6923, 1829.728
639.1744, 1831.088
639.6566, 1832.889
640.1387, 1834.369
640.6208, 1835.583
641.1029, 1835.742
641.5850, 1832.711
642.0671, 1828.063
642.5493, 1824.874
643.0314, 1826.116
643.5135, 1827.569
643.9956, 1826.838
644.4777, 1824.584
644.9598, 1822.826
645.4420, 1822.472
645.9241, 1822.284
646.4062, 1821.886
646.8883, 1821.312
647.3704, 1821.031
647.8525, 1821.203
648.3347, 1821.339
648.8168, 1820.969
649.2989, 1820.117
649.7810, 1820.149
650.2631, 1821.163
650.7452, 1822.169
651.2274, 1821.591
651.7095, 1820.376
652.1916, 1820.706
652.6737, 1823.319
653.1558, 1826.087
653.6379, 1827.249
654.1201, 1827.693
654.6022, 1828.609
655.0843, 1831.098
655.5664, 1833.204
656.0485, 1834.372
656.5306, 1834.837
657.0128, 1835.138
657.4949, 1835.009
657.9770, 1835.296
658.4591, 1836.619
658.9412, 1838.455
659.4233, 1838.162
659.9055, 1835.550
660.3876, 1832.938
660.8697, 1831.554
661.3518, 1831.111
661.8339, 1831.052
662.3160, 1831.357
662.7982, 1831.681
663.2803, 1831.678
663.7624, 1831.647
664.2445, 1831.823
664.7266, 1832.214
665.2087, 1832.986
665.6909, 1834.636
666.1730, 1836.427
666.6551, 1837.734
667.1372, 1838.444
667.6193, 1838.755
668.1014, 1838.250
668.5836, 1837.746
669.0657, 1838.605
669.5478, 1840.972
670.0299, 1842.897
670.5120, 1844.070
670.9941, 1844.455
671.4763, 1843.519
671.9584, 1841.617
672.4405, 1840.089
672.9226, 1839.274
673.4047, 1839.309
673.8868, 1841.143
674.3690, 1844.111
674.8511, 1845.887
675.3332, 1844.069
675.8153, 1842.270
676.2974, 1842.352
676.7795, 1844.460
677.2617, 1845.417
677.7438, 1844.461
678.2259, 1843.500
678.7080, 1843.550
679.1901, 1844.672
679.6722, 1845.798
680.1544, 1846.940
680.6365, 1848.080
681.1186, 1849.186
681.6007, 1850.286
682.0828, 1851.398
682.5649, 1852.447
683.0471, 1853.888
683.5292, 1856.671
684.0113, 1859.796
684.4934, 1862.019
684.9755, 1862.980
685.4576, 1863.084
685.9398, 1861.190
686.4219, 1858.871
686.9040, 1858.728
687.3861, 1861.932
687.8682, 1865.088
688.3503, 1867.998
688.8325, 1870.323
689.3146, 1870.562
689.7967, 1868.691
690.2788, 1867.633
690.7609, 1868.929
691.2430, 1871.537
691.7252, 1873.784
692.2073, 1875.724
692.6894, 1877.490
693.1715, 1878.675
693.6536, 1880.079
694.1357, 1882.747
694.6179, 1886.594
695.1000, 1889.207
695.5821, 1889.218
696.0642, 1888.471
696.5463, 1887.582
697.0284, 1886.347
697.5106, 1886.626
697.9927, 1889.266
698.4748, 1891.484
698.9569, 1890.531
699.4390, 1886.852
699.9211, 1884.096
700.4033, 1882.652
700.8854, 1881.354
701.3675, 1878.967
701.8496, 1875.992
702.3317, 1873.166
702.8138, 1870.691
703.2960, 1868.406
703.7781, 1865.605
704.2602, 1863.174
704.7423, 1862.198
705.2244, 1864.094
705.7065, 1865.827
706.1887, 1867.297
706.6708, 1868.353
707.1529, 1868.700
707.6350, 1868.213
708.1171, 1867.482
708.5992, 1866.321
709.0814, 1865.392
709.5635, 1866.015
710.0456, 1868.112
710.5277, 1871.263
711.0098, 1877.544
711.4919, 1883.006
711.9741, 1883.210
712.4562, 1879.341
712.9383, 1876.169
713.4204, 1875.893
713.9025, 1876.245
714.3846, 1876.484
714.8668, 1876.593
715.3489, 1876.159
715.8310, 1874.354
716.3131, 1873.686
716.7952, 1876.206
717.2773, 1881.528
717.7595, 1883.854
718.2416, 1882.986
718.7237, 1882.286
719.2058, 1885.202
719.6879, 1889.769
720.1700, 1892.656
720.6522, 1893.470
721.1343, 1894.223
721.6164, 1897.464
722.0985, 1900.289
722.5806, 1899.892
723.0627, 1892.893
723.5449, 1889.787
724.0270, 1893.599
724.5091, 1898.968
724.9912, 1900.974
725.4733, 1899.173
725.9554, 1896.459
726.4376, 1892.844
726.9197, 1889.091
727.4018, 1885.773
727.8839, 1883.179
728.3660, 1882.636
728.8481, 1885.594
729.3303, 1888.000
729.8124, 1885.327
730.2945, 1880.102
730.7766, 1876.208
731.2587, 1876.113
731.7408, 1875.865
732.2230, 1873.910
732.7051, 1871.391
733.1872, 1870.603
733.6693, 1872.250
734.1514, 1873.577
734.6335, 1873.796
735.1157, 1873.443
735.5978, 1874.264
736.0799, 1876.043
736.5620, 1876.886
737.0441, 1875.220
737.5262, 1872.741
738.0084, 1871.122
738.4905, 1870.290
738.9726, 1869.988
739.4547, 1870.174
739.9368, 1870.787
740.4189, 1872.128
740.9011, 1874.089
741.3832, 1875.144
741.8653, 1874.928
742.3474, 1874.387
742.8295, 1873.657
743.3116, 1872.840
743.7938, 1873.201
744.2759, 1874.769
744.7580, 1876.198
745.2401, 1876.580
745.7222, 1876.228
746.2043, 1875.339
746.6865, 1873.996
747.1686, 1873.154
747.6507, 1874.368
748.1328, 1875.525
748.6149, 1874.909
749.0970, 1871.780
749.5792, 1870.014
750.0613, 1870.359
750.5434, 1871.307
751.0255, 1871.891
751.5076, 1872.035
751.9897, 1872.880
752.4719, 1874.638
752.9540, 1875.868
753.4361, 1874.216
753.9182, 1871.273
754.4003, 1870.557
754.8824, 1872.781
755.3646, 1875.121
755.8467, 1875.172
756.3288, 1874.745
756.8109, 1875.702
757.2930, 1879.935
757.7751, 1882.181
758.2573, 1881.004
758.7394, 1878.912
759.2215, 1878.470
759.7036, 1880.038
760.1857, 1880.618
760.6678, 1879.788
761.1500, 1878.451
761.6321, 1876.923
762.1142, 1875.838
762.5963, 1877.225
763.0784, 1882.628
763.5605, 1887.527
764.0427, 1888.049
764.5248, 1886.447
765.0069, 1885.549
765.4890, 1886.370
765.9711, 1887.450
766.4532, 1888.765
766.9354, 1890.240
767.4175, 1891.961
767.8996, 1894.125
768.3817, 1895.283
768.8638, 1894.969
769.3459, 1894.128
769.8281, 1894.179
770.3102, 1894.943
770.7923, 1895.882
771.2744, 1896.851
771.7565, 1897.886
772.2386, 1899.361
772.7208, 1900.850
773.2029, 1901.616
773.6850, 1899.906
774.1671, 1899.500
774.6492, 1901.669
775.1313, 1905.029
775.6135, 1906.406
776.0956, 1905.417
776.5777, 1905.190
777.0598, 1907.122
777.5419, 1909.368
778.0240, 1907.866
778.5062, 1903.783
778.9883, 1900.757
779.4704, 1901.158
779.9525, 1902.417
780.4346, 1903.470
780.9167, 1904.185
781.3989, 1904.252
781.8810, 1903.472
782.3631, 1902.087
782.8452, 1899.435
783.3273, 1896.467
783.8094, 1896.560
784.2916, 1900.124
784.7737, 1902.626
785.2558, 1902.027
785.7379, 1899.960
786.2200, 1899.475
786.7021, 1900.151
787.1843, 1900.578
787.6664, 1900.173
788.1485, 1899.253
788.6306, 1896.848
789.1127, 1893.861
789.5948, 1893.875
790.0770, 1899.996
790.5591, 1904.947
791.0412, 1906.662
791.5233, 1906.070
792.0054, 1906.578
792.4875, 1908.190
792.9697, 1909.688
793.4518, 1910.135
793.9339, 1910.462
794.4160, 1912.865
794.8981, 1916.532
795.3802, 1918.780
795.8624, 1916.484
796.3445, 1914.306
796.8266, 1914.868
797.3087, 1917.614
797.7908, 1919.278
798.2729, 1918.977
798.7551, 1919.280
799.2372, 1921.367
799.7193, 1924.482
800.2014, 1925.398
800.6835, 1924.319
801.1656, 1923.963
801.6478, 1926.148
802.1299, 1929.453
802.6120, 1932.778
803.0941, 1935.888
803.5762, 1938.098
804.0583, 1938.138
804.5405, 1938.176
805.0226, 1939.274
805.5047, 1941.054
805.9868, 1941.847
806.4689, 1941.010
806.9510, 1941.133
807.4332, 1943.418
807.9153, 1947.033
808.3974, 1949.710
808.8795, 1951.539
809.3616, 1953.015
809.8438, 1955.597
810.3259, 1956.934
810.8080, 1953.592
811.2901, 1947.233
811.7722, 1943.169
812.2543, 1944.705
812.7365, 1946.577
813.2186, 1947.459
813.7007, 1947.698
814.1828, 1948.738
814.6649, 1950.762
815.1470, 1951.964
815.6292, 1951.173
816.1113, 1949.641
816.5934, 1949.888
817.0755, 1951.440
817.5576, 1952.762
818.0397, 1953.107
818.5219, 1953.020
819.0040, 1952.413
819.4861, 1951.571
819.9682, 1951.434
820.4503, 1952.486
820.9324, 1953.536
821.4146, 1954.407
821.8967, 1955.093
822.3788, 1955.730
822.8609, 1956.272
823.3430, 1955.809
823.8251, 1953.402
824.3073, 1950.664
824.7894, 1949.179
825.2715, 1948.860
825.7536, 1949.446
826.2357, 1952.535
826.7178, 1954.568
827.2000, 1953.741
827.6821, 1951.365
828.1642, 1949.705
828.6463, 1948.743
829.1284, 1948.598
829.6105, 1949.473
830.0927, 1950.862
830.5748, 1951.687
831.0569, 1952.233
831.5390, 1953.635
832.0211, 1957.344
832.5032, 1960.266
832.9854, 1959.417
833.4675, 1956.578
833.9496, 1954.456
834.4317, 1953.215
834.9138, 1953.386
835.3959, 1955.700
835.8781, 1958.775
836.3602, 1960.200
836.8423, 1959.960
837.3244, 1961.278
837.8065, 1965.386
838.2886, 1969.054
838.7708, 1966.984
839.2529, 1962.288
839.7350, 1960.344
840.2171, 1964.580
840.6992, 1967.667
841.1813, 1965.561
841.6635, 1962.074
842.1456, 1961.541
842.6277, 1965.796
843.1098, 1967.044
843.5919, 1964.189
844.0740, 1960.152
844.5562, 1958.604
845.0383, 1958.758
845.5204, 1958.311
846.0025, 1956.899
846.4846, 1955.050
846.9667, 1952.195
847.4489, 1949.650
847.9310, 1948.906
848.4131, 1951.279
848.8952, 1952.367
849.3773, 1951.577
849.8594, 1950.170
850.3416, 1948.612
850.8237, 1946.947
851.3058, 1947.770
851.7879, 1951.349
852.2700, 1954.687
852.7521, 1954.453
853.2343, 1953.080
853.7164, 1953.923
854.1985, 1957.423
854.6806, 1959.634
855.1627, 1958.023
855.6448, 1955.877
856.1270, 1954.615
856.6091, 1954.211
857.0912, 1955.394
857.5733, 1958.509
858.0554, 1961.123
858.5375, 1961.188
859.0197, 1959.782
859.5018, 1959.322
859.9839, 1959.674
860.4660, 1959.912
860.9481, 1958.668
861.4302, 1957.973
861.9124, 1959.518
862.3945, 1963.039
862.8766, 1965.065
863.3587, 1964.927
863.8408, 1964.851
864.3229, 1965.737
864.8051, 1967.154
865.2872, 1967.666
865.7693, 1967.424
866.2514, 1967.255
866.7335, 1967.904
867.2156, 1968.448
867.6978, 1968.248
868.1799, 1967.392
868.6620, 1966.073
869.1441, 1962.050
869.6262, 1960.834
870.1083, 1964.632
870.5905, 1970.487
871.0726, 1972.035
871.5547, 1969.428
872.0368, 1967.642
872.5189, 1968.149
873.0010, 1969.247
873.4832, 1968.886
873.9653, 1967.802
874.4474, 1967.209
874.9295, 1967.744
875.4116, 1968.263
875.8937, 1968.384
876.3759, 1968.427
876.8580, 1968.670
877.3401, 1969.114
877.8222, 1969.595
878.3043, 1970.032
878.7864, 1970.762
879.2686, 1972.532
879.7507, 1974.730
880.2328, 1976.424
880.7149, 1977.541
881.1970, 1977.579
881.6791, 1974.750
882.1613, 1971.988
882.6434, 1971.527
883.1255, 1973.722
883.6076, 1975.850
884.0897, 1978.173
884.5718, 1979.674
885.0540, 1978.895
885.5361, 1976.827
886.0182, 1976.725
886.5003, 1978.432
886.9824, 1980.579
887.4645, 1983.409
887.9467, 1985.429
888.4288, 1985.107
888.9109, 1982.678
889.3930, 1981.362
889.8751, 1981.469
890.3572, 1982.187
890.8394, 1983.457
891.3215, 1984.998
891.8036, 1986.274
892.2857, 1987.180
892.7678, 1987.157
893.2499, 1985.179
893.7321, 1983.162
894.2142, 1982.086
894.6963, 1982.087
895.1784, 1983.440
895.6605, 1988.259
896.1426, 1991.446
896.6248, 1992.342
897.1069, 1991.756
897.5890, 1989.931
898.0711, 1987.227
898.5532, 1987.978
899.0353, 1993.690
899.5175, 1999.365
899.9996, 2000.063
900.4817, 1998.156
900.9638, 1996.045
901.4459, 1993.120
901.9280, 1993.172
902.4102, 1998.411
902.8923, 2004.320
903.3744, 2008.024
903.8565, 2009.526
904.3386, 2008.851
904.8207, 2005.924
905.3029, 2003.650
905.7850, 2005.289
906.2671, 2008.196
906.7492, 2009.221
907.2313, 2008.376
907.7134, 2008.357
908.1956, 2010.426
908.6777, 2013.044
909.1598, 2016.239
909.6419, 2019.570
910.1240, 2020.113
910.6061, 2017.809
911.0883, 2017.026
911.5704, 2020.943
912.0525, 2025.801
912.5346, 2026.324
913.0167, 2024.116
913.4988, 2022.656
913.9810, 2024.660
914.4631, 2025.599
914.9452, 2023.836
915.4273, 2021.049
915.9094, 2019.388
916.3915, 2018.848
916.8737, 2019.948
917.3558, 2023.033
917.8379, 2026.506
918.3200, 2028.780
918.8021, 2030.170
919.2842, 2031.075
919.7664, 2031.488
920.2485, 2031.724
920.7306, 2031.585
921.2127, 2031.522
921.6948, 2031.568
922.1769, 2031.615
922.6591, 2033.796
923.1412, 2038.392
923.6233, 2042.280
924.1054, 2042.802
924.5875, 2041.600
925.0696, 2040.793
925.5518, 2040.398
926.0339, 2040.063
926.5160, 2039.181
926.9981, 2038.935
927.4802, 2040.112
927.9623, 2042.096
928.4445, 2042.679
928.9266, 2041.676
929.4087, 2041.895
929.8908, 2044.774
930.3729, 2048.033
930.8550, 2048.347
931.3372, 2046.881
931.8193, 2045.693
932.3014, 2045.517
932.7835, 2045.491
933.2656, 2045.180
933.7477, 2045.141
934.2299, 2046.252
934.7120, 2048.809
935.1941, 2049.391
935.6762, 2047.622
936.1583, 2045.791
936.6404, 2046.281
937.1226, 2047.862
937.6047, 2049.277
938.0868, 2050.377
938.5689, 2050.240
939.0510, 2046.053
939.5331, 2043.295
940.0153, 2044.828
940.4974, 2049.711
940.9795, 2051.189
941.4616, 2049.198
941.9437, 2047.350
942.4258, 2047.274
942.9080, 2048.244
943.3901, 2049.866
943.8722, 2051.848
944.3543, 2053.553
944.8364, 2054.656
945.3185, 2055.677
945.8007, 2056.659
946.2828, 2057.684
946.7649, 2058.775
947.2470, 2059.958
947.7291, 2061.794
948.2112, 2064.441
948.6934, 2067.136
949.1755, 2068.811
949.6576, 2070.341
950.1397, 2073.013
950.6218, 2077.346
951.1039, 2080.329
951.5861, 2080.461
952.0682, 2080.863
952.5503, 2083.532
953.0324, 2087.898
953.5145, 2089.857
953.9966, 2089.541
954.4788, 2088.641
954.9609, 2086.670
955.4430, 2085.828
955.9251, 2088.896
956.4072, 2094.468
956.8893, 2098.770
957.3715, 2100.683
957.8536, 2102.189
958.3357, 2103.344
958.8178, 2104.428
959.2999, 2106.103
959.7820, 2108.128
960.2642, 2109.257
960.7463, 2109.079
961.2284, 2109.001
961.7105, 2110.330
962.1926, 2112.019
962.6747, 2113.028
963.1569, 2112.973
963.6390, 2113.624
964.1211, 2114.769
964.6032, 2117.231
965.0853, 2122.927
965.5674, 2129.942
966.0496, 2131.954
966.5317, 2129.790
967.0138, 2127.422
967.4959, 2124.621
967.9780, 2124.636
968.4601, 2132.122
968.9423, 2143.028
969.4244, 2147.526
969.9065, 2143.757
970.3886, 2141.675
970.8707, 2143.085
971.3528, 2146.350
971.8350, 2150.102
972.3171, 2153.887
972.7992, 2156.705
973.2813, 2158.004
973.7634, 2160.135
974.2455, 2164.940
974.7277, 2169.965
975.2098, 2173.509
975.6919, 2175.536
976.1740, 2178.330
976.6561, 2181.861
977.1382, 2186.702
977.6204, 2194.382
978.1025, 2202.784
978.5846, 2209.233
979.0667, 2214.253
979.5488, 2219.599
980.0309, 2226.309
980.5131, 2232.495
980.9952, 2237.692
981.4773, 2242.375
981.9594, 2247.289
982.4415, 2252.379
982.9236, 2257.214
983.4058, 2261.424
983.8879, 2266.746
984.3700, 2275.422
984.8521, 2285.382
985.3342, 2294.759
985.8163, 2303.210
986.2985, 2311.384
986.7806, 2318.688
987.2627, 2327.221
987.7448, 2338.626
988.2269, 2351.995
988.7090, 2364.308
989.1912, 2375.986
989.6733, 2388.689
990.1554, 2402.087
990.6375, 2418.182
991.1196, 2438.773
991.6017, 2462.250
992.0839, 2485.340
992.5660, 2507.609
993.0481, 2530.946
993.5302, 2555.125
994.0123, 2582.569
994.4944, 2617.129
994.9766, 2656.265
995.4587, 2695.696
995.9408, 2734.323
996.4229, 2776.392
996.9050, 2822.402
997.3871, 2873.435
997.8693, 2929.276
998.3514, 2990.347
998.8335, 3056.185
999.3156, 3126.559
999.7977, 3203.073
1000.280, 3285.981
1000.762, 3374.483
1001.244, 3468.104
1001.726, 3566.701
1002.208, 3670.589
1002.690, 3778.720
1003.173, 3894.219
1003.655, 4015.977
1004.137, 4145.888
1004.619, 4284.014
1005.101, 4431.728
1005.583, 4585.975
1006.065, 4748.381
1006.547, 4916.591
1007.029, 5097.178
1007.512, 5278.292
1007.994, 5455.767
1008.476, 5629.278
1008.958, 5792.321
1009.440, 5947.160
1009.922, 6078.322
1010.404, 6185.056
1010.886, 6257.290
1011.369, 6286.370
1011.851, 6270.202
1012.333, 6204.579
1012.815, 6079.680
1013.297, 5922.884
1013.779, 5733.735
1014.261, 5522.071
1014.743, 5288.321
1015.225, 5032.449
1015.708, 4787.576
1016.190, 4553.864
1016.672, 4333.576
1017.154, 4127.839
1017.636, 3939.413
1018.118, 3771.866
1018.600, 3624.877
1019.082, 3492.967
1019.565, 3377.343
1020.047, 3272.958
1020.529, 3178.848
1021.011, 3095.516
1021.493, 3024.154
1021.975, 2962.508
1022.457, 2906.355
1022.939, 2855.161
1023.421, 2807.865
1023.904, 2762.166
1024.386, 2722.566
1024.868, 2691.088
1025.350, 2667.093
1025.832, 2644.885
1026.314, 2624.488
1026.796, 2605.811
1027.278, 2588.912
1027.760, 2573.580
1028.243, 2559.261
1028.725, 2546.424
1029.207, 2535.999
1029.689, 2528.832
1030.171, 2523.184
1030.653, 2519.379
1031.135, 2516.266
1031.617, 2511.142
1032.100, 2506.042
1032.582, 2507.611
1033.064, 2515.751
1033.546, 2524.866
1034.028, 2531.371
1034.510, 2538.847
1034.992, 2548.571
1035.474, 2560.637
1035.957, 2575.891
1036.439, 2594.812
1036.921, 2611.231
1037.403, 2622.919
1037.885, 2634.868
1038.367, 2653.250
1038.849, 2674.896
1039.331, 2695.490
1039.813, 2714.516
1040.296, 2732.539
1040.778, 2748.219
1041.260, 2765.627
1041.742, 2787.254
1042.224, 2808.368
1042.706, 2831.474
1043.188, 2858.038
1043.670, 2883.374
1044.152, 2913.109
1044.635, 2945.664
1045.117, 2980.849
1045.599, 3018.066
1046.081, 3056.648
1046.563, 3097.293
1047.045, 3137.279
1047.527, 3176.428
1048.009, 3215.850
1048.492, 3254.136
1048.974, 3294.362
1049.456, 3340.380
1049.938, 3392.248
1050.420, 3444.990
1050.902, 3499.203
1051.384, 3553.714
1051.866, 3608.561
1052.349, 3663.246
1052.831, 3721.227
1053.313, 3777.981
1053.795, 3822.498
1054.277, 3853.332
1054.759, 3864.792
1055.241, 3851.953
1055.723, 3819.135
1056.205, 3769.362
1056.688, 3702.781
1057.170, 3624.055
1057.652, 3532.842
1058.134, 3439.732
1058.616, 3346.743
1059.098, 3256.977
1059.580, 3169.062
1060.062, 3087.476
1060.544, 3021.466
1061.027, 2976.817
1061.509, 2936.897
1061.991, 2900.295
1062.473, 2870.901
1062.955, 2853.559
1063.437, 2846.030
1063.919, 2845.643
1064.401, 2851.393
1064.884, 2856.993
1065.366, 2861.880
1065.848, 2863.334
1066.330, 2860.866
1066.812, 2854.642
1067.294, 2845.632
1067.776, 2833.625
1068.258, 2814.294
1068.740, 2785.797
1069.223, 2756.043
1069.705, 2730.506
1070.187, 2706.820
1070.669, 2682.808
1071.151, 2658.186
1071.633, 2633.501
1072.115, 2608.097
1072.597, 2584.812
1073.079, 2565.009
1073.562, 2547.834
1074.044, 2531.023
1074.526, 2515.959
1075.008, 2505.054
1075.490, 2502.792
1075.972, 2498.289
1076.454, 2490.620
1076.936, 2480.769
1077.419, 2470.295
1077.901, 2454.087
1078.383, 2439.693
1078.865, 2414.915
1079.347, 2388.797
1079.829, 2361.598
1080.311, 2336.216
1080.793, 2313.135
1081.275, 2293.122
1081.758, 2278.261
1082.240, 2268.617
1082.722, 2260.993
1083.204, 2255.179
1083.686, 2249.294
1084.168, 2240.560
1084.650, 2231.629
1085.132, 2225.657
1085.615, 2222.641
1086.097, 2216.942
1086.579, 2207.219
1087.061, 2198.679
1087.543, 2192.855
1088.025, 2189.127
1088.507, 2187.702
1088.989, 2187.472
1089.471, 2186.425
1089.953, 2183.988
1090.436, 2181.170
1090.918, 2177.130
1091.400, 2174.215
1091.882, 2174.181
1092.364, 2176.119
1092.846, 2175.639
1093.328, 2173.227
1093.810, 2171.304
1094.293, 2171.468
1094.775, 2171.644
1095.257, 2169.496
1095.739, 2167.787
1096.221, 2170.049
1096.703, 2177.078
1097.185, 2181.015
1097.667, 2181.697
1098.150, 2180.719
1098.632, 2177.305
1099.114, 2174.453
1099.596, 2175.467
1100.078, 2179.180
1100.560, 2181.789
1101.042, 2183.290
1101.524, 2182.656
1102.006, 2179.168
1102.489, 2175.460
1102.971, 2174.294
1103.453, 2174.934
1103.935, 2177.082
1104.417, 2180.596
1104.899, 2181.970
1105.381, 2177.760
1105.863, 2175.506
1106.345, 2178.048
1106.828, 2182.652
1107.310, 2183.001
1107.792, 2180.459
1108.274, 2179.032
1108.756, 2179.650
1109.238, 2181.423
1109.720, 2185.004
1110.202, 2188.553
1110.685, 2191.084
1111.167, 2192.653
1111.649, 2193.627
1112.131, 2193.973
1112.613, 2193.183
1113.095, 2189.441
1113.577, 2187.285
1114.059, 2192.499
1114.542, 2199.656
1115.024, 2202.119
1115.506, 2198.688
1115.988, 2196.355
1116.470, 2195.316
1116.952, 2193.349
1117.434, 2186.919
1117.916, 2180.445
1118.398, 2179.642
1118.880, 2182.514
1119.363, 2184.160
1119.845, 2183.732
1120.327, 2182.162
1120.809, 2179.051
1121.291, 2176.285
1121.773, 2176.063
1122.255, 2177.344
1122.737, 2178.745
1123.220, 2180.031
1123.702, 2180.390
1124.184, 2179.217
1124.666, 2177.364
1125.148, 2174.616
1125.630, 2171.788
1126.112, 2169.708
1126.594, 2168.665
1127.077, 2170.421
1127.559, 2175.392
1128.041, 2178.503
1128.523, 2175.122
1129.005, 2171.789
1129.487, 2171.880
1129.969, 2169.162
1130.451, 2172.408
1130.933, 2168.050
1131.416, 2166.334
1131.898, 2169.174
1132.380, 2172.783
1132.862, 2175.562
1133.344, 2177.198
1133.826, 2176.867
1134.308, 2174.771
1134.790, 2174.819
1135.272, 2177.035
1135.755, 2180.774
1136.237, 2187.378
1136.719, 2192.626
1137.201, 2190.136
1137.683, 2185.140
1138.165, 2185.012
1138.647, 2191.933
1139.129, 2195.762
1139.612, 2196.238
1140.094, 2195.466
1140.576, 2193.105
1141.058, 2191.638
1141.540, 2195.446
1142.022, 2202.368
1142.504, 2207.817
1142.986, 2210.320
1143.469, 2212.382
1143.951, 2214.044
1144.433, 2215.369
1144.915, 2216.210
1145.397, 2216.876
1145.879, 2218.115
1146.361, 2219.751
1146.843, 2220.985
1147.325, 2222.540
1147.807, 2221.888
1148.290, 2217.663
1148.772, 2213.126
1149.254, 2213.333
1149.736, 2216.132
1150.218, 2215.637
1150.700, 2211.643
1151.182, 2207.549
1151.664, 2203.539
1152.147, 2201.506
1152.629, 2202.906
1153.111, 2205.364
1153.593, 2203.840
1154.075, 2199.443
1154.557, 2196.698
1155.039, 2196.351
1155.521, 2196.574
1156.004, 2196.893
1156.486, 2196.945
1156.968, 2196.205
1157.450, 2195.284
1157.932, 2196.567
1158.414, 2199.660
1158.896, 2201.637
1159.378, 2201.702
1159.860, 2201.038
1160.343, 2199.983
1160.825, 2198.892
1161.307, 2197.730
1161.789, 2196.676
1162.271, 2197.531
1162.753, 2200.188
1163.235, 2202.126
1163.717, 2202.113
1164.199, 2201.908
1164.682, 2203.207
1165.164, 2204.778
1165.646, 2205.225
1166.128, 2204.417
1166.610, 2204.805
1167.092, 2206.460
1167.574, 2206.686
1168.056, 2202.513
1168.539, 2198.790
1169.021, 2200.974
1169.503, 2205.844
1169.985, 2208.894
1170.467, 2209.490
1170.949, 2210.413
1171.431, 2211.829
1171.913, 2212.320
1172.396, 2209.991
1172.878, 2207.211
1173.360, 2205.485
1173.842, 2205.376
1174.324, 2208.491
1174.806, 2217.376
1175.288, 2221.774
1175.770, 2220.755
1176.252, 2218.700
1176.734, 2219.208
1177.217, 2220.470
1177.699, 2219.361
1178.181, 2217.122
1178.663, 2217.880
1179.145, 2224.688
1179.627, 2227.610
1180.109, 2224.980
1180.591, 2222.274
1181.074, 2226.090
1181.556, 2232.263
1182.038, 2235.087
1182.520, 2234.904
1183.002, 2234.591
1183.484, 2234.424
1183.966, 2234.832
1184.448, 2235.953
1184.931, 2237.541
1185.413, 2240.156
1185.895, 2242.645
1186.377, 2242.913
1186.859, 2241.033
1187.341, 2238.707
1187.823, 2234.798
1188.305, 2233.590
1188.787, 2236.656
1189.270, 2240.735
1189.752, 2240.876
1190.234, 2239.086
1190.716, 2239.087
1191.198, 2241.188
1191.680, 2242.399
1192.162, 2241.848
1192.644, 2240.809
1193.126, 2239.317
1193.609, 2238.069
1194.091, 2238.935
1194.573, 2240.621
1195.055, 2240.190
1195.537, 2237.062
1196.019, 2235.838
1196.501, 2239.027
1196.983, 2241.351
1197.466, 2240.828
1197.948, 2239.254
1198.430, 2239.991
1198.912, 2242.102
1199.394, 2243.808
1199.876, 2244.709
1200.358, 2245.304
1200.840, 2245.580
1201.323, 2245.786
1201.805, 2246.219
1202.287, 2246.347
1202.769, 2243.844
1203.251, 2240.487
1203.733, 2240.774
1204.215, 2247.165
1204.697, 2250.196
1205.179, 2245.922
1205.661, 2243.058
1206.144, 2246.474
1206.626, 2252.604
1207.108, 2252.474
1207.590, 2248.843
1208.072, 2247.966
1208.554, 2252.859
1209.036, 2255.721
1209.518, 2254.355
1210.001, 2252.896
1210.483, 2253.443
1210.965, 2255.200
1211.447, 2256.286
1211.929, 2257.049
1212.411, 2258.282
1212.893, 2260.053
1213.375, 2262.920
1213.858, 2268.132
1214.340, 2271.802
1214.822, 2271.211
1215.304, 2268.030
1215.786, 2265.360
1216.268, 2263.465
1216.750, 2263.092
1217.232, 2265.305
1217.714, 2267.366
1218.197, 2269.298
1218.679, 2270.494
1219.161, 2269.904
1219.643, 2268.781
1220.125, 2269.466
1220.607, 2271.832
1221.089, 2275.708
1221.571, 2283.196
1222.053, 2288.040
1222.536, 2289.821
1223.018, 2289.381
1223.500, 2285.529
1223.982, 2281.026
1224.464, 2282.261
1224.946, 2287.114
1225.428, 2290.750
1225.910, 2291.571
1226.393, 2291.070
1226.875, 2288.703
1227.357, 2286.771
1227.839, 2287.444
1228.321, 2289.321
1228.803, 2290.027
1229.285, 2290.078
1229.767, 2290.701
1230.250, 2292.777
1230.732, 2294.224
1231.214, 2295.025
1231.696, 2295.167
1232.178, 2293.952
1232.660, 2292.600
1233.142, 2292.808
1233.624, 2294.234
1234.106, 2296.298
1234.589, 2300.776
1235.071, 2300.146
1235.553, 2293.104
1236.035, 2287.152
1236.517, 2290.189
1236.999, 2295.751
1237.481, 2296.586
1237.963, 2294.128
1238.445, 2291.482
1238.928, 2287.677
1239.410, 2288.510
1239.892, 2294.680
1240.374, 2300.817
1240.856, 2302.896
1241.338, 2303.011
1241.820, 2302.251
1242.302, 2301.204
1242.785, 2301.099
1243.267, 2302.305
1243.749, 2302.576
1244.231, 2301.791
1244.713, 2301.405
1245.195, 2303.451
1245.677, 2305.336
1246.159, 2304.202
1246.641, 2301.947
1247.124, 2302.183
1247.606, 2305.194
1248.088, 2307.254
1248.570, 2308.178
1249.052, 2308.638
1249.534, 2307.781
1250.016, 2307.989
1250.498, 2311.944
1250.980, 2317.070
1251.463, 2320.131
1251.945, 2321.129
1252.427, 2321.216
1252.909, 2320.494
1253.391, 2319.387
1253.873, 2317.563
1254.355, 2316.175
1254.837, 2316.412
1255.320, 2316.763
1255.802, 2315.030
1256.284, 2311.760
1256.766, 2310.667
1257.248, 2311.648
1257.730, 2312.777
1258.212, 2312.429
1258.694, 2313.092
1259.177, 2316.024
1259.659, 2319.212
1260.141, 2320.790
1260.623, 2320.841
1261.105, 2318.477
1261.587, 2314.540
1262.069, 2312.965
1262.551, 2318.197
1263.033, 2321.823
1263.516, 2322.781
1263.998, 2321.971
1264.480, 2319.776
1264.962, 2316.672
1265.444, 2312.605
1265.926, 2308.431
1266.408, 2307.091
1266.890, 2312.250
1267.372, 2314.566
1267.855, 2312.565
1268.337, 2311.173
1268.819, 2316.792
1269.301, 2324.142
1269.783, 2325.372
1270.265, 2322.255
1270.747, 2319.852
1271.229, 2318.166
1271.712, 2319.225
1272.194, 2323.438
1272.676, 2327.913
1273.158, 2330.492
1273.640, 2332.227
1274.122, 2333.645
1274.604, 2335.069
1275.086, 2337.196
1275.568, 2340.297
1276.051, 2342.159
1276.533, 2342.727
1277.015, 2342.896
1277.497, 2342.624
1277.979, 2342.893
1278.461, 2345.921
1278.943, 2348.769
1279.425, 2347.108
1279.907, 2341.080
1280.390, 2338.792
1280.872, 2340.055
1281.354, 2342.089
1281.836, 2344.401
1282.318, 2345.852
1282.800, 2344.559
1283.282, 2343.877
1283.764, 2347.908
1284.247, 2355.158
1284.729, 2357.655
1285.211, 2356.353
1285.693, 2354.966
1286.175, 2355.803
1286.657, 2355.102
1287.139, 2351.259
1287.621, 2348.299
1288.104, 2350.363
1288.586, 2354.861
1289.068, 2356.012
1289.550, 2355.242
1290.032, 2355.907
1290.514, 2360.240
1290.996, 2363.663
1291.478, 2366.341
1291.960, 2367.500
1292.443, 2365.380
1292.925, 2362.876
1293.407, 2364.092
1293.889, 2367.137
1294.371, 2368.872
1294.853, 2368.872
1295.335, 2368.904
1295.817, 2368.937
1296.299, 2369.739
1296.782, 2372.698
1297.264, 2374.902
1297.746, 2372.955
1298.228, 2370.082
1298.710, 2369.824
1299.192, 2372.095
1299.674, 2373.727
1300.156, 2374.672
1300.639, 2374.305
1301.121, 2371.486
1301.603, 2369.527
1302.085, 2370.691
1302.567, 2373.237
1303.049, 2376.506
1303.531, 2380.071
##END=



