##NAMES=Beryl
##RRUFFID=R050120
##IDEAL CHEMISTRY=Be_3_Al_2_Si_6_O_18_
##LOCALITY=Cruziero mine, San Jose, Minas Gerais, Brazil
##OWNER=RRUFF
##SOURCE=Carlos and Paulo Vasconcelos
##DESCRIPTION=Yellow gemmy fragment
##STATUS=The identification of this mineral has been confirmed by X-ray diffraction and chemical analysis
##URL=rruff.info/R050120
##MEASURED CHEMISTRY=(Be_2.76_Li_0.24_)_Σ=3_Al_2.00_Si_6.00_O_18_·Na_0.24_
91.00781, 6.646838
91.48993, 6.932488
91.97205, 7.046914
92.45416, 6.871419
92.93628, 6.530342
93.41840, 6.299363
93.90051, 6.239144
94.38263, 6.275551
94.86475, 6.299605
95.34686, 6.311437
95.82898, 6.323694
96.31110, 6.325558
96.79321, 6.322977
97.27533, 6.391481
97.75745, 6.582146
98.23956, 6.851634
98.72168, 7.001180
99.20380, 7.009138
99.68591, 6.960620
100.1680, 6.903473
100.6501, 6.805242
101.1323, 6.866025
101.6144, 7.204987
102.0965, 7.858315
102.5786, 8.326522
103.0607, 8.524786
103.5428, 8.616269
104.0250, 8.872165
104.5071, 9.320332
104.9892, 9.883693
105.4713, 10.55151
105.9534, 11.41499
106.4355, 12.17548
106.9177, 12.75972
107.3998, 13.23749
107.8819, 13.84489
108.3640, 14.45274
108.8461, 15.28609
109.3282, 16.46701
109.8104, 18.57956
110.2925, 20.34391
110.7746, 21.43968
111.2567, 21.97729
111.7388, 22.87226
112.2209, 24.52299
112.7031, 26.38633
113.1852, 28.10649
113.6673, 29.52076
114.1494, 30.86145
114.6315, 32.13985
115.1136, 33.36400
115.5958, 34.70212
116.0779, 36.24926
116.5600, 37.92702
117.0421, 39.64006
117.5242, 41.24607
118.0063, 42.97964
118.4885, 44.92427
118.9706, 47.05323
119.4527, 49.58599
119.9348, 53.05228
120.4169, 56.98420
120.8990, 60.57953
121.3812, 63.13152
121.8633, 65.28068
122.3454, 67.60782
122.8275, 70.27014
123.3096, 72.99180
123.7917, 75.68609
124.2739, 78.28833
124.7560, 80.56117
125.2381, 82.21034
125.7202, 83.45618
126.2023, 84.63956
126.6844, 85.82687
127.1666, 87.01051
127.6487, 88.27882
128.1308, 89.61832
128.6129, 90.73222
129.0950, 91.09514
129.5771, 90.96558
130.0593, 91.31492
130.5414, 92.69396
131.0235, 94.62576
131.5056, 95.75688
131.9877, 95.68169
132.4698, 94.89399
132.9520, 94.27356
133.4341, 93.82194
133.9162, 93.67274
134.3983, 93.87376
134.8804, 94.40758
135.3625, 95.22076
135.8447, 96.33231
136.3268, 97.66882
136.8089, 99.22094
137.2910, 101.0450
137.7731, 102.7952
138.2552, 104.4848
138.7374, 106.1890
139.2195, 107.1361
139.7016, 107.1596
140.1837, 106.6150
140.6658, 106.2361
141.1479, 106.0965
141.6301, 105.9323
142.1122, 105.6519
142.5943, 105.3181
143.0764, 104.6554
143.5585, 103.4709
144.0406, 101.9685
144.5228, 100.8592
145.0049, 100.4129
145.4870, 100.0281
145.9691, 99.39358
146.4512, 98.45326
146.9333, 97.33702
147.4155, 95.90708
147.8976, 94.21583
148.3797, 92.88661
148.8618, 92.05989
149.3439, 91.47569
149.8260, 90.96481
150.3082, 90.48396
150.7903, 90.11631
151.2724, 89.85657
151.7545, 89.70454
152.2366, 89.66679
152.7188, 89.72541
153.2009, 89.90112
153.6830, 90.21043
154.1651, 91.17240
154.6472, 91.76222
155.1293, 91.60445
155.6115, 90.59512
156.0936, 89.68087
156.5757, 88.73296
157.0578, 88.04942
157.5399, 87.97282
158.0220, 89.52421
158.5042, 90.88890
158.9863, 91.26690
159.4684, 90.39952
159.9505, 89.57499
160.4326, 89.17166
160.9147, 89.06022
161.3969, 89.04841
161.8790, 89.20631
162.3611, 89.34892
162.8432, 89.40162
163.3253, 89.38370
163.8074, 89.18188
164.2896, 88.53242
164.7717, 87.65872
165.2538, 87.00829
165.7359, 87.01021
166.2180, 87.17724
166.7001, 87.11447
167.1823, 86.64410
167.6644, 86.17635
168.1465, 85.97753
168.6286, 85.98817
169.1107, 86.04287
169.5928, 86.09203
170.0750, 86.12218
170.5571, 86.10167
171.0392, 85.95800
171.5213, 85.87218
172.0034, 86.15841
172.4855, 86.70633
172.9677, 87.01969
173.4498, 86.56017
173.9319, 85.72811
174.4140, 85.10207
174.8961, 84.92207
175.3782, 84.90504
175.8604, 84.71326
176.3425, 84.36954
176.8246, 84.07364
177.3067, 84.09534
177.7888, 84.26534
178.2709, 84.22520
178.7531, 83.74369
179.2352, 83.09653
179.7173, 82.70982
180.1994, 82.57275
180.6815, 82.47812
181.1636, 82.26234
181.6458, 81.94521
182.1279, 81.58994
182.6100, 81.18545
183.0921, 80.76757
183.5742, 80.42443
184.0563, 80.16695
184.5385, 79.88281
185.0206, 79.44054
185.5027, 78.86507
185.9848, 78.30410
186.4669, 77.86985
186.9490, 77.47967
187.4312, 76.84981
187.9133, 75.97554
188.3954, 74.96826
188.8775, 73.80261
189.3596, 72.53040
189.8417, 71.62403
190.3239, 71.54858
190.8060, 72.06738
191.2881, 71.88753
191.7702, 70.89603
192.2523, 69.66528
192.7344, 68.86865
193.2166, 68.51051
193.6987, 68.36375
194.1808, 68.49498
194.6629, 68.85268
195.1450, 68.77399
195.6271, 68.17331
196.1093, 67.35662
196.5914, 66.78717
197.0735, 66.48759
197.5556, 66.14812
198.0377, 65.53689
198.5198, 64.64404
199.0020, 64.16895
199.4841, 64.23082
199.9662, 64.49726
200.4483, 64.35955
200.9304, 63.73192
201.4125, 63.21948
201.8947, 63.20928
202.3768, 63.76974
202.8589, 63.92812
203.3410, 63.58571
203.8231, 62.96357
204.3052, 62.44547
204.7874, 62.02586
205.2695, 61.71928
205.7516, 61.57940
206.2337, 61.64798
206.7158, 61.58710
207.1979, 61.35120
207.6801, 61.02558
208.1622, 60.80876
208.6443, 60.74712
209.1264, 60.64771
209.6085, 60.39708
210.0906, 59.94448
210.5728, 59.56651
211.0549, 59.26234
211.5370, 59.04065
212.0191, 58.94505
212.5012, 59.01397
212.9833, 59.11300
213.4655, 59.16169
213.9476, 59.11564
214.4297, 59.20005
214.9118, 59.48069
215.3939, 59.86264
215.8760, 60.11938
216.3581, 60.22885
216.8403, 60.25371
217.3224, 60.19595
217.8045, 59.99225
218.2866, 59.90808
218.7687, 60.00310
219.2508, 60.19902
219.7330, 60.25907
220.2151, 60.07344
220.6972, 59.95073
221.1793, 60.08172
221.6614, 60.64320
222.1435, 60.96256
222.6257, 60.92354
223.1078, 60.66766
223.5899, 60.59910
224.0720, 60.81917
224.5541, 61.06568
225.0362, 61.19987
225.5184, 61.10765
226.0005, 61.20299
226.4826, 61.60476
226.9647, 62.17100
227.4468, 62.48861
227.9289, 62.38338
228.4111, 62.29686
228.8932, 62.43610
229.3753, 62.87991
229.8574, 63.38566
230.3395, 64.08093
230.8216, 64.80239
231.3038, 65.05273
231.7859, 64.49274
232.2680, 63.95661
232.7501, 63.85412
233.2322, 64.47255
233.7143, 64.86192
234.1965, 64.89777
234.6786, 64.72778
235.1607, 64.77422
235.6428, 65.14749
236.1249, 65.57442
236.6070, 65.94476
237.0892, 66.26810
237.5713, 66.50453
238.0534, 66.61071
238.5355, 66.64031
239.0176, 66.72115
239.4997, 66.81870
239.9819, 67.02042
240.4640, 67.40134
240.9461, 68.15366
241.4282, 68.61716
241.9103, 68.63704
242.3924, 68.41785
242.8746, 68.48017
243.3567, 69.06908
243.8388, 69.56741
244.3209, 69.66991
244.8030, 69.09334
245.2851, 68.89140
245.7673, 69.21046
246.2494, 69.84509
246.7315, 70.36096
247.2136, 70.73345
247.6957, 71.02694
248.1778, 71.24937
248.6600, 71.35479
249.1421, 71.55033
249.6242, 71.98583
250.1063, 72.43398
250.5884, 72.46130
251.0705, 72.02931
251.5527, 71.23259
252.0348, 70.04639
252.5169, 68.31423
252.9990, 66.73689
253.4811, 65.41011
253.9632, 64.15743
254.4454, 62.63820
254.9275, 60.59254
255.4096, 58.75451
255.8917, 57.36589
256.3738, 56.48291
256.8560, 55.85872
257.3381, 55.58522
257.8202, 55.48821
258.3023, 55.30813
258.7844, 55.04280
259.2665, 54.69787
259.7487, 54.20107
260.2308, 53.48259
260.7129, 53.16573
261.1950, 53.43583
261.6771, 53.90487
262.1592, 54.02003
262.6414, 53.63284
263.1235, 53.26292
263.6056, 53.05313
264.0877, 53.00875
264.5698, 53.00494
265.0519, 52.99195
265.5341, 53.08595
266.0162, 53.50468
266.4983, 54.42103
266.9804, 55.10511
267.4625, 55.27658
267.9446, 54.94645
268.4268, 55.00827
268.9089, 55.63216
269.3910, 56.34496
269.8731, 56.64920
270.3552, 56.46189
270.8373, 56.18339
271.3195, 55.86845
271.8016, 55.52587
272.2837, 55.24459
272.7658, 55.03761
273.2479, 54.85429
273.7300, 54.60102
274.2122, 54.23690
274.6943, 54.08343
275.1764, 54.30264
275.6585, 54.78451
276.1406, 54.87743
276.6227, 54.46664
277.1049, 54.04790
277.5870, 54.06740
278.0691, 54.56620
278.5512, 55.03601
279.0333, 55.40677
279.5154, 55.68833
279.9976, 55.89905
280.4797, 56.03035
280.9618, 56.13688
281.4439, 56.22241
281.9260, 56.28527
282.4081, 56.49596
282.8903, 56.92967
283.3724, 57.46354
283.8545, 57.78283
284.3366, 57.87016
284.8187, 57.92672
285.3008, 58.03048
285.7830, 58.19170
286.2651, 58.53577
286.7472, 59.10535
287.2293, 59.80455
287.7114, 60.50275
288.1935, 61.19905
288.6757, 61.81495
289.1578, 62.24091
289.6399, 62.52629
290.1220, 62.86122
290.6041, 63.22406
291.0862, 63.74727
291.5684, 64.80216
292.0505, 66.32037
292.5326, 67.61336
293.0147, 68.19034
293.4968, 68.28237
293.9789, 68.66072
294.4611, 69.38896
294.9432, 70.11729
295.4253, 70.42992
295.9074, 70.38550
296.3895, 70.23308
296.8716, 70.13536
297.3538, 69.98756
297.8359, 69.55054
298.3180, 68.81417
298.8001, 67.94256
299.2822, 66.94150
299.7643, 65.90251
300.2465, 65.09007
300.7286, 64.78477
301.2107, 64.63191
301.6928, 64.08840
302.1749, 63.18208
302.6570, 62.26232
303.1392, 61.57879
303.6213, 61.07926
304.1034, 60.67188
304.5855, 60.21683
305.0676, 59.97089
305.5497, 60.33259
306.0319, 61.19807
306.5140, 62.04622
306.9961, 62.61287
307.4782, 62.93229
307.9603, 63.00432
308.4424, 62.68836
308.9246, 62.38515
309.4067, 62.42405
309.8888, 62.72942
310.3709, 63.08973
310.8530, 63.36403
311.3351, 63.65563
311.8173, 64.05989
312.2994, 64.61833
312.7815, 65.22240
313.2636, 65.85354
313.7457, 66.47729
314.2278, 67.03567
314.7100, 67.34645
315.1921, 67.69361
315.6742, 68.24680
316.1563, 69.03176
316.6384, 69.95841
317.1205, 70.98328
317.6027, 72.11639
318.0848, 73.36591
318.5669, 74.85964
319.0490, 76.35842
319.5311, 77.67115
320.0132, 78.77396
320.4954, 80.17241
320.9775, 82.34755
321.4596, 84.70535
321.9417, 86.70888
322.4238, 87.85697
322.9059, 89.04899
323.3881, 90.80126
323.8702, 92.99186
324.3523, 94.33718
324.8344, 94.09167
325.3165, 93.31641
325.7986, 92.63972
326.2808, 93.08440
326.7629, 92.48416
327.2450, 90.26154
327.7271, 86.77596
328.2092, 83.43979
328.6913, 80.22062
329.1735, 77.19642
329.6556, 74.36046
330.1377, 71.79783
330.6198, 69.25353
331.1019, 66.61004
331.5840, 64.02621
332.0662, 61.74835
332.5483, 59.80323
333.0304, 58.11180
333.5125, 56.68205
333.9946, 55.49921
334.4767, 54.57952
334.9589, 54.02005
335.4410, 53.63891
335.9231, 53.21291
336.4052, 52.71983
336.8873, 52.24865
337.3694, 51.81317
337.8516, 51.41741
338.3336, 51.13068
338.8158, 51.01512
339.2979, 50.87767
339.7800, 50.43092
340.2621, 49.57973
340.7442, 49.15919
341.2263, 49.48444
341.7085, 50.26061
342.1906, 50.45345
342.6727, 50.00026
343.1548, 49.36886
343.6369, 48.75878
344.1190, 48.18983
344.6012, 47.97201
345.0833, 48.23875
345.5654, 48.67839
346.0475, 48.66890
346.5296, 48.24156
347.0117, 47.89414
347.4939, 47.95547
347.9760, 48.31262
348.4581, 48.64857
348.9402, 48.96311
349.4223, 49.17162
349.9044, 49.07701
350.3866, 48.77591
350.8687, 48.59943
351.3508, 48.81334
351.8329, 49.17418
352.3150, 49.31057
352.7971, 49.22581
353.2793, 49.03477
353.7614, 48.70312
354.2435, 48.34753
354.7256, 48.15839
355.2077, 48.23238
355.6898, 48.43873
356.1720, 48.76834
356.6541, 49.17017
357.1362, 49.42737
357.6183, 49.25318
358.1004, 48.96788
358.5826, 48.87409
359.0647, 49.08956
359.5468, 49.34157
360.0289, 49.54354
360.5110, 49.67545
360.9931, 49.69907
361.4753, 49.52739
361.9574, 49.30108
362.4395, 49.05552
362.9216, 48.77318
363.4037, 48.61213
363.8858, 48.71272
364.3680, 48.92213
364.8501, 49.08006
365.3322, 49.02188
365.8143, 49.04240
366.2964, 49.29685
366.7785, 49.77787
367.2607, 50.06773
367.7428, 49.88548
368.2249, 49.66481
368.7070, 49.66876
369.1891, 50.01841
369.6712, 50.44079
370.1534, 51.07379
370.6355, 51.78061
371.1176, 52.09591
371.5997, 51.60078
372.0818, 51.25430
372.5639, 51.52896
373.0461, 52.77688
373.5282, 53.42976
374.0103, 53.15815
374.4924, 52.60979
374.9745, 52.85184
375.4566, 54.17244
375.9388, 55.38030
376.4209, 56.09576
376.9030, 56.35790
377.3851, 56.64805
377.8672, 56.96719
378.3493, 57.32592
378.8315, 57.69838
379.3136, 58.08626
379.7957, 58.64987
380.2778, 59.47765
380.7599, 60.44725
381.2420, 61.16859
381.7242, 61.62975
382.2063, 62.37388
382.6884, 63.95469
383.1705, 66.13439
383.6526, 67.98746
384.1347, 69.35152
384.6169, 70.66863
385.0990, 72.57251
385.5811, 74.89797
386.0632, 77.02685
386.5453, 78.23206
387.0274, 79.27998
387.5096, 81.34763
387.9917, 84.42705
388.4738, 87.54459
388.9559, 89.71059
389.4380, 91.46107
389.9201, 93.52255
390.4023, 96.19716
390.8844, 99.14184
391.3665, 102.0814
391.8486, 105.1012
392.3307, 108.4126
392.8128, 112.1518
393.2950, 116.1949
393.7771, 120.4471
394.2592, 124.7470
394.7413, 129.6033
395.2234, 135.3969
395.7055, 141.7714
396.1877, 148.1769
396.6698, 154.5959
397.1519, 160.9246
397.6340, 167.2925
398.1161, 173.7641
398.5982, 179.6837
399.0804, 185.2215
399.5625, 190.0628
400.0446, 194.0418
400.5267, 198.2994
401.0088, 200.0120
401.4909, 198.4583
401.9731, 194.1513
402.4552, 189.1184
402.9373, 183.4809
403.4194, 176.9211
403.9015, 169.0959
404.3836, 159.6005
404.8658, 150.3403
405.3479, 141.2615
405.8300, 132.6111
406.3121, 124.6305
406.7942, 117.3108
407.2763, 110.7054
407.7585, 104.8255
408.2406, 99.65235
408.7227, 95.30204
409.2048, 91.82500
409.6869, 88.86227
410.1690, 86.22287
410.6512, 83.88628
411.1333, 81.58323
411.6154, 79.14745
412.0975, 76.93900
412.5796, 75.56188
413.0617, 74.91668
413.5439, 74.47097
414.0260, 74.04554
414.5081, 73.58147
414.9902, 72.96555
415.4723, 72.17249
415.9544, 71.38912
416.4366, 70.79040
416.9187, 70.30029
417.4008, 69.80666
417.8829, 69.09131
418.3650, 68.50597
418.8471, 68.29211
419.3293, 68.40968
419.8114, 68.60363
420.2935, 68.76920
420.7756, 68.97208
421.2577, 69.29027
421.7398, 69.95442
422.2220, 70.32029
422.7041, 70.21790
423.1862, 69.73643
423.6683, 69.04224
424.1504, 67.88432
424.6325, 66.77256
425.1147, 65.86274
425.5968, 65.16458
426.0789, 64.48120
426.5610, 63.90217
427.0431, 63.25681
427.5252, 62.39142
428.0074, 61.18477
428.4895, 60.02885
428.9716, 58.93453
429.4537, 57.94342
429.9358, 57.25528
430.4179, 56.95420
430.9001, 56.66275
431.3822, 56.12370
431.8643, 55.32922
432.3464, 54.81894
432.8285, 54.60833
433.3106, 54.63515
433.7928, 54.97991
434.2749, 55.58187
434.7570, 55.90363
435.2391, 55.63364
435.7212, 55.09838
436.2033, 54.91488
436.6855, 55.06671
437.1676, 55.37088
437.6497, 55.75560
438.1318, 56.19276
438.6139, 56.68198
439.0960, 57.27474
439.5782, 57.72905
440.0603, 57.62302
440.5424, 57.25459
441.0245, 57.18122
441.5066, 57.92720
441.9887, 58.79957
442.4709, 59.45145
442.9530, 59.86816
443.4351, 60.08873
443.9172, 59.96397
444.3993, 59.74200
444.8814, 59.60948
445.3636, 59.78803
445.8457, 59.79917
446.3278, 59.46871
446.8099, 58.92540
447.2920, 58.48920
447.7741, 58.54366
448.2563, 58.27688
448.7384, 57.32954
449.2205, 55.55120
449.7026, 54.24969
450.1847, 53.62617
450.6668, 53.24449
451.1490, 52.66348
451.6311, 51.75259
452.1132, 51.17683
452.5953, 51.13514
453.0774, 51.40861
453.5595, 51.43848
454.0417, 51.22034
454.5238, 50.78703
455.0059, 50.06394
455.4880, 49.11485
455.9701, 48.17970
456.4522, 47.24444
456.9344, 46.49672
457.4165, 46.30596
457.8986, 46.47957
458.3807, 46.46984
458.8628, 45.96621
459.3449, 45.35432
459.8271, 45.08644
460.3092, 45.10284
460.7913, 45.13909
461.2734, 45.06729
461.7555, 44.93264
462.2376, 44.78692
462.7198, 44.65689
463.2019, 44.42696
463.6840, 43.89846
464.1661, 43.28901
464.6482, 42.86197
465.1303, 42.90656
465.6125, 42.90959
466.0946, 42.68950
466.5767, 42.27316
467.0588, 41.95031
467.5409, 41.82663
468.0230, 41.72522
468.5052, 41.54389
468.9873, 41.14213
469.4694, 41.03954
469.9515, 41.42127
470.4336, 41.94209
470.9157, 42.09718
471.3979, 41.79177
471.8800, 41.44214
472.3621, 41.15743
472.8442, 40.91302
473.3263, 40.47878
473.8084, 39.80001
474.2906, 39.35368
474.7727, 39.75380
475.2548, 40.76313
475.7369, 41.14741
476.2190, 40.67836
476.7011, 39.99028
477.1833, 39.82542
477.6654, 40.05703
478.1475, 40.33964
478.6296, 40.66015
479.1117, 40.87185
479.5938, 40.67549
480.0760, 40.15028
480.5581, 39.83036
481.0402, 40.21962
481.5223, 40.81936
482.0044, 41.22900
482.4865, 41.32943
482.9687, 41.35716
483.4508, 41.39943
483.9329, 41.41436
484.4150, 41.34229
484.8971, 40.94451
485.3792, 40.69883
485.8614, 40.77020
486.3435, 41.13396
486.8256, 41.47150
487.3077, 41.88808
487.7898, 42.15105
488.2719, 42.07395
488.7541, 41.46498
489.2362, 41.14768
489.7183, 41.18096
490.2004, 41.43467
490.6825, 41.78336
491.1646, 42.25249
491.6468, 42.55711
492.1289, 42.57473
492.6110, 42.39137
493.0931, 42.21692
493.5752, 42.05198
494.0573, 41.97272
494.5395, 42.09535
495.0216, 42.33141
495.5037, 42.50701
495.9858, 42.59893
496.4679, 42.62826
496.9500, 42.55937
497.4322, 42.44810
497.9143, 42.38836
498.3964, 42.48663
498.8785, 42.58465
499.3606, 42.56237
499.8427, 42.45088
500.3249, 42.39651
500.8070, 42.50296
501.2891, 42.63774
501.7712, 42.72247
502.2533, 42.70978
502.7354, 42.76059
503.2176, 42.99825
503.6997, 43.24633
504.1818, 43.31567
504.6639, 43.08711
505.1460, 42.89398
505.6281, 42.76009
506.1103, 42.69835
506.5924, 42.80426
507.0745, 43.13973
507.5566, 43.42242
508.0387, 43.38326
508.5208, 43.05761
509.0030, 43.30122
509.4851, 44.21661
509.9672, 45.12455
510.4493, 45.15051
510.9314, 44.54289
511.4135, 44.14738
511.8957, 44.22094
512.3778, 44.52205
512.8599, 44.87457
513.3420, 45.24090
513.8242, 45.50853
514.3063, 45.37757
514.7884, 45.30134
515.2705, 45.78662
515.7526, 46.86878
516.2347, 47.66313
516.7169, 47.46503
517.1990, 47.04658
517.6811, 46.99952
518.1632, 47.77365
518.6453, 48.44091
519.1274, 48.88185
519.6096, 49.16363
520.0917, 49.39330
520.5738, 49.53345
521.0559, 49.68346
521.5380, 49.88790
522.0201, 50.13879
522.5023, 50.26501
522.9844, 50.21020
523.4665, 50.19408
523.9486, 50.41899
524.4307, 50.87068
524.9128, 51.21694
525.3950, 51.40768
525.8771, 51.56369
526.3592, 51.84779
526.8413, 52.23161
527.3234, 52.63667
527.8055, 53.15532
528.2877, 53.55753
528.7698, 53.42730
529.2519, 52.89499
529.7340, 52.51180
530.2161, 52.78354
530.6982, 53.19151
531.1804, 53.29919
531.6625, 52.98303
532.1446, 52.79919
532.6267, 53.07537
533.1088, 53.49804
533.5909, 53.77389
534.0731, 53.86833
534.5552, 53.80847
535.0373, 53.50169
535.5194, 53.06007
536.0015, 52.76006
536.4836, 52.67525
536.9658, 52.58613
537.4479, 52.40887
537.9300, 52.14936
538.4121, 51.94115
538.8942, 51.79753
539.3763, 51.65071
539.8585, 51.50195
540.3406, 51.32058
540.8227, 50.88011
541.3048, 50.08709
541.7869, 49.25096
542.2690, 48.73061
542.7512, 48.46677
543.2333, 48.31356
543.7154, 48.36276
544.1975, 48.37091
544.6796, 48.12708
545.1617, 47.66319
545.6439, 47.12751
546.1260, 46.50381
546.6081, 45.89314
547.0902, 45.34859
547.5723, 44.88274
548.0544, 44.47976
548.5366, 44.21044
549.0187, 43.95824
549.5008, 43.60835
549.9829, 43.01564
550.4650, 42.59629
550.9471, 42.43468
551.4293, 42.43997
551.9114, 42.39588
552.3935, 42.28946
552.8756, 42.19916
553.3577, 42.17463
553.8398, 42.19054
554.3220, 42.12967
554.8041, 41.99063
555.2862, 41.80169
555.7683, 41.47552
556.2504, 41.13481
556.7325, 41.04921
557.2147, 41.28343
557.6968, 41.61073
558.1789, 41.96452
558.6610, 42.25910
559.1431, 42.36504
559.6252, 42.01062
560.1074, 41.69096
560.5895, 41.63417
561.0716, 41.77394
561.5537, 41.88828
562.0358, 41.97620
562.5179, 41.98941
563.0001, 41.86739
563.4822, 41.58373
563.9643, 41.45842
564.4464, 41.52651
564.9285, 41.70432
565.4106, 41.97179
565.8928, 42.36435
566.3749, 42.60022
566.8570, 42.62612
567.3391, 42.56519
567.8212, 42.55678
568.3033, 42.61105
568.7855, 42.81914
569.2676, 43.32155
569.7497, 43.88445
570.2318, 44.18422
570.7139, 44.24145
571.1960, 44.17155
571.6782, 43.80365
572.1603, 43.49532
572.6424, 43.61823
573.1245, 44.23328
573.6066, 44.78036
574.0887, 45.08727
574.5709, 45.21906
575.0530, 45.23206
575.5351, 45.12769
576.0172, 44.90326
576.4993, 44.46126
576.9814, 43.94745
577.4636, 43.60911
577.9457, 43.49734
578.4278, 43.43756
578.9099, 43.43722
579.3920, 43.44489
579.8741, 43.22506
580.3563, 42.76333
580.8384, 42.27686
581.3205, 41.91666
581.8026, 41.62744
582.2847, 41.25562
582.7668, 40.79349
583.2490, 40.32829
583.7311, 39.87621
584.2132, 39.48740
584.6953, 39.24422
585.1774, 39.23780
585.6595, 39.21297
586.1416, 39.02741
586.6237, 38.74240
587.1058, 38.44810
587.5880, 38.15290
588.0701, 37.86502
588.5522, 37.61238
589.0343, 37.37614
589.5164, 37.03758
589.9985, 36.42756
590.4807, 36.00806
590.9628, 36.08588
591.4449, 36.67960
591.9270, 36.72403
592.4091, 36.12123
592.8912, 35.38798
593.3734, 34.92747
593.8555, 34.72313
594.3376, 34.75938
594.8197, 35.08783
595.3018, 35.42607
595.7839, 35.50438
596.2661, 35.36360
596.7482, 35.07664
597.2303, 34.47317
597.7124, 33.93537
598.1945, 33.73602
598.6766, 33.78578
599.1588, 33.82883
599.6409, 33.73463
600.1230, 33.67318
600.6051, 33.77766
601.0872, 34.07148
601.5693, 34.09831
602.0515, 33.72150
602.5336, 33.26291
603.0157, 32.88087
603.4978, 32.55640
603.9799, 32.45857
604.4620, 32.64678
604.9442, 32.90367
605.4263, 32.89018
605.9084, 32.67021
606.3905, 32.65388
606.8726, 33.04805
607.3547, 33.46807
607.8369, 33.30513
608.3190, 32.78097
608.8011, 32.45641
609.2832, 32.91561
609.7653, 33.39160
610.2474, 33.26428
610.7296, 32.62783
611.2117, 32.30210
611.6938, 32.84162
612.1759, 33.46523
612.6580, 33.81211
613.1401, 33.86255
613.6223, 33.68431
614.1044, 33.09018
614.5865, 32.52259
615.0686, 32.38965
615.5507, 32.72886
616.0328, 33.23095
616.5150, 33.96376
616.9971, 34.60946
617.4792, 34.56274
617.9613, 33.96430
618.4434, 33.45973
618.9255, 33.26852
619.4077, 33.27235
619.8898, 33.45606
620.3719, 33.74157
620.8540, 33.88539
621.3361, 33.61810
621.8182, 33.30090
622.3004, 33.14312
622.7825, 33.15354
623.2646, 33.14844
623.7467, 33.13116
624.2288, 33.05563
624.7109, 32.87753
625.1931, 32.52645
625.6752, 32.32685
626.1573, 32.33945
626.6394, 32.39878
627.1215, 32.29137
627.6036, 32.01240
628.0858, 31.89954
628.5679, 32.03715
629.0500, 32.27466
629.5321, 32.43428
630.0142, 32.51097
630.4963, 32.47754
630.9785, 32.19893
631.4606, 31.93033
631.9427, 31.91382
632.4248, 32.09517
632.9069, 32.30119
633.3890, 32.55843
633.8712, 32.73373
634.3533, 32.73829
634.8354, 32.55508
635.3175, 32.40366
635.7996, 32.25305
636.2817, 32.17812
636.7639, 32.21413
637.2460, 32.36052
637.7281, 32.65430
638.2102, 33.14850
638.6923, 33.64243
639.1744, 33.91476
639.6566, 33.98566
640.1387, 33.96825
640.6208, 33.85322
641.1029, 33.74866
641.5850, 33.86443
642.0671, 34.07617
642.5493, 34.13667
643.0314, 33.61430
643.5135, 33.23549
643.9956, 33.56686
644.4777, 34.36897
644.9598, 34.89378
645.4420, 34.69262
645.9241, 34.47930
646.4062, 34.47468
646.8883, 34.66851
647.3704, 34.82937
647.8525, 34.94603
648.3347, 35.05238
648.8168, 35.16136
649.2989, 35.27436
649.7810, 35.41278
650.2631, 35.58318
650.7452, 35.71920
651.2274, 35.66792
651.7095, 35.54753
652.1916, 35.63268
652.6737, 36.01940
653.1558, 36.42875
653.6379, 36.65122
654.1201, 36.77729
654.6022, 36.92786
655.0843, 37.12437
655.5664, 37.36475
656.0485, 37.67833
656.5306, 38.03097
657.0128, 38.34603
657.4949, 38.57999
657.9770, 38.85400
658.4591, 39.18232
658.9412, 39.57378
659.4233, 40.10740
659.9055, 40.80250
660.3876, 41.44833
660.8697, 41.85827
661.3518, 42.15275
661.8339, 42.64380
662.3160, 43.32397
662.7982, 44.04897
663.2803, 44.65053
663.7624, 45.28919
664.2445, 46.11374
664.7266, 47.15805
665.2087, 48.31986
665.6909, 49.66786
666.1730, 51.05824
666.6551, 52.35274
667.1372, 53.21736
667.6193, 54.57708
668.1014, 56.53613
668.5836, 58.86703
669.0657, 61.20813
669.5478, 63.50229
670.0299, 66.28546
670.5120, 69.77596
670.9941, 73.60982
671.4763, 77.00614
671.9584, 80.14468
672.4405, 83.75391
672.9226, 88.27882
673.4047, 93.35042
673.8868, 98.72395
674.3690, 104.3637
674.8511, 110.3151
675.3332, 116.5540
675.8153, 123.1376
676.2974, 130.1520
676.7795, 137.6460
677.2617, 145.6261
677.7438, 154.0465
678.2259, 163.1178
678.7080, 172.9982
679.1901, 183.7781
679.6722, 195.1414
680.1544, 207.1102
680.6365, 220.3510
681.1186, 236.0399
681.6007, 253.5181
682.0828, 271.6004
682.5649, 289.9532
683.0471, 308.9831
683.5292, 328.9922
684.0113, 349.5035
684.4934, 369.5879
684.9755, 390.2065
685.4576, 408.8377
685.9398, 426.7506
686.4219, 441.7288
686.9040, 450.9308
687.3861, 454.5113
687.8682, 451.9001
688.3503, 442.6768
688.8325, 427.4730
689.3146, 407.1878
689.7967, 381.8752
690.2788, 354.8480
690.7609, 326.3112
691.2430, 298.0574
691.7252, 272.7328
692.2073, 249.9771
692.6894, 229.2183
693.1715, 210.1637
693.6536, 192.8789
694.1357, 177.5114
694.6179, 164.0433
695.1000, 152.0190
695.5821, 141.5338
696.0642, 132.3434
696.5463, 124.4126
697.0284, 117.8687
697.5106, 111.7561
697.9927, 106.0765
698.4748, 100.8077
698.9569, 95.96532
699.4390, 91.54113
699.9211, 87.69003
700.4033, 84.44800
700.8854, 81.58506
701.3675, 78.97812
701.8496, 76.56517
702.3317, 74.24113
702.8138, 72.00216
703.2960, 69.85841
703.7781, 67.76062
704.2602, 65.78489
704.7423, 64.02457
705.2244, 62.56065
705.7065, 61.24792
706.1887, 60.18575
706.6708, 59.20931
707.1529, 57.88255
707.6350, 56.09327
708.1171, 54.64606
708.5992, 53.82805
709.0814, 53.37506
709.5635, 52.78062
710.0456, 52.05294
710.5277, 51.24721
711.0098, 50.25183
711.4919, 49.30178
711.9741, 48.71371
712.4562, 48.38429
712.9383, 47.87487
713.4204, 46.65947
713.9025, 45.57887
714.3846, 45.06174
714.8668, 45.07306
715.3489, 45.05684
715.8310, 45.05408
716.3131, 44.94135
716.7952, 44.63225
717.2773, 44.14110
717.7595, 43.57190
718.2416, 42.91481
718.7237, 42.39967
719.2058, 42.26941
719.6879, 42.37896
720.1700, 42.55465
720.6522, 42.78884
721.1343, 42.91193
721.6164, 42.78563
722.0985, 42.53337
722.5806, 42.24461
723.0627, 41.90930
723.5449, 41.59387
724.0270, 41.27532
724.5091, 40.99806
724.9912, 40.83004
725.4733, 40.80597
725.9554, 40.64641
726.4376, 40.28593
726.9197, 39.90788
727.4018, 39.83339
727.8839, 39.95753
728.3660, 39.93838
728.8481, 39.64466
729.3303, 39.28438
729.8124, 38.96425
730.2945, 38.71430
730.7766, 38.58374
731.2587, 38.68822
731.7408, 38.79311
732.2230, 38.92141
732.7051, 38.99855
733.1872, 38.82886
733.6693, 38.25587
734.1514, 37.90774
734.6335, 37.99675
735.1157, 38.34115
735.5978, 38.53410
736.0799, 38.57410
736.5620, 38.43943
737.0441, 37.88952
737.5262, 37.34619
738.0084, 37.48545
738.4905, 38.07784
738.9726, 38.34174
739.4547, 37.53572
739.9368, 36.71630
740.4189, 36.34774
740.9011, 36.43071
741.3832, 36.55180
741.8653, 36.72412
742.3474, 36.91536
742.8295, 37.14252
743.3116, 37.38538
743.7938, 37.42812
744.2759, 37.26379
744.7580, 37.12085
745.2401, 37.25266
745.7222, 37.46559
746.2043, 37.38144
746.6865, 37.00738
747.1686, 36.77800
747.6507, 37.12179
748.1328, 37.54811
748.6149, 37.70636
749.0970, 37.48198
749.5792, 37.37074
750.0613, 37.42145
750.5434, 37.54567
751.0255, 37.72902
751.5076, 37.98927
751.9897, 38.02765
752.4719, 37.79527
752.9540, 37.60151
753.4361, 37.84595
753.9182, 38.31285
754.4003, 38.55656
754.8824, 38.49653
755.3646, 38.36554
755.8467, 38.27955
756.3288, 38.21480
756.8109, 38.15361
757.2930, 38.10279
757.7751, 38.02927
758.2573, 37.88647
758.7394, 37.76249
759.2215, 37.77190
759.7036, 37.95150
760.1857, 37.98964
760.6678, 37.83685
761.1500, 37.61369
761.6321, 37.48612
762.1142, 37.40979
762.5963, 37.25951
763.0784, 36.97254
763.5605, 36.70184
764.0427, 36.57680
764.5248, 36.52278
765.0069, 36.44635
765.4890, 36.25823
765.9711, 36.13972
766.4532, 36.11798
766.9354, 36.15891
767.4175, 36.23940
767.8996, 36.38331
768.3817, 36.40961
768.8638, 36.27198
769.3459, 36.04272
769.8281, 35.77994
770.3102, 35.51807
770.7923, 35.36539
771.2744, 35.41228
771.7565, 35.49550
772.2386, 35.57481
772.7208, 35.59890
773.2029, 35.47852
773.6850, 35.04244
774.1671, 34.64055
774.6492, 34.26460
775.1313, 33.97720
775.6135, 33.95534
776.0956, 34.24120
776.5777, 34.50019
777.0598, 34.67287
777.5419, 34.72567
778.0240, 34.51515
778.5062, 34.12481
778.9883, 33.81480
779.4704, 33.77900
779.9525, 33.78545
780.4346, 33.68258
780.9167, 33.51497
781.3989, 33.39079
781.8810, 33.37449
782.3631, 33.35385
782.8452, 33.32524
783.3273, 33.27476
783.8094, 33.10413
784.2916, 32.78342
784.7737, 32.66573
785.2558, 32.96910
785.7379, 33.44506
786.2200, 33.67347
786.7021, 33.68297
787.1843, 33.56144
787.6664, 33.23049
788.1485, 32.89837
788.6306, 32.67139
789.1127, 32.53755
789.5948, 32.45892
790.0770, 32.49883
790.5591, 32.48284
791.0412, 32.33028
791.5233, 32.10465
792.0054, 32.04221
792.4875, 32.14552
792.9697, 32.30589
793.4518, 32.54836
793.9339, 32.75505
794.4160, 32.67279
794.8981, 32.37984
795.3802, 32.13702
795.8624, 32.13643
796.3445, 32.14711
796.8266, 32.01756
797.3087, 31.79401
797.7908, 31.72743
798.2729, 31.94245
798.7551, 32.08240
799.2372, 32.01971
799.7193, 31.81756
800.2014, 31.68808
800.6835, 31.63062
801.1656, 31.63090
801.6478, 31.70654
802.1299, 31.81808
802.6120, 31.98237
803.0941, 32.15285
803.5762, 32.18210
804.0583, 31.83590
804.5405, 31.51506
805.0226, 31.39589
805.5047, 31.43034
805.9868, 31.44483
806.4689, 31.44673
806.9510, 31.39882
807.4332, 31.26198
807.9153, 31.08488
808.3974, 31.02235
808.8795, 31.05739
809.3616, 31.09248
809.8438, 31.08445
810.3259, 31.04914
810.8080, 30.97802
811.2901, 30.88791
811.7722, 30.83029
812.2543, 30.81594
812.7365, 30.84464
813.2186, 30.95062
813.7007, 31.09406
814.1828, 31.11204
814.6649, 30.98653
815.1470, 30.87993
815.6292, 30.87056
816.1113, 30.89663
816.5934, 30.83966
817.0755, 30.71773
817.5576, 30.59293
818.0397, 30.45455
818.5219, 30.36216
819.0040, 30.40470
819.4861, 30.52349
819.9682, 30.51729
820.4503, 30.25876
820.9324, 30.08778
821.4146, 30.10989
821.8967, 30.24037
822.3788, 30.25120
822.8609, 30.15097
823.3430, 30.06902
823.8251, 30.04691
824.3073, 30.07484
824.7894, 30.18112
825.2715, 30.32423
825.7536, 30.41878
826.2357, 30.41960
826.7178, 30.38116
827.2000, 30.25705
827.6821, 30.11952
828.1642, 30.13725
828.6463, 30.39546
829.1284, 30.48856
829.6105, 30.28920
830.0927, 29.96347
830.5748, 29.79224
831.0569, 29.74909
831.5390, 29.74154
832.0211, 29.74603
832.5032, 29.76267
832.9854, 29.81421
833.4675, 29.87133
833.9496, 29.88824
834.4317, 29.72932
834.9138, 29.71285
835.3959, 29.91444
835.8781, 30.21372
836.3602, 30.49092
836.8423, 30.74125
837.3244, 30.70673
837.8065, 30.27087
838.2886, 29.76567
838.7708, 29.53112
839.2529, 29.50637
839.7350, 29.60829
840.2171, 29.90995
840.6992, 30.13898
841.1813, 30.06234
841.6635, 29.95459
842.1456, 30.15156
842.6277, 30.87688
843.1098, 31.17381
843.5919, 30.90550
844.0740, 30.43563
844.5562, 30.17603
845.0383, 30.07142
845.5204, 29.95259
846.0025, 29.78451
846.4846, 29.66854
846.9667, 29.72030
847.4489, 29.83407
847.9310, 29.91075
848.4131, 29.92228
848.8952, 29.93283
849.3773, 29.94188
849.8594, 29.95426
850.3416, 29.98057
850.8237, 30.01976
851.3058, 30.02129
851.7879, 29.98050
852.2700, 29.94581
852.7521, 29.93993
853.2343, 29.97228
853.7164, 30.09860
854.1985, 30.32903
854.6806, 30.43601
855.1627, 30.26321
855.6448, 30.01444
856.1270, 29.74996
856.6091, 29.46348
857.0912, 29.45110
857.5733, 29.76941
858.0554, 30.04267
858.5375, 29.91320
859.0197, 29.60477
859.5018, 29.70083
859.9839, 30.12742
860.4660, 30.41406
860.9481, 30.18579
861.4302, 29.85464
861.9124, 29.60306
862.3945, 29.44771
862.8766, 29.37995
863.3587, 29.43234
863.8408, 29.49260
864.3229, 29.48522
864.8051, 29.48371
865.2872, 29.82719
865.7693, 30.43511
866.2514, 30.81597
866.7335, 30.56236
867.2156, 30.14956
867.6978, 29.85495
868.1799, 29.68661
868.6620, 29.66029
869.1441, 30.01828
869.6262, 30.19711
870.1083, 30.03243
870.5905, 29.71934
871.0726, 29.67992
871.5547, 29.90480
872.0368, 30.05984
872.5189, 30.05982
873.0010, 29.96955
873.4832, 29.78179
873.9653, 29.57696
874.4474, 29.49813
874.9295, 29.71655
875.4116, 29.83219
875.8937, 29.61035
876.3759, 29.33877
876.8580, 29.30238
877.3401, 29.54938
877.8222, 29.76610
878.3043, 29.93467
878.7864, 30.05762
879.2686, 30.16491
879.7507, 30.22254
880.2328, 30.12561
880.7149, 29.83714
881.1970, 29.62852
881.6791, 29.67164
882.1613, 29.81574
882.6434, 29.99455
883.1255, 30.23593
883.6076, 30.24717
884.0897, 29.95888
884.5718, 29.66598
885.0540, 29.51911
885.5361, 29.52883
886.0182, 29.81181
886.5003, 30.32944
886.9824, 30.77296
887.4645, 31.01414
887.9467, 31.06949
888.4288, 30.85299
888.9109, 30.40450
889.3930, 30.10914
889.8751, 29.97308
890.3572, 30.01411
890.8394, 30.30561
891.3215, 30.72596
891.8036, 30.92660
892.2857, 30.93368
892.7678, 30.89661
893.2499, 30.86829
893.7321, 30.83559
894.2142, 30.80097
894.6963, 30.75285
895.1784, 30.66763
895.6605, 30.39624
896.1426, 30.30714
896.6248, 30.46204
897.1069, 30.77717
897.5890, 31.19015
898.0711, 31.68165
898.5532, 32.02366
899.0353, 32.17046
899.5175, 32.19818
899.9996, 32.05125
900.4817, 31.89115
900.9638, 31.92614
901.4459, 32.27739
901.9280, 32.58176
902.4102, 32.84086
902.8923, 32.99838
903.3744, 32.97772
903.8565, 32.77348
904.3386, 32.63699
904.8207, 32.56860
905.3029, 32.63063
905.7850, 33.03540
906.2671, 33.49096
906.7492, 33.60439
907.2313, 33.39045
907.7134, 33.33271
908.1956, 33.75130
908.6777, 34.15806
909.1598, 34.42052
909.6419, 34.54144
910.1240, 34.47042
910.6061, 34.20295
911.0883, 34.04930
911.5704, 34.20445
912.0525, 34.47044
912.5346, 34.65089
913.0167, 34.74038
913.4988, 34.72713
913.9810, 34.47234
914.4631, 34.28192
914.9452, 34.18148
915.4273, 34.19820
915.9094, 34.46658
916.3915, 35.02789
916.8737, 35.21011
917.3558, 34.85987
917.8379, 34.38467
918.3200, 34.22133
918.8021, 34.24235
919.2842, 34.26849
919.7664, 34.26506
920.2485, 34.26917
920.7306, 34.39790
921.2127, 34.43806
921.6948, 34.20206
922.1769, 33.65187
922.6591, 33.44976
923.1412, 33.62960
923.6233, 33.81404
924.1054, 33.65265
924.5875, 33.38481
925.0696, 33.43900
925.5518, 33.73976
926.0339, 33.82907
926.5160, 33.23809
926.9981, 32.72679
927.4802, 32.54909
927.9623, 32.63317
928.4445, 32.81858
928.9266, 33.12618
929.4087, 33.26449
929.8908, 33.09880
930.3729, 32.82647
930.8550, 32.68044
931.3372, 32.62848
931.8193, 32.62118
932.3014, 32.69793
932.7835, 32.72572
933.2656, 32.65131
933.7477, 32.53249
934.2299, 32.42068
934.7120, 32.32141
935.1941, 32.13870
935.6762, 31.84577
936.1583, 31.66557
936.6404, 32.00275
937.1226, 32.47570
937.6047, 32.51554
938.0868, 32.07209
938.5689, 31.70803
939.0510, 31.67318
939.5331, 31.68091
940.0153, 31.61165
940.4974, 31.48565
940.9795, 31.45926
941.4616, 31.53370
941.9437, 31.59793
942.4258, 31.60829
942.9080, 31.57365
943.3901, 31.43600
943.8722, 31.26877
944.3543, 31.22920
944.8364, 31.59149
945.3185, 31.78106
945.8007, 31.67707
946.2828, 31.41090
946.7649, 31.11790
947.2470, 30.80114
947.7291, 30.56230
948.2112, 30.40789
948.6934, 30.38174
949.1755, 30.67352
949.6576, 31.03033
950.1397, 31.14883
950.6218, 30.93855
951.1039, 30.80622
951.5861, 30.89429
952.0682, 30.93146
952.5503, 30.69524
953.0324, 30.27547
953.5145, 30.38460
953.9966, 30.97991
954.4788, 31.53875
954.9609, 31.78337
955.4430, 31.85896
955.9251, 31.84911
956.4072, 31.76249
956.8893, 31.60899
957.3715, 31.27478
957.8536, 31.08319
958.3357, 31.09785
958.8178, 31.23980
959.2999, 31.41485
959.7820, 31.61405
960.2642, 31.81709
960.7463, 32.04220
961.2284, 32.14870
961.7105, 31.85984
962.1926, 31.52548
962.6747, 31.47753
963.1569, 31.81310
963.6390, 32.11096
964.1211, 32.41167
964.6032, 32.56826
965.0853, 32.38615
965.5674, 32.01664
966.0496, 31.92152
966.5317, 32.05563
967.0138, 32.19761
967.4959, 32.25665
967.9780, 32.26814
968.4601, 32.18533
968.9423, 32.07960
969.4244, 32.14825
969.9065, 32.48423
970.3886, 32.53994
970.8707, 32.11674
971.3528, 31.70135
971.8350, 32.15386
972.3171, 33.01997
972.7992, 33.43823
973.2813, 33.14856
973.7634, 32.87598
974.2455, 32.88869
974.7277, 33.00631
975.2098, 33.11631
975.6919, 33.21747
976.1740, 33.42731
976.6561, 33.75153
977.1382, 34.05715
977.6204, 34.16734
978.1025, 34.28482
978.5846, 34.82819
979.0667, 35.59313
979.5488, 35.98301
980.0309, 35.25318
980.5131, 34.88232
980.9952, 35.23151
981.4773, 35.90768
981.9594, 36.21372
982.4415, 36.21103
982.9236, 36.49290
983.4058, 37.21467
983.8879, 37.86995
984.3700, 37.83947
984.8521, 37.66278
985.3342, 37.87387
985.8163, 38.63924
986.2985, 39.30623
986.7806, 39.86628
987.2627, 40.32777
987.7448, 40.60361
988.2269, 40.82673
988.7090, 41.48623
989.1912, 42.48616
989.6733, 43.42366
990.1554, 44.08504
990.6375, 44.65571
991.1196, 45.02510
991.6017, 45.42511
992.0839, 46.30120
992.5660, 47.83149
993.0481, 48.96914
993.5302, 49.49676
994.0123, 50.03460
994.4944, 51.45637
994.9766, 53.27926
995.4587, 54.73442
995.9408, 55.68633
996.4229, 56.68031
996.9050, 57.87269
997.3871, 59.19390
997.8693, 60.76234
998.3514, 62.44189
998.8335, 63.07551
999.3156, 62.74119
999.7977, 62.89286
1000.280, 64.54363
1000.762, 66.44334
1001.244, 67.33266
1001.726, 67.69875
1002.208, 68.37124
1002.690, 69.67168
1003.173, 71.02882
1003.655, 72.48964
1004.137, 73.86376
1004.619, 74.89138
1005.101, 75.66302
1005.583, 76.44572
1006.065, 77.26211
1006.547, 77.99113
1007.029, 78.57152
1007.512, 79.04224
1007.994, 79.40379
1008.476, 79.67268
1008.958, 79.92033
1009.440, 80.18239
1009.922, 80.17187
1010.404, 79.74063
1010.886, 79.13522
1011.369, 78.63197
1011.851, 78.21322
1012.333, 77.87435
1012.815, 77.74403
1013.297, 77.36313
1013.779, 76.58633
1014.261, 75.62952
1014.743, 74.57511
1015.225, 73.42982
1015.708, 72.56930
1016.190, 71.96824
1016.672, 71.20065
1017.154, 69.81995
1017.636, 68.33778
1018.118, 67.11846
1018.600, 66.10640
1019.082, 65.01771
1019.565, 63.62225
1020.047, 62.80979
1020.529, 62.91119
1021.011, 63.16595
1021.493, 62.49809
1021.975, 61.19828
1022.457, 59.80896
1022.939, 58.39426
1023.421, 57.13460
1023.904, 56.11578
1024.386, 55.27885
1024.868, 54.56940
1025.350, 53.98923
1025.832, 53.62513
1026.314, 53.47375
1026.796, 53.17810
1027.278, 52.40178
1027.760, 51.63194
1028.243, 51.54025
1028.725, 51.73623
1029.207, 51.56316
1029.689, 50.57360
1030.171, 49.73714
1030.653, 49.05944
1031.135, 48.54755
1031.617, 48.25157
1032.100, 48.12390
1032.582, 48.01110
1033.064, 47.90740
1033.546, 47.85517
1034.028, 47.88460
1034.510, 47.96247
1034.992, 48.07491
1035.474, 48.22316
1035.957, 48.46448
1036.439, 48.82009
1036.921, 48.91820
1037.403, 48.61387
1037.885, 48.23018
1038.367, 48.09668
1038.849, 48.11780
1039.331, 48.17578
1039.813, 48.23743
1040.296, 48.40935
1040.778, 48.71812
1041.260, 49.08184
1041.742, 49.43360
1042.224, 49.81092
1042.706, 50.39373
1043.188, 51.11580
1043.670, 51.75344
1044.152, 52.08245
1044.635, 52.42855
1045.117, 52.92482
1045.599, 53.50887
1046.081, 54.07621
1046.563, 54.60928
1047.045, 55.35711
1047.527, 56.34901
1048.009, 57.40405
1048.492, 58.43135
1048.974, 59.37678
1049.456, 59.99587
1049.938, 60.36119
1050.420, 61.38014
1050.902, 63.63683
1051.384, 65.52606
1051.866, 66.51694
1052.349, 67.15297
1052.831, 68.43867
1053.313, 70.22672
1053.795, 72.18071
1054.277, 74.28700
1054.759, 76.19456
1055.241, 77.25293
1055.723, 78.50523
1056.205, 80.74105
1056.688, 83.92294
1057.170, 86.54807
1057.652, 88.62434
1058.134, 90.48711
1058.616, 92.15413
1059.098, 93.89113
1059.580, 95.76360
1060.062, 97.92735
1060.544, 100.7432
1061.027, 104.9878
1061.509, 108.3255
1061.991, 110.4566
1062.473, 112.2533
1062.955, 114.6766
1063.437, 117.3412
1063.919, 119.3393
1064.401, 120.6768
1064.884, 122.0061
1065.366, 123.7483
1065.848, 125.3360
1066.330, 126.6093
1066.812, 127.6052
1067.294, 128.3883
1067.776, 128.9527
1068.258, 129.3008
1068.740, 129.4307
1069.223, 129.3407
1069.705, 128.9373
1070.187, 128.3818
1070.669, 127.8334
1071.151, 127.3081
1071.633, 126.5465
1072.115, 125.5376
1072.597, 124.3028
1073.079, 122.8113
1073.562, 121.1555
1074.044, 119.3860
1074.526, 117.5658
1075.008, 115.7786
1075.490, 114.1566
1075.972, 112.3860
1076.454, 110.3674
1076.936, 108.3387
1077.419, 106.4621
1077.901, 104.7240
1078.383, 103.1093
1078.865, 101.5667
1079.347, 99.85476
1079.829, 97.78191
1080.311, 95.56774
1080.793, 93.19682
1081.275, 90.79409
1081.758, 88.51743
1082.240, 86.33709
1082.722, 84.55010
1083.204, 83.21445
1083.686, 82.00180
1084.168, 80.82079
1084.650, 79.43717
1085.132, 77.39223
1085.615, 74.73382
1086.097, 72.86757
1086.579, 72.05824
1087.061, 71.35653
1087.543, 70.60295
1088.025, 69.62148
1088.507, 67.77123
1088.989, 65.61569
1089.471, 64.26691
1089.953, 64.25085
1090.436, 63.97030
1090.918, 62.79182
1091.400, 61.66388
1091.882, 61.13939
1092.364, 61.04372
1092.846, 60.50763
1093.328, 59.64259
1093.810, 58.96906
1094.293, 58.98462
1094.775, 58.88826
1095.257, 58.12119
1095.739, 57.16622
1096.221, 56.53518
1096.703, 56.25549
1097.185, 56.06779
1097.667, 55.96722
1098.150, 55.92192
1098.632, 56.04379
1099.114, 56.09241
1099.596, 55.80420
1100.078, 55.26780
1100.560, 54.76112
1101.042, 54.22374
1101.524, 54.00416
1102.006, 54.23254
1102.489, 54.49200
1102.971, 54.22347
1103.453, 53.71634
1103.935, 53.48040
1104.417, 53.54646
1104.899, 53.37824
1105.381, 52.50504
1105.863, 51.91903
1106.345, 51.99859
1106.828, 52.36798
1107.310, 52.15554
1107.792, 51.55701
1108.274, 51.17044
1108.756, 51.14625
1109.238, 51.26839
1109.720, 51.60536
1110.202, 51.88681
1110.685, 51.95496
1111.167, 51.83195
1111.649, 51.62024
1112.131, 51.34041
1112.613, 51.20687
1113.095, 51.40828
1113.577, 51.61979
1114.059, 51.67880
1114.542, 51.57392
1115.024, 51.26415
1115.506, 50.67602
1115.988, 50.25935
1116.470, 50.01565
1116.952, 49.92701
1117.434, 50.14846
1117.916, 50.38307
1118.398, 50.21815
1118.880, 49.81995
1119.363, 49.60971
1119.845, 49.79116
1120.327, 49.82546
1120.809, 49.64036
1121.291, 49.42499
1121.773, 49.50232
1122.255, 49.61676
1122.737, 49.14509
1123.220, 48.18815
1123.702, 47.58722
1124.184, 47.93613
1124.666, 48.28185
1125.148, 48.50677
1125.630, 48.58526
1126.112, 48.35630
1126.594, 47.95431
1127.077, 47.83407
1127.559, 48.06959
1128.041, 48.28117
1128.523, 48.20471
1129.005, 48.15329
1129.487, 48.27114
1129.969, 48.50880
1130.451, 48.79221
1130.933, 49.08728
1131.416, 49.07799
1131.898, 48.59196
1132.380, 48.15910
1132.862, 48.24561
1133.344, 48.43803
1133.826, 48.36431
1134.308, 48.04393
1134.790, 47.95623
1135.272, 48.10448
1135.755, 48.41121
1136.237, 48.98175
1136.719, 49.45861
1137.201, 49.39527
1137.683, 49.09209
1138.165, 48.96501
1138.647, 49.14943
1139.129, 48.98849
1139.612, 48.42593
1140.094, 47.90156
1140.576, 47.72224
1141.058, 47.71626
1141.540, 47.73874
1142.022, 47.75688
1142.504, 47.69506
1142.986, 47.42156
1143.469, 47.32412
1143.951, 47.47540
1144.433, 47.60672
1144.915, 47.47457
1145.397, 47.16862
1145.879, 46.81921
1146.361, 46.44039
1146.843, 46.06712
1147.325, 45.65572
1147.807, 45.33180
1148.290, 45.12627
1148.772, 44.98308
1149.254, 44.88867
1149.736, 44.78870
1150.218, 44.51811
1150.700, 44.07431
1151.182, 43.60675
1151.664, 43.09379
1152.147, 42.67937
1152.629, 42.40492
1153.111, 42.23999
1153.593, 42.23107
1154.075, 42.29667
1154.557, 42.03458
1155.039, 41.36212
1155.521, 40.78340
1156.004, 40.68742
1156.486, 40.63430
1156.968, 40.41991
1157.450, 40.08805
1157.932, 39.79958
1158.414, 39.34457
1158.896, 39.06244
1159.378, 38.30235
1159.860, 37.56073
1160.343, 36.90119
1160.825, 36.47974
1161.307, 36.45386
1161.789, 36.75804
1162.271, 36.95478
1162.753, 37.04237
1163.235, 36.96866
1163.717, 36.66946
1164.199, 36.31506
1164.682, 35.98496
1165.164, 35.71690
1165.646, 35.58053
1166.128, 35.58515
1166.610, 35.44889
1167.092, 35.16727
1167.574, 34.88250
1168.056, 34.60421
1168.539, 34.44551
1169.021, 34.62535
1169.503, 34.93258
1169.985, 35.05986
1170.467, 34.94646
1170.949, 34.88938
1171.431, 34.90036
1171.913, 34.87024
1172.396, 34.60410
1172.878, 34.37644
1173.360, 34.57265
1173.842, 34.99155
1174.324, 35.23637
1174.806, 35.19538
1175.288, 35.19242
1175.770, 35.23676
1176.252, 35.30302
1176.734, 35.43024
1177.217, 35.52328
1177.699, 35.40957
1178.181, 35.16265
1178.663, 35.00990
1179.145, 35.04428
1179.627, 35.00155
1180.109, 34.83693
1180.591, 34.69942
1181.074, 34.86453
1181.556, 35.06348
1182.038, 34.78234
1182.520, 34.14882
1183.002, 33.87835
1183.484, 34.27699
1183.966, 34.62066
1184.448, 34.83543
1184.931, 34.93834
1185.413, 34.85310
1185.895, 34.71948
1186.377, 34.79268
1186.859, 35.06126
1187.341, 35.28258
1187.823, 35.40008
1188.305, 35.49387
1188.787, 35.59186
1189.270, 35.63374
1189.752, 35.43653
1190.234, 35.16911
1190.716, 35.21336
1191.198, 35.58854
1191.680, 35.65335
1192.162, 34.99001
1192.644, 34.55307
1193.126, 34.59656
1193.609, 34.91436
1194.091, 35.28105
1194.573, 35.63908
1195.055, 35.91197
1195.537, 36.09478
1196.019, 36.02191
1196.501, 35.45887
1196.983, 35.00155
1197.466, 34.83274
1197.948, 34.84668
1198.430, 34.91526
1198.912, 34.99668
1199.394, 34.99818
1199.876, 34.89095
1200.358, 34.78677
1200.840, 34.67430
1201.323, 34.63161
1201.805, 34.70982
1202.287, 34.84283
1202.769, 34.91128
1203.251, 34.92556
1203.733, 34.90271
1204.215, 34.84041
1204.697, 34.76734
1205.179, 34.65742
1205.661, 34.60470
1206.144, 34.69494
1206.626, 34.81988
1207.108, 34.65899
1207.590, 34.35520
1208.072, 34.22808
1208.554, 34.41476
1209.036, 34.62056
1209.518, 34.85201
1210.001, 34.98901
1210.483, 34.95223
1210.965, 34.79412
1211.447, 34.52676
1211.929, 34.26099
1212.411, 34.27737
1212.893, 34.88741
1213.375, 35.13095
1213.858, 34.75975
1214.340, 34.33794
1214.822, 34.16773
1215.304, 34.17506
1215.786, 34.25227
1216.268, 34.35177
1216.750, 34.35378
1217.232, 34.12012
1217.714, 34.02572
1218.197, 34.14815
1218.679, 34.29492
1219.161, 34.34597
1219.643, 34.33521
1220.125, 34.29936
1220.607, 34.26682
1221.089, 34.29787
1221.571, 34.33273
1222.053, 34.67415
1222.536, 35.58030
1223.018, 36.14801
1223.500, 35.46542
1223.982, 34.23994
1224.464, 33.89269
1224.946, 34.11832
1225.428, 34.22224
1225.910, 33.77571
1226.393, 33.62589
1226.875, 33.87690
1227.357, 34.14095
1227.839, 34.16674
1228.321, 34.00293
1228.803, 33.67358
1229.285, 33.22842
1229.767, 32.77325
1230.250, 32.19839
1230.732, 31.91998
1231.214, 31.99944
1231.696, 32.15454
1232.178, 32.22436
1232.660, 32.19975
1233.142, 32.01663
1233.624, 31.73562
1234.106, 31.50435
1234.589, 31.39881
1235.071, 31.16940
1235.553, 30.77118
1236.035, 30.46208
1236.517, 30.57532
1236.999, 30.77800
1237.481, 30.61261
1237.963, 30.68003
1238.445, 30.67409
1238.928, 30.46891
1239.410, 30.49683
1239.892, 30.18642
1240.374, 29.78935
1240.856, 29.40025
1241.338, 29.10257
1241.820, 29.00120
1242.302, 29.04090
1242.785, 29.10572
1243.267, 29.20027
1243.749, 29.29417
1244.231, 29.39140
1244.713, 29.37168
1245.195, 29.03192
1245.677, 28.65959
1246.159, 28.44594
1246.641, 28.36663
1247.124, 28.37597
1247.606, 28.48746
1248.088, 28.54503
1248.570, 28.54021
1249.052, 28.43182
1249.534, 28.02123
1250.016, 27.68257
1250.498, 27.75954
1250.980, 27.97361
1251.463, 27.92239
1251.945, 27.61205
1252.427, 27.52740
1252.909, 27.66459
1253.391, 27.75293
1253.873, 27.58221
1254.355, 27.37932
1254.837, 27.24085
1255.320, 27.12084
1255.802, 26.91977
1256.284, 26.67892
1256.766, 26.74657
1257.248, 27.08243
1257.730, 27.30529
1258.212, 27.07493
1258.694, 26.90627
1259.177, 27.00471
1259.659, 27.11569
1260.141, 26.87347
1260.623, 26.43706
1261.105, 26.45979
1261.587, 26.83667
1262.069, 26.97739
1262.551, 26.22252
1263.033, 25.86358
1263.516, 26.17819
1263.998, 26.65190
1264.480, 26.78086
1264.962, 26.70407
1265.444, 26.69781
1265.926, 26.74579
1266.408, 26.75391
1266.890, 26.63138
1267.372, 26.61195
1267.855, 26.75061
1268.337, 26.84809
1268.819, 26.65164
1269.301, 26.36647
1269.783, 26.30660
1270.265, 26.39380
1270.747, 26.39126
1271.229, 26.24772
1271.712, 26.09997
1272.194, 25.94623
1272.676, 25.84331
1273.158, 25.81213
1273.640, 25.87151
1274.122, 26.10938
1274.604, 26.42575
1275.086, 26.63676
1275.568, 26.74237
1276.051, 26.68061
1276.533, 26.44818
1277.015, 26.30280
1277.497, 26.54025
1277.979, 26.77484
1278.461, 26.77474
1278.943, 26.62816
1279.425, 26.39353
1279.907, 26.07507
1280.390, 26.07857
1280.872, 26.36693
1281.354, 26.58973
1281.836, 26.48775
1282.318, 26.37323
1282.800, 26.34186
1283.282, 26.35641
1283.764, 26.41476
1284.247, 26.49503
1284.729, 26.45864
1285.211, 26.33865
1285.693, 26.26160
1286.175, 26.33387
1286.657, 26.36549
1287.139, 26.31364
1287.621, 26.26206
1288.104, 26.29523
1288.586, 26.36216
1289.068, 26.32041
1289.550, 26.23056
1290.032, 26.23746
1290.514, 26.52550
1290.996, 26.60700
1291.478, 26.44476
1291.960, 26.22623
1292.443, 25.98559
1292.925, 25.84091
1293.407, 26.06239
1293.889, 26.42954
1294.371, 26.54075
1294.853, 26.30082
1295.335, 26.32621
1295.817, 26.62726
1296.299, 26.78782
1296.782, 26.47446
1297.264, 26.13654
1297.746, 26.18810
1298.228, 26.32364
1298.710, 26.20582
1299.192, 25.86033
1299.674, 25.71111
1300.156, 25.73709
1300.639, 25.79879
1301.121, 25.86873
1301.603, 25.90479
1302.085, 25.80105
1302.567, 25.75956
1303.049, 25.87577
1303.531, 26.14472
##END=



