##NAMES=Beryl
##RRUFFID=R050121
##IDEAL CHEMISTRY=Be_3_Al_2_Si_6_O_18_
##LOCALITY=Cruziero mine, San Jose, Minas Gerais, Brazil
##OWNER=RRUFF
##SOURCE=Carlos and Paulo Vasconcelos
##DESCRIPTION=Light blue fragment, variety aquamarine
##STATUS=The identification of this mineral has been confirmed by X-ray diffraction and chemical analysis
##URL=rruff.info/R050121
##MEASURED CHEMISTRY=(Be_0.96_Li_0.04_)_3_Al_2.00_Si_6.00_O_18_Î‡Na_0.09_Mg_0.03_
93.78320, 28.84301
94.26532, 29.10606
94.74744, 29.23119
95.22955, 29.14364
95.71167, 28.95631
96.19379, 28.66003
96.67590, 28.25700
97.15802, 27.95685
97.64014, 27.85542
98.12225, 27.86077
98.60437, 27.81571
99.08649, 27.66867
99.56860, 27.46921
100.0507, 27.30111
100.5328, 27.13309
101.0150, 26.93393
101.4971, 26.65549
101.9792, 26.29096
102.4613, 25.99488
102.9434, 25.84140
103.4255, 25.76765
103.9077, 25.75742
104.3898, 25.82089
104.8719, 25.90096
105.3540, 25.87838
105.8361, 25.70123
106.3182, 25.49802
106.8004, 25.29052
107.2825, 25.07914
107.7646, 24.84730
108.2467, 24.57465
108.7288, 24.27224
109.2109, 24.11191
109.6931, 24.24113
110.1752, 24.35922
110.6573, 24.34343
111.1394, 24.23826
111.6215, 24.18241
112.1036, 24.30782
112.5858, 24.65051
113.0679, 24.91085
113.5500, 24.99043
114.0321, 25.06147
114.5142, 25.28673
114.9964, 25.69127
115.4785, 26.09733
115.9606, 26.24861
116.4427, 26.16101
116.9248, 26.14771
117.4069, 26.34052
117.8891, 26.65253
118.3712, 26.90975
118.8533, 27.07568
119.3354, 27.17610
119.8175, 27.22138
120.2996, 27.21775
120.7818, 27.23475
121.2639, 27.34320
121.7460, 27.54760
122.2281, 27.71718
122.7102, 27.81535
123.1923, 27.87762
123.6745, 27.92152
124.1566, 27.94927
124.6387, 27.94757
125.1208, 27.88821
125.6029, 27.72750
126.0850, 27.60093
126.5672, 27.51240
127.0493, 27.45779
127.5314, 27.44855
128.0135, 27.48712
128.4956, 27.54699
128.9777, 27.55342
129.4599, 27.29062
129.9420, 27.22116
130.4241, 27.54021
130.9062, 28.04930
131.3883, 28.43894
131.8705, 28.52308
132.3526, 28.37646
132.8347, 28.42927
133.3168, 28.83288
133.7989, 29.23595
134.2810, 29.44971
134.7632, 29.51223
135.2453, 29.63361
135.7274, 29.98131
136.2095, 30.49720
136.6916, 30.93723
137.1737, 31.25647
137.6559, 31.51661
138.1380, 31.81601
138.6201, 32.18682
139.1022, 32.44262
139.5843, 32.34883
140.0664, 32.07749
140.5486, 31.86890
141.0307, 31.88114
141.5128, 32.01725
141.9949, 31.97822
142.4770, 31.65122
142.9591, 31.30527
143.4413, 31.06145
143.9234, 30.88587
144.4055, 30.71884
144.8876, 30.54509
145.3697, 30.36633
145.8518, 30.03045
146.3340, 29.46751
146.8161, 28.79380
147.2982, 27.96161
147.7803, 27.02664
148.2624, 26.11371
148.7445, 25.34032
149.2267, 24.73635
149.7088, 24.18749
150.1909, 23.67286
150.6730, 23.21371
151.1551, 22.83968
151.6372, 22.54584
152.1194, 22.28636
152.6015, 21.99783
153.0836, 21.64800
153.5657, 21.37592
154.0478, 21.23438
154.5299, 21.14471
155.0121, 21.02022
155.4942, 20.83603
155.9763, 20.65079
156.4584, 20.58047
156.9405, 20.63959
157.4227, 20.64557
157.9048, 20.47300
158.3869, 20.21578
158.8690, 20.08914
159.3511, 20.19547
159.8332, 20.37868
160.3154, 20.45759
160.7975, 20.43483
161.2796, 20.35399
161.7617, 20.17827
162.2438, 19.92308
162.7259, 19.81143
163.2081, 20.03185
163.6902, 20.30894
164.1723, 20.42827
164.6544, 20.37091
165.1365, 20.26174
165.6186, 20.23718
166.1008, 20.31867
166.5829, 20.38953
167.0650, 20.38773
167.5471, 20.39682
168.0292, 20.48798
168.5113, 20.67452
168.9935, 20.88953
169.4756, 21.01043
169.9577, 20.94711
170.4398, 20.96508
170.9219, 21.17776
171.4040, 21.41620
171.8862, 21.52499
172.3683, 21.44960
172.8504, 21.26949
173.3325, 21.17267
173.8146, 21.24740
174.2967, 21.31009
174.7789, 21.31895
175.2610, 21.32489
175.7431, 21.39039
176.2252, 21.54534
176.7073, 21.76834
177.1894, 21.99054
177.6716, 22.19175
178.1537, 22.41671
178.6358, 22.69909
179.1179, 23.01095
179.6000, 23.31950
180.0821, 23.62793
180.5643, 23.88994
181.0464, 23.96596
181.5285, 23.76869
182.0106, 23.55225
182.4927, 23.42278
182.9749, 23.37144
183.4570, 23.35783
183.9391, 23.36033
184.4212, 23.39717
184.9033, 23.50080
185.3854, 23.72523
185.8676, 23.92840
186.3497, 23.98620
186.8318, 23.89569
187.3139, 23.75959
187.7960, 23.52074
188.2781, 23.31071
188.7603, 23.31898
189.2424, 23.66004
189.7245, 24.05269
190.2066, 24.06945
190.6887, 23.57282
191.1708, 23.20271
191.6530, 23.33305
192.1351, 23.61997
192.6172, 23.78529
193.0993, 23.73033
193.5814, 23.51325
194.0635, 23.23403
194.5457, 22.85070
195.0278, 22.48879
195.5099, 22.08743
195.9920, 21.75204
196.4741, 21.62436
196.9562, 21.77712
197.4384, 22.09127
197.9205, 22.21622
198.4026, 21.96139
198.8847, 21.76513
199.3668, 21.69897
199.8489, 21.71214
200.3311, 21.74585
200.8132, 21.77032
201.2953, 21.79593
201.7774, 21.86337
202.2595, 22.16135
202.7416, 22.28611
203.2238, 22.03326
203.7059, 21.61712
204.1880, 21.35568
204.6701, 21.42987
205.1522, 21.74413
205.6344, 21.86820
206.1165, 21.56267
206.5986, 21.36287
207.0807, 21.44147
207.5628, 21.70127
208.0449, 21.98639
208.5271, 22.23934
209.0092, 22.42376
209.4913, 22.37698
209.9734, 21.97704
210.4555, 21.54963
210.9376, 21.16132
211.4198, 20.82740
211.9019, 20.58673
212.3840, 20.45998
212.8661, 20.45183
213.3482, 20.56289
213.8303, 20.90394
214.3125, 21.18117
214.7946, 21.21581
215.2767, 21.03534
215.7588, 20.76210
216.2409, 20.33607
216.7230, 19.94037
217.2052, 19.90274
217.6873, 20.40261
218.1694, 20.88555
218.6515, 20.84230
219.1336, 20.29556
219.6157, 19.85468
220.0979, 19.80166
220.5800, 19.94373
221.0621, 20.08783
221.5442, 20.22788
222.0263, 20.31276
222.5084, 20.24774
222.9906, 20.01154
223.4727, 19.85818
223.9548, 20.00714
224.4369, 20.18525
224.9190, 20.17206
225.4011, 19.92050
225.8833, 19.59030
226.3654, 19.34243
226.8475, 19.17202
227.3296, 19.11517
227.8117, 19.32430
228.2938, 19.55836
228.7760, 19.65253
229.2581, 19.57700
229.7402, 19.44340
230.2223, 19.39843
230.7044, 19.46524
231.1866, 19.54938
231.6687, 19.71159
232.1508, 19.83850
232.6329, 19.81360
233.1150, 19.63417
233.5971, 19.43958
234.0793, 19.46319
234.5614, 19.88985
235.0435, 20.06740
235.5256, 19.82209
236.0077, 19.48137
236.4898, 19.19463
236.9720, 19.01329
237.4541, 18.95295
237.9362, 19.06324
238.4183, 19.48369
238.9004, 19.72668
239.3825, 19.68048
239.8647, 19.57411
240.3468, 19.56376
240.8289, 19.66410
241.3110, 19.77288
241.7931, 19.75718
242.2752, 19.55228
242.7574, 19.40493
243.2395, 19.22256
243.7216, 19.15415
244.2037, 19.38902
244.6858, 19.90101
245.1679, 20.41971
245.6501, 20.63684
246.1322, 20.45943
246.6143, 20.31543
247.0964, 20.23924
247.5785, 20.16645
248.0606, 20.03681
248.5428, 19.85448
249.0249, 19.68577
249.5070, 19.59692
249.9891, 19.60205
250.4712, 19.61251
250.9533, 19.60523
251.4355, 19.62035
251.9176, 19.69949
252.3997, 19.83816
252.8818, 19.98537
253.3639, 20.10791
253.8460, 20.20019
254.3282, 20.23432
254.8103, 20.21476
255.2924, 20.13644
255.7745, 20.02700
256.2566, 19.87564
256.7387, 19.57669
257.2209, 18.98610
257.7030, 18.16810
258.1851, 17.56207
258.6672, 17.26472
259.1493, 17.10206
259.6314, 16.97880
260.1136, 16.89264
260.5957, 16.85101
261.0778, 16.91280
261.5599, 16.99936
262.0420, 16.89582
262.5241, 16.46136
263.0063, 16.00097
263.4884, 15.70276
263.9705, 15.56019
264.4526, 15.51313
264.9347, 15.51451
265.4168, 15.62619
265.8990, 15.96860
266.3811, 16.70675
266.8632, 17.32659
267.3453, 17.36270
267.8275, 16.88825
268.3096, 16.47260
268.7917, 16.31373
269.2738, 16.32482
269.7559, 16.35642
270.2380, 16.39740
270.7202, 16.50864
271.2023, 16.81249
271.6844, 17.26504
272.1665, 17.55586
272.6486, 17.52703
273.1307, 17.38527
273.6129, 17.36213
274.0950, 17.45654
274.5771, 17.51920
275.0592, 17.41247
275.5413, 17.17190
276.0234, 17.00664
276.5056, 16.96323
276.9877, 16.98758
277.4698, 17.04761
277.9519, 17.13527
278.4340, 17.21055
278.9161, 17.21589
279.3983, 17.17966
279.8804, 17.23232
280.3625, 17.39924
280.8446, 17.63530
281.3267, 18.01903
281.8088, 18.44965
282.2910, 18.68024
282.7731, 18.44817
283.2552, 17.91847
283.7373, 17.63925
284.2194, 17.67364
284.7015, 17.85878
285.1837, 18.23192
285.6658, 18.66468
286.1479, 18.95466
286.6300, 18.97347
287.1121, 18.82859
287.5942, 18.74625
288.0764, 18.71500
288.5585, 18.78121
289.0406, 19.06800
289.5227, 19.40896
290.0048, 19.61798
290.4869, 19.61852
290.9691, 19.50905
291.4512, 19.41337
291.9333, 19.26913
292.4154, 19.34574
292.8975, 19.92358
293.3796, 20.62080
293.8618, 21.14735
294.3439, 21.42966
294.8260, 21.60510
295.3081, 21.86958
295.7902, 22.26635
296.2723, 22.54407
296.7545, 22.47703
297.2366, 22.40778
297.7187, 22.58147
298.2008, 22.99634
298.6829, 23.41342
299.1650, 23.54069
299.6472, 23.33517
300.1293, 23.25082
300.6114, 23.45650
301.0935, 23.66338
301.5756, 23.66604
302.0577, 23.53568
302.5399, 23.52701
303.0220, 23.88894
303.5041, 24.60146
303.9862, 25.23471
304.4683, 25.77129
304.9504, 26.23797
305.4326, 26.60878
305.9147, 26.92459
306.3968, 27.25244
306.8789, 27.62629
307.3610, 28.04775
307.8431, 28.51499
308.3253, 29.02065
308.8074, 29.59321
309.2895, 30.28544
309.7716, 31.02419
310.2537, 31.66999
310.7358, 32.13993
311.2180, 32.60786
311.7001, 33.51045
312.1822, 35.14455
312.6643, 36.57167
313.1464, 37.35465
313.6285, 38.03809
314.1107, 39.02353
314.5928, 40.42647
315.0749, 42.17682
315.5570, 44.20774
316.0392, 46.57558
316.5213, 49.01701
317.0034, 51.18394
317.4855, 53.67823
317.9676, 56.80690
318.4497, 60.60909
318.9319, 64.97780
319.4140, 69.92784
319.8961, 75.51020
320.3782, 81.07217
320.8603, 86.37798
321.3424, 91.88039
321.8246, 98.40860
322.3067, 105.3379
322.7888, 111.3700
323.2709, 115.8123
323.7530, 118.5472
324.2351, 118.5084
324.7173, 114.9222
325.1994, 109.2977
325.6815, 101.4497
326.1636, 92.28804
326.6457, 82.77602
327.1278, 73.27563
327.6100, 64.10122
328.0921, 55.91724
328.5742, 48.67496
329.0563, 42.62157
329.5384, 37.98280
330.0205, 34.27985
330.5027, 31.22363
330.9848, 28.71287
331.4669, 26.63917
331.9490, 24.91875
332.4311, 23.63369
332.9132, 22.34263
333.3954, 20.70655
333.8775, 19.25508
334.3596, 18.38590
334.8417, 18.07309
335.3238, 17.92683
335.8059, 17.60162
336.2881, 17.09395
336.7702, 16.62610
337.2523, 16.20249
337.7344, 15.82497
338.2165, 15.50079
338.6986, 15.21975
339.1808, 14.94921
339.6629, 14.63715
340.1450, 14.32906
340.6271, 14.22980
341.1092, 14.50048
341.5913, 14.66626
342.0735, 14.43157
342.5556, 14.04139
343.0377, 13.81494
343.5198, 13.90524
344.0019, 14.09883
344.4840, 14.01491
344.9662, 13.56894
345.4483, 13.21573
345.9304, 13.12669
346.4125, 13.16731
346.8946, 13.31305
347.3767, 13.55706
347.8589, 13.73705
348.3410, 13.61944
348.8231, 13.21535
349.3052, 13.00659
349.7873, 13.22673
350.2694, 13.46983
350.7516, 13.42656
351.2337, 13.15170
351.7158, 12.89506
352.1979, 12.80052
352.6800, 12.83820
353.1621, 12.93032
353.6443, 13.11722
354.1264, 13.26239
354.6085, 13.26165
355.0906, 13.17369
355.5727, 13.08193
356.0548, 13.00959
356.5370, 12.95022
357.0191, 12.88252
357.5012, 12.80141
357.9833, 12.77097
358.4654, 12.82016
358.9475, 12.93878
359.4297, 13.13136
359.9118, 13.41879
360.3939, 13.68555
360.8760, 13.84686
361.3581, 13.91323
361.8402, 13.93987
362.3224, 13.93549
362.8045, 13.89767
363.2866, 13.78947
363.7687, 13.62239
364.2508, 13.53205
364.7329, 13.59433
365.2151, 13.75974
365.6972, 13.96527
366.1793, 14.21649
366.6614, 14.44555
367.1436, 14.57728
367.6257, 14.64483
368.1078, 14.75190
368.5899, 14.99960
369.0720, 15.21912
369.5541, 15.17521
370.0363, 14.92531
370.5184, 14.86982
371.0005, 15.24826
371.4826, 15.89460
371.9647, 16.44223
372.4468, 16.91262
372.9290, 17.24891
373.4111, 17.30300
373.8932, 17.22974
374.3753, 17.32575
374.8574, 17.67931
375.3395, 18.13719
375.8217, 18.47180
376.3038, 18.64558
376.7859, 19.05131
377.2680, 19.92578
377.7501, 20.91244
378.2322, 21.73551
378.7144, 22.37401
379.1965, 22.87801
379.6786, 23.22241
380.1607, 23.45381
380.6428, 24.06668
381.1249, 25.40252
381.6071, 26.67748
382.0892, 27.60756
382.5713, 28.28677
383.0534, 28.88098
383.5355, 29.45821
384.0176, 30.03730
384.4998, 30.66505
384.9819, 31.36269
385.4640, 32.08286
385.9461, 32.56660
386.4282, 33.23146
386.9103, 34.51672
387.3925, 36.43206
387.8746, 38.59836
388.3567, 40.57446
388.8388, 42.28575
389.3209, 44.36234
389.8030, 47.03476
390.2852, 49.78685
390.7673, 52.24399
391.2494, 54.64461
391.7315, 57.48277
392.2136, 61.05161
392.6957, 65.23641
393.1779, 69.56782
393.6600, 74.47668
394.1421, 78.89261
394.6242, 82.67139
395.1063, 86.00644
395.5884, 89.22977
396.0706, 92.35870
396.5527, 94.79652
397.0348, 95.80258
397.5169, 95.30748
397.9990, 93.62182
398.4811, 90.28059
398.9633, 86.13357
399.4454, 81.13706
399.9275, 75.56850
400.4096, 69.88797
400.8917, 64.37704
401.3738, 59.04956
401.8560, 53.93055
402.3381, 48.87453
402.8202, 44.35553
403.3023, 40.52908
403.7844, 37.20628
404.2665, 34.21861
404.7487, 31.52038
405.2308, 29.10107
405.7129, 26.93353
406.1950, 24.99556
406.6771, 23.49608
407.1592, 22.82847
407.6414, 22.26775
408.1235, 21.21257
408.6056, 19.75000
409.0877, 18.40927
409.5698, 17.51314
410.0519, 16.95472
410.5341, 16.52015
411.0162, 16.24371
411.4983, 15.94478
411.9804, 15.45391
412.4625, 14.88348
412.9446, 14.42700
413.4268, 14.13815
413.9089, 13.92982
414.3910, 13.74468
414.8731, 13.58473
415.3553, 13.46594
415.8374, 13.40663
416.3195, 13.36882
416.8016, 13.31093
417.2837, 13.24079
417.7658, 13.10596
418.2480, 12.78548
418.7301, 12.44965
419.2122, 12.32543
419.6943, 12.42841
420.1764, 12.56324
420.6585, 12.58167
421.1407, 12.49136
421.6228, 12.41247
422.1049, 12.31187
422.5870, 12.25570
423.0691, 12.35735
423.5512, 12.50752
424.0334, 12.47164
424.5155, 12.14820
424.9976, 11.71330
425.4797, 11.50258
425.9618, 11.67769
426.4439, 11.76545
426.9261, 11.69393
427.4082, 11.59455
427.8903, 11.58759
428.3724, 11.65533
428.8545, 11.66630
429.3366, 11.49532
429.8188, 11.15559
430.3009, 10.95951
430.7830, 11.04234
431.2651, 11.12878
431.7472, 11.18389
432.2293, 11.21683
432.7115, 11.22806
433.1936, 11.21974
433.6757, 11.22708
434.1578, 11.32443
434.6399, 11.55416
435.1220, 11.72215
435.6042, 11.79206
436.0863, 11.81248
436.5684, 11.77353
437.0505, 11.69797
437.5326, 11.64088
438.0147, 11.62130
438.4969, 11.65453
438.9790, 11.81801
439.4611, 12.17398
439.9432, 12.50229
440.4253, 12.67970
440.9074, 12.79873
441.3896, 12.94124
441.8717, 13.11971
442.3538, 13.35040
442.8359, 13.69367
443.3180, 14.12245
443.8001, 14.44840
444.2823, 14.60865
444.7644, 14.71047
445.2465, 14.82413
445.7286, 14.95718
446.2107, 15.16497
446.6928, 15.54998
447.1750, 15.95808
447.6571, 16.23059
448.1392, 16.37175
448.6213, 16.46427
449.1034, 16.55539
449.5855, 16.62096
450.0677, 16.60405
450.5498, 16.56970
451.0319, 16.34816
451.5140, 15.72479
451.9961, 14.96833
452.4782, 14.42157
452.9604, 14.14282
453.4425, 13.95961
453.9246, 13.70293
454.4067, 13.36656
454.8888, 13.01773
455.3709, 12.58406
455.8531, 12.21938
456.3352, 12.02100
456.8173, 11.92162
457.2994, 11.80421
457.7815, 11.61509
458.2636, 11.39058
458.7458, 11.20567
459.2279, 11.07407
459.7100, 10.95529
460.1921, 10.85934
460.6742, 10.76443
461.1563, 10.63893
461.6385, 10.49769
462.1206, 10.39674
462.6027, 10.39014
463.0848, 10.45710
463.5669, 10.49175
464.0491, 10.49179
464.5312, 10.46188
465.0133, 10.39142
465.4954, 10.30033
465.9775, 10.20133
466.4597, 10.09524
466.9418, 10.00126
467.4239, 9.925796
467.9060, 9.873264
468.3881, 9.886510
468.8702, 10.01187
469.3524, 10.12543
469.8345, 10.09639
470.3166, 9.968487
470.7987, 9.862969
471.2808, 9.787364
471.7629, 9.764095
472.2451, 9.850465
472.7272, 10.02205
473.2093, 10.15319
473.6914, 10.18887
474.1735, 10.16178
474.6556, 10.12854
475.1378, 10.08780
475.6199, 10.04680
476.1020, 9.998492
476.5841, 9.955695
477.0662, 9.945035
477.5483, 9.958503
478.0305, 9.938731
478.5126, 9.830337
478.9947, 9.653041
479.4768, 9.585697
479.9589, 9.752036
480.4410, 9.877828
480.9232, 9.865005
481.4053, 9.827834
481.8874, 9.935163
482.3695, 10.20420
482.8516, 10.43848
483.3337, 10.37175
483.8159, 9.959055
484.2980, 9.624446
484.7801, 9.323754
485.2622, 9.165386
485.7443, 9.276468
486.2264, 9.529114
486.7086, 9.728928
487.1907, 9.797532
487.6728, 9.773120
488.1549, 9.672298
488.6370, 9.485169
489.1191, 9.397487
489.6013, 9.516714
490.0834, 9.674787
490.5655, 9.729564
491.0476, 9.689641
491.5297, 9.612045
492.0118, 9.458434
492.4940, 9.313761
492.9761, 9.321696
493.4582, 9.475195
493.9403, 9.591940
494.4224, 9.568192
494.9045, 9.458193
495.3867, 9.394926
495.8688, 9.372007
496.3509, 9.396469
496.8330, 9.522056
497.3151, 9.666221
497.7972, 9.744067
498.2794, 9.745469
498.7615, 9.692603
499.2436, 9.588225
499.7257, 9.441454
500.2078, 9.416599
500.6899, 9.675464
501.1721, 9.860514
501.6542, 9.861573
502.1363, 9.786830
502.6184, 9.753961
503.1005, 9.793925
503.5826, 9.859011
504.0648, 9.884515
504.5469, 9.862728
505.0290, 9.881834
505.5111, 9.987314
505.9932, 10.07777
506.4753, 10.07074
506.9575, 10.03435
507.4396, 10.08488
507.9217, 10.27853
508.4038, 10.52513
508.8859, 10.74356
509.3680, 10.93052
509.8502, 11.00300
510.3323, 10.87651
510.8144, 10.73702
511.2965, 10.78087
511.7786, 10.97865
512.2607, 11.19327
512.7429, 11.46457
513.2250, 11.68059
513.7071, 11.68402
514.1892, 11.53031
514.6713, 11.46137
515.1534, 11.59206
515.6356, 11.84205
516.1177, 12.05597
516.5998, 12.22136
517.0819, 12.38074
517.5640, 12.50973
518.0461, 12.65405
518.5283, 12.82263
519.0104, 13.03283
519.4925, 13.33954
519.9746, 13.79457
520.4567, 14.33003
520.9388, 14.67399
521.4210, 14.65136
521.9031, 14.76598
522.3852, 15.20694
522.8673, 15.68896
523.3494, 15.96886
523.8315, 16.06427
524.3137, 16.20575
524.7958, 16.61648
525.2779, 17.20491
525.7600, 17.64405
526.2421, 17.91285
526.7242, 18.10853
527.2064, 18.24916
527.6885, 18.34860
528.1706, 18.46753
528.6527, 18.64799
529.1348, 18.62985
529.6169, 18.10765
530.0991, 17.36220
530.5812, 16.88598
531.0633, 16.73535
531.5454, 16.60504
532.0275, 16.26471
532.5096, 15.75081
532.9918, 15.32506
533.4739, 15.13652
533.9560, 14.83478
534.4381, 14.21129
534.9202, 13.51200
535.4023, 13.01561
535.8845, 12.76635
536.3666, 12.60632
536.8487, 12.38015
537.3308, 12.08770
537.8129, 11.84125
538.2951, 11.69796
538.7772, 11.52536
539.2593, 11.28666
539.7415, 11.00911
540.2236, 10.69997
540.7057, 10.36550
541.1878, 10.07251
541.6699, 9.906466
542.1520, 9.850712
542.6342, 9.787540
543.1163, 9.707009
543.5984, 9.624477
544.0805, 9.549956
544.5626, 9.480655
545.0447, 9.414416
545.5269, 9.363875
546.0090, 9.291841
546.4911, 9.158620
546.9732, 8.992297
547.4553, 8.863343
547.9374, 8.786196
548.4196, 8.675550
548.9017, 8.421495
549.3838, 8.016202
549.8659, 7.814244
550.3480, 7.918262
550.8301, 8.063002
551.3123, 8.227997
551.7944, 8.370153
552.2765, 8.434226
552.7586, 8.409623
553.2407, 8.340907
553.7228, 8.271313
554.2050, 8.198693
554.6871, 8.169595
555.1692, 8.238613
555.6513, 8.272624
556.1334, 8.146734
556.6155, 7.993115
557.0977, 8.023963
557.5798, 8.323155
558.0619, 8.593566
558.5440, 8.491719
559.0261, 8.128477
559.5082, 7.932950
559.9904, 7.990677
560.4725, 8.092060
560.9546, 8.061406
561.4367, 7.938408
561.9188, 7.926257
562.4009, 8.162837
562.8831, 8.339248
563.3652, 8.281840
563.8473, 8.120351
564.3294, 8.056296
564.8115, 8.121950
565.2936, 8.166069
565.7758, 8.019474
566.2579, 7.680551
566.7400, 7.490140
567.2221, 7.568297
567.7042, 7.659212
568.1863, 7.738427
568.6685, 7.800212
569.1506, 7.844528
569.6327, 7.869594
570.1148, 7.864922
570.5969, 7.766369
571.0790, 7.609283
571.5612, 7.659229
572.0433, 8.011495
572.5254, 8.303103
573.0075, 8.291821
573.4896, 8.129603
573.9717, 8.040167
574.4539, 8.052037
574.9360, 8.093710
575.4181, 8.147341
575.9002, 8.203403
576.3823, 8.265946
576.8644, 8.329039
577.3466, 8.325168
577.8287, 8.183346
578.3108, 7.952899
578.7929, 7.877577
579.2750, 8.161492
579.7571, 8.334674
580.2393, 8.256352
580.7214, 8.144917
581.2035, 8.199385
581.6856, 8.402957
582.1677, 8.588979
582.6498, 8.636607
583.1320, 8.566578
583.6141, 8.412167
584.0962, 8.103847
584.5783, 7.950460
585.0604, 8.134126
585.5425, 8.435326
586.0247, 8.744359
586.5068, 9.037717
586.9889, 9.129712
587.4710, 8.755614
587.9531, 8.259762
588.4352, 8.057552
588.9174, 8.116662
589.3995, 8.196428
589.8816, 8.194737
590.3637, 8.160192
590.8458, 8.182814
591.3279, 8.306724
591.8101, 8.358208
592.2922, 8.262621
592.7743, 8.169326
593.2564, 8.171407
593.7385, 8.232670
594.2206, 8.279054
594.7028, 8.276836
595.1849, 8.236486
595.6670, 8.172031
596.1491, 8.081775
596.6312, 7.973648
597.1133, 7.786651
597.5955, 7.664890
598.0776, 7.683342
598.5597, 7.813329
599.0418, 8.019062
599.5239, 8.342817
600.0060, 8.623277
600.4882, 8.720956
600.9703, 8.679250
601.4524, 8.584396
601.9345, 8.449868
602.4166, 8.330285
602.8987, 8.273695
603.3809, 8.277276
603.8630, 8.304588
604.3451, 8.333045
604.8272, 8.410340
605.3093, 8.596633
605.7914, 8.804051
606.2736, 8.953753
606.7557, 9.032517
607.2378, 9.062944
607.7199, 9.046638
608.2020, 9.005956
608.6841, 9.066151
609.1663, 9.273630
609.6484, 9.447599
610.1305, 9.503086
610.6126, 9.525280
611.0947, 9.574050
611.5768, 9.654100
612.0590, 9.774893
612.5411, 9.949430
613.0232, 10.16162
613.5053, 10.40285
613.9874, 10.66759
614.4695, 10.93403
614.9517, 11.19203
615.4338, 11.45977
615.9159, 11.77324
616.3980, 12.14875
616.8801, 12.51166
617.3622, 12.74969
617.8444, 13.09881
618.3265, 13.72172
618.8086, 14.50312
619.2907, 15.24105
619.7728, 15.86678
620.2549, 16.50076
620.7371, 17.36209
621.2192, 18.43435
621.7013, 19.29653
622.1834, 19.90992
622.6655, 20.35440
623.1476, 20.67728
623.6298, 20.85060
624.1119, 20.83367
624.5940, 20.65170
625.0761, 20.19376
625.5582, 19.24100
626.0403, 18.07741
626.5225, 17.04522
627.0046, 16.17131
627.4867, 15.34845
627.9688, 14.48936
628.4509, 13.64872
628.9330, 12.99520
629.4152, 12.64598
629.8973, 12.28044
630.3794, 11.80698
630.8615, 11.39009
631.3436, 11.15106
631.8257, 11.04290
632.3079, 10.93548
632.7900, 10.76395
633.2721, 10.56978
633.7542, 10.40109
634.2363, 10.25872
634.7184, 10.15305
635.2006, 10.08456
635.6827, 10.05935
636.1648, 10.10327
636.6469, 10.20414
637.1291, 10.26142
637.6112, 10.21616
638.0933, 10.19770
638.5754, 10.27177
639.0576, 10.38101
639.5397, 10.46728
640.0218, 10.51841
640.5039, 10.54200
640.9860, 10.53926
641.4681, 10.51949
641.9503, 10.53446
642.4324, 10.60917
642.9145, 10.65560
643.3966, 10.63053
643.8787, 10.58989
644.3608, 10.56789
644.8430, 10.56378
645.3251, 10.56214
645.8072, 10.51077
646.2893, 10.50085
646.7714, 10.70673
647.2535, 11.03900
647.7357, 11.17677
648.2178, 11.01706
648.6999, 10.76704
649.1820, 10.64229
649.6641, 10.64321
650.1462, 10.76057
650.6284, 11.14400
651.1105, 11.45260
651.5926, 11.56516
652.0747, 11.60248
652.5568, 11.68830
653.0389, 11.83722
653.5211, 11.97337
654.0032, 12.00541
654.4853, 11.99283
654.9674, 12.13065
655.4495, 12.43611
655.9316, 12.69139
656.4138, 12.80738
656.8959, 12.86009
657.3780, 12.88694
657.8601, 12.88326
658.3422, 13.10474
658.8243, 13.82871
659.3065, 14.53498
659.7886, 14.87730
660.2707, 15.02830
660.7528, 15.30513
661.2349, 15.79020
661.7170, 16.30859
662.1992, 16.62130
662.6813, 16.74812
663.1634, 17.18126
663.6455, 18.06140
664.1276, 18.98058
664.6097, 19.73590
665.0919, 20.52295
665.5740, 21.57976
666.0561, 22.90827
666.5382, 24.13931
667.0203, 24.88523
667.5024, 25.61794
667.9846, 26.84381
668.4667, 28.49183
668.9488, 30.31541
669.4309, 32.22512
669.9130, 34.24508
670.3951, 36.42358
670.8773, 38.76840
671.3594, 41.20766
671.8415, 43.92101
672.3236, 46.52526
672.8057, 48.74728
673.2878, 50.93127
673.7700, 53.33437
674.2521, 56.03234
674.7342, 59.19489
675.2163, 63.13039
675.6984, 67.54053
676.1805, 71.59818
676.6627, 75.35880
677.1448, 79.93887
677.6269, 85.75369
678.1090, 92.55940
678.5911, 99.94380
679.0732, 107.8768
679.5554, 117.1719
680.0375, 127.9689
680.5196, 139.9641
681.0017, 153.0453
681.4838, 167.2178
681.9659, 182.6807
682.4481, 199.3129
682.9302, 216.3241
683.4123, 233.4119
683.8944, 250.2104
684.3765, 266.5687
684.8586, 283.1755
685.3408, 294.8356
685.8229, 300.3518
686.3050, 299.4827
686.7871, 290.5781
687.2692, 274.0287
687.7513, 255.4806
688.2335, 234.6573
688.7156, 213.2262
689.1977, 190.8315
689.6798, 168.9998
690.1619, 149.8262
690.6440, 133.7989
691.1262, 119.9487
691.6083, 107.4240
692.0904, 96.20297
692.5725, 86.09639
693.0546, 77.08271
693.5367, 69.38000
694.0189, 63.42149
694.5010, 58.54079
694.9831, 54.32519
695.4652, 50.70795
695.9473, 47.20048
696.4294, 43.39626
696.9116, 39.91780
697.3937, 37.24239
697.8758, 35.17542
698.3579, 33.41551
698.8400, 31.87213
699.3221, 30.48153
699.8043, 29.19862
700.2864, 28.01925
700.7685, 26.92608
701.2506, 25.98511
701.7327, 24.98974
702.2148, 23.78465
702.6970, 22.61712
703.1791, 21.62539
703.6612, 20.81459
704.1433, 20.14658
704.6254, 19.68623
705.1075, 19.27059
705.5897, 18.76642
706.0718, 18.21127
706.5539, 17.66496
707.0360, 17.14355
707.5181, 16.71555
708.0002, 16.45021
708.4824, 16.30647
708.9645, 16.06753
709.4466, 15.64382
709.9287, 15.29488
710.4108, 15.17385
710.8929, 15.00849
711.3751, 14.57116
711.8572, 13.96911
712.3393, 13.49578
712.8214, 13.27894
713.3035, 13.15241
713.7856, 13.02962
714.2678, 12.87851
714.7499, 12.57851
715.2320, 12.12967
715.7141, 11.74919
716.1962, 11.58681
716.6783, 11.58648
717.1605, 11.59064
717.6426, 11.64302
718.1247, 11.61218
718.6068, 11.41193
719.0889, 11.22312
719.5710, 11.13721
720.0532, 11.11512
720.5353, 11.09113
721.0174, 11.04872
721.4995, 10.97489
721.9816, 10.84151
722.4637, 10.67497
722.9459, 10.50285
723.4280, 10.33490
723.9101, 10.26058
724.3922, 10.34098
724.8743, 10.48011
725.3564, 10.49139
725.8386, 10.32442
726.3207, 10.21075
726.8028, 10.18804
727.2849, 10.17234
727.7670, 10.15848
728.2491, 10.12693
728.7313, 10.04525
729.2134, 9.910300
729.6955, 9.779626
730.1776, 9.653596
730.6597, 9.577903
731.1418, 9.707490
731.6240, 9.985532
732.1061, 10.04923
732.5882, 9.750138
733.0703, 9.365911
733.5524, 9.245429
734.0345, 9.404206
734.5167, 9.452081
734.9988, 9.212190
735.4809, 9.093362
735.9631, 9.314129
736.4452, 9.560293
736.9273, 9.532255
737.4094, 9.260895
737.8915, 9.024577
738.3737, 8.967413
738.8558, 9.008112
739.3379, 9.085734
739.8200, 9.186459
740.3021, 9.274156
740.7842, 9.341310
741.2664, 9.377048
741.7485, 9.368314
742.2306, 9.324702
742.7127, 9.293523
743.1948, 9.284372
743.6769, 9.270135
744.1591, 9.243744
744.6412, 9.217754
745.1233, 9.200917
745.6054, 9.189024
746.0875, 9.166983
746.5696, 9.122187
747.0518, 9.101659
747.5339, 9.184838
748.0160, 9.297794
748.4981, 9.266065
748.9802, 9.110882
749.4623, 9.078570
749.9445, 9.309323
750.4266, 9.648910
750.9087, 9.826113
751.3908, 9.840940
751.8729, 9.683448
752.3550, 9.119488
752.8372, 8.693089
753.3193, 8.611002
753.8014, 8.723087
754.2835, 8.908569
754.7656, 9.146688
755.2477, 9.327369
755.7299, 9.364623
756.2120, 9.351681
756.6941, 9.353877
757.1762, 9.379913
757.6583, 9.467875
758.1404, 9.621207
758.6226, 9.742837
759.1047, 9.727602
759.5868, 9.600133
760.0689, 9.522328
760.5510, 9.486452
761.0331, 9.526711
761.5153, 9.728247
761.9974, 9.929183
762.4795, 10.00380
762.9616, 9.982855
763.4437, 9.962956
763.9258, 9.935050
764.4080, 9.961843
764.8901, 10.12688
765.3722, 10.32859
765.8543, 10.47191
766.3364, 10.53949
766.8185, 10.50525
767.3007, 10.34788
767.7828, 10.17333
768.2649, 10.18822
768.7470, 10.40071
769.2291, 10.58611
769.7112, 10.76085
770.1934, 10.83871
770.6755, 10.71686
771.1576, 10.51271
771.6397, 10.44156
772.1218, 10.52910
772.6039, 10.55052
773.0861, 10.43398
773.5682, 10.28171
774.0503, 10.12742
774.5324, 9.980546
775.0145, 9.812351
775.4966, 9.640510
775.9788, 9.598484
776.4609, 9.868626
776.9430, 10.27779
777.4251, 10.37012
777.9072, 10.15449
778.3893, 10.02373
778.8715, 10.09319
779.3536, 10.16703
779.8357, 10.05952
780.3178, 9.804398
780.7999, 9.634497
781.2820, 9.534535
781.7642, 9.540054
782.2463, 9.842960
782.7284, 10.07338
783.2105, 9.864122
783.6926, 9.430607
784.1747, 9.270819
784.6569, 9.585007
785.1390, 9.939762
785.6211, 9.961278
786.1032, 9.749207
786.5853, 9.403763
787.0674, 8.975294
787.5496, 8.764631
788.0317, 8.921162
788.5138, 9.207203
788.9959, 9.271712
789.4780, 9.090287
789.9601, 9.042507
790.4423, 9.237563
790.9244, 9.391049
791.4065, 9.386616
791.8886, 9.355037
792.3707, 9.433457
792.8528, 9.594517
793.3350, 9.659629
793.8171, 9.523597
794.2992, 9.340783
794.7813, 9.154680
795.2634, 9.006613
795.7455, 8.960128
796.2277, 9.013890
796.7098, 9.140552
797.1919, 9.333990
797.6740, 9.518268
798.1561, 9.526592
798.6382, 9.351454
799.1204, 9.178023
799.6025, 8.964876
800.0846, 8.917231
800.5667, 9.266763
801.0488, 9.751479
801.5309, 9.852947
802.0131, 9.508102
802.4952, 9.264974
802.9773, 9.284066
803.4594, 9.283837
803.9415, 9.060257
804.4236, 8.798067
804.9058, 8.770896
805.3879, 8.977015
805.8700, 9.132038
806.3521, 8.996472
806.8342, 8.776414
807.3163, 8.821657
807.7985, 9.064957
808.2806, 9.231730
808.7627, 9.272496
809.2448, 9.221022
809.7269, 9.080153
810.2090, 8.897836
810.6912, 8.824637
811.1733, 8.903360
811.6554, 8.989868
812.1375, 9.158794
812.6196, 9.246420
813.1017, 9.111034
813.5839, 8.898468
814.0660, 8.816736
814.5481, 8.897824
815.0302, 8.959916
815.5123, 8.874333
815.9944, 8.789260
816.4766, 8.881492
816.9587, 9.041122
817.4408, 9.034877
817.9229, 8.832822
818.4050, 8.625237
818.8871, 8.573150
819.3693, 8.622284
819.8514, 8.606655
820.3335, 8.519411
820.8156, 8.557874
821.2977, 8.799304
821.7798, 9.026135
822.2620, 9.096012
822.7441, 9.044303
823.2262, 8.960523
823.7083, 8.755777
824.1904, 8.726410
824.6725, 9.107327
825.1547, 9.414450
825.6368, 9.359019
826.1189, 9.132803
826.6010, 9.001133
827.0831, 9.010345
827.5652, 9.020164
828.0474, 8.878803
828.5295, 8.737573
829.0116, 8.821993
829.4937, 9.047996
829.9758, 9.225584
830.4579, 9.305548
830.9401, 9.222306
831.4222, 8.876195
831.9043, 8.459499
832.3864, 8.663803
832.8685, 9.709644
833.3506, 10.23727
833.8328, 9.961910
834.3149, 9.494044
834.7971, 9.029050
835.2792, 8.641541
835.7613, 8.489679
836.2434, 8.625264
836.7255, 8.704179
837.2076, 8.596704
837.6898, 8.506461
838.1719, 8.527246
838.6540, 8.623455
839.1361, 8.805969
839.6182, 9.031959
840.1003, 9.120008
840.5825, 8.886077
841.0646, 8.575923
841.5467, 8.540392
842.0288, 8.708822
842.5109, 8.882620
842.9930, 9.028240
843.4752, 9.094888
843.9573, 9.040362
844.4394, 8.931261
844.9215, 8.916085
845.4036, 9.020708
845.8857, 9.085267
846.3679, 9.083614
846.8500, 9.089627
847.3321, 9.185491
847.8142, 9.261581
848.2963, 9.150143
848.7784, 8.866162
849.2606, 8.721737
849.7427, 8.893965
850.2248, 9.068356
850.7069, 9.128908
851.1890, 9.126624
851.6711, 9.095125
852.1533, 9.051302
852.6354, 9.019775
853.1175, 9.013769
853.5996, 9.013876
854.0817, 8.978034
854.5638, 8.935117
855.0460, 8.999140
855.5281, 9.157506
856.0102, 9.215302
856.4923, 9.088070
856.9744, 8.887589
857.4565, 8.747436
857.9387, 8.667437
858.4208, 8.660697
858.9029, 8.755331
859.3850, 8.853913
859.8671, 8.913855
860.3492, 8.999012
860.8314, 9.246082
861.3135, 9.549955
861.7956, 9.591990
862.2777, 9.167472
862.7598, 8.890890
863.2419, 9.074032
863.7241, 9.305346
864.2062, 9.329642
864.6883, 9.196836
865.1704, 8.967253
865.6525, 8.682379
866.1346, 8.524282
866.6168, 8.751038
867.0989, 9.097024
867.5810, 9.112345
868.0631, 8.884824
868.5452, 8.702910
869.0273, 8.625317
869.5095, 8.601009
869.9916, 8.595365
870.4737, 8.608371
870.9558, 8.651813
871.4379, 8.742832
871.9200, 8.759686
872.4022, 8.662004
872.8843, 8.568564
873.3664, 8.511205
873.8485, 8.501021
874.3306, 8.586690
874.8127, 8.774984
875.2949, 8.871979
875.7770, 8.809662
876.2591, 8.726357
876.7412, 8.611538
877.2233, 8.531835
877.7054, 8.589301
878.1876, 8.730462
878.6697, 8.791975
879.1518, 8.694776
879.6339, 8.572641
880.1160, 8.520114
880.5981, 8.514965
881.0803, 8.546133
881.5624, 8.596429
882.0445, 8.622689
882.5266, 8.609556
883.0087, 8.565073
883.4908, 8.498641
883.9730, 8.406753
884.4551, 8.225003
884.9372, 7.936089
885.4193, 7.924494
885.9014, 8.354412
886.3835, 8.720429
886.8657, 8.615780
887.3478, 8.238252
887.8299, 8.150282
888.3120, 8.549845
888.7941, 8.709001
889.2762, 8.444913
889.7584, 8.164808
890.2405, 7.889426
890.7226, 7.723720
891.2047, 7.876516
891.6868, 8.294637
892.1689, 8.500693
892.6511, 8.139390
893.1332, 7.802373
893.6153, 7.850334
894.0974, 8.028422
894.5795, 8.058202
895.0616, 7.967325
895.5438, 7.931916
896.0259, 8.024476
896.5080, 8.132879
896.9901, 8.134707
897.4722, 8.064079
897.9543, 7.959246
898.4365, 7.844033
898.9186, 7.875834
899.4007, 8.099630
899.8828, 8.320118
900.3649, 8.359246
900.8470, 8.272627
901.3292, 8.263757
901.8113, 8.347788
902.2934, 8.450953
902.7755, 8.630323
903.2576, 8.680801
903.7397, 8.399507
904.2219, 8.006283
904.7040, 7.871836
905.1861, 8.036941
905.6682, 8.160852
906.1503, 8.270593
906.6324, 8.297037
907.1146, 8.118283
907.5967, 7.939120
908.0788, 7.947340
908.5609, 8.096789
909.0430, 8.217196
909.5251, 8.243289
910.0073, 8.286479
910.4894, 8.503218
910.9715, 8.690972
911.4536, 8.566331
911.9357, 8.274448
912.4178, 8.144041
912.9000, 8.244458
913.3821, 8.380149
913.8642, 8.388514
914.3463, 8.339417
914.8284, 8.353433
915.3105, 8.425008
915.7927, 8.539565
916.2748, 8.693104
916.7569, 8.865787
917.2390, 8.937263
917.7211, 9.195060
918.2032, 9.098019
918.6854, 9.204190
919.1675, 9.283282
919.6496, 9.110518
920.1317, 9.330632
920.6138, 9.114945
921.0959, 8.789117
921.5781, 8.620570
922.0602, 8.580121
922.5423, 8.525591
923.0244, 8.436490
923.5065, 8.371427
923.9886, 8.407948
924.4708, 8.383606
924.9529, 8.099234
925.4350, 7.786600
925.9171, 7.785341
926.3992, 8.103884
926.8813, 8.362390
927.3635, 8.401483
927.8456, 8.353983
928.3277, 8.269581
928.8098, 8.157230
929.2919, 8.000876
929.7740, 7.828053
930.2562, 7.701294
930.7383, 7.646985
931.2204, 7.635176
931.7025, 7.655062
932.1846, 7.687550
932.6667, 7.684903
933.1489, 7.662051
933.6310, 7.672862
934.1132, 7.730199
934.5953, 7.835422
935.0774, 7.999109
935.5595, 8.172628
936.0416, 8.245266
936.5237, 8.217078
937.0059, 8.094357
937.4880, 7.851938
937.9701, 7.660715
938.4522, 7.584642
938.9343, 7.600252
939.4164, 7.702127
939.8986, 7.880770
940.3807, 7.964104
940.8628, 7.889108
941.3449, 7.841824
941.8270, 7.826135
942.3091, 7.857178
942.7913, 8.025421
943.2734, 8.209324
943.7555, 8.186632
944.2376, 7.916030
944.7197, 7.703465
945.2018, 7.621930
945.6840, 7.577803
946.1661, 7.548051
946.6482, 7.531179
947.1303, 7.514049
947.6124, 7.510528
948.0945, 7.567529
948.5767, 7.715335
949.0588, 7.850953
949.5409, 7.894913
950.0230, 7.910686
950.5051, 7.978987
950.9872, 8.061610
951.4694, 8.060636
951.9515, 7.974280
952.4336, 7.917140
952.9157, 7.976623
953.3978, 8.079307
953.8799, 8.148080
954.3621, 8.169641
954.8442, 8.035508
955.3263, 7.786151
955.8084, 7.768742
956.2905, 8.121390
956.7726, 8.492244
957.2548, 8.457314
957.7369, 8.125834
958.2190, 8.004251
958.7011, 8.107177
959.1832, 8.081722
959.6653, 7.835716
960.1475, 7.667926
960.6296, 7.771468
961.1117, 8.020026
961.5938, 8.194036
962.0759, 8.296194
962.5580, 8.287951
963.0402, 8.071828
963.5223, 7.953859
964.0044, 8.057652
964.4865, 8.208193
964.9686, 8.264005
965.4507, 8.262771
965.9329, 8.333488
966.4150, 8.539573
966.8971, 8.645432
967.3792, 8.530043
967.8613, 8.440619
968.3434, 8.482270
968.8256, 8.581386
969.3077, 8.708075
969.7898, 8.828137
970.2719, 8.810142
970.7540, 8.489874
971.2361, 8.309796
971.7183, 8.646171
972.2004, 9.006577
972.6825, 8.942154
973.1646, 8.661142
973.6467, 8.525891
974.1288, 8.602735
974.6110, 8.728048
975.0931, 8.829656
975.5752, 8.902413
976.0573, 8.926920
976.5394, 8.928460
977.0215, 8.964358
977.5037, 9.012697
977.9858, 8.955626
978.4679, 8.764419
978.9500, 8.649653
979.4321, 8.882360
979.9142, 9.264923
980.3964, 9.370500
980.8785, 9.280091
981.3606, 9.310464
981.8427, 9.491435
982.3248, 9.598410
982.8069, 9.506021
983.2891, 9.362453
983.7712, 9.396399
984.2533, 9.578464
984.7354, 9.698456
985.2175, 9.755811
985.6996, 9.749450
986.1818, 9.661366
986.6639, 9.643189
987.1460, 9.828588
987.6281, 10.09303
988.1102, 10.12894
988.5923, 9.884047
989.0745, 9.816910
989.5566, 9.993308
990.0387, 10.15617
990.5208, 10.24857
991.0029, 10.27440
991.4850, 10.18140
991.9672, 10.03680
992.4493, 10.10753
992.9314, 10.47765
993.4135, 10.86420
993.8956, 11.36762
994.3777, 11.74917
994.8599, 11.83870
995.3420, 11.84923
995.8241, 11.98207
996.3062, 12.21745
996.7883, 12.42532
997.2704, 12.57558
997.7526, 12.73323
998.2347, 12.84635
998.7168, 13.03829
999.1989, 13.39415
999.6810, 13.85018
1000.163, 14.33468
1000.645, 14.84092
1001.127, 15.37000
1001.609, 15.99448
1002.092, 16.52967
1002.574, 16.76625
1003.056, 17.01542
1003.538, 17.56354
1004.020, 18.27606
1004.502, 18.87793
1004.984, 19.33480
1005.466, 19.89234
1005.949, 20.73260
1006.431, 21.63800
1006.913, 22.49638
1007.395, 23.29739
1007.877, 23.99770
1008.359, 24.63182
1008.841, 25.28674
1009.323, 25.98410
1009.805, 26.64453
1010.288, 27.19622
1010.770, 27.68200
1011.252, 28.19607
1011.734, 28.65816
1012.216, 28.86189
1012.698, 28.85809
1013.180, 29.00601
1013.662, 29.42765
1014.145, 29.54920
1014.627, 28.57395
1015.109, 27.08567
1015.591, 26.27644
1016.073, 25.96369
1016.555, 25.55613
1017.037, 24.98877
1017.519, 24.48507
1018.001, 24.15975
1018.484, 23.90377
1018.966, 23.62763
1019.448, 23.28425
1019.930, 22.59895
1020.412, 21.63238
1020.894, 20.93677
1021.376, 20.60676
1021.858, 20.34443
1022.341, 19.97564
1022.823, 19.61093
1023.305, 19.44368
1023.787, 19.44834
1024.269, 19.34821
1024.751, 19.13322
1025.233, 19.02088
1025.715, 19.06755
1026.198, 19.11632
1026.680, 19.05794
1027.162, 18.97199
1027.644, 19.01945
1028.126, 19.20454
1028.608, 19.34057
1029.090, 19.43392
1029.572, 19.41953
1030.054, 19.21776
1030.536, 19.10369
1031.019, 19.28105
1031.501, 19.65030
1031.983, 20.01692
1032.465, 20.38927
1032.947, 20.67755
1033.429, 20.86856
1033.911, 20.99642
1034.393, 20.97788
1034.876, 21.06767
1035.358, 21.51831
1035.840, 22.15545
1036.322, 22.53179
1036.804, 22.53333
1037.286, 22.84491
1037.768, 23.72635
1038.250, 24.44537
1038.733, 24.74067
1039.215, 24.95492
1039.697, 25.29410
1040.179, 25.74631
1040.661, 26.28336
1041.143, 26.92024
1041.625, 27.59020
1042.107, 28.24212
1042.589, 29.00013
1043.072, 29.94327
1043.554, 30.94733
1044.036, 31.94758
1044.518, 32.93225
1045.000, 33.84874
1045.482, 34.63091
1045.964, 35.60412
1046.446, 36.89608
1046.928, 38.23463
1047.411, 39.46194
1047.893, 40.79277
1048.375, 42.43166
1048.857, 44.29529
1049.339, 46.17422
1049.821, 48.04856
1050.303, 49.96028
1050.785, 51.77576
1051.268, 53.81780
1051.750, 56.23367
1052.232, 58.86631
1052.714, 61.48100
1053.196, 64.22841
1053.678, 67.44275
1054.160, 71.17568
1054.642, 75.30725
1055.125, 79.93019
1055.607, 84.78555
1056.089, 89.71577
1056.571, 94.87431
1057.053, 100.6010
1057.535, 106.5860
1058.017, 112.0672
1058.499, 116.7980
1058.981, 122.1760
1059.464, 128.5134
1059.946, 135.6703
1060.428, 144.1848
1060.910, 152.9952
1061.392, 161.2942
1061.874, 169.2172
1062.356, 177.2239
1062.838, 185.4139
1063.320, 193.7472
1063.803, 202.5281
1064.285, 211.0413
1064.767, 218.7402
1065.249, 226.2020
1065.731, 234.3159
1066.213, 242.3889
1066.695, 249.0841
1067.177, 254.1303
1067.660, 258.1866
1068.142, 262.2413
1068.624, 264.3854
1069.106, 263.0934
1069.588, 260.1037
1070.070, 256.7719
1070.552, 252.8601
1071.034, 247.7058
1071.516, 241.1988
1071.999, 233.5237
1072.481, 223.7155
1072.963, 214.1281
1073.445, 206.1983
1073.927, 198.5382
1074.409, 189.8671
1074.891, 180.7083
1075.373, 172.0455
1075.855, 164.0390
1076.338, 156.1778
1076.820, 148.0232
1077.302, 140.2808
1077.784, 133.2234
1078.266, 126.8150
1078.748, 121.4969
1079.230, 116.5589
1079.712, 110.8314
1080.195, 104.3513
1080.677, 98.47808
1081.159, 93.71294
1081.641, 89.71622
1082.123, 86.86073
1082.605, 84.21984
1083.087, 81.16216
1083.569, 77.89761
1084.052, 74.77496
1084.534, 71.77829
1085.016, 68.56247
1085.498, 64.76864
1085.980, 61.46476
1086.462, 59.40582
1086.944, 57.65364
1087.426, 55.66570
1087.908, 53.58277
1088.391, 51.61398
1088.873, 49.75212
1089.355, 47.89494
1089.837, 45.97312
1090.319, 44.22089
1090.801, 42.82411
1091.283, 41.50311
1091.765, 40.06249
1092.248, 38.65211
1092.730, 37.43441
1093.212, 36.37779
1093.694, 35.32191
1094.176, 34.21236
1094.658, 33.28707
1095.140, 32.81286
1095.622, 32.31439
1096.104, 31.53474
1096.587, 30.67267
1097.069, 29.92267
1097.551, 29.22134
1098.033, 28.40754
1098.515, 27.45053
1098.997, 26.46421
1099.479, 25.39915
1099.961, 24.42237
1100.443, 23.45440
1100.926, 22.72500
1101.408, 22.52588
1101.890, 22.61823
1102.372, 22.71213
1102.854, 22.75456
1103.336, 22.50416
1103.818, 21.70647
1104.300, 20.90851
1104.783, 20.12070
1105.265, 19.48484
1105.747, 19.14923
1106.229, 18.95924
1106.711, 18.74041
1107.193, 18.48325
1107.675, 18.22806
1108.157, 18.04387
1108.640, 17.73507
1109.122, 17.03827
1109.604, 16.50929
1110.086, 16.52849
1110.568, 16.67918
1111.050, 16.59971
1111.532, 16.30832
1112.014, 15.87766
1112.496, 15.09041
1112.979, 14.77260
1113.461, 15.56662
1113.943, 15.99935
1114.425, 15.42052
1114.907, 14.67030
1115.389, 14.25886
1115.871, 14.12944
1116.353, 14.19771
1116.835, 14.52687
1117.318, 14.67538
1117.800, 14.54717
1118.282, 14.41763
1118.764, 14.36813
1119.246, 14.25787
1119.728, 13.95580
1120.210, 13.59864
1120.692, 13.40192
1121.175, 13.36172
1121.657, 13.30013
1122.139, 13.17342
1122.621, 13.16275
1123.103, 13.36761
1123.585, 13.47252
1124.067, 13.30024
1124.549, 13.05842
1125.031, 12.98211
1125.514, 13.03141
1125.996, 13.01175
1126.478, 12.90003
1126.960, 12.84742
1127.442, 12.86802
1127.924, 12.90638
1128.406, 12.95375
1128.888, 12.97528
1129.370, 12.92827
1129.853, 12.87179
1130.335, 12.99058
1130.817, 13.28391
1131.299, 13.20736
1131.781, 12.73052
1132.263, 12.57383
1132.745, 12.89637
1133.227, 13.31631
1133.710, 13.63436
1134.192, 13.77044
1134.674, 13.52870
1135.156, 13.05548
1135.638, 12.99734
1136.120, 13.29869
1136.602, 13.52436
1137.084, 13.63185
1137.567, 13.78159
1138.049, 14.03393
1138.531, 14.23964
1139.013, 14.25620
1139.495, 14.13586
1139.977, 13.91796
1140.459, 13.66374
1140.941, 13.55029
1141.423, 13.56533
1141.906, 13.65000
1142.388, 13.76905
1142.870, 13.82222
1143.352, 13.74264
1143.834, 13.60220
1144.316, 13.44945
1144.798, 13.31758
1145.280, 13.28221
1145.762, 13.29551
1146.245, 13.26743
1146.727, 13.18874
1147.209, 13.09558
1147.691, 13.00084
1148.173, 12.85062
1148.655, 12.53216
1149.137, 12.21986
1149.619, 12.11017
1150.102, 12.05725
1150.584, 11.88463
1151.066, 11.63694
1151.548, 11.46426
1152.030, 11.37380
1152.512, 11.16775
1152.994, 10.69562
1153.476, 10.22603
1153.958, 9.862469
1154.441, 9.578094
1154.923, 9.403102
1155.405, 9.260725
1155.887, 9.049638
1156.369, 8.787862
1156.851, 8.569242
1157.333, 8.407252
1157.815, 8.302301
1158.297, 8.254846
1158.780, 8.264641
1159.262, 8.443254
1159.744, 8.568202
1160.226, 8.410354
1160.708, 8.117411
1161.190, 7.987926
1161.672, 8.042403
1162.154, 7.997690
1162.637, 7.703145
1163.119, 7.605327
1163.601, 7.906931
1164.083, 8.103849
1164.565, 7.941990
1165.047, 7.656903
1165.529, 7.478015
1166.011, 7.391089
1166.494, 7.339376
1166.976, 7.321132
1167.458, 7.343610
1167.940, 7.403002
1168.422, 7.552404
1168.904, 7.841057
1169.386, 8.013561
1169.868, 7.880188
1170.350, 7.608992
1170.833, 7.465944
1171.315, 7.438729
1171.797, 7.496951
1172.279, 7.623892
1172.761, 7.612391
1173.243, 7.448796
1173.725, 7.277117
1174.207, 7.154428
1174.689, 7.094184
1175.172, 7.125135
1175.654, 7.174407
1176.136, 7.069210
1176.618, 7.132623
1177.100, 7.142712
1177.582, 7.136891
1178.064, 7.214982
1178.546, 7.171038
1179.029, 7.202800
1179.511, 7.413963
1179.993, 7.606583
1180.475, 7.560987
1180.957, 7.688729
1181.439, 7.556528
1181.921, 7.683678
1182.403, 7.666911
1182.885, 7.542102
1183.368, 7.407900
1183.850, 7.292494
1184.332, 7.212075
1184.814, 7.131148
1185.296, 7.163567
1185.778, 7.541193
1186.260, 7.832957
1186.742, 7.656701
1187.225, 7.352831
1187.707, 7.322261
1188.189, 7.499080
1188.671, 7.553148
1189.153, 7.400717
1189.635, 7.331880
1190.117, 7.424283
1190.599, 7.512363
1191.082, 7.601665
1191.564, 7.634782
1192.046, 7.535082
1192.528, 7.421056
1193.010, 7.499931
1193.492, 7.720020
1193.974, 7.587714
1194.456, 6.965913
1194.938, 6.768926
1195.421, 7.131397
1195.903, 7.374876
1196.385, 7.288710
1196.867, 7.084461
1197.349, 6.901242
1197.831, 6.773910
1198.313, 6.790027
1198.795, 6.768236
1199.277, 6.956178
1199.760, 6.943108
1200.242, 7.035151
1200.724, 7.228456
1201.206, 7.349451
1201.688, 7.339568
1202.170, 7.354457
1202.652, 7.580966
1203.134, 7.741143
1203.617, 7.349095
1204.099, 6.774351
1204.581, 6.519121
1205.063, 6.502799
1205.545, 6.555148
1206.027, 6.629369
1206.509, 6.699809
1206.991, 6.753055
1207.474, 6.855737
1207.956, 7.200843
1208.438, 7.397174
1208.920, 7.081850
1209.402, 6.698517
1209.884, 6.642204
1210.366, 6.729264
1210.848, 6.622744
1211.330, 6.327562
1211.813, 6.160608
1212.295, 6.203047
1212.777, 6.280698
1213.259, 6.458505
1213.741, 6.553798
1214.223, 6.487830
1214.705, 6.375023
1215.187, 6.270461
1215.669, 6.201741
1216.152, 6.241809
1216.634, 6.150215
1217.116, 6.334910
1217.598, 6.093457
1218.080, 5.968418
1218.562, 5.992609
1219.044, 6.101096
1219.526, 6.274189
1220.009, 6.437886
1220.491, 6.537290
1220.973, 6.568809
1221.455, 6.483687
1221.937, 6.344362
1222.419, 6.321508
1222.901, 6.378137
1223.383, 6.435551
1223.865, 6.464153
1224.348, 6.388132
1224.830, 6.196032
1225.312, 6.077016
1225.794, 6.187558
1226.276, 6.360998
1226.758, 6.522838
1227.240, 6.637372
1227.722, 6.661356
1228.204, 6.624618
1228.687, 6.536000
1229.169, 6.426712
1229.651, 6.375264
1230.133, 6.399277
1230.615, 6.463861
1231.097, 6.692795
1231.579, 6.767844
1232.061, 6.526436
1232.544, 6.239749
1233.026, 5.947834
1233.508, 5.768744
1233.990, 5.876326
1234.472, 6.190608
1234.954, 6.377584
1235.436, 6.423935
1235.918, 6.415582
1236.401, 6.340314
1236.883, 6.363022
1237.365, 6.523285
1237.847, 6.633269
1238.329, 6.591070
1238.811, 6.502673
1239.293, 6.482185
1239.775, 6.513165
1240.257, 6.587082
1240.740, 6.673886
1241.222, 6.667095
1241.704, 6.620203
1242.186, 6.759216
1242.668, 7.043296
1243.150, 7.078544
1243.632, 6.671500
1244.114, 6.311815
1244.596, 6.401252
1245.079, 6.545022
1245.561, 6.485797
1246.043, 6.381073
1246.525, 6.387881
1247.007, 6.428264
1247.489, 6.342290
1247.971, 6.346615
1248.453, 6.326870
1248.936, 6.223530
1249.418, 6.264900
1249.900, 6.099630
1250.382, 6.009618
1250.864, 6.060924
1251.346, 6.188070
1251.828, 6.391464
1252.310, 6.562447
1252.792, 6.541156
1253.275, 6.382268
1253.757, 6.311728
1254.239, 6.323013
1254.721, 6.364503
1255.203, 6.417120
1255.685, 6.291344
1256.167, 5.986161
1256.649, 5.879683
1257.131, 6.170600
1257.614, 6.466582
1258.096, 6.319899
1258.578, 6.049368
1259.060, 5.994204
1259.542, 6.060995
1260.024, 6.159014
1260.506, 6.280823
1260.988, 6.495188
1261.471, 6.745725
1261.953, 6.777631
1262.435, 6.468453
1262.917, 6.202425
1263.399, 6.057155
1263.881, 5.993637
1264.363, 6.050490
1264.845, 6.128687
1265.328, 6.173646
1265.810, 6.223079
1266.292, 6.334224
1266.774, 6.478974
1267.256, 6.546012
1267.738, 6.532681
1268.220, 6.432014
1268.702, 6.236996
1269.184, 6.228792
1269.667, 6.451301
1270.149, 6.623086
1270.631, 6.615653
1271.113, 6.546153
1271.595, 6.536543
1272.077, 6.500907
1272.559, 6.212868
1273.041, 5.893538
1273.523, 5.923908
1274.006, 6.145387
1274.488, 6.291409
1274.970, 6.326271
1275.452, 6.257419
1275.934, 6.087245
1276.416, 6.054644
1276.898, 6.463786
1277.380, 6.695626
1277.863, 6.339261
1278.345, 6.072842
1278.827, 6.365609
1279.309, 6.734228
1279.791, 6.777586
1280.273, 6.622787
1280.755, 6.544159
1281.237, 6.540997
1281.719, 6.570393
1282.202, 6.641609
1282.684, 6.583310
1283.166, 6.380097
1283.648, 6.215981
1284.130, 6.148477
1284.612, 6.105268
1285.094, 6.032258
1285.576, 5.993232
1286.059, 6.090953
1286.541, 6.249802
1287.023, 6.387164
1287.505, 6.502568
##END=



