##NAMES=Beryl
##RRUFFID=R050065
##IDEAL CHEMISTRY=Be_3_Al_2_Si_6_O_18_
##LOCALITY=Xuebaoding, Sichuan Province, China
##OWNER=RRUFF
##SOURCE=Rock Currier
##DESCRIPTION=Light blue colored tabular single crystal
##STATUS=The identification of this mineral has been confirmed by X-ray diffraction and chemical analysis
##URL=rruff.info/R050065
##MEASURED CHEMISTRY=(Be_2.78_Li_0.22_)_Σ=3_Al_2.00_Si_6.00_O_18_·Na_0.22_
91.00781, 3.097446
91.48993, 3.245543
91.97205, 3.304857
92.45416, 3.230128
92.93628, 3.068992
93.41840, 2.914640
93.90051, 2.766543
94.38263, 2.657224
94.86475, 2.667465
95.34686, 2.796087
95.82898, 2.930343
96.31110, 2.954653
96.79321, 2.883072
97.27533, 2.864538
97.75745, 2.934373
98.23956, 3.081499
98.72168, 3.289241
99.20380, 3.583040
99.68591, 3.851533
100.1680, 3.928870
100.6501, 3.758578
101.1323, 3.671971
101.6144, 3.787618
102.0965, 4.124488
102.5786, 4.425841
103.0607, 4.665464
103.5428, 4.894827
104.0250, 5.207618
104.5071, 5.626111
104.9892, 6.086387
105.4713, 6.563694
105.9534, 7.058214
106.4355, 7.563339
106.9177, 8.038404
107.3998, 8.521514
107.8819, 9.153249
108.3640, 10.00064
108.8461, 10.93533
109.3282, 11.91224
109.8104, 13.01387
110.2925, 14.04130
110.7746, 14.90200
111.2567, 15.62644
111.7388, 16.49145
112.2209, 17.74870
112.7031, 19.02552
113.1852, 20.07819
113.6673, 20.43120
114.1494, 20.95337
114.6315, 21.97928
115.1136, 23.54473
115.5958, 25.01545
116.0779, 26.06575
116.5600, 26.95514
117.0421, 27.97013
117.5242, 29.32330
118.0063, 30.75323
118.4885, 32.07244
118.9706, 33.20641
119.4527, 34.55254
119.9348, 36.41788
120.4169, 38.63651
120.8990, 40.93787
121.3812, 43.35055
121.8633, 45.69553
122.3454, 47.74856
122.8275, 49.42936
123.3096, 50.97534
123.7917, 52.61242
124.2739, 54.29814
124.7560, 55.87668
125.2381, 57.38014
125.7202, 58.69535
126.2023, 59.52754
126.6844, 59.54078
127.1666, 59.40934
127.6487, 60.24603
128.1308, 61.99792
128.6129, 63.72884
129.0950, 64.67374
129.5771, 64.97311
130.0593, 65.09981
130.5414, 65.01462
131.0235, 64.91286
131.5056, 65.32561
131.9877, 66.05997
132.4698, 66.64570
132.9520, 66.85052
133.4341, 66.70517
133.9162, 66.77090
134.3983, 67.23361
134.8804, 68.06068
135.3625, 69.08144
135.8447, 70.30264
136.3268, 71.69882
136.8089, 73.35909
137.2910, 75.36855
137.7731, 77.18891
138.2552, 78.64847
138.7374, 79.73696
139.2195, 80.53815
139.7016, 81.05218
140.1837, 81.29967
140.6658, 81.30177
141.1479, 81.02750
141.6301, 80.58498
142.1122, 79.98708
142.5943, 79.13298
143.0764, 78.38853
143.5585, 77.79462
144.0406, 77.30527
144.5228, 76.74505
145.0049, 76.13559
145.4870, 75.43633
145.9691, 74.63338
146.4512, 73.69040
146.9333, 72.68327
147.4155, 71.53329
147.8976, 70.26696
148.3797, 69.23819
148.8618, 68.49991
149.3439, 67.94664
149.8260, 67.50970
150.3082, 67.44504
150.7903, 67.20644
151.2724, 66.62669
151.7545, 65.69386
152.2366, 64.98828
152.7188, 64.64559
153.2009, 64.47451
153.6830, 64.32603
154.1651, 64.07242
154.6472, 63.94606
155.1293, 64.23011
155.6115, 65.06265
156.0936, 65.17587
156.5757, 63.45984
157.0578, 61.22247
157.5399, 59.91871
158.0220, 61.06300
158.5042, 62.17377
158.9863, 62.18251
159.4684, 60.75130
159.9505, 59.51653
160.4326, 59.06649
160.9147, 59.11158
161.3969, 59.22165
161.8790, 59.44969
162.3611, 59.56035
162.8432, 59.38416
163.3253, 58.81212
163.8074, 58.23197
164.2896, 57.82442
164.7717, 57.53254
165.2538, 57.24367
165.7359, 56.95086
166.2180, 56.61496
166.7001, 56.14529
167.1823, 55.38090
167.6644, 54.81844
168.1465, 54.91446
168.6286, 55.49062
169.1107, 56.04721
169.5928, 56.37301
170.0750, 56.51367
170.5571, 56.49689
171.0392, 56.24812
171.5213, 55.97881
172.0034, 55.92119
172.4855, 56.02209
172.9677, 56.04694
173.4498, 55.75507
173.9319, 55.31695
174.4140, 54.97777
174.8961, 54.83341
175.3782, 54.77643
175.8604, 54.71301
176.3425, 54.63939
176.8246, 54.52805
177.3067, 54.24146
177.7888, 53.90469
178.2709, 53.78289
178.7531, 54.01963
179.2352, 54.45667
179.7173, 54.96843
180.1994, 55.54840
180.6815, 55.94512
181.1636, 55.78539
181.6458, 55.23472
182.1279, 54.79160
182.6100, 54.64675
183.0921, 54.69554
183.5742, 54.75113
184.0563, 54.81441
184.5385, 54.84794
185.0206, 54.84636
185.5027, 54.79472
185.9848, 54.61836
186.4669, 54.22655
186.9490, 53.69748
187.4312, 53.25116
187.9133, 52.90142
188.3954, 52.59182
188.8775, 52.28229
189.3596, 51.97192
189.8417, 51.63623
190.3239, 51.28300
190.8060, 50.90120
191.2881, 50.40798
191.7702, 49.77371
192.2523, 49.16504
192.7344, 48.85234
193.2166, 48.83693
193.6987, 48.76683
194.1808, 48.47768
194.6629, 47.98929
195.1450, 47.48178
195.6271, 46.91469
196.1093, 46.43020
196.5914, 46.31683
197.0735, 46.60885
197.5556, 46.84224
198.0377, 46.77283
198.5198, 46.39709
199.0020, 46.16213
199.4841, 46.13000
199.9662, 46.12727
200.4483, 45.79222
200.9304, 45.04968
201.4125, 44.43002
201.8947, 44.23806
202.3768, 44.51903
202.8589, 44.65540
203.3410, 44.63931
203.8231, 44.48462
204.3052, 44.16690
204.7874, 43.62908
205.2695, 43.16203
205.7516, 42.92854
206.2337, 42.97171
206.7158, 42.95540
207.1979, 42.86955
207.6801, 42.72961
208.1622, 42.56142
208.6443, 42.35437
209.1264, 42.14944
209.6085, 41.94098
210.0906, 41.69696
210.5728, 41.61152
211.0549, 41.74388
211.5370, 41.99614
212.0191, 42.15393
212.5012, 42.21710
212.9833, 42.19152
213.4655, 42.03492
213.9476, 41.65899
214.4297, 41.49670
214.9118, 41.64548
215.3939, 41.96667
215.8760, 42.10607
216.3581, 41.98767
216.8403, 41.84132
217.3224, 41.77198
217.8045, 41.78954
218.2866, 41.86274
218.7687, 42.04333
219.2508, 42.25809
219.7330, 42.26663
220.2151, 41.91161
220.6972, 41.63819
221.1793, 41.71441
221.6614, 42.36681
222.1435, 42.72906
222.6257, 42.63066
223.1078, 42.28088
223.5899, 42.30326
224.0720, 42.96196
224.5541, 43.57066
225.0362, 43.76145
225.5184, 43.21880
226.0005, 43.06758
226.4826, 43.53206
226.9647, 44.34669
227.4468, 44.74940
227.9289, 44.49364
228.4111, 44.20238
228.8932, 44.18409
229.3753, 44.62050
229.8574, 44.88292
230.3395, 44.83841
230.8216, 44.64179
231.3038, 44.75294
231.7859, 45.39745
232.2680, 46.01656
232.7501, 46.34364
233.2322, 46.22379
233.7143, 46.14865
234.1965, 46.06799
234.6786, 46.04356
235.1607, 46.29659
235.6428, 47.12776
236.1249, 47.79751
236.6070, 47.90736
237.0892, 46.98856
237.5713, 46.56030
238.0534, 46.79733
238.5355, 47.47877
239.0176, 48.05424
239.4997, 48.54381
239.9819, 48.90760
240.4640, 49.11803
240.9461, 49.13253
241.4282, 49.08516
241.9103, 48.89124
242.3924, 48.66254
242.8746, 48.67398
243.3567, 49.00814
243.8388, 49.45802
244.3209, 49.96265
244.8030, 50.56271
245.2851, 51.11066
245.7673, 51.67629
246.2494, 52.16289
246.7315, 52.31424
247.2136, 51.86006
247.6957, 51.50069
248.1778, 51.53162
248.6600, 52.09890
249.1421, 52.63309
249.6242, 53.21098
250.1063, 53.71964
250.5884, 53.92677
251.0705, 53.73664
251.5527, 53.40678
252.0348, 53.05239
252.5169, 52.73337
252.9990, 52.16451
253.4811, 51.35476
253.9632, 50.28140
254.4454, 48.85874
254.9275, 46.82196
255.4096, 44.92257
255.8917, 43.41582
256.3738, 42.37298
256.8560, 41.45067
257.3381, 40.67140
257.8202, 39.98685
258.3023, 39.30528
258.7844, 38.61348
259.2665, 37.96943
259.7487, 37.39507
260.2308, 36.90102
260.7129, 36.41069
261.1950, 35.87729
261.6771, 35.39907
262.1592, 35.11158
262.6414, 35.03611
263.1235, 35.11215
263.6056, 35.38983
264.0877, 35.90023
264.5698, 36.15780
265.0519, 36.08410
265.5341, 35.86561
266.0162, 35.71421
266.4983, 35.65117
266.9804, 35.58760
267.4625, 35.46412
267.9446, 35.28522
268.4268, 35.33787
268.9089, 35.71532
269.3910, 36.15741
269.8731, 36.36505
270.3552, 36.25580
270.8373, 36.25230
271.3195, 36.51798
271.8016, 37.00453
272.2837, 37.17556
272.7658, 36.93149
273.2479, 36.59875
273.7300, 36.48071
274.2122, 36.60850
274.6943, 36.76157
275.1764, 36.91381
275.6585, 37.05693
276.1406, 37.12322
276.6227, 37.08269
277.1049, 37.06554
277.5870, 37.19932
278.0691, 37.49935
278.5512, 37.77087
279.0333, 37.96826
279.5154, 38.12365
279.9976, 38.34842
280.4797, 38.65207
280.9618, 38.97940
281.4439, 39.33222
281.9260, 39.70979
282.4081, 39.96397
282.8903, 40.04412
283.3724, 40.02494
283.8545, 40.06319
284.3366, 40.15674
284.8187, 40.33029
285.3008, 40.59297
285.7830, 40.94773
286.2651, 41.43163
286.7472, 42.10046
287.2293, 42.80534
287.7114, 43.22544
288.1935, 43.36317
288.6757, 43.52197
289.1578, 43.89397
289.6399, 44.44218
290.1220, 44.94273
290.6041, 45.36394
291.0862, 45.80650
291.5684, 46.51005
292.0505, 47.43653
292.5326, 48.19964
293.0147, 48.54024
293.4968, 48.57301
293.9789, 48.58170
294.4611, 48.54236
294.9432, 48.66919
295.4253, 49.46087
295.9074, 50.72911
296.3895, 51.64094
296.8716, 51.50047
297.3538, 50.85373
297.8359, 50.93518
298.3180, 51.77769
298.8001, 52.63290
299.2822, 52.63140
299.7643, 52.07865
300.2465, 51.77721
300.7286, 52.15537
301.2107, 52.83957
301.6928, 53.34375
302.1749, 53.67312
302.6570, 53.97458
303.1392, 54.26987
303.6213, 54.62755
304.1034, 55.17044
304.5855, 56.02645
305.0676, 56.97877
305.5497, 57.78530
306.0319, 58.48243
306.5140, 59.30154
306.9961, 60.39550
307.4782, 61.68256
307.9603, 63.09196
308.4424, 64.62325
308.9246, 66.22178
309.4067, 67.83418
309.8888, 69.46935
310.3709, 71.18862
310.8530, 73.03528
311.3351, 74.95562
311.8173, 76.89066
312.2994, 78.83601
312.7815, 80.85081
313.2636, 82.91248
313.7457, 85.05267
314.2278, 87.34940
314.7100, 89.69991
315.1921, 92.29427
315.6742, 95.26235
316.1563, 98.62297
316.6384, 102.2628
317.1205, 105.9917
317.6027, 109.9554
318.0848, 114.3218
318.5669, 119.0183
319.0490, 124.2384
319.5311, 130.1576
320.0132, 136.7979
320.4954, 143.6875
320.9775, 150.7926
321.4596, 157.9931
321.9417, 165.0804
322.4238, 172.3807
322.9059, 179.1867
323.3881, 185.9525
323.8702, 192.4424
324.3523, 196.6943
324.8344, 198.2472
325.3165, 197.5935
325.7986, 195.0530
326.2808, 191.3484
326.7629, 184.9437
327.2450, 174.5849
327.7271, 161.1499
328.2092, 148.0676
328.6913, 134.8089
329.1735, 122.4176
329.6556, 111.0991
330.1377, 100.9130
330.6198, 91.66887
331.1019, 83.15945
331.5840, 75.67732
332.0662, 69.69228
332.5483, 65.90231
333.0304, 62.57989
333.5125, 59.23755
333.9946, 55.74059
334.4767, 52.74440
334.9589, 50.37416
335.4410, 48.41703
335.9231, 46.64076
336.4052, 45.09342
336.8873, 43.63250
337.3694, 42.18140
337.8516, 40.76390
338.3336, 39.78192
338.8158, 39.38434
339.2979, 39.10469
339.7800, 38.42305
340.2621, 37.24086
340.7442, 36.41178
341.2263, 36.19902
341.7085, 36.39428
342.1906, 36.32461
342.6727, 35.96691
343.1548, 35.48642
343.6369, 34.84157
344.1190, 34.07026
344.6012, 33.79774
345.0833, 34.23417
345.5654, 34.92181
346.0475, 35.00095
346.5296, 34.50655
347.0117, 33.98614
347.4939, 33.70877
347.9760, 33.63771
348.4581, 33.70469
348.9402, 33.93514
349.4223, 34.14478
349.9044, 34.09272
350.3866, 33.83968
350.8687, 33.59484
351.3508, 33.46718
351.8329, 33.38658
352.3150, 33.17893
352.7971, 32.85141
353.2793, 32.65973
353.7614, 33.00783
354.2435, 33.58244
354.7256, 33.85082
355.2077, 33.44551
355.6898, 32.94920
356.1720, 32.93165
356.6541, 33.29145
357.1362, 33.58964
357.6183, 33.48788
358.1004, 33.25888
358.5826, 33.16712
359.0647, 33.32995
359.5468, 33.45736
360.0289, 33.29641
360.5110, 32.99586
360.9931, 32.83864
361.4753, 33.09789
361.9574, 33.40012
362.4395, 33.52468
362.9216, 33.41139
363.4037, 33.38241
363.8858, 33.71667
364.3680, 34.11241
364.8501, 34.25236
365.3322, 33.62975
365.8143, 33.19471
366.2964, 33.29100
366.7785, 33.90813
367.2607, 34.35374
367.7428, 34.32151
368.2249, 34.26211
368.7070, 34.45506
369.1891, 35.32459
369.6712, 35.87471
370.1534, 35.84813
370.6355, 35.47645
371.1176, 35.49681
371.5997, 36.14782
372.0818, 36.88480
372.5639, 37.51148
373.0461, 38.02277
373.5282, 38.42627
374.0103, 38.64943
374.4924, 38.83894
374.9745, 39.22623
375.4566, 39.86598
375.9388, 40.53343
376.4209, 41.12155
376.9030, 41.65614
377.3851, 42.43612
377.8672, 43.51521
378.3493, 44.69978
378.8315, 45.77923
379.3136, 46.76037
379.7957, 47.80957
380.2778, 48.95207
380.7599, 50.19913
381.2420, 51.61044
381.7242, 53.16239
382.2063, 54.88281
382.6884, 56.76537
383.1705, 58.82214
383.6526, 61.02987
384.1347, 63.37268
384.6169, 65.89836
385.0990, 68.74446
385.5811, 71.81839
386.0632, 74.69329
386.5453, 76.89368
387.0274, 78.91602
387.5096, 81.24084
387.9917, 83.87008
388.4738, 87.10778
388.9559, 91.49559
389.4380, 96.46689
389.9201, 101.3062
390.4023, 105.5831
390.8844, 109.8435
391.3665, 114.3269
391.8486, 119.0888
392.3307, 124.1776
392.8128, 129.5318
393.2950, 135.2779
393.7771, 141.5808
394.2592, 148.5237
394.7413, 155.8027
395.2234, 163.4543
395.7055, 171.3028
396.1877, 179.0773
396.6698, 186.9673
397.1519, 194.5305
397.6340, 201.9212
398.1161, 209.2574
398.5982, 215.3109
399.0804, 220.7665
399.5625, 224.4402
400.0446, 225.4568
400.5267, 223.1944
401.0088, 219.1800
401.4909, 213.5876
401.9731, 206.3716
402.4552, 197.2111
402.9373, 185.2258
403.4194, 172.7293
403.9015, 160.6793
404.3836, 149.0049
404.8658, 138.0027
405.3479, 127.7512
405.8300, 118.2092
406.3121, 109.1468
406.7942, 100.5053
407.2763, 92.73158
407.7585, 85.95071
408.2406, 80.13138
408.7227, 75.41419
409.2048, 71.88431
409.6869, 68.87036
410.1690, 65.72545
410.6512, 62.58492
411.1333, 60.03351
411.6154, 58.32593
412.0975, 56.98644
412.5796, 55.17020
413.0617, 53.00446
413.5439, 51.08712
414.0260, 49.83503
414.5081, 48.98840
414.9902, 48.25655
415.4723, 47.62712
415.9544, 46.95766
416.4366, 46.02438
416.9187, 45.00489
417.4008, 44.16840
417.8829, 43.80882
418.3650, 43.48774
418.8471, 42.85487
419.3293, 41.98537
419.8114, 41.29599
420.2935, 41.13367
420.7756, 41.10954
421.2577, 40.96800
421.7398, 40.61466
422.2220, 40.24087
422.7041, 39.88347
423.1862, 39.53053
423.6683, 39.15942
424.1504, 38.65577
424.6325, 38.24009
425.1147, 38.03486
425.5968, 38.08327
426.0789, 37.91758
426.5610, 37.39257
427.0431, 36.78547
427.5252, 36.32816
428.0074, 36.08427
428.4895, 35.83395
428.9716, 35.51853
429.4537, 35.19604
429.9358, 35.08966
430.4179, 35.26107
430.9001, 35.42965
431.3822, 35.39851
431.8643, 35.16162
432.3464, 35.15383
432.8285, 35.40848
433.3106, 35.78669
433.7928, 36.12529
434.2749, 36.43114
434.7570, 36.76537
435.2391, 37.16560
435.7212, 37.59101
436.2033, 37.86212
436.6855, 38.01118
437.1676, 38.38628
437.6497, 39.51538
438.1318, 40.94741
438.6139, 41.94714
439.0960, 42.31511
439.5782, 42.54982
440.0603, 42.99179
440.5424, 43.59993
441.0245, 44.28856
441.5066, 45.20996
441.9887, 46.05238
442.4709, 46.59944
442.9530, 46.85398
443.4351, 47.06376
443.9172, 47.28648
444.3993, 47.51882
444.8814, 47.75965
445.3636, 48.12261
445.8457, 48.34274
446.3278, 48.40715
446.8099, 48.30279
447.2920, 47.99759
447.7741, 47.39318
448.2563, 46.69687
448.7384, 45.97249
449.2205, 45.21390
449.7026, 44.41420
450.1847, 43.53008
450.6668, 42.67166
451.1490, 41.96741
451.6311, 41.47026
452.1132, 40.90522
452.5953, 40.18803
453.0774, 39.40717
453.5595, 38.74712
454.0417, 38.20478
454.5238, 37.79389
455.0059, 37.63866
455.4880, 37.65484
455.9701, 37.34919
456.4522, 36.67658
456.9344, 35.89264
457.4165, 35.14553
457.8986, 34.49334
458.3807, 34.15186
458.8628, 34.39996
459.3449, 34.74449
459.8271, 34.55652
460.3092, 33.94264
460.7913, 33.36034
461.2734, 33.14980
461.7555, 33.04477
462.2376, 32.80808
462.7198, 32.38404
463.2019, 31.94781
463.6840, 31.55142
464.1661, 31.20117
464.6482, 30.90472
465.1303, 30.67411
465.6125, 30.48627
466.0946, 30.35606
466.5767, 30.27435
467.0588, 30.17243
467.5409, 30.08777
468.0230, 29.94413
468.5052, 29.68866
468.9873, 29.22197
469.4694, 28.89852
469.9515, 28.77628
470.4336, 28.74796
470.9157, 28.65180
471.3979, 28.45443
471.8800, 28.31276
472.3621, 28.29638
472.8442, 28.36508
473.3263, 28.30691
473.8084, 28.10723
474.2906, 27.89410
474.7727, 27.76600
475.2548, 27.70594
475.7369, 27.63956
476.2190, 27.56377
476.7011, 27.46107
477.1833, 27.18985
477.6654, 26.86011
478.1475, 26.77857
478.6296, 27.40552
479.1117, 28.11067
479.5938, 28.10722
480.0760, 27.50767
480.5581, 27.06637
481.0402, 27.38296
481.5223, 27.93401
482.0044, 28.30200
482.4865, 28.37116
482.9687, 28.35820
483.4508, 28.31997
483.9329, 28.24692
484.4150, 28.12646
484.8971, 27.86278
485.3792, 27.64920
485.8614, 27.54045
486.3435, 27.52959
486.8256, 27.52526
487.3077, 27.48122
487.7898, 27.49771
488.2719, 27.67567
488.7541, 28.15118
489.2362, 28.30159
489.7183, 27.98955
490.2004, 27.52926
490.6825, 27.45553
491.1646, 27.82200
491.6468, 28.00385
492.1289, 27.70035
492.6110, 27.14468
493.0931, 27.06912
493.5752, 27.46814
494.0573, 27.89416
494.5395, 27.97954
495.0216, 27.86949
495.5037, 27.90180
495.9858, 28.14602
496.4679, 28.35539
496.9500, 28.21391
497.4322, 27.89820
497.9143, 27.70362
498.3964, 27.75892
498.8785, 27.95610
499.3606, 28.40881
499.8427, 29.01802
500.3249, 29.29760
500.8070, 28.65111
501.2891, 27.97234
501.7712, 27.78899
502.2533, 28.41418
502.7354, 28.78592
503.2176, 28.51107
503.6997, 28.10739
504.1818, 28.12533
504.6639, 28.89362
505.1460, 29.46531
505.6281, 29.64516
506.1103, 29.53793
506.5924, 29.55713
507.0745, 29.74400
507.5566, 29.91035
508.0387, 29.91166
508.5208, 29.76318
509.0030, 29.78936
509.4851, 30.00500
509.9672, 30.31265
510.4493, 30.67340
510.9314, 31.05092
511.4135, 31.29463
511.8957, 31.27759
512.3778, 31.26373
512.8599, 31.62392
513.3420, 32.25214
513.8242, 32.83527
514.3063, 33.10949
514.7884, 33.35664
515.2705, 33.84372
515.7526, 34.58821
516.2347, 35.24482
516.7169, 35.58055
517.1990, 35.82940
517.6811, 36.16948
518.1632, 36.70281
518.6453, 37.22834
519.1274, 37.77377
519.6096, 38.29102
520.0917, 38.67436
520.5738, 38.82840
521.0559, 39.00058
521.5380, 39.23532
522.0201, 39.53486
522.5023, 39.97813
522.9844, 40.63610
523.4665, 41.24128
523.9486, 41.54252
524.4307, 41.56087
524.9128, 41.74062
525.3950, 42.15862
525.8771, 42.58697
526.3592, 42.68291
526.8413, 42.52020
527.3234, 42.37115
527.8055, 42.35431
528.2877, 42.38185
528.7698, 42.40381
529.2519, 42.39781
529.7340, 42.27070
530.2161, 41.78261
530.6982, 41.28054
531.1804, 41.07160
531.6625, 41.25961
532.1446, 41.35222
532.6267, 41.13350
533.1088, 40.77311
533.5909, 40.43109
534.0731, 40.08045
534.5552, 39.80534
535.0373, 39.58908
535.5194, 39.45400
536.0015, 39.50408
536.4836, 39.97541
536.9658, 40.13845
537.4479, 39.62825
537.9300, 38.48775
538.4121, 37.67034
538.8942, 37.24244
539.3763, 36.87600
539.8585, 36.23267
540.3406, 35.38203
540.8227, 34.77254
541.3048, 34.51105
541.7869, 34.29492
542.2690, 33.71223
542.7512, 32.87499
543.2333, 32.06279
543.7154, 31.33561
544.1975, 30.72759
544.6796, 30.35377
545.1617, 30.15182
545.6439, 29.86220
546.1260, 29.31713
546.6081, 28.68598
547.0902, 28.04291
547.5723, 27.38153
548.0544, 26.80120
548.5366, 26.31813
549.0187, 25.91735
549.5008, 25.58604
549.9829, 25.35682
550.4650, 25.13661
550.9471, 24.90734
551.4293, 24.68880
551.9114, 24.53200
552.3935, 24.45052
552.8756, 24.36528
553.3577, 24.24280
553.8398, 24.09226
554.3220, 23.96511
554.8041, 23.86226
555.2862, 23.73883
555.7683, 23.53567
556.2504, 23.29047
556.7325, 23.06835
557.2147, 22.87465
557.6968, 22.72249
558.1789, 22.61308
558.6610, 22.55440
559.1431, 22.55908
559.6252, 22.73992
560.1074, 22.87322
560.5895, 22.82160
561.0716, 22.64251
561.5537, 22.52964
562.0358, 22.60682
562.5179, 22.67152
563.0001, 22.61713
563.4822, 22.41730
563.9643, 22.39538
564.4464, 22.65605
564.9285, 22.94772
565.4106, 23.07274
565.8928, 23.00165
566.3749, 22.95253
566.8570, 22.93217
567.3391, 22.95926
567.8212, 23.05433
568.3033, 23.21951
568.7855, 23.48164
569.2676, 23.96656
569.7497, 24.43727
570.2318, 24.46330
570.7139, 24.13414
571.1960, 23.84390
571.6782, 23.78057
572.1603, 23.88315
572.6424, 24.18824
573.1245, 24.72169
573.6066, 25.08614
574.0887, 24.89044
574.5709, 24.61138
575.0530, 24.62671
575.5351, 25.37072
576.0172, 25.85241
576.4993, 25.96854
576.9814, 25.84904
577.4636, 25.67491
577.9457, 25.39538
578.4278, 25.20922
578.9099, 25.22334
579.3920, 25.35007
579.8741, 25.19571
580.3563, 24.73607
580.8384, 24.33160
581.3205, 24.31951
581.8026, 24.52183
582.2847, 24.37831
582.7668, 23.86662
583.2490, 23.32362
583.7311, 23.01565
584.2132, 22.85205
584.6953, 22.70098
585.1774, 22.49124
585.6595, 22.39293
586.1416, 22.65740
586.6237, 23.04918
587.1058, 23.21600
587.5880, 22.86002
588.0701, 22.50702
588.5522, 22.28686
589.0343, 22.17081
589.5164, 22.01331
589.9985, 21.73100
590.4807, 21.55096
590.9628, 21.61619
591.4449, 21.93477
591.9270, 22.06345
592.4091, 21.98165
592.8912, 21.79762
593.3734, 21.57357
593.8555, 21.32140
594.3376, 21.07187
594.8197, 20.80022
595.3018, 20.65395
595.7839, 21.04544
596.2661, 21.65400
596.7482, 21.85435
597.2303, 20.95990
597.7124, 20.04733
598.1945, 19.79111
598.6766, 20.02417
599.1588, 20.26898
599.6409, 20.40242
600.1230, 20.50546
600.6051, 20.60740
601.0872, 20.70962
601.5693, 20.79494
602.0515, 20.88437
602.5336, 20.92692
603.0157, 20.87016
603.4978, 20.68591
603.9799, 20.57985
604.4620, 20.57038
604.9442, 20.59998
605.4263, 20.54744
605.9084, 20.44867
606.3905, 20.53518
606.8726, 20.92679
607.3547, 21.39849
607.8369, 21.67876
608.3190, 21.81859
608.8011, 21.95590
609.2832, 22.18172
609.7653, 22.40170
610.2474, 22.49611
610.7296, 22.49713
611.2117, 22.65211
611.6938, 23.12310
612.1759, 23.68711
612.6580, 24.23602
613.1401, 24.75652
613.6223, 25.33096
614.1044, 25.97210
614.5865, 26.63967
615.0686, 27.27072
615.5507, 27.84642
616.0328, 28.56946
616.5150, 29.52232
616.9971, 30.46537
617.4792, 30.97013
617.9613, 31.12401
618.4434, 31.33152
618.9255, 31.75624
619.4077, 32.26468
619.8898, 32.89280
620.3719, 33.51146
620.8540, 33.72488
621.3361, 33.00151
621.8182, 32.10275
622.3004, 31.52378
622.7825, 31.28193
623.2646, 30.75022
623.7467, 29.51736
624.2288, 28.20819
624.7109, 27.12129
625.1931, 26.28520
625.6752, 25.57302
626.1573, 25.00129
626.6394, 24.51617
627.1215, 24.05286
627.6036, 23.61007
628.0858, 23.25988
628.5679, 23.00327
629.0500, 22.86797
629.5321, 23.01016
630.0142, 23.32817
630.4963, 23.48978
630.9785, 23.24808
631.4606, 22.91203
631.9427, 22.72070
632.4248, 22.65275
632.9069, 22.63952
633.3890, 22.65172
633.8712, 22.71405
634.3533, 22.87105
634.8354, 23.13482
635.3175, 23.30630
635.7996, 23.32302
636.2817, 23.31089
636.7639, 23.32746
637.2460, 23.36631
637.7281, 23.46856
638.2102, 23.64077
638.6923, 23.85717
639.1744, 24.14459
639.6566, 24.47070
640.1387, 24.62031
640.6208, 24.49195
641.1029, 24.35929
641.5850, 24.61300
642.0671, 25.08908
642.5493, 25.46470
643.0314, 25.47544
643.5135, 25.47558
643.9956, 25.71016
644.4777, 26.08872
644.9598, 26.33027
645.4420, 26.24854
645.9241, 26.14637
646.4062, 26.08889
646.8883, 26.07822
647.3704, 26.17964
647.8525, 26.42974
648.3347, 26.71082
648.8168, 26.94739
649.2989, 27.14412
649.7810, 27.36181
650.2631, 27.60124
650.7452, 27.84891
651.2274, 28.06530
651.7095, 28.28063
652.1916, 28.55277
652.6737, 28.87851
653.1558, 29.29990
653.6379, 29.98415
654.1201, 30.74038
654.6022, 31.32119
655.0843, 31.53364
655.5664, 31.70189
656.0485, 31.82146
656.5306, 31.95261
657.0128, 32.23561
657.4949, 32.74134
657.9770, 33.25892
658.4591, 33.70745
658.9412, 34.12987
659.4233, 34.73739
659.9055, 35.54651
660.3876, 36.38837
660.8697, 37.08266
661.3518, 37.76430
661.8339, 38.86243
662.3160, 40.35012
662.7982, 41.78765
663.2803, 42.62365
663.7624, 43.40339
664.2445, 44.65318
664.7266, 46.48812
665.2087, 48.52908
665.6909, 50.82269
666.1730, 53.16675
666.6551, 55.36950
667.1372, 57.01968
667.6193, 59.23772
668.1014, 62.03045
668.5836, 65.35716
669.0657, 69.19266
669.5478, 73.51395
670.0299, 78.21445
670.5120, 83.25559
670.9941, 88.68839
671.4763, 94.47502
671.9584, 100.6974
672.4405, 107.7202
672.9226, 116.1440
673.4047, 125.1419
673.8868, 134.0376
674.3690, 142.8641
674.8511, 152.0280
675.3332, 161.1027
675.8153, 171.0736
676.2974, 182.6355
676.7795, 195.9227
677.2617, 209.6188
677.7438, 223.5122
678.2259, 238.2995
678.7080, 254.3986
679.1901, 271.9556
679.6722, 290.6274
680.1544, 310.5629
680.6365, 332.0952
681.1186, 356.1044
681.6007, 382.0389
682.0828, 409.2452
682.5649, 437.4003
683.0471, 466.8321
683.5292, 498.2519
684.0113, 530.3439
684.4934, 561.0230
684.9755, 592.1467
685.4576, 618.5999
685.9398, 641.4528
686.4219, 658.0964
686.9040, 665.5479
687.3861, 664.0970
687.8682, 652.5671
688.3503, 629.6814
688.8325, 597.4301
689.3146, 559.9897
689.7967, 517.4678
690.2788, 474.0095
690.7609, 430.1825
691.2430, 387.8200
691.7252, 349.2520
692.2073, 314.1219
692.6894, 282.4269
693.1715, 254.2805
693.6536, 229.3579
694.1357, 207.7499
694.6179, 189.3924
695.1000, 173.0967
695.5821, 158.8639
696.0642, 146.4563
696.5463, 135.9206
697.0284, 127.4965
697.5106, 119.3266
697.9927, 111.2794
698.4748, 103.7712
698.9569, 97.19997
699.4390, 91.51941
699.9211, 86.71774
700.4033, 82.85342
700.8854, 79.39548
701.3675, 75.86677
701.8496, 72.37331
702.3317, 69.07060
702.8138, 66.04034
703.2960, 63.17456
703.7781, 60.32377
704.2602, 57.64837
704.7423, 55.34497
705.2244, 53.72443
705.7065, 52.13149
706.1887, 50.55224
706.6708, 48.96379
707.1529, 47.17205
707.6350, 45.08004
708.1171, 43.39334
708.5992, 42.38805
709.0814, 41.77881
709.5635, 41.01091
710.0456, 40.09621
710.5277, 39.11103
711.0098, 37.90321
711.4919, 36.79268
711.9741, 36.19225
712.4562, 35.97325
712.9383, 35.59365
713.4204, 34.69609
713.9025, 33.74952
714.3846, 32.92616
714.8668, 32.21926
715.3489, 31.62908
715.8310, 31.18752
716.3131, 30.79051
716.7952, 30.40485
717.2773, 30.02726
717.7595, 29.48963
718.2416, 28.77703
718.7237, 28.20994
719.2058, 28.28697
719.6879, 28.58748
720.1700, 28.36222
720.6522, 27.50603
721.1343, 26.68106
721.6164, 26.25901
722.0985, 26.03467
722.5806, 25.83509
723.0627, 25.63477
723.5449, 25.47474
724.0270, 25.43915
724.5091, 25.36483
724.9912, 25.05838
725.4733, 24.44849
725.9554, 24.00997
726.4376, 23.79851
726.9197, 23.71519
727.4018, 23.67965
727.8839, 23.66858
728.3660, 23.61157
728.8481, 23.49367
729.3303, 23.31417
729.8124, 22.96046
730.2945, 22.57503
730.7766, 22.37903
731.2587, 22.74724
731.7408, 22.94694
732.2230, 22.67180
732.7051, 22.15703
733.1872, 21.78869
733.6693, 21.49907
734.1514, 21.61843
734.6335, 22.43265
735.1157, 23.51101
735.5978, 23.67226
736.0799, 23.00336
736.5620, 22.23032
737.0441, 21.55140
737.5262, 21.05417
738.0084, 20.94885
738.4905, 21.12582
738.9726, 21.21164
739.4547, 20.89202
739.9368, 20.59348
740.4189, 20.52082
740.9011, 20.66967
741.3832, 20.80187
741.8653, 20.95272
742.3474, 21.02158
742.8295, 20.94028
743.3116, 20.73154
743.7938, 20.56665
744.2759, 20.44485
744.7580, 20.38812
745.2401, 20.49214
745.7222, 20.63624
746.2043, 20.60293
746.6865, 20.39318
747.1686, 20.20860
747.6507, 20.17972
748.1328, 20.19877
748.6149, 20.18090
749.0970, 20.09273
749.5792, 20.11338
750.0613, 20.33996
750.5434, 20.55869
751.0255, 20.61146
751.5076, 20.47564
751.9897, 20.45114
752.4719, 20.55794
752.9540, 20.67813
753.4361, 20.71494
753.9182, 20.68236
754.4003, 20.58072
754.8824, 20.39592
755.3646, 20.27035
755.8467, 20.39070
756.3288, 20.56455
756.8109, 20.59582
757.2930, 20.31865
757.7751, 20.18270
758.2573, 20.25479
758.7394, 20.43274
759.2215, 20.65329
759.7036, 20.94345
760.1857, 21.06966
760.6678, 20.97425
761.1500, 20.83661
761.6321, 20.92719
762.1142, 21.15213
762.5963, 21.25904
763.0784, 21.12812
763.5605, 21.03468
764.0427, 21.27985
764.5248, 21.63503
765.0069, 21.81390
765.4890, 21.58381
765.9711, 21.39134
766.4532, 21.23543
766.9354, 21.15362
767.4175, 21.24590
767.8996, 21.56440
768.3817, 21.71207
768.8638, 21.58732
769.3459, 21.34524
769.8281, 21.24436
770.3102, 21.23224
770.7923, 21.13641
771.2744, 20.76981
771.7565, 20.50414
772.2386, 20.78315
772.7208, 21.29708
773.2029, 21.50662
773.6850, 20.96726
774.1671, 20.51428
774.6492, 20.29391
775.1313, 20.21311
775.6135, 20.04037
776.0956, 19.73945
776.5777, 19.63938
777.0598, 19.90024
777.5419, 20.29821
778.0240, 20.44413
778.5062, 20.39024
778.9883, 20.29888
779.4704, 20.22446
779.9525, 20.15496
780.4346, 20.07859
780.9167, 20.00212
781.3989, 19.94040
781.8810, 19.87390
782.3631, 19.85647
782.8452, 19.93615
783.3273, 20.05866
783.8094, 20.07612
784.2916, 19.98902
784.7737, 19.76925
785.2558, 19.31916
785.7379, 18.82342
786.2200, 18.64795
786.7021, 18.72884
787.1843, 18.85725
787.6664, 19.04967
788.1485, 19.14841
788.6306, 18.99723
789.1127, 18.66619
789.5948, 18.42481
790.0770, 18.31593
790.5591, 18.27068
791.0412, 18.27385
791.5233, 18.32824
792.0054, 18.50517
792.4875, 18.80886
792.9697, 18.95246
793.4518, 18.71889
793.9339, 18.32849
794.4160, 18.10192
794.8981, 18.01563
795.3802, 17.99133
795.8624, 18.05472
796.3445, 18.10875
796.8266, 18.09464
797.3087, 18.02716
797.7908, 17.98607
798.2729, 17.97026
798.7551, 17.99139
799.2372, 18.07605
799.7193, 18.19098
800.2014, 18.20557
800.6835, 18.12597
801.1656, 18.03347
801.6478, 17.95367
802.1299, 17.89541
802.6120, 17.88900
803.0941, 17.91504
803.5762, 17.91128
804.0583, 17.83135
804.5405, 17.73843
805.0226, 17.59372
805.5047, 17.44531
805.9868, 17.53893
806.4689, 18.00349
806.9510, 18.29307
807.4332, 18.14329
807.9153, 17.74555
808.3974, 17.71010
808.8795, 17.96361
809.3616, 18.08745
809.8438, 17.68509
810.3259, 17.21280
810.8080, 17.04355
811.2901, 17.11395
811.7722, 17.20148
812.2543, 17.33026
812.7365, 17.36653
813.2186, 17.21788
813.7007, 16.96216
814.1828, 16.91160
814.6649, 17.09662
815.1470, 17.24067
815.6292, 17.22251
816.1113, 17.12107
816.5934, 17.07901
817.0755, 17.07948
817.5576, 17.06754
818.0397, 16.97896
818.5219, 16.90880
819.0040, 16.93379
819.4861, 17.01894
819.9682, 17.04838
820.4503, 17.00799
820.9324, 16.92012
821.4146, 16.75789
821.8967, 16.57703
822.3788, 16.56492
822.8609, 16.70714
823.3430, 16.77114
823.8251, 16.62380
824.3073, 16.42193
824.7894, 16.30096
825.2715, 16.27350
825.7536, 16.36119
826.2357, 16.78058
826.7178, 17.07812
827.2000, 16.98579
827.6821, 16.72041
828.1642, 16.71036
828.6463, 17.06679
829.1284, 17.27111
829.6105, 17.18578
830.0927, 16.95579
830.5748, 16.81275
831.0569, 16.74627
831.5390, 16.72483
832.0211, 16.77829
832.5032, 16.80422
832.9854, 16.65354
833.4675, 16.45015
833.9496, 16.38595
834.4317, 16.71649
834.9138, 16.88095
835.3959, 16.76950
835.8781, 16.54713
836.3602, 16.45037
836.8423, 16.48048
837.3244, 16.60271
837.8065, 16.84677
838.2886, 17.05645
838.7708, 17.01549
839.2529, 16.82404
839.7350, 16.63805
840.2171, 16.46865
840.6992, 16.37351
841.1813, 16.39754
841.6635, 16.49092
842.1456, 16.60284
842.6277, 16.73882
843.1098, 16.88221
843.5919, 17.04459
844.0740, 17.18143
844.5562, 17.23743
845.0383, 17.22416
845.5204, 17.15912
846.0025, 17.03615
846.4846, 16.92937
846.9667, 16.93324
847.4489, 16.95435
847.9310, 16.88364
848.4131, 16.60760
848.8952, 16.53355
849.3773, 16.80729
849.8594, 17.08836
850.3416, 17.06246
850.8237, 16.74151
851.3058, 16.68758
851.7879, 16.94119
852.2700, 17.11579
852.7521, 16.66543
853.2343, 16.08054
853.7164, 16.01802
854.1985, 16.56406
854.6806, 17.01534
855.1627, 17.12384
855.6448, 17.08453
856.1270, 16.97803
856.6091, 16.80190
857.0912, 16.64312
857.5733, 16.49315
858.0554, 16.41503
858.5375, 16.47248
859.0197, 16.62395
859.5018, 16.80960
859.9839, 17.01569
860.4660, 17.17090
860.9481, 17.29527
861.4302, 17.30243
861.9124, 17.05194
862.3945, 16.58593
862.8766, 16.35710
863.3587, 16.47101
863.8408, 16.58056
864.3229, 16.53433
864.8051, 16.42245
865.2872, 16.58178
865.7693, 16.95779
866.2514, 17.22227
866.7335, 17.13813
867.2156, 16.95309
867.6978, 16.83947
868.1799, 16.77133
868.6620, 16.68753
869.1441, 16.52346
869.6262, 16.41761
870.1083, 16.42578
870.5905, 16.47181
871.0726, 16.37334
871.5547, 16.13501
872.0368, 15.98766
872.5189, 16.00397
873.0010, 16.08711
873.4832, 16.10810
873.9653, 16.12520
874.4474, 16.24791
874.9295, 16.67383
875.4116, 16.91670
875.8937, 16.73066
876.3759, 16.39764
876.8580, 16.16291
877.3401, 16.03429
877.8222, 15.96776
878.3043, 15.96812
878.7864, 15.99541
879.2686, 16.01636
879.7507, 16.03095
880.2328, 16.03519
880.7149, 16.02668
881.1970, 16.02812
881.6791, 15.98889
882.1613, 16.01372
882.6434, 16.23557
883.1255, 16.71731
883.6076, 16.86604
884.0897, 16.58475
884.5718, 16.28468
885.0540, 16.26873
885.5361, 16.45009
886.0182, 16.58163
886.5003, 16.65895
886.9824, 16.66297
887.4645, 16.43671
887.9467, 16.26267
888.4288, 16.39163
888.9109, 16.78725
889.3930, 16.97920
889.8751, 16.83484
890.3572, 16.75389
890.8394, 16.91310
891.3215, 17.18200
891.8036, 17.13190
892.2857, 16.82671
892.7678, 16.61431
893.2499, 16.74009
893.7321, 16.90548
894.2142, 16.86633
894.6963, 16.71270
895.1784, 16.61745
895.6605, 16.62783
896.1426, 16.68223
896.6248, 16.80039
897.1069, 16.93251
897.5890, 16.99470
898.0711, 16.99534
898.5532, 17.01060
899.0353, 17.05475
899.5175, 17.11402
899.9996, 17.17229
900.4817, 17.24069
900.9638, 17.34249
901.4459, 17.52156
901.9280, 17.61321
902.4102, 17.51692
902.8923, 17.43295
903.3744, 17.51487
903.8565, 17.76710
904.3386, 17.98326
904.8207, 18.15875
905.3029, 18.33185
905.7850, 18.62024
906.2671, 18.86136
906.7492, 18.79975
907.2313, 18.45493
907.7134, 18.24305
908.1956, 18.39820
908.6777, 18.58981
909.1598, 18.73572
909.6419, 18.82951
910.1240, 18.77227
910.6061, 18.55847
911.0883, 18.54152
911.5704, 19.03329
912.0525, 19.60873
912.5346, 19.69705
913.0167, 19.45242
913.4988, 19.20922
913.9810, 18.91907
914.4631, 18.86206
914.9452, 19.25807
915.4273, 19.79904
915.9094, 20.03527
916.3915, 19.94370
916.8737, 19.80791
917.3558, 19.64655
917.8379, 19.54366
918.3200, 19.66943
918.8021, 19.88523
919.2842, 19.99127
919.7664, 19.94115
920.2485, 19.81663
920.7306, 19.49807
921.2127, 19.24090
921.6948, 19.22869
922.1769, 19.48375
922.6591, 19.64670
923.1412, 19.71871
923.6233, 19.68492
924.1054, 19.44892
924.5875, 19.15080
925.0696, 18.99793
925.5518, 18.97192
926.0339, 18.94090
926.5160, 18.86698
926.9981, 18.75977
927.4802, 18.57225
927.9623, 18.36765
928.4445, 18.39618
928.9266, 18.68835
929.4087, 18.81749
929.8908, 18.60136
930.3729, 18.28073
930.8550, 18.12756
931.3372, 18.11729
931.8193, 18.22375
932.3014, 18.61346
932.7835, 18.82499
933.2656, 18.62392
933.7477, 18.29833
934.2299, 18.09515
934.7120, 18.02755
935.1941, 17.96506
935.6762, 17.89850
936.1583, 17.86205
936.6404, 17.96446
937.1226, 18.07607
937.6047, 17.95814
938.0868, 17.59187
938.5689, 17.38489
939.0510, 17.65242
939.5331, 17.90996
940.0153, 17.96078
940.4974, 17.83706
940.9795, 17.76907
941.4616, 17.75719
941.9437, 17.73014
942.4258, 17.63582
942.9080, 17.53214
943.3901, 17.45077
943.8722, 17.41892
944.3543, 17.49484
944.8364, 17.91820
945.3185, 18.14279
945.8007, 17.98529
946.2828, 17.70320
946.7649, 17.66228
947.2470, 17.85497
947.7291, 17.96460
948.2112, 17.93645
948.6934, 17.92001
949.1755, 18.11577
949.6576, 18.36718
950.1397, 18.48163
950.6218, 18.39776
951.1039, 18.41073
951.5861, 18.67842
952.0682, 18.87107
952.5503, 18.77808
953.0324, 18.45964
953.5145, 18.35121
953.9966, 18.43777
954.4788, 18.52758
954.9609, 18.44142
955.4430, 18.37814
955.9251, 18.55985
956.4072, 18.88861
956.8893, 19.09789
957.3715, 19.07526
957.8536, 19.05738
958.3357, 19.07580
958.8178, 19.10761
959.2999, 19.12813
959.7820, 19.13210
960.2642, 19.08961
960.7463, 18.98788
961.2284, 18.87890
961.7105, 18.69972
962.1926, 18.59660
962.6747, 18.73393
963.1569, 19.19246
963.6390, 19.54791
964.1211, 19.78898
964.6032, 19.96577
965.0853, 20.13253
965.5674, 20.25028
966.0496, 20.10160
966.5317, 19.76086
967.0138, 19.57760
967.4959, 19.95813
967.9780, 20.31039
968.4601, 20.23925
968.9423, 19.95529
969.4244, 19.97018
969.9065, 20.38688
970.3886, 20.64982
970.8707, 20.63379
971.3528, 20.53304
971.8350, 20.55880
972.3171, 20.70329
972.7992, 20.99613
973.2813, 21.50399
973.7634, 21.87302
974.2455, 21.86489
974.7277, 21.76752
975.2098, 21.74518
975.6919, 21.79855
976.1740, 21.86909
976.6561, 21.95654
977.1382, 22.06532
977.6204, 22.21840
978.1025, 22.38119
978.5846, 22.48809
979.0667, 22.56827
979.5488, 22.71166
980.0309, 23.06721
980.5131, 23.31515
980.9952, 23.36259
981.4773, 23.32487
981.9594, 23.39888
982.4415, 23.56958
982.9236, 23.70168
983.4058, 23.75652
983.8879, 23.85496
984.3700, 24.19127
984.8521, 24.55926
985.3342, 24.70057
985.8163, 24.47695
986.2985, 24.67797
986.7806, 25.51476
987.2627, 26.29890
987.7448, 26.57996
988.2269, 26.57997
988.7090, 27.01273
989.1912, 27.79364
989.6733, 28.56818
990.1554, 29.17421
990.6375, 29.72046
991.1196, 30.21418
991.6017, 30.68640
992.0839, 31.16354
992.5660, 31.61611
993.0481, 32.20840
993.5302, 32.96777
994.0123, 33.84649
994.4944, 34.87001
994.9766, 35.94260
995.4587, 36.86204
995.9408, 37.57706
996.4229, 38.46389
996.9050, 39.87440
997.3871, 41.23752
997.8693, 42.23421
998.3514, 42.97185
998.8335, 44.07433
999.3156, 45.51910
999.7977, 47.01662
1000.280, 48.47490
1000.762, 49.85460
1001.244, 51.02339
1001.726, 52.11230
1002.208, 53.35132
1002.690, 54.85681
1003.173, 56.41270
1003.655, 58.06217
1004.137, 59.64198
1004.619, 60.88622
1005.101, 61.91512
1005.583, 63.05268
1006.065, 64.33488
1006.547, 65.73508
1007.029, 67.49330
1007.512, 69.14493
1007.994, 70.35679
1008.476, 71.22514
1008.958, 72.13871
1009.440, 73.14748
1009.922, 73.85963
1010.404, 74.09026
1010.886, 74.11699
1011.369, 74.50078
1011.851, 74.90420
1012.333, 74.69812
1012.815, 73.35914
1013.297, 72.29296
1013.779, 71.91660
1014.261, 71.66676
1014.743, 71.22875
1015.225, 70.59456
1015.708, 69.49940
1016.190, 67.98405
1016.672, 66.71444
1017.154, 66.42487
1017.636, 66.27890
1018.118, 65.67606
1018.600, 64.72503
1019.082, 63.81758
1019.565, 62.97328
1020.047, 62.18394
1020.529, 61.44297
1021.011, 60.76217
1021.493, 60.13353
1021.975, 59.57129
1022.457, 59.15500
1022.939, 58.92784
1023.421, 58.57036
1023.904, 57.67963
1024.386, 56.88803
1024.868, 56.52661
1025.350, 56.55259
1025.832, 56.59934
1026.314, 56.66676
1026.796, 56.69792
1027.278, 56.62963
1027.760, 56.56348
1028.243, 56.61760
1028.725, 56.73954
1029.207, 56.84164
1029.689, 56.88778
1030.171, 56.93563
1030.653, 56.95379
1031.135, 57.04356
1031.617, 57.32740
1032.100, 57.75796
1032.582, 58.17104
1033.064, 58.57747
1033.546, 59.17149
1034.028, 60.08045
1034.510, 61.19416
1034.992, 62.64486
1035.474, 64.22881
1035.957, 65.21621
1036.439, 65.57530
1036.921, 66.10390
1037.403, 66.99348
1037.885, 68.12096
1038.367, 69.45435
1038.849, 70.88736
1039.331, 72.17350
1039.813, 73.13359
1040.296, 74.71366
1040.778, 77.23135
1041.260, 79.78682
1041.742, 81.81302
1042.224, 83.50594
1042.706, 85.41829
1043.188, 87.51364
1043.670, 89.76470
1044.152, 91.94993
1044.635, 94.49398
1045.117, 97.64815
1045.599, 101.2111
1046.081, 104.9750
1046.563, 109.0346
1047.045, 112.7579
1047.527, 116.0534
1048.009, 119.6573
1048.492, 124.4197
1048.974, 129.6419
1049.456, 134.4070
1049.938, 138.7923
1050.420, 144.0504
1050.902, 150.7268
1051.384, 157.5447
1051.866, 164.1469
1052.349, 170.8166
1052.831, 177.8946
1053.313, 185.4962
1053.795, 194.1279
1054.277, 204.0990
1054.759, 213.9732
1055.241, 222.5757
1055.723, 231.3010
1056.205, 241.0415
1056.688, 251.7746
1057.170, 262.6125
1057.652, 273.5985
1058.134, 285.0280
1058.616, 297.1464
1059.098, 309.8382
1059.580, 323.5074
1060.062, 337.5531
1060.544, 350.7953
1061.027, 362.6196
1061.509, 374.8077
1061.991, 387.5906
1062.473, 400.1502
1062.955, 411.6041
1063.437, 422.2245
1063.919, 432.9742
1064.401, 443.6340
1064.884, 452.7862
1065.366, 459.1785
1065.848, 464.4825
1066.330, 469.3464
1066.812, 473.4523
1067.294, 476.1422
1067.776, 477.3963
1068.258, 477.0721
1068.740, 475.0147
1069.223, 472.0785
1069.705, 469.2719
1070.187, 465.6269
1070.669, 459.9558
1071.151, 452.1166
1071.633, 444.5831
1072.115, 437.4582
1072.597, 429.8270
1073.079, 421.3412
1073.562, 412.0637
1074.044, 401.5496
1074.526, 390.3757
1075.008, 379.3856
1075.490, 369.0751
1075.972, 358.6849
1076.454, 348.1656
1076.936, 337.5884
1077.419, 327.0020
1077.901, 316.3467
1078.383, 304.7321
1078.865, 292.3283
1079.347, 280.9850
1079.829, 272.4052
1080.311, 264.3273
1080.793, 255.8262
1081.275, 247.1482
1081.758, 238.7611
1082.240, 230.6139
1082.722, 222.3797
1083.204, 213.9486
1083.686, 205.8300
1084.168, 198.0834
1084.650, 190.9209
1085.132, 184.7047
1085.615, 179.4252
1086.097, 173.9454
1086.579, 168.1112
1087.061, 162.4495
1087.543, 157.1788
1088.025, 152.1632
1088.507, 147.2296
1088.989, 142.5105
1089.471, 138.2695
1089.953, 134.6373
1090.436, 131.2134
1090.918, 127.7890
1091.400, 124.7062
1091.882, 122.2635
1092.364, 120.2611
1092.846, 117.7486
1093.328, 114.8333
1093.810, 111.9204
1094.293, 108.9402
1094.775, 106.3557
1095.257, 104.6847
1095.739, 103.3034
1096.221, 101.5053
1096.703, 99.20414
1097.185, 97.15804
1097.667, 95.37131
1098.150, 93.82827
1098.632, 92.66529
1099.114, 91.63427
1099.596, 90.50801
1100.078, 89.32915
1100.560, 88.25466
1101.042, 87.34061
1101.524, 86.40327
1102.006, 85.40130
1102.489, 84.41751
1102.971, 83.53169
1103.453, 82.69971
1103.935, 81.86806
1104.417, 81.02538
1104.899, 80.20161
1105.381, 79.43314
1105.863, 78.62346
1106.345, 77.73746
1106.828, 76.80899
1107.310, 75.93736
1107.792, 75.09619
1108.274, 74.15617
1108.756, 72.97390
1109.238, 72.18665
1109.720, 72.61709
1110.202, 73.02941
1110.685, 72.68563
1111.167, 71.69711
1111.649, 70.85276
1112.131, 70.15773
1112.613, 69.65970
1113.095, 69.54848
1113.577, 69.36779
1114.059, 68.54478
1114.542, 67.62308
1115.024, 67.33029
1115.506, 67.92184
1115.988, 67.78652
1116.470, 66.85424
1116.952, 65.89967
1117.434, 65.45340
1117.916, 65.24888
1118.398, 65.12035
1118.880, 64.99075
1119.363, 64.66795
1119.845, 64.01356
1120.327, 63.35793
1120.809, 62.64569
1121.291, 62.19030
1121.773, 62.58507
1122.255, 63.32466
1122.737, 63.60162
1123.220, 63.37803
1123.702, 62.76232
1124.184, 61.16913
1124.666, 60.05869
1125.148, 59.78746
1125.630, 59.96574
1126.112, 60.04951
1126.594, 60.05989
1127.077, 60.05895
1127.559, 60.05577
1128.041, 60.03902
1128.523, 59.86825
1129.005, 59.84925
1129.487, 60.18528
1129.969, 60.72319
1130.451, 60.97343
1130.933, 60.97157
1131.416, 60.97002
1131.898, 61.01460
1132.380, 61.15540
1132.862, 61.44498
1133.344, 61.83373
1133.826, 62.33966
1134.308, 62.93926
1134.790, 63.27776
1135.272, 63.35179
1135.755, 63.32497
1136.237, 63.25928
1136.719, 63.13401
1137.201, 62.81594
1137.683, 62.48556
1138.165, 62.40907
1138.647, 62.66947
1139.129, 62.85635
1139.612, 62.96209
1140.094, 63.04659
1140.576, 63.13969
1141.058, 63.23775
1141.540, 63.45472
1142.022, 63.65112
1142.504, 63.52069
1142.986, 62.81824
1143.469, 62.10644
1143.951, 61.32246
1144.433, 60.74422
1144.915, 60.90194
1145.397, 61.27864
1145.879, 60.79798
1146.361, 59.64202
1146.843, 58.66752
1147.325, 58.48931
1147.807, 57.95866
1148.290, 56.77533
1148.772, 55.49875
1149.254, 54.94551
1149.736, 54.80580
1150.218, 54.25526
1150.700, 53.24740
1151.182, 52.10369
1151.664, 50.72646
1152.147, 49.55028
1152.629, 48.77856
1153.111, 48.17008
1153.593, 47.30325
1154.075, 46.22585
1154.557, 45.08221
1155.039, 43.89134
1155.521, 42.70701
1156.004, 41.51434
1156.486, 40.39412
1156.968, 39.42800
1157.450, 38.53477
1157.932, 37.34212
1158.414, 35.91799
1158.896, 34.77952
1159.378, 34.10240
1159.860, 33.48256
1160.343, 32.62471
1160.825, 31.75468
1161.307, 31.04944
1161.789, 30.47661
1162.271, 29.73480
1162.753, 28.83548
1163.235, 28.06236
1163.717, 27.56857
1164.199, 27.09423
1164.682, 26.28003
1165.164, 25.50245
1165.646, 25.19820
1166.128, 25.39701
1166.610, 25.43787
1167.092, 25.32188
1167.574, 24.98890
1168.056, 24.23332
1168.539, 23.51364
1169.021, 23.36961
1169.503, 23.45677
1169.985, 23.26208
1170.467, 22.65866
1170.949, 22.27600
1171.431, 22.13560
1171.913, 22.05084
1172.396, 21.93515
1172.878, 21.78932
1173.360, 21.57381
1173.842, 21.33858
1174.324, 21.18261
1174.806, 21.14264
1175.288, 21.10601
1175.770, 21.07779
1176.252, 21.01300
1176.734, 20.84319
1177.217, 20.64060
1177.699, 20.51067
1178.181, 20.42309
1178.663, 20.28009
1179.145, 19.98913
1179.627, 19.85274
1180.109, 19.92330
1180.591, 20.02581
1181.074, 19.96998
1181.556, 19.85687
1182.038, 19.87293
1182.520, 19.97502
1183.002, 19.91430
1183.484, 19.54934
1183.966, 19.23106
1184.448, 18.97901
1184.931, 18.85310
1185.413, 19.03414
1185.895, 19.32843
1186.377, 19.43247
1186.859, 19.33770
1187.341, 19.15143
1187.823, 18.77727
1188.305, 18.57047
1188.787, 18.64739
1189.270, 18.79565
1189.752, 18.68580
1190.234, 18.45950
1190.716, 18.39994
1191.198, 18.52673
1191.680, 18.50288
1192.162, 18.14251
1192.644, 17.83903
1193.126, 17.66730
1193.609, 17.63115
1194.091, 17.89431
1194.573, 18.24006
1195.055, 18.18204
1195.537, 17.62209
1196.019, 17.30273
1196.501, 17.61594
1196.983, 17.74300
1197.466, 17.35046
1197.948, 16.79035
1198.430, 16.71463
1198.912, 16.95019
1199.394, 17.19604
1199.876, 17.41586
1200.358, 17.44575
1200.840, 17.16291
1201.323, 16.84417
1201.805, 16.54114
1202.287, 16.32751
1202.769, 16.51181
1203.251, 16.86953
1203.733, 16.87131
1204.215, 16.28585
1204.697, 15.89095
1205.179, 15.89471
1205.661, 15.94755
1206.144, 15.89707
1206.626, 15.79983
1207.108, 15.80510
1207.590, 15.85993
1208.072, 15.84142
1208.554, 15.68627
1209.036, 15.56158
1209.518, 15.49080
1210.001, 15.45185
1210.483, 15.42333
1210.965, 15.42954
1211.447, 15.61362
1211.929, 15.86254
1212.411, 15.91298
1212.893, 15.57074
1213.375, 15.35349
1213.858, 15.38297
1214.340, 15.40524
1214.822, 15.23802
1215.304, 14.99449
1215.786, 15.01132
1216.268, 15.15833
1216.750, 15.12467
1217.232, 14.61643
1217.714, 14.39028
1218.197, 14.59030
1218.679, 14.86878
1219.161, 15.05252
1219.643, 15.12814
1220.125, 14.97376
1220.607, 14.70504
1221.089, 14.59319
1221.571, 14.85315
1222.053, 15.03356
1222.536, 15.12533
1223.018, 15.10365
1223.500, 14.86455
1223.982, 14.55846
1224.464, 14.52322
1224.946, 14.65515
1225.428, 14.71849
1225.910, 14.57820
1226.393, 14.47357
1226.875, 14.40631
1227.357, 14.38115
1227.839, 14.42130
1228.321, 14.49365
1228.803, 14.55130
1229.285, 14.59646
1229.767, 14.63609
1230.250, 14.71716
1230.732, 14.68205
1231.214, 14.49664
1231.696, 14.31992
1232.178, 14.27537
1232.660, 14.31260
1233.142, 14.44610
1233.624, 14.59450
1234.106, 14.55873
1234.589, 14.26820
1235.071, 13.87454
1235.553, 13.33124
1236.035, 12.95684
1236.517, 13.15681
1236.999, 13.53139
1237.481, 13.63254
1237.963, 13.54919
1238.445, 13.50078
1238.928, 13.54058
1239.410, 13.47624
1239.892, 13.28646
1240.374, 13.11912
1240.856, 13.14336
1241.338, 13.18867
1241.820, 13.06097
1242.302, 12.85021
1242.785, 12.74525
1243.267, 12.76004
1243.749, 12.86181
1244.231, 13.05626
1244.713, 13.17421
1245.195, 13.00668
1245.677, 12.80354
1246.159, 12.80970
1246.641, 12.88312
1247.124, 12.72874
1247.606, 12.30640
1248.088, 12.19496
1248.570, 12.41375
1249.052, 12.55599
1249.534, 12.20745
1250.016, 11.85453
1250.498, 11.77444
1250.980, 11.88007
1251.463, 12.10698
1251.945, 12.45070
1252.427, 12.63905
1252.909, 12.66304
1253.391, 12.53898
1253.873, 12.06901
1254.355, 11.70367
1254.837, 11.69730
1255.320, 11.84484
1255.802, 11.94561
1256.284, 12.00546
1256.766, 12.09361
1257.248, 12.19265
1257.730, 12.16730
1258.212, 11.77318
1258.694, 11.48164
1259.177, 11.41687
1259.659, 11.48819
1260.141, 11.64049
1260.623, 11.84802
1261.105, 12.07026
1261.587, 12.27676
1262.069, 12.34086
1262.551, 12.02566
1263.033, 11.85375
1263.516, 11.96521
1263.998, 12.06867
1264.480, 11.74794
1264.962, 11.27209
1265.444, 11.25617
1265.926, 11.59751
1266.408, 11.86422
1266.890, 11.93982
1267.372, 11.93417
1267.855, 11.84157
1268.337, 11.70698
1268.819, 11.51929
1269.301, 11.34733
1269.783, 11.31804
1270.265, 11.38263
1270.747, 11.39578
1271.229, 11.30313
1271.712, 11.29267
1272.194, 11.37942
1272.676, 11.49668
1273.158, 11.61079
1273.640, 11.71592
1274.122, 11.82176
1274.604, 11.90793
1275.086, 11.93417
1275.568, 11.89079
1276.051, 11.84377
1276.533, 11.79449
1277.015, 11.78041
1277.497, 11.88717
1277.979, 11.96832
1278.461, 11.87858
1278.943, 11.74827
1279.425, 11.74171
1279.907, 11.85676
1280.390, 11.96768
1280.872, 12.07232
1281.354, 12.17065
1281.836, 12.31205
1282.318, 12.37897
1282.800, 12.25781
1283.282, 12.12483
1283.764, 12.15161
1284.247, 12.29855
1284.729, 12.39805
1285.211, 12.44075
1285.693, 12.39434
1286.175, 12.17117
1286.657, 11.96492
1287.139, 11.79767
1287.621, 11.65307
1288.104, 11.51263
1288.586, 11.39001
1289.068, 11.28529
1289.550, 11.22242
1290.032, 11.25966
1290.514, 11.52459
1290.996, 11.66464
1291.478, 11.65821
1291.960, 11.61796
1292.443, 11.63739
1292.925, 11.63946
1293.407, 11.46152
1293.889, 11.22803
1294.371, 11.15828
1294.853, 11.28369
1295.335, 11.43312
1295.817, 11.60876
1296.299, 11.75259
1296.782, 11.87428
1297.264, 11.88978
1297.746, 11.61934
1298.228, 11.30079
1298.710, 11.18599
1299.192, 11.26122
1299.674, 11.25758
1300.156, 11.18751
1300.639, 11.13659
1301.121, 11.17600
1301.603, 11.15574
1302.085, 10.89501
1302.567, 10.67784
1303.049, 10.63437
1303.531, 10.76332
##END=



