##NAMES=Berzelianite
##RRUFFID=R060260
##IDEAL CHEMISTRY=Cu_2-x_Se (x &#8776; 0.12)
##LOCALITY=Bukov mine, near Tisnova, Western Moravia, Czechoslovakia
##OWNER=RRUFF
##SOURCE=Michael Scott
##DESCRIPTION=Black tarnished metallic coating
##STATUS=The identification of this mineral is confirmed by single-crystal X-ray diffraction and chemical analysis.
##URL=rruff.info/R060260
##MEASURED CHEMISTRY=(Cu_1.77_[box]_0.23_)_Î£=2_Se_1.00_ ; trace amounts of S
93.46167, 264.5450
93.94379, 263.3828
94.42590, 260.3559
94.90802, 256.5570
95.39014, 252.4431
95.87225, 247.9454
96.35437, 243.5252
96.83649, 239.5238
97.31860, 235.8403
97.80072, 232.3592
98.28284, 228.7676
98.76495, 224.9149
99.24707, 221.2089
99.72919, 217.3123
100.2113, 214.0238
100.6934, 211.6284
101.1755, 209.9153
101.6577, 208.5027
102.1398, 207.0083
102.6219, 205.2967
103.1040, 204.1992
103.5861, 204.0260
104.0682, 203.9889
104.5504, 203.7247
105.0325, 203.1478
105.5146, 202.3068
105.9967, 201.2208
106.4788, 199.7771
106.9609, 198.2961
107.4431, 196.8641
107.9252, 195.3682
108.4073, 193.5831
108.8894, 191.3363
109.3715, 188.9855
109.8536, 187.1441
110.3358, 185.7788
110.8179, 184.7236
111.3000, 184.0686
111.7821, 183.7601
112.2642, 183.2558
112.7463, 182.0666
113.2285, 180.7576
113.7106, 180.0118
114.1927, 180.1191
114.6748, 180.3203
115.1569, 179.3899
115.6390, 176.6901
116.1212, 174.4778
116.6033, 173.6016
117.0854, 173.3834
117.5675, 173.2108
118.0496, 172.7926
118.5317, 172.1711
119.0139, 171.5566
119.4960, 170.9491
119.9781, 170.3476
120.4602, 169.6294
120.9423, 168.9154
121.4244, 168.4453
121.9066, 168.4449
122.3887, 168.9758
122.8708, 169.0736
123.3529, 168.5327
123.8350, 167.8574
124.3171, 167.2309
124.7993, 166.6820
125.2814, 166.1841
125.7635, 165.6891
126.2456, 165.1805
126.7277, 164.8740
127.2098, 165.0234
127.6920, 165.2637
128.1741, 165.2032
128.6562, 164.7469
129.1383, 164.0757
129.6204, 163.3178
130.1025, 162.4787
130.5847, 161.7525
131.0668, 161.2589
131.5489, 160.9485
132.0310, 160.6402
132.5131, 160.2343
132.9952, 159.9000
133.4774, 159.9176
133.9595, 160.2802
134.4416, 160.4378
134.9237, 159.7040
135.4058, 157.8901
135.8879, 156.4911
136.3701, 156.0827
136.8522, 156.0001
137.3343, 156.0024
137.8164, 156.0101
138.2985, 155.9091
138.7806, 155.4162
139.2628, 153.9922
139.7449, 153.2053
140.2270, 153.6847
140.7091, 154.5292
141.1912, 154.9000
141.6733, 154.4183
142.1555, 153.3503
142.6376, 152.6145
143.1197, 152.6445
143.6018, 152.5430
144.0839, 152.0603
144.5660, 151.4006
145.0482, 150.9004
145.5303, 150.7684
146.0124, 150.9531
146.4945, 151.0645
146.9766, 151.2301
147.4587, 151.2222
147.9409, 150.7581
148.4230, 149.9547
148.9051, 149.3499
149.3872, 149.3895
149.8693, 149.9790
150.3514, 150.3435
150.8336, 150.5224
151.3157, 150.4418
151.7978, 149.8871
152.2799, 148.7750
152.7620, 147.7450
153.2441, 147.4022
153.7263, 147.4731
154.2084, 147.5384
154.6905, 147.4688
155.1726, 147.3017
155.6547, 147.1172
156.1368, 146.9238
156.6190, 146.6943
157.1011, 146.3988
157.5832, 146.0622
158.0653, 145.7275
158.5474, 145.4141
159.0295, 145.1233
159.5117, 144.8713
159.9938, 144.6179
160.4759, 144.4528
160.9580, 144.4204
161.4401, 144.5036
161.9222, 144.6735
162.4044, 144.9795
162.8865, 145.5319
163.3686, 145.5413
163.8507, 144.2937
164.3328, 143.1516
164.8149, 142.8407
165.2971, 143.3133
165.7792, 143.9901
166.2613, 144.2036
166.7434, 143.8059
167.2255, 143.2973
167.7076, 142.4075
168.1898, 141.5999
168.6719, 141.2929
169.1540, 141.5400
169.6361, 141.9705
170.1182, 142.0497
170.6003, 141.5632
171.0825, 141.2624
171.5646, 141.5518
172.0467, 141.9006
172.5288, 141.5471
173.0109, 140.1987
173.4930, 138.5767
173.9752, 137.9625
174.4573, 138.4208
174.9394, 138.8966
175.4215, 139.1614
175.9036, 139.2230
176.3857, 139.0653
176.8679, 138.6066
177.3500, 138.0340
177.8321, 137.4920
178.3142, 136.9288
178.7963, 136.7301
179.2784, 137.4883
179.7606, 139.0379
180.2427, 139.9397
180.7248, 139.3904
181.2069, 138.3816
181.6890, 137.8598
182.1711, 137.9098
182.6533, 137.9624
183.1354, 137.3006
183.6175, 135.7773
184.0996, 134.7098
184.5817, 134.8224
185.0638, 135.2437
185.5460, 135.5970
186.0281, 135.7864
186.5102, 135.7524
186.9923, 135.3042
187.4744, 134.1386
187.9565, 133.3832
188.4387, 133.3852
188.9208, 133.6590
189.4029, 133.8958
189.8850, 133.9949
190.3671, 134.0204
190.8492, 134.1222
191.3314, 134.5417
191.8135, 134.6068
192.2956, 133.9683
192.7777, 133.1568
193.2598, 132.6788
193.7419, 132.7279
194.2241, 133.0722
194.7062, 133.1533
195.1883, 132.7112
195.6704, 132.2761
196.1525, 132.0064
196.6346, 131.7028
197.1168, 130.9776
197.5989, 129.6326
198.0810, 128.0730
198.5631, 127.5245
199.0452, 128.8010
199.5273, 129.9319
200.0095, 130.7669
200.4916, 131.2373
200.9737, 131.0762
201.4558, 130.0134
201.9379, 128.5473
202.4200, 128.2048
202.9022, 129.6099
203.3843, 130.7950
203.8664, 130.9329
204.3485, 130.2991
204.8306, 129.6065
205.3127, 129.0760
205.7949, 128.7700
206.2770, 128.8490
206.7591, 129.5945
207.2412, 130.1020
207.7233, 129.6061
208.2054, 128.2820
208.6876, 127.2458
209.1697, 127.0868
209.6518, 127.3631
210.1339, 127.3444
210.6160, 126.8961
211.0981, 126.4676
211.5803, 126.6059
212.0624, 127.3144
212.5445, 127.5834
213.0266, 126.4360
213.5087, 125.0727
213.9908, 124.7456
214.4730, 125.7733
214.9551, 127.0923
215.4372, 127.4754
215.9193, 126.7676
216.4014, 126.1015
216.8836, 125.9420
217.3657, 125.8585
217.8478, 125.4745
218.3299, 124.6934
218.8120, 123.9162
219.2941, 123.7544
219.7763, 124.4112
220.2584, 125.0191
220.7405, 125.4716
221.2226, 125.7965
221.7047, 126.0195
222.1868, 126.1445
222.6690, 126.1315
223.1511, 125.8921
223.6332, 125.3146
224.1153, 124.7515
224.5974, 124.0140
225.0795, 123.4357
225.5617, 123.4155
226.0438, 124.0164
226.5259, 124.7848
227.0080, 124.8717
227.4901, 123.6384
227.9722, 122.8902
228.4544, 123.1827
228.9365, 123.6149
229.4186, 123.3338
229.9007, 122.1588
230.3828, 120.7203
230.8649, 120.1482
231.3471, 121.2033
231.8292, 121.9562
232.3113, 122.2317
232.7934, 122.3349
233.2755, 122.5951
233.7576, 123.0776
234.2398, 123.4921
234.7219, 123.3259
235.2040, 121.9721
235.6861, 121.1139
236.1682, 120.9906
236.6503, 121.2166
237.1325, 121.4846
237.6146, 121.7058
238.0967, 121.9310
238.5788, 122.2581
239.0609, 122.8365
239.5430, 123.1315
240.0252, 122.9486
240.5073, 122.5592
240.9894, 122.1912
241.4715, 121.8986
241.9536, 121.6972
242.4357, 121.6313
242.9179, 121.7432
243.4000, 121.8060
243.8821, 121.7453
244.3642, 121.6506
244.8463, 121.6571
245.3284, 121.7995
245.8106, 121.9069
246.2927, 121.7133
246.7748, 121.2002
247.2569, 120.8609
247.7390, 121.0328
248.2211, 121.3011
248.7033, 121.0324
249.1854, 120.0616
249.6675, 119.1136
250.1496, 119.0875
250.6317, 119.8299
251.1138, 120.3203
251.5960, 120.0617
252.0781, 119.5606
252.5602, 119.5561
253.0423, 120.1947
253.5244, 120.8628
254.0065, 121.0166
254.4887, 120.7770
254.9708, 120.4065
255.4529, 119.8170
255.9350, 119.1937
256.4171, 118.8590
256.8992, 118.8903
257.3813, 118.8954
257.8635, 118.3797
258.3456, 117.6580
258.8277, 117.2980
259.3098, 117.7035
259.7919, 118.4144
260.2740, 118.7980
260.7562, 118.8259
261.2383, 118.6460
261.7204, 118.1247
262.2025, 117.4943
262.6846, 117.0352
263.1667, 116.8268
263.6489, 116.8240
264.1310, 117.0463
264.6131, 117.5786
265.0952, 117.9647
265.5773, 117.7976
266.0594, 117.4592
266.5416, 117.3401
267.0237, 117.6088
267.5058, 117.9571
267.9879, 117.9057
268.4700, 117.3406
268.9521, 116.9089
269.4343, 117.0176
269.9164, 117.2544
270.3985, 117.2655
270.8806, 116.9457
271.3627, 116.6009
271.8448, 116.7698
272.3270, 117.6539
272.8091, 117.9975
273.2912, 116.6722
273.7733, 115.2253
274.2554, 114.6540
274.7375, 115.1165
275.2197, 116.0104
275.7018, 116.7606
276.1839, 117.3764
276.6660, 117.7662
277.1481, 117.7887
277.6302, 117.6530
278.1124, 117.3628
278.5945, 116.9597
279.0766, 116.6131
279.5587, 116.5856
280.0408, 116.9482
280.5229, 116.9886
281.0051, 116.2066
281.4872, 115.4922
281.9693, 115.2859
282.4514, 115.5080
282.9335, 115.7909
283.4156, 115.8424
283.8978, 115.6595
284.3799, 115.3861
284.8620, 114.8676
285.3441, 114.4130
285.8262, 114.0526
286.3083, 113.8352
286.7905, 113.8603
287.2726, 114.2573
287.7547, 114.9733
288.2368, 115.4839
288.7189, 115.5455
289.2010, 115.6838
289.6832, 116.2708
290.1653, 116.9802
290.6474, 117.2843
291.1295, 116.8304
291.6116, 115.8291
292.0938, 115.1366
292.5759, 114.9409
293.0580, 114.8194
293.5401, 114.7263
294.0222, 114.6396
294.5043, 114.5401
294.9865, 114.4194
295.4686, 114.2816
295.9507, 114.1005
296.4328, 113.6554
296.9149, 113.5959
297.3970, 114.2485
297.8792, 115.1174
298.3613, 115.8733
298.8434, 116.3927
299.3255, 116.5921
299.8076, 116.2605
300.2897, 115.0627
300.7719, 114.0834
301.2540, 113.2321
301.7361, 112.6727
302.2182, 112.6629
302.7003, 113.1628
303.1824, 113.7463
303.6646, 113.8228
304.1467, 113.1161
304.6288, 112.9175
305.1109, 113.9153
305.5930, 114.7905
306.0751, 114.7381
306.5573, 113.9183
307.0394, 113.1137
307.5215, 113.0812
308.0036, 113.8936
308.4857, 114.4114
308.9678, 114.5154
309.4500, 114.4251
309.9321, 114.0502
310.4142, 113.5259
310.8963, 113.1094
311.3784, 112.9967
311.8605, 113.1300
312.3427, 113.0519
312.8248, 112.4809
313.3069, 112.0174
313.7890, 111.7051
314.2711, 111.5795
314.7532, 111.6945
315.2354, 112.0825
315.7175, 112.6784
316.1996, 113.3501
316.6817, 114.6084
317.1638, 115.0660
317.6459, 113.9288
318.1281, 112.3708
318.6102, 111.4640
319.0923, 111.5371
319.5744, 112.1257
320.0565, 112.4751
320.5386, 112.4687
321.0208, 112.4831
321.5029, 112.7215
321.9850, 112.8427
322.4671, 112.5581
322.9492, 111.8791
323.4313, 111.0892
323.9135, 110.4145
324.3956, 109.7743
324.8777, 109.6918
325.3598, 110.7169
325.8419, 111.7904
326.3240, 112.5693
326.8062, 113.0550
327.2883, 113.3995
327.7704, 113.7304
328.2525, 114.0366
328.7346, 114.1460
329.2167, 114.2408
329.6989, 113.8796
330.1810, 112.4146
330.6631, 110.5548
331.1452, 109.3790
331.6273, 109.5099
332.1094, 110.5483
332.5916, 111.2622
333.0737, 111.4841
333.5558, 111.6461
334.0379, 111.8185
334.5200, 111.9809
335.0021, 112.1441
335.4843, 112.3074
335.9664, 112.3880
336.4485, 112.2052
336.9306, 111.6161
337.4127, 111.1892
337.8948, 111.0434
338.3770, 111.0156
338.8591, 111.0390
339.3412, 111.0949
339.8233, 111.1747
340.3055, 111.3691
340.7876, 111.7327
341.2697, 111.6268
341.7518, 110.1803
342.2339, 109.1264
342.7160, 109.4874
343.1982, 110.8002
343.6803, 111.9014
344.1624, 111.9631
344.6445, 111.1877
345.1266, 110.5842
345.6087, 110.2503
346.0909, 109.9392
346.5730, 109.3485
347.0551, 108.7977
347.5372, 108.7899
348.0193, 109.6249
348.5014, 110.7569
348.9836, 111.1059
349.4657, 110.3791
349.9478, 109.8486
350.4299, 110.0680
350.9120, 110.4730
351.3941, 110.6636
351.8763, 110.5654
352.3584, 110.3717
352.8405, 110.2834
353.3226, 110.3043
353.8047, 110.2759
354.2868, 110.1344
354.7690, 109.9823
355.2511, 109.7854
355.7332, 109.6005
356.2153, 109.6457
356.6974, 110.3897
357.1795, 111.5320
357.6617, 111.7848
358.1438, 110.7338
358.6259, 109.6185
359.1080, 108.9991
359.5901, 108.8017
360.0722, 109.0014
360.5544, 109.8386
361.0365, 110.7793
361.5186, 110.9306
362.0007, 110.1648
362.4828, 109.6227
362.9649, 110.0562
363.4471, 110.7902
363.9292, 111.0200
364.4113, 110.5789
364.8934, 110.0213
365.3755, 109.7403
365.8576, 109.7036
366.3398, 109.7646
366.8219, 109.9792
367.3040, 110.1455
367.7861, 110.0013
368.2682, 109.5797
368.7503, 109.2100
369.2325, 109.0162
369.7146, 108.9585
370.1967, 109.0077
370.6788, 109.1830
371.1609, 109.3232
371.6430, 109.2254
372.1252, 108.9869
372.6073, 108.9356
373.0894, 109.1620
373.5715, 109.5520
374.0536, 110.2945
374.5357, 111.2553
375.0179, 111.5180
375.5000, 110.3285
375.9821, 108.4453
376.4642, 107.7356
376.9463, 108.7065
377.4284, 109.5102
377.9106, 109.2943
378.3927, 108.5053
378.8748, 107.8816
379.3569, 107.6162
379.8390, 107.5648
380.3211, 107.5428
380.8033, 107.5294
381.2854, 107.7084
381.7675, 108.3824
382.2496, 109.0458
382.7317, 109.2748
383.2138, 109.0689
383.6960, 108.7030
384.1781, 108.3658
384.6602, 108.0538
385.1423, 107.7006
385.6244, 107.0096
386.1065, 106.6074
386.5887, 106.9345
387.0708, 107.6472
387.5529, 108.1042
388.0350, 108.0106
388.5171, 107.6985
388.9992, 107.9253
389.4814, 109.6580
389.9635, 110.4022
390.4456, 109.2652
390.9277, 107.7479
391.4098, 107.0856
391.8919, 107.4234
392.3741, 108.0886
392.8562, 108.3753
393.3383, 108.2064
393.8204, 108.2646
394.3025, 109.0776
394.7846, 109.5594
395.2668, 108.9575
395.7489, 107.7924
396.2310, 107.0885
396.7131, 107.4809
397.1952, 108.6140
397.6773, 109.2583
398.1595, 109.2327
398.6416, 108.9741
399.1237, 108.2156
399.6058, 107.4740
400.0879, 107.3162
400.5700, 107.8213
401.0522, 108.4230
401.5343, 108.3492
402.0164, 107.4403
402.4985, 106.8070
402.9806, 106.6546
403.4627, 106.6439
403.9449, 106.6518
404.4270, 106.6833
404.9091, 106.7912
405.3912, 107.0608
405.8733, 107.4036
406.3554, 107.5198
406.8376, 107.3246
407.3197, 107.1138
407.8018, 106.8004
408.2839, 106.6232
408.7660, 107.0212
409.2481, 108.2385
409.7303, 109.2874
410.2124, 108.8078
410.6945, 106.9392
411.1766, 105.9350
411.6587, 106.7629
412.1408, 107.9710
412.6230, 108.1511
413.1051, 107.4289
413.5872, 106.6886
414.0693, 106.2152
414.5514, 105.9833
415.0335, 106.0787
415.5157, 106.5494
415.9978, 106.8394
416.4799, 106.3500
416.9620, 105.4494
417.4441, 105.2710
417.9262, 106.3248
418.4084, 107.4821
418.8905, 108.2184
419.3726, 108.5674
419.8547, 108.5312
420.3368, 108.0424
420.8189, 107.3983
421.3011, 107.1051
421.7832, 107.2663
422.2653, 107.3189
422.7474, 107.1707
423.2295, 106.9132
423.7116, 106.5732
424.1938, 106.1795
424.6759, 105.7930
425.1580, 105.3960
425.6401, 105.0233
426.1222, 105.3385
426.6043, 107.1642
427.0865, 108.6104
427.5686, 109.1774
428.0507, 109.0958
428.5328, 108.5784
429.0149, 107.7225
429.4970, 106.8109
429.9792, 106.3619
430.4613, 106.6674
430.9434, 106.8044
431.4255, 106.4330
431.9076, 106.2158
432.3897, 106.7884
432.8719, 107.9127
433.3540, 108.7508
433.8361, 108.5975
434.3182, 107.5951
434.8003, 106.7190
435.2824, 105.7145
435.7646, 105.2868
436.2467, 106.1502
436.7288, 107.3459
437.2109, 107.7468
437.6930, 106.9922
438.1751, 105.9221
438.6573, 105.6327
439.1394, 106.1876
439.6215, 106.6674
440.1036, 107.1305
440.5857, 107.2664
441.0678, 106.5759
441.5500, 105.3359
442.0321, 104.5764
442.5142, 105.2455
442.9963, 106.5516
443.4784, 106.9567
443.9605, 106.3427
444.4427, 105.7509
444.9248, 105.7785
445.4069, 106.1075
445.8890, 106.1594
446.3711, 105.8160
446.8532, 105.4619
447.3354, 105.2129
447.8175, 105.1177
448.2996, 105.3621
448.7817, 106.0320
449.2638, 106.7577
449.7459, 107.1551
450.2281, 107.1994
450.7102, 107.1181
451.1923, 106.7116
451.6744, 106.3653
452.1565, 106.3803
452.6386, 106.6692
453.1208, 106.9392
453.6029, 107.0349
454.0850, 107.0285
454.5671, 107.1239
455.0492, 107.6943
455.5313, 107.8367
456.0135, 107.0319
456.4956, 106.1376
456.9777, 105.9856
457.4598, 106.5795
457.9419, 107.1805
458.4240, 107.0299
458.9062, 106.1118
459.3883, 105.6388
459.8704, 106.1801
460.3525, 106.5389
460.8346, 106.3980
461.3167, 105.9507
461.7989, 105.3573
462.2810, 104.6691
462.7631, 104.1366
463.2452, 104.2991
463.7273, 105.3455
464.2094, 105.9369
464.6916, 105.3298
465.1737, 104.7723
465.6558, 105.0379
466.1379, 105.9922
466.6200, 107.0667
467.1021, 108.2900
467.5843, 109.2816
468.0664, 109.0107
468.5485, 107.2676
469.0306, 105.7761
469.5127, 105.3899
469.9948, 105.6842
470.4770, 106.0285
470.9591, 106.4809
471.4412, 106.6859
471.9233, 106.0425
472.4054, 105.1345
472.8875, 105.1987
473.3697, 106.5019
473.8518, 108.0367
474.3339, 109.0210
474.8160, 109.4025
475.2981, 109.1858
475.7802, 107.7239
476.2624, 106.3620
476.7445, 105.6029
477.2266, 105.3822
477.7087, 105.6666
478.1908, 106.4533
478.6729, 107.3860
479.1551, 107.8053
479.6372, 107.4230
480.1193, 107.1843
480.6014, 107.3143
481.0835, 107.3658
481.5656, 106.9061
482.0478, 106.1384
482.5299, 105.6423
483.0120, 105.8237
483.4941, 106.5161
483.9762, 107.1339
484.4583, 107.8167
484.9405, 108.1210
485.4226, 107.7790
485.9047, 107.1859
486.3868, 106.5088
486.8689, 105.8214
487.3510, 105.3832
487.8332, 105.6076
488.3153, 106.3190
488.7974, 106.6006
489.2795, 106.2417
489.7616, 105.8913
490.2437, 106.0342
490.7259, 106.4215
491.2080, 106.7072
491.6901, 106.8779
492.1722, 106.8389
492.6543, 106.3275
493.1364, 105.5402
493.6186, 105.0608
494.1007, 105.0542
494.5828, 105.3054
495.0649, 105.6116
495.5470, 105.9813
496.0291, 106.3029
496.5113, 106.7130
496.9934, 106.9461
497.4755, 106.7183
497.9576, 106.1908
498.4397, 105.7737
498.9218, 105.6729
499.4040, 105.7223
499.8861, 105.5295
500.3682, 104.7398
500.8503, 104.3794
501.3324, 104.8353
501.8145, 105.3368
502.2967, 105.2262
502.7788, 104.7005
503.2609, 104.5280
503.7430, 105.3200
504.2251, 106.7844
504.7072, 107.8321
505.1894, 108.5288
505.6715, 108.6470
506.1536, 107.5127
506.6357, 106.1970
507.1178, 105.5705
507.5999, 105.7269
508.0821, 106.0929
508.5642, 106.4117
509.0463, 106.6113
509.5284, 106.3998
510.0105, 105.6692
510.4926, 104.9262
510.9748, 104.4066
511.4569, 104.1280
511.9390, 104.1294
512.4211, 104.6147
512.9032, 105.0113
513.3853, 104.8454
513.8674, 104.4545
514.3495, 104.5440
514.8317, 105.2696
515.3138, 105.9552
515.7959, 105.8653
516.2780, 104.9264
516.7601, 104.2933
517.2422, 103.9643
517.7244, 103.8848
518.2065, 104.2810
518.6886, 104.8340
519.1707, 105.0674
519.6528, 104.8219
520.1349, 104.3651
520.6171, 104.0739
521.0992, 103.9457
521.5813, 103.9994
522.0634, 104.5733
522.5455, 104.9934
523.0276, 104.9162
523.5098, 104.5231
523.9919, 104.1373
524.4740, 103.8620
524.9561, 103.7611
525.4382, 104.0387
525.9203, 104.7035
526.4025, 105.1368
526.8846, 105.0981
527.3667, 104.9071
527.8488, 104.8636
528.3309, 104.9467
528.8130, 105.0321
529.2952, 105.0876
529.7773, 105.1263
530.2594, 105.2324
530.7415, 105.3549
531.2236, 105.2181
531.7057, 104.6444
532.1879, 103.9083
532.6700, 103.5214
533.1521, 103.5143
533.6342, 103.8482
534.1163, 105.1278
534.5984, 106.2331
535.0806, 106.2691
535.5627, 105.4700
536.0448, 104.6129
536.5269, 104.1600
537.0090, 104.0593
537.4911, 104.2204
537.9733, 104.9176
538.4554, 105.2665
538.9375, 104.9890
539.4196, 104.4962
539.9017, 103.8528
540.3839, 103.1776
540.8660, 102.8207
541.3481, 103.1800
541.8302, 103.9118
542.3123, 104.1682
542.7944, 103.8743
543.2766, 103.7900
543.7587, 104.4087
544.2408, 105.2256
544.7229, 105.4744
545.2050, 105.0948
545.6871, 104.7385
546.1693, 104.6677
546.6514, 104.7059
547.1335, 104.6080
547.6156, 104.3980
548.0977, 104.3506
548.5798, 104.6635
549.0620, 105.2102
549.5441, 105.5619
550.0262, 105.6837
550.5083, 105.6320
550.9904, 105.1276
551.4725, 104.6593
551.9547, 104.7663
552.4368, 105.3088
552.9189, 105.5998
553.4010, 105.0404
553.8831, 103.9322
554.3652, 103.5779
554.8474, 104.3686
555.3295, 104.9306
555.8116, 104.6380
556.2937, 104.1822
556.7758, 104.0398
557.2579, 104.2388
557.7401, 104.5381
558.2222, 104.9122
558.7043, 105.2508
559.1864, 105.3339
559.6685, 105.1540
560.1506, 104.9178
560.6328, 104.7076
561.1149, 104.5191
561.5970, 104.2861
562.0791, 103.8612
562.5612, 103.8400
563.0433, 104.8148
563.5255, 105.8732
564.0076, 106.2095
564.4897, 105.8766
564.9718, 105.4063
565.4539, 105.1323
565.9360, 104.9876
566.4182, 104.7120
566.9003, 103.9684
567.3824, 103.7493
567.8645, 104.7586
568.3466, 105.7136
568.8287, 105.6314
569.3109, 104.7138
569.7930, 103.9014
570.2751, 103.7715
570.7572, 104.1153
571.2393, 104.6284
571.7214, 105.3524
572.2036, 105.6831
572.6857, 105.1251
573.1678, 104.4194
573.6499, 104.6145
574.1320, 105.6808
574.6141, 106.3022
575.0963, 105.7819
575.5784, 104.9387
576.0605, 104.4244
576.5426, 104.2025
577.0247, 104.0288
577.5068, 103.7925
577.9890, 103.5581
578.4711, 103.4406
578.9532, 103.4273
579.4353, 103.5800
579.9174, 104.2990
580.3995, 104.7677
580.8817, 104.2544
581.3638, 103.2555
581.8459, 102.7518
582.3280, 103.2262
582.8101, 104.2209
583.2922, 105.1615
583.7744, 106.0799
584.2565, 106.3709
584.7386, 105.5869
585.2207, 104.6769
585.7029, 104.1613
586.1850, 104.0351
586.6671, 104.3691
587.1492, 105.6086
587.6313, 106.7356
588.1135, 106.8830
588.5956, 106.3679
589.0777, 105.9408
589.5598, 105.7943
590.0419, 105.6396
590.5240, 105.1181
591.0062, 104.1982
591.4883, 103.7085
591.9704, 103.9093
592.4525, 104.1690
592.9346, 104.3605
593.4167, 104.5157
593.8989, 104.7132
594.3810, 104.9540
594.8631, 105.1219
595.3452, 105.0534
595.8273, 104.7775
596.3094, 104.6438
596.7916, 104.7301
597.2737, 104.7817
597.7558, 104.7219
598.2379, 104.5520
598.7200, 104.1763
599.2021, 103.5405
599.6843, 103.1327
600.1664, 103.3161
600.6485, 103.8178
601.1306, 104.3324
601.6127, 104.8116
602.0948, 105.1231
602.5770, 105.1590
603.0591, 105.0285
603.5412, 105.0347
604.0233, 105.2830
604.5054, 105.5012
604.9875, 105.9333
605.4697, 106.1229
605.9518, 105.4314
606.4339, 104.2533
606.9160, 103.6722
607.3981, 104.3710
607.8802, 105.6204
608.3624, 105.8686
608.8445, 104.9467
609.3266, 104.3596
609.8087, 104.4293
610.2908, 104.7808
610.7729, 105.3683
611.2551, 106.0210
611.7372, 106.1889
612.2193, 105.3398
612.7014, 104.4570
613.1835, 104.2834
613.6656, 104.5900
614.1478, 104.9463
614.6299, 105.2417
615.1120, 105.3685
615.5941, 105.1596
616.0762, 104.6115
616.5583, 104.4259
617.0405, 105.0822
617.5226, 105.4974
618.0047, 105.4004
618.4868, 105.0406
618.9689, 104.5516
619.4510, 104.0221
619.9332, 103.6726
620.4153, 103.7509
620.8974, 104.1446
621.3795, 104.4461
621.8616, 104.6357
622.3438, 104.8530
622.8259, 105.2165
623.3080, 105.5734
623.7901, 105.6753
624.2722, 105.5047
624.7543, 105.4518
625.2365, 105.8270
625.7186, 106.1882
626.2007, 106.0893
626.6828, 105.6655
627.1649, 105.3314
627.6470, 105.2606
628.1292, 105.3210
628.6113, 105.2759
629.0934, 105.0332
629.5755, 105.0679
630.0576, 105.8774
630.5397, 106.4305
631.0219, 106.2415
631.5040, 105.6826
631.9861, 105.2654
632.4682, 105.1385
632.9503, 105.1138
633.4324, 104.9810
633.9146, 104.8123
634.3967, 104.8364
634.8788, 105.0741
635.3609, 105.5260
635.8430, 106.3919
636.3251, 107.3627
636.8073, 107.4133
637.2894, 105.9546
637.7715, 105.1209
638.2536, 105.8412
638.7357, 106.8017
639.2178, 106.8087
639.7000, 106.1448
640.1821, 105.9706
640.6642, 106.9613
641.1463, 108.3921
641.6284, 108.7247
642.1105, 107.7342
642.5927, 106.8162
643.0748, 105.9406
643.5569, 105.3573
644.0390, 105.3446
644.5211, 105.6671
645.0032, 105.8543
645.4854, 105.7838
645.9675, 105.5925
646.4496, 105.2005
646.9317, 104.8027
647.4138, 104.8628
647.8959, 105.4143
648.3781, 105.9308
648.8602, 106.0094
649.3423, 105.7441
649.8244, 105.5757
650.3065, 105.6411
650.7886, 105.5968
651.2708, 105.0932
651.7529, 104.7700
652.2350, 105.3524
652.7171, 106.4981
653.1992, 107.1828
653.6813, 106.8162
654.1635, 105.8596
654.6456, 104.6903
655.1277, 103.3914
655.6098, 103.1939
656.0919, 104.6645
656.5740, 106.3166
657.0562, 106.8524
657.5383, 106.3994
658.0204, 106.1466
658.5025, 106.2670
658.9846, 106.3723
659.4667, 106.2636
659.9489, 106.1385
660.4310, 106.3176
660.9131, 106.7440
661.3952, 106.9564
661.8773, 106.5580
662.3594, 105.8053
662.8416, 105.5702
663.3237, 105.9799
663.8058, 106.4558
664.2879, 107.1294
664.7700, 107.5923
665.2521, 107.3696
665.7343, 106.6875
666.2164, 106.3448
666.6985, 106.9497
667.1806, 107.4427
667.6627, 106.6194
668.1448, 105.2708
668.6270, 105.1295
669.1091, 106.4604
669.5912, 107.9109
670.0733, 108.2932
670.5554, 107.7468
671.0375, 107.2876
671.5197, 107.0306
672.0018, 106.6729
672.4839, 106.0656
672.9660, 105.4584
673.4481, 104.9307
673.9302, 104.5498
674.4124, 104.4530
674.8945, 104.7238
675.3766, 105.2929
675.8587, 106.4363
676.3408, 107.8917
676.8229, 108.2487
677.3051, 107.0589
677.7872, 105.6934
678.2693, 105.3872
678.7514, 106.0391
679.2335, 106.4853
679.7156, 106.7882
680.1978, 106.8292
680.6799, 106.3425
681.1620, 105.7747
681.6441, 105.4813
682.1262, 105.4694
682.6083, 105.5810
683.0905, 105.7257
683.5726, 105.9157
684.0547, 106.1861
684.5368, 106.5357
685.0189, 106.9428
685.5010, 107.4984
685.9832, 107.8845
686.4653, 107.7307
686.9474, 107.1490
687.4295, 106.7533
687.9116, 106.7336
688.3937, 106.6608
688.8759, 106.2168
689.3580, 105.7894
689.8401, 105.8299
690.3222, 106.3045
690.8043, 106.8743
691.2864, 107.3422
691.7686, 107.6810
692.2507, 107.8323
692.7328, 107.8003
693.2149, 107.5298
693.6970, 106.8439
694.1791, 106.1631
694.6613, 105.5841
695.1434, 105.2408
695.6255, 105.5629
696.1076, 107.1318
696.5897, 108.3120
697.0718, 108.1141
697.5540, 107.2653
698.0361, 106.4137
698.5182, 105.7467
699.0003, 105.5751
699.4824, 106.1288
699.9645, 107.0766
700.4467, 107.6155
700.9288, 107.6688
701.4109, 107.5733
701.8930, 107.0834
702.3751, 106.7770
702.8572, 107.0896
703.3394, 107.7149
703.8215, 108.1118
704.3036, 108.1091
704.7857, 108.1245
705.2678, 108.5141
705.7499, 108.9997
706.2321, 109.1785
706.7142, 109.0626
707.1963, 108.9070
707.6784, 108.8453
708.1605, 108.8068
708.6426, 108.6244
709.1248, 108.1993
709.6069, 107.9879
710.0890, 108.2583
710.5711, 108.4259
711.0532, 108.1206
711.5353, 107.6783
712.0175, 107.6074
712.4996, 108.0247
712.9817, 108.3529
713.4638, 108.0834
713.9459, 107.6016
714.4280, 107.3991
714.9102, 107.4849
715.3923, 107.8513
715.8744, 108.5310
716.3565, 109.1728
716.8386, 109.2054
717.3207, 108.4958
717.8029, 108.1442
718.2850, 108.5464
718.7671, 108.8243
719.2492, 108.6377
719.7313, 108.3271
720.2134, 108.2356
720.6956, 108.3969
721.1777, 108.6101
721.6598, 108.7208
722.1419, 108.8436
722.6240, 109.3369
723.1061, 110.0103
723.5883, 109.9054
724.0704, 108.6838
724.5525, 107.5346
725.0346, 107.8626
725.5167, 109.5994
725.9988, 110.1801
726.4810, 108.3279
726.9631, 107.1530
727.4452, 107.4169
727.9273, 108.1389
728.4094, 108.6757
728.8915, 108.9912
729.3737, 109.2655
729.8558, 109.6355
730.3379, 109.9106
730.8200, 109.8126
731.3021, 109.4638
731.7842, 109.2171
732.2664, 109.1333
732.7485, 109.0069
733.2306, 108.6406
733.7127, 108.1603
734.1948, 108.0871
734.6769, 108.8121
735.1591, 109.2314
735.6412, 108.9295
736.1233, 108.7272
736.6054, 109.2460
737.0875, 110.1138
737.5696, 110.5357
738.0518, 110.1802
738.5339, 109.8591
739.0160, 110.5509
739.4981, 111.5887
739.9802, 111.5809
740.4623, 110.5574
740.9445, 109.6329
741.4266, 109.3637
741.9087, 109.4976
742.3908, 109.5969
742.8729, 109.6525
743.3550, 109.7126
743.8372, 109.8052
744.3193, 109.8670
744.8014, 109.8217
745.2835, 109.7714
745.7656, 109.8554
746.2477, 110.0830
746.7299, 110.2797
747.2120, 110.3648
747.6941, 110.3598
748.1762, 110.1402
748.6583, 109.8469
749.1404, 110.0445
749.6226, 110.8814
750.1047, 111.6542
750.5868, 111.5956
751.0689, 110.7996
751.5510, 110.3029
752.0331, 110.2891
752.5153, 110.2253
752.9974, 109.9003
753.4795, 109.6093
753.9616, 109.6442
754.4437, 109.8754
754.9258, 109.8522
755.4080, 109.2519
755.8901, 108.7275
756.3722, 108.8069
756.8543, 109.2012
757.3364, 109.5409
757.8185, 109.7605
758.3007, 109.8513
758.7828, 109.7999
759.2649, 109.6599
759.7470, 109.4787
760.2291, 109.1500
760.7112, 109.3404
761.1934, 110.4844
761.6755, 111.4978
762.1576, 111.7340
762.6397, 111.6189
763.1218, 111.8172
763.6039, 112.4905
764.0861, 112.4705
764.5682, 110.2959
765.0503, 108.2542
765.5324, 108.4736
766.0145, 110.0994
766.4966, 111.4154
766.9788, 111.9024
767.4609, 111.9589
767.9430, 111.9256
768.4251, 111.8319
768.9072, 111.8873
769.3893, 112.1764
769.8715, 112.1279
770.3536, 111.3477
770.8357, 110.5493
771.3178, 110.5192
771.7999, 111.0903
772.2820, 111.3938
772.7642, 111.1094
773.2463, 110.9196
773.7284, 111.1733
774.2105, 111.4704
774.6926, 111.3348
775.1747, 110.9159
775.6569, 110.8106
776.1390, 111.3546
776.6211, 111.9516
777.1032, 111.5431
777.5853, 110.3875
778.0674, 110.0696
778.5496, 110.7893
779.0317, 111.5695
779.5138, 111.9452
779.9959, 112.0994
780.4780, 112.3745
780.9601, 112.8695
781.4423, 113.0669
781.9244, 112.6925
782.4065, 112.3679
782.8886, 112.2908
783.3707, 112.3635
783.8528, 112.4948
784.3350, 112.6595
784.8171, 112.8512
785.2992, 113.1884
785.7813, 113.4133
786.2634, 113.0616
786.7455, 112.3116
787.2277, 111.7447
787.7098, 111.4778
788.1919, 111.2981
788.6740, 111.0120
789.1561, 110.7315
789.6382, 110.9105
790.1204, 111.8099
790.6025, 112.5351
791.0846, 113.0286
791.5667, 113.3480
792.0488, 113.5133
792.5309, 113.5276
793.0131, 113.3477
793.4952, 112.9307
793.9773, 112.5950
794.4594, 112.4364
794.9415, 112.4686
795.4236, 112.9211
795.9058, 113.5417
796.3879, 113.6415
796.8700, 113.0638
797.3521, 112.5402
797.8342, 112.9368
798.3163, 113.9949
798.7985, 114.2806
799.2806, 113.6338
799.7627, 113.1681
800.2448, 113.2580
800.7269, 113.3804
801.2090, 112.9679
801.6912, 112.1701
802.1733, 111.8076
802.6554, 112.2268
803.1375, 112.5311
803.6196, 112.3092
804.1017, 112.1399
804.5839, 112.5172
805.0660, 113.2654
805.5481, 114.0899
806.0302, 114.8897
806.5123, 115.2071
806.9944, 114.1108
807.4766, 112.3247
807.9587, 111.6651
808.4408, 112.1144
808.9229, 112.8388
809.4050, 113.6077
809.8871, 114.0545
810.3693, 113.6016
810.8514, 112.2668
811.3335, 111.8168
811.8156, 113.0340
812.2977, 113.8277
812.7798, 113.4501
813.2620, 112.9662
813.7441, 113.1702
814.2262, 113.8395
814.7083, 114.2710
815.1904, 114.2740
815.6725, 114.0226
816.1547, 113.1961
816.6368, 112.4524
817.1189, 112.7289
817.6010, 113.7925
818.0831, 114.8254
818.5652, 115.4683
819.0474, 115.7088
819.5295, 115.4316
820.0116, 114.6986
820.4937, 113.9490
820.9758, 113.0625
821.4579, 113.0271
821.9401, 114.6806
822.4222, 116.3654
822.9043, 116.0426
823.3864, 113.8266
823.8685, 112.7758
824.3506, 113.7860
824.8328, 114.6535
825.3149, 115.1430
825.7970, 115.3006
826.2791, 114.8866
826.7612, 114.2191
827.2433, 114.0313
827.7255, 114.6415
828.2076, 115.3366
828.6897, 115.4893
829.1718, 115.3472
829.6539, 115.2951
830.1360, 115.3375
830.6182, 115.3555
831.1003, 115.3031
831.5824, 115.3074
832.0645, 115.5753
832.5466, 116.0558
833.0287, 116.0118
833.5109, 115.1307
833.9930, 114.6924
834.4751, 115.2934
834.9572, 116.0088
835.4393, 115.9569
835.9214, 115.4178
836.4036, 115.2326
836.8857, 115.7288
837.3678, 116.0404
837.8499, 115.7701
838.3320, 115.4169
838.8141, 115.2882
839.2963, 115.3632
839.7784, 115.6190
840.2605, 116.0263
840.7426, 116.3170
841.2247, 116.0494
841.7068, 115.5960
842.1890, 115.9442
842.6711, 116.8709
843.1532, 116.9552
843.6353, 115.8017
844.1174, 114.5913
844.5995, 114.4358
845.0817, 115.0190
845.5638, 114.8175
846.0459, 113.2321
846.5280, 112.5753
847.0101, 113.7946
847.4922, 114.9473
847.9744, 114.7867
848.4565, 114.0427
848.9386, 113.9178
849.4207, 114.6393
849.9028, 114.9806
850.3849, 113.9709
850.8671, 113.1800
851.3492, 113.8513
851.8313, 115.1465
852.3134, 116.0463
852.7955, 116.3054
853.2776, 115.9696
853.7598, 114.8424
854.2419, 113.6365
854.7240, 113.4886
855.2061, 114.2065
855.6882, 115.1805
856.1703, 116.3144
856.6525, 117.1404
857.1346, 117.4026
857.6167, 117.1507
858.0988, 116.3504
858.5809, 114.7968
859.0630, 114.0986
859.5452, 114.7441
860.0273, 115.3791
860.5094, 115.7074
860.9915, 115.7684
861.4736, 115.3543
861.9557, 114.6183
862.4379, 114.4665
862.9200, 115.7041
863.4021, 116.6404
863.8842, 116.4587
864.3663, 115.9248
864.8484, 115.6941
865.3306, 115.6840
865.8127, 115.4070
866.2948, 114.6841
866.7769, 114.2148
867.2590, 115.1773
867.7411, 116.6883
868.2233, 116.6572
868.7054, 115.3418
869.1875, 114.3539
869.6696, 114.1544
870.1517, 114.3090
870.6339, 114.4147
871.1160, 114.5296
871.5981, 115.0050
872.0802, 116.0944
872.5623, 116.5996
873.0444, 116.1218
873.5266, 115.5145
874.0087, 115.1338
874.4908, 114.9820
874.9729, 115.1434
875.4550, 115.7323
875.9371, 115.9708
876.4193, 115.6370
876.9014, 115.0751
877.3835, 113.9962
877.8656, 113.0545
878.3477, 113.2745
878.8298, 114.3825
879.3120, 114.8209
879.7941, 113.4945
880.2762, 112.0965
880.7583, 112.5450
881.2404, 113.9213
881.7225, 114.5712
882.2047, 114.5103
882.6868, 114.6176
883.1689, 115.2731
883.6510, 116.0011
884.1331, 116.1858
884.6152, 115.8955
885.0974, 115.6225
885.5795, 115.3636
886.0616, 115.1431
886.5437, 114.9393
887.0258, 114.8557
887.5079, 115.0503
887.9901, 115.4165
888.4722, 115.5306
888.9543, 115.3694
889.4364, 114.9926
889.9185, 114.0377
890.4006, 113.2947
890.8828, 113.1807
891.3649, 113.3873
891.8470, 113.5949
892.3291, 113.7474
892.8112, 113.7769
893.2933, 113.5796
893.7755, 113.3386
894.2576, 113.2385
894.7397, 113.1161
895.2218, 112.4872
895.7039, 111.6146
896.1860, 111.5844
896.6682, 112.9546
897.1503, 114.5183
897.6324, 114.6946
898.1145, 113.9145
898.5966, 113.3304
899.0787, 112.9909
899.5609, 113.1369
900.0430, 113.8903
900.5251, 114.4464
901.0072, 113.9292
901.4893, 112.6551
901.9714, 112.2452
902.4536, 113.0277
902.9357, 113.4617
903.4178, 113.2888
903.8999, 112.9811
904.3820, 112.7716
904.8641, 112.5873
905.3463, 112.2399
905.8284, 111.6738
906.3105, 111.4178
906.7926, 111.7961
907.2747, 112.1244
907.7568, 112.1059
908.2390, 112.0238
908.7211, 112.1931
909.2032, 112.5261
909.6853, 112.6906
910.1674, 112.5489
910.6495, 112.3062
911.1317, 111.9538
911.6138, 111.6815
912.0959, 111.7818
912.5780, 112.1268
913.0601, 112.3752
913.5422, 112.4497
914.0244, 112.5919
914.5065, 113.0744
914.9886, 113.6479
915.4707, 113.7934
915.9528, 113.5455
916.4349, 113.0048
916.9171, 112.1789
917.3992, 111.6241
917.8813, 111.6508
918.3634, 112.0928
918.8455, 112.7242
919.3276, 113.5688
919.8098, 114.2129
920.2919, 114.6968
920.7740, 114.8637
921.2561, 114.4722
921.7382, 114.0195
922.2203, 114.0169
922.7025, 114.2932
923.1846, 114.1569
923.6667, 113.3248
924.1488, 112.7031
924.6309, 112.2924
925.1130, 112.2037
925.5952, 112.9672
926.0773, 113.7895
926.5594, 113.4934
927.0415, 112.1354
927.5236, 111.1576
928.0057, 111.2877
928.4879, 111.7859
928.9700, 112.5251
929.4521, 113.1188
929.9342, 112.7316
930.4163, 111.8252
930.8984, 111.9122
931.3806, 113.5072
931.8627, 115.0977
932.3448, 115.0611
932.8269, 114.0302
933.3090, 113.1223
933.7911, 112.3718
934.2733, 111.9392
934.7554, 111.8551
935.2375, 112.1487
935.7196, 112.9017
936.2017, 113.7388
936.6838, 113.7081
937.1660, 112.7363
937.6481, 112.4497
938.1302, 112.9795
938.6123, 113.7050
939.0944, 114.6169
939.5765, 115.2239
940.0587, 114.8654
940.5408, 113.7356
941.0229, 113.2695
941.5050, 113.8392
941.9871, 114.3907
942.4692, 115.2725
942.9514, 115.6936
943.4335, 115.0292
943.9156, 113.8990
944.3977, 113.0036
944.8798, 112.3933
945.3619, 112.0513
945.8441, 111.9218
946.3262, 112.1311
946.8083, 113.1709
947.2904, 114.1797
947.7725, 114.3840
948.2546, 113.9780
948.7368, 113.4885
949.2189, 113.0699
949.7010, 112.7353
950.1831, 112.2719
950.6652, 112.0931
951.1473, 112.9616
951.6295, 114.2745
952.1116, 114.9230
952.5937, 114.8217
953.0758, 114.5942
953.5579, 114.6098
954.0400, 114.5400
954.5222, 113.6179
955.0043, 112.3141
955.4864, 112.2372
955.9685, 113.2485
956.4506, 113.9367
956.9327, 113.8796
957.4149, 113.5385
957.8970, 113.2973
958.3791, 113.1330
958.8612, 112.9437
959.3433, 112.7143
959.8254, 112.6992
960.3076, 112.9540
960.7897, 113.2479
961.2718, 113.4812
961.7539, 113.7252
962.2360, 114.1485
962.7181, 114.7205
963.2003, 114.6394
963.6824, 113.2249
964.1645, 112.5859
964.6466, 113.6716
965.1287, 114.6327
965.6108, 114.0021
966.0930, 112.8632
966.5751, 113.0820
967.0572, 114.9032
967.5393, 115.7358
968.0214, 114.3810
968.5035, 113.2507
968.9857, 113.0399
969.4678, 113.2520
969.9499, 113.7560
970.4320, 114.3047
970.9141, 114.3271
971.3962, 113.5840
971.8784, 113.2878
972.3605, 114.5068
972.8426, 115.8063
973.3247, 116.2476
973.8068, 116.1499
974.2889, 115.9111
974.7711, 115.5879
975.2532, 115.0081
975.7353, 114.0225
976.2174, 113.2548
976.6995, 113.4885
977.1816, 114.1292
977.6638, 114.3565
978.1459, 114.2822
978.6280, 114.2650
979.1101, 114.3865
979.5922, 114.5681
980.0743, 114.7778
980.5565, 114.9091
981.0386, 114.6859
981.5207, 114.2436
982.0028, 114.1457
982.4849, 114.3677
982.9670, 114.2814
983.4492, 113.6706
983.9313, 113.3942
984.4134, 114.4360
984.8955, 116.1220
985.3776, 116.0097
985.8597, 114.0147
986.3419, 113.0755
986.8240, 113.5548
987.3061, 114.2349
987.7882, 114.6421
988.2703, 114.8739
988.7524, 115.0016
989.2346, 115.0610
989.7167, 115.4542
990.1988, 116.3616
990.6809, 117.1011
991.1630, 117.8329
991.6451, 117.9270
992.1273, 116.6084
992.6094, 114.8783
993.0915, 114.2985
993.5736, 114.9420
994.0557, 115.3611
994.5378, 115.1664
995.0200, 115.3201
995.5021, 116.5285
995.9842, 117.4522
996.4663, 117.1153
996.9484, 116.1336
997.4305, 115.4526
997.9127, 115.1387
998.3948, 115.2126
998.8769, 116.2356
999.3590, 116.9000
999.8411, 116.3253
1000.323, 115.6847
1000.805, 116.2258
1001.287, 117.3099
1001.770, 117.3786
1002.252, 116.0315
1002.734, 114.9768
1003.216, 115.0457
1003.698, 115.4710
1004.180, 116.1982
1004.662, 116.7565
1005.144, 116.3303
1005.627, 115.3250
1006.109, 115.0447
1006.591, 115.9828
1007.073, 116.7929
1007.555, 116.1524
1008.037, 115.3234
1008.519, 115.8396
1009.001, 116.8382
1009.483, 116.6546
1009.966, 115.4844
1010.448, 114.9311
1010.930, 115.7743
1011.412, 116.8840
1011.894, 117.1519
1012.376, 116.9480
1012.858, 116.7697
1013.340, 116.6152
1013.823, 116.3912
1014.305, 116.1245
1014.787, 116.0172
1015.269, 116.1852
1015.751, 116.5684
1016.233, 117.3147
1016.715, 118.1480
1017.197, 118.1180
1017.679, 117.4117
1018.162, 116.9284
1018.644, 116.8763
1019.126, 117.2019
1019.608, 117.9025
1020.090, 118.7005
1020.572, 119.1218
1021.054, 119.1992
1021.536, 119.2467
1022.018, 119.2520
1022.501, 118.6944
1022.983, 117.4031
1023.465, 116.3123
1023.947, 116.1297
1024.429, 116.4807
1024.911, 116.5345
1025.393, 116.2773
1025.875, 116.4542
1026.358, 117.1287
1026.840, 117.7678
1027.322, 118.3024
1027.804, 118.4042
1028.286, 117.6873
1028.768, 116.5958
1029.250, 116.3316
1029.732, 117.0688
1030.214, 117.2226
1030.697, 116.5337
1031.179, 116.2282
1031.661, 116.8855
1032.143, 117.3524
1032.625, 116.4629
1033.107, 114.9261
1033.589, 114.8604
1034.071, 116.7417
1034.553, 117.9459
1035.036, 118.3200
1035.518, 118.3340
1036.000, 117.8652
1036.482, 117.4328
1036.964, 117.5317
1037.446, 117.9420
1037.928, 117.9161
1038.410, 116.9831
1038.893, 117.3305
1039.375, 120.5860
1039.857, 122.5086
1040.339, 121.0452
1040.821, 119.0259
1041.303, 118.7243
1041.785, 119.5009
1042.267, 119.4894
1042.750, 118.3132
1043.232, 117.6111
1043.714, 117.6567
1044.196, 117.8300
1044.678, 118.2797
1045.160, 118.5411
1045.642, 117.9549
1046.124, 116.9828
1046.606, 116.7715
1047.089, 117.5442
1047.571, 118.4107
1048.053, 119.7168
1048.535, 120.5125
1049.017, 120.2449
1049.499, 119.6511
1049.981, 119.1163
1050.463, 118.7326
1050.945, 118.6687
1051.428, 118.9957
1051.910, 119.3011
1052.392, 119.7834
1052.874, 119.8672
1053.356, 118.7460
1053.838, 117.7433
1054.320, 118.3418
1054.802, 119.6782
1055.285, 119.7499
1055.767, 118.1238
1056.249, 117.0537
1056.731, 117.3968
1057.213, 118.0372
1057.695, 118.8166
1058.177, 119.5015
1058.659, 119.9800
1059.141, 120.2162
1059.624, 120.1406
1060.106, 119.7419
1060.588, 119.2441
1061.070, 118.5004
1061.552, 117.9620
1062.034, 117.7172
1062.516, 117.8339
1062.998, 118.6948
1063.480, 119.8091
1063.963, 120.3867
1064.445, 120.3009
1064.927, 119.9351
1065.409, 119.1141
1065.891, 118.4657
1066.373, 118.2519
1066.855, 118.3035
1067.337, 118.7517
1067.820, 119.2437
1068.302, 119.0191
1068.784, 118.1322
1069.266, 117.9892
1069.748, 119.8271
1070.230, 121.2613
1070.712, 120.9124
1071.194, 120.1023
1071.677, 119.5992
1072.159, 119.4098
1072.641, 119.4816
1073.123, 119.7699
1073.605, 120.1684
1074.087, 120.8161
1074.569, 121.1397
1075.051, 120.7329
1075.533, 120.0527
1076.016, 119.1773
1076.498, 118.3872
1076.980, 118.0599
1077.462, 118.1495
1077.944, 118.2629
1078.426, 118.1901
1078.908, 118.4167
1079.390, 119.8512
1079.873, 120.8983
1080.355, 119.8824
1080.837, 118.3348
1081.319, 118.1475
1081.801, 119.1076
1082.283, 119.9298
1082.765, 120.2501
1083.247, 120.3628
1083.729, 120.1489
1084.212, 120.0673
1084.694, 120.7945
1085.176, 121.4560
1085.658, 120.8884
1086.140, 119.5603
1086.622, 118.7362
1087.104, 118.7252
1087.586, 118.9557
1088.068, 119.4529
1088.551, 119.7941
1089.033, 119.4520
1089.515, 119.1521
1089.997, 119.7664
1090.479, 120.8119
1090.961, 121.3136
1091.443, 121.1106
1091.925, 120.7517
1092.408, 120.3855
1092.890, 119.9800
1093.372, 119.3949
1093.854, 118.8982
1094.336, 118.6244
1094.818, 118.5965
1095.300, 118.8860
1095.782, 119.4574
1096.265, 120.0553
1096.747, 120.8133
1097.229, 121.1883
1097.711, 120.6382
1098.193, 120.0630
1098.675, 120.2816
1099.157, 120.5602
1099.639, 119.6498
1100.121, 117.9266
1100.604, 117.3675
1101.086, 118.9004
1101.568, 119.9921
1102.050, 119.4676
1102.532, 119.0129
1103.014, 119.4849
1103.496, 120.2451
1103.978, 120.8628
1104.460, 121.2424
1104.943, 121.2080
1105.425, 120.6387
1105.907, 120.2262
1106.389, 120.3740
1106.871, 120.3072
1107.353, 119.1282
1107.835, 118.3381
1108.317, 119.4916
1108.800, 121.5089
1109.282, 122.4451
1109.764, 122.1281
1110.246, 121.8967
1110.728, 122.2331
1111.210, 122.1284
1111.692, 121.1304
1112.174, 120.0305
1112.656, 118.9426
1113.139, 118.1296
1113.621, 117.9741
1114.103, 118.4326
1114.585, 119.0067
1115.067, 119.9334
1115.549, 120.5318
1116.031, 120.4376
1116.513, 120.5425
1116.995, 121.4644
1117.478, 122.3297
1117.960, 122.3242
1118.442, 121.6667
1118.924, 121.0222
1119.406, 120.3242
1119.888, 119.9199
1120.370, 119.9771
1120.852, 119.9836
1121.335, 119.8563
1121.817, 119.5912
1122.299, 119.0442
1122.781, 118.5213
1123.263, 118.6502
1123.745, 119.4502
1124.227, 119.8818
1124.709, 119.8492
1125.192, 119.7471
1125.674, 119.5210
1126.156, 119.5852
1126.638, 120.2624
1127.120, 120.9590
1127.602, 120.8716
1128.084, 120.2634
1128.566, 120.6101
1129.048, 122.1232
1129.531, 122.4972
1130.013, 121.4169
1130.495, 120.8647
1130.977, 121.5367
1131.459, 122.4130
1131.941, 122.6936
1132.423, 122.5258
1132.905, 122.0973
1133.387, 121.4512
1133.870, 121.3245
1134.352, 121.6961
1134.834, 121.9374
1135.316, 121.9313
1135.798, 122.1429
1136.280, 122.8503
1136.762, 123.4889
1137.244, 123.2474
1137.727, 122.4473
1138.209, 122.0043
1138.691, 121.8757
1139.173, 121.9321
1139.655, 122.1327
1140.137, 122.3577
1140.619, 122.5661
1141.101, 122.8214
1141.583, 123.2231
1142.066, 123.5447
1142.548, 123.2967
1143.030, 122.7880
1143.512, 122.8180
1143.994, 123.1035
1144.476, 122.4645
1144.958, 121.0297
1145.440, 120.5552
1145.922, 121.9723
1146.405, 123.8388
1146.887, 125.3275
1147.369, 126.0548
1147.851, 125.0618
1148.333, 123.3540
1148.815, 122.3374
1149.297, 121.9871
1149.779, 121.6806
1150.262, 121.2827
1150.744, 121.3973
1151.226, 122.8825
1151.708, 124.1211
1152.190, 123.5609
1152.672, 122.8213
1153.154, 123.4453
1153.636, 124.6941
1154.119, 125.5402
1154.601, 125.8304
1155.083, 125.6432
1155.565, 124.8120
1156.047, 124.1818
1156.529, 124.1123
1157.011, 124.1931
1157.493, 124.3312
1157.975, 124.4644
1158.458, 124.6794
1158.940, 124.8082
1159.422, 124.2942
1159.904, 122.9860
1160.386, 122.6924
1160.868, 124.7748
1161.350, 126.0128
1161.832, 125.4290
1162.314, 124.7803
1162.797, 124.9131
1163.279, 125.1869
1163.761, 124.8169
1164.243, 124.0063
1164.725, 123.7405
1165.207, 124.2151
1165.689, 124.5612
1166.171, 124.7835
1166.654, 124.8371
1167.136, 124.6330
1167.618, 124.5024
1168.100, 124.6862
1168.582, 125.0229
1169.064, 125.2528
1169.546, 125.3771
1170.028, 125.3875
1170.510, 125.2807
1170.993, 125.1714
1171.475, 125.0710
1171.957, 124.9134
1172.439, 124.6673
1172.921, 124.4928
1173.403, 124.5320
1173.885, 124.7427
1174.367, 125.2427
1174.849, 125.8030
1175.332, 125.3283
1175.814, 124.1863
1176.296, 124.0033
1176.778, 124.9063
1177.260, 125.7974
1177.742, 126.1456
1178.224, 126.1838
1178.706, 126.0125
1179.189, 125.8033
1179.671, 125.7687
1180.153, 125.8473
1180.635, 125.9574
1181.117, 126.1010
1181.599, 126.4086
1182.081, 126.8172
1182.563, 126.8670
1183.046, 126.2505
1183.528, 125.5503
1184.010, 124.8353
1184.492, 124.4712
1184.974, 124.9230
1185.456, 125.6739
1185.938, 126.3946
1186.420, 126.9029
1186.902, 126.7718
1187.385, 125.8834
1187.867, 125.4878
1188.349, 126.1435
1188.831, 126.8331
1189.313, 127.6025
1189.795, 128.0883
1190.277, 127.9552
1190.759, 127.5767
1191.241, 127.1910
1191.724, 126.8867
1192.206, 127.0776
1192.688, 128.0257
1193.170, 128.3593
1193.652, 128.0252
1194.134, 127.0764
1194.616, 125.1276
1195.098, 123.9839
1195.581, 124.8506
1196.063, 126.4538
1196.545, 127.0744
1197.027, 126.9036
1197.509, 126.6851
1197.991, 126.4351
1198.473, 126.4454
1198.955, 126.7167
1199.438, 127.0608
1199.920, 127.4065
1200.402, 127.5788
1200.884, 127.4590
1201.366, 127.1018
1201.848, 126.2497
1202.330, 125.4284
1202.812, 125.9678
1203.294, 127.1568
1203.776, 127.4854
1204.259, 127.0817
1204.741, 126.8424
1205.223, 127.0076
1205.705, 127.1848
1206.187, 127.0977
1206.669, 127.1048
1207.151, 127.6541
1207.633, 128.1792
1208.116, 128.1606
1208.598, 127.9242
1209.080, 127.8548
1209.562, 127.9201
1210.044, 127.9206
1210.526, 127.8154
1211.008, 127.7266
1211.490, 127.6597
1211.973, 127.6344
1212.455, 127.7853
1212.937, 127.8028
1213.419, 127.2878
1213.901, 126.8575
1214.383, 127.2334
1214.865, 128.1522
1215.347, 128.7396
1215.829, 128.9845
1216.312, 128.9174
1216.794, 128.4388
1217.276, 128.1819
1217.758, 128.2902
1218.240, 128.4209
1218.722, 128.4118
1219.204, 128.3092
1219.686, 128.1196
1220.168, 127.9780
1220.651, 128.3992
1221.133, 129.1545
1221.615, 129.1410
1222.097, 128.5699
1222.579, 128.5416
1223.061, 129.1711
1223.543, 129.7553
1224.025, 129.9598
1224.508, 130.0871
1224.990, 130.6060
1225.472, 130.9185
1225.954, 129.9116
1226.436, 128.8059
1226.918, 129.5742
1227.400, 130.9603
1227.882, 130.3881
1228.365, 128.0787
1228.847, 126.7336
1229.329, 127.3054
1229.811, 128.0023
1230.293, 128.3549
1230.775, 128.7201
1231.257, 129.6925
1231.739, 130.1929
1232.221, 128.7491
1232.703, 127.0216
1233.186, 127.5224
1233.668, 129.7437
1234.150, 130.1026
1234.632, 127.7125
1235.114, 127.1509
1235.596, 128.9668
1236.078, 130.0132
1236.560, 129.4169
1237.043, 129.1737
1237.525, 130.5612
1238.007, 131.9526
1238.489, 130.9624
1238.971, 128.7904
1239.453, 129.0041
1239.935, 130.7916
1240.417, 131.5230
1240.900, 131.2317
1241.382, 130.5134
1241.864, 129.6734
1242.346, 129.4234
1242.828, 130.1369
1243.310, 130.7500
1243.792, 130.0087
1244.274, 129.3084
1244.756, 129.9278
1245.239, 130.9689
1245.721, 131.9092
1246.203, 132.4616
1246.685, 132.0365
1247.167, 130.8625
1247.649, 130.3074
1248.131, 130.8992
1248.613, 131.1183
1249.095, 130.1314
1249.578, 129.7828
1250.060, 130.8222
1250.542, 131.8700
1251.024, 132.2695
1251.506, 132.2872
1251.988, 132.2385
1252.470, 132.0755
1252.952, 131.4657
1253.435, 130.3777
1253.917, 130.1985
1254.399, 130.9145
1254.881, 131.6447
1255.363, 132.1977
1255.845, 132.3462
1256.327, 131.9957
1256.809, 131.6018
1257.292, 131.6289
1257.774, 131.7652
1258.256, 131.5698
1258.738, 131.2223
1259.220, 130.7140
1259.702, 130.3931
1260.184, 131.0495
1260.666, 132.3914
1261.148, 133.3720
1261.630, 133.7077
1262.113, 133.6378
1262.595, 132.8616
1263.077, 132.2778
1263.559, 132.2831
1264.041, 132.3611
1264.523, 132.2396
1265.005, 132.1005
1265.487, 132.0672
1265.970, 132.1612
1266.452, 132.4525
1266.934, 132.9457
1267.416, 133.4791
1267.898, 134.1706
1268.380, 133.7269
1268.862, 131.9232
1269.344, 131.0483
1269.827, 131.8513
1270.309, 132.8017
1270.791, 132.7679
1271.273, 132.4797
1271.755, 133.1329
1272.237, 134.1176
1272.719, 134.4611
1273.201, 134.2171
1273.683, 132.9547
1274.166, 131.3744
1274.648, 131.2988
1275.130, 132.6983
1275.612, 133.3338
1276.094, 132.0492
1276.576, 131.3885
1277.058, 133.0341
1277.540, 134.5565
1278.022, 135.1856
1278.505, 135.2025
1278.987, 134.3155
1279.469, 133.2934
1279.951, 133.0066
1280.433, 133.3306
1280.915, 133.8208
1281.397, 134.5713
1281.879, 134.8377
1282.362, 134.5602
1282.844, 134.4871
1283.326, 134.7420
1283.808, 135.0034
1284.290, 135.1251
1284.772, 135.0039
1285.254, 134.4898
1285.736, 133.5792
##END=



