##NAMES=Betekhtinite
##RRUFFID=R070087
##IDEAL CHEMISTRY=(Cu,Fe)_21_Pb_2_S_15_
##LOCALITY=Dzhezkazgan deposit, central Kazakhstan
##OWNER=RRUFF
##SOURCE=Michael Scott
##DESCRIPTION=Aggregate of black bladed to prismatic crystals associated with quartz
##STATUS=The identification of this mineral has been confirmed by X-ray diffraction and chemical analysis
##URL=rruff.info/R070087
##MEASURED CHEMISTRY=(Cu_20.15_Fe_0.85_)_Σ=21_(Pb_1.80_Ag_0.11_Fe_0.09_)_Σ=2_S_15.00_
148.2522, 500.9401
148.7343, 503.1994
149.2164, 506.4707
149.6985, 512.5326
150.1806, 524.7451
150.6627, 533.8525
151.1449, 537.5878
151.6270, 537.9333
152.1091, 539.8923
152.5912, 544.6060
153.0733, 550.4310
153.5554, 556.7129
154.0376, 566.2033
154.5197, 572.9104
155.0018, 576.1010
155.4839, 575.8752
155.9660, 572.7708
156.4481, 563.0660
156.9303, 552.6229
157.4124, 545.3196
157.8945, 543.6318
158.3766, 543.6124
158.8587, 545.2606
159.3408, 548.4163
159.8230, 549.9407
160.3051, 545.7497
160.7872, 540.4824
161.2693, 538.7505
161.7514, 547.3074
162.2335, 555.4993
162.7157, 557.4053
163.1978, 552.1490
163.6799, 546.9556
164.1620, 544.7753
164.6441, 544.9573
165.1262, 546.5452
165.6084, 549.4398
166.0905, 553.4009
166.5726, 558.9104
167.0547, 566.6561
167.5368, 573.2082
168.0189, 573.7180
168.5011, 571.1162
168.9832, 572.0105
169.4653, 585.8094
169.9474, 602.0267
170.4295, 609.7650
170.9116, 605.2350
171.3938, 596.4573
171.8759, 587.7264
172.3580, 579.8400
172.8401, 575.3378
173.3222, 578.8591
173.8043, 586.0455
174.2865, 590.8551
174.7686, 591.7415
175.2507, 589.9365
175.7328, 585.4302
176.2149, 578.6677
176.6970, 572.7408
177.1792, 569.2668
177.6613, 568.4030
178.1434, 570.8674
178.6255, 579.7550
179.1076, 589.9392
179.5897, 592.2170
180.0719, 586.6301
180.5540, 580.5983
181.0361, 582.3349
181.5182, 589.4425
182.0003, 594.0799
182.4824, 591.2843
182.9646, 584.7245
183.4467, 583.3372
183.9288, 587.5553
184.4109, 592.9340
184.8930, 594.1909
185.3751, 591.9763
185.8573, 590.4329
186.3394, 591.3502
186.8215, 594.3158
187.3036, 598.5001
187.7857, 604.5089
188.2678, 609.5837
188.7500, 608.5899
189.2321, 601.8018
189.7142, 596.2579
190.1963, 595.8348
190.6784, 599.8690
191.1605, 603.5207
191.6427, 606.6759
192.1248, 609.2927
192.6069, 611.4915
193.0890, 613.3158
193.5711, 613.8456
194.0532, 611.6156
194.5354, 606.8138
195.0175, 604.1459
195.4996, 604.2951
195.9817, 606.1867
196.4638, 607.5344
196.9460, 608.2477
197.4281, 609.0027
197.9102, 610.4377
198.3923, 612.6194
198.8744, 614.1141
199.3565, 614.7852
199.8387, 614.6781
200.3208, 613.5477
200.8029, 611.0077
201.2850, 608.9028
201.7671, 608.9736
202.2492, 611.5845
202.7314, 613.3203
203.2135, 613.6550
203.6956, 612.7832
204.1777, 611.1451
204.6598, 608.1675
205.1419, 605.9230
205.6241, 606.2867
206.1062, 609.6697
206.5883, 613.8385
207.0704, 619.3326
207.5525, 625.5653
208.0346, 627.1729
208.5168, 622.1173
208.9989, 616.3389
209.4810, 616.2153
209.9631, 624.2951
210.4452, 629.0929
210.9273, 627.1937
211.4095, 618.9709
211.8916, 614.4140
212.3737, 614.9682
212.8558, 617.0797
213.3379, 616.4556
213.8200, 611.0593
214.3022, 608.8842
214.7843, 613.5771
215.2664, 625.5995
215.7485, 630.0988
216.2306, 623.7124
216.7127, 613.6629
217.1949, 608.3516
217.6770, 609.4662
218.1591, 611.5294
218.6412, 612.8041
219.1233, 612.8633
219.6054, 616.7319
220.0876, 627.7468
220.5697, 639.5057
221.0518, 642.8601
221.5339, 633.5081
222.0160, 624.2372
222.4981, 618.5896
222.9803, 617.0009
223.4624, 616.2000
223.9445, 615.5452
224.4266, 616.1676
224.9087, 620.3356
225.3908, 630.7216
225.8730, 639.8191
226.3551, 645.3627
226.8372, 647.0120
227.3193, 646.6154
227.8014, 643.8124
228.2835, 639.1646
228.7657, 633.0065
229.2478, 622.2387
229.7299, 614.9683
230.2120, 614.9813
230.6941, 625.6302
231.1762, 632.3845
231.6584, 634.2104
232.1405, 632.6471
232.6226, 630.6286
233.1047, 628.5872
233.5868, 625.3686
234.0689, 619.6779
234.5511, 608.4724
235.0332, 603.7783
235.5153, 608.0479
235.9974, 617.8782
236.4795, 626.4620
236.9616, 635.7485
237.4438, 640.8607
237.9259, 638.8546
238.4080, 625.4286
238.8901, 616.1667
239.3722, 611.8085
239.8543, 611.4638
240.3365, 613.3331
240.8186, 618.6262
241.3007, 624.3761
241.7828, 629.2807
242.2649, 632.4729
242.7470, 637.0259
243.2292, 644.8009
243.7113, 653.4407
244.1934, 656.5272
244.6755, 650.7512
245.1576, 644.2721
245.6397, 640.7095
246.1219, 641.8525
246.6040, 641.6732
247.0861, 638.5959
247.5682, 634.5746
248.0503, 635.4078
248.5324, 644.4845
249.0146, 653.2280
249.4967, 657.7048
249.9788, 656.1655
250.4609, 654.2076
250.9430, 651.0883
251.4251, 647.7917
251.9073, 647.2689
252.3894, 651.7582
252.8715, 655.4753
253.3536, 655.4387
253.8357, 649.5979
254.3178, 644.9812
254.8000, 641.3383
255.2821, 639.0574
255.7642, 640.0490
256.2463, 647.5797
256.7284, 652.8063
257.2105, 649.9812
257.6927, 633.0515
258.1748, 624.8483
258.6569, 628.1463
259.1390, 639.4166
259.6211, 649.6061
260.1032, 659.7852
260.5854, 667.0015
261.0675, 669.0331
261.5496, 663.1938
262.0317, 660.7863
262.5138, 663.8723
262.9959, 669.5768
263.4781, 669.9100
263.9602, 661.7944
264.4423, 655.0463
264.9244, 655.9858
265.4065, 668.5518
265.8886, 673.5530
266.3708, 667.8849
266.8529, 656.1880
267.3350, 649.2183
267.8171, 647.7032
268.2992, 648.8625
268.7813, 652.1031
269.2635, 658.2751
269.7456, 662.8662
270.2277, 666.3914
270.7098, 667.7178
271.1919, 662.1744
271.6740, 646.5950
272.1562, 635.0235
272.6383, 636.1284
273.1204, 652.1701
273.6025, 664.9344
274.0846, 674.9721
274.5667, 680.6758
275.0489, 676.1821
275.5310, 658.3221
276.0131, 645.1285
276.4952, 648.1409
276.9773, 669.1225
277.4594, 681.6124
277.9416, 683.3752
278.4237, 679.3922
278.9058, 678.6804
279.3879, 681.9149
279.8700, 683.1851
280.3521, 678.5253
280.8343, 667.9274
281.3164, 659.3440
281.7985, 652.1245
282.2806, 648.4797
282.7627, 655.4141
283.2448, 673.6857
283.7270, 686.9155
284.2091, 683.2587
284.6912, 664.9387
285.1733, 658.9141
285.6554, 667.7745
286.1375, 681.3525
286.6197, 684.1298
287.1018, 676.6612
287.5839, 671.2953
288.0660, 676.3632
288.5481, 688.8141
289.0303, 691.8680
289.5124, 683.9615
289.9945, 673.7720
290.4766, 672.8532
290.9587, 680.0162
291.4409, 686.7901
291.9230, 690.0527
292.4051, 690.3273
292.8872, 687.5491
293.3693, 681.1370
293.8514, 676.4059
294.3336, 683.2285
294.8157, 697.9266
295.2978, 705.4150
295.7799, 693.1716
296.2620, 672.2844
296.7441, 666.7675
297.2263, 677.1095
297.7084, 690.6878
298.1905, 695.5997
298.6726, 694.2791
299.1547, 692.6288
299.6368, 692.7018
300.1190, 693.5625
300.6011, 694.5320
301.0832, 695.5378
301.5653, 694.9118
302.0474, 689.3860
302.5295, 681.5333
303.0117, 676.0410
303.4938, 676.0017
303.9759, 677.4776
304.4580, 675.3149
304.9401, 670.1022
305.4222, 666.5043
305.9044, 669.3495
306.3865, 675.3022
306.8686, 679.7179
307.3507, 680.0899
307.8328, 680.2651
308.3149, 684.7557
308.7971, 692.3587
309.2792, 697.8162
309.7613, 695.5526
310.2434, 690.7900
310.7255, 689.1937
311.2076, 694.5526
311.6898, 699.0261
312.1719, 695.9862
312.6540, 687.8340
313.1361, 681.6451
313.6182, 681.0519
314.1003, 683.4767
314.5825, 687.6730
315.0646, 695.2249
315.5467, 700.3979
316.0288, 698.1691
316.5109, 691.7899
316.9930, 688.2114
317.4752, 693.6083
317.9573, 699.8253
318.4394, 702.1260
318.9215, 698.6209
319.4036, 695.2220
319.8857, 692.7538
320.3679, 691.5817
320.8500, 692.2560
321.3321, 697.9511
321.8142, 702.9313
322.2963, 705.4009
322.7784, 705.4667
323.2606, 702.0405
323.7427, 689.6931
324.2248, 675.5441
324.7069, 667.9379
325.1890, 675.1954
325.6711, 681.7623
326.1533, 683.6145
326.6354, 679.7411
327.1175, 676.8901
327.5996, 674.3810
328.0817, 673.3727
328.5638, 674.9703
329.0460, 682.2025
329.5281, 688.2698
330.0102, 692.8243
330.4923, 695.8073
330.9744, 694.9510
331.4565, 686.8201
331.9387, 678.1431
332.4208, 674.1509
332.9029, 677.9284
333.3850, 680.2913
333.8671, 679.1874
334.3492, 675.6818
334.8314, 675.9619
335.3135, 682.1387
335.7956, 688.5280
336.2777, 691.2648
336.7598, 688.8567
337.2419, 688.5079
337.7241, 692.1163
338.2062, 697.3173
338.6883, 696.7251
339.1704, 688.9781
339.6525, 680.3781
340.1346, 673.9471
340.6168, 669.8240
341.0989, 666.2874
341.5810, 662.8518
342.0631, 660.7729
342.5452, 663.1366
343.0273, 670.1817
343.5095, 677.2097
343.9916, 683.4791
344.4737, 688.4695
344.9558, 687.2557
345.4379, 678.5229
345.9200, 668.9896
346.4022, 667.6665
346.8843, 673.4925
347.3664, 679.5369
347.8485, 683.0630
348.3306, 685.0774
348.8127, 688.6682
349.2949, 693.9612
349.7770, 697.8278
350.2591, 695.7810
350.7412, 689.9961
351.2233, 685.8903
351.7054, 686.1622
352.1876, 687.9513
352.6697, 687.3482
353.1518, 684.6840
353.6339, 682.4614
354.1160, 684.1659
354.5981, 686.8389
355.0803, 686.0310
355.5624, 678.1766
356.0445, 670.9669
356.5266, 671.7997
357.0087, 678.5432
357.4908, 684.6398
357.9730, 685.7108
358.4551, 685.2885
358.9372, 686.1671
359.4193, 689.0938
359.9014, 692.4253
360.3835, 697.1291
360.8657, 701.5186
361.3478, 702.6991
361.8299, 696.2369
362.3120, 689.1642
362.7941, 684.7599
363.2762, 683.6959
363.7584, 682.9625
364.2405, 682.7949
364.7226, 682.2195
365.2047, 680.1952
365.6868, 672.6666
366.1689, 667.5960
366.6511, 667.8466
367.1332, 673.6333
367.6153, 678.3250
368.0974, 682.4820
368.5795, 684.9025
369.0616, 684.6241
369.5438, 678.3348
370.0259, 674.0095
370.5080, 672.5434
370.9901, 673.6201
371.4722, 676.0255
371.9543, 681.8843
372.4365, 686.2077
372.9186, 685.5347
373.4007, 676.5942
373.8828, 672.3509
374.3649, 675.1395
374.8470, 681.3625
375.3292, 683.0942
375.8113, 679.0556
376.2934, 674.8582
376.7755, 672.7361
377.2576, 672.7096
377.7397, 673.6475
378.2219, 675.6776
378.7040, 678.3024
379.1861, 681.6602
379.6682, 685.7619
380.1503, 687.3291
380.6324, 684.0549
381.1146, 677.7565
381.5967, 673.4209
382.0788, 670.9930
382.5609, 672.0202
383.0430, 681.2383
383.5251, 695.5013
384.0073, 704.7375
384.4894, 704.9777
384.9715, 701.0490
385.4536, 699.3608
385.9357, 699.5692
386.4178, 699.7793
386.9000, 699.3232
387.3821, 697.9526
387.8642, 694.4366
388.3463, 687.3628
388.8284, 682.3152
389.3105, 686.2859
389.7927, 695.4807
390.2748, 702.0577
390.7569, 700.9456
391.2390, 697.0611
391.7211, 692.9500
392.2032, 688.6905
392.6854, 685.7247
393.1675, 685.7696
393.6496, 687.0269
394.1317, 687.5836
394.6138, 685.5070
395.0959, 684.0670
395.5781, 683.6852
396.0602, 684.4935
396.5423, 687.7465
397.0244, 696.7177
397.5065, 706.1775
397.9886, 712.9943
398.4708, 716.7260
398.9529, 718.1420
399.4350, 716.4564
399.9171, 712.4666
400.3992, 708.2430
400.8813, 702.9091
401.3635, 698.4732
401.8456, 695.6003
402.3277, 694.3101
402.8098, 695.0074
403.2919, 699.3163
403.7740, 703.9122
404.2562, 702.8694
404.7383, 693.4989
405.2204, 688.7198
405.7025, 694.9090
406.1846, 709.6294
406.6667, 712.0753
407.1489, 699.7812
407.6310, 685.5683
408.1131, 682.5068
408.5952, 689.5654
409.0773, 693.7177
409.5594, 691.6337
410.0416, 686.6945
410.5237, 685.0853
411.0058, 686.5793
411.4879, 688.7601
411.9700, 691.6350
412.4521, 693.9070
412.9343, 691.3035
413.4164, 682.0826
413.8985, 674.7017
414.3806, 679.8380
414.8628, 692.9661
415.3449, 704.7385
415.8270, 712.4617
416.3091, 715.9437
416.7912, 712.3860
417.2733, 702.0361
417.7555, 694.4698
418.2376, 698.3611
418.7197, 705.7679
419.2018, 709.1977
419.6839, 702.0007
420.1660, 695.7932
420.6482, 695.7610
421.1303, 700.1216
421.6124, 702.8052
422.0945, 700.8764
422.5766, 698.2305
423.0587, 696.4377
423.5409, 695.2129
424.0230, 695.7247
424.5051, 699.0594
424.9872, 703.7758
425.4693, 708.0363
425.9514, 712.9083
426.4336, 715.6359
426.9157, 715.0913
427.3978, 711.2529
427.8799, 707.3290
428.3620, 702.1292
428.8441, 698.7893
429.3263, 701.1993
429.8084, 710.9277
430.2905, 716.8476
430.7726, 716.1680
431.2547, 711.9067
431.7368, 712.5419
432.2190, 718.4836
432.7011, 723.6317
433.1832, 723.2197
433.6653, 718.5748
434.1474, 716.7217
434.6295, 718.1718
435.1117, 721.2095
435.5938, 724.7648
436.0759, 728.4188
436.5580, 730.9053
437.0401, 733.3379
437.5222, 733.2766
438.0044, 724.7679
438.4865, 708.9764
438.9686, 696.4329
439.4507, 695.2407
439.9328, 700.5767
440.4149, 708.0044
440.8971, 719.0175
441.3792, 727.0845
441.8613, 725.7659
442.3434, 719.1235
442.8255, 715.8308
443.3076, 722.8749
443.7898, 730.5850
444.2719, 734.8878
444.7540, 735.1513
445.2361, 733.5994
445.7182, 728.9679
446.2003, 723.4487
446.6825, 719.0430
447.1646, 714.6649
447.6467, 712.9606
448.1288, 715.7886
448.6109, 722.0543
449.0930, 724.8098
449.5752, 722.0221
450.0573, 719.0064
450.5394, 718.6042
451.0215, 721.2794
451.5036, 725.0488
451.9857, 731.0116
452.4679, 736.3708
452.9500, 735.8810
453.4321, 729.1877
453.9142, 722.4101
454.3963, 716.4172
454.8784, 712.1969
455.3606, 715.0818
455.8427, 725.3379
456.3248, 734.6474
456.8069, 733.9221
457.2890, 726.6772
457.7711, 720.9526
458.2533, 717.7599
458.7354, 717.8885
459.2175, 725.3018
459.6996, 737.1863
460.1817, 745.6691
460.6638, 745.0617
461.1460, 740.2310
461.6281, 732.8837
462.1102, 722.5647
462.5923, 717.2676
463.0744, 726.0557
463.5565, 739.5163
464.0387, 748.2183
464.5208, 746.9735
465.0029, 743.5870
465.4850, 738.2747
465.9671, 731.7001
466.4492, 727.8006
466.9314, 728.7742
467.4135, 730.7347
467.8956, 732.2441
468.3777, 733.2313
468.8598, 733.7695
469.3419, 733.0054
469.8241, 732.5198
470.3062, 735.1198
470.7883, 742.1894
471.2704, 747.6843
471.7525, 750.1489
472.2346, 749.7568
472.7168, 746.4127
473.1989, 739.5509
473.6810, 733.7823
474.1631, 733.6923
474.6452, 738.1476
475.1273, 740.9208
475.6095, 740.5594
476.0916, 740.3179
476.5737, 746.9510
477.0558, 757.8066
477.5379, 764.5053
478.0201, 760.4572
478.5022, 751.7055
478.9843, 742.4844
479.4664, 733.1453
479.9485, 728.5084
480.4306, 738.0233
480.9128, 750.5776
481.3949, 754.9548
481.8770, 739.8369
482.3591, 728.8463
482.8412, 733.9951
483.3233, 748.9355
483.8055, 758.9712
484.2876, 757.7529
484.7697, 754.3945
485.2518, 751.5901
485.7339, 749.3757
486.2160, 747.6296
486.6982, 745.1638
487.1803, 744.2564
487.6624, 747.6805
488.1445, 758.2327
488.6266, 765.2652
489.1087, 766.8039
489.5909, 764.2711
490.0730, 760.4542
490.5551, 754.6301
491.0372, 751.9915
491.5193, 758.7660
492.0014, 772.4706
492.4836, 775.5508
492.9657, 766.4660
493.4478, 755.1774
493.9299, 753.2373
494.4120, 757.4772
494.8941, 758.9632
495.3763, 752.7963
495.8584, 745.4196
496.3405, 745.0724
496.8226, 749.8713
497.3047, 753.3130
497.7868, 748.0785
498.2690, 742.6868
498.7511, 745.4244
499.2332, 759.7025
499.7153, 769.0272
500.1974, 761.9180
500.6795, 749.1248
501.1617, 742.1301
501.6438, 749.8756
502.1259, 755.6195
502.6080, 754.2626
503.0901, 748.0223
503.5722, 747.9827
504.0544, 759.8156
504.5365, 770.1224
505.0186, 772.1276
505.5007, 763.3026
505.9828, 759.3868
506.4649, 761.9437
506.9471, 766.5288
507.4292, 766.6537
507.9113, 762.1235
508.3934, 761.1892
508.8755, 767.8596
509.3576, 777.6414
509.8398, 779.0738
510.3219, 772.9759
510.8040, 767.9864
511.2861, 772.8889
511.7682, 781.5333
512.2504, 783.0571
512.7325, 775.6402
513.2146, 768.1279
513.6967, 767.5796
514.1788, 770.8517
514.6609, 773.5251
515.1431, 773.1142
515.6252, 772.7684
516.1073, 773.8218
516.5894, 776.0342
517.0715, 778.3757
517.5536, 782.6106
518.0358, 785.2634
518.5179, 784.3947
519.0000, 778.6806
519.4821, 773.2726
519.9642, 765.6691
520.4464, 760.5307
520.9285, 764.4713
521.4106, 782.4198
521.8927, 793.7880
522.3748, 793.2861
522.8569, 784.7205
523.3391, 779.6770
523.8212, 778.3039
524.3033, 773.7855
524.7854, 781.3182
525.2675, 785.9373
525.7496, 787.7994
526.2318, 778.6472
526.7139, 783.7178
527.1960, 783.0883
527.6781, 782.2253
528.1602, 789.2977
528.6423, 781.7472
529.1245, 788.6940
529.6066, 789.8537
530.0887, 793.6618
530.5708, 791.7349
531.0529, 791.5793
531.5350, 797.1606
532.0172, 799.5657
532.4993, 796.9786
532.9814, 800.9550
533.4635, 793.2043
533.9456, 795.7444
534.4277, 802.7245
534.9099, 800.4260
535.3920, 804.5074
535.8741, 806.1588
536.3562, 796.7672
536.8383, 806.5806
537.3204, 799.0426
537.8026, 796.5675
538.2847, 795.0519
538.7668, 794.7588
539.2489, 799.0868
539.7310, 808.7003
540.2131, 816.3252
540.6953, 813.7659
541.1774, 804.4073
541.6595, 796.8323
542.1416, 792.5121
542.6237, 790.5955
543.1058, 792.0579
543.5880, 795.2684
544.0701, 796.9213
544.5522, 792.2493
545.0343, 788.5114
545.5164, 792.0478
545.9985, 802.0771
546.4807, 807.5571
546.9628, 801.7229
547.4449, 793.1275
547.9270, 786.0788
548.4091, 779.1668
548.8912, 777.4641
549.3734, 782.9186
549.8555, 792.2842
550.3376, 802.5874
550.8197, 816.5392
551.3018, 822.5475
551.7839, 814.9023
552.2661, 798.7025
552.7482, 794.6239
553.2303, 803.6160
553.7124, 810.7889
554.1945, 801.3585
554.6766, 782.8664
555.1588, 780.9446
555.6409, 798.0993
556.1230, 817.1303
556.6051, 821.9181
557.0872, 818.3802
557.5693, 815.9935
558.0515, 819.8931
558.5336, 822.2534
559.0157, 814.5189
559.4978, 801.6374
559.9799, 795.2422
560.4620, 805.6885
560.9442, 817.0346
561.4263, 823.9476
561.9084, 825.9515
562.3905, 824.2908
562.8726, 815.7065
563.3547, 806.8324
563.8369, 802.0945
564.3190, 802.7335
564.8011, 803.3686
565.2832, 803.3473
565.7653, 803.7982
566.2474, 807.7785
566.7296, 815.3900
567.2117, 820.1661
567.6938, 818.9937
568.1759, 814.4478
568.6580, 811.7254
569.1401, 810.6705
569.6223, 809.8262
570.1044, 807.1290
570.5865, 804.6642
571.0686, 805.2359
571.5507, 809.5048
572.0328, 814.0519
572.5150, 819.2871
572.9971, 822.8875
573.4792, 822.5208
573.9613, 810.6856
574.4434, 802.7865
574.9255, 805.2153
575.4077, 813.6428
575.8898, 815.8085
576.3719, 805.7640
576.8540, 798.8364
577.3361, 801.2381
577.8182, 812.7897
578.3004, 817.9252
578.7825, 814.5891
579.2646, 812.0896
579.7467, 820.7086
580.2288, 838.2736
580.7109, 848.5504
581.1931, 848.8262
581.6752, 845.6718
582.1573, 848.7567
582.6394, 854.6262
583.1215, 855.0352
583.6036, 840.4149
584.0858, 825.3295
584.5679, 823.0314
585.0500, 830.2421
585.5321, 834.7403
586.0142, 827.5078
586.4963, 819.8275
586.9785, 817.6088
587.4606, 822.4941
587.9427, 827.0031
588.4248, 831.1295
588.9069, 834.4614
589.3890, 836.8320
589.8712, 838.6370
590.3533, 837.8649
590.8354, 833.0970
591.3175, 827.3189
591.7996, 826.4679
592.2817, 830.5729
592.7639, 835.0385
593.2460, 838.5262
593.7281, 841.1240
594.2102, 843.1191
594.6923, 844.4503
595.1744, 844.5058
595.6566, 841.9336
596.1387, 838.3956
596.6208, 834.8886
597.1029, 831.2252
597.5850, 830.4824
598.0671, 837.9043
598.5493, 847.1082
599.0314, 852.0801
599.5135, 846.1827
599.9956, 843.0013
600.4777, 845.5378
600.9598, 851.0428
601.4420, 853.7156
601.9241, 851.6566
602.4062, 851.2271
602.8883, 855.3599
603.3704, 862.7327
603.8525, 864.9619
604.3347, 861.5343
604.8168, 857.5347
605.2989, 858.0341
605.7810, 860.6786
606.2631, 856.5641
606.7452, 844.2441
607.2274, 834.5274
607.7095, 841.5978
608.1916, 855.9876
608.6737, 864.2273
609.1558, 859.5723
609.6379, 852.6192
610.1201, 846.0513
610.6022, 840.6555
611.0843, 837.8922
611.5664, 839.1539
612.0485, 842.0613
612.5306, 847.0363
613.0128, 853.7224
613.4949, 857.5790
613.9770, 857.5912
614.4591, 856.8795
614.9412, 857.4344
615.4233, 859.3088
615.9055, 859.9370
616.3876, 859.3979
616.8697, 857.0591
617.3518, 849.2634
617.8339, 839.0184
618.3160, 835.1785
618.7982, 841.5807
619.2803, 850.7300
619.7624, 856.3925
620.2445, 859.6227
620.7266, 862.5209
621.2087, 868.3521
621.6909, 871.6210
622.1730, 867.4845
622.6551, 857.1891
623.1372, 852.1445
623.6193, 857.7685
624.1014, 864.5692
624.5836, 869.4879
625.0657, 872.7025
625.5478, 872.0952
626.0299, 865.9837
626.5120, 859.9426
626.9941, 859.7723
627.4763, 865.0791
627.9584, 870.9869
628.4405, 877.7346
628.9226, 882.0507
629.4047, 876.6558
629.8868, 865.3264
630.3690, 857.2847
630.8511, 858.4733
631.3332, 862.1636
631.8153, 863.7172
632.2974, 863.8253
632.7795, 864.8809
633.2617, 869.9915
633.7438, 874.1335
634.2259, 875.0038
634.7080, 872.2283
635.1901, 868.6349
635.6722, 863.0602
636.1544, 858.2332
636.6365, 855.7699
637.1186, 855.7012
637.6007, 858.4916
638.0828, 864.8057
638.5649, 872.1050
639.0471, 877.1743
639.5292, 880.3884
640.0113, 883.0850
640.4934, 885.3311
640.9755, 887.7253
641.4576, 892.9025
641.9398, 898.7972
642.4219, 900.3270
642.9040, 890.8384
643.3861, 880.4761
643.8682, 871.8243
644.3503, 865.6431
644.8325, 868.0145
645.3146, 895.8267
645.7967, 917.2207
646.2788, 916.6285
646.7609, 888.4670
647.2430, 874.1945
647.7252, 877.9990
648.2073, 886.2162
648.6894, 884.3584
649.1715, 873.6514
649.6536, 870.6578
650.1357, 879.1760
650.6179, 889.7957
651.1000, 888.4821
651.5821, 880.2867
652.0642, 877.0353
652.5463, 889.0657
653.0284, 900.5195
653.5106, 897.4750
653.9927, 885.4752
654.4748, 879.7584
654.9569, 891.3128
655.4390, 903.2770
655.9211, 910.9905
656.4033, 914.3966
656.8854, 911.4475
657.3675, 898.1143
657.8496, 885.5771
658.3317, 880.4113
658.8138, 882.8338
659.2960, 886.7195
659.7781, 892.4970
660.2602, 897.2089
660.7423, 895.5444
661.2244, 890.7095
661.7065, 891.6730
662.1887, 902.6110
662.6708, 912.2758
663.1529, 907.7819
663.6350, 896.9927
664.1171, 891.8093
664.5992, 902.8461
665.0814, 912.5188
665.5635, 915.8491
666.0456, 913.8731
666.5277, 910.7941
667.0098, 905.4975
667.4919, 900.9796
667.9741, 898.5405
668.4562, 897.8048
668.9383, 896.0595
669.4204, 893.3618
669.9025, 889.1782
670.3846, 879.1591
670.8668, 867.6456
671.3489, 869.3251
671.8310, 885.2275
672.3131, 901.3339
672.7952, 907.2244
673.2773, 907.0775
673.7595, 904.7079
674.2416, 898.6575
674.7237, 895.8942
675.2058, 901.4590
675.6879, 910.5089
676.1700, 917.0918
676.6522, 920.7972
677.1343, 922.1215
677.6164, 919.9157
678.0985, 916.1130
678.5806, 915.5662
679.0627, 918.6109
679.5449, 921.7617
680.0270, 925.2512
680.5091, 927.0080
680.9912, 919.2948
681.4733, 903.9494
681.9554, 892.3907
682.4376, 895.6480
682.9197, 902.8625
683.4018, 902.8002
683.8839, 894.8378
684.3660, 892.2530
684.8481, 908.7679
685.3303, 925.6004
685.8124, 929.4454
686.2945, 914.4938
686.7766, 903.7676
687.2587, 897.8534
687.7408, 895.6408
688.2230, 897.0421
688.7051, 902.2590
689.1872, 906.5253
689.6693, 909.3958
690.1514, 910.7548
690.6335, 907.5986
691.1157, 902.7133
691.5978, 903.9705
692.0799, 920.3687
692.5620, 935.9815
693.0441, 937.4611
693.5262, 929.1804
694.0084, 921.6415
694.4905, 917.8599
694.9726, 915.5099
695.4547, 915.2744
695.9368, 916.4353
696.4189, 912.9391
696.9011, 901.1534
697.3832, 892.9162
697.8653, 896.6638
698.3474, 910.4683
698.8295, 910.1283
699.3116, 894.8233
699.7938, 883.7158
700.2759, 900.2980
700.7580, 928.6970
701.2401, 940.8620
701.7222, 931.8751
702.2043, 922.4366
702.6865, 926.6977
703.1686, 935.6308
703.6507, 940.8631
704.1328, 939.8571
704.6149, 936.5058
705.0970, 929.4539
705.5792, 921.3165
706.0613, 914.9235
706.5434, 909.3912
707.0255, 909.8126
707.5076, 919.5526
707.9897, 931.9514
708.4719, 933.4265
708.9540, 925.2779
709.4361, 914.3963
709.9182, 898.2194
710.4003, 886.0257
710.8824, 891.0771
711.3646, 909.0898
711.8467, 925.6457
712.3288, 936.7491
712.8109, 943.1819
713.2930, 943.3732
713.7751, 937.3120
714.2573, 934.1142
714.7394, 935.8736
715.2215, 937.3737
715.7036, 934.8211
716.1857, 928.0863
716.6678, 930.2134
717.1500, 942.8050
717.6321, 953.2186
718.1142, 945.8428
718.5963, 929.5681
719.0784, 925.2203
719.5605, 936.6930
720.0427, 947.7062
720.5248, 942.7703
721.0070, 933.1364
721.4891, 931.1631
721.9712, 947.6559
722.4533, 957.4088
722.9354, 950.2394
723.4175, 938.3254
723.8997, 936.6688
724.3818, 949.8789
724.8639, 957.7642
725.3460, 956.6164
725.8281, 949.8312
726.3102, 940.8820
726.7924, 930.7780
727.2745, 926.0398
727.7566, 932.0437
728.2387, 941.0066
728.7208, 943.9218
729.2029, 942.6799
729.6851, 942.6065
730.1672, 947.6887
730.6493, 952.6012
731.1314, 947.4451
731.6135, 957.4308
732.0956, 963.0461
732.5778, 964.5259
733.0599, 949.4838
733.5420, 955.7762
734.0241, 953.5188
734.5062, 950.9107
734.9883, 960.2059
735.4705, 947.5669
735.9526, 956.6733
736.4347, 957.0994
736.9168, 961.4982
737.3989, 957.2944
737.8810, 955.7476
738.3632, 962.8063
738.8453, 965.1001
739.3274, 959.9059
739.8095, 964.5573
740.2916, 951.6177
740.7737, 954.1144
741.2559, 963.2712
741.7380, 958.5095
742.2201, 963.3182
742.7022, 964.4819
743.1843, 949.0811
743.6664, 962.4878
744.1486, 963.4361
744.6307, 951.5925
745.1128, 964.0121
745.5949, 953.9320
746.0770, 951.4758
746.5591, 952.3729
747.0413, 960.7050
747.5234, 964.8251
748.0055, 964.9675
748.4876, 948.7457
748.9697, 954.0165
749.4518, 950.8952
749.9340, 947.5809
750.4161, 956.3281
750.8982, 943.2986
751.3803, 952.1727
751.8624, 952.5241
752.3445, 957.0062
752.8267, 953.0435
753.3088, 951.8956
753.7909, 959.5112
754.2730, 962.5197
754.7551, 958.1980
755.2372, 963.8796
755.7194, 952.1286
756.2015, 955.9713
756.6836, 966.6321
757.1657, 963.5323
757.6478, 970.1606
758.1299, 973.3017
758.6121, 960.0368
759.0942, 975.7365
759.5763, 979.1359
760.0584, 965.7993
760.5405, 954.7989
761.0226, 938.5544
761.5048, 928.1293
761.9869, 936.2792
762.4690, 952.4382
762.9511, 966.1798
763.4332, 976.6638
763.9153, 979.6635
764.3975, 961.2913
764.8796, 943.8189
765.3617, 944.6346
765.8438, 972.9719
766.3259, 988.0673
766.8080, 985.6575
767.2902, 977.7906
767.7723, 975.5023
768.2544, 978.0383
768.7365, 977.1800
769.2186, 971.6066
769.7007, 966.1428
770.1829, 967.0902
770.6650, 970.8013
771.1471, 971.8977
771.6292, 968.6224
772.1113, 964.0586
772.5934, 955.7582
773.0756, 948.5277
773.5577, 948.2128
774.0398, 958.9590
774.5219, 968.4728
775.0040, 976.7145
775.4861, 982.3046
775.9683, 981.2591
776.4504, 974.2960
776.9325, 970.5472
777.4146, 973.0668
777.8967, 977.3253
778.3788, 977.8734
778.8610, 976.2750
779.3431, 975.3812
779.8252, 978.9606
780.3073, 980.3760
780.7894, 973.7995
781.2715, 964.1254
781.7537, 962.9452
782.2358, 977.1264
782.7179, 984.2375
783.2000, 976.9308
783.6821, 962.5286
784.1642, 960.0265
784.6464, 968.4838
785.1285, 979.3682
785.6106, 993.3680
786.0927, 1003.577
786.5748, 997.5377
787.0569, 980.8896
787.5391, 969.1022
788.0212, 972.4034
788.5033, 977.7117
788.9854, 980.0161
789.4675, 980.1885
789.9496, 982.9282
790.4318, 990.4457
790.9139, 994.7346
791.3960, 992.1366
791.8781, 984.5188
792.3602, 976.3799
792.8423, 968.2776
793.3245, 964.8331
793.8066, 973.3375
794.2887, 984.6742
794.7708, 990.8645
795.2529, 991.9140
795.7350, 989.4210
796.2172, 977.8848
796.6993, 968.9623
797.1814, 968.5157
797.6635, 975.9434
798.1456, 980.0686
798.6277, 979.9623
799.1099, 979.8979
799.5920, 983.8915
800.0741, 989.7302
800.5562, 987.8140
801.0383, 978.7584
801.5204, 970.9514
802.0026, 970.1514
802.4847, 972.7712
802.9668, 976.4477
803.4489, 980.9744
803.9310, 985.6000
804.4131, 990.7148
804.8953, 995.4088
805.3774, 999.9834
805.8595, 1004.627
806.3416, 1003.323
806.8237, 995.1889
807.3058, 986.4672
807.7880, 981.5175
808.2701, 979.4812
808.7522, 979.0471
809.2343, 980.0615
809.7164, 980.6484
810.1985, 979.6871
810.6807, 977.7880
811.1628, 974.5364
811.6449, 969.0249
812.1270, 967.9622
812.6091, 975.2938
813.0912, 981.9977
813.5734, 980.6830
814.0555, 970.9178
814.5376, 971.5158
815.0197, 983.2337
815.5018, 996.4390
815.9839, 1004.165
816.4661, 1007.610
816.9482, 1007.496
817.4303, 1003.649
817.9124, 1001.093
818.3945, 1003.101
818.8766, 1006.524
819.3588, 1009.039
819.8409, 1010.120
820.3230, 1013.369
820.8051, 1021.287
821.2872, 1025.688
821.7693, 1016.549
822.2515, 997.1340
822.7336, 986.1506
823.2157, 984.7858
823.6978, 987.4937
824.1799, 991.7595
824.6620, 996.4624
825.1442, 1000.562
825.6263, 1003.834
826.1084, 1006.717
826.5905, 1011.251
827.0726, 1013.648
827.5547, 1010.228
828.0369, 998.8235
828.5190, 996.2079
829.0011, 1003.998
829.4832, 1012.828
829.9653, 1014.393
830.4474, 1010.795
830.9296, 1006.386
831.4117, 1001.512
831.8938, 996.5327
832.3759, 986.6506
832.8580, 980.1252
833.3401, 985.2799
833.8223, 1009.237
834.3044, 1023.981
834.7865, 1026.830
835.2686, 1024.369
835.7507, 1019.147
836.2328, 1011.596
836.7150, 1010.769
837.1971, 1017.249
837.6792, 1024.880
838.1613, 1031.478
838.6434, 1034.673
839.1255, 1028.594
839.6077, 1010.925
840.0898, 1001.005
840.5719, 1013.825
841.0540, 1029.038
841.5361, 1034.813
842.0182, 1029.655
842.5004, 1023.076
842.9825, 1013.905
843.4646, 1007.813
843.9467, 1011.727
844.4288, 1021.729
844.9109, 1028.081
845.3931, 1030.196
845.8752, 1029.834
846.3573, 1027.469
846.8394, 1023.567
847.3215, 1017.356
847.8036, 1007.675
848.2858, 1003.211
848.7679, 1006.530
849.2500, 1011.108
849.7321, 1012.086
850.2142, 1010.005
850.6964, 1016.275
851.1785, 1031.021
851.6606, 1042.739
852.1427, 1039.380
852.6248, 1030.694
853.1069, 1028.906
853.5891, 1034.609
854.0712, 1035.433
854.5533, 1016.962
855.0354, 1002.905
855.5175, 1006.230
855.9996, 1026.798
856.4818, 1038.649
856.9639, 1040.757
857.4460, 1039.491
857.9281, 1037.252
858.4102, 1034.872
858.8923, 1034.388
859.3745, 1035.566
859.8566, 1036.655
860.3387, 1037.430
860.8208, 1037.165
861.3029, 1035.150
861.7850, 1031.413
862.2672, 1027.445
862.7493, 1022.386
863.2314, 1019.204
863.7135, 1020.294
864.1956, 1023.889
864.6777, 1022.497
865.1599, 1016.633
865.6420, 1010.941
866.1241, 1005.598
866.6062, 1003.494
867.0883, 1009.211
867.5704, 1020.782
868.0526, 1030.317
868.5347, 1036.620
869.0168, 1039.477
869.4989, 1037.840
869.9810, 1032.987
870.4631, 1029.371
870.9453, 1026.992
871.4274, 1023.768
871.9095, 1015.878
872.3916, 1010.278
872.8737, 1022.643
873.3558, 1044.759
873.8380, 1056.595
874.3201, 1038.760
874.8022, 1022.704
875.2843, 1018.839
875.7664, 1022.715
876.2485, 1026.709
876.7307, 1031.024
877.2128, 1034.762
877.6949, 1038.109
878.1770, 1040.101
878.6591, 1037.225
879.1412, 1031.756
879.6234, 1029.668
880.1055, 1034.725
880.5876, 1040.594
881.0697, 1046.110
881.5518, 1049.779
882.0339, 1048.773
882.5161, 1037.910
882.9982, 1034.868
883.4803, 1043.543
883.9624, 1055.526
884.4445, 1058.940
884.9266, 1055.545
885.4088, 1052.428
885.8909, 1050.479
886.3730, 1050.887
886.8551, 1059.789
887.3372, 1068.808
887.8193, 1068.094
888.3015, 1046.672
888.7836, 1036.440
889.2657, 1044.951
889.7478, 1055.205
890.2299, 1048.720
890.7120, 1027.360
891.1942, 1022.685
891.6763, 1037.461
892.1584, 1053.488
892.6405, 1054.368
893.1226, 1049.048
893.6047, 1046.604
894.0869, 1048.388
894.5690, 1050.519
895.0511, 1053.138
895.5332, 1054.819
896.0153, 1053.995
896.4974, 1050.822
896.9796, 1053.379
897.4617, 1062.118
897.9438, 1068.499
898.4259, 1065.507
898.9080, 1057.569
899.3901, 1048.068
899.8723, 1038.144
900.3544, 1033.681
900.8365, 1041.696
901.3186, 1050.502
901.8007, 1056.393
902.2828, 1059.558
902.7650, 1060.495
903.2471, 1058.765
903.7292, 1058.563
904.2113, 1063.731
904.6934, 1069.021
905.1755, 1061.555
905.6577, 1046.791
906.1398, 1039.079
906.6219, 1053.799
907.1040, 1066.439
907.5861, 1066.414
908.0682, 1059.341
908.5504, 1054.406
909.0325, 1050.611
909.5146, 1054.677
909.9967, 1070.601
910.4788, 1088.100
910.9609, 1089.799
911.4431, 1080.751
911.9252, 1071.325
912.4073, 1062.064
912.8894, 1058.526
913.3715, 1069.891
913.8536, 1084.699
914.3358, 1090.128
914.8179, 1081.422
915.3000, 1077.427
915.7821, 1080.389
916.2642, 1082.375
916.7463, 1071.123
917.2285, 1053.146
917.7106, 1046.656
918.1927, 1054.057
918.6748, 1061.401
919.1569, 1057.027
919.6390, 1052.157
920.1212, 1056.458
920.6033, 1071.775
921.0854, 1080.979
921.5675, 1083.408
922.0496, 1081.777
922.5317, 1074.991
923.0139, 1065.840
923.4960, 1064.456
923.9781, 1069.673
924.4602, 1074.156
924.9423, 1070.518
925.4244, 1067.896
925.9066, 1074.698
926.3887, 1088.122
926.8708, 1092.179
927.3529, 1082.416
927.8350, 1074.768
928.3171, 1074.823
928.7993, 1077.889
929.2814, 1071.952
929.7635, 1060.006
930.2456, 1051.964
930.7277, 1052.192
931.2098, 1056.254
931.6920, 1063.217
932.1741, 1071.842
932.6562, 1080.522
933.1383, 1089.595
933.6204, 1098.004
934.1025, 1107.087
934.5847, 1112.163
935.0668, 1103.045
935.5489, 1085.011
936.0310, 1075.417
936.5131, 1077.365
936.9952, 1082.540
937.4774, 1088.754
937.9595, 1093.634
938.4416, 1095.075
938.9237, 1092.799
939.4058, 1087.214
939.8879, 1075.673
940.3701, 1068.027
940.8522, 1075.500
941.3343, 1091.453
941.8164, 1092.493
942.2985, 1080.551
942.7806, 1069.753
943.2628, 1067.446
943.7449, 1069.454
944.2270, 1076.653
944.7091, 1086.965
945.1912, 1089.301
945.6733, 1080.118
946.1555, 1073.902
946.6376, 1075.675
947.1197, 1081.315
947.6018, 1082.458
948.0839, 1080.648
948.5660, 1080.370
949.0482, 1085.087
949.5303, 1088.729
950.0124, 1088.490
950.4945, 1085.394
950.9766, 1080.191
951.4587, 1070.051
951.9409, 1067.608
952.4230, 1074.967
952.9051, 1085.340
953.3872, 1090.977
953.8693, 1094.149
954.3514, 1101.466
954.8336, 1114.339
955.3157, 1121.482
955.7978, 1111.435
956.2799, 1098.755
956.7620, 1092.006
957.2441, 1091.301
957.7263, 1092.391
958.2084, 1095.249
958.6905, 1100.071
959.1726, 1108.805
959.6547, 1118.531
960.1368, 1125.315
960.6190, 1129.028
961.1011, 1129.210
961.5832, 1122.838
962.0653, 1116.070
962.5474, 1109.930
963.0295, 1105.079
963.5117, 1103.280
963.9938, 1104.893
964.4759, 1105.642
964.9580, 1104.796
965.4401, 1102.223
965.9222, 1095.494
966.4044, 1087.713
966.8865, 1084.034
967.3686, 1086.915
967.8507, 1090.477
968.3329, 1096.238
968.8150, 1099.597
969.2971, 1095.585
969.7792, 1083.879
970.2614, 1078.084
970.7435, 1078.494
971.2256, 1082.498
971.7077, 1091.729
972.1898, 1100.957
972.6719, 1103.490
973.1541, 1099.914
973.6362, 1100.406
974.1183, 1112.576
974.6004, 1120.159
975.0825, 1117.475
975.5646, 1108.152
976.0468, 1101.062
976.5289, 1096.631
977.0110, 1098.149
977.4931, 1111.342
977.9752, 1123.295
978.4573, 1121.257
978.9395, 1112.982
979.4216, 1110.066
979.9037, 1118.606
980.3858, 1122.607
980.8679, 1120.165
981.3500, 1116.281
981.8322, 1115.759
982.3143, 1118.165
982.7964, 1123.923
983.2785, 1133.082
983.7606, 1138.400
984.2427, 1131.096
984.7249, 1122.201
985.2070, 1119.907
985.6891, 1123.786
986.1712, 1124.344
986.6533, 1121.111
987.1354, 1116.696
987.6176, 1111.630
988.0997, 1106.691
988.5818, 1102.802
989.0639, 1100.226
989.5460, 1099.540
990.0281, 1102.837
990.5103, 1105.784
990.9924, 1107.353
991.4745, 1107.944
991.9566, 1107.107
992.4387, 1104.482
992.9208, 1107.163
993.4030, 1116.743
993.8851, 1125.836
994.3672, 1125.426
994.8493, 1121.403
995.3314, 1121.326
995.8135, 1126.957
996.2957, 1128.868
996.7778, 1121.371
997.2599, 1116.560
997.7420, 1121.157
998.2241, 1132.823
998.7062, 1141.429
999.1884, 1146.700
999.6705, 1146.123
1000.153, 1129.534
1000.635, 1115.468
1001.117, 1121.133
1001.599, 1137.511
1002.081, 1144.382
1002.563, 1137.304
1003.045, 1129.013
1003.527, 1119.298
1004.010, 1112.610
1004.492, 1117.519
1004.974, 1129.281
1005.456, 1137.942
1005.938, 1141.939
1006.420, 1141.870
1006.902, 1130.983
1007.384, 1122.614
1007.866, 1126.897
1008.349, 1143.358
1008.831, 1148.345
1009.313, 1141.148
1009.795, 1132.844
1010.277, 1129.454
1010.759, 1128.244
1011.241, 1125.490
1011.723, 1122.229
1012.206, 1120.951
1012.688, 1124.817
1013.170, 1127.371
1013.652, 1127.146
1014.134, 1126.154
1014.616, 1127.349
1015.098, 1130.433
1015.580, 1133.297
1016.062, 1135.650
1016.545, 1137.956
1017.027, 1144.049
1017.509, 1147.660
1017.991, 1141.138
1018.473, 1122.630
1018.955, 1113.419
1019.437, 1114.618
1019.919, 1121.269
1020.401, 1133.693
1020.884, 1147.896
1021.366, 1156.511
1021.848, 1159.858
1022.330, 1158.817
1022.812, 1148.042
1023.294, 1140.117
1023.776, 1141.013
1024.258, 1144.740
1024.740, 1142.630
1025.223, 1134.294
1025.705, 1134.391
1026.187, 1145.363
1026.669, 1156.439
1027.151, 1158.139
1027.633, 1154.791
1028.115, 1149.181
1028.597, 1141.435
1029.080, 1137.459
1029.562, 1139.430
1030.044, 1141.114
1030.526, 1139.014
1031.008, 1135.855
1031.490, 1142.458
1031.972, 1154.974
1032.454, 1159.579
1032.937, 1141.037
1033.419, 1127.008
1033.901, 1134.840
1034.383, 1150.717
1034.865, 1157.634
1035.347, 1153.253
1035.829, 1154.658
1036.311, 1163.579
1036.793, 1171.093
1037.276, 1165.864
1037.758, 1156.613
1038.240, 1155.301
1038.722, 1161.866
1039.204, 1162.856
1039.686, 1149.163
1040.168, 1139.237
1040.650, 1138.453
1041.132, 1144.153
1041.615, 1151.587
1042.097, 1159.975
1042.579, 1166.447
1043.061, 1171.129
1043.543, 1171.373
1044.025, 1158.317
1044.507, 1144.717
1044.989, 1145.473
1045.472, 1165.963
1045.954, 1173.097
1046.436, 1164.990
1046.918, 1155.438
1047.400, 1153.596
1047.882, 1157.147
1048.364, 1167.010
1048.846, 1180.315
1049.328, 1185.053
1049.811, 1165.762
1050.293, 1153.546
1050.775, 1155.734
1051.257, 1165.581
1051.739, 1171.697
1052.221, 1174.583
1052.703, 1176.957
1053.185, 1179.557
1053.667, 1180.501
1054.150, 1178.222
1054.632, 1173.979
1055.114, 1166.968
1055.596, 1156.773
1056.078, 1157.479
1056.560, 1170.784
1057.042, 1181.561
1057.524, 1179.365
1058.007, 1172.281
1058.489, 1172.105
1058.971, 1175.896
1059.453, 1176.857
1059.935, 1168.328
1060.417, 1163.489
1060.899, 1163.423
1061.381, 1167.362
1061.864, 1177.668
1062.346, 1191.663
1062.828, 1196.803
1063.310, 1192.087
1063.792, 1183.777
1064.274, 1169.762
1064.756, 1158.875
1065.238, 1158.380
1065.720, 1165.773
1066.203, 1169.979
1066.685, 1170.297
1067.167, 1176.066
1067.649, 1193.386
1068.131, 1210.031
1068.613, 1209.163
1069.095, 1198.952
1069.577, 1190.348
1070.059, 1184.477
1070.542, 1184.407
1071.024, 1194.384
1071.506, 1201.290
1071.988, 1190.591
1072.470, 1169.832
1072.952, 1167.090
1073.434, 1179.240
1073.916, 1189.489
1074.399, 1185.265
1074.881, 1182.474
1075.363, 1190.430
1075.845, 1201.476
1076.327, 1201.364
1076.809, 1189.884
1077.291, 1184.814
1077.773, 1189.260
1078.255, 1195.690
1078.738, 1198.018
1079.220, 1198.639
1079.702, 1199.700
1080.184, 1201.454
1080.666, 1203.290
1081.148, 1207.315
1081.630, 1203.553
1082.112, 1183.232
1082.594, 1159.580
1083.077, 1158.538
1083.559, 1172.200
1084.041, 1184.186
1084.523, 1188.706
1085.005, 1192.453
1085.487, 1197.060
1085.969, 1200.762
1086.451, 1202.650
1086.934, 1202.539
1087.416, 1197.401
1087.898, 1187.756
1088.380, 1179.571
1088.862, 1178.467
1089.344, 1177.992
1089.826, 1171.475
1090.308, 1163.762
1090.791, 1167.232
1091.273, 1183.691
1091.755, 1198.725
1092.237, 1210.693
1092.719, 1217.887
1093.201, 1217.413
1093.683, 1212.267
1094.165, 1203.728
1094.647, 1191.322
1095.130, 1186.976
1095.612, 1194.228
1096.094, 1202.367
1096.576, 1207.382
1097.058, 1210.237
1097.540, 1213.461
1098.022, 1216.036
1098.504, 1215.034
1098.987, 1206.312
1099.469, 1200.227
1099.951, 1200.815
1100.433, 1203.608
1100.915, 1204.870
1101.397, 1204.947
1101.879, 1212.533
1102.361, 1226.484
1102.844, 1232.647
1103.326, 1209.179
1103.808, 1188.350
1104.290, 1194.675
1104.772, 1215.972
1105.254, 1224.375
1105.736, 1217.561
1106.218, 1213.143
1106.700, 1213.804
1107.182, 1214.905
1107.665, 1211.444
1108.147, 1206.119
1108.629, 1200.661
1109.111, 1195.357
1109.593, 1195.935
1110.075, 1206.688
1110.557, 1211.921
1111.039, 1203.549
1111.522, 1191.368
1112.004, 1195.482
1112.486, 1208.708
1112.968, 1215.491
1113.450, 1207.517
1113.932, 1204.113
1114.414, 1214.040
1114.896, 1223.788
1115.379, 1224.073
1115.861, 1216.877
1116.343, 1214.071
1116.825, 1214.893
1117.307, 1215.030
1117.789, 1207.420
1118.271, 1204.034
1118.753, 1215.019
1119.235, 1230.777
1119.718, 1238.780
1120.200, 1238.652
1120.682, 1236.786
1121.164, 1233.662
1121.646, 1228.072
1122.128, 1212.860
1122.610, 1199.944
1123.092, 1202.459
1123.574, 1217.746
1124.057, 1224.578
1124.539, 1220.574
1125.021, 1217.045
1125.503, 1216.347
1125.985, 1217.339
1126.467, 1221.175
1126.949, 1224.497
1127.431, 1220.954
1127.914, 1207.379
1128.396, 1201.929
1128.878, 1208.926
1129.360, 1217.736
1129.842, 1224.191
1130.324, 1229.224
1130.806, 1236.848
1131.288, 1244.750
1131.771, 1246.369
1132.253, 1233.285
1132.735, 1225.717
1133.217, 1231.346
1133.699, 1239.638
1134.181, 1243.854
1134.663, 1244.075
1135.145, 1239.366
1135.627, 1230.536
1136.109, 1223.189
1136.592, 1221.949
1137.074, 1221.462
1137.556, 1216.609
1138.038, 1212.644
1138.520, 1220.475
1139.002, 1240.341
1139.484, 1242.552
1139.966, 1223.334
1140.449, 1209.221
1140.931, 1231.141
1141.413, 1257.586
1141.895, 1264.004
1142.377, 1252.605
1142.859, 1242.634
1143.341, 1234.015
1143.823, 1225.735
1144.306, 1215.955
1144.788, 1212.180
1145.270, 1229.910
1145.752, 1254.274
1146.234, 1267.985
1146.716, 1267.174
1147.198, 1264.983
1147.680, 1262.658
1148.162, 1254.823
1148.645, 1233.806
1149.127, 1213.036
1149.609, 1219.963
1150.091, 1242.607
1150.573, 1258.822
1151.055, 1261.656
1151.537, 1258.077
1152.019, 1245.484
1152.501, 1233.687
1152.984, 1229.296
1153.466, 1231.286
1153.948, 1240.290
1154.430, 1253.625
1154.912, 1261.384
1155.394, 1256.600
1155.876, 1249.470
1156.358, 1240.493
1156.841, 1232.127
1157.323, 1226.967
1157.805, 1224.824
1158.287, 1223.853
1158.769, 1224.299
1159.251, 1230.616
1159.733, 1256.961
1160.215, 1275.650
1160.698, 1272.752
1161.180, 1258.048
1161.662, 1250.152
1162.144, 1248.388
1162.626, 1246.640
1163.108, 1244.040
1163.590, 1240.054
1164.072, 1229.414
1164.554, 1222.015
1165.036, 1227.023
1165.519, 1241.010
1166.001, 1246.334
1166.483, 1243.250
1166.965, 1244.208
1167.447, 1255.642
1167.929, 1263.685
1168.411, 1248.463
1168.893, 1229.790
1169.376, 1230.130
1169.858, 1250.305
1170.340, 1263.850
1170.822, 1270.582
1171.304, 1271.631
1171.786, 1264.330
1172.268, 1256.065
1172.750, 1254.799
1173.233, 1257.201
1173.715, 1258.493
1174.197, 1258.452
1174.679, 1256.026
1175.161, 1250.491
1175.643, 1246.789
1176.125, 1250.026
1176.607, 1255.770
1177.089, 1257.576
1177.572, 1257.742
1178.054, 1263.182
1178.536, 1281.103
1179.018, 1288.314
1179.500, 1282.030
1179.982, 1270.017
1180.464, 1254.910
1180.946, 1242.077
1181.428, 1240.951
1181.911, 1250.051
1182.393, 1257.993
1182.875, 1263.473
1183.357, 1266.292
1183.839, 1265.919
1184.321, 1264.143
1184.803, 1262.553
1185.285, 1261.460
1185.768, 1262.382
1186.250, 1265.407
1186.732, 1264.558
1187.214, 1254.109
1187.696, 1248.714
1188.178, 1254.317
1188.660, 1263.705
1189.142, 1262.343
1189.625, 1255.404
1190.107, 1254.224
1190.589, 1262.472
1191.071, 1267.435
1191.553, 1264.242
1192.035, 1261.045
1192.517, 1261.014
1192.999, 1263.318
1193.481, 1267.139
1193.964, 1271.478
1194.446, 1273.503
1194.928, 1270.903
1195.410, 1270.084
1195.892, 1274.507
1196.374, 1277.842
1196.856, 1274.836
1197.338, 1268.504
1197.820, 1270.129
1198.303, 1277.823
1198.785, 1285.523
1199.267, 1292.371
1199.749, 1296.299
1200.231, 1297.247
1200.713, 1294.955
1201.195, 1287.059
1201.677, 1275.507
1202.160, 1270.298
1202.642, 1270.586
1203.124, 1271.966
1203.606, 1270.369
1204.088, 1272.809
1204.570, 1285.111
1205.052, 1296.930
1205.534, 1290.611
1206.016, 1296.795
1206.499, 1298.833
1206.981, 1296.975
1207.463, 1278.827
1207.945, 1282.245
1208.427, 1277.345
1208.909, 1272.326
1209.391, 1279.443
1209.873, 1264.857
1210.355, 1272.248
1210.838, 1271.188
1211.320, 1274.336
1211.802, 1269.113
1212.284, 1266.779
1212.766, 1273.282
1213.248, 1275.252
1213.730, 1266.327
1214.212, 1278.420
1214.695, 1286.146
1215.177, 1289.733
1215.659, 1276.798
1216.141, 1285.197
1216.623, 1285.047
1217.105, 1284.545
1217.587, 1295.947
1218.069, 1285.415
1218.552, 1296.633
1219.034, 1299.166
1219.516, 1305.671
1219.998, 1303.574
1220.480, 1304.134
1220.962, 1313.299
1221.444, 1317.699
1221.926, 1294.456
1222.408, 1279.076
1222.891, 1281.836
1223.373, 1298.528
1223.855, 1313.269
1224.337, 1323.645
1224.819, 1324.466
1225.301, 1300.456
1225.783, 1280.059
1226.265, 1280.214
1226.747, 1295.859
1227.230, 1306.768
1227.712, 1313.191
1228.194, 1316.775
1228.676, 1318.181
1229.158, 1316.424
1229.640, 1307.061
1230.122, 1299.463
1230.604, 1301.915
1231.087, 1311.173
1231.569, 1311.582
1232.051, 1305.036
1232.533, 1298.455
1233.015, 1293.260
1233.497, 1290.657
1233.979, 1289.886
1234.461, 1292.885
1234.943, 1305.484
1235.426, 1323.061
1235.908, 1323.896
1236.390, 1311.876
1236.872, 1303.329
1237.354, 1312.625
1237.836, 1314.947
1238.318, 1301.967
1238.800, 1288.516
1239.282, 1292.062
1239.765, 1305.978
1240.247, 1310.629
1240.729, 1307.353
1241.211, 1306.239
1241.693, 1316.347
1242.175, 1320.794
1242.657, 1314.678
1243.139, 1307.288
1243.622, 1310.444
1244.104, 1319.706
1244.586, 1325.292
1245.068, 1327.316
1245.550, 1330.056
1246.032, 1340.785
1246.514, 1341.208
1246.996, 1324.891
1247.479, 1307.291
1247.961, 1311.498
1248.443, 1325.904
1248.925, 1330.181
1249.407, 1323.903
1249.889, 1318.732
1250.371, 1316.238
1250.853, 1317.024
1251.335, 1323.026
1251.818, 1327.028
1252.300, 1314.718
1252.782, 1297.645
1253.264, 1293.312
1253.746, 1302.385
1254.228, 1308.491
1254.710, 1309.314
1255.192, 1310.646
1255.674, 1314.248
1256.157, 1316.938
1256.639, 1310.952
1257.121, 1304.428
1257.603, 1309.233
1258.085, 1325.889
1258.567, 1334.124
1259.049, 1332.727
1259.531, 1326.804
1260.014, 1316.169
1260.496, 1307.371
1260.978, 1309.033
1261.460, 1315.084
1261.942, 1318.933
1262.424, 1320.629
1262.906, 1327.592
1263.388, 1340.609
1263.870, 1347.509
1264.353, 1343.522
1264.835, 1337.920
1265.317, 1342.082
1265.799, 1345.922
1266.281, 1336.757
1266.763, 1317.864
1267.245, 1318.151
1267.727, 1336.157
1268.209, 1344.260
1268.692, 1331.418
1269.174, 1315.151
1269.656, 1299.739
1270.138, 1293.503
1270.620, 1305.315
1271.102, 1330.071
1271.584, 1338.277
1272.066, 1332.545
1272.549, 1328.239
1273.031, 1330.792
1273.513, 1333.878
1273.995, 1335.198
1274.477, 1335.247
1274.959, 1334.538
1275.441, 1332.718
1275.923, 1326.254
1276.406, 1317.404
1276.888, 1313.792
1277.370, 1319.680
1277.852, 1326.144
1278.334, 1332.032
1278.816, 1336.049
1279.298, 1336.982
1279.780, 1336.008
1280.262, 1336.114
1280.745, 1336.781
1281.227, 1336.910
1281.709, 1336.648
1282.191, 1333.823
1282.673, 1326.140
1283.155, 1321.848
1283.637, 1326.305
1284.119, 1335.936
1284.601, 1346.098
1285.084, 1356.293
1285.566, 1366.872
1286.048, 1381.832
1286.530, 1381.665
1287.012, 1363.245
1287.494, 1346.419
1287.976, 1344.203
1288.458, 1346.260
1288.941, 1339.246
1289.423, 1329.620
1289.905, 1327.440
1290.387, 1333.844
1290.869, 1341.936
1291.351, 1351.827
1291.833, 1359.124
1292.315, 1360.790
1292.797, 1359.837
1293.280, 1355.836
1293.762, 1352.285
1294.244, 1354.585
1294.726, 1362.758
1295.208, 1356.425
1295.690, 1337.829
1296.172, 1327.237
1296.654, 1341.320
1297.136, 1355.126
1297.619, 1356.638
1298.101, 1354.837
1298.583, 1356.843
1299.065, 1360.972
1299.547, 1355.194
1300.029, 1342.586
1300.511, 1334.156
1300.993, 1333.472
1301.476, 1340.223
1301.958, 1358.948
1302.440, 1374.736
1302.922, 1373.311
1303.404, 1362.757
1303.886, 1359.769
1304.368, 1363.049
1304.850, 1369.604
1305.333, 1385.313
1305.815, 1391.091
1306.297, 1385.335
1306.779, 1375.864
1307.261, 1367.599
1307.743, 1358.686
1308.225, 1341.860
1308.707, 1324.383
1309.189, 1320.524
1309.672, 1334.325
1310.154, 1344.723
1310.636, 1351.545
1311.118, 1359.211
1311.600, 1375.609
1312.082, 1387.719
1312.564, 1383.966
1313.046, 1371.519
1313.528, 1355.676
1314.011, 1336.634
1314.493, 1342.877
1314.975, 1370.526
1315.457, 1390.390
1315.939, 1380.590
1316.421, 1370.365
1316.903, 1369.291
1317.385, 1372.290
1317.868, 1376.344
##END=



