##NAMES=Betekhtinite
##RRUFFID=R070087
##IDEAL CHEMISTRY=(Cu,Fe)_21_Pb_2_S_15_
##LOCALITY=Dzhezkazgan deposit, central Kazakhstan
##OWNER=RRUFF
##SOURCE=Michael Scott
##DESCRIPTION=Aggregate of black bladed to prismatic crystals associated with quartz
##STATUS=The identification of this mineral has been confirmed by X-ray diffraction and chemical analysis
##URL=rruff.info/R070087
##MEASURED CHEMISTRY=(Cu_20.15_Fe_0.85_)_Σ=21_(Pb_1.80_Ag_0.11_Fe_0.09_)_Σ=2_S_15.00_
157.9509, 819.7726
158.4330, 822.7676
158.9152, 824.9052
159.3973, 828.7888
159.8794, 835.7626
160.3615, 845.0450
160.8436, 854.8969
161.3257, 863.8712
161.8079, 872.0499
162.2900, 882.7651
162.7721, 900.7831
163.2542, 916.9967
163.7363, 927.8353
164.2184, 934.9426
164.7006, 941.8361
165.1827, 951.1077
165.6648, 962.8460
166.1469, 974.8506
166.6290, 988.4268
167.1111, 1000.982
167.5933, 1010.873
168.0754, 1019.067
168.5575, 1027.807
169.0396, 1039.108
169.5217, 1053.019
170.0038, 1063.312
170.4860, 1067.542
170.9681, 1070.925
171.4502, 1074.881
171.9323, 1079.250
172.4144, 1083.343
172.8965, 1086.658
173.3787, 1089.214
173.8608, 1090.915
174.3429, 1090.374
174.8250, 1090.482
175.3071, 1092.839
175.7892, 1096.691
176.2714, 1099.542
176.7535, 1098.910
177.2356, 1095.092
177.7177, 1100.201
178.1998, 1126.020
178.6819, 1147.069
179.1641, 1150.562
179.6462, 1141.667
180.1283, 1134.202
180.6104, 1137.718
181.0925, 1151.342
181.5746, 1161.715
182.0567, 1169.586
182.5389, 1174.301
183.0210, 1174.155
183.5031, 1170.518
183.9852, 1166.006
184.4673, 1161.645
184.9494, 1157.970
185.4316, 1160.282
185.9137, 1175.811
186.3958, 1188.263
186.8779, 1189.913
187.3600, 1183.908
187.8421, 1177.602
188.3243, 1174.746
188.8064, 1175.400
189.2885, 1180.218
189.7706, 1193.901
190.2527, 1205.722
190.7348, 1211.685
191.2170, 1213.051
191.6991, 1212.188
192.1812, 1209.631
192.6633, 1206.519
193.1454, 1207.735
193.6275, 1213.696
194.1097, 1222.315
194.5918, 1236.977
195.0739, 1253.820
195.5560, 1264.591
196.0381, 1265.025
196.5202, 1257.466
197.0024, 1248.100
197.4845, 1232.061
197.9666, 1221.768
198.4487, 1223.186
198.9308, 1232.834
199.4129, 1245.017
199.8951, 1258.341
200.3772, 1270.880
200.8593, 1277.102
201.3414, 1275.796
201.8235, 1273.051
202.3056, 1270.505
202.7878, 1267.633
203.2699, 1262.337
203.7520, 1252.937
204.2341, 1243.747
204.7162, 1245.006
205.1983, 1260.182
205.6805, 1271.969
206.1626, 1274.239
206.6447, 1271.034
207.1268, 1268.507
207.6089, 1268.404
208.0910, 1269.327
208.5732, 1268.601
209.0553, 1265.297
209.5374, 1265.009
210.0195, 1270.850
210.5016, 1279.682
210.9837, 1287.589
211.4659, 1293.785
211.9480, 1298.623
212.4301, 1302.830
212.9122, 1306.713
213.3943, 1307.371
213.8764, 1302.255
214.3586, 1294.638
214.8407, 1287.215
215.3228, 1280.330
215.8049, 1276.085
216.2870, 1277.464
216.7691, 1284.716
217.2513, 1292.173
217.7334, 1300.542
218.2155, 1308.162
218.6976, 1313.223
219.1797, 1315.579
219.6618, 1316.815
220.1440, 1318.500
220.6261, 1320.438
221.1082, 1320.061
221.5903, 1312.666
222.0724, 1306.277
222.5546, 1310.111
223.0367, 1323.336
223.5188, 1333.097
224.0009, 1328.820
224.4830, 1312.255
224.9651, 1301.687
225.4473, 1298.180
225.9294, 1299.631
226.4115, 1309.440
226.8936, 1324.955
227.3757, 1333.458
227.8578, 1324.642
228.3400, 1303.977
228.8221, 1295.789
229.3042, 1310.796
229.7863, 1325.350
230.2684, 1329.697
230.7505, 1325.652
231.2327, 1316.952
231.7148, 1303.237
232.1969, 1288.775
232.6790, 1287.261
233.1611, 1306.669
233.6432, 1322.876
234.1254, 1326.017
234.6075, 1321.032
235.0896, 1317.143
235.5717, 1317.851
236.0538, 1320.666
236.5359, 1320.142
237.0181, 1314.061
237.5002, 1310.747
237.9823, 1313.124
238.4644, 1318.712
238.9465, 1324.717
239.4286, 1330.425
239.9108, 1335.640
240.3929, 1340.229
240.8750, 1344.568
241.3571, 1346.753
241.8392, 1343.233
242.3213, 1339.380
242.8035, 1341.224
243.2856, 1349.485
243.7677, 1359.257
244.2498, 1366.029
244.7319, 1369.525
245.2140, 1368.768
245.6962, 1360.232
246.1783, 1350.370
246.6604, 1341.223
247.1425, 1334.005
247.6246, 1332.789
248.1067, 1342.750
248.5889, 1364.044
249.0710, 1374.113
249.5531, 1364.439
250.0352, 1353.751
250.5173, 1350.624
250.9994, 1353.445
251.4816, 1356.528
251.9637, 1356.368
252.4458, 1353.527
252.9279, 1351.876
253.4100, 1351.249
253.8921, 1351.798
254.3743, 1353.704
254.8564, 1356.790
255.3385, 1360.921
255.8206, 1366.077
256.3027, 1371.943
256.7849, 1377.672
257.2670, 1388.038
257.7491, 1392.099
258.2312, 1383.748
258.7133, 1371.507
259.1954, 1363.808
259.6776, 1363.285
260.1597, 1367.343
260.6418, 1372.374
261.1239, 1381.615
261.6060, 1384.584
262.0881, 1374.528
262.5703, 1363.797
263.0524, 1362.284
263.5345, 1370.324
264.0166, 1379.955
264.4987, 1382.232
264.9808, 1375.241
265.4630, 1370.042
265.9451, 1363.765
266.4272, 1361.618
266.9093, 1369.229
267.3914, 1383.473
267.8735, 1396.116
268.3557, 1400.721
268.8378, 1397.541
269.3199, 1393.685
269.8020, 1385.525
270.2841, 1380.574
270.7662, 1383.738
271.2484, 1390.429
271.7305, 1393.554
272.2126, 1389.054
272.6947, 1379.235
273.1768, 1371.093
273.6589, 1361.582
274.1411, 1359.329
274.6232, 1370.797
275.1053, 1386.467
275.5874, 1397.325
276.0695, 1400.446
276.5516, 1399.368
277.0338, 1399.606
277.5159, 1401.680
277.9980, 1403.467
278.4801, 1404.730
278.9622, 1405.645
279.4443, 1407.077
279.9265, 1408.739
280.4086, 1408.508
280.8907, 1402.911
281.3728, 1391.543
281.8549, 1383.460
282.3370, 1379.735
282.8192, 1378.937
283.3013, 1381.878
283.7834, 1387.222
284.2655, 1391.465
284.7476, 1390.434
285.2297, 1386.546
285.7119, 1390.280
286.1940, 1406.526
286.6761, 1420.233
287.1582, 1422.517
287.6403, 1418.350
288.1224, 1414.697
288.6046, 1414.668
289.0867, 1415.282
289.5688, 1412.613
290.0509, 1406.564
290.5330, 1397.437
291.0151, 1378.512
291.4973, 1360.665
291.9794, 1358.258
292.4615, 1376.131
292.9436, 1395.721
293.4257, 1402.685
293.9078, 1398.813
294.3900, 1392.449
294.8721, 1381.451
295.3542, 1365.971
295.8363, 1381.847
296.3184, 1392.557
296.8005, 1398.335
297.2827, 1386.849
297.7648, 1395.788
298.2469, 1395.400
298.7290, 1393.848
299.2111, 1403.332
299.6932, 1390.163
300.1754, 1397.830
300.6575, 1396.039
301.1396, 1397.389
301.6217, 1398.679
302.1038, 1401.344
302.5859, 1401.095
303.0681, 1402.452
303.5501, 1409.202
304.0323, 1419.204
304.5144, 1422.837
304.9965, 1414.841
305.4786, 1407.576
305.9607, 1405.317
306.4428, 1406.257
306.9250, 1407.074
307.4071, 1406.452
307.8892, 1405.739
308.3713, 1407.414
308.8534, 1403.526
309.3355, 1413.337
309.8177, 1418.796
310.2998, 1420.138
310.7819, 1405.030
311.2640, 1411.163
311.7461, 1408.784
312.2282, 1406.056
312.7104, 1415.179
313.1925, 1402.463
313.6746, 1411.398
314.1567, 1411.691
314.6388, 1415.939
315.1209, 1411.622
315.6031, 1405.455
316.0852, 1407.135
316.5673, 1413.843
317.0494, 1418.376
317.5315, 1421.373
318.0136, 1420.876
318.4958, 1416.036
318.9779, 1408.095
319.4600, 1396.573
319.9421, 1381.487
320.4242, 1367.740
320.9063, 1364.411
321.3885, 1375.519
321.8706, 1382.960
322.3527, 1381.215
322.8348, 1378.126
323.3169, 1377.748
323.7990, 1380.148
324.2812, 1382.991
324.7633, 1382.605
325.2454, 1379.926
325.7275, 1385.424
326.2096, 1407.798
326.6917, 1423.878
327.1739, 1414.980
327.6560, 1393.125
328.1381, 1380.665
328.6202, 1390.551
329.1023, 1409.410
329.5844, 1418.660
330.0666, 1417.863
330.5487, 1411.583
331.0308, 1395.671
331.5129, 1378.969
331.9950, 1373.954
332.4771, 1383.728
332.9593, 1396.476
333.4414, 1407.414
333.9235, 1415.838
334.4056, 1419.066
334.8877, 1415.467
335.3698, 1409.481
335.8520, 1407.598
336.3341, 1409.916
336.8162, 1406.815
337.2983, 1389.277
337.7804, 1370.471
338.2625, 1363.923
338.7447, 1369.490
339.2268, 1377.264
339.7089, 1380.504
340.1910, 1379.748
340.6731, 1380.240
341.1552, 1385.615
341.6374, 1387.949
342.1195, 1380.557
342.6016, 1369.500
343.0837, 1364.767
343.5658, 1370.408
344.0479, 1382.275
344.5301, 1392.825
345.0122, 1405.094
345.4943, 1409.659
345.9764, 1399.959
346.4585, 1388.266
346.9406, 1383.460
347.4228, 1385.679
347.9049, 1389.387
348.3870, 1389.716
348.8691, 1386.634
349.3512, 1381.551
349.8333, 1368.460
350.3155, 1360.263
350.7976, 1363.226
351.2797, 1372.392
351.7618, 1381.064
352.2439, 1386.478
352.7260, 1388.361
353.2082, 1384.056
353.6903, 1369.776
354.1724, 1362.842
354.6545, 1377.585
355.1366, 1394.877
355.6187, 1402.317
356.1009, 1398.623
356.5830, 1389.564
357.0651, 1374.784
357.5472, 1357.209
358.0293, 1351.205
358.5114, 1362.081
358.9936, 1375.757
359.4757, 1380.684
359.9578, 1380.012
360.4399, 1381.258
360.9220, 1391.690
361.4041, 1400.908
361.8863, 1395.322
362.3684, 1377.070
362.8505, 1363.059
363.3326, 1361.678
363.8147, 1368.763
364.2968, 1375.129
364.7790, 1382.366
365.2611, 1385.610
365.7432, 1378.977
366.2253, 1369.584
366.7074, 1367.691
367.1895, 1375.105
367.6717, 1384.133
368.1538, 1385.980
368.6359, 1378.796
369.1180, 1377.103
369.6001, 1389.980
370.0822, 1398.506
370.5644, 1389.544
371.0465, 1370.124
371.5286, 1355.432
372.0107, 1354.017
372.4928, 1362.480
372.9749, 1370.386
373.4571, 1377.891
373.9392, 1384.477
374.4213, 1389.094
374.9034, 1393.579
375.3855, 1401.544
375.8676, 1412.437
376.3498, 1419.445
376.8319, 1412.963
377.3140, 1392.718
377.7961, 1378.692
378.2782, 1375.193
378.7603, 1372.566
379.2425, 1363.016
379.7246, 1351.336
380.2067, 1347.496
380.6888, 1359.697
381.1709, 1375.922
381.6530, 1375.637
382.1352, 1358.359
382.6173, 1351.371
383.0994, 1372.997
383.5815, 1401.884
384.0636, 1406.084
384.5457, 1381.699
385.0279, 1359.584
385.5100, 1352.398
385.9921, 1354.977
386.4742, 1361.150
386.9563, 1370.030
387.4384, 1378.381
387.9206, 1382.781
388.4027, 1383.452
388.8848, 1387.942
389.3669, 1404.681
389.8490, 1416.002
390.3311, 1410.379
390.8133, 1395.103
391.2954, 1383.561
391.7775, 1381.487
392.2596, 1384.627
392.7417, 1384.187
393.2238, 1374.089
393.7060, 1372.714
394.1881, 1391.103
394.6702, 1407.938
395.1523, 1406.635
395.6344, 1390.516
396.1165, 1376.117
396.5987, 1377.805
397.0808, 1392.176
397.5629, 1397.111
398.0450, 1386.697
398.5271, 1377.313
399.0092, 1372.923
399.4914, 1372.465
399.9735, 1376.030
400.4556, 1384.051
400.9377, 1391.972
401.4198, 1395.686
401.9019, 1395.317
402.3841, 1390.783
402.8662, 1379.165
403.3483, 1368.507
403.8304, 1367.688
404.3125, 1374.627
404.7946, 1380.409
405.2768, 1379.635
405.7589, 1379.093
406.2410, 1388.315
406.7231, 1405.010
407.2052, 1415.008
407.6873, 1409.859
408.1695, 1395.661
408.6516, 1388.765
409.1337, 1393.697
409.6158, 1396.888
410.0979, 1395.484
410.5800, 1392.392
411.0622, 1390.496
411.5443, 1390.007
412.0264, 1388.724
412.5085, 1383.860
412.9906, 1375.317
413.4727, 1373.316
413.9549, 1386.678
414.4370, 1396.985
414.9191, 1399.839
415.4012, 1397.897
415.8833, 1393.964
416.3654, 1389.008
416.8476, 1384.474
417.3297, 1381.967
417.8118, 1381.396
418.2939, 1384.366
418.7760, 1396.045
419.2581, 1405.601
419.7403, 1403.775
420.2224, 1393.583
420.7045, 1386.185
421.1866, 1388.672
421.6687, 1395.373
422.1508, 1398.834
422.6330, 1399.150
423.1151, 1398.738
423.5972, 1399.495
424.0793, 1399.372
424.5614, 1393.148
425.0435, 1377.985
425.5257, 1366.037
426.0078, 1360.379
426.4899, 1359.551
426.9720, 1362.283
427.4541, 1368.299
427.9362, 1378.473
428.4184, 1395.128
428.9005, 1417.730
429.3826, 1426.886
429.8647, 1410.927
430.3468, 1395.412
430.8289, 1382.318
431.3111, 1373.370
431.7932, 1371.407
432.2753, 1376.931
432.7574, 1385.421
433.2395, 1391.484
433.7216, 1395.060
434.2038, 1396.437
434.6859, 1394.396
435.1680, 1391.483
435.6501, 1386.972
436.1322, 1382.703
436.6143, 1382.886
437.0965, 1391.183
437.5786, 1402.021
438.0607, 1408.652
438.5428, 1411.269
439.0249, 1412.271
439.5070, 1412.672
439.9892, 1411.455
440.4713, 1405.019
440.9534, 1392.357
441.4355, 1386.021
441.9176, 1394.021
442.3997, 1405.691
442.8819, 1412.606
443.3640, 1414.299
443.8461, 1411.943
444.3282, 1405.343
444.8103, 1396.747
445.2924, 1395.312
445.7746, 1410.492
446.2567, 1420.665
446.7388, 1422.986
447.2209, 1421.313
447.7030, 1417.900
448.1852, 1413.567
448.6673, 1409.163
449.1494, 1405.281
449.6315, 1401.966
450.1136, 1399.330
450.5957, 1396.352
451.0779, 1396.079
451.5600, 1403.206
452.0421, 1411.991
452.5242, 1415.275
453.0063, 1410.811
453.4884, 1404.536
453.9706, 1399.837
454.4527, 1397.079
454.9348, 1398.431
455.4169, 1405.176
455.8990, 1411.711
456.3811, 1412.686
456.8633, 1408.318
457.3454, 1405.422
457.8275, 1404.469
458.3096, 1404.575
458.7917, 1406.500
459.2738, 1408.952
459.7560, 1409.769
460.2381, 1408.188
460.7202, 1404.788
461.2023, 1399.825
461.6844, 1391.318
462.1665, 1388.388
462.6487, 1397.938
463.1308, 1405.834
463.6129, 1404.841
464.0950, 1398.463
464.5771, 1393.982
465.0592, 1395.160
465.5414, 1398.972
466.0235, 1398.739
466.5056, 1393.553
466.9877, 1396.030
467.4698, 1415.199
467.9519, 1435.682
468.4341, 1444.339
468.9162, 1442.177
469.3983, 1435.156
469.8804, 1419.900
470.3625, 1404.536
470.8446, 1397.678
471.3268, 1398.381
471.8089, 1401.101
472.2910, 1403.547
472.7731, 1405.919
473.2552, 1408.646
473.7373, 1412.145
474.2195, 1415.188
474.7016, 1419.303
475.1837, 1421.701
475.6658, 1419.375
476.1479, 1413.503
476.6300, 1407.734
477.1122, 1404.359
477.5943, 1403.046
478.0764, 1402.477
478.5585, 1401.641
479.0406, 1404.205
479.5227, 1418.317
480.0049, 1430.813
480.4870, 1430.194
480.9691, 1417.209
481.4512, 1405.124
481.9333, 1402.897
482.4154, 1406.008
482.8976, 1406.839
483.3797, 1405.181
483.8618, 1403.286
484.3439, 1401.097
484.8260, 1400.353
485.3081, 1406.749
485.7903, 1425.242
486.2724, 1437.531
486.7545, 1437.338
487.2366, 1431.709
487.7187, 1423.627
488.2008, 1415.375
488.6830, 1413.324
489.1651, 1423.495
489.6472, 1441.618
490.1293, 1446.240
490.6114, 1425.612
491.0935, 1412.306
491.5757, 1415.756
492.0578, 1424.003
492.5399, 1430.560
493.0220, 1433.675
493.5041, 1430.972
493.9862, 1413.689
494.4684, 1390.575
494.9505, 1385.915
495.4326, 1401.875
495.9147, 1418.559
496.3968, 1427.770
496.8789, 1430.937
497.3611, 1431.037
497.8432, 1427.346
498.3253, 1423.200
498.8074, 1420.119
499.2895, 1416.599
499.7716, 1409.395
500.2538, 1399.598
500.7359, 1392.813
501.2180, 1393.076
501.7001, 1399.371
502.1822, 1407.615
502.6643, 1422.207
503.1465, 1431.192
503.6286, 1430.122
504.1107, 1426.248
504.5928, 1425.054
505.0749, 1426.529
505.5570, 1426.881
506.0392, 1421.551
506.5213, 1413.963
507.0034, 1414.224
507.4855, 1423.558
507.9676, 1429.293
508.4497, 1423.638
508.9319, 1413.977
509.4140, 1413.332
509.8961, 1423.670
510.3782, 1430.636
510.8603, 1427.165
511.3424, 1421.315
511.8246, 1422.058
512.3067, 1427.741
512.7888, 1428.703
513.2709, 1418.566
513.7531, 1402.974
514.2352, 1399.528
514.7173, 1420.756
515.1994, 1429.472
515.6815, 1409.990
516.1636, 1391.062
516.6458, 1391.456
517.1279, 1407.632
517.6100, 1424.437
518.0921, 1434.805
518.5742, 1438.976
519.0563, 1434.643
519.5385, 1421.784
520.0206, 1413.454
520.5027, 1415.040
520.9848, 1420.370
521.4669, 1422.192
521.9490, 1420.685
522.4312, 1417.313
522.9133, 1408.868
523.3954, 1401.786
523.8775, 1400.210
524.3596, 1403.277
524.8417, 1410.188
525.3239, 1420.640
525.8060, 1429.732
526.2881, 1427.667
526.7702, 1409.123
527.2523, 1398.201
527.7344, 1401.159
528.2166, 1405.737
528.6987, 1408.785
529.1808, 1410.115
529.6629, 1409.575
530.1450, 1406.760
530.6271, 1403.315
531.1093, 1398.914
531.5914, 1394.923
532.0735, 1399.228
532.5556, 1415.349
533.0377, 1430.178
533.5198, 1429.938
534.0020, 1416.254
534.4841, 1413.814
534.9662, 1438.055
535.4483, 1454.506
535.9304, 1442.116
536.4125, 1421.320
536.8947, 1420.459
537.3768, 1443.058
537.8589, 1466.399
538.3410, 1466.759
538.8231, 1446.146
539.3052, 1431.323
539.7874, 1423.426
540.2695, 1419.220
540.7516, 1418.950
541.2337, 1421.023
541.7158, 1424.416
542.1979, 1429.013
542.6801, 1433.854
543.1622, 1440.487
543.6443, 1446.005
544.1264, 1443.955
544.6085, 1435.054
545.0906, 1429.676
545.5728, 1434.409
546.0549, 1444.381
546.5370, 1447.102
547.0191, 1433.397
547.5012, 1428.660
547.9833, 1442.800
548.4655, 1456.689
548.9476, 1458.640
549.4297, 1450.839
549.9117, 1440.502
550.3939, 1430.906
550.8760, 1422.785
551.3581, 1416.542
551.8402, 1412.083
552.3223, 1413.675
552.8044, 1424.701
553.2866, 1437.815
553.7687, 1448.899
554.2508, 1457.253
554.7329, 1458.805
555.2150, 1447.624
555.6971, 1435.128
556.1793, 1425.281
556.6614, 1418.602
557.1435, 1416.207
557.6256, 1418.231
558.1077, 1423.317
558.5898, 1430.356
559.0720, 1439.317
559.5541, 1448.552
560.0362, 1463.083
560.5183, 1469.852
561.0004, 1460.324
561.4825, 1445.944
561.9647, 1437.850
562.4468, 1437.500
562.9289, 1437.757
563.4110, 1433.428
563.8931, 1426.897
564.3752, 1420.906
564.8574, 1415.844
565.3395, 1416.473
565.8216, 1427.108
566.3037, 1440.734
566.7858, 1442.848
567.2679, 1425.019
567.7501, 1415.631
568.2322, 1421.053
568.7143, 1428.715
569.1964, 1431.989
569.6785, 1432.375
570.1606, 1434.619
570.6428, 1441.061
571.1249, 1447.006
571.6070, 1441.683
572.0891, 1425.633
572.5712, 1425.326
573.0533, 1450.812
573.5355, 1476.208
574.0176, 1482.792
574.4997, 1476.095
574.9818, 1470.734
575.4639, 1470.044
575.9460, 1466.633
576.4282, 1452.273
576.9103, 1436.688
577.3924, 1432.073
577.8745, 1438.924
578.3566, 1449.935
578.8387, 1460.473
579.3209, 1469.406
579.8030, 1471.373
580.2851, 1462.582
580.7672, 1455.974
581.2493, 1458.309
581.7314, 1459.597
582.2136, 1451.472
582.6957, 1436.251
583.1778, 1424.681
583.6599, 1422.773
584.1420, 1424.555
584.6241, 1423.865
585.1063, 1422.147
585.5884, 1424.115
586.0705, 1431.191
586.5526, 1440.374
587.0347, 1449.346
587.5168, 1458.334
587.9990, 1460.216
588.4811, 1447.817
588.9632, 1436.871
589.4453, 1425.280
589.9274, 1419.290
590.4095, 1430.250
590.8917, 1456.858
591.3738, 1477.978
591.8559, 1472.084
592.3380, 1450.974
592.8201, 1441.966
593.3022, 1444.942
593.7844, 1446.260
594.2665, 1439.182
594.7486, 1430.857
595.2307, 1433.435
595.7128, 1451.494
596.1949, 1460.332
596.6771, 1446.977
597.1592, 1437.792
597.6413, 1453.034
598.1234, 1477.589
598.6055, 1485.046
599.0876, 1467.793
599.5698, 1446.792
600.0519, 1451.410
600.5340, 1477.219
601.0161, 1481.397
601.4982, 1456.860
601.9803, 1433.589
602.4625, 1426.230
602.9446, 1428.414
603.4267, 1427.944
603.9088, 1423.542
604.3909, 1422.057
604.8730, 1425.028
605.3552, 1431.541
605.8373, 1443.637
606.3194, 1458.543
606.8015, 1470.116
607.2836, 1475.486
607.7657, 1477.220
608.2479, 1480.216
608.7300, 1485.259
609.2121, 1483.492
609.6942, 1469.345
610.1763, 1457.233
610.6584, 1459.585
611.1406, 1466.933
611.6227, 1463.813
612.1048, 1444.326
612.5869, 1429.191
613.0690, 1430.231
613.5511, 1438.631
614.0333, 1446.375
614.5154, 1452.169
614.9975, 1455.239
615.4796, 1455.036
615.9617, 1452.687
616.4438, 1449.894
616.9260, 1445.145
617.4081, 1445.758
617.8902, 1460.936
618.3723, 1470.781
618.8544, 1460.585
619.3365, 1440.386
619.8187, 1428.320
620.3008, 1430.081
620.7829, 1435.332
621.2650, 1437.221
621.7471, 1438.687
622.2292, 1446.288
622.7114, 1459.329
623.1935, 1468.839
623.6756, 1469.166
624.1577, 1462.538
624.6398, 1454.473
625.1219, 1442.713
625.6041, 1434.865
626.0862, 1430.578
626.5683, 1431.014
627.0504, 1440.342
627.5325, 1454.121
628.0146, 1463.515
628.4968, 1464.660
628.9789, 1465.120
629.4610, 1473.959
629.9431, 1485.255
630.4252, 1485.236
630.9073, 1473.474
631.3895, 1463.868
631.8716, 1466.287
632.3537, 1475.895
632.8358, 1477.608
633.3179, 1465.956
633.8000, 1457.385
634.2822, 1453.731
634.7643, 1451.659
635.2464, 1448.528
635.7285, 1446.014
636.2106, 1448.865
636.6927, 1460.851
637.1749, 1470.488
637.6570, 1465.030
638.1391, 1450.941
638.6212, 1440.221
639.1033, 1434.549
639.5854, 1436.263
640.0676, 1448.830
640.5497, 1466.074
641.0318, 1468.432
641.5139, 1440.824
641.9960, 1427.690
642.4781, 1444.199
642.9603, 1459.349
643.4424, 1453.633
643.9245, 1437.104
644.4066, 1430.627
644.8887, 1442.614
645.3708, 1458.256
645.8530, 1466.168
646.3351, 1468.670
646.8172, 1469.669
647.2993, 1469.745
647.7814, 1470.159
648.2635, 1471.702
648.7457, 1473.958
649.2278, 1476.098
649.7099, 1479.615
650.1920, 1479.636
650.6741, 1470.350
651.1563, 1463.776
651.6384, 1469.798
652.1205, 1480.302
652.6026, 1479.464
653.0847, 1460.853
653.5668, 1444.737
654.0490, 1449.917
654.5311, 1466.025
655.0132, 1476.831
655.4953, 1480.925
655.9774, 1478.334
656.4595, 1468.003
656.9417, 1455.760
657.4238, 1454.279
657.9059, 1468.864
658.3880, 1476.855
658.8701, 1469.504
659.3522, 1465.381
659.8344, 1477.278
660.3165, 1493.119
660.7986, 1494.436
661.2807, 1476.491
661.7628, 1459.714
662.2449, 1457.638
662.7271, 1463.124
663.2092, 1469.960
663.6913, 1476.294
664.1734, 1475.402
664.6555, 1463.983
665.1376, 1450.953
665.6198, 1451.058
666.1019, 1466.715
666.5840, 1475.818
667.0661, 1477.533
667.5482, 1473.598
668.0303, 1455.828
668.5125, 1438.314
668.9946, 1438.644
669.4767, 1458.424
669.9588, 1474.858
670.4409, 1477.190
670.9230, 1472.733
671.4052, 1462.352
671.8873, 1451.109
672.3694, 1452.984
672.8515, 1471.508
673.3336, 1491.484
673.8157, 1495.600
674.2979, 1485.036
674.7800, 1476.183
675.2621, 1468.391
675.7442, 1464.127
676.2263, 1467.110
676.7084, 1471.361
677.1906, 1469.913
677.6727, 1463.709
678.1548, 1461.843
678.6369, 1468.602
679.1190, 1477.859
679.6011, 1489.259
680.0833, 1499.677
680.5654, 1504.710
681.0475, 1503.817
681.5296, 1499.018
682.0117, 1491.051
682.4938, 1481.707
682.9760, 1476.381
683.4581, 1475.482
683.9402, 1475.180
684.4223, 1474.711
684.9044, 1474.917
685.3865, 1478.563
685.8687, 1483.801
686.3508, 1481.721
686.8329, 1461.179
687.3150, 1449.326
687.7971, 1461.049
688.2792, 1476.851
688.7614, 1480.328
689.2435, 1473.056
689.7256, 1464.102
690.2077, 1457.675
690.6898, 1453.970
691.1719, 1453.632
691.6541, 1456.370
692.1362, 1462.185
692.6183, 1472.034
693.1004, 1476.536
693.5825, 1468.488
694.0646, 1453.397
694.5468, 1443.873
695.0289, 1439.277
695.5110, 1442.540
695.9931, 1466.929
696.4752, 1484.493
696.9573, 1475.714
697.4395, 1455.472
697.9216, 1446.504
698.4037, 1454.514
698.8858, 1466.006
699.3679, 1474.767
699.8500, 1478.566
700.3322, 1469.159
700.8143, 1449.881
701.2964, 1438.936
701.7785, 1443.261
702.2606, 1454.744
702.7427, 1463.559
703.2249, 1469.671
703.7070, 1474.359
704.1891, 1475.872
704.6712, 1478.978
705.1533, 1485.833
705.6354, 1493.913
706.1176, 1505.181
706.5997, 1517.506
707.0818, 1518.043
707.5639, 1488.002
708.0460, 1460.484
708.5281, 1461.659
709.0103, 1476.497
709.4924, 1482.054
709.9745, 1475.858
710.4566, 1470.202
710.9387, 1474.461
711.4208, 1483.960
711.9030, 1485.875
712.3851, 1479.231
712.8672, 1476.686
713.3493, 1482.375
713.8314, 1486.481
714.3135, 1479.577
714.7957, 1466.684
715.2778, 1464.047
715.7599, 1478.597
716.2420, 1487.906
716.7241, 1485.778
717.2062, 1480.414
717.6884, 1476.596
718.1705, 1473.556
718.6526, 1467.307
719.1347, 1456.597
719.6168, 1450.018
720.0989, 1460.855
720.5811, 1480.739
721.0632, 1488.859
721.5453, 1485.378
722.0274, 1479.743
722.5095, 1474.917
722.9916, 1473.027
723.4738, 1478.165
723.9559, 1491.183
724.4380, 1495.715
724.9201, 1484.847
725.4022, 1475.607
725.8843, 1471.029
726.3665, 1469.463
726.8486, 1470.809
727.3307, 1474.279
727.8128, 1476.367
728.2949, 1474.875
728.7770, 1472.928
729.2592, 1472.773
729.7413, 1473.332
730.2234, 1472.615
730.7055, 1470.773
731.1876, 1469.833
731.6697, 1471.083
732.1519, 1474.089
732.6340, 1479.494
733.1161, 1487.566
733.5982, 1488.160
734.0803, 1478.280
734.5624, 1467.276
735.0446, 1459.555
735.5267, 1454.788
736.0088, 1452.121
736.4909, 1450.526
736.9730, 1453.994
737.4551, 1470.040
737.9373, 1483.147
738.4194, 1484.440
738.9015, 1479.504
739.3836, 1475.050
739.8657, 1472.873
740.3478, 1473.238
740.8300, 1480.400
741.3121, 1487.544
741.7942, 1482.098
742.2763, 1468.053
742.7584, 1459.940
743.2405, 1461.388
743.7227, 1465.173
744.2048, 1464.801
744.6869, 1461.154
745.1690, 1458.706
745.6511, 1457.285
746.1332, 1457.710
746.6154, 1461.340
747.0975, 1465.323
747.5796, 1467.888
748.0617, 1469.407
748.5438, 1471.295
749.0259, 1476.283
749.5081, 1475.231
749.9902, 1455.518
750.4723, 1437.902
750.9544, 1440.918
751.4365, 1457.564
751.9186, 1473.134
752.4008, 1482.373
752.8829, 1487.284
753.3650, 1491.047
753.8471, 1491.704
754.3292, 1478.786
754.8113, 1454.317
755.2935, 1445.819
755.7756, 1463.846
756.2577, 1488.856
756.7398, 1500.139
757.2219, 1498.208
757.7040, 1491.950
758.1862, 1476.690
758.6683, 1465.859
759.1504, 1460.555
759.6325, 1461.149
760.1146, 1473.135
760.5967, 1491.187
761.0789, 1500.150
761.5610, 1493.967
762.0431, 1485.287
762.5252, 1479.867
763.0073, 1474.131
763.4894, 1462.092
763.9716, 1447.168
764.4537, 1438.330
764.9358, 1439.108
765.4179, 1444.873
765.9000, 1451.846
766.3821, 1459.346
766.8643, 1465.021
767.3464, 1468.849
767.8285, 1470.442
768.3106, 1469.099
768.7927, 1468.141
769.2748, 1472.056
769.7570, 1480.534
770.2391, 1483.781
770.7212, 1477.404
771.2033, 1473.186
771.6854, 1476.150
772.1675, 1478.534
772.6497, 1475.309
773.1318, 1467.568
773.6139, 1457.915
774.0960, 1443.341
774.5781, 1435.555
775.0602, 1448.138
775.5424, 1463.199
776.0245, 1460.540
776.5066, 1446.506
776.9887, 1439.632
777.4708, 1446.664
777.9529, 1456.905
778.4351, 1457.727
778.9172, 1452.527
779.3993, 1452.629
779.8814, 1457.756
780.3635, 1461.294
780.8456, 1460.696
781.3278, 1461.985
781.8099, 1473.944
782.2920, 1493.644
782.7741, 1491.187
783.2562, 1446.942
783.7383, 1420.607
784.2205, 1431.990
784.7026, 1449.704
785.1847, 1458.756
785.6668, 1460.746
786.1489, 1459.061
786.6310, 1452.739
787.1132, 1447.361
787.5953, 1443.425
788.0774, 1442.436
788.5595, 1446.791
789.0416, 1454.492
789.5237, 1461.966
790.0059, 1468.274
790.4880, 1475.652
790.9701, 1492.325
791.4522, 1506.967
791.9343, 1489.527
792.4164, 1448.543
792.8986, 1427.288
793.3807, 1435.459
793.8628, 1450.619
794.3449, 1454.943
794.8270, 1451.923
795.3091, 1454.243
795.7913, 1464.102
796.2734, 1471.170
796.7555, 1475.752
797.2376, 1475.724
797.7197, 1465.940
798.2018, 1452.658
798.6840, 1446.842
799.1661, 1449.290
799.6482, 1454.926
800.1303, 1471.437
800.6124, 1481.260
801.0945, 1472.667
801.5767, 1456.261
802.0588, 1440.412
802.5409, 1428.488
803.0230, 1426.951
803.5051, 1445.569
803.9872, 1465.178
804.4694, 1464.521
804.9515, 1452.024
805.4336, 1441.565
805.9157, 1435.305
806.3978, 1432.617
806.8799, 1433.261
807.3621, 1436.408
807.8442, 1441.907
808.3263, 1449.495
808.8084, 1452.065
809.2905, 1448.208
809.7726, 1448.568
810.2548, 1459.644
810.7369, 1470.605
811.2190, 1467.657
811.7011, 1450.928
812.1832, 1438.872
812.6653, 1430.137
813.1475, 1428.257
813.6296, 1440.302
814.1117, 1452.630
814.5938, 1456.334
815.0759, 1453.924
815.5580, 1451.797
816.0402, 1451.308
816.5223, 1450.891
817.0044, 1448.391
817.4865, 1447.104
817.9686, 1451.132
818.4507, 1457.787
818.9329, 1463.338
819.4150, 1466.245
819.8971, 1464.288
820.3792, 1453.374
820.8613, 1438.963
821.3434, 1430.191
821.8256, 1425.851
822.3077, 1419.286
822.7898, 1409.868
823.2719, 1409.022
823.7540, 1426.002
824.2361, 1450.483
824.7183, 1456.803
825.2004, 1441.769
825.6825, 1435.269
826.1646, 1440.705
826.6467, 1446.716
827.1288, 1448.618
827.6110, 1449.004
828.0931, 1451.506
828.5752, 1456.384
829.0573, 1459.534
829.5394, 1461.786
830.0215, 1461.225
830.5037, 1452.191
830.9858, 1444.987
831.4679, 1451.068
831.9500, 1464.642
832.4321, 1468.839
832.9142, 1455.759
833.3964, 1445.743
833.8785, 1454.667
834.3606, 1466.195
834.8427, 1463.146
835.3248, 1452.071
835.8069, 1447.030
836.2891, 1451.594
836.7712, 1459.693
837.2533, 1468.810
837.7354, 1475.527
838.2175, 1471.502
838.6996, 1459.659
839.1818, 1449.597
839.6639, 1443.239
840.1460, 1444.328
840.6281, 1456.313
841.1102, 1472.063
841.5923, 1475.890
842.0745, 1466.569
842.5566, 1460.177
843.0387, 1457.787
843.5208, 1454.464
844.0029, 1447.486
844.4850, 1440.242
844.9672, 1436.527
845.4493, 1436.302
845.9314, 1438.018
846.4135, 1446.643
846.8956, 1449.929
847.3777, 1443.415
847.8599, 1434.817
848.3420, 1423.576
848.8241, 1414.962
849.3062, 1421.254
849.7883, 1448.090
850.2704, 1468.842
850.7526, 1473.701
851.2347, 1469.706
851.7168, 1454.486
852.1989, 1436.926
852.6810, 1428.343
853.1631, 1430.034
853.6453, 1436.286
854.1274, 1445.615
854.6095, 1454.114
855.0916, 1458.210
855.5737, 1458.162
856.0558, 1451.602
856.5380, 1440.699
857.0201, 1435.648
857.5022, 1440.954
857.9843, 1449.814
858.4664, 1455.112
858.9485, 1456.233
859.4307, 1446.379
859.9128, 1425.406
860.3949, 1416.579
860.8770, 1427.386
861.3591, 1440.015
861.8412, 1439.331
862.3234, 1429.943
862.8055, 1428.205
863.2876, 1438.077
863.7697, 1442.454
864.2518, 1437.406
864.7339, 1433.426
865.2161, 1438.311
865.6982, 1444.008
866.1803, 1436.683
866.6624, 1415.809
867.1445, 1404.932
867.6266, 1412.829
868.1088, 1419.668
868.5909, 1420.775
869.0730, 1420.180
869.5551, 1418.522
870.0372, 1417.958
870.5193, 1423.990
871.0015, 1439.801
871.4836, 1451.565
871.9657, 1450.414
872.4478, 1445.499
872.9299, 1442.382
873.4120, 1440.780
873.8942, 1441.188
874.3763, 1442.496
874.8584, 1439.172
875.3405, 1425.050
875.8226, 1411.447
876.3047, 1414.416
876.7869, 1425.945
877.2690, 1431.008
877.7511, 1429.140
878.2332, 1424.356
878.7153, 1418.507
879.1974, 1415.312
879.6796, 1420.156
880.1617, 1430.689
880.6438, 1440.749
881.1259, 1449.819
881.6080, 1444.500
882.0901, 1420.438
882.5723, 1404.783
883.0544, 1419.262
883.5365, 1448.140
884.0186, 1450.803
884.5007, 1420.091
884.9828, 1407.230
885.4650, 1417.318
885.9471, 1431.729
886.4292, 1448.856
886.9113, 1460.746
887.3934, 1456.599
887.8755, 1438.127
888.3577, 1424.748
888.8398, 1416.702
889.3219, 1413.447
889.8040, 1416.626
890.2861, 1422.631
890.7682, 1434.205
891.2504, 1445.506
891.7325, 1445.719
892.2146, 1432.924
892.6967, 1426.424
893.1788, 1436.340
893.6609, 1445.514
894.1431, 1448.489
894.6252, 1447.063
895.1073, 1442.353
895.5894, 1434.927
896.0715, 1423.999
896.5536, 1407.439
897.0358, 1397.429
897.5179, 1407.265
898.0000, 1421.116
898.4821, 1421.821
898.9642, 1417.542
899.4464, 1427.190
899.9285, 1450.561
900.4106, 1465.650
900.8927, 1456.362
901.3748, 1438.948
901.8569, 1429.460
902.3391, 1427.303
902.8212, 1435.639
903.3033, 1450.720
903.7854, 1457.735
904.2675, 1451.453
904.7496, 1439.907
905.2318, 1429.626
905.7139, 1422.209
906.1960, 1425.030
906.6781, 1436.076
907.1602, 1438.796
907.6423, 1430.676
908.1245, 1426.801
908.6066, 1436.797
909.0887, 1450.532
909.5708, 1448.645
910.0529, 1431.530
910.5350, 1425.030
911.0172, 1431.001
911.4993, 1436.566
911.9814, 1439.652
912.4635, 1436.918
912.9456, 1422.190
913.4277, 1402.338
913.9099, 1402.430
914.3920, 1432.935
914.8741, 1450.759
915.3562, 1450.225
915.8383, 1447.715
916.3204, 1449.866
916.8026, 1451.777
917.2847, 1446.961
917.7668, 1436.098
918.2489, 1428.813
918.7310, 1426.771
919.2131, 1425.841
919.6953, 1428.604
920.1774, 1429.390
920.6595, 1422.356
921.1416, 1413.331
921.6237, 1411.573
922.1058, 1417.968
922.5880, 1421.823
923.0701, 1418.497
923.5522, 1415.880
924.0343, 1415.700
924.5164, 1417.841
924.9985, 1425.751
925.4807, 1434.969
925.9628, 1434.846
926.4449, 1421.797
926.9270, 1411.324
927.4091, 1412.855
927.8912, 1416.294
928.3734, 1414.897
928.8555, 1411.874
929.3376, 1409.762
929.8197, 1410.029
930.3018, 1416.313
930.7839, 1431.621
931.2661, 1445.082
931.7482, 1448.163
932.2303, 1445.542
932.7124, 1439.642
933.1945, 1432.911
933.6766, 1429.949
934.1588, 1430.926
934.6409, 1430.900
935.1230, 1425.824
935.6051, 1421.597
936.0872, 1428.741
936.5693, 1439.910
937.0515, 1439.368
937.5336, 1430.115
938.0157, 1426.503
938.4978, 1432.380
938.9799, 1438.021
939.4620, 1434.457
939.9442, 1426.461
940.4263, 1421.528
940.9084, 1420.051
941.3905, 1424.653
941.8726, 1434.802
942.3547, 1446.628
942.8369, 1458.588
943.3190, 1463.759
943.8011, 1450.739
944.2832, 1427.264
944.7653, 1423.199
945.2474, 1436.593
945.7296, 1442.230
946.2117, 1436.232
946.6938, 1430.798
947.1759, 1432.868
947.6580, 1437.129
948.1401, 1434.848
948.6223, 1426.784
949.1044, 1421.694
949.5865, 1419.790
950.0686, 1418.038
950.5507, 1415.178
951.0328, 1417.134
951.5150, 1430.070
951.9971, 1445.081
952.4792, 1440.748
952.9613, 1413.811
953.4434, 1408.682
953.9255, 1433.821
954.4077, 1447.189
954.8898, 1435.616
955.3719, 1415.471
955.8540, 1395.543
956.3361, 1380.231
956.8182, 1384.538
957.3004, 1417.604
957.7825, 1433.969
958.2646, 1425.948
958.7467, 1418.541
959.2288, 1419.958
959.7109, 1423.194
960.1931, 1420.739
960.6752, 1414.825
961.1573, 1415.930
961.6394, 1430.418
962.1215, 1437.421
962.6036, 1434.844
963.0858, 1427.679
963.5679, 1411.045
964.0500, 1396.586
964.5321, 1400.846
965.0142, 1420.281
965.4963, 1426.305
965.9785, 1404.560
966.4606, 1392.450
966.9427, 1394.006
967.4248, 1400.401
967.9069, 1415.727
968.3890, 1429.182
968.8712, 1424.826
969.3533, 1404.501
969.8354, 1394.219
970.3175, 1406.099
970.7996, 1412.299
971.2817, 1402.186
971.7639, 1394.711
972.2460, 1403.920
972.7281, 1418.137
973.2102, 1421.534
973.6923, 1413.653
974.1744, 1406.111
974.6566, 1396.979
975.1387, 1393.711
975.6208, 1402.392
976.1029, 1412.427
976.5850, 1417.688
977.0671, 1420.292
977.5493, 1424.552
978.0314, 1430.719
978.5135, 1432.613
978.9956, 1423.843
979.4777, 1417.577
979.9598, 1421.739
980.4420, 1425.323
980.9241, 1415.996
981.4062, 1403.147
981.8883, 1404.743
982.3704, 1423.006
982.8525, 1436.771
983.3347, 1438.702
983.8168, 1436.629
984.2989, 1431.584
984.7810, 1425.281
985.2631, 1415.385
985.7452, 1406.568
986.2274, 1410.336
986.7095, 1428.464
987.1916, 1436.202
987.6737, 1409.697
988.1558, 1390.987
988.6379, 1407.359
989.1201, 1430.471
989.6022, 1439.043
990.0843, 1435.313
990.5664, 1425.408
991.0485, 1410.651
991.5306, 1399.195
992.0128, 1395.307
992.4949, 1394.103
992.9770, 1396.227
993.4591, 1397.409
993.9412, 1390.226
994.4233, 1380.392
994.9055, 1380.970
995.3876, 1394.864
995.8697, 1406.816
996.3518, 1411.168
996.8339, 1410.907
997.3160, 1402.977
997.7982, 1395.040
998.2803, 1394.318
998.7624, 1399.055
999.2445, 1405.374
999.7266, 1412.381
1000.209, 1416.952
1000.691, 1414.865
1001.173, 1413.554
1001.655, 1418.755
1002.137, 1424.907
1002.619, 1427.349
1003.101, 1426.461
1003.584, 1423.208
1004.066, 1417.881
1004.548, 1414.338
1005.030, 1414.847
1005.512, 1416.908
1005.994, 1422.030
1006.476, 1425.661
1006.958, 1421.851
1007.440, 1413.959
1007.923, 1409.297
1008.405, 1409.434
1008.887, 1409.469
1009.369, 1406.809
1009.851, 1404.239
1010.333, 1401.611
1010.815, 1401.026
1011.297, 1405.706
1011.780, 1413.280
1012.262, 1419.715
1012.744, 1424.103
1013.226, 1426.062
1013.708, 1423.822
1014.190, 1421.242
1014.672, 1420.327
1015.154, 1419.465
1015.636, 1416.660
1016.119, 1413.237
1016.601, 1412.582
1017.083, 1414.988
1017.565, 1413.993
1018.047, 1401.689
1018.529, 1393.304
1019.011, 1399.665
1019.493, 1406.953
1019.976, 1403.698
1020.458, 1394.963
1020.940, 1389.288
1021.422, 1387.842
1021.904, 1387.967
1022.386, 1389.489
1022.868, 1391.599
1023.350, 1394.734
1023.832, 1397.665
1024.315, 1399.165
1024.797, 1400.172
1025.279, 1402.335
1025.761, 1405.632
1026.243, 1407.913
1026.725, 1404.827
1027.207, 1406.640
1027.689, 1425.927
1028.172, 1439.146
1028.654, 1425.355
1029.136, 1403.459
1029.618, 1400.003
1030.100, 1413.771
1030.582, 1419.293
1031.064, 1408.800
1031.546, 1396.989
1032.028, 1379.430
1032.511, 1368.752
1032.993, 1375.481
1033.475, 1388.184
1033.957, 1396.019
1034.439, 1398.805
1034.921, 1398.240
1035.403, 1391.073
1035.885, 1387.407
1036.368, 1388.677
1036.850, 1392.423
1037.332, 1399.367
1037.814, 1407.195
1038.296, 1417.024
1038.778, 1426.164
1039.260, 1423.103
1039.742, 1399.041
1040.224, 1386.357
1040.707, 1391.730
1041.189, 1398.313
1041.671, 1406.687
1042.153, 1408.683
1042.635, 1392.074
1043.117, 1366.848
1043.599, 1361.578
1044.081, 1382.416
1044.563, 1392.752
1045.046, 1386.817
1045.528, 1383.676
1046.010, 1388.523
1046.492, 1394.678
1046.974, 1398.527
1047.456, 1399.894
1047.938, 1397.840
1048.420, 1392.040
1048.902, 1390.319
1049.385, 1395.352
1049.867, 1392.015
1050.349, 1373.121
1050.831, 1363.178
1051.313, 1379.079
1051.795, 1402.246
1052.277, 1403.160
1052.759, 1385.214
1053.242, 1386.762
1053.724, 1410.866
1054.206, 1418.862
1054.688, 1404.741
1055.170, 1388.121
1055.652, 1377.123
1056.134, 1371.293
1056.616, 1370.311
1057.099, 1373.764
1057.581, 1381.688
1058.063, 1393.483
1058.545, 1401.839
1059.027, 1406.073
1059.509, 1403.736
1059.991, 1393.985
1060.473, 1382.470
1060.955, 1373.675
1061.438, 1367.827
1061.920, 1367.809
1062.402, 1370.799
1062.884, 1362.819
1063.366, 1346.892
1063.848, 1340.980
1064.330, 1348.675
1064.812, 1360.308
1065.294, 1369.917
1065.777, 1377.650
1066.259, 1382.578
1066.741, 1386.389
1067.223, 1394.879
1067.705, 1404.248
1068.187, 1402.633
1068.669, 1391.333
1069.151, 1384.829
1069.634, 1389.914
1070.116, 1394.722
1070.598, 1383.773
1071.080, 1371.686
1071.562, 1379.649
1072.044, 1394.011
1072.526, 1391.339
1073.008, 1377.360
1073.490, 1373.552
1073.973, 1385.866
1074.455, 1399.392
1074.937, 1408.406
1075.419, 1411.690
1075.901, 1404.712
1076.383, 1395.004
1076.865, 1389.094
1077.347, 1385.569
1077.829, 1380.489
1078.312, 1373.792
1078.794, 1369.999
1079.276, 1372.017
1079.758, 1374.329
1080.240, 1374.590
1080.722, 1375.339
1081.204, 1377.189
1081.686, 1380.853
1082.169, 1388.609
1082.651, 1398.981
1083.133, 1406.045
1083.615, 1410.109
1084.097, 1408.157
1084.579, 1391.191
1085.061, 1380.228
1085.543, 1385.684
1086.026, 1393.485
1086.508, 1394.197
1086.990, 1390.381
1087.472, 1387.954
1087.954, 1387.768
1088.436, 1379.570
1088.918, 1354.487
1089.400, 1346.793
1089.882, 1368.835
1090.365, 1389.764
1090.847, 1393.998
1091.329, 1389.222
1091.811, 1384.938
1092.293, 1381.089
1092.775, 1377.046
1093.257, 1372.583
1093.739, 1371.603
1094.221, 1374.601
1094.704, 1377.879
1095.186, 1380.276
1095.668, 1380.662
1096.150, 1377.580
1096.632, 1373.554
1097.114, 1375.991
1097.596, 1382.156
1098.078, 1377.509
1098.561, 1364.501
1099.043, 1357.235
1099.525, 1358.230
1100.007, 1362.873
1100.489, 1368.789
1100.971, 1373.325
1101.453, 1373.354
1101.935, 1370.166
1102.417, 1362.535
1102.900, 1354.841
1103.382, 1357.471
1103.864, 1367.219
1104.346, 1370.690
1104.828, 1364.514
1105.310, 1361.348
1105.792, 1373.747
1106.274, 1384.349
1106.756, 1376.213
1107.239, 1365.063
1107.721, 1364.897
1108.203, 1371.785
1108.685, 1379.604
1109.167, 1387.014
1109.649, 1393.257
1110.131, 1397.406
1110.613, 1402.383
1111.096, 1417.882
1111.578, 1422.981
1112.060, 1396.837
1112.542, 1367.727
1113.024, 1361.160
1113.506, 1369.967
1113.988, 1374.147
1114.470, 1372.685
1114.953, 1371.733
1115.435, 1375.044
1115.917, 1370.101
1116.399, 1347.584
1116.881, 1332.372
1117.363, 1337.763
1117.845, 1354.633
1118.327, 1374.504
1118.809, 1394.342
1119.292, 1395.302
1119.774, 1375.282
1120.256, 1366.180
1120.738, 1370.284
1121.220, 1372.126
1121.702, 1367.061
1122.184, 1362.642
1122.666, 1364.368
1123.148, 1369.916
1123.631, 1376.040
1124.113, 1382.573
1124.595, 1391.035
1125.077, 1399.291
1125.559, 1400.059
1126.041, 1392.939
1126.523, 1377.569
1127.005, 1354.891
1127.488, 1345.039
1127.970, 1375.360
1128.452, 1409.967
1128.934, 1408.385
1129.416, 1392.479
1129.898, 1387.409
1130.380, 1388.690
1130.862, 1383.635
1131.344, 1371.573
1131.827, 1361.360
1132.309, 1355.453
1132.791, 1353.847
1133.273, 1360.118
1133.755, 1366.195
1134.237, 1365.739
1134.719, 1365.748
1135.201, 1376.477
1135.683, 1391.357
1136.166, 1394.397
1136.648, 1383.569
1137.130, 1371.278
1137.612, 1352.430
1138.094, 1343.157
1138.576, 1349.894
1139.058, 1355.587
1139.540, 1351.508
1140.023, 1346.600
1140.505, 1350.702
1140.987, 1361.139
1141.469, 1370.501
1141.951, 1378.896
1142.433, 1374.471
1142.915, 1357.255
1143.397, 1347.364
1143.880, 1348.996
1144.362, 1350.898
1144.844, 1346.537
1145.326, 1341.140
1145.808, 1341.031
1146.290, 1344.557
1146.772, 1349.606
1147.254, 1355.289
1147.736, 1359.621
1148.219, 1362.891
1148.701, 1367.035
1149.183, 1372.054
1149.665, 1374.648
1150.147, 1372.834
1150.629, 1368.686
1151.111, 1362.761
1151.593, 1355.911
1152.075, 1347.129
1152.558, 1339.024
1153.040, 1334.357
1153.522, 1332.802
1154.004, 1333.143
1154.486, 1335.520
1154.968, 1337.194
1155.450, 1335.443
1155.932, 1336.793
1156.415, 1344.606
1156.897, 1351.967
1157.379, 1358.358
1157.861, 1358.881
1158.343, 1344.398
1158.825, 1322.103
1159.307, 1323.382
1159.789, 1352.151
1160.271, 1361.786
1160.754, 1350.650
1161.236, 1346.713
1161.718, 1355.914
1162.200, 1364.372
1162.682, 1364.258
1163.164, 1359.910
1163.646, 1356.079
1164.128, 1352.245
1164.610, 1345.804
1165.093, 1339.242
1165.575, 1340.449
1166.057, 1345.711
1166.539, 1341.867
1167.021, 1328.463
1167.503, 1321.191
1167.985, 1329.076
1168.467, 1338.077
1168.950, 1338.746
1169.432, 1338.753
1169.914, 1344.735
1170.396, 1350.885
1170.878, 1349.545
1171.360, 1344.842
1171.842, 1346.449
1172.324, 1355.513
1172.807, 1362.135
1173.289, 1368.187
1173.771, 1366.846
1174.253, 1352.663
1174.735, 1341.870
1175.217, 1340.724
1175.699, 1342.634
1176.181, 1342.500
1176.663, 1341.090
1177.146, 1340.162
1177.628, 1339.565
1178.110, 1336.824
1178.592, 1332.457
1179.074, 1331.480
1179.556, 1334.557
1180.038, 1342.667
1180.520, 1355.463
1181.002, 1364.853
1181.485, 1364.360
1181.967, 1357.082
1182.449, 1338.296
1182.931, 1322.251
1183.413, 1333.917
1183.895, 1355.646
1184.377, 1357.674
1184.859, 1343.856
1185.342, 1337.809
1185.824, 1346.076
1186.306, 1349.846
1186.788, 1335.514
1187.270, 1327.769
1187.752, 1342.427
1188.234, 1352.867
1188.716, 1336.598
1189.198, 1320.678
1189.681, 1337.428
1190.163, 1372.498
1190.645, 1376.920
1191.127, 1346.636
1191.609, 1327.947
1192.091, 1321.070
1192.573, 1324.809
1193.055, 1339.214
1193.537, 1346.254
1194.020, 1337.685
1194.502, 1327.908
1194.984, 1331.752
1195.466, 1341.531
1195.948, 1348.134
1196.430, 1349.414
1196.912, 1334.957
1197.394, 1315.139
1197.877, 1312.007
1198.359, 1324.339
1198.841, 1337.440
1199.323, 1346.909
1199.805, 1348.059
1200.287, 1325.938
1200.769, 1313.669
1201.251, 1337.326
1201.734, 1358.026
1202.216, 1344.191
1202.698, 1322.463
1203.180, 1326.536
1203.662, 1346.480
1204.144, 1346.535
1204.626, 1321.659
1205.108, 1317.836
1205.590, 1339.837
1206.073, 1348.696
1206.555, 1337.315
1207.037, 1326.359
1207.519, 1324.782
1208.001, 1329.469
1208.483, 1339.115
1208.965, 1347.904
1209.447, 1344.891
1209.929, 1334.674
1210.412, 1319.869
1210.894, 1307.404
1211.376, 1314.608
1211.858, 1336.085
1212.340, 1349.776
1212.822, 1349.200
1213.304, 1345.027
1213.786, 1339.790
1214.269, 1334.954
1214.751, 1326.291
1215.233, 1323.867
1215.715, 1343.711
1216.197, 1361.742
1216.679, 1352.911
1217.161, 1328.720
1217.643, 1316.516
1218.125, 1316.600
1218.608, 1319.090
1219.090, 1324.436
1219.572, 1324.851
1220.054, 1319.476
1220.536, 1320.597
1221.018, 1332.220
1221.500, 1343.349
1221.982, 1345.497
1222.464, 1344.272
1222.947, 1348.301
1223.429, 1352.186
1223.911, 1347.565
1224.393, 1338.467
1224.875, 1329.399
1225.357, 1321.653
1225.839, 1316.684
1226.321, 1314.462
1226.804, 1312.151
1227.286, 1307.790
1227.768, 1305.832
1228.250, 1308.591
1228.732, 1311.773
1229.214, 1315.995
1229.696, 1317.169
1230.178, 1310.678
1230.661, 1303.650
1231.143, 1307.377
1231.625, 1318.805
1232.107, 1323.439
1232.589, 1322.045
1233.071, 1321.865
1233.553, 1322.993
1234.035, 1323.123
1234.517, 1322.088
1235.000, 1322.158
1235.482, 1324.403
1235.964, 1326.870
1236.446, 1329.225
1236.928, 1329.511
1237.410, 1325.370
1237.892, 1319.434
1238.374, 1310.814
1238.856, 1304.013
1239.339, 1305.457
1239.821, 1313.645
1240.303, 1323.188
1240.785, 1335.656
1241.267, 1335.737
1241.749, 1318.107
1242.231, 1305.950
1242.713, 1302.491
1243.196, 1300.793
1243.678, 1298.413
1244.160, 1296.016
1244.642, 1294.103
1245.124, 1292.675
##END=



