##NAMES=Beudantite
##RRUFFID=R070190
##IDEAL CHEMISTRY=Pb^2+^Fe^3+^_3_(As^5+^O_4_)(S^6+^O_4_)(OH)_6_
##LOCALITY=Tsumeb mine, Tsumeb, Otavi District, Oshikoto, Namibia
##OWNER=RRUFF
##SOURCE=William W. Pinch
##DESCRIPTION=Rootbeer brown thin tabular plates
##STATUS=The identification of this mineral is confirmed by single-crystal X-ray diffraction and chemical analysis.
##URL=rruff.info/R070190
##MEASURED CHEMISTRY=Pb_1.00_(Fe^3+^_2.71_Al_0.30_)_Σ=3_[(As_0.58_S_0.42_)_Σ=1_O_4_]_2_((OH)_5.87_(H_2_O)_0.13_)_Σ=6_
170.3929, 1917.173
170.8750, 1935.545
171.3571, 1947.835
171.8392, 1961.406
172.3213, 1986.141
172.8034, 2025.796
173.2856, 2067.443
173.7677, 2098.307
174.2498, 2120.875
174.7319, 2143.132
175.2140, 2165.987
175.6961, 2192.469
176.1783, 2228.133
176.6604, 2275.799
177.1425, 2328.892
177.6246, 2380.323
178.1067, 2429.885
178.5888, 2479.749
179.0710, 2524.047
179.5531, 2568.993
180.0352, 2629.546
180.5173, 2714.966
180.9994, 2811.199
181.4815, 2891.418
181.9637, 2956.824
182.4458, 3022.780
182.9279, 3100.393
183.4100, 3189.433
183.8921, 3290.550
184.3742, 3407.002
184.8564, 3534.543
185.3385, 3661.809
185.8206, 3790.116
186.3027, 3915.445
186.7848, 4028.675
187.2669, 4132.592
187.7491, 4251.794
188.2312, 4397.529
188.7133, 4564.622
189.1954, 4739.536
189.6775, 4922.119
190.1596, 5108.450
190.6418, 5300.674
191.1239, 5497.602
191.6060, 5685.545
192.0881, 5847.905
192.5702, 5990.231
193.0524, 6165.380
193.5345, 6378.599
194.0166, 6609.627
194.4987, 6828.123
194.9808, 7034.081
195.4629, 7228.292
195.9451, 7406.896
196.4272, 7572.363
196.9093, 7732.639
197.3914, 7891.194
197.8735, 8039.522
198.3556, 8158.862
198.8378, 8246.104
199.3199, 8321.978
199.8020, 8399.377
200.2841, 8479.004
200.7662, 8539.951
201.2483, 8580.790
201.7305, 8602.487
202.2126, 8606.435
202.6947, 8591.689
203.1768, 8562.697
203.6589, 8518.515
204.1410, 8457.183
204.6232, 8397.888
205.1053, 8343.805
205.5874, 8292.204
206.0695, 8234.657
206.5516, 8171.520
207.0337, 8101.500
207.5159, 8020.896
207.9980, 7928.402
208.4801, 7838.474
208.9622, 7752.083
209.4443, 7669.680
209.9264, 7594.141
210.4086, 7527.129
210.8907, 7463.376
211.3728, 7401.252
211.8549, 7342.693
212.3370, 7276.945
212.8191, 7199.883
213.3013, 7113.573
213.7834, 7028.734
214.2655, 6943.853
214.7476, 6862.555
215.2297, 6789.741
215.7118, 6727.498
216.1940, 6666.695
216.6761, 6609.886
217.1582, 6555.929
217.6403, 6479.880
218.1224, 6369.693
218.6045, 6254.707
219.0867, 6164.834
219.5688, 6111.705
220.0509, 6057.611
220.5330, 5994.570
221.0151, 5921.413
221.4972, 5857.063
221.9794, 5805.570
222.4615, 5757.741
222.9436, 5702.642
223.4257, 5636.415
223.9078, 5569.970
224.3899, 5506.309
224.8721, 5444.660
225.3542, 5384.645
225.8363, 5324.805
226.3184, 5267.481
226.8005, 5214.782
227.2827, 5169.043
227.7648, 5124.201
228.2469, 5079.063
228.7290, 5033.912
229.2111, 4986.918
229.6932, 4934.570
230.1754, 4883.777
230.6575, 4843.611
231.1396, 4819.093
231.6217, 4796.909
232.1038, 4773.801
232.5859, 4749.622
233.0681, 4725.233
233.5502, 4700.231
234.0323, 4675.412
234.5144, 4650.692
234.9965, 4621.990
235.4786, 4600.755
235.9608, 4591.982
236.4429, 4598.941
236.9250, 4603.782
237.4071, 4607.109
237.8892, 4607.883
238.3713, 4604.331
238.8535, 4595.481
239.3356, 4583.752
239.8177, 4567.667
240.2998, 4542.741
240.7819, 4531.530
241.2640, 4540.119
241.7462, 4558.694
242.2283, 4570.895
242.7104, 4576.178
243.1925, 4575.864
243.6746, 4568.657
244.1567, 4550.422
244.6389, 4539.892
245.1210, 4540.887
245.6031, 4547.298
246.0852, 4549.473
246.5673, 4550.568
247.0494, 4541.879
247.5316, 4517.427
248.0137, 4469.259
248.4958, 4432.942
248.9779, 4414.789
249.4600, 4405.134
249.9421, 4387.018
250.4243, 4359.522
250.9064, 4324.989
251.3885, 4282.389
251.8706, 4227.055
252.3527, 4178.652
252.8348, 4138.260
253.3170, 4104.185
253.7991, 4075.768
254.2812, 4060.986
254.7633, 4037.062
255.2454, 3991.462
255.7275, 3914.586
256.2097, 3854.315
256.6918, 3818.190
257.1739, 3794.166
257.6560, 3759.233
258.1381, 3709.218
258.6202, 3656.577
259.1024, 3603.012
259.5845, 3545.480
260.0666, 3503.015
260.5487, 3481.408
261.0308, 3470.574
261.5129, 3451.788
261.9951, 3424.681
262.4772, 3390.752
262.9593, 3348.064
263.4414, 3292.030
263.9235, 3248.738
264.4056, 3222.918
264.8878, 3204.943
265.3699, 3177.248
265.8520, 3137.494
266.3341, 3093.977
266.8162, 3048.270
267.2983, 3000.002
267.7805, 2953.600
268.2626, 2907.342
268.7447, 2865.344
269.2268, 2837.018
269.7089, 2826.381
270.1910, 2815.142
270.6732, 2797.165
271.1553, 2772.534
271.6374, 2738.671
272.1195, 2691.462
272.6016, 2640.972
273.0837, 2606.681
273.5659, 2591.454
274.0480, 2576.794
274.5301, 2553.662
275.0122, 2521.614
275.4943, 2498.316
275.9764, 2486.198
276.4586, 2478.261
276.9407, 2464.099
277.4228, 2443.414
277.9049, 2420.741
278.3870, 2395.839
278.8691, 2369.109
279.3513, 2350.995
279.8334, 2343.291
280.3155, 2339.592
280.7976, 2331.021
281.2798, 2317.422
281.7619, 2304.324
282.2440, 2293.317
282.7261, 2284.442
283.2082, 2278.439
283.6903, 2275.691
284.1725, 2274.408
284.6546, 2271.453
285.1367, 2267.028
285.6188, 2266.027
286.1009, 2272.929
286.5830, 2284.926
287.0652, 2288.560
287.5473, 2282.702
288.0294, 2275.037
288.5115, 2272.491
288.9936, 2275.104
289.4757, 2283.461
289.9579, 2302.754
290.4400, 2326.731
290.9221, 2336.092
291.4042, 2329.840
291.8863, 2321.383
292.3684, 2329.079
292.8506, 2347.792
293.3327, 2354.755
293.8148, 2335.677
294.2969, 2304.594
294.7790, 2289.234
295.2611, 2289.597
295.7433, 2294.557
296.2254, 2295.403
296.7075, 2293.240
297.1896, 2291.545
297.6717, 2293.706
298.1538, 2294.760
298.6360, 2283.570
299.1181, 2261.262
299.6002, 2242.377
300.0823, 2247.584
300.5644, 2262.914
301.0465, 2260.166
301.5287, 2221.893
302.0108, 2175.252
302.4929, 2154.250
302.9750, 2154.635
303.4571, 2153.233
303.9392, 2127.011
304.4214, 2091.715
304.9035, 2069.572
305.3856, 2073.443
305.8677, 2080.370
306.3498, 2070.169
306.8319, 2046.142
307.3141, 2019.566
307.7962, 1996.257
308.2783, 1974.341
308.7604, 1950.654
309.2425, 1922.303
309.7246, 1898.225
310.2068, 1886.176
310.6889, 1883.084
311.1710, 1880.775
311.6531, 1881.074
312.1352, 1877.128
312.6173, 1861.410
313.0995, 1827.679
313.5816, 1797.559
314.0637, 1783.871
314.5458, 1780.570
315.0279, 1776.113
315.5100, 1764.799
315.9922, 1752.129
316.4743, 1740.982
316.9564, 1731.967
317.4385, 1723.338
317.9206, 1713.140
318.4027, 1703.296
318.8849, 1696.493
319.3670, 1694.406
319.8491, 1694.646
320.3312, 1697.611
320.8133, 1704.299
321.2954, 1707.671
321.7776, 1706.422
322.2597, 1701.221
322.7418, 1692.781
323.2239, 1679.851
323.7060, 1665.041
324.1881, 1647.330
324.6703, 1626.152
325.1524, 1609.282
325.6345, 1601.648
326.1166, 1596.392
326.5987, 1587.909
327.0808, 1572.163
327.5630, 1557.930
328.0451, 1547.294
328.5272, 1539.984
329.0093, 1529.873
329.4914, 1514.453
329.9735, 1498.752
330.4557, 1486.561
330.9378, 1482.738
331.4199, 1473.584
331.9020, 1454.967
332.3841, 1429.653
332.8662, 1411.658
333.3484, 1405.039
333.8305, 1399.854
334.3126, 1390.057
334.7947, 1373.248
335.2768, 1359.898
335.7589, 1352.181
336.2411, 1347.314
336.7232, 1336.507
337.2053, 1316.488
337.6874, 1300.339
338.1695, 1296.212
338.6516, 1306.065
339.1338, 1311.232
339.6159, 1311.109
340.0980, 1306.629
340.5801, 1297.276
341.0622, 1282.014
341.5443, 1270.622
342.0265, 1269.299
342.5086, 1276.594
342.9907, 1278.124
343.4728, 1272.989
343.9549, 1265.557
344.4370, 1261.158
344.9192, 1259.521
345.4013, 1257.924
345.8834, 1255.883
346.3655, 1253.103
346.8476, 1248.212
347.3297, 1241.148
347.8119, 1234.352
348.2940, 1229.990
348.7761, 1227.763
349.2582, 1226.715
349.7403, 1225.927
350.2225, 1226.807
350.7046, 1233.880
351.1867, 1246.117
351.6688, 1255.093
352.1509, 1253.787
352.6331, 1245.618
353.1152, 1234.422
353.5973, 1217.541
354.0794, 1204.470
354.5615, 1207.537
355.0436, 1222.216
355.5258, 1234.730
356.0079, 1236.670
356.4900, 1233.596
356.9721, 1229.948
357.4542, 1226.187
357.9363, 1222.596
358.4185, 1218.144
358.9006, 1214.094
359.3827, 1212.630
359.8648, 1215.854
360.3469, 1220.894
360.8290, 1226.282
361.3112, 1231.817
361.7933, 1238.404
362.2754, 1250.258
362.7575, 1261.902
363.2396, 1267.410
363.7217, 1256.547
364.2039, 1248.231
364.6860, 1246.850
365.1681, 1252.592
365.6502, 1263.254
366.1323, 1286.419
366.6144, 1309.747
367.0966, 1324.733
367.5787, 1322.705
368.0608, 1322.393
368.5429, 1323.806
369.0250, 1327.510
369.5071, 1336.431
369.9893, 1353.129
370.4714, 1371.977
370.9535, 1391.145
371.4356, 1413.685
371.9177, 1428.570
372.3998, 1432.110
372.8820, 1429.748
373.3641, 1434.672
373.8462, 1450.928
374.3283, 1463.846
374.8104, 1465.223
375.2925, 1453.404
375.7747, 1450.601
376.2568, 1458.941
376.7389, 1472.026
377.2210, 1482.345
377.7031, 1489.968
378.1852, 1493.614
378.6674, 1491.317
379.1495, 1484.831
379.6316, 1481.288
380.1137, 1480.767
380.5958, 1482.752
381.0779, 1487.063
381.5601, 1493.626
382.0422, 1502.809
382.5243, 1518.328
383.0064, 1532.048
383.4885, 1525.606
383.9706, 1501.749
384.4528, 1481.192
384.9349, 1482.645
385.4170, 1495.325
385.8991, 1500.627
386.3812, 1494.134
386.8633, 1485.614
387.3455, 1481.831
387.8276, 1482.867
388.3097, 1488.942
388.7918, 1510.391
389.2739, 1530.336
389.7560, 1532.512
390.2382, 1514.267
390.7203, 1495.363
391.2024, 1483.331
391.6845, 1477.578
392.1666, 1477.328
392.6487, 1489.442
393.1309, 1500.458
393.6130, 1504.872
394.0951, 1503.009
394.5772, 1499.346
395.0593, 1489.500
395.5414, 1481.698
396.0236, 1481.206
396.5057, 1494.275
396.9878, 1508.151
397.4699, 1521.747
397.9520, 1535.309
398.4341, 1549.576
398.9163, 1567.985
399.3984, 1583.486
399.8805, 1592.573
400.3626, 1591.453
400.8447, 1595.257
401.3268, 1605.412
401.8090, 1619.438
402.2911, 1634.048
402.7732, 1648.591
403.2553, 1665.117
403.7374, 1684.758
404.2195, 1707.288
404.7017, 1727.962
405.1838, 1745.775
405.6659, 1764.708
406.1480, 1790.380
406.6301, 1823.076
407.1122, 1849.770
407.5944, 1865.381
408.0765, 1876.581
408.5586, 1899.508
409.0407, 1934.072
409.5228, 1972.130
410.0049, 2007.275
410.4871, 2041.354
410.9692, 2080.892
411.4513, 2127.527
411.9334, 2176.155
412.4155, 2221.977
412.8976, 2266.018
413.3798, 2309.398
413.8619, 2352.817
414.3440, 2396.592
414.8261, 2441.278
415.3082, 2487.094
415.7903, 2534.581
416.2725, 2584.184
416.7546, 2635.985
417.2367, 2691.009
417.7188, 2743.742
418.2009, 2804.748
418.6830, 2882.781
419.1652, 2974.198
419.6473, 3062.593
420.1294, 3139.680
420.6115, 3215.118
421.0937, 3296.747
421.5758, 3391.072
422.0579, 3476.166
422.5400, 3535.990
423.0221, 3587.753
423.5042, 3661.396
423.9864, 3783.577
424.4685, 3897.641
424.9506, 3986.443
425.4327, 4045.212
425.9148, 4127.083
426.3969, 4245.189
426.8791, 4371.352
427.3612, 4478.314
427.8433, 4557.493
428.3254, 4644.079
428.8075, 4745.006
429.2896, 4855.574
429.7718, 4956.864
430.2539, 5047.469
430.7360, 5137.245
431.2181, 5234.302
431.7002, 5337.416
432.1823, 5428.942
432.6645, 5507.967
433.1466, 5575.794
433.6287, 5628.009
434.1108, 5667.630
434.5929, 5710.173
435.0750, 5765.065
435.5572, 5825.116
436.0393, 5882.043
436.5214, 5935.379
437.0035, 5975.429
437.4856, 5984.911
437.9677, 5978.893
438.4499, 5979.605
438.9320, 6000.283
439.4141, 6016.031
439.8962, 6004.570
440.3783, 5973.937
440.8604, 5944.500
441.3426, 5927.074
441.8247, 5912.379
442.3068, 5898.127
442.7889, 5886.782
443.2710, 5862.571
443.7531, 5813.665
444.2353, 5752.790
444.7174, 5693.150
445.1995, 5631.583
445.6816, 5577.707
446.1637, 5534.025
446.6458, 5500.293
447.1280, 5470.891
447.6101, 5448.422
448.0922, 5427.321
448.5743, 5404.129
449.0564, 5375.506
449.5385, 5353.193
450.0207, 5338.196
450.5028, 5329.011
450.9849, 5320.991
451.4670, 5312.027
451.9491, 5315.511
452.4312, 5340.764
452.9134, 5384.582
453.3955, 5418.147
453.8776, 5438.521
454.3597, 5468.434
454.8418, 5539.895
455.3239, 5642.704
455.8061, 5728.914
456.2882, 5779.851
456.7703, 5823.460
457.2524, 5897.511
457.7345, 5998.424
458.2166, 6113.982
458.6988, 6242.256
459.1809, 6377.846
459.6630, 6509.546
460.1451, 6635.292
460.6272, 6774.333
461.1093, 6942.965
461.5915, 7130.103
462.0736, 7318.777
462.5557, 7490.965
463.0378, 7676.141
463.5199, 7892.462
464.0020, 8134.177
464.4842, 8366.376
464.9663, 8561.144
465.4484, 8757.628
465.9305, 8978.422
466.4126, 9246.708
466.8947, 9504.868
467.3769, 9752.900
467.8590, 9989.852
468.3411, 10215.70
468.8232, 10421.63
469.3053, 10632.77
469.7874, 10861.76
470.2696, 11106.71
470.7517, 11334.89
471.2338, 11547.53
471.7159, 11738.07
472.1980, 11899.35
472.6801, 12031.86
473.1623, 12135.38
473.6444, 12210.67
474.1265, 12257.50
474.6086, 12275.66
475.0907, 12265.09
475.5728, 12225.60
476.0550, 12160.36
476.5371, 12064.48
477.0192, 11924.22
477.5013, 11738.28
477.9834, 11537.53
478.4655, 11356.83
478.9477, 11171.28
479.4298, 10949.18
479.9119, 10652.01
480.3940, 10349.28
480.8761, 10087.15
481.3582, 9850.659
481.8404, 9599.926
482.3225, 9288.746
482.8046, 8987.990
483.2867, 8733.586
483.7688, 8546.053
484.2509, 8344.373
484.7331, 8103.813
485.2152, 7856.206
485.6973, 7626.427
486.1794, 7424.895
486.6615, 7222.637
487.1436, 7012.883
487.6258, 6798.195
488.1079, 6590.729
488.5900, 6393.831
489.0721, 6198.162
489.5542, 5994.672
490.0363, 5782.238
490.5185, 5592.936
491.0006, 5433.406
491.4827, 5282.888
491.9648, 5114.970
492.4470, 4933.041
492.9291, 4757.981
493.4112, 4600.171
493.8933, 4454.115
494.3754, 4319.401
494.8575, 4193.545
495.3397, 4069.047
495.8218, 3929.826
496.3039, 3792.542
496.7860, 3677.977
497.2681, 3590.391
497.7502, 3513.279
498.2324, 3446.541
498.7145, 3381.954
499.1966, 3307.018
499.6787, 3200.136
500.1608, 3101.211
500.6429, 3022.442
501.1251, 2963.448
501.6072, 2913.797
502.0893, 2885.339
502.5714, 2854.212
503.0535, 2807.934
503.5356, 2736.849
504.0178, 2673.507
504.4999, 2617.332
504.9820, 2570.062
505.4641, 2538.009
505.9462, 2526.378
506.4283, 2502.351
506.9105, 2450.279
507.3926, 2380.229
507.8747, 2334.503
508.3568, 2314.002
508.8389, 2298.870
509.3210, 2272.089
509.8032, 2238.892
510.2853, 2215.565
510.7674, 2206.548
511.2495, 2197.059
511.7316, 2164.563
512.2137, 2120.649
512.6959, 2089.353
513.1780, 2098.627
513.6601, 2108.565
514.1422, 2086.066
514.6243, 2036.594
515.1064, 1998.948
515.5886, 2001.601
516.0707, 2011.414
516.5528, 2007.550
517.0349, 1978.951
517.5170, 1954.221
517.9991, 1934.876
518.4813, 1921.453
518.9634, 1915.847
519.4455, 1925.103
519.9276, 1929.849
520.4097, 1924.226
520.8918, 1910.420
521.3740, 1902.904
521.8561, 1903.405
522.3382, 1904.475
522.8203, 1900.477
523.3024, 1891.863
523.7845, 1885.982
524.2667, 1883.449
524.7488, 1882.768
525.2309, 1882.008
525.7130, 1881.473
526.1951, 1882.189
526.6772, 1884.467
527.1594, 1888.222
527.6415, 1893.084
528.1236, 1899.191
528.6057, 1907.327
529.0878, 1920.754
529.5699, 1934.463
530.0521, 1943.642
530.5342, 1946.320
531.0163, 1951.103
531.4984, 1960.646
531.9805, 1973.784
532.4626, 1989.300
532.9448, 2015.184
533.4269, 2033.259
533.9090, 2034.185
534.3911, 2025.027
534.8732, 2034.822
535.3553, 2074.104
535.8375, 2112.951
536.3196, 2136.979
536.8017, 2145.644
537.2838, 2158.713
537.7659, 2177.974
538.2480, 2196.127
538.7302, 2199.549
539.2123, 2191.964
539.6944, 2201.140
540.1765, 2239.251
540.6586, 2285.383
541.1407, 2308.472
541.6229, 2314.314
542.1050, 2324.128
542.5871, 2353.306
543.0692, 2388.961
543.5513, 2419.463
544.0334, 2443.968
544.5156, 2468.550
544.9977, 2493.051
545.4798, 2520.522
545.9619, 2552.971
546.4440, 2589.062
546.9261, 2632.720
547.4083, 2696.527
547.8904, 2766.038
548.3725, 2813.188
548.8546, 2821.907
549.3367, 2835.018
549.8188, 2862.305
550.3010, 2903.141
550.7831, 2952.083
551.2652, 3011.535
551.7473, 3071.302
552.2294, 3126.563
552.7115, 3176.822
553.1937, 3210.892
553.6758, 3224.677
554.1579, 3235.609
554.6400, 3265.479
555.1221, 3310.198
555.6042, 3357.860
556.0864, 3410.162
556.5685, 3458.255
557.0506, 3490.606
557.5327, 3510.475
558.0148, 3529.378
558.4969, 3554.878
558.9791, 3579.753
559.4612, 3599.069
559.9433, 3611.383
560.4254, 3622.729
560.9075, 3634.075
561.3896, 3644.914
561.8718, 3655.538
562.3539, 3672.289
562.8360, 3677.455
563.3181, 3665.915
563.8002, 3643.818
564.2823, 3624.701
564.7645, 3608.511
565.2466, 3596.583
565.7287, 3592.944
566.2108, 3594.352
566.6929, 3584.897
567.1750, 3564.519
567.6572, 3536.267
568.1393, 3497.558
568.6214, 3454.009
569.1035, 3420.130
569.5856, 3400.579
570.0677, 3379.594
570.5499, 3337.530
571.0320, 3286.437
571.5141, 3245.107
571.9962, 3231.795
572.4783, 3218.218
572.9604, 3190.468
573.4426, 3151.832
573.9247, 3119.214
574.4068, 3105.924
574.8889, 3089.604
575.3710, 3060.242
575.8531, 3014.530
576.3353, 2975.102
576.8174, 2943.251
577.2995, 2916.332
577.7816, 2892.898
578.2637, 2873.624
578.7458, 2850.852
579.2280, 2821.758
579.7101, 2791.840
580.1922, 2773.112
580.6743, 2763.516
581.1564, 2751.437
581.6385, 2733.307
582.1207, 2708.666
582.6028, 2672.703
583.0849, 2627.511
583.5670, 2586.964
584.0491, 2565.730
584.5313, 2548.365
585.0134, 2521.217
585.4955, 2477.486
585.9776, 2439.862
586.4597, 2415.998
586.9418, 2400.641
587.4240, 2388.654
587.9061, 2387.668
588.3882, 2377.061
588.8703, 2349.831
589.3524, 2312.873
589.8345, 2286.730
590.3167, 2273.182
590.7988, 2263.735
591.2809, 2257.263
591.7630, 2252.301
592.2451, 2241.188
592.7272, 2223.814
593.2094, 2202.966
593.6915, 2178.705
594.1736, 2153.077
594.6557, 2129.389
595.1378, 2108.267
595.6199, 2090.691
596.1021, 2078.057
596.5842, 2069.400
597.0663, 2063.320
597.5485, 2061.608
598.0306, 2060.106
598.5127, 2055.560
598.9948, 2049.621
599.4769, 2049.586
599.9590, 2062.059
600.4412, 2072.876
600.9233, 2076.424
601.4054, 2072.023
601.8875, 2071.027
602.3696, 2073.088
602.8517, 2079.490
603.3339, 2092.719
603.8160, 2112.288
604.2981, 2129.393
604.7802, 2141.445
605.2623, 2156.084
605.7444, 2184.383
606.2266, 2223.350
606.7087, 2263.559
607.1908, 2303.204
607.6729, 2341.914
608.1550, 2378.384
608.6371, 2413.604
609.1193, 2452.058
609.6014, 2497.683
610.0835, 2544.913
610.5656, 2589.554
611.0477, 2630.558
611.5298, 2675.999
612.0120, 2728.914
612.4941, 2783.070
612.9762, 2833.469
613.4583, 2878.159
613.9404, 2926.180
614.4225, 2979.325
614.9047, 3032.907
615.3868, 3080.286
615.8689, 3122.252
616.3510, 3164.684
616.8331, 3212.487
617.3152, 3257.427
617.7974, 3288.277
618.2795, 3305.555
618.7616, 3313.163
619.2437, 3305.139
619.7258, 3294.233
620.2079, 3295.076
620.6901, 3308.004
621.1722, 3305.429
621.6543, 3267.839
622.1364, 3218.451
622.6185, 3173.324
623.1006, 3141.109
623.5828, 3095.387
624.0649, 3033.265
624.5470, 2960.286
625.0291, 2881.448
625.5112, 2795.438
625.9933, 2710.312
626.4755, 2628.479
626.9576, 2548.388
627.4397, 2466.413
627.9218, 2383.187
628.4039, 2303.541
628.8860, 2226.583
629.3682, 2156.027
629.8503, 2101.618
630.3324, 2061.151
630.8145, 2019.796
631.2966, 1966.897
631.7787, 1911.962
632.2609, 1861.035
632.7430, 1814.390
633.2251, 1773.676
633.7072, 1741.220
634.1893, 1714.215
634.6714, 1690.093
635.1536, 1668.258
635.6357, 1651.327
636.1178, 1642.354
636.5999, 1635.582
637.0820, 1618.927
637.5641, 1591.964
638.0463, 1567.226
638.5284, 1548.840
639.0105, 1534.895
639.4926, 1521.529
639.9747, 1508.804
640.4568, 1497.452
640.9390, 1486.945
641.4211, 1478.476
641.9032, 1475.360
642.3853, 1477.809
642.8674, 1475.362
643.3495, 1459.594
643.8317, 1440.317
644.3138, 1423.849
644.7959, 1410.382
645.2780, 1401.335
645.7601, 1399.041
646.2422, 1399.136
646.7244, 1396.060
647.2065, 1388.871
647.6886, 1384.221
648.1707, 1385.092
648.6528, 1386.575
649.1349, 1375.127
649.6171, 1353.124
650.0992, 1336.994
650.5813, 1340.162
651.0634, 1349.809
651.5455, 1352.049
652.0276, 1347.209
652.5098, 1336.884
652.9919, 1311.339
653.4740, 1288.782
653.9561, 1282.265
654.4382, 1295.782
654.9203, 1308.710
655.4025, 1325.057
655.8846, 1334.756
656.3667, 1328.561
656.8488, 1297.260
657.3309, 1278.498
657.8130, 1276.120
658.2952, 1281.648
658.7773, 1284.730
659.2594, 1285.402
659.7415, 1283.418
660.2236, 1277.582
660.7057, 1270.946
661.1879, 1266.962
661.6700, 1265.686
662.1521, 1267.373
662.6342, 1278.304
663.1163, 1286.914
663.5984, 1282.571
664.0806, 1267.252
664.5627, 1257.987
665.0448, 1264.939
665.5269, 1273.544
666.0090, 1278.044
666.4911, 1278.177
666.9733, 1275.376
667.4554, 1268.143
667.9375, 1260.947
668.4196, 1257.409
668.9017, 1257.458
669.3839, 1259.422
669.8660, 1263.552
670.3481, 1267.618
670.8302, 1268.650
671.3123, 1267.678
671.7944, 1266.634
672.2766, 1264.591
672.7587, 1265.138
673.2408, 1274.479
673.7229, 1287.641
674.2050, 1295.088
674.6871, 1287.791
675.1693, 1281.348
675.6514, 1280.559
676.1335, 1284.300
676.6156, 1286.739
677.0977, 1287.302
677.5798, 1287.870
678.0620, 1289.472
678.5441, 1291.922
679.0262, 1293.781
679.5083, 1295.152
679.9904, 1294.413
680.4725, 1287.399
680.9547, 1278.259
681.4368, 1274.283
681.9189, 1276.531
682.4010, 1282.166
682.8831, 1293.682
683.3652, 1305.469
683.8474, 1311.442
684.3295, 1305.093
684.8116, 1301.081
685.2937, 1302.864
685.7758, 1307.527
686.2579, 1311.558
686.7401, 1315.002
687.2222, 1317.730
687.7043, 1319.874
688.1864, 1321.104
688.6685, 1320.600
689.1506, 1318.387
689.6328, 1314.904
690.1149, 1310.146
690.5970, 1304.322
691.0791, 1295.306
691.5612, 1284.492
692.0433, 1279.128
692.5255, 1287.297
693.0076, 1298.641
693.4897, 1307.303
693.9718, 1312.738
694.4539, 1316.066
694.9360, 1315.872
695.4182, 1315.080
695.9003, 1315.056
696.3824, 1315.714
696.8645, 1318.093
697.3466, 1323.177
697.8287, 1327.398
698.3109, 1321.310
698.7930, 1309.086
699.2751, 1317.716
699.7572, 1358.070
700.2393, 1396.860
700.7214, 1395.332
701.2036, 1369.151
701.6857, 1344.323
702.1678, 1328.441
702.6499, 1317.419
703.1320, 1310.859
703.6141, 1308.049
704.0963, 1307.216
704.5784, 1307.988
705.0605, 1311.177
705.5426, 1319.335
706.0247, 1329.881
706.5068, 1329.396
706.9890, 1316.465
707.4711, 1304.371
707.9532, 1299.036
708.4353, 1299.822
708.9174, 1309.336
709.3995, 1326.258
709.8817, 1337.096
710.3638, 1327.237
710.8459, 1310.558
711.3280, 1297.822
711.8101, 1289.867
712.2922, 1288.243
712.7744, 1301.935
713.2565, 1315.734
713.7386, 1318.563
714.2207, 1302.417
714.7028, 1296.790
715.1849, 1304.966
715.6671, 1317.874
716.1492, 1326.890
716.6313, 1331.944
717.1134, 1331.592
717.5955, 1323.590
718.0776, 1316.565
718.5598, 1324.460
719.0419, 1340.636
719.5240, 1352.200
720.0061, 1353.087
720.4882, 1350.267
720.9703, 1343.350
721.4525, 1335.294
721.9346, 1332.858
722.4167, 1343.352
722.8988, 1351.085
723.3809, 1352.434
723.8630, 1348.932
724.3452, 1346.284
724.8273, 1344.395
725.3094, 1344.182
725.7915, 1348.373
726.2736, 1353.740
726.7557, 1346.979
727.2379, 1330.534
727.7200, 1323.649
728.2021, 1351.795
728.6842, 1385.496
729.1663, 1398.800
729.6484, 1388.885
730.1306, 1380.132
730.6127, 1381.825
731.0948, 1384.592
731.5769, 1382.695
732.0590, 1373.977
732.5411, 1369.803
733.0233, 1371.123
733.5054, 1374.861
733.9875, 1377.992
734.4696, 1380.866
734.9517, 1387.061
735.4338, 1397.826
735.9160, 1406.928
736.3981, 1408.373
736.8802, 1403.956
737.3623, 1395.035
737.8444, 1375.368
738.3266, 1364.137
738.8087, 1377.142
739.2908, 1400.043
739.7729, 1411.360
740.2551, 1401.812
740.7372, 1396.474
741.2193, 1399.594
741.7014, 1407.248
742.1835, 1410.409
742.6656, 1408.995
743.1478, 1410.740
743.6299, 1420.620
744.1120, 1431.896
744.5941, 1431.014
745.0762, 1422.089
745.5583, 1417.879
746.0405, 1429.186
746.5226, 1442.796
747.0047, 1451.976
747.4868, 1457.126
747.9689, 1461.406
748.4510, 1465.953
748.9332, 1468.457
749.4153, 1465.963
749.8974, 1459.646
750.3795, 1465.091
750.8616, 1483.771
751.3438, 1502.476
751.8259, 1513.280
752.3080, 1517.836
752.7901, 1519.123
753.2722, 1517.386
753.7543, 1515.781
754.2365, 1512.314
754.7186, 1512.668
755.2007, 1523.826
755.6828, 1549.393
756.1649, 1568.777
756.6470, 1574.539
757.1292, 1576.923
757.6113, 1582.346
758.0934, 1592.454
758.5755, 1597.007
759.0576, 1594.249
759.5397, 1591.946
760.0219, 1600.099
760.5040, 1615.474
760.9861, 1627.500
761.4682, 1634.082
761.9503, 1639.150
762.4324, 1643.033
762.9146, 1648.405
763.3967, 1659.001
763.8788, 1683.671
764.3609, 1700.545
764.8430, 1699.157
765.3251, 1691.992
765.8073, 1694.211
766.2894, 1709.796
766.7715, 1717.725
767.2536, 1711.929
767.7357, 1703.214
768.2178, 1712.001
768.7000, 1734.422
769.1821, 1753.874
769.6642, 1763.410
770.1463, 1770.879
770.6284, 1782.863
771.1105, 1797.678
771.5927, 1812.067
772.0748, 1826.673
772.5569, 1838.772
773.0390, 1845.603
773.5211, 1849.870
774.0032, 1858.264
774.4854, 1871.260
774.9675, 1886.553
775.4496, 1903.226
775.9317, 1921.955
776.4138, 1945.182
776.8959, 1972.219
777.3781, 2000.422
777.8602, 2031.576
778.3423, 2060.668
778.8244, 2082.667
779.3065, 2098.901
779.7886, 2115.133
780.2708, 2129.281
780.7529, 2147.909
781.2350, 2173.359
781.7171, 2205.270
782.1992, 2240.166
782.6813, 2277.264
783.1635, 2319.271
783.6456, 2370.733
784.1277, 2427.479
784.6098, 2473.700
785.0919, 2510.960
785.5740, 2556.107
786.0562, 2626.986
786.5383, 2706.028
787.0204, 2778.045
787.5025, 2842.657
787.9846, 2907.777
788.4667, 2975.833
788.9489, 3043.988
789.4310, 3110.023
789.9131, 3172.730
790.3952, 3246.935
790.8773, 3333.428
791.3594, 3424.962
791.8416, 3516.582
792.3237, 3608.203
792.8058, 3696.124
793.2879, 3781.129
793.7700, 3875.458
794.2521, 3996.452
794.7343, 4124.792
795.2164, 4243.947
795.6985, 4353.010
796.1806, 4453.314
796.6627, 4533.847
797.1448, 4619.588
797.6270, 4730.016
798.1091, 4870.383
798.5912, 4989.105
799.0733, 5083.202
799.5554, 5175.978
800.0375, 5291.818
800.5197, 5420.917
801.0018, 5547.941
801.4839, 5671.029
801.9660, 5783.785
802.4481, 5869.054
802.9302, 5950.504
803.4124, 6050.410
803.8945, 6190.464
804.3766, 6304.848
804.8587, 6379.686
805.3408, 6447.039
805.8229, 6541.709
806.3051, 6663.388
806.7872, 6761.741
807.2693, 6831.187
807.7514, 6886.782
808.2335, 6934.161
808.7156, 6982.321
809.1978, 7047.183
809.6799, 7137.462
810.1620, 7226.186
810.6441, 7307.599
811.1262, 7379.137
811.6083, 7436.590
812.0905, 7471.553
812.5726, 7514.468
813.0547, 7569.157
813.5368, 7624.748
814.0189, 7667.060
814.5010, 7698.127
814.9832, 7729.525
815.4653, 7762.679
815.9474, 7797.431
816.4295, 7835.972
816.9116, 7875.361
817.3937, 7913.435
817.8759, 7957.592
818.3580, 7983.798
818.8401, 7966.389
819.3222, 7942.251
819.8043, 7948.341
820.2864, 7992.962
820.7686, 8031.017
821.2507, 8059.453
821.7328, 8076.974
822.2149, 8073.926
822.6970, 8058.783
823.1791, 8055.790
823.6613, 8076.263
824.1434, 8089.817
824.6255, 8064.633
825.1076, 8026.729
825.5897, 8005.438
826.0718, 8029.842
826.5540, 8034.766
827.0361, 8007.547
827.5182, 7975.210
828.0003, 7975.257
828.4824, 8007.150
828.9645, 8023.010
829.4467, 8013.771
829.9288, 7995.451
830.4109, 7982.405
830.8930, 7973.638
831.3751, 7968.425
831.8572, 7970.262
832.3394, 7967.271
832.8215, 7947.132
833.3036, 7924.551
833.7857, 7915.387
834.2678, 7922.693
834.7499, 7933.867
835.2321, 7946.393
835.7142, 7966.759
836.1963, 8013.118
836.6784, 8075.675
837.1605, 8115.753
837.6426, 8123.334
838.1248, 8118.563
838.6069, 8101.756
839.0890, 8088.377
839.5711, 8096.546
840.0532, 8142.248
840.5353, 8187.629
841.0175, 8228.576
841.4996, 8269.938
841.9817, 8320.156
842.4638, 8380.510
842.9459, 8419.721
843.4280, 8431.619
843.9102, 8439.070
844.3923, 8471.746
844.8744, 8515.434
845.3565, 8545.615
845.8386, 8554.077
846.3207, 8562.423
846.8029, 8595.476
847.2850, 8621.385
847.7671, 8608.884
848.2492, 8530.942
848.7313, 8490.938
849.2134, 8498.991
849.6956, 8519.949
850.1777, 8522.462
850.6598, 8508.839
851.1419, 8487.107
851.6240, 8458.165
852.1061, 8420.357
852.5883, 8369.049
853.0704, 8310.052
853.5525, 8246.354
854.0346, 8175.256
854.5167, 8112.849
854.9988, 8070.087
855.4810, 8023.040
855.9631, 7954.486
856.4452, 7863.892
856.9273, 7758.943
857.4094, 7639.200
857.8915, 7519.119
858.3737, 7410.534
858.8558, 7311.306
859.3379, 7224.539
859.8200, 7152.978
860.3021, 7066.687
860.7842, 6932.966
861.2664, 6802.272
861.7485, 6707.034
862.2306, 6650.974
862.7127, 6584.740
863.1948, 6506.226
863.6769, 6424.487
864.1591, 6339.660
864.6412, 6257.230
865.1233, 6191.188
865.6054, 6140.135
866.0875, 6087.991
866.5696, 6018.249
867.0518, 5949.176
867.5339, 5897.525
868.0160, 5864.673
868.4981, 5809.958
868.9802, 5720.647
869.4623, 5635.873
869.9445, 5576.862
870.4266, 5537.810
870.9087, 5493.485
871.3908, 5443.590
871.8729, 5391.335
872.3550, 5340.475
872.8372, 5285.874
873.3193, 5216.512
873.8014, 5136.549
874.2835, 5072.507
874.7656, 5042.968
875.2477, 5016.120
875.7299, 4989.679
876.2120, 4958.941
876.6941, 4896.344
877.1762, 4802.237
877.6583, 4719.974
878.1404, 4675.348
878.6226, 4646.289
879.1047, 4606.670
879.5869, 4559.216
880.0690, 4510.004
880.5511, 4457.772
881.0332, 4408.359
881.5153, 4366.575
881.9974, 4327.794
882.4796, 4276.655
882.9617, 4206.623
883.4438, 4165.894
883.9259, 4177.399
884.4080, 4200.424
884.8901, 4171.747
885.3723, 4103.908
885.8544, 4024.163
886.3365, 3929.861
886.8186, 3846.335
887.3007, 3786.928
887.7828, 3745.338
888.2650, 3714.164
888.7471, 3702.264
889.2292, 3675.903
889.7113, 3629.451
890.1934, 3574.228
890.6755, 3519.327
891.1577, 3467.373
891.6398, 3427.382
892.1219, 3404.102
892.6040, 3378.788
893.0861, 3335.317
893.5682, 3285.923
894.0504, 3241.760
894.5325, 3204.820
895.0146, 3173.546
895.4967, 3150.614
895.9788, 3128.496
896.4609, 3102.527
896.9431, 3072.409
897.4252, 3033.317
897.9073, 2984.851
898.3894, 2941.998
898.8715, 2918.688
899.3536, 2903.102
899.8358, 2886.400
900.3179, 2868.026
900.8000, 2845.341
901.2821, 2819.621
901.7642, 2787.741
902.2463, 2743.421
902.7285, 2690.703
903.2106, 2654.988
903.6927, 2636.193
904.1748, 2626.911
904.6569, 2629.673
905.1390, 2634.309
905.6212, 2632.551
906.1033, 2624.070
906.5854, 2608.325
907.0675, 2574.653
907.5496, 2546.479
908.0317, 2530.890
908.5139, 2523.988
908.9960, 2512.605
909.4781, 2496.760
909.9602, 2486.621
910.4423, 2489.385
910.9244, 2493.814
911.4066, 2487.938
911.8887, 2473.624
912.3708, 2454.134
912.8529, 2422.216
913.3350, 2395.873
913.8171, 2376.667
914.2993, 2365.658
914.7814, 2369.340
915.2635, 2389.937
915.7456, 2393.714
916.2277, 2373.538
916.7098, 2345.939
917.1920, 2326.048
917.6741, 2312.901
918.1562, 2307.518
918.6383, 2314.483
919.1204, 2313.269
919.6025, 2290.616
920.0847, 2263.246
920.5668, 2241.081
921.0489, 2223.868
921.5310, 2215.107
922.0131, 2215.783
922.4952, 2216.908
922.9774, 2213.140
923.4595, 2204.271
923.9416, 2188.223
924.4237, 2165.453
924.9058, 2143.063
925.3879, 2121.106
925.8701, 2103.020
926.3522, 2091.203
926.8343, 2084.565
927.3164, 2075.103
927.7985, 2062.808
928.2806, 2047.237
928.7628, 2026.293
929.2449, 2003.976
929.7270, 1987.215
930.2091, 1974.198
930.6912, 1959.525
931.1733, 1941.911
931.6555, 1921.332
932.1376, 1891.302
932.6197, 1861.224
933.1018, 1850.230
933.5839, 1861.897
934.0660, 1864.657
934.5482, 1851.724
935.0303, 1831.576
935.5124, 1812.171
935.9945, 1793.856
936.4766, 1777.781
936.9587, 1765.099
937.4409, 1751.397
937.9230, 1734.126
938.4051, 1715.934
938.8872, 1698.881
939.3693, 1683.051
939.8514, 1666.683
940.3336, 1649.725
940.8157, 1633.680
941.2978, 1620.211
941.7799, 1608.124
942.2620, 1596.744
942.7441, 1585.786
943.2263, 1571.241
943.7084, 1544.459
944.1905, 1521.836
944.6726, 1511.256
945.1547, 1510.568
945.6368, 1506.733
946.1190, 1499.641
946.6011, 1490.677
947.0832, 1480.621
947.5653, 1468.823
948.0474, 1453.141
948.5295, 1434.977
949.0117, 1417.596
949.4938, 1400.725
949.9759, 1386.690
950.4580, 1376.391
950.9401, 1368.515
951.4222, 1362.199
951.9044, 1357.502
952.3865, 1348.834
952.8686, 1334.322
953.3507, 1320.446
953.8328, 1314.791
954.3149, 1313.565
954.7971, 1312.280
955.2792, 1310.349
955.7613, 1307.433
956.2434, 1302.472
956.7255, 1297.805
957.2076, 1296.060
957.6898, 1296.972
958.1719, 1290.255
958.6540, 1275.976
959.1361, 1262.399
959.6182, 1256.440
960.1003, 1252.677
960.5825, 1246.411
961.0646, 1237.754
961.5467, 1228.361
962.0288, 1215.789
962.5109, 1207.085
962.9930, 1205.575
963.4752, 1207.725
963.9573, 1204.851
964.4394, 1197.563
964.9215, 1189.264
965.4036, 1180.371
965.8857, 1172.210
966.3679, 1166.673
966.8500, 1162.161
967.3321, 1156.450
967.8142, 1148.013
968.2963, 1140.424
968.7784, 1133.137
969.2606, 1127.954
969.7427, 1129.000
970.2248, 1133.816
970.7069, 1132.380
971.1890, 1124.027
971.6711, 1116.329
972.1533, 1112.137
972.6354, 1112.109
973.1175, 1119.209
973.5996, 1133.036
974.0817, 1141.222
974.5638, 1143.926
975.0460, 1139.747
975.5281, 1123.848
976.0102, 1104.590
976.4923, 1100.785
976.9744, 1108.695
977.4565, 1117.347
977.9387, 1122.370
978.4208, 1126.830
978.9029, 1126.510
979.3850, 1128.895
979.8671, 1146.634
980.3492, 1183.515
980.8314, 1212.541
981.3135, 1229.941
981.7956, 1243.288
982.2777, 1254.019
982.7598, 1269.408
983.2419, 1302.984
983.7241, 1359.147
984.2062, 1412.455
984.6883, 1443.832
985.1704, 1482.913
985.6525, 1545.012
986.1346, 1628.012
986.6168, 1709.020
987.0989, 1788.255
987.5810, 1872.571
988.0631, 1960.403
988.5452, 2060.154
989.0273, 2182.923
989.5095, 2323.065
989.9916, 2465.026
990.4737, 2599.958
990.9558, 2747.326
991.4379, 2910.701
991.9200, 3083.204
992.4022, 3258.109
992.8843, 3432.005
993.3664, 3597.290
993.8485, 3750.826
994.3306, 3896.314
994.8127, 4028.626
995.2949, 4159.284
995.7770, 4304.603
996.2591, 4472.971
996.7412, 4596.031
997.2233, 4669.221
997.7054, 4710.010
998.1876, 4725.118
998.6697, 4716.371
999.1518, 4689.510
999.6339, 4642.958
1000.116, 4570.868
1000.598, 4458.344
1001.080, 4333.076
1001.562, 4205.394
1002.044, 4070.147
1002.527, 3910.719
1003.009, 3726.721
1003.491, 3540.478
1003.973, 3358.306
1004.455, 3179.584
1004.937, 3006.871
1005.419, 2838.917
1005.901, 2674.913
1006.384, 2512.255
1006.866, 2366.717
1007.348, 2242.631
1007.830, 2131.643
1008.312, 2031.835
1008.794, 1941.818
1009.276, 1848.031
1009.758, 1752.267
1010.240, 1666.115
1010.723, 1599.835
1011.205, 1541.857
1011.687, 1480.068
1012.169, 1421.967
1012.651, 1388.971
1013.133, 1394.397
1013.615, 1383.728
1014.097, 1345.271
1014.580, 1297.684
1015.062, 1263.581
1015.544, 1240.499
1016.026, 1224.374
1016.508, 1215.085
1016.990, 1209.867
1017.472, 1213.838
1017.954, 1215.602
1018.436, 1207.264
1018.919, 1189.573
1019.401, 1179.320
1019.883, 1176.532
1020.365, 1170.457
1020.847, 1147.532
1021.329, 1124.480
1021.811, 1122.241
1022.293, 1132.728
1022.776, 1135.693
1023.258, 1118.879
1023.740, 1108.352
1024.222, 1107.445
1024.704, 1112.314
1025.186, 1120.313
1025.668, 1129.718
1026.150, 1133.346
1026.632, 1129.792
1027.115, 1126.670
1027.597, 1128.588
1028.079, 1132.563
1028.561, 1137.578
1029.043, 1143.405
1029.525, 1145.182
1030.007, 1142.448
1030.489, 1139.328
1030.972, 1138.319
1031.454, 1137.271
1031.936, 1131.115
1032.418, 1122.825
1032.900, 1118.845
1033.382, 1123.390
1033.864, 1129.665
1034.346, 1137.987
1034.828, 1146.207
1035.311, 1150.738
1035.793, 1152.533
1036.275, 1158.871
1036.757, 1170.421
1037.239, 1179.849
1037.721, 1176.644
1038.203, 1174.046
1038.685, 1184.624
1039.167, 1206.461
1039.650, 1217.078
1040.132, 1213.485
1040.614, 1211.186
1041.096, 1215.081
1041.578, 1223.452
1042.060, 1235.935
1042.542, 1250.244
1043.024, 1262.043
1043.507, 1267.664
1043.989, 1275.361
1044.471, 1288.911
1044.953, 1302.467
1045.435, 1310.727
1045.917, 1314.259
1046.399, 1322.601
1046.881, 1335.518
1047.364, 1345.367
1047.846, 1340.510
1048.328, 1336.796
1048.810, 1346.255
1049.292, 1366.733
1049.774, 1386.160
1050.256, 1404.494
1050.738, 1421.489
1051.220, 1436.958
1051.703, 1451.410
1052.185, 1464.170
1052.667, 1476.465
1053.149, 1490.689
1053.631, 1507.997
1054.113, 1523.874
1054.595, 1535.188
1055.077, 1547.095
1055.559, 1563.081
1056.042, 1582.036
1056.524, 1594.873
1057.006, 1602.884
1057.488, 1616.638
1057.970, 1647.844
1058.452, 1680.463
1058.934, 1704.204
1059.416, 1722.823
1059.899, 1743.550
1060.381, 1767.793
1060.863, 1790.308
1061.345, 1810.846
1061.827, 1829.115
1062.309, 1843.013
1062.791, 1855.703
1063.273, 1870.770
1063.755, 1888.770
1064.238, 1911.657
1064.720, 1945.653
1065.202, 1977.543
1065.684, 2002.302
1066.166, 2022.889
1066.648, 2048.212
1067.130, 2076.643
1067.612, 2102.858
1068.094, 2125.695
1068.577, 2144.566
1069.059, 2150.581
1069.541, 2158.650
1070.023, 2185.067
1070.505, 2234.950
1070.987, 2273.446
1071.469, 2300.000
1071.951, 2325.267
1072.434, 2358.339
1072.916, 2393.309
1073.398, 2425.253
1073.880, 2453.679
1074.362, 2476.863
1074.844, 2487.731
1075.326, 2506.189
1075.808, 2537.957
1076.291, 2572.742
1076.773, 2596.814
1077.255, 2612.287
1077.737, 2621.349
1078.219, 2623.481
1078.701, 2634.241
1079.183, 2667.818
1079.665, 2706.101
1080.147, 2743.226
1080.630, 2777.311
1081.112, 2795.773
1081.594, 2799.104
1082.076, 2802.326
1082.558, 2810.859
1083.040, 2821.844
1083.522, 2835.393
1084.004, 2848.650
1084.486, 2857.587
1084.969, 2861.476
1085.451, 2862.150
1085.933, 2858.858
1086.415, 2855.178
1086.897, 2851.664
1087.379, 2850.685
1087.861, 2859.839
1088.343, 2876.148
1088.826, 2886.866
1089.308, 2885.878
1089.790, 2880.031
1090.272, 2869.093
1090.754, 2855.974
1091.236, 2843.088
1091.718, 2831.669
1092.200, 2829.177
1092.682, 2837.407
1093.165, 2844.835
1093.647, 2842.404
1094.129, 2838.579
1094.611, 2840.478
1095.093, 2846.435
1095.575, 2844.163
1096.057, 2833.601
1096.539, 2814.788
1097.022, 2783.145
1097.504, 2753.266
1097.986, 2744.384
1098.468, 2745.024
1098.950, 2739.501
1099.432, 2723.148
1099.914, 2705.019
1100.396, 2683.017
1100.879, 2667.001
1101.361, 2672.491
1101.843, 2685.168
1102.325, 2672.692
1102.807, 2641.576
1103.289, 2617.356
1103.771, 2618.574
1104.253, 2615.076
1104.735, 2601.211
1105.218, 2581.001
1105.700, 2559.296
1106.182, 2536.096
1106.664, 2511.779
1107.146, 2486.054
1107.628, 2461.907
1108.110, 2436.103
1108.592, 2417.393
1109.074, 2417.417
1109.557, 2428.282
1110.039, 2416.531
1110.521, 2381.772
1111.003, 2346.276
1111.485, 2315.580
1111.967, 2290.217
1112.449, 2281.982
1112.931, 2273.443
1113.414, 2240.344
1113.896, 2171.605
1114.378, 2129.302
1114.860, 2118.344
1115.342, 2112.558
1115.824, 2098.867
1116.306, 2080.039
1116.788, 2059.445
1117.271, 2037.386
1117.753, 2014.173
1118.235, 1990.075
1118.717, 1964.479
1119.199, 1936.551
1119.681, 1908.433
1120.163, 1882.931
1120.645, 1858.845
1121.127, 1830.688
1121.609, 1799.034
1122.092, 1773.011
1122.574, 1761.145
1123.056, 1751.507
1123.538, 1740.710
1124.020, 1729.023
1124.502, 1717.728
1124.984, 1706.409
1125.466, 1691.121
1125.949, 1671.210
1126.431, 1649.253
1126.913, 1625.691
1127.395, 1601.943
1127.877, 1575.038
1128.359, 1547.151
1128.841, 1542.088
1129.323, 1561.409
1129.806, 1575.862
1130.288, 1575.269
1130.770, 1564.663
1131.252, 1540.485
1131.734, 1513.388
1132.216, 1498.604
1132.698, 1501.622
1133.180, 1502.556
1133.662, 1501.521
1134.145, 1497.829
1134.627, 1487.467
1135.109, 1476.503
1135.591, 1475.577
1136.073, 1481.843
1136.555, 1488.121
1137.037, 1492.176
1137.519, 1496.861
1138.001, 1503.309
1138.484, 1508.345
1138.966, 1509.821
1139.448, 1506.966
1139.930, 1495.831
1140.412, 1477.127
1140.894, 1459.900
1141.376, 1442.157
1141.858, 1434.147
1142.341, 1440.524
1142.823, 1455.017
1143.305, 1468.598
1143.787, 1480.519
1144.269, 1488.086
1144.751, 1490.970
1145.233, 1488.091
1145.715, 1471.958
1146.198, 1456.860
1146.680, 1451.616
1147.162, 1453.647
1147.644, 1450.566
1148.126, 1442.797
1148.608, 1435.787
1149.090, 1429.690
1149.572, 1428.780
1150.054, 1449.489
1150.536, 1467.316
1151.019, 1453.357
1151.501, 1403.498
1151.983, 1383.044
1152.465, 1392.979
1152.947, 1405.073
1153.429, 1405.829
1153.911, 1399.978
1154.393, 1387.935
1154.876, 1373.645
1155.358, 1364.979
1155.840, 1367.396
1156.322, 1358.715
1156.804, 1336.489
1157.286, 1314.397
1157.768, 1305.585
1158.250, 1301.756
1158.733, 1292.547
1159.215, 1279.143
1159.697, 1266.797
1160.179, 1255.697
1160.661, 1247.183
1161.143, 1241.915
1161.625, 1237.802
1162.107, 1234.010
1162.589, 1228.871
1163.072, 1218.712
1163.554, 1203.591
1164.036, 1189.222
1164.518, 1177.900
1165.000, 1166.295
1165.482, 1154.063
1165.964, 1140.425
1166.446, 1121.727
1166.928, 1101.254
1167.411, 1086.047
1167.893, 1077.546
1168.375, 1073.348
1168.857, 1079.108
1169.339, 1080.598
1169.821, 1070.926
1170.303, 1054.242
1170.785, 1042.977
1171.268, 1035.092
1171.750, 1022.425
1172.232, 998.2804
1172.714, 980.2750
1173.196, 981.8715
1173.678, 985.9891
1174.160, 983.2882
1174.642, 974.3497
1175.125, 961.5049
1175.607, 945.5082
1176.089, 931.1299
1176.571, 920.3342
1177.053, 911.7814
1177.535, 906.0583
1178.017, 901.4876
1178.499, 897.3315
1178.981, 893.5099
1179.464, 884.6908
1179.946, 871.2036
1180.428, 859.8278
1180.910, 858.5589
1181.392, 856.4642
1181.874, 846.9346
1182.356, 833.0366
1182.838, 818.7516
1183.320, 803.8740
1183.803, 792.0577
1184.285, 783.6236
1184.767, 775.4193
1185.249, 763.4567
1185.731, 752.2902
1186.213, 746.7892
1186.695, 744.4507
1187.177, 738.0421
1187.660, 727.3006
1188.142, 715.6214
1188.624, 703.1421
1189.106, 693.8956
1189.588, 696.2502
1190.070, 699.4202
1190.552, 693.0456
1191.034, 678.4550
1191.516, 668.0724
1191.999, 662.3422
1192.481, 655.8262
1192.963, 646.7245
1193.445, 637.6257
1193.927, 632.4664
1194.409, 627.7017
1194.891, 617.9319
1195.373, 602.6731
1195.855, 597.2881
1196.338, 603.0818
1196.820, 607.1032
1197.302, 603.7218
1197.784, 597.7258
1198.266, 594.1046
1198.748, 591.1006
1199.230, 586.4075
1199.712, 579.7359
1200.195, 572.5552
1200.677, 564.9547
1201.159, 555.8870
1201.641, 541.5913
1202.123, 529.6846
1202.605, 532.7197
1203.087, 542.8650
1203.569, 547.0645
1204.052, 542.1511
1204.534, 536.5347
1205.016, 529.8838
1205.498, 524.2603
1205.980, 521.4050
1206.462, 520.0027
1206.944, 519.0285
1207.426, 518.2199
1207.908, 516.8453
1208.391, 513.7653
1208.873, 513.9171
1209.355, 518.3818
1209.837, 521.3531
1210.319, 516.8069
1210.801, 508.9411
1211.283, 500.4806
1211.765, 492.7640
1212.247, 490.7108
1212.730, 497.1352
1213.212, 500.1689
1213.694, 498.0356
1214.176, 495.0645
1214.658, 497.1500
1215.140, 499.4755
1215.622, 494.0912
1216.104, 482.9395
1216.587, 480.2177
1217.069, 490.9063
1217.551, 494.4749
1218.033, 486.4478
1218.515, 475.5881
1218.997, 470.8727
1219.479, 469.2416
1219.961, 466.8098
1220.443, 463.6579
1220.926, 464.5964
1221.408, 471.1298
1221.890, 476.0635
1222.372, 477.5179
1222.854, 477.5682
1223.336, 478.2802
1223.818, 479.2469
1224.300, 480.1348
1224.782, 480.8823
1225.265, 481.1052
1225.747, 480.9586
1226.229, 479.4221
1226.711, 475.8593
1227.193, 471.6749
1227.675, 467.7803
1228.157, 464.6928
1228.639, 463.4570
1229.122, 464.3879
1229.604, 464.2566
1230.086, 463.0403
1230.568, 460.6080
1231.050, 455.7364
1231.532, 452.1057
1232.014, 457.6899
1232.496, 464.9025
1232.979, 462.6867
1233.461, 448.6827
1233.943, 442.3249
1234.425, 444.3801
1234.907, 446.7728
1235.389, 444.8093
1235.871, 443.0412
1236.353, 447.8025
1236.835, 454.5164
1237.318, 457.5018
1237.800, 456.9201
1238.282, 448.8939
1238.764, 432.9220
1239.246, 421.1644
1239.728, 423.4771
1240.210, 429.0970
1240.692, 428.6266
1241.175, 426.2769
1241.657, 428.7229
1242.139, 438.0056
1242.621, 438.2903
1243.103, 429.4936
1243.585, 419.9643
1244.067, 413.1975
1244.549, 409.0515
1245.031, 406.6726
1245.514, 407.4958
1245.996, 414.4986
1246.478, 428.9229
1246.960, 433.5411
1247.442, 428.5286
1247.924, 422.9797
1248.406, 425.1923
1248.888, 425.8335
1249.370, 416.2114
1249.853, 404.0181
1250.335, 400.0428
1250.817, 403.9793
1251.299, 405.1024
1251.781, 403.0860
1252.263, 400.3322
1252.745, 398.8012
1253.227, 396.2025
1253.710, 388.8568
1254.192, 382.0458
1254.674, 384.6927
1255.156, 394.8151
1255.638, 396.9560
1256.120, 390.9079
1256.602, 385.7258
1257.084, 388.3273
1257.567, 390.0572
1258.049, 387.4987
1258.531, 383.5687
1259.013, 382.2895
1259.495, 383.0900
1259.977, 384.2856
1260.459, 385.6309
1260.941, 386.1889
1261.423, 385.1711
1261.906, 383.7216
1262.388, 382.0610
1262.870, 380.1823
1263.352, 378.4208
1263.834, 376.3557
1264.316, 371.8950
1264.798, 365.3398
1265.280, 362.1608
1265.762, 367.6635
1266.245, 370.6195
1266.727, 368.6270
1267.209, 364.3723
1267.691, 360.8795
1268.173, 357.9482
1268.655, 354.5533
1269.137, 350.8064
1269.619, 350.9756
1270.102, 358.4378
1270.584, 361.0342
1271.066, 355.4350
1271.548, 346.9366
1272.030, 340.0435
1272.512, 335.6347
1272.994, 335.9789
1273.476, 340.8470
1273.958, 343.8195
1274.441, 344.4980
1274.923, 343.9949
1275.405, 342.1655
1275.887, 340.9899
1276.369, 343.1173
1276.851, 346.4357
1277.333, 350.3324
1277.815, 353.8139
1278.297, 350.1826
1278.780, 338.8722
1279.262, 333.7613
1279.744, 338.7530
1280.226, 346.0623
1280.708, 352.8147
1281.190, 356.2381
1281.672, 351.9823
1282.154, 343.3269
1282.637, 343.1144
1283.119, 350.2297
1283.601, 354.0406
1284.083, 352.1365
1284.565, 348.1738
1285.047, 342.1396
1285.529, 337.0710
1286.011, 334.0782
1286.494, 333.2226
1286.976, 336.5701
1287.458, 342.2610
1287.940, 342.4536
1288.422, 334.2976
1288.904, 331.4475
1289.386, 346.9878
1289.868, 357.4751
1290.350, 353.6218
1290.833, 342.6910
1291.315, 336.7760
1291.797, 335.4278
1292.279, 339.5211
1292.761, 350.4999
1293.243, 354.4719
1293.725, 347.3636
1294.207, 340.7654
1294.689, 338.3774
1295.172, 338.3962
1295.654, 339.8809
1296.136, 341.2131
1296.618, 339.9983
1297.100, 335.5942
1297.582, 330.5938
1298.064, 324.0303
1298.546, 323.8188
1299.029, 334.6337
1299.511, 345.4954
1299.993, 342.3375
1300.475, 335.3918
1300.957, 336.4287
1301.439, 343.7658
1301.921, 342.1850
1302.403, 332.0855
1302.885, 325.7369
1303.368, 327.0352
1303.850, 330.3045
1304.332, 333.3550
1304.814, 335.2163
1305.296, 335.3716
1305.778, 334.0787
1306.260, 330.5748
1306.742, 326.2716
1307.224, 328.0887
1307.707, 339.4693
1308.189, 346.8873
1308.671, 342.1869
1309.153, 335.5900
1309.635, 329.9811
1310.117, 325.5146
1310.599, 322.6251
1311.081, 321.2029
1311.564, 321.6634
1312.046, 324.5493
1312.528, 324.9241
1313.010, 321.1505
1313.492, 318.4379
1313.974, 318.1927
1314.456, 320.6865
1314.938, 330.3082
##END=



