##NAMES=Beudantite
##RRUFFID=R070502
##IDEAL CHEMISTRY=Pb^2+^Fe^3+^_3_(As^5+^O_4_)(S^6+^O_4_)(OH)_6_
##LOCALITY=Dulcinea, Copiap√≥ Province, Atacama Region, Chile
##OWNER=RRUFF
##SOURCE=Bob Jenkins
##DESCRIPTION=Thin hexagonal yellow plates
##STATUS=The identification of this mineral has been confirmed only by single crystal X-ray diffraction.
##URL=rruff.info/R070502
129.1132, 2181.821
129.5953, 2323.408
130.0775, 2484.448
130.5596, 2647.956
131.0417, 2835.121
131.5238, 3013.316
132.0059, 3132.109
132.4880, 3179.656
132.9702, 3200.310
133.4523, 3225.968
133.9344, 3253.077
134.4165, 3270.738
134.8986, 3274.595
135.3807, 3266.285
135.8629, 3247.714
136.3450, 3214.386
136.8271, 3179.647
137.3092, 3148.064
137.7913, 3121.285
138.2734, 3105.710
138.7556, 3109.050
139.2377, 3127.558
139.7198, 3145.697
140.2019, 3164.742
140.6840, 3180.785
141.1661, 3187.779
141.6483, 3189.609
142.1304, 3196.919
142.6125, 3217.133
143.0946, 3249.599
143.5767, 3287.644
144.0588, 3329.879
144.5410, 3380.193
145.0231, 3444.571
145.5052, 3518.840
145.9873, 3592.059
146.4694, 3654.110
146.9515, 3704.241
147.4337, 3756.732
147.9158, 3828.156
148.3979, 3886.114
148.8800, 3919.004
149.3621, 3927.388
149.8442, 3918.571
150.3264, 3901.934
150.8085, 3880.791
151.2906, 3825.038
151.7727, 3700.479
152.2548, 3569.503
152.7369, 3445.327
153.2191, 3334.562
153.7012, 3244.863
154.1833, 3189.058
154.6654, 3176.205
155.1475, 3149.221
155.6296, 3091.758
156.1118, 3035.234
156.5939, 2988.395
157.0760, 2954.327
157.5581, 2936.116
158.0402, 2938.501
158.5223, 2966.564
159.0045, 2994.567
159.4866, 3029.495
159.9687, 3058.958
160.4508, 3070.631
160.9329, 3058.391
161.4150, 3033.361
161.8972, 3022.454
162.3793, 3031.655
162.8614, 3029.305
163.3435, 3013.290
163.8256, 2991.102
164.3077, 2966.470
164.7899, 2940.129
165.2720, 2911.218
165.7541, 2878.543
166.2362, 2840.522
166.7183, 2806.673
167.2004, 2780.712
167.6826, 2755.615
168.1647, 2725.377
168.6468, 2690.688
169.1289, 2658.367
169.6110, 2635.613
170.0931, 2624.781
170.5753, 2613.986
171.0574, 2603.282
171.5395, 2592.661
172.0216, 2582.685
172.5037, 2573.126
172.9858, 2562.292
173.4680, 2547.281
173.9501, 2526.160
174.4322, 2514.235
174.9143, 2517.751
175.3964, 2524.911
175.8785, 2525.319
176.3607, 2518.834
176.8428, 2515.465
177.3249, 2525.166
177.8070, 2550.151
178.2891, 2574.645
178.7712, 2598.222
179.2534, 2621.465
179.7355, 2644.182
180.2176, 2666.512
180.6997, 2689.998
181.1818, 2714.638
181.6639, 2740.923
182.1461, 2777.039
182.6282, 2832.596
183.1103, 2891.135
183.5924, 2938.596
184.0745, 2974.583
184.5566, 3010.052
185.0388, 3052.480
185.5209, 3102.851
186.0030, 3158.897
186.4851, 3225.333
186.9672, 3293.823
187.4493, 3356.097
187.9315, 3411.990
188.4136, 3469.652
188.8957, 3532.993
189.3778, 3603.621
189.8599, 3684.434
190.3420, 3792.106
190.8242, 3897.644
191.3063, 3971.942
191.7884, 4016.316
192.2705, 4062.660
192.7526, 4133.843
193.2347, 4226.504
193.7169, 4315.036
194.1990, 4395.315
194.6811, 4473.964
195.1632, 4558.069
195.6453, 4647.420
196.1274, 4731.490
196.6096, 4804.474
197.0917, 4866.845
197.5738, 4924.517
198.0559, 4973.203
198.5380, 5021.357
199.0201, 5076.771
199.5023, 5138.307
199.9844, 5198.207
200.4665, 5255.807
200.9486, 5306.544
201.4307, 5341.744
201.9128, 5351.917
202.3950, 5358.874
202.8771, 5378.746
203.3592, 5409.601
203.8413, 5437.904
204.3234, 5458.017
204.8055, 5470.760
205.2877, 5480.674
205.7698, 5490.154
206.2519, 5492.737
206.7340, 5476.128
207.2161, 5445.555
207.6982, 5430.451
208.1804, 5450.642
208.6625, 5484.067
209.1446, 5489.301
209.6267, 5456.649
210.1088, 5424.587
210.5909, 5414.498
211.0731, 5422.501
211.5552, 5437.356
212.0373, 5462.035
212.5194, 5483.035
213.0015, 5476.482
213.4836, 5436.787
213.9658, 5404.181
214.4479, 5409.946
214.9300, 5438.805
215.4121, 5446.158
215.8942, 5415.925
216.3763, 5369.245
216.8584, 5331.396
217.3406, 5301.995
217.8227, 5276.250
218.3048, 5263.080
218.7869, 5251.225
219.2690, 5214.261
219.7511, 5142.347
220.2333, 5056.146
220.7154, 4979.444
221.1975, 4910.803
221.6796, 4835.706
222.1617, 4747.943
222.6438, 4651.235
223.1260, 4549.438
223.6081, 4442.058
224.0902, 4333.225
224.5723, 4224.523
225.0544, 4116.342
225.5365, 4012.523
226.0187, 3916.817
226.5008, 3824.858
226.9829, 3729.856
227.4650, 3630.612
227.9471, 3536.849
228.4292, 3454.950
228.9114, 3385.260
229.3935, 3328.691
229.8756, 3291.398
230.3577, 3263.411
230.8398, 3243.558
231.3219, 3231.416
231.8041, 3201.764
232.2862, 3128.441
232.7683, 3024.876
233.2504, 2940.720
233.7325, 2884.358
234.2146, 2843.256
234.6968, 2813.497
235.1789, 2793.745
235.6610, 2773.622
236.1431, 2745.858
236.6252, 2715.320
237.1073, 2694.518
237.5895, 2688.784
238.0716, 2684.497
238.5537, 2675.483
239.0358, 2662.374
239.5179, 2646.673
240.0000, 2628.362
240.4822, 2608.726
240.9643, 2589.889
241.4464, 2570.338
241.9285, 2554.769
242.4106, 2549.319
242.8927, 2548.551
243.3749, 2540.241
243.8570, 2519.252
244.3391, 2494.166
244.8212, 2479.327
245.3033, 2475.762
245.7854, 2473.185
246.2676, 2469.756
246.7497, 2465.948
247.2318, 2463.506
247.7139, 2463.030
248.1960, 2460.138
248.6781, 2447.995
249.1603, 2424.540
249.6424, 2406.876
250.1245, 2399.098
250.6066, 2395.958
251.0887, 2393.398
251.5708, 2390.880
252.0530, 2389.041
252.5351, 2388.854
253.0172, 2390.437
253.4993, 2389.735
253.9814, 2390.094
254.4635, 2385.506
254.9457, 2368.145
255.4278, 2341.090
255.9099, 2317.514
256.3920, 2307.260
256.8741, 2308.510
257.3563, 2302.694
257.8384, 2282.046
258.3205, 2264.138
258.8026, 2257.578
259.2847, 2258.073
259.7668, 2255.868
260.2490, 2245.449
260.7311, 2230.611
261.2132, 2224.119
261.6953, 2244.734
262.1774, 2250.057
262.6595, 2219.338
263.1417, 2176.393
263.6238, 2152.640
264.1059, 2158.811
264.5880, 2179.478
265.0701, 2187.012
265.5522, 2174.181
266.0344, 2158.995
266.5165, 2138.643
266.9986, 2117.867
267.4807, 2099.109
267.9628, 2083.422
268.4449, 2072.658
268.9271, 2070.632
269.4092, 2083.159
269.8913, 2082.207
270.3734, 2055.104
270.8555, 2028.526
271.3376, 2018.876
271.8198, 2023.214
272.3019, 2026.702
272.7840, 2015.888
273.2661, 1990.530
273.7482, 1976.042
274.2303, 1986.349
274.7125, 1993.141
275.1946, 1987.607
275.6767, 1973.919
276.1588, 1958.838
276.6409, 1945.875
277.1230, 1935.760
277.6052, 1931.531
278.0873, 1936.832
278.5694, 1943.249
279.0515, 1952.468
279.5336, 1960.719
280.0157, 1963.326
280.4979, 1958.649
280.9800, 1950.886
281.4621, 1947.604
281.9442, 1951.096
282.4263, 1952.875
282.9084, 1949.601
283.3906, 1946.162
283.8727, 1944.802
284.3548, 1946.169
284.8369, 1950.827
285.3190, 1960.958
285.8011, 1977.278
286.2833, 1989.912
286.7654, 1995.321
287.2475, 1999.982
287.7296, 2008.299
288.2117, 2018.810
288.6938, 2026.407
289.1760, 2022.922
289.6581, 2013.480
290.1402, 2021.728
290.6223, 2056.444
291.1044, 2091.984
291.5865, 2118.741
292.0687, 2137.802
292.5508, 2149.626
293.0329, 2153.268
293.5150, 2151.132
293.9971, 2143.429
294.4792, 2128.483
294.9614, 2121.255
295.4435, 2133.094
295.9256, 2153.408
296.4077, 2170.151
296.8898, 2182.162
297.3719, 2190.477
297.8541, 2192.540
298.3362, 2190.293
298.8183, 2195.237
299.3004, 2214.828
299.7825, 2235.892
300.2646, 2241.958
300.7468, 2233.341
301.2289, 2221.769
301.7110, 2209.610
302.1931, 2197.724
302.6752, 2187.927
303.1573, 2180.614
303.6395, 2173.769
304.1216, 2165.206
304.6037, 2155.173
305.0858, 2147.211
305.5679, 2144.872
306.0500, 2142.063
306.5322, 2132.730
307.0143, 2118.070
307.4964, 2105.271
307.9785, 2099.344
308.4606, 2098.468
308.9427, 2093.513
309.4249, 2079.882
309.9070, 2068.362
310.3891, 2066.918
310.8712, 2068.365
311.3533, 2059.054
311.8354, 2033.516
312.3176, 2001.981
312.7997, 1983.637
313.2818, 1986.293
313.7639, 1989.865
314.2460, 1996.468
314.7281, 2002.536
315.2103, 2006.474
315.6924, 2007.440
316.1745, 2003.386
316.6566, 1990.748
317.1387, 1967.166
317.6208, 1953.207
318.1030, 1960.320
318.5851, 1964.725
319.0672, 1952.902
319.5493, 1932.164
320.0314, 1919.283
320.5135, 1925.814
320.9957, 1945.580
321.4778, 1951.922
321.9599, 1930.488
322.4420, 1918.125
322.9241, 1929.596
323.4063, 1947.891
323.8884, 1956.396
324.3705, 1949.909
324.8526, 1936.208
325.3347, 1925.386
325.8168, 1917.672
326.2990, 1911.678
326.7811, 1911.687
327.2632, 1909.585
327.7453, 1898.022
328.2274, 1878.645
328.7095, 1861.792
329.1917, 1859.306
329.6738, 1866.422
330.1559, 1860.875
330.6380, 1835.744
331.1201, 1811.590
331.6022, 1808.211
332.0844, 1813.514
332.5665, 1804.499
333.0486, 1763.212
333.5307, 1716.533
334.0128, 1699.240
334.4949, 1710.144
334.9771, 1715.916
335.4592, 1700.914
335.9413, 1673.649
336.4234, 1649.321
336.9055, 1626.544
337.3876, 1610.213
337.8698, 1607.110
338.3519, 1611.120
338.8340, 1610.626
339.3161, 1602.652
339.7982, 1591.826
340.2803, 1582.653
340.7624, 1575.133
341.2445, 1570.539
341.7267, 1570.899
342.2088, 1572.616
342.6909, 1574.148
343.1730, 1574.935
343.6551, 1573.173
344.1372, 1566.732
344.6194, 1557.043
345.1015, 1555.118
345.5836, 1568.552
346.0657, 1580.104
346.5478, 1587.591
347.0299, 1591.194
347.5121, 1589.539
347.9942, 1582.529
348.4763, 1574.997
348.9584, 1576.870
349.4405, 1598.862
349.9226, 1605.844
350.4048, 1584.594
350.8869, 1561.725
351.3690, 1552.286
351.8511, 1555.651
352.3332, 1562.412
352.8153, 1565.793
353.2975, 1565.911
353.7796, 1563.489
354.2617, 1556.398
354.7438, 1549.994
355.2259, 1547.688
355.7080, 1546.570
356.1902, 1542.202
356.6723, 1532.074
357.1544, 1521.046
357.6365, 1516.515
358.1186, 1518.988
358.6007, 1520.858
359.0829, 1524.181
359.5650, 1521.903
360.0471, 1502.284
360.5292, 1465.007
361.0113, 1438.354
361.4934, 1447.792
361.9756, 1475.398
362.4577, 1483.210
362.9398, 1464.722
363.4219, 1442.472
363.9040, 1433.744
364.3861, 1436.907
364.8683, 1439.611
365.3504, 1441.508
365.8325, 1442.509
366.3146, 1442.999
366.7967, 1442.589
367.2788, 1440.036
367.7610, 1434.619
368.2431, 1427.235
368.7252, 1419.700
369.2073, 1410.815
369.6894, 1403.921
370.1715, 1400.086
370.6537, 1397.782
371.1358, 1395.689
371.6179, 1393.672
372.1000, 1392.910
372.5821, 1395.608
373.0642, 1402.548
373.5464, 1399.915
374.0285, 1369.575
374.5106, 1349.052
374.9927, 1354.383
375.4748, 1374.243
375.9569, 1392.348
376.4391, 1401.456
376.9212, 1402.704
377.4033, 1396.413
377.8854, 1378.791
378.3675, 1365.944
378.8496, 1365.688
379.3318, 1367.746
379.8139, 1365.964
380.2960, 1360.048
380.7781, 1353.762
381.2602, 1348.388
381.7423, 1344.669
382.2245, 1346.896
382.7066, 1358.084
383.1887, 1367.241
383.6708, 1364.682
384.1529, 1355.172
384.6350, 1347.432
385.1172, 1341.947
385.5993, 1339.856
386.0814, 1343.491
386.5635, 1351.594
387.0456, 1359.888
387.5277, 1367.416
388.0099, 1373.172
388.4920, 1374.582
388.9741, 1369.952
389.4562, 1367.596
389.9383, 1371.009
390.4204, 1375.285
390.9026, 1374.760
391.3847, 1370.168
391.8668, 1367.960
392.3489, 1373.582
392.8310, 1386.315
393.3131, 1396.599
393.7953, 1402.431
394.2774, 1408.066
394.7595, 1413.623
395.2416, 1419.596
395.7237, 1427.514
396.2058, 1437.625
396.6880, 1446.846
397.1701, 1448.984
397.6522, 1441.014
398.1343, 1440.005
398.6164, 1448.490
399.0985, 1463.122
399.5807, 1488.557
400.0628, 1519.488
400.5449, 1541.907
401.0270, 1543.288
401.5091, 1534.587
401.9912, 1539.248
402.4734, 1559.177
402.9555, 1580.251
403.4376, 1597.828
403.9197, 1612.429
404.4018, 1624.674
404.8839, 1633.980
405.3661, 1643.080
405.8482, 1652.845
406.3303, 1663.478
406.8124, 1675.723
407.2945, 1689.798
407.7766, 1703.748
408.2588, 1714.966
408.7409, 1723.345
409.2230, 1736.861
409.7051, 1763.911
410.1872, 1787.081
410.6693, 1792.567
411.1515, 1789.559
411.6336, 1796.128
412.1157, 1820.331
412.5978, 1855.061
413.0799, 1885.446
413.5620, 1907.374
414.0442, 1933.303
414.5263, 1964.446
415.0084, 1997.922
415.4905, 2031.583
415.9726, 2065.922
416.4547, 2104.147
416.9369, 2150.892
417.4190, 2202.484
417.9011, 2242.833
418.3832, 2267.778
418.8653, 2291.399
419.3474, 2313.518
419.8296, 2339.693
420.3117, 2375.558
420.7938, 2422.118
421.2759, 2478.049
421.7580, 2554.113
422.2401, 2639.743
422.7223, 2697.050
423.2044, 2714.031
423.6865, 2725.509
424.1686, 2760.817
424.6507, 2819.057
425.1328, 2883.927
425.6150, 2959.768
426.0971, 3036.965
426.5792, 3114.079
427.0613, 3188.638
427.5434, 3251.067
428.0255, 3296.576
428.5077, 3339.528
428.9898, 3409.568
429.4719, 3534.058
429.9540, 3626.449
430.4361, 3665.367
430.9182, 3694.126
431.4004, 3736.839
431.8825, 3792.406
432.3646, 3849.646
432.8467, 3901.907
433.3288, 3948.070
433.8109, 3986.340
434.2931, 4021.732
434.7752, 4037.033
435.2573, 4009.919
435.7394, 3972.071
436.2215, 3952.129
436.7036, 3954.362
437.1858, 3953.072
437.6679, 3927.916
438.1500, 3884.757
438.6321, 3839.589
439.1142, 3793.439
439.5963, 3747.651
440.0785, 3701.818
440.5606, 3657.399
441.0427, 3620.151
441.5248, 3600.767
442.0069, 3576.376
442.4890, 3526.136
442.9712, 3466.216
443.4533, 3430.211
443.9354, 3427.987
444.4175, 3432.442
444.8996, 3405.564
445.3817, 3335.827
445.8639, 3285.110
446.3460, 3265.341
446.8281, 3249.281
447.3102, 3228.402
447.7923, 3202.824
448.2744, 3173.643
448.7566, 3140.880
449.2387, 3108.054
449.7208, 3084.645
450.2029, 3075.566
450.6850, 3054.039
451.1671, 3004.051
451.6493, 2950.356
452.1314, 2909.315
452.6135, 2879.659
453.0956, 2851.595
453.5777, 2820.303
454.0598, 2787.829
454.5420, 2758.000
455.0241, 2730.744
455.5062, 2701.250
455.9883, 2665.524
456.4704, 2627.466
456.9525, 2595.808
457.4347, 2571.339
457.9168, 2549.495
458.3989, 2528.279
458.8810, 2509.934
459.3631, 2497.250
459.8452, 2490.011
460.3274, 2484.574
460.8095, 2477.200
461.2916, 2469.320
461.7737, 2474.611
462.2558, 2506.936
462.7379, 2533.501
463.2201, 2541.551
463.7022, 2546.785
464.1843, 2567.473
464.6664, 2605.433
465.1485, 2641.426
465.6306, 2651.900
466.1128, 2641.472
466.5949, 2643.375
467.0770, 2660.330
467.5591, 2685.596
468.0412, 2724.536
468.5233, 2767.078
469.0055, 2794.731
469.4876, 2797.924
469.9697, 2799.082
470.4518, 2807.939
470.9339, 2824.712
471.4160, 2854.938
471.8982, 2900.226
472.3803, 2942.165
472.8624, 2962.831
473.3445, 2961.959
473.8266, 2940.604
474.3087, 2876.779
474.7909, 2820.679
475.2730, 2794.991
475.7551, 2784.502
476.2372, 2769.066
476.7193, 2741.180
477.2014, 2702.267
477.6836, 2651.728
478.1657, 2587.353
478.6478, 2527.876
479.1299, 2475.991
479.6120, 2426.763
480.0941, 2379.565
480.5763, 2333.080
481.0584, 2284.401
481.5405, 2231.102
482.0226, 2178.255
482.5047, 2133.283
482.9868, 2094.213
483.4690, 2049.558
483.9511, 1994.355
484.4332, 1939.787
484.9153, 1899.966
485.3974, 1878.042
485.8795, 1850.194
486.3617, 1808.818
486.8438, 1768.653
487.3259, 1736.466
487.8080, 1711.085
488.2901, 1690.777
488.7722, 1674.795
489.2544, 1659.153
489.7365, 1635.236
490.2186, 1597.844
490.7007, 1568.907
491.1828, 1559.561
491.6649, 1548.926
492.1471, 1523.660
492.6292, 1490.460
493.1113, 1466.304
493.5934, 1462.447
494.0755, 1463.792
494.5576, 1447.974
495.0398, 1417.086
495.5219, 1393.027
496.0040, 1383.100
496.4861, 1379.416
496.9682, 1374.290
497.4503, 1367.843
497.9325, 1357.202
498.4146, 1336.593
498.8967, 1316.801
499.3788, 1303.202
499.8609, 1295.574
500.3430, 1294.588
500.8252, 1300.642
501.3073, 1308.015
501.7894, 1305.535
502.2715, 1288.741
502.7536, 1275.059
503.2357, 1265.058
503.7179, 1257.766
504.2000, 1253.834
504.6821, 1252.284
505.1642, 1251.483
505.6463, 1251.016
506.1284, 1250.271
506.6106, 1248.271
507.0927, 1245.125
507.5748, 1242.150
508.0569, 1240.126
508.5390, 1237.336
509.0211, 1230.923
509.5033, 1221.093
509.9854, 1214.103
510.4675, 1210.458
510.9496, 1209.818
511.4317, 1214.321
511.9138, 1221.263
512.3960, 1226.319
512.8781, 1227.834
513.3602, 1225.286
513.8423, 1215.971
514.3245, 1195.576
514.8066, 1187.734
515.2887, 1207.243
515.7708, 1223.984
516.2529, 1225.774
516.7350, 1218.688
517.2172, 1212.417
517.6993, 1209.930
518.1814, 1211.089
518.6635, 1219.951
519.1456, 1233.586
519.6277, 1235.414
520.1099, 1219.752
520.5920, 1202.332
521.0741, 1196.523
521.5562, 1201.916
522.0383, 1206.661
522.5204, 1206.865
523.0026, 1210.841
523.4847, 1225.730
523.9668, 1244.492
524.4489, 1258.343
524.9310, 1264.952
525.4131, 1266.253
525.8953, 1263.199
526.3774, 1255.700
526.8595, 1253.520
527.3416, 1263.292
527.8237, 1268.114
528.3058, 1256.130
528.7880, 1240.452
529.2701, 1236.954
529.7522, 1249.537
530.2343, 1263.709
530.7164, 1267.700
531.1985, 1266.248
531.6807, 1271.091
532.1628, 1283.482
532.6449, 1292.392
533.1270, 1289.030
533.6091, 1277.662
534.0912, 1275.450
534.5734, 1285.838
535.0555, 1299.284
535.5376, 1318.973
536.0197, 1338.344
536.5018, 1351.847
536.9839, 1359.475
537.4661, 1364.282
537.9482, 1368.323
538.4303, 1371.473
538.9124, 1372.356
539.3945, 1369.154
539.8766, 1370.694
540.3588, 1385.748
540.8409, 1400.593
541.3230, 1400.023
541.8051, 1385.566
542.2872, 1378.444
542.7693, 1393.182
543.2515, 1413.518
543.7336, 1422.504
544.2157, 1423.122
544.6978, 1428.729
545.1799, 1445.255
545.6620, 1465.031
546.1442, 1474.853
546.6263, 1469.460
547.1084, 1471.492
547.5905, 1485.126
548.0726, 1500.959
548.5547, 1517.580
549.0369, 1533.335
549.5190, 1545.825
550.0011, 1554.002
550.4832, 1560.312
550.9653, 1565.721
551.4474, 1571.044
551.9296, 1584.618
552.4117, 1610.754
552.8938, 1634.355
553.3759, 1644.593
553.8580, 1642.952
554.3401, 1638.952
554.8223, 1628.550
555.3044, 1621.427
555.7865, 1621.595
556.2686, 1626.023
556.7507, 1633.272
557.2328, 1641.948
557.7150, 1647.967
558.1971, 1647.535
558.6792, 1641.913
559.1613, 1637.731
559.6434, 1634.692
560.1255, 1633.826
560.6077, 1636.896
561.0898, 1641.213
561.5719, 1646.538
562.0540, 1652.196
562.5361, 1653.566
563.0182, 1643.767
563.5004, 1631.763
563.9825, 1630.050
564.4646, 1636.159
564.9467, 1638.089
565.4288, 1630.812
565.9109, 1618.938
566.3931, 1609.357
566.8752, 1602.561
567.3573, 1596.237
567.8394, 1594.159
568.3215, 1588.375
568.8036, 1571.091
569.2858, 1549.954
569.7679, 1537.410
570.2500, 1537.855
570.7321, 1540.010
571.2142, 1530.738
571.6964, 1512.062
572.1785, 1494.323
572.6606, 1477.988
573.1427, 1463.712
573.6248, 1453.534
574.1069, 1445.122
574.5891, 1431.050
575.0712, 1406.992
575.5533, 1386.126
576.0354, 1371.818
576.5175, 1361.667
576.9996, 1356.529
577.4818, 1354.045
577.9639, 1347.004
578.4460, 1330.185
578.9281, 1307.889
579.4102, 1291.025
579.8923, 1280.053
580.3745, 1272.844
580.8566, 1275.319
581.3387, 1274.448
581.8208, 1255.262
582.3029, 1224.483
582.7850, 1206.602
583.2672, 1220.502
583.7493, 1234.839
584.2314, 1224.748
584.7135, 1200.342
585.1956, 1181.418
585.6777, 1172.540
586.1598, 1166.128
586.6419, 1153.936
587.1240, 1136.612
587.6061, 1128.968
588.0883, 1140.633
588.5704, 1147.740
589.0525, 1145.774
589.5346, 1138.171
590.0167, 1126.861
590.4988, 1112.486
590.9810, 1096.646
591.4631, 1075.262
591.9452, 1055.795
592.4273, 1052.214
592.9094, 1062.393
593.3915, 1070.830
593.8737, 1071.893
594.3558, 1068.202
594.8379, 1062.758
595.3200, 1054.209
595.8021, 1050.122
596.2842, 1054.393
596.7664, 1058.119
597.2485, 1057.045
597.7306, 1054.075
598.2127, 1053.972
598.6948, 1057.849
599.1769, 1061.031
599.6591, 1056.565
600.1412, 1047.498
600.6233, 1046.139
601.1054, 1053.718
601.5875, 1062.402
602.0696, 1068.518
602.5518, 1073.325
603.0339, 1079.586
603.5160, 1087.811
603.9981, 1095.682
604.4802, 1102.055
604.9623, 1108.811
605.4445, 1117.510
605.9266, 1127.450
606.4087, 1136.777
606.8908, 1144.605
607.3729, 1153.043
607.8550, 1163.492
608.3372, 1176.080
608.8193, 1199.529
609.3014, 1240.421
609.7835, 1276.576
610.2656, 1287.645
610.7477, 1287.151
611.2299, 1306.635
611.7120, 1355.388
612.1941, 1403.392
612.6762, 1438.947
613.1583, 1471.839
613.6404, 1510.300
614.1226, 1554.235
614.6047, 1600.467
615.0868, 1647.421
615.5689, 1694.142
616.0510, 1738.186
616.5331, 1778.699
617.0153, 1821.038
617.4974, 1866.105
617.9795, 1912.498
618.4616, 1961.671
618.9437, 2011.134
619.4258, 2055.494
619.9080, 2095.227
620.3901, 2127.014
620.8722, 2149.197
621.3543, 2162.203
621.8364, 2170.330
622.3185, 2171.181
622.8007, 2152.482
623.2828, 2105.148
623.7649, 2035.526
624.2470, 1959.111
624.7291, 1872.015
625.2112, 1791.862
625.6934, 1724.496
626.1755, 1660.262
626.6576, 1592.233
627.1397, 1522.653
627.6218, 1458.068
628.1039, 1400.823
628.5861, 1346.225
629.0682, 1285.411
629.5503, 1227.703
630.0324, 1189.222
630.5145, 1170.326
630.9966, 1158.983
631.4788, 1147.682
631.9609, 1134.721
632.4430, 1112.081
632.9251, 1072.445
633.4072, 1042.840
633.8893, 1032.876
634.3715, 1027.897
634.8536, 1020.250
635.3357, 1010.828
635.8178, 1002.622
636.2999, 995.8364
636.7820, 991.5869
637.2642, 994.0850
637.7463, 998.3292
638.2284, 994.3246
638.7105, 981.5997
639.1926, 969.8499
639.6747, 966.9755
640.1569, 969.5749
640.6390, 963.5364
641.1211, 943.0048
641.6032, 928.0543
642.0853, 923.7040
642.5674, 923.0817
643.0496, 924.8131
643.5317, 927.2107
644.0138, 925.8828
644.4959, 917.6041
644.9780, 908.8453
645.4601, 904.9240
645.9423, 903.0637
646.4244, 897.3600
646.9065, 887.7713
647.3886, 881.4580
647.8707, 884.2697
648.3528, 892.6967
648.8350, 893.9490
649.3171, 884.7446
649.7992, 877.1647
650.2813, 871.0684
650.7634, 868.4899
651.2455, 876.0537
651.7277, 887.6156
652.2098, 886.8629
652.6919, 862.6520
653.1740, 839.3942
653.6561, 833.6192
654.1382, 837.2501
654.6204, 839.4830
655.1025, 838.9219
655.5846, 838.7621
656.0667, 841.5753
656.5488, 844.6640
657.0309, 838.9307
657.5131, 819.7827
657.9952, 808.4290
658.4773, 809.5444
658.9594, 815.3973
659.4415, 825.5785
659.9236, 836.2988
660.4058, 838.7098
660.8879, 827.2346
661.3700, 817.0276
661.8521, 816.6412
662.3342, 820.6860
662.8163, 824.3492
663.2985, 826.5330
663.7806, 826.0126
664.2627, 821.9446
664.7448, 815.8591
665.2269, 809.8908
665.7090, 803.3424
666.1912, 802.7495
666.6733, 812.6285
667.1554, 821.4443
667.6375, 822.4155
668.1196, 817.9733
668.6017, 811.4481
669.0839, 801.5465
669.5660, 794.2285
670.0481, 791.4800
670.5302, 792.0469
671.0123, 797.7587
671.4944, 805.6953
671.9766, 808.6150
672.4587, 803.2821
672.9408, 794.9539
673.4229, 790.7554
673.9050, 790.6025
674.3871, 793.6455
674.8693, 802.2698
675.3514, 805.5268
675.8335, 793.7576
676.3156, 776.5364
676.7977, 773.2103
677.2798, 787.3637
677.7620, 796.4969
678.2441, 793.6661
678.7262, 789.1124
679.2083, 788.2422
679.6904, 789.6085
680.1725, 790.6401
680.6547, 790.4775
681.1368, 789.2271
681.6189, 786.7933
682.1010, 783.3589
682.5831, 778.6192
683.0652, 772.3615
683.5474, 769.8730
684.0295, 774.3353
684.5116, 780.6533
684.9937, 781.5615
685.4758, 775.9322
685.9579, 773.2725
686.4401, 775.7784
686.9222, 778.2725
687.4043, 781.0546
687.8864, 782.0545
688.3685, 777.7561
688.8506, 768.7828
689.3328, 761.2017
689.8149, 759.4793
690.2970, 760.8089
690.7791, 761.2554
691.2612, 761.2255
691.7433, 762.0968
692.2255, 764.1699
692.7076, 768.8117
693.1897, 778.5837
693.6718, 792.1152
694.1539, 796.0760
694.6360, 783.7178
695.1182, 773.5133
695.6003, 765.3427
696.0824, 761.9065
696.5645, 769.8104
697.0466, 784.1819
697.5287, 789.6354
698.0109, 776.0797
698.4930, 762.2739
698.9751, 763.9472
699.4572, 772.2380
699.9393, 773.9101
700.4214, 767.9635
700.9036, 759.4286
701.3857, 750.9937
701.8678, 743.8971
702.3499, 741.5720
702.8320, 745.0788
703.3141, 746.0530
703.7963, 740.8195
704.2784, 738.7136
704.7605, 747.1056
705.2426, 761.3942
705.7247, 774.1687
706.2068, 786.9167
706.6890, 792.2216
707.1711, 781.3028
707.6532, 768.8085
708.1353, 765.4306
708.6174, 768.0529
709.0995, 769.7739
709.5817, 768.2114
710.0638, 765.4174
710.5459, 763.4108
711.0280, 762.0297
711.5101, 760.5837
711.9922, 759.0570
712.4744, 757.8821
712.9565, 757.3901
713.4386, 756.7932
713.9207, 754.3909
714.4028, 749.5162
714.8849, 749.7238
715.3671, 761.9901
715.8492, 770.0911
716.3313, 765.7510
716.8134, 759.5615
717.2955, 763.4507
717.7776, 775.9303
718.2598, 783.5580
718.7419, 775.8674
719.2240, 765.5422
719.7061, 766.8761
720.1882, 774.9246
720.6703, 779.2205
721.1525, 777.8530
721.6346, 772.0009
722.1167, 761.4036
722.5988, 749.7437
723.0809, 750.3714
723.5630, 768.1498
724.0452, 778.9820
724.5273, 778.3129
725.0094, 773.7322
725.4915, 767.1442
725.9736, 760.4133
726.4557, 757.3240
726.9379, 759.5776
727.4200, 761.3487
727.9021, 759.8631
728.3842, 758.3321
728.8663, 759.6688
729.3484, 762.6964
729.8306, 764.2513
730.3127, 763.3512
730.7948, 763.0963
731.2769, 769.7043
731.7590, 779.4971
732.2411, 776.7255
732.7233, 761.3107
733.2054, 753.0748
733.6875, 760.4807
734.1696, 772.8233
734.6517, 777.2333
735.1339, 773.3552
735.6160, 769.4828
736.0981, 764.9816
736.5802, 761.3058
737.0623, 758.5846
737.5444, 756.8234
738.0266, 756.8008
738.5087, 757.8644
738.9908, 757.3781
739.4729, 752.3660
739.9550, 748.8132
740.4371, 752.7696
740.9193, 760.0172
741.4014, 764.1151
741.8835, 764.8164
742.3656, 765.9932
742.8477, 770.1639
743.3298, 774.3778
743.8120, 771.1314
744.2941, 759.9878
744.7762, 757.4917
745.2583, 767.8062
745.7404, 775.9296
746.2225, 772.9275
746.7047, 764.4806
747.1868, 761.4742
747.6689, 766.1232
748.1510, 767.1100
748.6331, 756.9161
749.1152, 751.2864
749.5974, 762.8391
750.0795, 778.6393
750.5616, 781.8083
751.0437, 771.1465
751.5258, 760.6732
752.0079, 760.1331
752.4901, 763.4312
752.9722, 762.9725
753.4543, 760.4712
753.9364, 760.4775
754.4185, 763.8718
754.9006, 769.2852
755.3828, 776.2877
755.8649, 783.0905
756.3470, 782.7621
756.8291, 773.0140
757.3112, 766.9598
757.7933, 767.3779
758.2755, 769.0923
758.7576, 768.6625
759.2397, 767.4535
759.7218, 769.2699
760.2039, 776.7352
760.6860, 779.3592
761.1682, 770.0915
761.6503, 761.1538
762.1324, 758.8962
762.6145, 761.8245
763.0966, 768.8220
763.5787, 778.9191
764.0609, 786.3622
764.5430, 783.5140
765.0251, 777.1470
765.5072, 778.6843
765.9893, 786.2197
766.4714, 793.2557
766.9536, 798.0728
767.4357, 800.3026
767.9178, 799.6465
768.3999, 796.1525
768.8820, 788.5291
769.3641, 772.9426
769.8463, 767.4084
770.3284, 780.9752
770.8105, 794.9925
771.2926, 797.4021
771.7747, 791.3109
772.2568, 782.6964
772.7390, 767.2452
773.2211, 761.2903
773.7032, 777.7709
774.1853, 794.8936
774.6674, 798.6282
775.1495, 794.0856
775.6317, 789.0304
776.1138, 786.0172
776.5959, 787.4822
777.0780, 801.0207
777.5601, 816.7178
778.0422, 816.5380
778.5244, 804.9525
779.0065, 798.2449
779.4886, 800.5154
779.9707, 805.6582
780.4528, 807.9861
780.9349, 809.1771
781.4171, 817.6491
781.8992, 836.6728
782.3813, 847.4806
782.8634, 843.2008
783.3455, 838.5028
783.8276, 844.6207
784.3098, 856.6050
784.7919, 860.6603
785.2740, 851.5215
785.7561, 849.1580
786.2382, 861.6067
786.7203, 875.1000
787.2025, 883.7704
787.6846, 888.6768
788.1667, 890.5186
788.6488, 889.9887
789.1309, 891.6576
789.6130, 899.5197
790.0952, 910.2000
790.5773, 923.0886
791.0594, 935.2029
791.5415, 936.0298
792.0236, 925.5577
792.5057, 920.1157
792.9879, 932.8058
793.4700, 956.6432
793.9521, 974.6803
794.4342, 986.8262
794.9163, 994.5032
795.3984, 996.5412
795.8806, 998.5341
796.3627, 1002.859
796.8448, 1009.778
797.3269, 1020.149
797.8090, 1035.025
798.2911, 1049.490
798.7733, 1067.885
799.2554, 1080.492
799.7375, 1079.031
800.2196, 1074.129
800.7017, 1076.907
801.1838, 1087.605
801.6660, 1098.586
802.1481, 1105.498
802.6302, 1113.342
803.1123, 1126.729
803.5944, 1142.111
804.0765, 1154.201
804.5587, 1163.510
805.0408, 1175.607
805.5229, 1193.985
806.0050, 1210.993
806.4871, 1213.578
806.9692, 1205.352
807.4514, 1200.916
807.9335, 1201.005
808.4156, 1202.582
808.8977, 1204.409
809.3798, 1207.248
809.8619, 1212.628
810.3441, 1220.565
810.8262, 1224.244
811.3083, 1219.886
811.7904, 1219.721
812.2725, 1228.973
812.7546, 1240.351
813.2368, 1248.309
813.7189, 1253.712
814.2010, 1259.662
814.6831, 1267.805
815.1652, 1273.897
815.6473, 1276.844
816.1295, 1277.622
816.6116, 1274.492
817.0937, 1270.497
817.5758, 1271.135
818.0579, 1277.783
818.5400, 1284.974
819.0222, 1286.063
819.5043, 1287.767
819.9864, 1301.320
820.4685, 1321.346
820.9506, 1335.068
821.4327, 1339.827
821.9149, 1340.477
822.3970, 1340.555
822.8791, 1339.641
823.3612, 1335.428
823.8433, 1328.162
824.3254, 1325.420
824.8076, 1328.105
825.2897, 1335.035
825.7718, 1346.634
826.2539, 1360.191
826.7360, 1370.436
827.2181, 1376.373
827.7003, 1384.560
828.1824, 1401.266
828.6645, 1410.750
829.1466, 1400.091
829.6287, 1387.543
830.1108, 1391.547
830.5930, 1409.020
831.0751, 1418.317
831.5572, 1406.558
832.0393, 1398.990
832.5214, 1407.676
833.0035, 1419.820
833.4857, 1425.968
833.9678, 1426.780
834.4499, 1425.051
834.9320, 1421.606
835.4141, 1419.925
835.8962, 1424.792
836.3784, 1431.612
836.8605, 1433.513
837.3426, 1432.223
837.8247, 1431.557
838.3068, 1433.041
838.7889, 1440.358
839.2711, 1458.377
839.7532, 1480.557
840.2353, 1488.848
840.7174, 1483.971
841.1995, 1485.047
841.6816, 1495.266
842.1638, 1504.127
842.6459, 1505.316
843.1280, 1502.292
843.6101, 1499.889
844.0922, 1495.388
844.5743, 1510.648
845.0565, 1570.946
845.5386, 1606.173
846.0207, 1573.920
846.5028, 1528.391
846.9849, 1523.502
847.4670, 1551.683
847.9492, 1567.802
848.4313, 1561.464
848.9134, 1551.835
849.3955, 1537.951
849.8776, 1526.339
850.3597, 1523.704
850.8419, 1525.883
851.3240, 1524.682
851.8061, 1517.943
852.2882, 1511.589
852.7703, 1512.225
853.2524, 1512.011
853.7346, 1502.345
854.2167, 1487.099
854.6988, 1472.663
855.1809, 1460.455
855.6630, 1449.792
856.1451, 1440.919
856.6273, 1431.014
857.1094, 1413.936
857.5915, 1392.113
858.0736, 1374.213
858.5557, 1360.839
859.0378, 1349.407
859.5200, 1338.847
860.0021, 1329.048
860.4842, 1320.598
860.9663, 1313.030
861.4484, 1299.159
861.9305, 1277.206
862.4127, 1256.766
862.8948, 1238.939
863.3769, 1225.347
863.8590, 1218.572
864.3411, 1216.486
864.8232, 1211.276
865.3054, 1201.245
865.7875, 1191.651
866.2696, 1179.690
866.7517, 1171.529
867.2338, 1175.416
867.7159, 1180.566
868.1981, 1173.068
868.6802, 1152.655
869.1623, 1133.910
869.6444, 1120.282
870.1265, 1108.573
870.6086, 1100.633
871.0908, 1091.691
871.5729, 1072.969
872.0550, 1050.402
872.5371, 1040.635
873.0192, 1051.005
873.5013, 1060.510
873.9835, 1052.608
874.4656, 1038.361
874.9477, 1028.286
875.4298, 1021.721
875.9119, 1017.529
876.3940, 1014.508
876.8762, 1007.622
877.3583, 990.8348
877.8404, 973.8350
878.3225, 977.3289
878.8046, 993.6012
879.2867, 995.8596
879.7689, 982.5223
880.2510, 966.2813
880.7331, 952.6850
881.2152, 944.1295
881.6973, 946.2964
882.1794, 956.9721
882.6616, 952.8995
883.1437, 931.8539
883.6258, 917.0743
884.1079, 914.5736
884.5900, 916.2505
885.0721, 916.9486
885.5543, 916.0961
886.0364, 911.1395
886.5185, 897.8687
887.0006, 893.1938
887.4827, 904.7043
887.9648, 912.1037
888.4470, 904.8093
888.9291, 892.2162
889.4112, 885.4492
889.8933, 884.1638
890.3754, 881.4905
890.8575, 875.7189
891.3397, 870.6252
891.8218, 868.4321
892.3039, 865.4308
892.7860, 855.5208
893.2681, 844.3941
893.7502, 845.3535
894.2324, 862.6508
894.7145, 871.6065
895.1966, 854.3896
895.6787, 836.1615
896.1608, 833.2711
896.6429, 836.7990
897.1251, 836.3373
897.6072, 831.1606
898.0893, 825.0881
898.5714, 819.4559
899.0535, 814.9484
899.5356, 811.4823
900.0178, 809.9193
900.4999, 812.2097
900.9820, 817.1932
901.4641, 823.1302
901.9462, 828.9055
902.4283, 831.1341
902.9105, 826.3516
903.3926, 817.3851
903.8747, 807.5869
904.3568, 797.8476
904.8389, 791.0121
905.3210, 787.2853
905.8032, 784.8200
906.2853, 782.6591
906.7674, 782.4255
907.2495, 787.7008
907.7316, 796.9450
908.2137, 800.0532
908.6959, 796.9081
909.1780, 795.7338
909.6601, 798.4159
910.1422, 803.6160
910.6243, 811.1302
911.1064, 818.8812
911.5886, 820.6801
912.0707, 815.0594
912.5528, 812.1602
913.0349, 813.3347
913.5170, 813.1360
913.9991, 808.6566
914.4813, 803.6208
914.9634, 801.4664
915.4455, 802.2915
915.9276, 807.6610
916.4097, 823.5519
916.8918, 832.0053
917.3740, 826.6558
917.8561, 820.3844
918.3382, 819.9654
918.8203, 822.0334
919.3024, 821.4241
919.7845, 817.7405
920.2667, 815.6234
920.7488, 814.3608
921.2309, 816.0967
921.7130, 824.4587
922.1951, 833.0588
922.6772, 837.8269
923.1594, 839.1600
923.6415, 838.5643
924.1236, 836.2817
924.6057, 832.1890
925.0878, 822.4021
925.5699, 815.2310
926.0521, 816.0648
926.5342, 821.2681
927.0163, 828.4654
927.4984, 836.0795
927.9805, 840.6713
928.4626, 840.1649
928.9448, 838.6768
929.4269, 839.1426
929.9090, 839.3076
930.3911, 835.1761
930.8732, 829.9317
931.3553, 830.0731
931.8375, 836.2217
932.3196, 842.4968
932.8017, 846.0121
933.2838, 846.7673
933.7659, 842.8254
934.2480, 837.2476
934.7302, 835.0195
935.2123, 835.5741
935.6944, 835.9030
936.1765, 834.8812
936.6586, 832.7519
937.1407, 828.5374
937.6229, 824.5137
938.1050, 825.4475
938.5871, 829.6859
939.0692, 833.6537
939.5513, 836.3723
940.0334, 834.9141
940.5156, 827.5637
940.9977, 821.2245
941.4798, 828.9728
941.9619, 844.9305
942.4440, 845.1990
942.9261, 832.5575
943.4083, 827.2189
943.8904, 833.2217
944.3725, 836.6047
944.8546, 826.7450
945.3367, 812.4998
945.8188, 814.3535
946.3010, 830.3458
946.7831, 831.9609
947.2652, 818.1218
947.7473, 807.6061
948.2294, 806.0757
948.7115, 810.0223
949.1937, 817.3177
949.6758, 825.9952
950.1579, 828.5495
950.6400, 823.9585
951.1221, 825.9466
951.6042, 837.8042
952.0864, 843.0456
952.5685, 834.5752
953.0506, 818.3082
953.5327, 799.2917
954.0148, 778.6979
954.4969, 765.4954
954.9791, 758.9407
955.4612, 764.0195
955.9433, 787.1153
956.4254, 807.1197
956.9075, 814.3446
957.3896, 812.1726
957.8718, 803.4244
958.3539, 787.9939
958.8360, 781.6895
959.3181, 791.2474
959.8002, 794.3337
960.2823, 783.8094
960.7645, 773.1678
961.2466, 770.1967
961.7287, 771.9514
962.2108, 774.2033
962.6929, 778.1169
963.1750, 774.3035
963.6572, 751.4314
964.1393, 738.9843
964.6214, 751.5355
965.1035, 765.6333
965.5856, 763.6909
966.0677, 752.4539
966.5499, 748.0598
967.0320, 752.8454
967.5141, 755.8719
967.9962, 756.4807
968.4783, 755.8907
968.9604, 750.9007
969.4426, 747.9363
969.9247, 756.4015
970.4068, 770.5610
970.8889, 772.0706
971.3710, 752.4059
971.8531, 741.5486
972.3353, 747.1124
972.8174, 756.6002
973.2995, 772.1112
973.7816, 784.3846
974.2637, 781.9364
974.7458, 768.5050
975.2280, 759.5204
975.7101, 756.8723
976.1922, 759.8987
976.6743, 776.7102
977.1564, 789.4448
977.6385, 783.5178
978.1207, 773.8360
978.6028, 778.1822
979.0849, 795.0636
979.5670, 809.1866
980.0491, 815.8420
980.5313, 822.5405
981.0134, 831.2826
981.4955, 840.7195
981.9776, 850.2260
982.4597, 859.9301
982.9418, 869.3425
983.4240, 878.8553
983.9061, 890.5709
984.3882, 903.4782
984.8703, 921.4968
985.3524, 947.2352
985.8345, 977.0790
986.3167, 1013.441
986.7988, 1049.554
987.2809, 1071.282
987.7630, 1080.230
988.2451, 1103.662
988.7272, 1162.621
989.2094, 1218.894
989.6915, 1256.023
990.1736, 1286.303
990.6557, 1313.364
991.1378, 1342.630
991.6199, 1381.860
992.1021, 1431.826
992.5842, 1484.324
993.0663, 1541.603
993.5484, 1593.334
994.0305, 1628.600
994.5126, 1662.203
994.9948, 1706.044
995.4769, 1756.398
995.9590, 1807.571
996.4411, 1857.755
996.9232, 1903.529
997.4053, 1939.483
997.8875, 1975.947
998.3696, 2026.559
998.8517, 2071.689
999.3338, 2092.849
999.8159, 2097.203
1000.298, 2097.360
1000.780, 2096.447
1001.262, 2097.824
1001.744, 2108.866
1002.227, 2114.966
1002.709, 2109.369
1003.191, 2095.282
1003.673, 2075.177
1004.155, 2048.773
1004.637, 2014.024
1005.119, 1970.737
1005.601, 1925.567
1006.083, 1883.401
1006.566, 1836.850
1007.048, 1780.614
1007.530, 1719.507
1008.012, 1658.550
1008.494, 1595.606
1008.976, 1522.163
1009.458, 1437.679
1009.940, 1365.029
1010.422, 1322.486
1010.905, 1282.868
1011.387, 1230.358
1011.869, 1178.244
1012.351, 1137.451
1012.833, 1105.502
1013.315, 1077.437
1013.797, 1052.194
1014.279, 1025.432
1014.762, 986.9715
1015.244, 957.8792
1015.726, 958.0449
1016.208, 960.7400
1016.690, 941.0967
1017.172, 909.2640
1017.654, 884.7438
1018.136, 870.8934
1018.618, 861.8709
1019.101, 858.8599
1019.583, 855.8686
1020.065, 850.7423
1020.547, 844.6444
1021.029, 838.1694
1021.511, 831.4914
1021.993, 824.9046
1022.475, 818.4262
1022.958, 811.4260
1023.440, 799.5726
1023.922, 793.0088
1024.404, 799.7121
1024.886, 807.7670
1025.368, 811.5198
1025.850, 810.1746
1026.332, 800.9586
1026.814, 784.2145
1027.297, 773.0211
1027.779, 773.0986
1028.261, 774.7100
1028.743, 776.9067
1029.225, 778.5062
1029.707, 778.1853
1030.189, 777.2028
1030.671, 777.9500
1031.154, 780.3730
1031.636, 780.2842
1032.118, 777.1342
1032.600, 771.3548
1033.082, 758.6619
1033.564, 748.3368
1034.046, 746.2997
1034.528, 748.3775
1035.010, 749.8508
1035.493, 750.4949
1035.975, 750.3137
1036.457, 745.0467
1036.939, 745.6490
1037.421, 759.5553
1037.903, 771.1459
1038.385, 773.8459
1038.867, 771.3450
1039.349, 765.8113
1039.832, 757.9727
1040.314, 753.5996
1040.796, 753.8721
1041.278, 755.4208
1041.760, 758.8367
1042.242, 762.7151
1042.724, 768.0545
1043.206, 771.8696
1043.689, 769.9187
1044.171, 764.0130
1044.653, 763.6296
1045.135, 773.9180
1045.617, 774.1505
1046.099, 756.0604
1046.581, 747.4791
1047.063, 760.6701
1047.546, 779.1781
1048.028, 789.7083
1048.510, 793.6671
1048.992, 795.3764
1049.474, 794.9160
1049.956, 790.5466
1050.438, 779.5718
1050.920, 776.2245
1051.402, 786.1990
1051.885, 798.0270
1052.367, 803.8152
1052.849, 804.1528
1053.331, 798.2719
1053.813, 785.7012
1054.295, 787.4098
1054.777, 805.1102
1055.259, 817.1379
1055.741, 818.6735
1056.224, 817.1532
1056.706, 816.9284
1057.188, 817.6224
1057.670, 817.8148
1058.152, 818.3577
1058.634, 827.5515
1059.116, 844.2397
1059.598, 851.4514
1060.081, 846.8661
1060.563, 840.6484
1061.045, 837.7269
1061.527, 839.5523
1062.009, 850.5043
1062.491, 865.2817
1062.973, 866.0755
1063.455, 857.7423
1063.938, 859.9351
1064.420, 873.0198
1064.902, 885.7123
1065.384, 893.3882
1065.866, 896.6259
1066.348, 893.0372
1066.830, 890.2538
1067.312, 904.7029
1067.794, 926.8651
1068.276, 937.8336
1068.759, 938.4164
1069.241, 935.0806
1069.723, 930.4576
1070.205, 927.4721
1070.687, 928.5306
1071.169, 930.9030
1071.651, 931.5496
1072.133, 932.2307
1072.616, 933.6158
1073.098, 937.3409
1073.580, 948.0723
1074.062, 964.4971
1074.544, 977.2630
1075.026, 981.0702
1075.508, 984.5258
1075.990, 994.7273
1076.473, 1004.644
1076.955, 1006.276
1077.437, 1006.543
1077.919, 1015.566
1078.401, 1031.198
1078.883, 1043.065
1079.365, 1047.693
1079.847, 1053.405
1080.329, 1061.819
1080.812, 1073.322
1081.294, 1091.735
1081.776, 1109.917
1082.258, 1121.503
1082.740, 1128.664
1083.222, 1135.798
1083.704, 1142.916
1084.186, 1153.427
1084.668, 1173.154
1085.151, 1187.983
1085.633, 1190.610
1086.115, 1194.281
1086.597, 1206.804
1087.079, 1223.081
1087.561, 1234.875
1088.043, 1242.822
1088.525, 1260.249
1089.007, 1291.105
1089.490, 1321.016
1089.972, 1350.438
1090.454, 1374.854
1090.936, 1390.938
1091.418, 1405.213
1091.900, 1423.824
1092.382, 1446.043
1092.864, 1471.758
1093.347, 1501.896
1093.829, 1514.068
1094.311, 1506.167
1094.793, 1505.498
1095.275, 1519.410
1095.757, 1538.000
1096.239, 1554.684
1096.721, 1569.746
1097.203, 1582.889
1097.686, 1594.966
1098.168, 1610.887
1098.650, 1629.100
1099.132, 1644.029
1099.614, 1653.632
1100.096, 1650.967
1100.578, 1632.913
1101.060, 1611.138
1101.542, 1597.219
1102.025, 1587.167
1102.507, 1575.969
1102.989, 1563.886
1103.471, 1552.274
1103.953, 1540.039
1104.435, 1524.339
1104.917, 1504.445
1105.399, 1480.521
1105.882, 1448.754
1106.364, 1421.029
1106.846, 1408.884
1107.328, 1401.444
1107.810, 1391.814
1108.292, 1378.976
1108.774, 1361.568
1109.256, 1340.400
1109.739, 1319.353
1110.221, 1300.484
1110.703, 1278.430
1111.185, 1247.223
1111.667, 1218.305
1112.149, 1195.770
1112.631, 1177.814
1113.113, 1164.849
1113.595, 1154.744
1114.078, 1142.887
1114.560, 1129.325
1115.042, 1112.682
1115.524, 1088.805
1116.006, 1070.208
1116.488, 1060.023
1116.970, 1052.333
1117.452, 1045.112
1117.934, 1037.639
1118.417, 1029.522
1118.899, 1020.126
1119.381, 1004.061
1119.863, 980.2524
1120.345, 964.0568
1120.827, 956.6988
1121.309, 952.5145
1121.791, 950.1165
1122.274, 942.3141
1122.756, 922.0710
1123.238, 899.5200
1123.720, 894.0041
1124.202, 901.1384
1124.684, 909.9882
1125.166, 917.8381
1125.648, 913.8599
1126.130, 898.6290
1126.613, 884.1924
1127.095, 875.9005
1127.577, 868.4222
1128.059, 853.9027
1128.541, 841.0208
1129.023, 843.3907
1129.505, 850.1363
1129.987, 844.8344
1130.469, 833.3752
1130.952, 833.3615
1131.434, 845.6301
1131.916, 847.0194
1132.398, 819.9061
1132.880, 798.1465
1133.362, 797.4149
1133.844, 802.9225
1134.326, 808.6378
1134.809, 814.5212
1135.291, 822.5433
1135.773, 831.0249
1136.255, 833.5511
1136.737, 826.6849
1137.219, 825.5058
1137.701, 836.2501
1138.183, 840.2061
1138.666, 828.8798
1139.148, 821.2793
1139.630, 830.7390
1140.112, 843.9550
1140.594, 840.5544
1141.076, 824.5377
1141.558, 825.8845
1142.040, 845.6820
1142.522, 852.7783
1143.005, 844.8570
1143.487, 844.1202
1143.969, 857.5830
1144.451, 873.3212
1144.933, 882.6304
1145.415, 886.4671
1145.897, 883.7460
1146.379, 877.8636
1146.861, 875.7162
1147.344, 877.1918
1147.826, 882.2985
1148.308, 890.2697
1148.790, 899.5627
1149.272, 909.5365
1149.754, 917.1484
1150.236, 921.8167
1150.718, 921.4948
1151.201, 911.3329
1151.683, 898.8037
1152.165, 888.0038
1152.647, 881.0905
1153.129, 881.1501
1153.611, 887.6981
1154.093, 896.6119
1154.575, 913.3892
1155.057, 917.7171
1155.540, 891.9244
1156.022, 874.3391
1156.504, 884.6481
1156.986, 894.3038
1157.468, 880.7684
1157.950, 856.6348
1158.432, 846.5370
1158.914, 850.2119
1159.396, 846.1631
1159.879, 832.8254
1160.361, 825.0001
1160.843, 824.9611
1161.325, 820.5049
1161.807, 806.4543
1162.289, 794.8986
1162.771, 797.7744
1163.253, 806.5941
1163.736, 806.2200
1164.218, 798.6263
1164.700, 784.7774
1165.182, 769.3362
1165.664, 768.4532
1166.146, 779.4030
1166.628, 779.0588
1167.110, 757.8352
1167.593, 736.1738
1168.075, 729.5980
1168.557, 726.4120
1169.039, 716.0807
1169.521, 707.6723
1170.003, 713.4103
1170.485, 724.3182
1170.967, 726.5599
1171.449, 719.2092
1171.932, 707.4758
1172.414, 683.8774
1172.896, 674.6722
1173.378, 696.2946
1173.860, 707.8172
1174.342, 692.6467
1174.824, 677.0688
1175.306, 679.5298
1175.788, 690.5032
1176.271, 694.1303
1176.753, 690.9292
1177.235, 685.3713
1177.717, 677.4466
1178.199, 666.7735
1178.681, 653.9135
1179.163, 653.6345
1179.645, 669.8452
1180.128, 682.3345
1180.610, 675.0644
1181.092, 661.1113
1181.574, 656.8080
1182.056, 658.0989
1182.538, 662.8088
1183.020, 666.3874
1183.502, 657.8710
1183.984, 642.0687
1184.467, 635.3954
1184.949, 642.0991
1185.431, 648.4810
1185.913, 652.4235
1186.395, 649.4327
1186.877, 631.6030
1187.359, 613.9009
1187.841, 601.8657
1188.323, 596.5174
1188.806, 600.9379
1189.288, 612.0771
1189.770, 621.2341
1190.252, 629.1903
1190.734, 629.2646
1191.216, 619.2001
1191.698, 611.5506
1192.180, 608.3206
1192.663, 607.8802
1193.145, 609.8090
1193.627, 610.7815
1194.109, 606.9854
1194.591, 600.4749
1195.073, 594.6331
1195.555, 589.9453
1196.037, 588.4188
1196.520, 588.8672
1197.002, 588.2647
1197.484, 586.1570
1197.966, 583.0345
1198.448, 579.0201
1198.930, 576.3278
1199.412, 576.0450
1199.894, 577.8159
1200.376, 584.8062
1200.859, 590.2460
1201.341, 587.7745
1201.823, 581.4840
1202.305, 576.0048
1202.787, 572.0408
1203.269, 571.7183
1203.751, 576.1194
1204.233, 581.1857
1204.715, 589.4820
1205.198, 588.7667
1205.680, 574.0706
1206.162, 561.9645
1206.644, 561.6667
1207.126, 565.5608
1207.608, 564.2982
1208.090, 560.3577
1208.572, 561.4312
1209.055, 564.6898
1209.537, 559.3940
1210.019, 549.0646
1210.501, 546.8814
1210.983, 553.3556
1211.465, 558.2437
1211.947, 557.1387
1212.429, 553.8077
1212.911, 546.1874
1213.394, 542.8654
1213.876, 553.8089
1214.358, 565.5582
1214.840, 567.8461
1215.322, 564.4305
1215.804, 560.6529
1216.286, 556.7606
1216.768, 552.0777
1217.250, 544.8824
1217.733, 544.0288
1218.215, 551.8530
1218.697, 556.3641
1219.179, 554.7671
1219.661, 553.5886
1220.143, 556.4628
1220.625, 558.4744
1221.107, 553.3260
1221.590, 545.0017
1222.072, 541.7767
1222.554, 542.0128
1223.036, 542.2850
1223.518, 542.8124
1224.000, 546.5834
1224.482, 551.8551
1224.964, 549.3094
1225.447, 534.9140
1225.929, 526.6069
1226.411, 541.9954
1226.893, 552.4869
1227.375, 539.9450
1227.857, 527.4980
1228.339, 530.7539
1228.821, 539.8412
1229.303, 545.0923
1229.786, 546.9545
1230.268, 546.3616
1230.750, 542.8283
1231.232, 543.4446
1231.714, 548.7255
1232.196, 549.2639
1232.678, 543.8226
1233.160, 540.8741
1233.642, 543.7336
1234.125, 545.7958
1234.607, 540.5754
1235.089, 534.8655
1235.571, 542.0961
1236.053, 549.9297
1236.535, 535.0375
1237.017, 515.3486
1237.499, 524.2985
1237.982, 550.5002
1238.464, 555.0376
1238.946, 530.6533
1239.428, 516.1601
1239.910, 527.7226
1240.392, 536.7839
1240.874, 542.1179
1241.356, 542.3541
1241.839, 534.2766
1242.321, 527.4041
1242.803, 529.4982
1243.285, 534.5771
1243.767, 531.3354
1244.249, 522.8409
1244.731, 524.6549
1245.213, 533.5999
1245.695, 535.0357
1246.177, 530.4148
1246.660, 530.8942
1247.142, 537.9408
1247.624, 543.6799
1248.106, 544.7201
1248.588, 540.5522
1249.070, 523.3260
1249.552, 510.7153
1250.034, 517.8869
1250.517, 527.6522
1250.999, 524.1338
1251.481, 517.3967
1251.963, 525.1150
1252.445, 542.0099
1252.927, 544.1709
1253.409, 528.0823
##END=



