##NAMES=Beudantite
##RRUFFID=R070189
##IDEAL CHEMISTRY=Pb^2+^Fe^3+^_3_(As^5+^O_4_)(S^6+^O_4_)(OH)_6_
##LOCALITY=Tsumeb mine, Tsumeb, Otavi District, Oshikoto, Namibia
##OWNER=RRUFF
##SOURCE=William W. Pinch
##DESCRIPTION=Transparent brown rhombohedra or pseudocubes associated with green duftite
##STATUS=The identification of this mineral is confirmed by single-crystal X-ray diffraction and chemical analysis.
##URL=rruff.info/R070189
##MEASURED CHEMISTRY=(Pb_0.92_[box]_0.07_Cu_0.01_)_Σ=1_(Fe^3+^_2.80_Al_0.20_)_Σ=3_(As_1.00_O_4_)((S_0.80_As_0.20_)_Σ=1_O_4_)((OH)_5.66_(H_2_O)_0.34_)_Σ=6_ ; trace amounts of P; (OH) estimated by charge balance; H_2_O by difference:  H_2_O=6-(OH) 
127.4844, 4432.102
127.9666, 4704.662
128.4487, 4990.024
128.9308, 5304.024
129.4129, 5663.342
129.8950, 6065.806
130.3772, 6480.404
130.8593, 6894.273
131.3414, 7315.934
131.8235, 7776.595
132.3056, 8272.775
132.7877, 8803.704
133.2699, 9374.794
133.7520, 9990.016
134.2341, 10613.70
134.7162, 11251.24
135.1983, 11905.72
135.6804, 12492.22
136.1626, 13011.09
136.6447, 13452.54
137.1268, 13802.16
137.6089, 14065.06
138.0910, 14207.43
138.5731, 14202.28
139.0553, 14039.15
139.5374, 13777.94
140.0195, 13407.91
140.5016, 12944.04
140.9837, 12452.80
141.4658, 11912.67
141.9480, 11371.45
142.4301, 10863.74
142.9122, 10392.17
143.3943, 9949.838
143.8764, 9527.844
144.3585, 9130.155
144.8407, 8778.123
145.3228, 8488.035
145.8049, 8233.729
146.2870, 7993.909
146.7691, 7768.953
147.2512, 7561.876
147.7334, 7378.344
148.2155, 7221.118
148.6976, 7067.238
149.1797, 6906.059
149.6618, 6750.979
150.1439, 6620.954
150.6261, 6557.101
151.1082, 6482.896
151.5903, 6374.345
152.0724, 6205.369
152.5545, 6060.175
153.0366, 5956.616
153.5188, 5881.151
154.0009, 5807.475
154.4830, 5727.757
154.9651, 5651.384
155.4472, 5582.488
155.9293, 5530.402
156.4115, 5473.088
156.8936, 5401.877
157.3757, 5320.774
157.8578, 5242.663
158.3399, 5155.999
158.8221, 5082.442
159.3042, 5035.325
159.7863, 5045.532
160.2684, 5055.635
160.7505, 5043.821
161.2326, 5012.887
161.7148, 4985.229
162.1969, 4972.981
162.6790, 4967.434
163.1611, 4960.314
163.6432, 4941.721
164.1253, 4926.443
164.6075, 4922.826
165.0896, 4931.188
165.5717, 4944.720
166.0538, 4960.048
166.5359, 4978.129
167.0180, 5000.296
167.5002, 5030.505
167.9823, 5063.044
168.4644, 5091.874
168.9465, 5115.396
169.4286, 5143.268
169.9107, 5186.763
170.3929, 5239.834
170.8750, 5290.901
171.3571, 5324.172
171.8392, 5356.109
172.3213, 5405.142
172.8034, 5474.950
173.2856, 5555.617
173.7677, 5639.946
174.2498, 5728.292
174.7319, 5820.202
175.2140, 5904.898
175.6961, 5995.346
176.1783, 6114.008
176.6604, 6270.464
177.1425, 6443.792
177.6246, 6611.898
178.1067, 6773.896
178.5888, 6935.477
179.0710, 7083.970
179.5531, 7232.505
180.0352, 7410.438
180.5173, 7631.230
180.9994, 7876.287
181.4815, 8108.194
181.9637, 8329.585
182.4458, 8558.409
182.9279, 8811.438
183.4100, 9086.561
183.8921, 9380.090
184.3742, 9693.727
184.8564, 10024.59
185.3385, 10350.63
185.8206, 10672.74
186.3027, 11013.46
186.7848, 11406.46
187.2669, 11846.16
187.7491, 12301.68
188.2312, 12759.49
188.7133, 13222.55
189.1954, 13713.58
189.6775, 14231.26
190.1596, 14769.84
190.6418, 15332.57
191.1239, 15916.94
191.6060, 16515.61
192.0881, 17131.71
192.5702, 17762.78
193.0524, 18388.41
193.5345, 19006.69
194.0166, 19620.33
194.4987, 20228.61
194.9808, 20832.94
195.4629, 21413.09
195.9451, 21955.36
196.4272, 22466.70
196.9093, 22932.37
197.3914, 23346.53
197.8735, 23723.59
198.3556, 24104.80
198.8378, 24499.45
199.3199, 24832.71
199.8020, 25049.55
200.2841, 25141.90
200.7662, 25213.71
201.2483, 25277.67
201.7305, 25318.00
202.2126, 25297.32
202.6947, 25214.29
203.1768, 25075.21
203.6589, 24873.06
204.1410, 24602.49
204.6232, 24323.98
205.1053, 24054.23
205.5874, 23775.07
206.0695, 23415.48
206.5516, 22953.14
207.0337, 22468.94
207.5159, 22020.19
207.9980, 21629.12
208.4801, 21204.50
208.9622, 20721.61
209.4443, 20197.29
209.9264, 19717.27
210.4086, 19294.43
210.8907, 18888.33
211.3728, 18469.69
211.8549, 18024.33
212.3370, 17604.45
212.8191, 17222.45
213.3013, 16875.09
213.7834, 16500.85
214.2655, 16082.01
214.7476, 15663.16
215.2297, 15290.70
215.7118, 14976.94
216.1940, 14664.99
216.6761, 14344.01
217.1582, 14013.62
217.6403, 13695.62
218.1224, 13396.34
218.6045, 13105.92
219.0867, 12814.00
219.5688, 12518.36
220.0509, 12231.14
220.5330, 11960.56
221.0151, 11703.25
221.4972, 11455.43
221.9794, 11211.22
222.4615, 10980.63
222.9436, 10773.32
223.4257, 10598.57
223.9078, 10425.42
224.3899, 10246.33
224.8721, 10057.04
225.3542, 9886.742
225.8363, 9737.194
226.3184, 9603.509
226.8005, 9477.160
227.2827, 9356.871
227.7648, 9248.540
228.2469, 9157.932
228.7290, 9089.369
229.2111, 9006.472
229.6932, 8901.473
230.1754, 8789.433
230.6575, 8687.778
231.1396, 8596.938
231.6217, 8517.102
232.1038, 8448.532
232.5859, 8391.534
233.0681, 8344.780
233.5502, 8311.271
234.0323, 8285.971
234.5144, 8260.171
234.9965, 8227.491
235.4786, 8205.839
235.9608, 8205.065
236.4429, 8233.394
236.9250, 8242.598
237.4071, 8218.833
237.8892, 8184.474
238.3713, 8176.089
238.8535, 8206.336
239.3356, 8241.407
239.8177, 8270.213
240.2998, 8289.637
240.7819, 8315.587
241.2640, 8352.563
241.7462, 8393.860
242.2283, 8427.986
242.7104, 8451.802
243.1925, 8473.417
243.6746, 8492.619
244.1567, 8503.193
244.6389, 8535.420
245.1210, 8602.256
245.6031, 8682.888
246.0852, 8738.971
246.5673, 8758.765
247.0494, 8774.074
247.5316, 8797.757
248.0137, 8836.748
248.4958, 8859.018
248.9779, 8854.181
249.4600, 8838.344
249.9421, 8843.489
250.4243, 8883.099
250.9064, 8919.664
251.3885, 8940.288
251.8706, 8943.596
252.3527, 8933.355
252.8348, 8900.615
253.3170, 8859.926
253.7991, 8843.500
254.2812, 8871.360
254.7633, 8885.200
255.2454, 8854.792
255.7275, 8758.078
256.2097, 8703.212
256.6918, 8709.119
257.1739, 8744.464
257.6560, 8751.831
258.1381, 8724.737
258.6202, 8682.643
259.1024, 8628.148
259.5845, 8555.366
260.0666, 8497.620
260.5487, 8459.444
261.0308, 8433.008
261.5129, 8403.073
261.9951, 8369.868
262.4772, 8333.172
262.9593, 8292.165
263.4414, 8244.766
263.9235, 8202.044
264.4056, 8166.149
264.8878, 8132.415
265.3699, 8091.283
265.8520, 8040.269
266.3341, 7987.908
266.8162, 7935.930
267.2983, 7884.190
267.7805, 7836.492
268.2626, 7792.982
268.7447, 7753.824
269.2268, 7723.041
269.7089, 7705.953
270.1910, 7678.173
270.6732, 7624.593
271.1553, 7541.321
271.6374, 7473.243
272.1195, 7422.821
272.6016, 7383.876
273.0837, 7349.433
273.5659, 7319.986
274.0480, 7291.686
274.5301, 7262.761
275.0122, 7233.290
275.4943, 7204.989
275.9764, 7178.490
276.4586, 7151.973
276.9407, 7119.936
277.4228, 7081.264
277.9049, 7049.995
278.3870, 7033.820
278.8691, 7032.093
279.3513, 7029.360
279.8334, 7024.535
280.3155, 7021.504
280.7976, 7025.242
281.2798, 7035.779
281.7619, 7051.590
282.2440, 7073.054
282.7261, 7099.689
283.2082, 7125.800
283.6903, 7149.475
284.1725, 7179.662
284.6546, 7230.255
285.1367, 7300.214
285.6188, 7373.737
286.1009, 7445.426
286.5830, 7516.124
287.0652, 7589.845
287.5473, 7666.110
288.0294, 7744.234
288.5115, 7821.648
288.9936, 7899.376
289.4757, 7982.278
289.9579, 8073.496
290.4400, 8171.030
290.9221, 8271.321
291.4042, 8374.162
291.8863, 8482.350
292.3684, 8603.096
292.8506, 8732.932
293.3327, 8858.453
293.8148, 8975.324
294.2969, 9086.166
294.7790, 9200.661
295.2611, 9319.283
295.7433, 9431.697
296.2254, 9523.256
296.7075, 9602.606
297.1896, 9691.630
297.6717, 9808.007
298.1538, 9929.830
298.6360, 10019.55
299.1181, 10079.92
299.6002, 10133.62
300.0823, 10200.75
300.5644, 10273.94
301.0465, 10339.08
301.5287, 10388.19
302.0108, 10433.08
302.4929, 10491.74
302.9750, 10560.84
303.4571, 10617.93
303.9392, 10644.86
304.4214, 10652.09
304.9035, 10654.06
305.3856, 10654.45
305.8677, 10649.80
306.3498, 10633.82
306.8319, 10609.31
307.3141, 10585.80
307.7962, 10576.87
308.2783, 10568.26
308.7604, 10545.06
309.2425, 10501.78
309.7246, 10450.00
310.2068, 10387.35
310.6889, 10320.57
311.1710, 10266.43
311.6531, 10253.62
312.1352, 10243.86
312.6173, 10207.04
313.0995, 10131.88
313.5816, 10049.88
314.0637, 9969.129
314.5458, 9891.782
315.0279, 9821.130
315.5100, 9767.072
315.9922, 9713.543
316.4743, 9649.592
316.9564, 9569.864
317.4385, 9496.742
317.9206, 9441.586
318.4027, 9396.549
318.8849, 9350.667
319.3670, 9291.217
319.8491, 9239.025
320.3312, 9206.704
320.8133, 9199.949
321.2954, 9182.735
321.7776, 9138.611
322.2597, 9084.132
322.7418, 9036.943
323.2239, 9009.747
323.7060, 8979.918
324.1881, 8940.815
324.6703, 8891.359
325.1524, 8843.827
325.6345, 8805.993
326.1166, 8767.249
326.5987, 8718.716
327.0808, 8656.037
327.5630, 8588.814
328.0451, 8521.070
328.5272, 8452.156
329.0093, 8366.387
329.4914, 8253.388
329.9735, 8135.050
330.4557, 8026.965
330.9378, 7940.858
331.4199, 7844.050
331.9020, 7731.026
332.3841, 7604.486
332.8662, 7477.011
333.3484, 7350.169
333.8305, 7221.897
334.3126, 7088.446
334.7947, 6947.480
335.2768, 6813.030
335.7589, 6687.533
336.2411, 6568.251
336.7232, 6444.059
337.2053, 6313.726
337.6874, 6184.640
338.1695, 6056.055
338.6516, 5927.382
339.1338, 5814.883
339.6159, 5722.373
340.0980, 5642.061
340.5801, 5565.770
341.0622, 5493.342
341.5443, 5417.440
342.0265, 5327.595
342.5086, 5227.635
342.9907, 5147.954
343.4728, 5091.735
343.9549, 5045.984
344.4370, 4996.839
344.9192, 4944.967
345.4013, 4893.937
345.8834, 4843.786
346.3655, 4796.374
346.8476, 4760.151
347.3297, 4735.487
347.8119, 4714.773
348.2940, 4685.996
348.7761, 4654.967
349.2582, 4641.472
349.7403, 4662.299
350.2225, 4691.304
350.7046, 4684.260
351.1867, 4645.890
351.6688, 4613.127
352.1509, 4619.453
352.6331, 4646.559
353.1152, 4665.211
353.5973, 4662.161
354.0794, 4661.919
354.5615, 4693.793
355.0436, 4748.077
355.5258, 4795.228
356.0079, 4811.134
356.4900, 4817.176
356.9721, 4831.071
357.4542, 4855.689
357.9363, 4887.653
358.4185, 4929.838
358.9006, 4977.592
359.3827, 5022.867
359.8648, 5059.817
360.3469, 5095.626
360.8290, 5132.728
361.3112, 5170.975
361.7933, 5214.509
362.2754, 5265.850
362.7575, 5323.002
363.2396, 5384.056
363.7217, 5460.940
364.2039, 5528.514
364.6860, 5576.973
365.1681, 5606.186
365.6502, 5635.818
366.1323, 5670.018
366.6144, 5704.438
367.0966, 5736.104
367.5787, 5752.575
368.0608, 5781.224
368.5429, 5830.215
369.0250, 5895.003
369.5071, 5951.649
369.9893, 6002.255
370.4714, 6042.169
370.9535, 6067.520
371.4356, 6069.628
371.9177, 6076.950
372.3998, 6093.761
372.8820, 6114.007
373.3641, 6123.574
373.8462, 6119.743
374.3283, 6112.396
374.8104, 6107.237
375.2925, 6105.431
375.7747, 6090.293
376.2568, 6059.386
376.7389, 6019.750
377.2210, 5977.919
377.7031, 5933.210
378.1852, 5896.584
378.6674, 5872.848
379.1495, 5859.710
379.6316, 5848.957
380.1137, 5841.457
380.5958, 5829.271
381.0779, 5797.608
381.5601, 5751.931
382.0422, 5722.935
382.5243, 5722.365
383.0064, 5734.513
383.4885, 5734.689
383.9706, 5723.824
384.4528, 5708.815
384.9349, 5687.280
385.4170, 5666.366
385.8991, 5659.324
386.3812, 5671.206
386.8633, 5686.803
387.3455, 5694.018
387.8276, 5694.187
388.3097, 5690.400
388.7918, 5677.490
389.2739, 5665.556
389.7560, 5662.318
390.2382, 5668.512
390.7203, 5681.691
391.2024, 5700.242
391.6845, 5725.039
392.1666, 5757.417
392.6487, 5804.199
393.1309, 5852.591
393.6130, 5895.123
394.0951, 5932.843
394.5772, 5976.741
395.0593, 6021.555
395.5414, 6078.573
396.0236, 6154.564
396.5057, 6277.638
396.9878, 6387.875
397.4699, 6465.544
397.9520, 6524.122
398.4341, 6605.053
398.9163, 6721.388
399.3984, 6846.595
399.8805, 6973.163
400.3626, 7104.661
400.8447, 7225.638
401.3268, 7327.493
401.8090, 7425.060
402.2911, 7542.869
402.7732, 7686.801
403.2553, 7832.553
403.7374, 7973.581
404.2195, 8110.243
404.7017, 8249.483
405.1838, 8392.753
405.6659, 8536.264
406.1480, 8673.940
406.6301, 8806.136
407.1122, 8947.792
407.5944, 9103.946
408.0765, 9269.328
408.5586, 9425.828
409.0407, 9574.364
409.5228, 9730.601
410.0049, 9906.816
410.4871, 10097.08
410.9692, 10290.27
411.4513, 10488.04
411.9334, 10679.52
412.4155, 10846.69
412.8976, 10999.87
413.3798, 11161.84
413.8619, 11356.28
414.3440, 11560.24
414.8261, 11747.93
415.3082, 11919.76
415.7903, 12099.82
416.2725, 12310.07
416.7546, 12536.40
417.2367, 12767.74
417.7188, 12997.37
418.2009, 13228.67
418.6830, 13459.64
419.1652, 13692.40
419.6473, 13925.67
420.1294, 14159.67
420.6115, 14395.66
421.0937, 14639.16
421.5758, 14891.24
422.0579, 15139.63
422.5400, 15381.83
423.0221, 15620.01
423.5042, 15862.80
423.9864, 16103.74
424.4685, 16354.25
424.9506, 16627.01
425.4327, 16921.82
425.9148, 17195.06
426.3969, 17441.93
426.8791, 17672.61
427.3612, 17889.05
427.8433, 18081.90
428.3254, 18289.39
428.8075, 18521.65
429.2896, 18769.70
429.7718, 19002.40
430.2539, 19222.11
430.7360, 19417.54
431.2181, 19568.22
431.7002, 19678.11
432.1823, 19812.29
432.6645, 19982.44
433.1466, 20149.23
433.6287, 20253.15
434.1108, 20302.51
434.5929, 20337.90
435.0750, 20376.57
435.5572, 20410.85
436.0393, 20426.46
436.5214, 20423.78
437.0035, 20410.31
437.4856, 20414.93
437.9677, 20405.88
438.4499, 20332.49
438.9320, 20151.75
439.4141, 19955.13
439.8962, 19807.30
440.3783, 19694.98
440.8604, 19579.48
441.3426, 19466.70
441.8247, 19330.24
442.3068, 19149.20
442.7889, 18912.73
443.2710, 18673.31
443.7531, 18444.68
444.2353, 18220.90
444.7174, 17991.40
445.1995, 17734.52
445.6816, 17497.53
446.1637, 17300.13
446.6458, 17138.61
447.1280, 16951.69
447.6101, 16710.94
448.0922, 16475.31
448.5743, 16280.37
449.0564, 16137.00
449.5385, 16001.88
450.0207, 15877.75
450.5028, 15758.23
450.9849, 15628.24
451.4670, 15484.55
451.9491, 15353.02
452.4312, 15247.46
452.9134, 15164.58
453.3955, 15072.16
453.8776, 14968.37
454.3597, 14870.10
454.8418, 14795.27
455.3239, 14740.83
455.8061, 14696.68
456.2882, 14658.20
456.7703, 14631.70
457.2524, 14625.22
457.7345, 14638.08
458.2166, 14667.96
458.6988, 14712.13
459.1809, 14773.24
459.6630, 14848.62
460.1451, 14936.04
460.6272, 15058.35
461.1093, 15238.92
461.5915, 15459.38
462.0736, 15693.71
462.5557, 15929.61
463.0378, 16181.75
463.5199, 16458.01
464.0020, 16754.88
464.4842, 17057.10
464.9663, 17331.73
465.4484, 17630.25
465.9305, 17984.20
466.4126, 18443.83
466.8947, 18879.35
467.3769, 19278.84
467.8590, 19657.79
468.3411, 20048.53
468.8232, 20460.84
469.3053, 20862.87
469.7874, 21253.13
470.2696, 21630.63
470.7517, 21974.52
471.2338, 22279.50
471.7159, 22564.55
472.1980, 22855.18
472.6801, 23150.74
473.1623, 23381.01
473.6444, 23535.74
474.1265, 23626.03
474.6086, 23668.67
475.0907, 23663.33
475.5728, 23607.84
476.0550, 23515.94
476.5371, 23367.19
477.0192, 23119.71
477.5013, 22770.76
477.9834, 22375.20
478.4655, 21975.31
478.9477, 21552.38
479.4298, 21086.05
479.9119, 20541.41
480.3940, 19980.71
480.8761, 19437.64
481.3582, 18906.60
481.8404, 18378.06
482.3225, 17837.63
482.8046, 17308.74
483.2867, 16800.25
483.7688, 16319.52
484.2509, 15836.87
484.7331, 15325.10
485.2152, 14825.14
485.6973, 14366.34
486.1794, 13972.46
486.6615, 13577.38
487.1436, 13164.41
487.6258, 12740.88
488.1079, 12341.22
488.5900, 11971.86
489.0721, 11615.09
489.5542, 11263.66
490.0363, 10916.09
490.5185, 10570.76
491.0006, 10228.17
491.4827, 9895.714
491.9648, 9592.155
492.4470, 9313.149
492.9291, 9039.257
493.4112, 8763.289
493.8933, 8495.569
494.3754, 8263.861
494.8575, 8062.698
495.3397, 7871.642
495.8218, 7672.286
496.3039, 7474.880
496.7860, 7293.635
497.2681, 7129.846
497.7502, 6973.962
498.2324, 6816.000
498.7145, 6663.165
499.1966, 6522.190
499.6787, 6401.484
500.1608, 6288.185
500.6429, 6178.598
501.1251, 6072.783
501.6072, 5973.954
502.0893, 5887.271
502.5714, 5801.875
503.0535, 5710.642
503.5356, 5602.845
504.0178, 5517.049
504.4999, 5463.430
504.9820, 5423.315
505.4641, 5365.464
505.9462, 5285.759
506.4283, 5210.921
506.9105, 5150.187
507.3926, 5100.325
507.8747, 5047.925
508.3568, 4992.484
508.8389, 4940.447
509.3210, 4897.603
509.8032, 4861.065
510.2853, 4822.408
510.7674, 4780.418
511.2495, 4736.978
511.7316, 4688.118
512.2137, 4639.361
512.6959, 4602.604
513.1780, 4591.567
513.6601, 4586.370
514.1422, 4576.290
514.6243, 4561.267
515.1064, 4542.162
515.5886, 4512.563
516.0707, 4483.622
516.5528, 4463.828
517.0349, 4463.227
517.5170, 4452.569
517.9991, 4415.796
518.4813, 4372.746
518.9634, 4349.096
519.4455, 4354.389
519.9276, 4363.098
520.4097, 4372.320
520.8918, 4381.148
521.3740, 4384.109
521.8561, 4380.324
522.3382, 4373.588
522.8203, 4362.200
523.3024, 4347.225
523.7845, 4347.464
524.2667, 4366.175
524.7488, 4391.905
525.2309, 4412.548
525.7130, 4429.114
526.1951, 4444.275
526.6772, 4455.187
527.1594, 4469.035
527.6415, 4499.417
528.1236, 4541.902
528.6057, 4577.729
529.0878, 4586.165
529.5699, 4590.072
530.0521, 4607.041
530.5342, 4641.865
531.0163, 4678.848
531.4984, 4712.127
531.9805, 4745.725
532.4626, 4784.048
532.9448, 4829.446
533.4269, 4877.580
533.9090, 4928.222
534.3911, 4981.268
534.8732, 5033.812
535.3553, 5084.292
535.8375, 5138.438
536.3196, 5197.296
536.8017, 5261.467
537.2838, 5335.930
537.7659, 5425.009
538.2480, 5512.433
538.7302, 5569.274
539.2123, 5603.477
539.6944, 5669.366
540.1765, 5787.532
540.6586, 5926.276
541.1407, 6045.941
541.6229, 6150.801
542.1050, 6258.042
542.5871, 6382.957
543.0692, 6510.581
543.5513, 6622.575
544.0334, 6717.301
544.5156, 6819.148
544.9977, 6938.987
545.4798, 7070.953
545.9619, 7209.458
546.4440, 7355.954
546.9261, 7505.365
547.4083, 7655.743
547.8904, 7809.646
548.3725, 7969.268
548.8546, 8139.725
549.3367, 8309.110
549.8188, 8473.598
550.3010, 8633.895
550.7831, 8800.113
551.2652, 8975.214
551.7473, 9147.031
552.2294, 9304.955
552.7115, 9450.357
553.1937, 9588.231
553.6758, 9717.473
554.1579, 9845.422
554.6400, 9987.380
555.1221, 10136.62
555.6042, 10271.62
556.0864, 10388.40
556.5685, 10486.10
557.0506, 10552.38
557.5327, 10595.25
558.0148, 10643.37
558.4969, 10737.71
558.9791, 10821.46
559.4612, 10852.81
559.9433, 10816.59
560.4254, 10785.18
560.9075, 10788.91
561.3896, 10793.07
561.8718, 10766.81
562.3539, 10690.33
562.8360, 10617.26
563.3181, 10556.04
563.8002, 10499.18
564.2823, 10427.03
564.7645, 10338.60
565.2466, 10242.26
565.7287, 10145.28
566.2108, 10043.95
566.6929, 9916.438
567.1750, 9762.859
567.6572, 9603.439
568.1393, 9461.096
568.6214, 9326.466
569.1035, 9184.644
569.5856, 9030.374
570.0677, 8875.250
570.5499, 8725.243
571.0320, 8579.724
571.5141, 8436.692
571.9962, 8295.658
572.4783, 8156.715
572.9604, 8022.544
573.4426, 7892.638
573.9247, 7760.505
574.4068, 7618.542
574.8889, 7481.611
575.3710, 7358.741
575.8531, 7256.563
576.3353, 7140.183
576.8174, 7003.080
577.2995, 6863.107
577.7816, 6734.498
578.2637, 6618.101
578.7458, 6512.494
579.2280, 6420.799
579.7101, 6333.714
580.1922, 6232.085
580.6743, 6118.743
581.1564, 6009.668
581.6385, 5916.186
582.1207, 5828.851
582.6028, 5734.118
583.0849, 5634.311
583.5670, 5541.109
584.0491, 5470.053
584.5313, 5403.073
585.0134, 5323.458
585.4955, 5221.812
585.9776, 5130.962
586.4597, 5073.104
586.9418, 5024.906
587.4240, 4959.834
587.9061, 4856.659
588.3882, 4768.195
588.8703, 4704.266
589.3524, 4657.513
589.8345, 4605.986
590.3167, 4547.760
590.7988, 4491.867
591.2809, 4444.969
591.7630, 4404.479
592.2451, 4358.364
592.7272, 4306.406
593.2094, 4254.086
593.6915, 4204.393
594.1736, 4157.897
594.6557, 4116.525
595.1378, 4082.647
595.6199, 4048.501
596.1021, 4004.102
596.5842, 3957.083
597.0663, 3918.178
597.5485, 3892.881
598.0306, 3874.814
598.5127, 3867.350
598.9948, 3866.988
599.4769, 3858.447
599.9590, 3832.477
600.4412, 3808.152
600.9233, 3791.237
601.4054, 3781.767
601.8875, 3778.096
602.3696, 3781.263
602.8517, 3787.786
603.3339, 3794.368
603.8160, 3801.262
604.2981, 3810.622
604.7802, 3821.736
605.2623, 3838.469
605.7444, 3865.345
606.2266, 3901.935
606.7087, 3945.933
607.1908, 4004.178
607.6729, 4062.411
608.1550, 4105.833
608.6371, 4139.381
609.1193, 4180.612
609.6014, 4240.042
610.0835, 4305.626
610.5656, 4369.543
611.0477, 4429.990
611.5298, 4500.375
612.0120, 4586.699
612.4941, 4676.658
612.9762, 4762.435
613.4583, 4844.717
613.9404, 4919.300
614.4225, 4985.235
614.9047, 5044.012
615.3868, 5093.226
615.8689, 5134.790
616.3510, 5190.781
616.8331, 5277.614
617.3152, 5368.962
617.7974, 5425.532
618.2795, 5451.422
618.7616, 5465.963
619.2437, 5476.503
619.7258, 5482.040
620.2079, 5484.610
620.6901, 5484.032
621.1722, 5469.225
621.6543, 5438.881
622.1364, 5391.075
622.6185, 5322.436
623.1006, 5218.888
623.5828, 5126.574
624.0649, 5057.667
624.5470, 4988.824
625.0291, 4889.892
625.5112, 4755.737
625.9933, 4617.443
626.4755, 4479.712
626.9576, 4344.248
627.4397, 4218.681
627.9218, 4101.478
628.4039, 3980.934
628.8860, 3834.862
629.3682, 3690.270
629.8503, 3593.904
630.3324, 3539.612
630.8145, 3483.589
631.2966, 3389.490
631.7787, 3292.836
632.2609, 3220.926
632.7430, 3183.433
633.2251, 3145.999
633.7072, 3099.651
634.1893, 3052.777
634.6714, 3012.455
635.1536, 2982.986
635.6357, 2949.947
636.1178, 2910.476
636.5999, 2869.332
637.0820, 2836.424
637.5641, 2812.255
638.0463, 2787.250
638.5284, 2755.574
639.0105, 2723.290
639.4926, 2705.507
639.9747, 2699.433
640.4568, 2689.480
640.9390, 2661.264
641.4211, 2627.813
641.9032, 2600.421
642.3853, 2579.997
642.8674, 2563.067
643.3495, 2551.575
643.8317, 2540.936
644.3138, 2527.619
644.7959, 2508.741
645.2780, 2492.517
645.7601, 2482.582
646.2422, 2472.192
646.7244, 2450.852
647.2065, 2415.081
647.6886, 2387.924
648.1707, 2375.490
648.6528, 2371.100
649.1349, 2362.627
649.6171, 2350.277
650.0992, 2335.380
650.5813, 2316.430
651.0634, 2296.587
651.5455, 2277.706
652.0276, 2260.481
652.5098, 2249.594
652.9919, 2253.586
653.4740, 2259.958
653.9561, 2260.982
654.4382, 2255.196
654.9203, 2248.328
655.4025, 2241.247
655.8846, 2233.165
656.3667, 2222.686
656.8488, 2206.631
657.3309, 2198.678
657.8130, 2201.725
658.2952, 2208.425
658.7773, 2207.526
659.2594, 2199.800
659.7415, 2194.902
660.2236, 2196.503
660.7057, 2200.150
661.1879, 2199.060
661.6700, 2194.731
662.1521, 2191.353
662.6342, 2195.370
663.1163, 2197.171
663.5984, 2186.683
664.0806, 2166.111
664.5627, 2153.940
665.0448, 2160.287
665.5269, 2171.243
666.0090, 2181.542
666.4911, 2191.208
666.9733, 2198.947
667.4554, 2203.386
667.9375, 2208.620
668.4196, 2221.134
668.9017, 2240.390
669.3839, 2246.438
669.8660, 2235.372
670.3481, 2221.094
670.8302, 2220.303
671.3123, 2228.460
671.7944, 2235.856
672.2766, 2239.292
672.7587, 2241.414
673.2408, 2241.381
673.7229, 2241.584
674.2050, 2246.679
674.6871, 2267.442
675.1693, 2282.943
675.6514, 2285.241
676.1335, 2277.015
676.6156, 2271.130
677.0977, 2266.237
677.5798, 2267.076
678.0620, 2280.031
678.5441, 2302.597
679.0262, 2305.130
679.5083, 2286.327
679.9904, 2269.205
680.4725, 2276.718
680.9547, 2297.073
681.4368, 2308.615
681.9189, 2307.831
682.4010, 2307.264
682.8831, 2319.300
683.3652, 2333.854
683.8474, 2340.286
684.3295, 2329.314
684.8116, 2321.130
685.2937, 2320.904
685.7758, 2324.013
686.2579, 2324.697
686.7401, 2322.460
687.2222, 2318.940
687.7043, 2313.698
688.1864, 2308.052
688.6685, 2304.691
689.1506, 2303.651
689.6328, 2305.662
690.1149, 2314.950
690.5970, 2324.958
691.0791, 2324.148
691.5612, 2314.398
692.0433, 2305.382
692.5255, 2307.136
693.0076, 2307.257
693.4897, 2294.090
693.9718, 2264.897
694.4539, 2247.429
694.9360, 2253.563
695.4182, 2264.805
695.9003, 2272.411
696.3824, 2276.365
696.8645, 2276.461
697.3466, 2273.039
697.8287, 2264.859
698.3109, 2247.658
698.7930, 2223.541
699.2751, 2203.705
699.7572, 2190.552
700.2393, 2181.006
700.7214, 2170.419
701.2036, 2161.615
701.6857, 2159.494
702.1678, 2175.729
702.6499, 2187.349
703.1320, 2183.166
703.6141, 2168.106
704.0963, 2154.404
704.5784, 2142.583
705.0605, 2132.386
705.5426, 2123.473
706.0247, 2116.142
706.5068, 2112.971
706.9890, 2114.628
707.4711, 2114.737
707.9532, 2110.316
708.4353, 2101.858
708.9174, 2087.858
709.3995, 2069.211
709.8817, 2055.355
710.3638, 2056.979
710.8459, 2063.662
711.3280, 2065.703
711.8101, 2061.322
712.2922, 2059.363
712.7744, 2068.109
713.2565, 2075.753
713.7386, 2073.346
714.2207, 2052.592
714.7028, 2044.669
715.1849, 2054.747
715.6671, 2068.548
716.1492, 2067.969
716.6313, 2054.571
717.1134, 2048.211
717.5955, 2054.115
718.0776, 2062.100
718.5598, 2058.043
719.0419, 2047.189
719.5240, 2039.833
720.0061, 2043.609
720.4882, 2046.782
720.9703, 2044.417
721.4525, 2037.494
721.9346, 2028.107
722.4167, 2007.538
722.8988, 1996.483
723.3809, 2001.926
723.8630, 2019.440
724.3452, 2031.067
724.8273, 2035.991
725.3094, 2040.729
725.7915, 2049.873
726.2736, 2060.394
726.7557, 2063.901
727.2379, 2060.979
727.7200, 2056.243
728.2021, 2048.282
728.6842, 2042.900
729.1663, 2047.165
729.6484, 2061.974
730.1306, 2073.081
730.6127, 2070.631
731.0948, 2068.238
731.5769, 2074.516
732.0590, 2093.481
732.5411, 2104.081
733.0233, 2104.572
733.5054, 2100.612
733.9875, 2097.172
734.4696, 2093.947
734.9517, 2087.178
735.4338, 2075.217
735.9160, 2066.934
736.3981, 2073.406
736.8802, 2088.731
737.3623, 2104.887
737.8444, 2122.599
738.3266, 2135.313
738.8087, 2133.415
739.2908, 2127.551
739.7729, 2134.167
740.2551, 2166.807
740.7372, 2188.149
741.2193, 2192.231
741.7014, 2184.235
742.1835, 2171.547
742.6656, 2154.116
743.1478, 2143.884
743.6299, 2145.285
744.1120, 2155.047
744.5941, 2173.785
745.0762, 2197.326
745.5583, 2213.299
746.0405, 2207.475
746.5226, 2199.741
747.0047, 2201.225
747.4868, 2210.691
747.9689, 2219.602
748.4510, 2226.237
748.9332, 2232.977
749.4153, 2240.760
749.8974, 2249.403
750.3795, 2257.570
750.8616, 2265.448
751.3438, 2271.236
751.8259, 2270.569
752.3080, 2267.605
752.7901, 2273.809
753.2722, 2288.964
753.7543, 2304.163
754.2365, 2315.647
754.7186, 2323.229
755.2007, 2324.766
755.6828, 2318.256
756.1649, 2316.858
756.6470, 2323.041
757.1292, 2334.745
757.6113, 2353.351
758.0934, 2383.403
758.5755, 2397.408
759.0576, 2391.567
759.5397, 2382.773
760.0219, 2391.403
760.5040, 2411.727
760.9861, 2423.787
761.4682, 2422.592
761.9503, 2422.916
762.4324, 2441.251
762.9146, 2465.721
763.3967, 2481.757
763.8788, 2475.159
764.3609, 2477.476
764.8430, 2503.844
765.3251, 2535.925
765.8073, 2547.042
766.2894, 2522.072
766.7715, 2397.253
767.2536, 2534.077
767.7357, 2624.333
768.2178, 2668.647
768.7000, 2633.851
769.1821, 2621.327
769.6642, 2551.050
770.1463, 2675.554
770.6284, 2686.600
771.1105, 2708.939
771.5927, 2726.283
772.0748, 2718.883
772.5569, 2723.488
773.0390, 2756.087
773.5211, 2804.937
774.0032, 2838.919
774.4854, 2852.756
774.9675, 2871.788
775.4496, 2905.017
775.9317, 2947.031
776.4138, 2986.431
776.8959, 3022.755
777.3781, 3055.350
777.8602, 3071.656
778.3423, 3093.827
778.8244, 3147.668
779.3065, 3225.803
779.7886, 3296.421
780.2708, 3338.867
780.7529, 3383.975
781.2350, 3443.938
781.7171, 3516.948
782.1992, 3584.977
782.6813, 3644.853
783.1635, 3709.865
783.6456, 3787.208
784.1277, 3874.461
784.6098, 3969.625
785.0919, 4071.378
785.5740, 4170.057
786.0562, 4246.679
786.5383, 4328.192
787.0204, 4442.417
787.5025, 4591.502
787.9846, 4731.797
788.4667, 4842.074
788.9489, 4951.374
789.4310, 5073.535
789.9131, 5208.418
790.3952, 5335.988
790.8773, 5450.497
791.3594, 5579.745
791.8416, 5757.970
792.3237, 5963.940
792.8058, 6133.708
793.2879, 6266.259
793.7700, 6406.326
794.2521, 6603.037
794.7343, 6808.959
795.2164, 6973.943
795.6985, 7077.341
796.1806, 7220.223
796.6627, 7434.788
797.1448, 7667.723
797.6270, 7887.649
798.1091, 8095.091
798.5912, 8280.887
799.0733, 8443.506
799.5554, 8601.946
800.0375, 8773.328
800.5197, 8952.347
801.0018, 9131.190
801.4839, 9308.136
801.9660, 9482.026
802.4481, 9644.012
802.9302, 9807.673
803.4124, 9987.134
803.8945, 10203.21
804.3766, 10390.29
804.8587, 10535.70
805.3408, 10668.63
805.8229, 10818.20
806.3051, 10984.22
806.7872, 11136.77
807.2693, 11273.84
807.7514, 11396.83
808.2335, 11495.86
808.7156, 11587.57
809.1978, 11699.58
809.6799, 11843.96
810.1620, 11987.30
810.6441, 12121.08
811.1262, 12244.51
811.6083, 12354.77
812.0905, 12445.21
812.5726, 12538.58
813.0547, 12630.71
813.5368, 12732.82
814.0189, 12869.05
814.5010, 13030.83
814.9832, 13166.78
815.4653, 13265.65
815.9474, 13348.39
816.4295, 13422.92
816.9116, 13498.47
817.3937, 13587.72
817.8759, 13699.62
818.3580, 13812.18
818.8401, 13918.75
819.3222, 14024.37
819.8043, 14134.79
820.2864, 14250.92
820.7686, 14369.12
821.2507, 14489.24
821.7328, 14607.93
822.2149, 14727.21
822.6970, 14839.28
823.1791, 14920.05
823.6613, 14951.54
824.1434, 14990.49
824.6255, 15079.16
825.1076, 15193.26
825.5897, 15304.28
826.0718, 15402.29
826.5540, 15504.99
827.0361, 15609.49
827.5182, 15723.75
828.0003, 15867.71
828.4824, 16039.67
828.9645, 16191.19
829.4467, 16313.44
829.9288, 16417.23
830.4109, 16492.55
830.8930, 16564.30
831.3751, 16674.65
831.8572, 16846.86
832.3394, 17027.79
832.8215, 17204.86
833.3036, 17380.02
833.7857, 17557.38
834.2678, 17735.66
834.7499, 17913.12
835.2321, 18088.13
835.7142, 18263.16
836.1963, 18444.41
836.6784, 18629.50
837.1605, 18801.92
837.6426, 18954.18
838.1248, 19106.67
838.6069, 19283.52
839.0890, 19465.11
839.5711, 19626.88
840.0532, 19752.27
840.5353, 19878.28
841.0175, 20005.74
841.4996, 20136.84
841.9817, 20282.23
842.4638, 20444.95
842.9459, 20558.21
843.4280, 20611.38
843.9102, 20637.31
844.3923, 20673.08
844.8744, 20705.47
845.3565, 20708.98
845.8386, 20670.58
846.3207, 20634.06
846.8029, 20635.17
847.2850, 20633.84
847.7671, 20593.24
848.2492, 20493.84
848.7313, 20413.90
849.2134, 20368.54
849.6956, 20305.38
850.1777, 20161.28
850.6598, 19954.49
851.1419, 19746.35
851.6240, 19543.13
852.1061, 19341.26
852.5883, 19146.95
853.0704, 18944.93
853.5525, 18717.66
854.0346, 18460.72
854.5167, 18188.47
854.9988, 17890.30
855.4810, 17592.96
855.9631, 17318.40
856.4452, 17066.15
856.9273, 16782.71
857.4094, 16465.40
857.8915, 16150.25
858.3737, 15879.38
858.8558, 15628.68
859.3379, 15365.95
859.8200, 15088.32
860.3021, 14818.57
860.7842, 14581.34
861.2664, 14346.57
861.7485, 14097.23
862.2306, 13827.26
862.7127, 13585.05
863.1948, 13370.79
863.6769, 13175.10
864.1591, 12997.96
864.6412, 12831.15
865.1233, 12647.12
865.6054, 12444.98
866.0875, 12245.49
866.5696, 12051.10
867.0518, 11868.54
867.5339, 11705.03
868.0160, 11560.17
868.4981, 11416.28
868.9802, 11274.72
869.4623, 11129.78
869.9445, 10976.47
870.4266, 10818.80
870.9087, 10678.59
871.3908, 10552.74
871.8729, 10427.89
872.3550, 10301.06
872.8372, 10165.47
873.3193, 10004.87
873.8014, 9825.463
874.2835, 9669.247
874.7656, 9562.523
875.2477, 9461.354
875.7299, 9361.759
876.2120, 9258.462
876.6941, 9114.980
877.1762, 8931.995
877.6583, 8773.155
878.1404, 8679.797
878.6226, 8613.034
879.1047, 8525.834
879.5869, 8424.052
880.0690, 8320.672
880.5511, 8228.781
881.0332, 8126.327
881.5153, 7990.698
881.9974, 7845.710
882.4796, 7743.360
882.9617, 7693.814
883.4438, 7626.529
883.9259, 7519.074
884.4080, 7400.107
884.8901, 7319.621
885.3723, 7263.428
885.8544, 7197.830
886.3365, 7106.944
886.8186, 7012.531
887.3007, 6923.838
887.7828, 6838.311
888.2650, 6751.428
888.7471, 6659.447
889.2292, 6579.509
889.7113, 6515.894
890.1934, 6457.836
890.6755, 6389.714
891.1577, 6314.991
891.6398, 6242.506
892.1219, 6175.010
892.6040, 6107.604
893.0861, 6036.462
893.5682, 5965.048
894.0504, 5896.363
894.5325, 5830.208
895.0146, 5770.513
895.4967, 5721.103
895.9788, 5671.279
896.4609, 5611.106
896.9431, 5542.455
897.4252, 5479.253
897.9073, 5422.312
898.3894, 5364.286
898.8715, 5289.757
899.3536, 5217.379
899.8358, 5166.366
900.3179, 5141.283
900.8000, 5104.862
901.2821, 5049.919
901.7642, 4988.928
902.2463, 4924.104
902.7285, 4857.697
903.2106, 4798.863
903.6927, 4747.698
904.1748, 4700.161
904.6569, 4652.274
905.1390, 4607.313
905.6212, 4573.916
906.1033, 4547.993
906.5854, 4509.701
907.0675, 4437.233
907.5496, 4372.356
908.0317, 4330.644
908.5139, 4301.235
908.9960, 4242.843
909.4781, 4155.526
909.9602, 4088.130
910.4423, 4067.751
910.9244, 4060.293
911.4066, 4024.792
911.8887, 3972.586
912.3708, 3923.971
912.8529, 3889.422
913.3350, 3854.717
913.8171, 3815.382
914.2993, 3776.303
914.7814, 3743.993
915.2635, 3718.609
915.7456, 3700.086
916.2277, 3690.637
916.7098, 3678.265
917.1920, 3647.115
917.6741, 3605.029
918.1562, 3562.485
918.6383, 3520.882
919.1204, 3483.152
919.6025, 3446.898
920.0847, 3417.939
920.5668, 3402.361
921.0489, 3402.993
921.5310, 3396.458
922.0131, 3382.455
922.4952, 3364.268
922.9774, 3339.690
923.4595, 3315.022
923.9416, 3302.417
924.4237, 3301.561
924.9058, 3296.789
925.3879, 3278.000
925.8701, 3257.704
926.3522, 3240.643
926.8343, 3226.547
927.3164, 3213.736
927.7985, 3202.136
928.2806, 3192.099
928.7628, 3185.924
929.2449, 3179.518
929.7270, 3164.888
930.2091, 3144.630
930.6912, 3125.353
931.1733, 3108.634
931.6555, 3094.902
932.1376, 3086.848
932.6197, 3080.882
933.1018, 3070.023
933.5839, 3052.884
934.0660, 3040.540
934.5482, 3034.887
935.0303, 3034.594
935.5124, 3043.950
935.9945, 3055.699
936.4766, 3056.030
936.9587, 3037.248
937.4409, 3019.616
937.9230, 3011.374
938.4051, 3005.315
938.8872, 2996.655
939.3693, 2985.675
939.8514, 2967.758
940.3336, 2941.743
940.8157, 2918.650
941.2978, 2908.341
941.7799, 2906.273
942.2620, 2907.760
942.7441, 2912.042
943.2263, 2913.913
943.7084, 2909.747
944.1905, 2904.451
944.6726, 2901.666
945.1547, 2899.825
945.6368, 2886.179
946.1190, 2859.594
946.6011, 2839.177
947.0832, 2839.230
947.5653, 2843.655
948.0474, 2827.820
948.5295, 2799.489
949.0117, 2776.719
949.4938, 2763.370
949.9759, 2760.254
950.4580, 2774.814
950.9401, 2793.517
951.4222, 2793.831
951.9044, 2775.409
952.3865, 2761.229
952.8686, 2755.634
953.3507, 2751.624
953.8328, 2740.552
954.3149, 2727.188
954.7971, 2719.220
955.2792, 2722.246
955.7613, 2714.596
956.2434, 2684.464
956.7255, 2653.415
957.2076, 2635.050
957.6898, 2628.911
958.1719, 2620.058
958.6540, 2608.476
959.1361, 2598.042
959.6182, 2591.000
960.1003, 2586.522
960.5825, 2586.999
961.0646, 2590.482
961.5467, 2585.600
962.0288, 2562.636
962.5109, 2542.874
962.9930, 2531.692
963.4752, 2526.765
963.9573, 2526.323
964.4394, 2528.580
964.9215, 2521.237
965.4036, 2494.822
965.8857, 2468.453
966.3679, 2458.188
966.8500, 2456.914
967.3321, 2455.640
967.8142, 2459.139
968.2963, 2449.714
968.7784, 2421.783
969.2606, 2392.188
969.7427, 2378.126
970.2248, 2376.881
970.7069, 2381.364
971.1890, 2390.879
971.6711, 2396.469
972.1533, 2384.884
972.6354, 2373.469
973.1175, 2376.385
973.5996, 2393.573
974.0817, 2404.401
974.5638, 2408.696
975.0460, 2406.310
975.5281, 2391.550
976.0102, 2375.279
976.4923, 2383.460
976.9744, 2409.830
977.4565, 2435.987
977.9387, 2451.329
978.4208, 2468.109
978.9029, 2485.470
979.3850, 2509.325
979.8671, 2550.549
980.3492, 2612.738
980.8314, 2668.442
981.3135, 2712.768
981.7956, 2759.780
982.2777, 2820.099
982.7598, 2895.879
983.2419, 2991.548
983.7241, 3108.742
984.2062, 3237.207
984.6883, 3382.857
985.1704, 3529.571
985.6525, 3661.266
986.1346, 3784.201
986.6168, 3968.482
987.0989, 4213.133
987.5810, 4487.349
988.0631, 4788.256
988.5452, 5099.398
989.0273, 5386.000
989.5095, 5668.848
989.9916, 5999.691
990.4737, 6420.877
990.9558, 6841.939
991.4379, 7245.053
991.9200, 7647.921
992.4022, 8085.030
992.8843, 8543.675
993.3664, 8990.710
993.8485, 9418.234
994.3306, 9817.146
994.8127, 10186.97
995.2949, 10521.30
995.7770, 10810.10
996.2591, 11054.23
996.7412, 11260.87
997.2233, 11438.18
997.7054, 11541.98
998.1876, 11535.38
998.6697, 11439.68
999.1518, 11300.50
999.6339, 11114.19
1000.116, 10866.40
1000.598, 10516.09
1001.080, 10140.15
1001.562, 9767.365
1002.044, 9382.789
1002.527, 8941.077
1003.009, 8441.720
1003.491, 7936.487
1003.973, 7439.214
1004.455, 6958.445
1004.937, 6512.567
1005.419, 6093.459
1005.901, 5695.380
1006.384, 5314.727
1006.866, 4972.278
1007.348, 4674.178
1007.830, 4407.384
1008.312, 4166.700
1008.794, 3952.109
1009.276, 3756.829
1009.758, 3582.002
1010.240, 3429.765
1010.723, 3310.486
1011.205, 3205.202
1011.687, 3101.146
1012.169, 3002.557
1012.651, 2920.396
1013.133, 2857.341
1013.615, 2800.813
1014.097, 2749.141
1014.580, 2702.610
1015.062, 2663.098
1015.544, 2629.249
1016.026, 2599.059
1016.508, 2573.004
1016.990, 2546.706
1017.472, 2512.729
1017.954, 2483.662
1018.436, 2467.673
1018.919, 2464.237
1019.401, 2460.025
1019.883, 2455.042
1020.365, 2447.698
1020.847, 2436.755
1021.329, 2423.281
1021.811, 2404.667
1022.293, 2384.651
1022.776, 2372.098
1023.258, 2370.072
1023.740, 2374.496
1024.222, 2388.486
1024.704, 2402.970
1025.186, 2404.147
1025.668, 2395.227
1026.150, 2384.840
1026.632, 2373.486
1027.115, 2370.132
1027.597, 2395.802
1028.079, 2417.933
1028.561, 2408.597
1029.043, 2369.851
1029.525, 2351.011
1030.007, 2353.841
1030.489, 2364.823
1030.972, 2382.260
1031.454, 2399.445
1031.936, 2399.426
1032.418, 2393.132
1032.900, 2403.844
1033.382, 2473.183
1033.864, 2509.143
1034.346, 2488.086
1034.828, 2451.509
1035.311, 2447.593
1035.793, 2471.189
1036.275, 2488.841
1036.757, 2497.964
1037.239, 2505.013
1037.721, 2510.514
1038.203, 2519.104
1038.685, 2536.510
1039.167, 2561.359
1039.650, 2579.035
1040.132, 2586.561
1040.614, 2599.074
1041.096, 2620.648
1041.578, 2650.972
1042.060, 2698.985
1042.542, 2752.639
1043.024, 2788.487
1043.507, 2785.311
1043.989, 2791.736
1044.471, 2818.825
1044.953, 2855.474
1045.435, 2895.976
1045.917, 2939.639
1046.399, 2979.500
1046.881, 3015.345
1047.364, 3049.035
1047.846, 3080.153
1048.328, 3111.092
1048.810, 3142.502
1049.292, 3175.115
1049.774, 3210.402
1050.256, 3246.895
1050.738, 3292.434
1051.220, 3350.821
1051.703, 3412.623
1052.185, 3461.259
1052.667, 3503.297
1053.149, 3549.248
1053.631, 3601.466
1054.113, 3656.289
1054.595, 3714.081
1055.077, 3772.907
1055.559, 3832.601
1056.042, 3892.378
1056.524, 3949.274
1057.006, 4003.797
1057.488, 4060.110
1057.970, 4119.873
1058.452, 4182.785
1058.934, 4251.115
1059.416, 4322.625
1059.899, 4391.901
1060.381, 4458.013
1060.863, 4526.103
1061.345, 4597.216
1061.827, 4668.522
1062.309, 4734.266
1062.791, 4801.051
1063.273, 4878.819
1063.755, 4968.846
1064.238, 5060.644
1064.720, 5159.851
1065.202, 5250.027
1065.684, 5321.506
1066.166, 5383.150
1066.648, 5463.678
1067.130, 5556.684
1067.612, 5636.625
1068.094, 5686.734
1068.577, 5742.778
1069.059, 5828.669
1069.541, 5930.436
1070.023, 6038.190
1070.505, 6156.811
1070.987, 6249.844
1071.469, 6315.780
1071.951, 6382.030
1072.434, 6480.392
1072.916, 6581.143
1073.398, 6642.413
1073.880, 6676.007
1074.362, 6723.935
1074.844, 6799.551
1075.326, 6887.161
1075.808, 6995.040
1076.291, 7097.931
1076.773, 7153.717
1077.255, 7176.989
1077.737, 7205.120
1078.219, 7242.758
1078.701, 7290.758
1079.183, 7368.305
1079.665, 7435.894
1080.147, 7470.371
1080.630, 7478.613
1081.112, 7503.070
1081.594, 7543.248
1082.076, 7586.125
1082.558, 7636.128
1083.040, 7669.044
1083.522, 7639.945
1084.004, 7590.975
1084.486, 7582.121
1084.969, 7640.247
1085.451, 7677.999
1085.933, 7692.859
1086.415, 7695.708
1086.897, 7687.314
1087.379, 7676.125
1087.861, 7683.229
1088.343, 7702.583
1088.826, 7707.612
1089.308, 7669.822
1089.790, 7641.643
1090.272, 7631.226
1090.754, 7635.877
1091.236, 7661.579
1091.718, 7700.477
1092.200, 7713.358
1092.682, 7692.918
1093.165, 7667.234
1093.647, 7648.189
1094.129, 7634.925
1094.611, 7630.234
1095.093, 7631.532
1095.575, 7617.961
1096.057, 7588.667
1096.539, 7566.726
1097.022, 7565.673
1097.504, 7566.293
1097.986, 7541.076
1098.468, 7508.573
1098.950, 7498.372
1099.432, 7538.677
1099.914, 7523.007
1100.396, 7423.973
1100.879, 7261.703
1101.361, 7286.208
1101.843, 7288.021
1102.325, 7268.372
1102.807, 7162.950
1103.289, 7168.284
1103.771, 7129.228
1104.253, 7088.352
1104.735, 7109.272
1105.218, 7016.269
1105.700, 7036.210
1106.182, 7041.100
1106.664, 7019.970
1107.146, 7023.480
1107.628, 7008.089
1108.110, 6917.789
1108.592, 6830.415
1109.074, 6802.635
1109.557, 6813.657
1110.039, 6778.177
1110.521, 6695.360
1111.003, 6605.699
1111.485, 6518.264
1111.967, 6439.053
1112.449, 6378.373
1112.931, 6328.213
1113.414, 6282.789
1113.896, 6246.245
1114.378, 6183.693
1114.860, 6087.789
1115.342, 5998.209
1115.824, 5943.877
1116.306, 5903.797
1116.788, 5846.600
1117.271, 5777.387
1117.753, 5706.526
1118.235, 5628.521
1118.717, 5564.607
1119.199, 5521.730
1119.681, 5481.314
1120.163, 5424.669
1120.645, 5355.749
1121.127, 5281.121
1121.609, 5202.618
1122.092, 5136.832
1122.574, 5109.061
1123.056, 5075.510
1123.538, 5019.339
1124.020, 4951.058
1124.502, 4888.317
1124.984, 4831.593
1125.466, 4788.132
1125.949, 4762.113
1126.431, 4730.955
1126.913, 4672.062
1127.395, 4608.169
1127.877, 4553.307
1128.359, 4507.756
1128.841, 4476.821
1129.323, 4461.436
1129.806, 4440.892
1130.288, 4403.720
1130.770, 4366.978
1131.252, 4350.417
1131.734, 4343.636
1132.216, 4332.290
1132.698, 4310.026
1133.180, 4302.666
1133.662, 4314.583
1134.145, 4323.059
1134.627, 4306.566
1135.109, 4282.395
1135.591, 4282.504
1136.073, 4297.006
1136.555, 4300.865
1137.037, 4270.565
1137.519, 4254.672
1138.001, 4259.292
1138.484, 4271.856
1138.966, 4280.249
1139.448, 4286.253
1139.930, 4295.784
1140.412, 4308.254
1140.894, 4314.877
1141.376, 4310.660
1141.858, 4301.244
1142.341, 4285.842
1142.823, 4268.912
1143.305, 4256.255
1143.787, 4248.809
1144.269, 4253.125
1144.751, 4271.610
1145.233, 4286.806
1145.715, 4289.855
1146.198, 4285.271
1146.680, 4274.340
1147.162, 4258.702
1147.644, 4247.692
1148.126, 4240.572
1148.608, 4227.163
1149.090, 4200.475
1149.572, 4176.121
1150.054, 4174.136
1150.536, 4174.151
1151.019, 4153.423
1151.501, 4109.258
1151.983, 4083.736
1152.465, 4077.746
1152.947, 4065.657
1153.429, 4028.873
1153.911, 3985.204
1154.393, 3951.730
1154.876, 3923.485
1155.358, 3891.316
1155.840, 3852.218
1156.322, 3817.226
1156.804, 3786.771
1157.286, 3759.155
1157.768, 3734.155
1158.250, 3710.409
1158.733, 3690.254
1159.215, 3670.445
1159.697, 3637.356
1160.179, 3580.510
1160.661, 3530.321
1161.143, 3491.923
1161.625, 3455.893
1162.107, 3408.872
1162.589, 3357.077
1163.072, 3311.223
1163.554, 3271.833
1164.036, 3234.965
1164.518, 3196.411
1165.000, 3167.650
1165.482, 3156.067
1165.964, 3148.243
1166.446, 3119.213
1166.928, 3075.561
1167.411, 3030.892
1167.893, 2987.487
1168.375, 2943.926
1168.857, 2891.419
1169.339, 2849.677
1169.821, 2832.534
1170.303, 2827.490
1170.785, 2794.110
1171.268, 2740.890
1171.750, 2695.201
1172.232, 2669.317
1172.714, 2643.376
1173.196, 2609.380
1173.678, 2573.084
1174.160, 2536.659
1174.642, 2500.969
1175.125, 2476.854
1175.607, 2462.327
1176.089, 2447.807
1176.571, 2433.738
1177.053, 2411.695
1177.535, 2367.224
1178.017, 2321.099
1178.499, 2295.801
1178.981, 2290.751
1179.464, 2269.760
1179.946, 2233.284
1180.428, 2198.682
1180.910, 2179.664
1181.392, 2162.405
1181.874, 2140.688
1182.356, 2114.898
1182.838, 2083.272
1183.320, 2045.021
1183.803, 2020.511
1184.285, 2011.683
1184.767, 2000.719
1185.249, 1970.674
1185.731, 1937.008
1186.213, 1910.496
1186.695, 1889.055
1187.177, 1865.644
1187.660, 1839.945
1188.142, 1817.748
1188.624, 1800.627
1189.106, 1783.474
1189.588, 1763.275
1190.070, 1740.120
1190.552, 1710.211
1191.034, 1676.055
1191.516, 1655.961
1191.999, 1652.007
1192.481, 1639.508
1192.963, 1609.591
1193.445, 1578.548
1193.927, 1565.254
1194.409, 1557.302
1194.891, 1540.354
1195.373, 1513.143
1195.855, 1497.771
1196.338, 1496.298
1196.820, 1486.997
1197.302, 1456.480
1197.784, 1425.284
1198.266, 1421.388
1198.748, 1427.355
1199.230, 1419.600
1199.712, 1392.776
1200.195, 1373.846
1200.677, 1363.627
1201.159, 1355.725
1201.641, 1348.562
1202.123, 1339.896
1202.605, 1322.327
1203.087, 1303.319
1203.569, 1296.037
1204.052, 1308.484
1204.534, 1310.953
1205.016, 1302.201
1205.498, 1291.019
1205.980, 1283.248
1206.462, 1276.397
1206.944, 1266.692
1207.426, 1255.750
1207.908, 1247.616
1208.391, 1242.437
1208.873, 1240.704
1209.355, 1243.181
1209.837, 1245.012
1210.319, 1242.818
1210.801, 1237.179
1211.283, 1226.079
1211.765, 1211.932
1212.247, 1203.345
1212.730, 1201.496
1213.212, 1203.559
1213.694, 1210.327
1214.176, 1215.798
1214.658, 1210.955
1215.140, 1204.008
1215.622, 1206.130
1216.104, 1215.683
1216.587, 1220.234
1217.069, 1219.698
1217.551, 1210.445
1218.033, 1189.356
1218.515, 1170.425
1218.997, 1173.115
1219.479, 1183.934
1219.961, 1188.077
1220.443, 1184.586
1220.926, 1180.926
1221.408, 1177.206
1221.890, 1173.640
1222.372, 1169.169
1222.854, 1168.789
1223.336, 1186.976
1223.818, 1207.205
1224.300, 1208.341
1224.782, 1186.948
1225.265, 1170.406
1225.747, 1159.445
1226.229, 1149.769
1226.711, 1138.745
1227.193, 1132.121
1227.675, 1142.058
1228.157, 1157.342
1228.639, 1163.907
1229.122, 1159.325
1229.604, 1158.483
1230.086, 1163.018
1230.568, 1159.201
1231.050, 1136.860
1231.532, 1114.239
1232.014, 1114.816
1232.496, 1126.052
1232.979, 1132.723
1233.461, 1133.140
1233.943, 1133.269
1234.425, 1133.421
1234.907, 1129.770
1235.389, 1117.564
1235.871, 1105.546
1236.353, 1104.124
1236.835, 1106.932
1237.318, 1104.949
1237.800, 1096.635
1238.282, 1093.741
1238.764, 1096.609
1239.246, 1098.238
1239.728, 1093.938
1240.210, 1087.869
1240.692, 1079.987
1241.175, 1074.556
1241.657, 1079.467
1242.139, 1098.785
1242.621, 1098.018
1243.103, 1076.946
1243.585, 1059.356
1244.067, 1064.198
1244.549, 1072.508
1245.031, 1073.467
1245.514, 1068.703
1245.996, 1059.927
1246.478, 1046.198
1246.960, 1040.678
1247.442, 1043.132
1247.924, 1044.446
1248.406, 1035.596
1248.888, 1027.490
1249.370, 1026.726
1249.853, 1030.077
1250.335, 1035.904
1250.817, 1043.747
1251.299, 1036.222
1251.781, 1013.816
1252.263, 994.5500
1252.745, 989.2391
1253.227, 990.1053
1253.710, 997.6605
1254.192, 1006.297
1254.674, 1010.576
1255.156, 1010.055
1255.638, 997.3915
1256.120, 973.7737
1256.602, 957.3236
1257.084, 966.7581
1257.567, 973.6261
1258.049, 965.9327
1258.531, 954.8221
1259.013, 959.0025
1259.495, 972.8757
1259.977, 974.1271
1260.459, 962.2917
1260.941, 952.3672
1261.423, 952.4254
1261.906, 953.9090
1262.388, 955.4868
1262.870, 956.5403
1263.352, 956.8424
1263.834, 955.7365
1264.316, 949.6266
1264.798, 939.0606
1265.280, 933.9028
1265.762, 942.9938
1266.245, 947.7661
1266.727, 943.6630
1267.209, 937.0814
1267.691, 936.3598
1268.173, 939.3571
1268.655, 944.7138
1269.137, 951.6943
1269.619, 950.1945
1270.102, 935.0651
1270.584, 924.0496
1271.066, 921.5681
1271.548, 921.9650
1272.030, 918.8847
1272.512, 914.2520
1272.994, 909.1919
1273.476, 904.3674
1273.958, 905.0414
1274.441, 913.5170
1274.923, 915.9044
1275.405, 908.1674
1275.887, 898.0779
1276.369, 891.5896
1276.851, 888.3175
1277.333, 888.8178
1277.815, 892.5519
1278.297, 897.6074
1278.780, 904.2062
1279.262, 905.7980
1279.744, 900.0635
1280.226, 894.0762
1280.708, 892.1700
1281.190, 893.6370
1281.672, 901.6617
1282.154, 911.8794
1282.637, 902.7940
1283.119, 877.8154
1283.601, 872.8642
1284.083, 898.6897
1284.565, 920.8575
1285.047, 915.5908
1285.529, 903.8113
1286.011, 893.9572
1286.494, 887.1998
1286.976, 890.9200
1287.458, 900.8158
1287.940, 900.1255
1288.422, 883.4827
1288.904, 872.9631
1289.386, 883.7322
1289.868, 892.6208
1290.350, 891.5767
1290.833, 885.2107
1291.315, 881.3780
1291.797, 879.5396
1292.279, 878.6415
1292.761, 878.4649
1293.243, 879.6357
1293.725, 882.1007
1294.207, 886.5015
1294.689, 894.7960
1295.172, 901.0755
1295.654, 890.6840
1296.136, 876.3196
1296.618, 879.4139
1297.100, 905.2021
1297.582, 904.0029
1298.064, 870.2582
1298.546, 845.0612
1299.029, 841.9229
1299.511, 849.3977
1299.993, 861.1069
1300.475, 873.3710
1300.957, 883.3694
1301.439, 890.6934
1301.921, 891.7194
##END=



