##NAMES=Beudantite
##RRUFFID=R070190
##IDEAL CHEMISTRY=Pb^2+^Fe^3+^_3_(As^5+^O_4_)(S^6+^O_4_)(OH)_6_
##LOCALITY=Tsumeb mine, Tsumeb, Otavi District, Oshikoto, Namibia
##OWNER=RRUFF
##SOURCE=William W. Pinch
##DESCRIPTION=Rootbeer brown thin tabular plates
##STATUS=The identification of this mineral is confirmed by single-crystal X-ray diffraction and chemical analysis.
##URL=rruff.info/R070190
##MEASURED CHEMISTRY=Pb_1.00_(Fe^3+^_2.71_Al_0.30_)_Σ=3_[(As_0.58_S_0.42_)_Σ=1_O_4_]_2_((OH)_5.87_(H_2_O)_0.13_)_Σ=6_
171.1595, 1857.836
171.6417, 1877.954
172.1238, 1896.358
172.6059, 1915.285
173.0880, 1931.678
173.5701, 1955.464
174.0522, 1993.795
174.5344, 2040.959
175.0165, 2088.521
175.4986, 2132.333
175.9807, 2174.178
176.4628, 2219.864
176.9449, 2271.383
177.4271, 2323.307
177.9092, 2368.856
178.3913, 2414.352
178.8734, 2468.307
179.3555, 2535.792
179.8376, 2614.373
180.3197, 2697.920
180.8019, 2787.486
181.2840, 2880.713
181.7661, 2974.740
182.2482, 3071.967
182.7303, 3175.421
183.2124, 3287.514
183.6946, 3405.449
184.1767, 3519.993
184.6588, 3621.582
185.1409, 3736.405
185.6230, 3872.060
186.1051, 4021.210
186.5873, 4176.669
187.0694, 4335.457
187.5515, 4497.540
188.0336, 4667.733
188.5157, 4851.607
188.9978, 5031.894
189.4800, 5190.591
189.9621, 5348.634
190.4442, 5532.806
190.9263, 5755.083
191.4084, 5999.865
191.8905, 6226.897
192.3727, 6417.127
192.8548, 6625.872
193.3369, 6873.441
193.8190, 7136.188
194.3011, 7393.585
194.7832, 7637.574
195.2654, 7871.390
195.7475, 8098.110
196.2296, 8311.759
196.7117, 8533.177
197.1938, 8781.215
197.6759, 9028.704
198.1581, 9254.561
198.6402, 9451.982
199.1223, 9620.677
199.6044, 9756.778
200.0865, 9843.563
200.5686, 9929.563
201.0508, 10042.58
201.5329, 10143.38
202.0150, 10196.68
202.4971, 10194.40
202.9792, 10159.46
203.4613, 10129.10
203.9435, 10113.24
204.4256, 10078.51
204.9077, 10033.41
205.3898, 9965.967
205.8719, 9855.033
206.3540, 9702.117
206.8362, 9541.445
207.3183, 9424.232
207.8004, 9380.777
208.2825, 9305.238
208.7646, 9177.025
209.2467, 9036.257
209.7289, 8905.015
210.2110, 8786.684
210.6931, 8670.674
211.1752, 8542.677
211.6573, 8396.399
212.1395, 8264.298
212.6216, 8154.283
213.1037, 8051.170
213.5858, 7950.921
214.0679, 7852.023
214.5500, 7752.926
215.0322, 7652.865
215.5143, 7552.927
215.9964, 7446.145
216.4785, 7322.365
216.9606, 7200.739
217.4427, 7088.184
217.9249, 6983.914
218.4070, 6882.465
218.8891, 6778.286
219.3712, 6670.990
219.8533, 6575.227
220.3354, 6507.722
220.8176, 6435.844
221.2997, 6347.870
221.7818, 6248.657
222.2639, 6148.692
222.7460, 6055.775
223.2281, 5968.704
223.7103, 5882.720
224.1924, 5793.418
224.6745, 5710.219
225.1566, 5638.779
225.6387, 5573.707
226.1208, 5506.744
226.6030, 5433.106
227.0851, 5354.781
227.5672, 5279.879
228.0493, 5205.323
228.5314, 5138.956
229.0135, 5089.850
229.4957, 5046.420
229.9778, 4994.602
230.4599, 4927.829
230.9420, 4852.692
231.4241, 4784.458
231.9062, 4723.983
232.3884, 4670.492
232.8705, 4625.325
233.3526, 4585.211
233.8347, 4547.439
234.3168, 4511.185
234.7989, 4475.945
235.2811, 4439.969
235.7632, 4398.793
236.2453, 4367.884
236.7274, 4357.940
237.2095, 4350.572
237.6916, 4331.310
238.1738, 4298.416
238.6559, 4263.212
239.1380, 4240.315
239.6201, 4233.305
240.1022, 4225.363
240.5843, 4211.340
241.0665, 4200.018
241.5486, 4196.489
242.0307, 4200.377
242.5128, 4207.526
242.9949, 4216.161
243.4770, 4227.147
243.9592, 4229.023
244.4413, 4213.199
244.9234, 4195.708
245.4055, 4183.055
245.8876, 4173.716
246.3697, 4162.989
246.8519, 4147.954
247.3340, 4128.540
247.8161, 4104.672
248.2982, 4071.754
248.7803, 4040.308
249.2624, 4016.248
249.7446, 3995.468
250.2267, 3971.096
250.7088, 3938.329
251.1909, 3900.570
251.6730, 3868.459
252.1551, 3846.723
252.6373, 3820.621
253.1194, 3782.709
253.6015, 3739.728
254.0836, 3698.807
254.5657, 3662.695
255.0478, 3628.908
255.5300, 3592.915
256.0121, 3553.823
256.4942, 3516.285
256.9763, 3485.438
257.4584, 3454.511
257.9406, 3417.497
258.4227, 3373.046
258.9048, 3326.057
259.3869, 3280.477
259.8690, 3236.187
260.3511, 3194.061
260.8333, 3150.304
261.3154, 3112.562
261.7975, 3091.744
262.2796, 3086.358
262.7617, 3073.677
263.2438, 3028.605
263.7260, 2958.440
264.2081, 2907.918
264.6902, 2890.169
265.1723, 2879.989
265.6544, 2859.254
266.1365, 2830.352
266.6187, 2801.191
267.1008, 2777.760
267.5829, 2756.168
268.0650, 2726.232
268.5471, 2684.605
269.0292, 2644.960
269.5114, 2619.293
269.9935, 2602.052
270.4756, 2584.592
270.9577, 2567.787
271.4398, 2547.343
271.9219, 2514.401
272.4041, 2468.373
272.8862, 2428.529
273.3683, 2407.190
273.8504, 2397.250
274.3325, 2383.924
274.8146, 2364.644
275.2968, 2345.393
275.7789, 2329.523
276.2610, 2316.879
276.7431, 2307.097
277.2252, 2300.983
277.7073, 2296.472
278.1895, 2291.011
278.6716, 2285.669
279.1537, 2275.680
279.6358, 2252.604
280.1179, 2225.260
280.6000, 2209.613
281.0822, 2209.754
281.5643, 2217.824
282.0464, 2225.520
282.5285, 2232.636
283.0106, 2241.493
283.4927, 2255.451
283.9749, 2269.292
284.4570, 2277.366
284.9391, 2279.609
285.4212, 2281.088
285.9033, 2285.239
286.3854, 2292.314
286.8676, 2303.322
287.3497, 2320.234
287.8318, 2338.767
288.3139, 2357.789
288.7960, 2376.886
289.2781, 2394.969
289.7603, 2411.289
290.2424, 2426.409
290.7245, 2442.408
291.2066, 2458.897
291.6887, 2476.677
292.1708, 2500.501
292.6530, 2524.044
293.1351, 2536.703
293.6172, 2535.054
294.0993, 2529.252
294.5814, 2537.833
295.0635, 2573.259
295.5457, 2599.912
296.0278, 2616.834
296.5099, 2626.329
296.9920, 2625.239
297.4741, 2616.035
297.9562, 2609.590
298.4384, 2618.922
298.9205, 2648.106
299.4026, 2664.561
299.8847, 2660.357
300.3668, 2651.805
300.8489, 2643.653
301.3310, 2635.464
301.8131, 2624.813
302.2953, 2609.701
302.7774, 2591.259
303.2595, 2575.577
303.7416, 2566.699
304.2237, 2554.476
304.7058, 2539.253
305.1880, 2519.038
305.6701, 2488.890
306.1522, 2446.556
306.6343, 2402.282
307.1164, 2374.091
307.5985, 2366.405
308.0807, 2358.764
308.5628, 2349.372
309.0449, 2337.719
309.5270, 2322.837
310.0091, 2304.813
310.4912, 2285.667
310.9734, 2267.736
311.4555, 2250.656
311.9376, 2229.865
312.4197, 2200.636
312.9018, 2174.368
313.3839, 2157.626
313.8661, 2148.810
314.3482, 2144.414
314.8303, 2147.253
315.3124, 2151.613
315.7945, 2146.497
316.2766, 2130.660
316.7588, 2112.531
317.2409, 2093.788
317.7230, 2076.757
318.2051, 2065.326
318.6872, 2060.817
319.1693, 2060.591
319.6515, 2066.606
320.1336, 2076.542
320.6157, 2079.524
321.0978, 2070.540
321.5799, 2055.065
322.0620, 2040.705
322.5442, 2027.163
323.0263, 2015.880
323.5084, 2009.383
323.9905, 2004.433
324.4726, 1996.525
324.9547, 1984.878
325.4369, 1972.314
325.9190, 1961.701
326.4011, 1953.308
326.8832, 1942.916
327.3653, 1933.802
327.8474, 1919.795
328.3296, 1894.343
328.8117, 1860.559
329.2938, 1827.541
329.7759, 1800.360
330.2580, 1778.151
330.7401, 1757.885
331.2223, 1748.514
331.7044, 1729.789
332.1865, 1691.944
332.6686, 1647.148
333.1507, 1608.088
333.6328, 1578.762
334.1150, 1555.061
334.5971, 1531.561
335.0792, 1510.706
335.5613, 1483.301
336.0434, 1438.193
336.5255, 1397.159
337.0077, 1376.711
337.4898, 1371.804
337.9719, 1363.475
338.4540, 1335.060
338.9361, 1289.590
339.4182, 1254.208
339.9004, 1231.480
340.3825, 1216.433
340.8646, 1212.952
341.3467, 1213.276
341.8288, 1206.732
342.3109, 1188.367
342.7931, 1166.312
343.2752, 1153.546
343.7573, 1151.579
344.2394, 1147.956
344.7215, 1137.312
345.2036, 1125.900
345.6858, 1119.188
346.1679, 1117.312
346.6500, 1115.479
347.1321, 1110.637
347.6142, 1103.543
348.0963, 1095.702
348.5785, 1086.561
349.0606, 1078.830
349.5427, 1075.667
350.0248, 1075.764
350.5069, 1075.425
350.9890, 1074.729
351.4712, 1072.785
351.9533, 1068.517
352.4354, 1062.200
352.9175, 1054.778
353.3996, 1045.781
353.8817, 1037.000
354.3639, 1033.840
354.8460, 1038.589
355.3281, 1042.748
355.8102, 1047.894
356.2923, 1049.918
356.7744, 1040.356
357.2566, 1018.343
357.7387, 996.8848
358.2208, 991.7778
358.7029, 1007.814
359.1850, 1013.311
359.6671, 997.6575
360.1493, 983.6085
360.6314, 983.6948
361.1135, 993.3067
361.5956, 1001.128
362.0777, 1000.412
362.5598, 993.3593
363.0420, 988.1146
363.5241, 987.0101
364.0062, 983.9053
364.4883, 974.2224
364.9704, 964.8383
365.4525, 962.5367
365.9347, 968.3176
366.4168, 976.4242
366.8989, 979.5823
367.3810, 977.2886
367.8631, 979.5347
368.3452, 993.7819
368.8274, 1003.885
369.3095, 997.0618
369.7916, 980.1019
370.2737, 969.6060
370.7558, 976.0279
371.2379, 991.1179
371.7201, 1001.592
372.2022, 1007.164
372.6843, 1010.608
373.1664, 1011.496
373.6485, 1011.802
374.1306, 1015.184
374.6128, 1023.241
375.0949, 1028.985
375.5770, 1025.876
376.0591, 1018.351
376.5412, 1015.724
377.0233, 1020.225
377.5055, 1027.068
377.9876, 1031.689
378.4697, 1033.798
378.9518, 1035.609
379.4339, 1040.068
379.9160, 1041.596
380.3982, 1033.197
380.8803, 1018.736
381.3624, 1009.111
381.8445, 1010.457
382.3266, 1019.771
382.8087, 1028.150
383.2909, 1038.109
383.7730, 1043.310
384.2551, 1039.316
384.7372, 1033.387
385.2193, 1032.105
385.7014, 1036.058
386.1836, 1040.622
386.6657, 1040.997
387.1478, 1037.009
387.6299, 1031.974
388.1120, 1022.103
388.5941, 1015.770
389.0763, 1017.375
389.5584, 1023.756
390.0405, 1030.329
390.5226, 1035.603
391.0047, 1039.012
391.4868, 1038.702
391.9690, 1034.095
392.4511, 1031.386
392.9332, 1033.187
393.4153, 1036.718
393.8974, 1039.638
394.3795, 1041.895
394.8617, 1043.223
395.3438, 1043.990
395.8259, 1043.584
396.3080, 1038.274
396.7901, 1027.146
397.2722, 1022.713
397.7544, 1037.779
398.2365, 1067.162
398.7186, 1082.857
399.2007, 1072.307
399.6828, 1062.340
400.1649, 1063.256
400.6471, 1071.568
401.1292, 1081.830
401.6113, 1092.322
402.0934, 1103.591
402.5755, 1116.625
403.0576, 1131.815
403.5398, 1147.593
404.0219, 1163.764
404.5040, 1180.758
404.9861, 1200.258
405.4682, 1220.860
405.9503, 1238.833
406.4325, 1251.431
406.9146, 1260.571
407.3967, 1272.203
407.8788, 1284.210
408.3609, 1303.411
408.8430, 1338.517
409.3252, 1375.956
409.8073, 1403.282
410.2894, 1419.238
410.7715, 1435.655
411.2536, 1464.533
411.7357, 1503.228
412.2179, 1535.956
412.7000, 1557.946
413.1821, 1582.728
413.6642, 1621.523
414.1463, 1669.721
414.6284, 1718.332
415.1106, 1766.338
415.5927, 1813.905
416.0748, 1861.467
416.5569, 1908.791
417.0390, 1954.876
417.5211, 1999.195
418.0033, 2042.123
418.4854, 2082.624
418.9675, 2116.450
419.4496, 2163.752
419.9317, 2235.737
420.4138, 2312.493
420.8960, 2380.362
421.3781, 2440.991
421.8602, 2502.713
422.3423, 2570.820
422.8244, 2645.468
423.3065, 2728.007
423.7887, 2833.193
424.2708, 2922.950
424.7529, 2971.904
425.2350, 3019.730
425.7171, 3103.551
426.1992, 3225.978
426.6814, 3354.667
427.1635, 3461.218
427.6456, 3547.394
428.1277, 3621.850
428.6098, 3675.628
429.0919, 3734.839
429.5741, 3816.012
430.0562, 3910.556
430.5383, 4006.790
431.0204, 4102.980
431.5025, 4198.246
431.9846, 4294.949
432.4668, 4390.657
432.9489, 4476.641
433.4310, 4550.532
433.9131, 4614.439
434.3952, 4668.449
434.8773, 4711.017
435.3595, 4756.952
435.8416, 4824.647
436.3237, 4879.805
436.8058, 4891.350
437.2879, 4872.939
437.7701, 4862.451
438.2522, 4880.010
438.7343, 4912.208
439.2164, 4924.416
439.6985, 4902.691
440.1806, 4885.154
440.6628, 4885.397
441.1449, 4879.128
441.6270, 4845.329
442.1091, 4788.665
442.5912, 4732.222
443.0733, 4696.316
443.5555, 4673.245
444.0376, 4632.040
444.5197, 4567.605
445.0018, 4499.103
445.4839, 4422.708
445.9660, 4351.197
446.4482, 4299.802
446.9303, 4272.458
447.4124, 4250.426
447.8945, 4224.769
448.3766, 4195.813
448.8587, 4161.317
449.3409, 4119.969
449.8230, 4085.154
450.3051, 4067.233
450.7872, 4065.818
451.2693, 4070.576
451.7514, 4084.504
452.2336, 4100.559
452.7157, 4114.347
453.1978, 4129.613
453.6799, 4149.655
454.1620, 4175.976
454.6441, 4212.183
455.1263, 4263.814
455.6084, 4332.878
456.0905, 4405.570
456.5726, 4473.679
457.0547, 4553.880
457.5368, 4658.539
458.0190, 4777.088
458.5011, 4891.292
458.9832, 4992.335
459.4653, 5092.803
459.9474, 5211.306
460.4295, 5347.528
460.9117, 5492.975
461.3938, 5647.842
461.8759, 5809.435
462.3580, 5978.353
462.8401, 6153.065
463.3222, 6327.603
463.8044, 6490.967
464.2865, 6661.837
464.7686, 6860.306
465.2507, 7081.345
465.7328, 7304.238
466.2149, 7519.414
466.6971, 7733.178
467.1792, 7953.748
467.6613, 8180.822
468.1434, 8418.183
468.6255, 8678.521
469.1076, 8938.309
469.5898, 9183.472
470.0719, 9413.990
470.5540, 9631.335
471.0361, 9837.239
471.5182, 10032.15
472.0003, 10222.14
472.4825, 10406.82
472.9646, 10584.29
473.4467, 10775.10
473.9288, 10941.40
474.4109, 11055.89
474.8930, 11118.18
475.3752, 11147.41
475.8573, 11161.03
476.3394, 11146.07
476.8215, 11077.20
477.3036, 10953.73
477.7857, 10795.67
478.2679, 10611.06
478.7500, 10399.91
479.2321, 10156.59
479.7142, 9877.823
480.1963, 9586.863
480.6784, 9267.093
481.1606, 8951.186
481.6427, 8678.953
482.1248, 8444.631
482.6069, 8205.270
483.0890, 7924.816
483.5711, 7614.317
484.0533, 7329.114
484.5354, 7078.879
485.0175, 6838.960
485.4996, 6608.174
485.9817, 6383.030
486.4638, 6160.649
486.9460, 5940.698
487.4281, 5729.835
487.9102, 5538.363
488.3923, 5359.490
488.8744, 5168.970
489.3565, 4963.146
489.8387, 4768.019
490.3208, 4601.859
490.8029, 4453.258
491.2850, 4297.224
491.7671, 4129.375
492.2492, 3966.175
492.7314, 3812.416
493.2135, 3668.038
493.6956, 3534.431
494.1777, 3411.495
494.6598, 3295.747
495.1419, 3185.613
495.6241, 3080.032
496.1062, 2968.437
496.5883, 2834.004
497.0704, 2718.804
497.5525, 2632.407
498.0346, 2561.539
498.5168, 2500.334
498.9989, 2445.321
499.4810, 2388.541
499.9631, 2322.558
500.4452, 2249.479
500.9273, 2176.330
501.4095, 2100.878
501.8916, 2034.726
502.3737, 1986.307
502.8558, 1948.267
503.3379, 1908.556
503.8200, 1866.239
504.3022, 1826.017
504.7843, 1789.174
505.2664, 1755.740
505.7485, 1727.846
506.2306, 1704.615
506.7127, 1681.674
507.1949, 1656.486
507.6770, 1628.415
508.1591, 1594.753
508.6412, 1546.714
509.1233, 1505.839
509.6054, 1474.883
510.0876, 1449.829
510.5697, 1429.395
511.0518, 1412.488
511.5339, 1396.882
512.0161, 1381.185
512.4982, 1365.537
512.9803, 1349.763
513.4624, 1333.617
513.9445, 1319.484
514.4266, 1308.578
514.9088, 1299.893
515.3909, 1294.288
515.8730, 1292.709
516.3551, 1282.570
516.8372, 1248.725
517.3193, 1213.012
517.8015, 1197.558
518.2836, 1199.546
518.7657, 1202.768
519.2478, 1198.911
519.7299, 1190.008
520.2120, 1180.461
520.6942, 1167.088
521.1763, 1159.325
521.6584, 1161.291
522.1405, 1164.317
522.6226, 1164.901
523.1047, 1162.651
523.5869, 1157.254
524.0690, 1147.288
524.5511, 1136.870
525.0332, 1133.768
525.5153, 1137.926
525.9974, 1140.195
526.4796, 1136.411
526.9617, 1133.382
527.4438, 1142.378
527.9259, 1161.364
528.4080, 1169.971
528.8901, 1154.818
529.3723, 1138.947
529.8544, 1135.371
530.3365, 1141.028
530.8186, 1151.637
531.3007, 1165.423
531.7828, 1176.526
532.2650, 1175.534
532.7471, 1159.395
533.2292, 1150.104
533.7113, 1149.119
534.1934, 1153.873
534.6755, 1168.436
535.1577, 1186.286
535.6398, 1198.004
536.1219, 1200.404
536.6040, 1201.674
537.0861, 1210.041
537.5682, 1223.416
538.0504, 1234.932
538.5325, 1243.552
539.0146, 1251.497
539.4967, 1259.185
539.9788, 1267.520
540.4609, 1280.627
540.9431, 1304.412
541.4252, 1324.512
541.9073, 1334.999
542.3894, 1342.463
542.8715, 1352.193
543.3536, 1365.346
543.8358, 1381.599
544.3179, 1400.900
544.8000, 1422.913
545.2821, 1446.229
545.7642, 1470.856
546.2463, 1496.734
546.7285, 1526.918
547.2106, 1555.871
547.6926, 1578.587
548.1747, 1595.348
548.6569, 1611.901
549.1390, 1628.484
549.6211, 1647.523
550.1032, 1674.536
550.5853, 1707.153
551.0674, 1732.455
551.5496, 1744.008
552.0317, 1754.241
552.5138, 1785.307
552.9959, 1849.292
553.4780, 1893.214
553.9601, 1899.914
554.4423, 1908.115
554.9244, 1937.688
555.4065, 1977.700
555.8886, 2008.647
556.3707, 2023.277
556.8528, 2034.024
557.3350, 2058.625
557.8171, 2094.518
558.2992, 2120.086
558.7813, 2131.655
559.2634, 2138.179
559.7455, 2144.107
560.2277, 2149.534
560.7098, 2155.007
561.1919, 2162.428
561.6740, 2166.609
562.1561, 2165.463
562.6382, 2160.558
563.1204, 2153.693
563.6025, 2144.889
564.0846, 2132.481
564.5667, 2114.557
565.0488, 2093.016
565.5309, 2075.510
566.0131, 2064.337
566.4952, 2051.409
566.9773, 2032.960
567.4594, 2014.171
567.9415, 1998.141
568.4236, 1984.696
568.9058, 1972.329
569.3879, 1963.642
569.8700, 1952.771
570.3521, 1931.154
570.8342, 1901.955
571.3163, 1876.504
571.7985, 1858.555
572.2806, 1842.335
572.7627, 1821.346
573.2448, 1795.321
573.7269, 1766.186
574.2090, 1724.480
574.6912, 1690.708
575.1733, 1675.211
575.6554, 1667.590
576.1375, 1656.373
576.6196, 1638.966
577.1017, 1620.092
577.5839, 1604.007
578.0660, 1589.863
578.5481, 1574.712
579.0302, 1558.419
579.5123, 1541.856
579.9944, 1524.111
580.4766, 1507.545
580.9587, 1498.932
581.4408, 1501.976
581.9229, 1496.450
582.4050, 1474.151
582.8871, 1447.453
583.3693, 1420.238
583.8514, 1395.798
584.3335, 1381.273
584.8156, 1380.205
585.2977, 1381.407
585.7798, 1363.695
586.2620, 1324.485
586.7441, 1297.898
587.2262, 1290.638
587.7083, 1287.438
588.1904, 1281.737
588.6725, 1273.759
589.1547, 1263.198
589.6368, 1248.649
590.1189, 1235.037
590.6010, 1225.909
591.0831, 1218.381
591.5652, 1208.222
592.0474, 1195.615
592.5295, 1183.823
593.0116, 1174.828
593.4937, 1168.859
593.9758, 1167.141
594.4579, 1172.660
594.9401, 1175.335
595.4222, 1173.278
595.9043, 1169.078
596.3864, 1162.529
596.8685, 1154.861
597.3506, 1149.064
597.8328, 1147.267
598.3149, 1145.714
598.7970, 1137.208
599.2791, 1126.604
599.7612, 1128.143
600.2433, 1144.612
600.7255, 1164.676
601.2076, 1178.993
601.6897, 1188.338
602.1718, 1198.985
602.6539, 1209.493
603.1360, 1223.505
603.6182, 1244.925
604.1003, 1267.012
604.5824, 1283.078
605.0645, 1294.649
605.5466, 1309.527
606.0287, 1333.564
606.5109, 1361.597
606.9930, 1383.374
607.4751, 1400.718
607.9572, 1429.452
608.4393, 1475.854
608.9214, 1525.957
609.4036, 1565.767
609.8857, 1595.267
610.3678, 1626.416
610.8499, 1655.049
611.3320, 1690.214
611.8141, 1740.080
612.2963, 1793.768
612.7784, 1836.628
613.2605, 1869.661
613.7426, 1909.604
614.2247, 1975.256
614.7068, 2051.666
615.1890, 2097.009
615.6711, 2109.558
616.1532, 2130.744
616.6353, 2175.040
617.1174, 2227.309
617.5995, 2272.295
618.0817, 2309.917
618.5638, 2342.001
619.0459, 2372.724
619.5280, 2393.138
620.0101, 2396.060
620.4922, 2388.520
620.9744, 2378.398
621.4565, 2367.682
621.9386, 2355.448
622.4207, 2342.750
622.9028, 2327.059
623.3849, 2298.175
623.8671, 2255.119
624.3492, 2204.355
624.8313, 2146.875
625.3134, 2083.452
625.7955, 2013.803
626.2776, 1938.250
626.7598, 1863.794
627.2419, 1788.472
627.7240, 1717.919
628.2061, 1661.046
628.6882, 1608.877
629.1703, 1546.028
629.6525, 1470.678
630.1346, 1397.291
630.6167, 1340.270
631.0988, 1297.487
631.5809, 1257.019
632.0630, 1219.114
632.5452, 1181.927
633.0273, 1144.211
633.5094, 1107.452
633.9915, 1072.412
634.4736, 1039.187
634.9557, 1009.927
635.4379, 984.7387
635.9200, 964.2953
636.4021, 951.6771
636.8842, 943.0889
637.3663, 932.4998
637.8484, 918.6356
638.3306, 904.7025
638.8127, 893.8269
639.2948, 885.7036
639.7769, 878.9528
640.2590, 873.9117
640.7411, 869.0092
641.2233, 864.0837
641.7054, 858.8727
642.1875, 854.2144
642.6696, 849.7891
643.1517, 841.0482
643.6339, 821.9465
644.1160, 803.7529
644.5981, 792.9810
645.0802, 786.9745
645.5623, 781.8774
646.0444, 776.7454
646.5266, 772.7589
647.0087, 771.6245
647.4908, 772.2272
647.9729, 768.9860
648.4550, 761.1506
648.9371, 752.2061
649.4193, 740.3060
649.9014, 730.6208
650.3835, 729.4749
650.8656, 735.6118
651.3477, 740.2804
651.8298, 743.8507
652.3120, 743.5919
652.7941, 735.1578
653.2762, 723.6242
653.7583, 716.2274
654.2404, 713.6787
654.7225, 710.9946
655.2047, 703.5314
655.6868, 693.7032
656.1689, 690.9090
656.6510, 696.9444
657.1331, 698.3116
657.6152, 688.7444
658.0974, 678.7501
658.5795, 679.6640
659.0616, 688.8159
659.5437, 694.3422
660.0258, 693.8604
660.5079, 691.2708
660.9901, 684.9296
661.4722, 679.0203
661.9543, 680.0801
662.4364, 686.6638
662.9185, 689.9109
663.4006, 683.1800
663.8828, 671.6876
664.3649, 666.9479
664.8470, 669.1738
665.3291, 671.1156
665.8112, 671.3816
666.2933, 671.9271
666.7755, 674.4601
667.2576, 678.4911
667.7397, 681.8645
668.2218, 685.1292
668.7039, 686.8545
669.1860, 685.8807
669.6682, 683.9920
670.1503, 682.1450
670.6324, 680.6418
671.1145, 679.4695
671.5966, 678.4692
672.0787, 678.8872
672.5609, 684.1801
673.0430, 693.2061
673.5251, 696.9518
674.0072, 693.7390
674.4893, 690.2025
674.9714, 690.3104
675.4536, 692.7209
675.9357, 693.8154
676.4178, 691.8034
676.8999, 692.4699
677.3820, 697.3923
677.8641, 703.5756
678.3463, 711.9491
678.8284, 719.6501
679.3105, 720.4362
679.7926, 712.3448
680.2747, 706.1212
680.7568, 716.9308
681.2390, 735.8736
681.7211, 740.2251
682.2032, 729.7311
682.6853, 716.9976
683.1674, 706.3752
683.6495, 699.6571
684.1317, 700.3839
684.6138, 710.6257
685.0959, 717.3337
685.5780, 718.8095
686.0601, 718.7999
686.5422, 715.7455
687.0244, 713.1249
687.5065, 715.4863
687.9886, 722.8957
688.4707, 729.5462
688.9528, 731.6393
689.4349, 731.6896
689.9171, 732.6739
690.3992, 734.0046
690.8813, 733.6840
691.3634, 731.1963
691.8455, 727.7405
692.3276, 724.0074
692.8098, 720.4818
693.2919, 722.4203
693.7740, 734.6690
694.2561, 741.5527
694.7382, 734.3759
695.2203, 726.1723
695.7025, 727.2055
696.1846, 735.0181
696.6667, 739.7703
697.1488, 737.9671
697.6309, 734.2214
698.1130, 729.7488
698.5952, 725.4166
699.0773, 721.8654
699.5594, 719.4693
700.0415, 719.7330
700.5236, 724.0623
701.0057, 728.9724
701.4879, 726.1545
701.9700, 715.1029
702.4521, 706.5684
702.9342, 700.8988
703.4163, 699.6584
703.8984, 707.6204
704.3806, 719.1307
704.8627, 719.3461
705.3448, 701.8143
705.8269, 692.2859
706.3090, 699.8313
706.7911, 710.7285
707.2733, 720.9297
707.7554, 727.3919
708.2375, 724.4035
708.7196, 710.7631
709.2017, 696.1116
709.6838, 689.0712
710.1660, 688.0673
710.6481, 691.1149
711.1302, 697.7285
711.6123, 699.6262
712.0944, 692.9306
712.5765, 684.4617
713.0587, 682.9073
713.5408, 688.6592
714.0229, 692.9840
714.5050, 694.7334
714.9871, 696.5655
715.4692, 699.5110
715.9514, 702.2159
716.4335, 704.1815
716.9156, 704.9987
717.3977, 703.3217
717.8798, 696.9209
718.3619, 690.2699
718.8441, 686.2872
719.3262, 684.7145
719.8083, 685.9126
720.2904, 689.4163
720.7725, 693.0193
721.2546, 695.3938
721.7368, 696.2089
722.2189, 693.7436
722.7010, 686.9973
723.1831, 684.3482
723.6652, 688.7132
724.1473, 692.5586
724.6295, 688.7366
725.1116, 682.7808
725.5937, 687.0824
726.0758, 706.1880
726.5579, 719.6249
727.0400, 723.2620
727.5222, 720.7236
728.0043, 706.6654
728.4864, 690.7329
728.9685, 691.5041
729.4506, 712.0979
729.9327, 730.5549
730.4149, 722.7415
730.8970, 700.3770
731.3791, 690.4182
731.8612, 691.6635
732.3433, 692.1418
732.8254, 687.9445
733.3076, 685.3091
733.7897, 691.9297
734.2718, 706.5382
734.7539, 712.1776
735.2360, 700.4009
735.7181, 693.8249
736.2003, 700.4775
736.6824, 707.7811
737.1645, 706.7800
737.6466, 700.1841
738.1287, 696.1378
738.6108, 696.9684
739.0930, 700.2307
739.5751, 707.3112
740.0572, 714.2480
740.5393, 714.5161
741.0214, 710.1331
741.5035, 709.2877
741.9857, 715.8455
742.4678, 724.8383
742.9499, 730.6406
743.4320, 733.0208
743.9141, 726.3576
744.3962, 707.5330
744.8784, 697.4111
745.3605, 707.9436
745.8426, 724.9417
746.3247, 727.5466
746.8068, 713.0416
747.2889, 710.2258
747.7711, 730.7300
748.2532, 747.1445
748.7353, 749.0543
749.2174, 747.1931
749.6995, 752.9991
750.1816, 764.8797
750.6638, 771.4901
751.1459, 764.8395
751.6280, 756.0703
752.1101, 756.3683
752.5922, 761.5298
753.0743, 764.0536
753.5565, 763.0572
754.0386, 759.6937
754.5207, 754.2756
755.0028, 749.5200
755.4849, 751.6160
755.9670, 761.5132
756.4492, 769.4486
756.9313, 775.0366
757.4134, 779.0873
757.8955, 780.6281
758.3776, 781.8456
758.8597, 787.0750
759.3419, 796.9585
759.8240, 803.4355
760.3061, 803.3770
760.7882, 802.7897
761.2703, 802.7228
761.7524, 804.0431
762.2346, 808.2525
762.7167, 814.8886
763.1988, 821.1370
763.6809, 824.5270
764.1630, 828.3958
764.6451, 839.2114
765.1273, 853.0740
765.6094, 859.2490
766.0915, 856.9008
766.5736, 853.4976
767.0557, 853.3873
767.5378, 856.2064
768.0200, 861.6434
768.5021, 870.2311
768.9842, 878.2422
769.4663, 886.0702
769.9484, 892.2318
770.4305, 894.7995
770.9127, 896.2012
771.3948, 900.1302
771.8769, 906.7625
772.3590, 913.0764
772.8411, 919.4451
773.3232, 924.5368
773.8054, 926.0837
774.2875, 927.2550
774.7696, 931.4038
775.2517, 938.6359
775.7338, 947.3275
776.2159, 957.6415
776.6981, 966.8062
777.1802, 967.2358
777.6623, 965.2227
778.1444, 979.2200
778.6265, 1008.818
779.1086, 1032.814
779.5908, 1038.666
780.0729, 1036.312
780.5550, 1043.912
781.0371, 1062.285
781.5192, 1082.660
782.0013, 1105.688
782.4835, 1129.273
782.9656, 1153.528
783.4477, 1177.011
783.9298, 1197.347
784.4119, 1214.440
784.8940, 1232.394
785.3762, 1248.713
785.8583, 1269.294
786.3404, 1297.053
786.8225, 1328.611
787.3046, 1362.977
787.7867, 1398.742
788.2689, 1432.441
788.7510, 1461.878
789.2331, 1491.864
789.7152, 1525.861
790.1973, 1563.689
790.6794, 1608.401
791.1616, 1657.552
791.6437, 1700.348
792.1258, 1732.488
792.6079, 1762.614
793.0900, 1802.498
793.5721, 1851.382
794.0543, 1902.561
794.5364, 1956.933
795.0185, 2007.893
795.5006, 2049.881
795.9827, 2096.354
796.4648, 2165.265
796.9470, 2253.100
797.4291, 2319.446
797.9112, 2341.456
798.3933, 2374.221
798.8754, 2423.875
799.3575, 2481.142
799.8397, 2542.648
800.3218, 2607.291
800.8039, 2676.203
801.2860, 2750.811
801.7681, 2819.116
802.2502, 2874.295
802.7324, 2921.229
803.2145, 2956.666
803.6966, 2989.607
804.1787, 3039.406
804.6608, 3108.687
805.1429, 3179.407
805.6251, 3237.201
806.1072, 3285.272
806.5893, 3327.399
807.0714, 3365.046
807.5535, 3410.506
808.0356, 3466.723
808.5178, 3517.712
808.9999, 3552.459
809.4820, 3576.202
809.9641, 3600.211
810.4462, 3621.712
810.9283, 3655.820
811.4105, 3721.017
811.8926, 3768.587
812.3747, 3756.566
812.8568, 3732.668
813.3389, 3759.485
813.8210, 3837.052
814.3032, 3891.565
814.7853, 3891.667
815.2674, 3893.231
815.7495, 3922.834
816.2316, 3956.219
816.7137, 3965.656
817.1959, 3958.433
817.6780, 3964.778
818.1601, 4000.464
818.6422, 4037.463
819.1243, 4047.404
819.6064, 4046.231
820.0886, 4059.799
820.5707, 4085.447
821.0528, 4107.128
821.5349, 4119.382
822.0170, 4129.194
822.4991, 4144.938
822.9813, 4164.484
823.4634, 4178.813
823.9455, 4187.886
824.4276, 4192.961
824.9097, 4192.127
825.3918, 4196.361
825.8740, 4215.393
826.3561, 4244.745
826.8382, 4269.310
827.3203, 4288.646
827.8024, 4304.248
828.2845, 4317.986
828.7667, 4325.514
829.2488, 4318.083
829.7309, 4307.981
830.2130, 4308.585
830.6951, 4320.807
831.1772, 4342.284
831.6594, 4387.500
832.1415, 4423.476
832.6236, 4423.609
833.1057, 4416.746
833.5878, 4432.099
834.0699, 4468.389
834.5521, 4510.925
835.0342, 4554.825
835.5163, 4594.036
835.9984, 4619.033
836.4805, 4638.000
836.9626, 4661.892
837.4448, 4692.208
837.9269, 4733.970
838.4090, 4787.924
838.8911, 4840.261
839.3732, 4875.670
839.8553, 4898.043
840.3375, 4919.040
840.8196, 4938.404
841.3017, 4972.718
841.7838, 5028.461
842.2659, 5081.331
842.7480, 5112.839
843.2302, 5133.279
843.7123, 5171.113
844.1944, 5238.185
844.6765, 5282.774
845.1586, 5294.479
845.6407, 5299.157
846.1229, 5291.848
846.6050, 5290.992
847.0871, 5321.161
847.5692, 5379.411
848.0513, 5426.567
848.5334, 5451.740
849.0156, 5473.042
849.4977, 5501.149
849.9798, 5522.046
850.4619, 5521.680
850.9440, 5506.257
851.4261, 5492.375
851.9083, 5485.863
852.3904, 5468.584
852.8725, 5421.820
853.3546, 5363.841
853.8367, 5311.475
854.3188, 5263.373
854.8010, 5218.030
855.2831, 5173.124
855.7652, 5120.745
856.2473, 5055.727
856.7294, 4978.709
857.2115, 4886.534
857.6937, 4783.004
858.1758, 4679.931
858.6579, 4579.250
859.1400, 4498.394
859.6221, 4447.123
860.1042, 4405.302
860.5864, 4342.427
861.0685, 4259.941
861.5506, 4191.159
862.0327, 4142.077
862.5148, 4082.573
862.9969, 4003.025
863.4791, 3915.439
863.9612, 3823.369
864.4433, 3731.904
864.9254, 3661.880
865.4075, 3629.252
865.8896, 3584.281
866.3718, 3509.334
866.8539, 3443.280
867.3360, 3406.461
867.8181, 3381.140
868.3002, 3350.544
868.7823, 3312.869
869.2645, 3266.111
869.7466, 3202.975
870.2287, 3139.813
870.7108, 3076.279
871.1929, 3021.089
871.6750, 2987.127
872.1572, 2967.127
872.6393, 2945.050
873.1214, 2915.621
873.6035, 2881.425
874.0856, 2842.457
874.5677, 2801.066
875.0499, 2758.033
875.5320, 2714.878
876.0141, 2673.295
876.4962, 2634.537
876.9783, 2603.574
877.4604, 2585.530
877.9426, 2569.905
878.4247, 2534.937
878.9068, 2488.108
879.3889, 2462.239
879.8710, 2457.150
880.3531, 2440.819
880.8353, 2399.880
881.3174, 2352.971
881.7995, 2322.292
882.2816, 2305.337
882.7637, 2288.545
883.2458, 2273.650
883.7280, 2244.441
884.2101, 2194.228
884.6922, 2142.610
885.1743, 2100.058
885.6564, 2067.656
886.1385, 2049.877
886.6207, 2053.409
887.1028, 2041.445
887.5849, 2008.095
888.0670, 1968.527
888.5491, 1915.866
889.0313, 1868.130
889.5134, 1842.651
889.9955, 1835.656
890.4776, 1830.220
890.9597, 1835.622
891.4418, 1823.822
891.9240, 1771.592
892.4061, 1722.309
892.8882, 1704.486
893.3703, 1700.318
893.8524, 1683.863
894.3345, 1652.397
894.8167, 1623.045
895.2988, 1601.903
895.7809, 1585.633
896.2630, 1575.978
896.7451, 1567.512
897.2272, 1554.243
897.7094, 1537.265
898.1915, 1520.888
898.6736, 1506.682
899.1557, 1492.509
899.6378, 1475.431
900.1199, 1458.526
900.6021, 1446.161
901.0842, 1436.761
901.5663, 1427.911
902.0484, 1418.504
902.5305, 1405.910
903.0126, 1388.096
903.4948, 1369.138
903.9769, 1353.590
904.4590, 1342.038
904.9411, 1339.676
905.4232, 1344.824
905.9053, 1343.439
906.3875, 1331.024
906.8696, 1317.351
907.3517, 1311.923
907.8338, 1312.308
908.3159, 1311.647
908.7980, 1309.974
909.2802, 1302.751
909.7623, 1288.568
910.2444, 1275.443
910.7265, 1266.450
911.2086, 1263.524
911.6907, 1272.053
912.1729, 1291.657
912.6550, 1292.634
913.1371, 1268.228
913.6192, 1245.994
914.1013, 1228.019
914.5834, 1218.344
915.0656, 1223.518
915.5477, 1236.357
916.0298, 1240.178
916.5119, 1232.612
916.9940, 1224.784
917.4761, 1213.970
917.9583, 1206.781
918.4404, 1209.703
918.9225, 1212.495
919.4046, 1206.392
919.8867, 1193.321
920.3688, 1180.643
920.8510, 1168.451
921.3331, 1157.583
921.8152, 1146.830
922.2973, 1138.958
922.7794, 1136.615
923.2615, 1136.898
923.7437, 1136.942
924.2258, 1136.365
924.7079, 1135.600
925.1900, 1138.716
925.6721, 1135.146
926.1542, 1113.950
926.6364, 1090.620
927.1185, 1077.919
927.6006, 1071.998
928.0827, 1065.007
928.5648, 1055.185
929.0469, 1044.838
929.5291, 1033.332
930.0112, 1024.000
930.4933, 1020.180
930.9754, 1019.353
931.4575, 1021.853
931.9396, 1024.051
932.4218, 1015.551
932.9039, 992.8243
933.3860, 971.1945
933.8681, 966.2794
934.3502, 967.9440
934.8323, 967.5221
935.3145, 962.1641
935.7966, 940.6489
936.2787, 906.7626
936.7608, 883.0066
937.2429, 881.6879
937.7250, 889.7564
938.2072, 896.6305
938.6893, 898.8841
939.1714, 883.6473
939.6535, 856.2292
940.1356, 838.5867
940.6177, 834.9540
941.0999, 834.3980
941.5820, 829.5669
942.0641, 821.4094
942.5462, 809.9258
943.0283, 796.3922
943.5104, 788.0705
943.9926, 784.9261
944.4747, 783.3493
944.9568, 782.3822
945.4389, 776.3075
945.9210, 758.8591
946.4031, 735.2460
946.8853, 719.5862
947.3674, 711.8492
947.8495, 709.2769
948.3316, 712.3494
948.8137, 712.5202
949.2958, 706.1003
949.7780, 697.5064
950.2601, 691.5170
950.7422, 687.7744
951.2243, 684.4100
951.7064, 681.3943
952.1885, 679.4736
952.6707, 679.7252
953.1528, 676.8804
953.6349, 667.1599
954.1170, 656.0637
954.5991, 651.6834
955.0812, 653.5137
955.5634, 648.8492
956.0455, 633.2832
956.5276, 625.6506
957.0097, 632.8041
957.4918, 638.3601
957.9739, 632.3110
958.4561, 620.7338
958.9382, 613.3696
959.4203, 610.4640
959.9024, 607.9950
960.3845, 606.2454
960.8666, 604.3533
961.3488, 601.9806
961.8309, 599.8469
962.3130, 600.6605
962.7951, 600.8267
963.2772, 591.5322
963.7593, 569.2032
964.2415, 556.5861
964.7236, 559.8209
965.2057, 563.8475
965.6878, 567.3698
966.1699, 569.7601
966.6520, 572.4682
967.1342, 573.3495
967.6163, 565.9350
968.0984, 546.0466
968.5805, 534.1986
969.0626, 536.6559
969.5447, 540.1200
970.0269, 542.0323
970.5090, 543.0642
970.9911, 542.0181
971.4732, 540.7823
971.9553, 545.6901
972.4374, 561.8481
972.9196, 567.8558
973.4017, 546.9608
973.8838, 533.1741
974.3659, 546.5980
974.8480, 565.3463
975.3301, 568.8483
975.8123, 561.0681
976.2944, 557.5682
976.7765, 561.7962
977.2586, 566.9872
977.7407, 570.0195
978.2228, 575.6806
978.7050, 590.5170
979.1871, 605.5048
979.6692, 608.9667
980.1513, 604.4642
980.6334, 606.4105
981.1155, 618.6102
981.5977, 635.0751
982.0798, 655.6132
982.5619, 678.1089
983.0440, 700.6048
983.5261, 725.3813
984.0082, 754.9824
984.4904, 789.1887
984.9725, 825.1747
985.4546, 859.3461
985.9367, 903.9894
986.4188, 972.0254
986.9009, 1042.521
987.3831, 1096.355
987.8652, 1150.666
988.3473, 1225.142
988.8294, 1319.458
989.3115, 1422.433
989.7936, 1532.631
990.2758, 1645.150
990.7579, 1755.243
991.2400, 1869.423
991.7221, 1987.714
992.2042, 2114.984
992.6863, 2262.234
993.1685, 2425.735
993.6506, 2588.475
994.1327, 2744.910
994.6148, 2897.725
995.0969, 3050.047
995.5790, 3197.133
996.0612, 3341.870
996.5433, 3474.655
997.0254, 3586.046
997.5075, 3674.784
997.9896, 3742.693
998.4717, 3792.057
998.9539, 3815.771
999.4360, 3813.070
999.9181, 3781.001
1000.400, 3712.701
1000.882, 3617.075
1001.364, 3500.237
1001.847, 3366.424
1002.329, 3228.096
1002.811, 3093.581
1003.293, 2941.387
1003.775, 2745.910
1004.257, 2544.980
1004.739, 2358.306
1005.221, 2187.386
1005.703, 2039.529
1006.186, 1909.424
1006.668, 1772.703
1007.150, 1615.995
1007.632, 1473.376
1008.114, 1364.034
1008.596, 1270.023
1009.078, 1179.095
1009.560, 1097.342
1010.043, 1036.724
1010.525, 993.0927
1011.007, 948.4979
1011.489, 896.7033
1011.971, 845.3744
1012.453, 792.3955
1012.935, 746.6168
1013.417, 715.9318
1013.899, 693.7629
1014.382, 673.9116
1014.864, 655.7955
1015.346, 640.7977
1015.828, 630.0845
1016.310, 619.3875
1016.792, 608.8466
1017.274, 595.7799
1017.756, 573.0001
1018.239, 551.4635
1018.721, 544.8427
1019.203, 549.2223
1019.685, 549.7900
1020.167, 541.9243
1020.649, 536.4349
1021.131, 543.3865
1021.613, 545.3286
1022.095, 525.7889
1022.578, 504.7245
1023.060, 505.9611
1023.542, 520.0516
1024.024, 518.3127
1024.506, 492.2085
1024.988, 472.3021
1025.470, 467.6192
1025.952, 469.0637
1026.435, 479.0830
1026.917, 488.6841
1027.399, 489.2055
1027.881, 484.2829
1028.363, 483.5358
1028.845, 489.3886
1029.327, 488.8263
1029.809, 469.3164
1030.292, 457.2400
1030.774, 466.5752
1031.256, 478.6150
1031.738, 481.1609
1032.220, 477.3153
1032.702, 472.3261
1033.184, 466.2409
1033.666, 464.1150
1034.148, 468.6304
1034.630, 473.9656
1035.113, 482.8206
1035.595, 488.3221
1036.077, 482.9657
1036.559, 473.8541
1037.041, 472.3036
1037.523, 478.7398
1038.005, 482.4278
1038.487, 481.6646
1038.970, 480.7221
1039.452, 478.4566
1039.934, 477.8573
1040.416, 480.5837
1040.898, 485.3690
1041.380, 491.4046
1041.862, 498.4025
1042.344, 503.1404
1042.826, 504.1025
1043.309, 506.1422
1043.791, 510.3219
1044.273, 513.8560
1044.755, 515.3469
1045.237, 516.3209
1045.719, 518.1597
1046.201, 520.8624
1046.683, 524.8479
1047.166, 531.8639
1047.648, 533.3433
1048.130, 525.6049
1048.612, 523.2349
1049.094, 531.2572
1049.576, 544.7433
1050.058, 561.2424
1050.540, 577.8286
1051.022, 585.5078
1051.505, 582.9115
1051.987, 585.5610
1052.469, 594.5537
1052.951, 602.0954
1053.433, 606.6119
1053.915, 606.9289
1054.397, 600.5709
1054.879, 595.2970
1055.361, 607.9189
1055.844, 636.0989
1056.326, 650.9791
1056.808, 652.7145
1057.290, 656.7313
1057.772, 665.7200
1058.254, 670.6768
1058.736, 666.3577
1059.218, 662.0807
1059.701, 671.7095
1060.183, 689.9601
1060.665, 696.2415
1061.147, 694.1048
1061.629, 705.5960
1062.111, 731.0436
1062.593, 751.3420
1063.075, 759.2083
1063.557, 763.3406
1064.040, 771.4333
1064.522, 782.1210
1065.004, 793.9684
1065.486, 805.9922
1065.968, 816.7343
1066.450, 825.2802
1066.932, 826.5450
1067.414, 821.1081
1067.896, 822.4438
1068.379, 841.3495
1068.861, 864.5634
1069.343, 876.6425
1069.825, 884.0831
1070.307, 894.4531
1070.789, 908.0248
1071.271, 926.3326
1071.753, 947.5632
1072.236, 965.3760
1072.718, 977.2355
1073.200, 983.4126
1073.682, 977.4893
1074.164, 973.1760
1074.646, 983.7682
1075.128, 1001.348
1075.610, 1018.372
1076.093, 1032.916
1076.575, 1042.603
1077.057, 1046.606
1077.539, 1053.450
1078.021, 1069.633
1078.503, 1085.720
1078.985, 1099.594
1079.467, 1109.602
1079.949, 1114.507
1080.432, 1114.763
1080.914, 1107.049
1081.396, 1092.289
1081.878, 1091.627
1082.360, 1123.548
1082.842, 1147.260
1083.324, 1153.290
1083.806, 1153.850
1084.288, 1153.125
1084.771, 1150.555
1085.253, 1143.913
1085.735, 1134.554
1086.217, 1128.885
1086.699, 1126.568
1087.181, 1129.529
1087.663, 1143.739
1088.145, 1150.734
1088.628, 1143.146
1089.110, 1131.895
1089.592, 1124.513
1090.074, 1119.331
1090.556, 1112.361
1091.038, 1103.421
1091.520, 1098.375
1092.002, 1097.735
1092.484, 1098.614
1092.967, 1101.199
1093.449, 1100.720
1093.931, 1094.502
1094.413, 1085.068
1094.895, 1074.560
1095.377, 1064.717
1095.859, 1064.471
1096.341, 1071.906
1096.823, 1070.758
1097.306, 1060.767
1097.788, 1052.908
1098.270, 1050.708
1098.752, 1050.858
1099.234, 1051.137
1099.716, 1050.701
1100.198, 1048.618
1100.680, 1044.683
1101.163, 1036.937
1101.645, 1027.393
1102.127, 1023.238
1102.609, 1023.251
1103.091, 1014.749
1103.573, 991.0991
1104.055, 972.1228
1104.537, 983.0208
1105.020, 996.6577
1105.502, 985.0840
1105.984, 963.9904
1106.466, 952.4095
1106.948, 947.8931
1107.430, 940.1913
1107.912, 927.2678
1108.394, 916.0655
1108.876, 910.2754
1109.359, 905.3737
1109.841, 902.4880
1110.323, 896.8857
1110.805, 883.5179
1111.287, 867.2911
1111.769, 853.3893
1112.251, 842.2055
1112.733, 833.9775
1113.215, 832.4468
1113.698, 824.6233
1114.180, 803.3502
1114.662, 786.7809
1115.144, 781.1620
1115.626, 778.2239
1116.108, 773.9623
1116.590, 767.0800
1117.072, 753.9503
1117.555, 734.4962
1118.037, 723.0275
1118.519, 721.5564
1119.001, 716.0944
1119.483, 704.1324
1119.965, 694.4277
1120.447, 691.0533
1120.929, 688.5991
1121.411, 681.5817
1121.894, 671.2797
1122.376, 660.2365
1122.858, 648.9431
1123.340, 639.9824
1123.822, 633.1703
1124.304, 626.5411
1124.786, 619.7712
1125.268, 613.9219
1125.750, 609.6214
1126.233, 606.2630
1126.715, 604.8845
1127.197, 602.6409
1127.679, 594.2873
1128.161, 583.1459
1128.643, 573.5001
1129.125, 566.1073
1129.607, 560.8715
1130.090, 557.8083
1130.572, 557.7275
1131.054, 564.1356
1131.536, 568.0610
1132.018, 563.2562
1132.500, 556.1550
1132.982, 548.9265
1133.464, 543.5344
1133.947, 544.4212
1134.429, 549.0780
1134.911, 546.8488
1135.393, 533.6190
1135.875, 523.3406
1136.357, 514.7458
1136.839, 513.0803
1137.321, 522.9421
1137.803, 534.6733
1138.286, 543.9153
1138.768, 550.7090
1139.250, 555.5018
1139.732, 557.9653
1140.214, 553.9656
1140.696, 542.0690
1141.178, 534.7546
1141.660, 533.0336
1142.142, 534.2812
1142.625, 537.9764
1143.107, 538.6953
1143.589, 531.6259
1144.071, 522.1841
1144.553, 519.2162
1145.035, 521.7064
1145.517, 530.2034
1145.999, 540.8756
1146.482, 540.1063
1146.964, 529.0878
1147.446, 520.4932
1147.928, 519.0113
1148.410, 519.0202
1148.892, 516.3156
1149.374, 513.5064
1149.856, 513.2932
1150.339, 513.7549
1150.821, 513.6176
1151.303, 512.4679
1151.785, 509.0702
1152.267, 504.2070
1152.749, 501.9352
1153.231, 505.2541
1153.713, 503.0797
1154.195, 483.5723
1154.677, 471.1556
1155.160, 480.1931
1155.642, 490.7172
1156.124, 489.2841
1156.606, 482.9155
1157.088, 482.2210
1157.570, 486.4396
1158.052, 486.5235
1158.534, 481.9426
1159.017, 475.3246
1159.499, 466.4217
1159.981, 458.0536
1160.463, 451.2038
1160.945, 443.2722
1161.427, 431.7652
1161.909, 420.8624
1162.391, 420.0551
1162.874, 424.6014
1163.356, 415.3385
1163.838, 398.1101
1164.320, 393.7917
1164.802, 401.0838
1165.284, 403.8358
1165.766, 397.4873
1166.248, 392.6372
1166.730, 398.3018
1167.213, 402.6913
1167.695, 394.6364
1168.177, 382.4906
1168.659, 371.3740
1169.141, 362.3869
1169.623, 356.8813
1170.105, 354.0323
1170.587, 351.5446
1171.069, 349.0526
1171.552, 346.5636
1172.034, 343.6748
1172.516, 341.4527
1172.998, 342.6208
1173.480, 340.5091
1173.962, 329.0605
1174.444, 317.7723
1174.926, 317.7421
1175.409, 324.9411
1175.891, 324.4236
1176.373, 315.1753
1176.855, 314.6504
1177.337, 323.2021
1177.819, 322.7020
1178.301, 310.0397
1178.783, 299.1275
1179.266, 296.7353
1179.748, 297.4399
1180.230, 295.9016
1180.712, 293.3838
1181.194, 292.5262
1181.676, 291.7395
1182.158, 288.7622
1182.640, 283.4690
1183.122, 273.6395
1183.604, 261.4528
1184.087, 256.6748
1184.569, 264.2061
1185.051, 268.8616
1185.533, 259.6510
1186.015, 251.6446
1186.497, 253.1922
1186.979, 255.9867
1187.461, 253.8898
1187.944, 249.6855
1188.426, 248.1291
1188.908, 248.4571
1189.390, 245.5668
1189.872, 237.7067
1190.354, 232.9700
1190.836, 231.9857
1191.318, 231.5305
1191.801, 231.1178
1192.283, 229.2698
1192.765, 224.8145
1193.247, 221.3924
1193.729, 224.5085
1194.211, 230.5414
1194.693, 230.9348
1195.175, 226.9534
1195.657, 220.5284
1196.140, 213.1306
1196.622, 207.0618
1197.104, 203.4722
1197.586, 205.3106
1198.068, 214.5436
1198.550, 222.2159
1199.032, 223.8281
1199.514, 220.8266
1199.996, 209.7927
1200.479, 198.8606
1200.961, 194.2377
1201.443, 193.8687
1201.925, 195.1022
1202.407, 197.4511
1202.889, 198.9861
1203.371, 200.3373
1203.853, 198.2643
1204.336, 190.5637
1204.818, 187.4473
1205.300, 192.5459
1205.782, 193.8860
1206.264, 183.9251
1206.746, 175.2159
1207.228, 184.8398
1207.710, 202.4352
1208.193, 199.6323
1208.675, 184.2648
1209.157, 179.3677
1209.639, 182.2596
1210.121, 180.8344
1210.603, 174.5849
1211.085, 172.8315
1211.567, 179.4084
1212.049, 183.2833
1212.531, 172.4018
1213.014, 164.1818
1213.496, 172.6006
1213.978, 181.6244
1214.460, 177.1517
1214.942, 168.9937
1215.424, 171.5536
1215.906, 181.3609
1216.388, 183.4295
1216.871, 175.5739
1217.353, 174.1343
1217.835, 181.4868
1218.317, 184.5726
1218.799, 180.8107
1219.281, 178.4714
1219.763, 181.0850
1220.245, 184.8569
1220.728, 186.5131
1221.210, 186.5239
1221.692, 185.2351
1222.174, 183.1970
1222.656, 181.1529
1223.138, 179.4475
1223.620, 180.1051
1224.102, 181.4518
1224.584, 176.9701
1225.067, 165.9066
1225.549, 159.8238
1226.031, 165.6871
1226.513, 173.2924
1226.995, 181.7458
1227.477, 187.9903
1227.959, 191.7646
1228.441, 191.4916
1228.923, 183.6974
1229.406, 173.3483
1229.888, 168.8417
1230.370, 169.8401
1230.852, 173.8329
1231.334, 181.0756
1231.816, 184.8416
1232.298, 184.7712
1232.780, 181.5996
1233.263, 175.8903
1233.745, 171.6847
1234.227, 171.3241
1234.709, 171.4483
1235.191, 167.1355
1235.673, 163.1589
1236.155, 165.2067
1236.637, 170.0906
1237.120, 177.1832
1237.602, 182.7539
1238.084, 179.5613
1238.566, 169.6416
1239.048, 163.8933
1239.530, 164.8222
1240.012, 166.7810
1240.494, 169.9390
1240.976, 172.9381
1241.458, 175.5307
1241.941, 178.4839
1242.423, 182.6559
1242.905, 185.4151
##END=



