##NAMES=Beudantite
##RRUFFID=R070189
##IDEAL CHEMISTRY=Pb^2+^Fe^3+^_3_(As^5+^O_4_)(S^6+^O_4_)(OH)_6_
##LOCALITY=Tsumeb mine, Tsumeb, Otavi District, Oshikoto, Namibia
##OWNER=RRUFF
##SOURCE=William W. Pinch
##DESCRIPTION=Transparent brown rhombohedra or pseudocubes associated with green duftite
##STATUS=The identification of this mineral is confirmed by single-crystal X-ray diffraction and chemical analysis.
##URL=rruff.info/R070189
##MEASURED CHEMISTRY=(Pb_0.92_[box]_0.07_Cu_0.01_)_Σ=1_(Fe^3+^_2.80_Al_0.20_)_Σ=3_(As_1.00_O_4_)((S_0.80_As_0.20_)_Σ=1_O_4_)((OH)_5.66_(H_2_O)_0.34_)_Σ=6_ ; trace amounts of P; (OH) estimated by charge balance; H_2_O by difference:  H_2_O=6-(OH) 
131.6260, 2069.795
132.1081, 2214.030
132.5902, 2367.465
133.0723, 2542.669
133.5544, 2714.845
134.0366, 2882.592
134.5187, 3043.409
135.0008, 3196.665
135.4829, 3342.803
135.9650, 3480.768
136.4471, 3581.871
136.9293, 3628.944
137.4114, 3660.809
137.8935, 3690.178
138.3756, 3713.773
138.8577, 3721.379
139.3398, 3704.512
139.8220, 3662.766
140.3041, 3616.364
140.7862, 3558.367
141.2683, 3503.325
141.7504, 3457.103
142.2325, 3419.660
142.7147, 3388.846
143.1968, 3362.832
143.6789, 3342.208
144.1610, 3329.139
144.6431, 3326.533
145.1252, 3328.033
145.6074, 3328.922
146.0895, 3329.763
146.5716, 3336.578
147.0537, 3357.628
147.5358, 3392.335
148.0179, 3409.354
148.5001, 3403.321
148.9822, 3384.133
149.4643, 3356.814
149.9464, 3321.825
150.4285, 3281.956
150.9106, 3238.761
151.3928, 3191.967
151.8749, 3141.414
152.3570, 3081.483
152.8391, 3021.207
153.3212, 2970.453
153.8033, 2930.341
154.2855, 2889.832
154.7676, 2838.487
155.2497, 2778.649
155.7318, 2721.251
156.2139, 2667.899
156.6960, 2617.826
157.1782, 2568.128
157.6603, 2517.630
158.1424, 2474.995
158.6245, 2450.984
159.1066, 2440.646
159.5887, 2433.871
160.0709, 2427.686
160.5530, 2423.877
161.0351, 2424.090
161.5172, 2427.475
161.9993, 2438.294
162.4814, 2467.483
162.9636, 2506.144
163.4457, 2538.383
163.9278, 2552.548
164.4099, 2558.467
164.8920, 2574.742
165.3741, 2604.618
165.8563, 2635.718
166.3384, 2658.946
166.8205, 2678.175
167.3026, 2699.978
167.7847, 2727.237
168.2668, 2758.769
168.7490, 2793.325
169.2311, 2833.832
169.7132, 2870.853
170.1953, 2896.563
170.6774, 2916.290
171.1595, 2937.660
171.6417, 2960.965
172.1238, 2989.459
172.6059, 3034.472
173.0880, 3106.932
173.5701, 3173.953
174.0522, 3214.473
174.5344, 3242.534
175.0165, 3277.417
175.4986, 3328.852
175.9807, 3393.122
176.4628, 3460.976
176.9449, 3532.412
177.4271, 3608.082
177.9092, 3686.682
178.3913, 3769.048
178.8734, 3855.799
179.3555, 3947.402
179.8376, 4044.682
180.3197, 4152.100
180.8019, 4275.331
181.2840, 4399.115
181.7661, 4513.589
182.2482, 4627.251
182.7303, 4749.236
183.2124, 4883.488
183.6946, 5029.857
184.1767, 5188.277
184.6588, 5357.918
185.1409, 5541.289
185.6230, 5744.630
186.1051, 5956.379
186.5873, 6162.721
187.0694, 6355.794
187.5515, 6543.680
188.0336, 6751.920
188.5157, 6980.859
188.9978, 7230.327
189.4800, 7496.342
189.9621, 7778.188
190.4442, 8080.490
190.9263, 8404.007
191.4084, 8742.879
191.8905, 9081.797
192.3727, 9416.396
192.8548, 9762.298
193.3369, 10132.93
193.8190, 10510.20
194.3011, 10877.20
194.7832, 11227.17
195.2654, 11566.97
195.7475, 11911.23
196.2296, 12282.77
196.7117, 12617.80
197.1938, 12906.95
197.6759, 13164.77
198.1581, 13402.06
198.6402, 13623.38
199.1223, 13824.94
199.6044, 14000.42
200.0865, 14152.25
200.5686, 14268.81
201.0508, 14344.38
201.5329, 14395.39
202.0150, 14439.88
202.4971, 14481.12
202.9792, 14498.08
203.4613, 14453.82
203.9435, 14326.44
204.4256, 14183.44
204.9077, 14041.27
205.3898, 13878.85
205.8719, 13673.98
206.3540, 13425.65
206.8362, 13159.02
207.3183, 12908.20
207.8004, 12688.81
208.2825, 12449.41
208.7646, 12172.74
209.2467, 11891.35
209.7289, 11622.23
210.2110, 11369.46
210.6931, 11127.20
211.1752, 10888.89
211.6573, 10654.83
212.1395, 10428.86
212.6216, 10220.06
213.1037, 10012.25
213.5858, 9797.169
214.0679, 9576.079
214.5500, 9355.328
215.0322, 9140.223
215.5143, 8930.658
215.9964, 8731.793
216.4785, 8543.267
216.9606, 8364.605
217.4427, 8201.025
217.9249, 8047.889
218.4070, 7892.341
218.8891, 7721.548
219.3712, 7534.664
219.8533, 7363.611
220.3354, 7212.442
220.8176, 7074.373
221.2997, 6955.729
221.7818, 6849.065
222.2639, 6740.251
222.7460, 6619.249
223.2281, 6487.044
223.7103, 6365.039
224.1924, 6257.228
224.6745, 6156.131
225.1566, 6062.019
225.6387, 5972.963
226.1208, 5886.814
226.6030, 5802.937
227.0851, 5720.534
227.5672, 5635.958
228.0493, 5542.130
228.5314, 5455.705
229.0135, 5381.603
229.4957, 5315.334
229.9778, 5250.394
230.4599, 5183.611
230.9420, 5120.001
231.4241, 5073.489
231.9062, 5060.614
232.3884, 5036.668
232.8705, 4983.658
233.3526, 4925.551
233.8347, 4883.732
234.3168, 4865.209
234.7989, 4859.349
235.2811, 4848.261
235.7632, 4828.973
236.2453, 4811.357
236.7274, 4796.417
237.2095, 4782.923
237.6916, 4768.579
238.1738, 4753.596
238.6559, 4741.875
239.1380, 4738.726
239.6201, 4745.899
240.1022, 4755.384
240.5843, 4770.860
241.0665, 4785.350
241.5486, 4792.563
242.0307, 4794.169
242.5128, 4798.978
242.9949, 4817.720
243.4770, 4852.158
243.9592, 4879.760
244.4413, 4899.370
244.9234, 4912.545
245.4055, 4916.312
245.8876, 4913.691
246.3697, 4911.690
246.8519, 4915.761
247.3340, 4925.130
247.8161, 4931.892
248.2982, 4929.067
248.7803, 4926.755
249.2624, 4940.509
249.7446, 4949.291
250.2267, 4953.368
250.7088, 4938.650
251.1909, 4948.202
251.6730, 4948.028
252.1551, 4947.455
252.6373, 4960.424
253.1194, 4948.440
253.6015, 4961.193
254.0836, 4946.639
254.5657, 4923.664
255.0478, 4897.199
255.5300, 4881.369
256.0121, 4878.608
256.4942, 4877.499
256.9763, 4883.156
257.4584, 4884.349
257.9406, 4868.984
258.4227, 4834.006
258.9048, 4795.960
259.3869, 4772.912
259.8690, 4765.523
260.3511, 4757.396
260.8333, 4747.892
261.3154, 4734.104
261.7975, 4712.608
262.2796, 4683.825
262.7617, 4654.160
263.2438, 4629.274
263.7260, 4607.824
264.2081, 4581.124
264.6902, 4543.184
265.1723, 4508.004
265.6544, 4489.923
266.1365, 4483.619
266.6187, 4471.507
267.1008, 4443.552
267.5829, 4404.496
268.0650, 4362.796
268.5471, 4317.292
269.0292, 4273.801
269.5114, 4234.479
269.9935, 4200.284
270.4756, 4174.694
270.9577, 4166.969
271.4398, 4161.393
271.9219, 4137.418
272.4041, 4094.399
272.8862, 4052.933
273.3683, 4021.222
273.8504, 3999.022
274.3325, 3984.980
274.8146, 3983.231
275.2968, 3982.027
275.7789, 3971.102
276.2610, 3953.365
276.7431, 3941.271
277.2252, 3940.748
277.7073, 3945.837
278.1895, 3946.238
278.6716, 3940.942
279.1537, 3936.755
279.6358, 3933.603
280.1179, 3933.727
280.6000, 3942.744
281.0822, 3962.897
281.5643, 3985.645
282.0464, 3998.214
282.5285, 3998.687
283.0106, 4012.758
283.4927, 4052.584
283.9749, 4101.369
284.4570, 4144.556
284.9391, 4181.001
285.4212, 4216.842
285.9033, 4256.605
286.3854, 4300.331
286.8676, 4345.549
287.3497, 4390.599
287.8318, 4438.602
288.3139, 4488.720
288.7960, 4542.911
289.2781, 4606.694
289.7603, 4684.293
290.2424, 4771.905
290.7245, 4852.073
291.2066, 4925.344
291.6887, 4991.322
292.1708, 5037.017
292.6530, 5079.923
293.1351, 5144.782
293.6172, 5239.932
294.0993, 5350.007
294.5814, 5447.304
295.0635, 5524.556
295.5457, 5602.169
296.0278, 5678.478
296.5099, 5755.807
296.9920, 5839.874
297.4741, 5928.860
297.9562, 6010.151
298.4384, 6069.064
298.9205, 6100.963
299.4026, 6143.456
299.8847, 6207.104
300.3668, 6270.415
300.8489, 6331.894
301.3310, 6387.375
301.8131, 6429.778
302.2953, 6453.853
302.7774, 6461.892
303.2595, 6465.074
303.7416, 6459.677
304.2237, 6454.663
304.7058, 6453.320
305.1880, 6452.670
305.6701, 6450.358
306.1522, 6445.616
306.6343, 6436.823
307.1164, 6420.941
307.5985, 6397.125
308.0807, 6369.549
308.5628, 6341.214
309.0449, 6307.475
309.5270, 6263.364
310.0091, 6209.092
310.4912, 6152.661
310.9734, 6102.938
311.4555, 6058.647
311.9376, 6006.298
312.4197, 5942.999
312.9018, 5874.092
313.3839, 5802.024
313.8661, 5727.404
314.3482, 5652.481
314.8303, 5576.187
315.3124, 5501.048
315.7945, 5431.564
316.2766, 5368.137
316.7588, 5308.790
317.2409, 5258.511
317.7230, 5210.121
318.2051, 5150.721
318.6872, 5072.846
319.1693, 4994.875
319.6515, 4930.231
320.1336, 4877.569
320.6157, 4830.899
321.0978, 4791.086
321.5799, 4752.498
322.0620, 4702.972
322.5442, 4640.109
323.0263, 4584.306
323.5084, 4546.681
323.9905, 4516.836
324.4726, 4480.038
324.9547, 4433.701
325.4369, 4388.071
325.9190, 4354.975
326.4011, 4336.150
326.8832, 4303.830
327.3653, 4250.813
327.8474, 4191.392
328.3296, 4129.769
328.8117, 4067.865
329.2938, 4010.939
329.7759, 3962.954
330.2580, 3920.153
330.7401, 3867.009
331.2223, 3794.577
331.7044, 3722.452
332.1865, 3652.105
332.6686, 3583.061
333.1507, 3514.994
333.6328, 3447.851
334.1150, 3380.888
334.5971, 3312.366
335.0792, 3241.524
335.5613, 3171.958
336.0434, 3105.774
336.5255, 3039.005
337.0077, 2966.911
337.4898, 2892.173
337.9719, 2822.487
338.4540, 2765.207
338.9361, 2718.905
339.4182, 2670.567
339.9004, 2618.364
340.3825, 2567.304
340.8646, 2515.577
341.3467, 2466.585
341.8288, 2425.397
342.3109, 2394.339
342.7931, 2368.777
343.2752, 2343.213
343.7573, 2318.103
344.2394, 2288.954
344.7215, 2247.493
345.2036, 2207.421
345.6858, 2179.321
346.1679, 2163.610
346.6500, 2154.005
347.1321, 2150.049
347.6142, 2149.135
348.0963, 2143.839
348.5785, 2132.885
349.0606, 2119.139
349.5427, 2102.104
350.0248, 2083.698
350.5069, 2070.208
350.9890, 2064.772
351.4712, 2062.985
351.9533, 2060.045
352.4354, 2056.983
352.9175, 2060.353
353.3996, 2075.369
353.8817, 2096.270
354.3639, 2106.983
354.8460, 2102.347
355.3281, 2100.703
355.8102, 2107.166
356.2923, 2118.259
356.7744, 2130.271
357.2566, 2142.355
357.7387, 2154.834
358.2208, 2168.201
358.7029, 2182.811
359.1850, 2196.431
359.6671, 2204.880
360.1493, 2216.503
360.6314, 2239.624
361.1135, 2268.692
361.5956, 2290.276
362.0777, 2295.557
362.5598, 2291.032
363.0420, 2301.382
363.5241, 2340.152
364.0062, 2372.311
364.4883, 2390.996
364.9704, 2403.863
365.4525, 2415.227
365.9347, 2426.781
366.4168, 2441.663
366.8989, 2465.985
367.3810, 2500.969
367.8631, 2527.670
368.3452, 2540.512
368.8274, 2550.486
369.3095, 2562.082
369.7916, 2575.428
370.2737, 2590.606
370.7558, 2608.713
371.2379, 2627.823
371.7201, 2646.303
372.2022, 2664.826
372.6843, 2675.711
373.1664, 2671.766
373.6485, 2660.251
374.1306, 2653.047
374.6128, 2652.029
375.0949, 2649.807
375.5770, 2642.290
376.0591, 2630.944
376.5412, 2618.480
377.0233, 2605.393
377.5055, 2591.580
377.9876, 2576.606
378.4697, 2560.349
378.9518, 2545.201
379.4339, 2534.642
379.9160, 2522.141
380.3982, 2498.130
380.8803, 2468.473
381.3624, 2452.153
381.8445, 2461.257
382.3266, 2484.230
382.8087, 2485.653
383.2909, 2432.527
383.7730, 2400.983
384.2551, 2409.365
384.7372, 2428.775
385.2193, 2434.315
385.7014, 2423.053
386.1836, 2410.197
386.6657, 2413.264
387.1478, 2433.533
387.6299, 2444.737
388.1120, 2440.558
388.5941, 2434.046
389.0763, 2426.637
389.5584, 2420.443
390.0405, 2418.658
390.5226, 2423.003
391.0047, 2431.185
391.4868, 2440.238
391.9690, 2450.270
392.4511, 2459.431
392.9332, 2463.438
393.4153, 2470.082
393.8974, 2488.095
394.3795, 2517.448
394.8617, 2545.839
395.3438, 2561.557
395.8259, 2574.376
396.3080, 2602.793
396.7901, 2649.013
397.2722, 2698.615
397.7544, 2742.077
398.2365, 2780.439
398.7186, 2820.918
399.2007, 2866.006
399.6828, 2909.946
400.1649, 2944.790
400.6471, 2978.250
401.1292, 3025.878
401.6113, 3093.164
402.0934, 3167.378
402.5755, 3230.086
403.0576, 3275.433
403.5398, 3326.127
404.0219, 3386.417
404.5040, 3447.807
404.9861, 3503.127
405.4682, 3555.972
405.9503, 3615.704
406.4325, 3689.007
406.9146, 3771.851
407.3967, 3848.737
407.8788, 3916.921
408.3609, 3984.472
408.8430, 4051.200
409.3252, 4119.467
409.8073, 4190.267
410.2894, 4264.071
410.7715, 4343.374
411.2536, 4435.229
411.7357, 4536.014
412.2179, 4622.064
412.7000, 4685.564
413.1821, 4748.699
413.6642, 4826.211
414.1463, 4914.358
414.6284, 5005.624
415.1106, 5102.649
415.5927, 5198.213
416.0748, 5278.526
416.5569, 5352.092
417.0390, 5449.047
417.5211, 5583.033
418.0033, 5730.441
418.4854, 5855.631
418.9675, 5950.100
419.4496, 6049.333
419.9317, 6155.886
420.4138, 6265.591
420.8960, 6375.288
421.3781, 6485.894
421.8602, 6600.858
422.3423, 6723.203
422.8244, 6851.736
423.3065, 6981.262
423.7887, 7117.349
424.2708, 7245.866
424.7529, 7362.756
425.2350, 7474.205
425.7171, 7580.442
426.1992, 7684.118
426.6814, 7794.330
427.1635, 7926.661
427.6456, 8078.796
428.1277, 8209.062
428.6098, 8309.267
429.0919, 8402.773
429.5741, 8499.264
430.0562, 8598.174
430.5383, 8698.677
431.0204, 8801.149
431.5025, 8904.037
431.9846, 9012.145
432.4668, 9120.648
432.9489, 9211.910
433.4310, 9280.773
433.9131, 9333.313
434.3952, 9374.092
434.8773, 9401.754
435.3595, 9427.867
435.8416, 9461.923
436.3237, 9486.389
436.8058, 9489.683
437.2879, 9474.574
437.7701, 9449.559
438.2522, 9418.971
438.7343, 9381.006
439.2164, 9331.031
439.6985, 9264.481
440.1806, 9193.448
440.6628, 9118.794
441.1449, 9039.382
441.6270, 8957.866
442.1091, 8871.763
442.5912, 8771.799
443.0733, 8647.806
443.5555, 8506.287
444.0376, 8370.665
444.5197, 8238.717
445.0018, 8118.804
445.4839, 8022.548
445.9660, 7934.878
446.4482, 7840.925
446.9303, 7738.538
447.4124, 7635.803
447.8945, 7538.141
448.3766, 7443.459
448.8587, 7346.986
449.3409, 7247.308
449.8230, 7150.803
450.3051, 7060.715
450.7872, 6977.750
451.2693, 6905.242
451.7514, 6846.968
452.2336, 6793.872
452.7157, 6742.749
453.1978, 6695.289
453.6799, 6656.138
454.1620, 6626.032
454.6441, 6597.998
455.1263, 6560.909
455.6084, 6509.932
456.0905, 6477.575
456.5726, 6475.419
457.0547, 6481.407
457.5368, 6492.034
458.0190, 6505.893
458.5011, 6518.784
458.9832, 6526.807
459.4653, 6543.897
459.9474, 6593.078
460.4295, 6674.536
460.9117, 6762.766
461.3938, 6855.257
461.8759, 6950.310
462.3580, 7042.087
462.8401, 7133.150
463.3222, 7240.810
463.8044, 7373.978
464.2865, 7523.014
464.7686, 7682.738
465.2507, 7851.286
465.7328, 8021.290
466.2149, 8188.220
466.6971, 8359.277
467.1792, 8546.395
467.6613, 8761.329
468.1434, 8969.179
468.6255, 9163.054
469.1076, 9356.261
469.5898, 9557.083
470.0719, 9763.729
470.5540, 9967.429
471.0361, 10164.46
471.5182, 10353.21
472.0003, 10535.72
472.4825, 10717.24
472.9646, 10874.80
473.4467, 10999.29
473.9288, 11099.17
474.4109, 11180.54
474.8930, 11242.27
475.3752, 11274.86
475.8573, 11275.11
476.3394, 11241.94
476.8215, 11170.26
477.3036, 11059.91
477.7857, 10923.94
478.2679, 10768.41
478.7500, 10591.83
479.2321, 10385.91
479.7142, 10148.32
480.1963, 9897.750
480.6784, 9633.688
481.1606, 9360.921
481.6427, 9080.118
482.1248, 8793.269
482.6069, 8508.963
483.0890, 8231.833
483.5711, 7961.928
484.0533, 7693.009
484.5354, 7421.123
485.0175, 7156.477
485.4996, 6896.254
485.9817, 6645.626
486.4638, 6412.115
486.9460, 6194.589
487.4281, 5985.563
487.9102, 5776.456
488.3923, 5571.194
488.8744, 5385.858
489.3565, 5224.840
489.8387, 5059.292
490.3208, 4865.758
490.8029, 4664.320
491.2850, 4498.762
491.7671, 4382.643
492.2492, 4261.724
492.7314, 4108.098
493.2135, 3946.773
493.6956, 3807.435
494.1777, 3692.246
494.6598, 3583.243
495.1419, 3466.246
495.6241, 3344.417
496.1062, 3235.399
496.5883, 3150.126
497.0704, 3063.613
497.5525, 2966.226
498.0346, 2871.133
498.5168, 2792.196
498.9989, 2729.161
499.4810, 2668.124
499.9631, 2593.651
500.4452, 2512.029
500.9273, 2450.263
501.4095, 2412.224
501.8916, 2377.499
502.3737, 2337.302
502.8558, 2295.187
503.3379, 2257.259
503.8200, 2224.736
504.3022, 2192.268
504.7843, 2157.886
505.2664, 2122.594
505.7485, 2087.388
506.2306, 2052.528
506.7127, 2018.780
507.1949, 1985.822
507.6770, 1955.164
508.1591, 1934.125
508.6412, 1936.199
509.1233, 1927.883
509.6054, 1898.880
510.0876, 1865.959
510.5697, 1841.912
511.0518, 1826.536
511.5339, 1811.008
512.0161, 1786.954
512.4982, 1759.535
512.9803, 1744.775
513.4624, 1745.303
513.9445, 1743.006
514.4266, 1730.291
514.9088, 1712.762
515.3909, 1697.053
515.8730, 1683.010
516.3551, 1672.015
516.8372, 1668.680
517.3193, 1665.453
517.8015, 1653.914
518.2836, 1635.573
518.7657, 1616.970
519.2478, 1601.198
519.7299, 1589.274
520.2120, 1584.069
520.6942, 1590.172
521.1763, 1594.330
521.6584, 1594.502
522.1405, 1594.850
522.6226, 1599.201
523.1047, 1605.585
523.5869, 1608.348
524.0690, 1603.432
524.5511, 1595.903
525.0332, 1596.295
525.5153, 1604.513
525.9974, 1603.349
526.4796, 1582.152
526.9617, 1561.072
527.4438, 1567.078
527.9259, 1596.323
528.4080, 1615.376
528.8901, 1610.282
529.3723, 1602.984
529.8544, 1604.259
530.3365, 1613.130
530.8186, 1628.909
531.3007, 1651.117
531.7828, 1673.433
532.2650, 1685.574
532.7471, 1684.126
533.2292, 1694.294
533.7113, 1729.162
534.1934, 1760.972
534.6755, 1779.031
535.1577, 1789.946
535.6398, 1802.894
536.1219, 1820.618
536.6040, 1839.941
537.0861, 1857.351
537.5682, 1873.926
538.0504, 1893.359
538.5325, 1916.165
539.0146, 1940.119
539.4967, 1962.702
539.9788, 1985.086
540.4609, 2012.440
540.9431, 2049.455
541.4252, 2084.769
541.9073, 2110.416
542.3894, 2136.960
542.8715, 2178.243
543.3536, 2232.831
543.8358, 2284.772
544.3179, 2319.937
544.8000, 2343.713
545.2821, 2379.727
545.7642, 2429.968
546.2463, 2487.010
546.7285, 2558.348
547.2106, 2628.614
547.6926, 2682.303
548.1747, 2720.792
548.6569, 2765.794
549.1390, 2834.751
549.6211, 2908.864
550.1032, 2965.582
550.5853, 3008.244
551.0674, 3050.732
551.5496, 3098.393
552.0317, 3151.975
552.5138, 3213.531
552.9959, 3286.509
553.4780, 3356.613
553.9601, 3423.910
554.4423, 3489.050
554.9244, 3556.683
555.4065, 3621.030
555.8886, 3671.581
556.3707, 3704.432
556.8528, 3730.575
557.3350, 3762.407
557.8171, 3799.365
558.2992, 3838.266
558.7813, 3881.123
559.2634, 3918.580
559.7455, 3943.292
560.2277, 3957.665
560.7098, 3971.756
561.1919, 3994.290
561.6740, 4001.521
562.1561, 3974.460
562.6382, 3935.466
563.1204, 3910.937
563.6025, 3900.706
564.0846, 3883.553
564.5667, 3841.618
565.0488, 3784.397
565.5309, 3752.759
566.0131, 3765.502
566.4952, 3756.331
566.9773, 3697.646
567.4594, 3625.835
567.9415, 3559.563
568.4236, 3499.559
568.9058, 3443.034
569.3879, 3391.094
569.8700, 3339.734
570.3521, 3283.675
570.8342, 3224.316
571.3163, 3166.420
571.7985, 3111.482
572.2806, 3057.923
572.7627, 3004.408
573.2448, 2950.885
573.7269, 2896.133
574.2090, 2835.866
574.6912, 2778.802
575.1733, 2730.427
575.6554, 2684.697
576.1375, 2632.532
576.6196, 2572.749
577.1017, 2516.116
577.5839, 2475.589
578.0660, 2445.920
578.5481, 2409.620
579.0302, 2366.182
579.5123, 2318.050
579.9944, 2262.247
580.4766, 2206.134
580.9587, 2166.526
581.4408, 2147.308
581.9229, 2124.251
582.4050, 2092.243
582.8871, 2057.342
583.3693, 2021.266
583.8514, 1985.932
584.3335, 1955.146
584.8156, 1930.951
585.2977, 1907.347
585.7798, 1871.153
586.2620, 1820.172
586.7441, 1785.017
587.2262, 1776.138
587.7083, 1767.888
588.1904, 1744.954
588.6725, 1713.184
589.1547, 1680.602
589.6368, 1645.703
590.1189, 1616.512
590.6010, 1600.289
591.0831, 1590.041
591.5652, 1576.811
592.0474, 1560.252
592.5295, 1545.678
593.0116, 1537.252
593.4937, 1531.579
593.9758, 1517.141
594.4579, 1488.525
594.9401, 1464.194
595.4222, 1446.926
595.9043, 1433.387
596.3864, 1422.545
596.8685, 1414.246
597.3506, 1408.766
597.8328, 1407.539
598.3149, 1406.613
598.7970, 1400.445
599.2791, 1391.946
599.7612, 1390.524
600.2433, 1398.017
600.7255, 1403.227
601.2076, 1394.832
601.6897, 1375.802
602.1718, 1370.520
602.6539, 1393.352
603.1360, 1410.660
603.6182, 1416.961
604.1003, 1419.287
604.5824, 1418.875
605.0645, 1418.803
605.5466, 1427.481
606.0287, 1452.775
606.5109, 1485.339
606.9930, 1512.421
607.4751, 1534.353
607.9572, 1552.610
608.4393, 1566.773
608.9214, 1580.560
609.4036, 1596.672
609.8857, 1615.186
610.3678, 1640.941
610.8499, 1678.712
611.3320, 1716.788
611.8141, 1753.234
612.2963, 1788.307
612.7784, 1820.613
613.2605, 1851.048
613.7426, 1883.657
614.2247, 1922.335
614.7068, 1964.659
615.1890, 2005.273
615.6711, 2044.218
616.1532, 2081.005
616.6353, 2116.565
617.1174, 2147.540
617.5995, 2166.916
618.0817, 2174.457
618.5638, 2191.291
619.0459, 2229.706
619.5280, 2264.229
620.0101, 2286.993
620.4922, 2299.341
620.9744, 2303.117
621.4565, 2298.908
621.9386, 2286.577
622.4207, 2264.286
622.9028, 2234.486
623.3849, 2210.180
623.8671, 2194.908
624.3492, 2163.247
624.8313, 2100.500
625.3134, 2026.028
625.7955, 1964.567
626.2776, 1915.135
626.7598, 1859.034
627.2419, 1787.191
627.7240, 1715.410
628.2061, 1650.069
628.6882, 1590.976
629.1703, 1538.865
629.6525, 1493.399
630.1346, 1451.428
630.6167, 1410.144
631.0988, 1369.753
631.5809, 1330.271
632.0630, 1290.280
632.5452, 1256.537
633.0273, 1234.155
633.5094, 1215.831
633.9915, 1192.708
634.4736, 1165.180
634.9557, 1140.365
635.4379, 1121.611
635.9200, 1104.123
636.4021, 1083.700
636.8842, 1063.366
637.3663, 1047.941
637.8484, 1038.506
638.3306, 1033.052
638.8127, 1030.593
639.2948, 1030.224
639.7769, 1026.434
640.2590, 1018.783
640.7411, 1009.074
641.2233, 996.3035
641.7054, 983.1688
642.1875, 973.4291
642.6696, 966.6115
643.1517, 956.6888
643.6339, 937.3333
644.1160, 919.9968
644.5981, 913.0790
645.0802, 911.3990
645.5623, 907.7136
646.0444, 900.1718
646.5266, 889.5748
647.0087, 875.0350
647.4908, 859.0665
647.9729, 855.6379
648.4550, 868.8987
648.9371, 878.1738
649.4193, 877.6109
649.9014, 871.8511
650.3835, 863.8923
650.8656, 854.2177
651.3477, 846.1639
651.8298, 840.4150
652.3120, 836.2187
652.7941, 834.1959
653.2762, 833.0088
653.7583, 830.6409
654.2404, 826.9820
654.7225, 823.7170
655.2047, 822.2766
655.6868, 822.1733
656.1689, 822.0085
656.6510, 821.8946
657.1331, 820.8555
657.6152, 817.8351
658.0974, 815.0784
658.5795, 815.9529
659.0616, 819.2131
659.5437, 819.0313
660.0258, 811.0297
660.5079, 804.3121
660.9901, 803.3613
661.4722, 804.3315
661.9543, 801.8079
662.4364, 796.6326
662.9185, 795.0253
663.4006, 801.6518
663.8828, 812.8679
664.3649, 822.3613
664.8470, 830.2736
665.3291, 830.7728
665.8112, 820.3404
666.2933, 808.4297
666.7755, 800.4879
667.2576, 796.9202
667.7397, 798.6053
668.2218, 809.4631
668.7039, 819.1238
669.1860, 827.6570
669.6682, 832.5714
670.1503, 828.9850
670.6324, 820.1516
671.1145, 814.2567
671.5966, 815.2035
672.0787, 821.6489
672.5609, 835.9762
673.0430, 855.8379
673.5251, 861.6870
674.0072, 849.0898
674.4893, 838.3437
674.9714, 843.2704
675.4536, 856.7935
675.9357, 859.8627
676.4178, 843.7768
676.8999, 836.3868
677.3820, 843.0374
677.8641, 853.8095
678.3463, 867.5510
678.8284, 880.4719
679.3105, 886.1659
679.7926, 882.6014
680.2747, 877.5718
680.7568, 877.7765
681.2390, 882.0913
681.7211, 890.3306
682.2032, 901.8782
682.6853, 905.7014
683.1674, 895.0817
683.6495, 881.0902
684.1317, 882.4023
684.6138, 904.1674
685.0959, 913.8798
685.5780, 899.4613
686.0601, 887.4719
686.5422, 884.5789
687.0244, 887.0187
687.5065, 891.5803
687.9886, 897.5098
688.4707, 903.5259
688.9528, 909.2507
689.4349, 914.4325
689.9171, 921.1144
690.3992, 927.0073
690.8813, 923.0071
691.3634, 906.9568
691.8455, 891.1928
692.3276, 889.0049
692.8098, 898.3210
693.2919, 900.6215
693.7740, 892.9275
694.2561, 884.7290
694.7382, 875.1205
695.2203, 867.9511
695.7025, 869.1771
696.1846, 875.5470
696.6667, 874.5895
697.1488, 856.7466
697.6309, 840.7032
698.1130, 837.9633
698.5952, 841.7952
699.0773, 844.5741
699.5594, 845.3495
700.0415, 846.5357
700.5236, 850.0040
701.0057, 852.6700
701.4879, 847.0474
701.9700, 832.6416
702.4521, 819.2544
702.9342, 805.4591
703.4163, 799.2189
703.8984, 812.2564
704.3806, 833.2941
704.8627, 833.6006
705.3448, 803.6024
705.8269, 781.9203
706.3090, 776.9676
706.7911, 778.4904
707.2733, 783.2730
707.7554, 789.2689
708.2375, 794.4629
708.7196, 798.1769
709.2017, 800.0466
709.6838, 799.6093
710.1660, 797.1041
710.6481, 792.8277
711.1302, 786.8550
711.6123, 779.6877
712.0944, 770.8695
712.5765, 763.7244
713.0587, 763.0036
713.5408, 769.1378
714.0229, 772.5467
714.5050, 773.4621
714.9871, 771.1312
715.4692, 762.6316
715.9514, 753.1099
716.4335, 746.1452
716.9156, 741.9929
717.3977, 739.9581
717.8798, 741.0064
718.3619, 742.2908
718.8441, 742.1940
719.3262, 740.5425
719.8083, 734.8677
720.2904, 726.2665
720.7725, 723.0342
721.2546, 731.5803
721.7368, 745.6307
722.2189, 748.5535
722.7010, 737.8468
723.1831, 733.8569
723.6652, 741.2507
724.1473, 749.2946
724.6295, 753.0466
725.1116, 752.9454
725.5937, 749.3962
726.0758, 740.3983
726.5579, 735.0741
727.0400, 738.8604
727.5222, 742.9036
728.0043, 741.0492
728.4864, 736.1896
728.9685, 732.7424
729.4506, 732.1353
729.9327, 734.4763
730.4149, 742.5153
730.8970, 752.4990
731.3791, 755.6833
731.8612, 752.5010
732.3433, 745.9346
732.8254, 736.0861
733.3076, 727.9639
733.7897, 726.9041
734.2718, 732.4587
734.7539, 739.0759
735.2360, 752.0632
735.7181, 757.1046
736.2003, 744.5070
736.6824, 731.3257
737.1645, 728.6326
737.6466, 733.8558
738.1287, 738.7835
738.6108, 741.0737
739.0930, 743.1771
739.5751, 747.1337
740.0572, 751.2054
740.5393, 752.6030
741.0214, 752.1363
741.5035, 753.3546
741.9857, 757.9277
742.4678, 763.0891
742.9499, 765.0857
743.4320, 764.0193
743.9141, 760.9579
744.3962, 755.4036
744.8784, 750.4840
745.3605, 746.9642
745.8426, 745.2124
746.3247, 745.4694
746.8068, 747.6194
747.2889, 753.4601
747.7711, 769.5194
748.2532, 780.6821
748.7353, 780.8909
749.2174, 776.6333
749.6995, 772.5692
750.1816, 769.5745
750.6638, 767.6099
751.1459, 765.8453
751.6280, 766.6805
752.1101, 775.3135
752.5922, 787.0737
753.0743, 793.2012
753.5565, 792.8967
754.0386, 788.1851
754.5207, 779.6147
755.0028, 771.9220
755.4849, 776.3365
755.9670, 794.8352
756.4492, 806.6413
756.9313, 809.8718
757.4134, 810.1494
757.8955, 808.8588
758.3776, 806.7376
758.8597, 803.9810
759.3419, 800.0600
759.8240, 800.5733
760.3061, 810.0688
760.7882, 819.1785
761.2703, 823.8359
761.7524, 826.6971
762.2346, 831.3203
762.7167, 837.4459
763.1988, 841.6072
763.6809, 841.7280
764.1630, 839.2386
764.6451, 833.2601
765.1273, 826.4047
765.6094, 825.6266
766.0915, 831.5493
766.5736, 840.5699
767.0557, 850.9880
767.5378, 860.7295
768.0200, 863.5129
768.5021, 856.6430
768.9842, 860.0988
769.4663, 879.5779
769.9484, 897.7268
770.4305, 906.0833
770.9127, 909.6646
771.3948, 916.2241
771.8769, 926.1975
772.3590, 933.0915
772.8411, 934.5455
773.3232, 934.6775
773.8054, 932.2447
774.2875, 931.1542
774.7696, 936.6625
775.2517, 947.9537
775.7338, 958.8528
776.2159, 965.4709
776.6981, 971.3987
777.1802, 979.2022
777.6623, 989.7403
778.1444, 1007.262
778.6265, 1030.932
779.1086, 1051.126
779.5908, 1062.007
780.0729, 1068.848
780.5550, 1081.470
781.0371, 1100.440
781.5192, 1119.736
782.0013, 1140.516
782.4835, 1158.285
782.9656, 1167.590
783.4477, 1176.501
783.9298, 1195.125
784.4119, 1223.463
784.8940, 1257.037
785.3762, 1307.079
785.8583, 1347.434
786.3404, 1361.600
786.8225, 1370.646
787.3046, 1390.762
787.7867, 1422.802
788.2689, 1463.225
788.7510, 1513.701
789.2331, 1562.193
789.7152, 1594.354
790.1973, 1620.549
790.6794, 1658.064
791.1616, 1706.301
791.6437, 1756.287
792.1258, 1804.572
792.6079, 1853.085
793.0900, 1905.655
793.5721, 1961.450
794.0543, 2012.145
794.5364, 2057.706
795.0185, 2097.697
795.5006, 2126.702
795.9827, 2161.942
796.4648, 2224.816
796.9470, 2311.671
797.4291, 2380.764
797.9112, 2412.136
798.3933, 2453.897
798.8754, 2516.587
799.3575, 2581.787
799.8397, 2635.828
800.3218, 2685.575
800.8039, 2748.465
801.2860, 2831.206
801.7681, 2905.342
802.2502, 2950.606
802.7324, 2986.304
803.2145, 3028.401
803.6966, 3074.684
804.1787, 3116.483
804.6608, 3153.290
805.1429, 3199.114
805.6251, 3270.837
806.1072, 3352.427
806.5893, 3406.536
807.0714, 3436.977
807.5535, 3469.730
808.0356, 3509.052
808.5178, 3555.771
808.9999, 3612.741
809.4820, 3673.125
809.9641, 3716.680
810.4462, 3734.972
810.9283, 3768.816
811.4105, 3830.098
811.8926, 3887.765
812.3747, 3925.547
812.8568, 3956.405
813.3389, 3995.801
813.8210, 4043.754
814.3032, 4087.255
814.7853, 4114.826
815.2674, 4149.691
815.7495, 4209.204
816.2316, 4271.989
816.7137, 4317.173
817.1959, 4347.853
817.6780, 4379.297
818.1601, 4417.368
818.6422, 4460.344
819.1243, 4506.123
819.6064, 4556.787
820.0886, 4621.276
820.5707, 4694.086
821.0528, 4751.734
821.5349, 4787.111
822.0170, 4820.499
822.4991, 4874.658
822.9813, 4945.802
823.4634, 5022.059
823.9455, 5104.922
824.4276, 5169.579
824.9097, 5205.955
825.3918, 5243.105
825.8740, 5302.461
826.3561, 5379.704
826.8382, 5460.264
827.3203, 5548.478
827.8024, 5629.772
828.2845, 5691.867
828.7667, 5762.235
829.2488, 5856.527
829.7309, 5960.842
830.2130, 6058.165
830.6951, 6147.639
831.1772, 6238.720
831.6594, 6334.499
832.1415, 6431.338
832.6236, 6523.799
833.1057, 6619.795
833.5878, 6729.235
834.0699, 6850.479
834.5521, 6975.076
835.0342, 7099.765
835.5163, 7224.396
835.9984, 7353.594
836.4805, 7480.764
836.9626, 7588.959
837.4448, 7684.811
837.9269, 7798.109
838.4090, 7937.496
838.8911, 8076.261
839.3732, 8184.308
839.8553, 8269.748
840.3375, 8364.611
840.8196, 8469.165
841.3017, 8571.104
841.7838, 8670.305
842.2659, 8756.642
842.7480, 8821.947
843.2302, 8872.186
843.7123, 8923.693
844.1944, 8980.771
844.6765, 9024.251
845.1586, 9042.287
845.6407, 9064.343
846.1229, 9108.713
846.6050, 9155.904
847.0871, 9193.488
847.5692, 9219.511
848.0513, 9216.151
848.5334, 9160.423
849.0156, 9102.887
849.4977, 9064.368
849.9798, 9022.702
850.4619, 8961.593
850.9440, 8882.871
851.4261, 8793.725
851.9083, 8695.590
852.3904, 8592.819
852.8725, 8487.599
853.3546, 8378.521
853.8367, 8257.543
854.3188, 8132.598
854.8010, 8027.438
855.2831, 7940.642
855.7652, 7836.335
856.2473, 7687.626
856.7294, 7509.620
857.2115, 7318.558
857.6937, 7120.729
858.1758, 6944.663
858.6579, 6792.584
859.1400, 6644.616
859.6221, 6490.547
860.1042, 6339.176
860.5864, 6201.352
861.0685, 6077.738
861.5506, 5970.046
862.0327, 5886.617
862.5148, 5783.647
862.9969, 5639.585
863.4791, 5494.812
863.9612, 5381.405
864.4433, 5291.789
864.9254, 5200.437
865.4075, 5104.662
865.8896, 5012.158
866.3718, 4915.042
866.8539, 4829.797
867.3360, 4779.611
867.8181, 4733.098
868.3002, 4646.003
868.7823, 4520.192
869.2645, 4418.006
869.7466, 4379.151
870.2287, 4336.354
870.7108, 4258.451
871.1929, 4170.557
871.6750, 4090.090
872.1572, 4019.802
872.6393, 3963.690
873.1214, 3923.773
873.6035, 3878.776
874.0856, 3808.958
874.5677, 3729.339
875.0499, 3648.781
875.5320, 3573.480
876.0141, 3520.088
876.4962, 3487.790
876.9783, 3453.981
877.4604, 3403.208
877.9426, 3343.980
878.4247, 3287.935
878.9068, 3235.472
879.3889, 3189.549
879.8710, 3149.818
880.3531, 3108.911
880.8353, 3064.070
881.3174, 3018.804
881.7995, 2977.275
882.2816, 2939.132
882.7637, 2903.500
883.2458, 2871.757
883.7280, 2832.023
884.2101, 2780.113
884.6922, 2728.030
885.1743, 2683.460
885.6564, 2644.534
886.1385, 2606.465
886.6207, 2567.822
887.1028, 2537.678
887.5849, 2525.264
888.0670, 2506.575
888.5491, 2474.322
889.0313, 2434.216
889.5134, 2387.418
889.9955, 2336.359
890.4776, 2291.472
890.9597, 2250.851
891.4418, 2221.537
891.9240, 2216.888
892.4061, 2210.119
892.8882, 2183.457
893.3703, 2147.872
893.8524, 2118.212
894.3345, 2096.482
894.8167, 2077.996
895.2988, 2066.184
895.7809, 2050.849
896.2630, 2024.980
896.7451, 1993.948
897.2272, 1960.564
897.7094, 1927.511
898.1915, 1899.949
898.6736, 1879.798
899.1557, 1860.883
899.6378, 1836.687
900.1199, 1812.424
900.6021, 1797.236
901.0842, 1786.192
901.5663, 1766.840
902.0484, 1738.861
902.5305, 1714.055
903.0126, 1700.334
903.4948, 1690.416
903.9769, 1672.565
904.4590, 1650.047
904.9411, 1634.952
905.4232, 1626.482
905.9053, 1614.581
906.3875, 1596.024
906.8696, 1576.855
907.3517, 1563.347
907.8338, 1552.927
908.3159, 1536.839
908.7980, 1515.077
909.2802, 1491.882
909.7623, 1466.794
910.2444, 1447.979
910.7265, 1440.580
911.2086, 1438.209
911.6907, 1432.325
912.1729, 1422.890
912.6550, 1407.794
913.1371, 1383.749
913.6192, 1364.453
914.1013, 1353.141
914.5834, 1345.495
915.0656, 1340.421
915.5477, 1335.920
916.0298, 1327.188
916.5119, 1313.259
916.9940, 1298.492
917.4761, 1276.759
917.9583, 1262.922
918.4404, 1268.473
918.9225, 1276.154
919.4046, 1272.392
919.8867, 1259.338
920.3688, 1245.456
920.8510, 1230.429
921.3331, 1216.593
921.8152, 1203.130
922.2973, 1192.247
922.7794, 1184.497
923.2615, 1180.099
923.7437, 1182.596
924.2258, 1190.040
924.7079, 1189.416
925.1900, 1171.330
925.6721, 1153.651
926.1542, 1139.922
926.6364, 1132.980
927.1185, 1140.193
927.6006, 1153.848
928.0827, 1161.329
928.5648, 1159.948
929.0469, 1155.349
929.5291, 1150.006
930.0112, 1143.374
930.4933, 1134.133
930.9754, 1123.948
931.4575, 1113.040
931.9396, 1103.276
932.4218, 1099.252
932.9039, 1102.524
933.3860, 1108.558
933.8681, 1117.877
934.3502, 1124.193
934.8323, 1115.816
935.3145, 1099.380
935.7966, 1088.084
936.2787, 1083.521
936.7608, 1081.644
937.2429, 1080.485
937.7250, 1078.830
938.2072, 1073.367
938.6893, 1067.032
939.1714, 1068.051
939.6535, 1074.496
940.1356, 1079.254
940.6177, 1080.404
941.0999, 1076.511
941.5820, 1065.935
942.0641, 1053.149
942.5462, 1046.450
943.0283, 1044.790
943.5104, 1042.049
943.9926, 1038.335
944.4747, 1039.996
944.9568, 1049.196
945.4389, 1055.990
945.9210, 1051.124
946.4031, 1037.987
946.8853, 1024.016
947.3674, 1009.244
947.8495, 1003.363
948.3316, 1007.723
948.8137, 1012.536
949.2958, 1014.144
949.7780, 1014.467
950.2601, 1016.129
950.7422, 1018.016
951.2243, 1013.624
951.7064, 1001.994
952.1885, 989.5256
952.6707, 975.3813
953.1528, 966.4352
953.6349, 967.0668
954.1170, 972.1439
954.5991, 975.2877
955.0812, 976.4532
955.5634, 974.5536
956.0455, 967.6805
956.5276, 964.0920
957.0097, 967.2802
957.4918, 968.4063
957.9739, 961.2545
958.4561, 950.8360
958.9382, 945.6620
959.4203, 946.2513
959.9024, 943.3884
960.3845, 925.8611
960.8666, 918.4947
961.3488, 918.8654
961.8309, 914.6129
962.3130, 905.9808
962.7951, 879.8563
963.2772, 876.3199
963.7593, 863.7326
964.2415, 867.0070
964.7236, 881.5766
965.2057, 888.7623
965.6878, 878.5845
966.1699, 865.8400
966.6520, 860.9541
967.1342, 860.1918
967.6163, 853.6893
968.0984, 837.4767
968.5805, 830.6783
969.0626, 847.1362
969.5447, 855.7478
970.0269, 840.8024
970.5090, 822.4183
970.9911, 815.3186
971.4732, 817.0989
971.9553, 820.5352
972.4374, 825.6295
972.9196, 829.9862
973.4017, 833.6497
973.8838, 836.1027
974.3659, 837.3555
974.8480, 837.1506
975.3301, 833.1294
975.8123, 827.5545
976.2944, 827.9781
976.7765, 838.5292
977.2586, 845.1890
977.7407, 838.6367
978.2228, 835.0983
978.7050, 842.6211
979.1871, 855.8157
979.6692, 868.8969
980.1513, 882.5551
980.6334, 901.0184
981.1155, 925.4692
981.5977, 953.7575
982.0798, 983.0264
982.5619, 1018.531
983.0440, 1066.650
983.5261, 1120.160
984.0082, 1170.246
984.4904, 1218.078
984.9725, 1269.733
985.4546, 1323.383
985.9367, 1391.467
986.4188, 1484.062
986.9009, 1586.524
987.3831, 1688.755
987.8652, 1797.305
988.3473, 1917.022
988.8294, 2049.594
989.3115, 2198.186
989.7936, 2365.881
990.2758, 2542.766
990.7579, 2717.695
991.2400, 2907.402
991.7221, 3125.472
992.2042, 3362.188
992.6863, 3612.319
993.1685, 3871.456
993.6506, 4132.354
994.1327, 4396.351
994.6148, 4647.428
995.0969, 4875.932
995.5790, 5091.905
996.0612, 5307.778
996.5433, 5510.245
997.0254, 5693.021
997.5075, 5847.950
997.9896, 5950.674
998.4717, 5989.555
998.9539, 5985.882
999.4360, 5948.582
999.9181, 5873.037
1000.400, 5754.305
1000.882, 5597.076
1001.364, 5404.420
1001.847, 5178.678
1002.329, 4925.562
1002.811, 4640.108
1003.293, 4347.975
1003.775, 4054.817
1004.257, 3763.943
1004.739, 3473.117
1005.221, 3191.637
1005.703, 2931.186
1006.186, 2693.529
1006.668, 2473.497
1007.150, 2270.807
1007.632, 2086.477
1008.114, 1923.390
1008.596, 1776.402
1009.078, 1643.458
1009.560, 1523.990
1010.043, 1417.774
1010.525, 1324.328
1011.007, 1243.043
1011.489, 1174.385
1011.971, 1113.734
1012.453, 1058.369
1012.935, 1010.654
1013.417, 974.7117
1013.899, 945.4772
1014.382, 919.8063
1014.864, 895.8589
1015.346, 867.9507
1015.828, 830.8732
1016.310, 806.3364
1016.792, 816.0052
1017.274, 824.6382
1017.756, 807.8150
1018.239, 784.4638
1018.721, 775.8257
1019.203, 778.4543
1019.685, 776.1135
1020.167, 764.1101
1020.649, 752.0063
1021.131, 741.1906
1021.613, 733.0339
1022.095, 730.8099
1022.578, 729.2196
1023.060, 721.6546
1023.542, 711.0184
1024.024, 705.9713
1024.506, 709.1755
1024.988, 710.9008
1025.470, 708.4286
1025.952, 704.3282
1026.435, 698.5667
1026.917, 692.4579
1027.399, 686.7661
1027.881, 681.6256
1028.363, 676.2636
1028.845, 669.9485
1029.327, 669.1885
1029.809, 683.7181
1030.292, 692.0695
1030.774, 683.3610
1031.256, 671.8186
1031.738, 666.1825
1032.220, 664.8559
1032.702, 664.2303
1033.184, 663.9415
1033.666, 665.8901
1034.148, 673.5441
1034.630, 678.6370
1035.113, 678.9577
1035.595, 677.3462
1036.077, 671.6871
1036.559, 666.9789
1037.041, 672.1227
1037.523, 687.5901
1038.005, 699.3780
1038.487, 708.1669
1038.970, 711.8848
1039.452, 705.5622
1039.934, 700.4802
1040.416, 702.3686
1040.898, 707.2898
1041.380, 710.0136
1041.862, 711.0493
1042.344, 716.5924
1042.826, 731.2419
1043.309, 739.7822
1043.791, 737.1660
1044.273, 737.1559
1044.755, 747.1961
1045.237, 758.3691
1045.719, 760.2723
1046.201, 755.9584
1046.683, 760.3833
1047.166, 777.9968
1047.648, 788.8160
1048.130, 790.1497
1048.612, 792.3247
1049.094, 798.7398
1049.576, 805.7971
1050.058, 809.5614
1050.540, 812.8701
1051.022, 823.9247
1051.505, 843.5150
1051.987, 863.4517
1052.469, 884.2202
1052.951, 901.8539
1053.433, 915.7220
1053.915, 923.8097
1054.397, 923.5130
1054.879, 921.0473
1055.361, 928.4415
1055.844, 944.7908
1056.326, 959.1650
1056.808, 971.6780
1057.290, 986.1918
1057.772, 1003.379
1058.254, 1023.010
1058.736, 1045.373
1059.218, 1064.802
1059.701, 1071.590
1060.183, 1071.084
1060.665, 1081.839
1061.147, 1102.148
1061.629, 1123.774
1062.111, 1145.282
1062.593, 1163.488
1063.075, 1177.347
1063.557, 1191.370
1064.040, 1210.281
1064.522, 1230.876
1065.004, 1246.429
1065.486, 1259.187
1065.968, 1274.304
1066.450, 1291.816
1066.932, 1311.823
1067.414, 1333.378
1067.896, 1349.292
1068.379, 1352.122
1068.861, 1356.810
1069.343, 1385.239
1069.825, 1422.146
1070.307, 1445.887
1070.789, 1461.606
1071.271, 1481.776
1071.753, 1507.376
1072.236, 1531.838
1072.718, 1552.238
1073.200, 1571.689
1073.682, 1595.303
1074.164, 1616.057
1074.646, 1624.446
1075.128, 1629.320
1075.610, 1641.259
1076.093, 1659.539
1076.575, 1679.734
1077.057, 1700.867
1077.539, 1718.914
1078.021, 1731.128
1078.503, 1741.106
1078.985, 1745.398
1079.467, 1753.065
1079.949, 1780.223
1080.432, 1811.176
1080.914, 1815.451
1081.396, 1791.550
1081.878, 1779.419
1082.360, 1791.329
1082.842, 1807.556
1083.324, 1831.499
1083.806, 1851.542
1084.288, 1860.561
1084.771, 1864.410
1085.253, 1870.253
1085.735, 1876.638
1086.217, 1875.846
1086.699, 1864.831
1087.181, 1854.614
1087.663, 1844.623
1088.145, 1836.704
1088.628, 1831.709
1089.110, 1827.905
1089.592, 1822.550
1090.074, 1819.510
1090.556, 1829.574
1091.038, 1853.794
1091.520, 1857.462
1092.002, 1835.451
1092.484, 1826.940
1092.967, 1839.897
1093.449, 1856.219
1093.931, 1867.659
1094.413, 1873.333
1094.895, 1870.907
1095.377, 1863.368
1095.859, 1863.028
1096.341, 1868.447
1096.823, 1867.174
1097.306, 1859.130
1097.788, 1854.248
1098.270, 1855.548
1098.752, 1857.946
1099.234, 1858.028
1099.716, 1854.407
1100.198, 1839.769
1100.680, 1822.664
1101.163, 1825.247
1101.645, 1839.122
1102.127, 1840.204
1102.609, 1827.239
1103.091, 1816.860
1103.573, 1817.182
1104.055, 1815.905
1104.537, 1800.498
1105.020, 1781.502
1105.502, 1762.514
1105.984, 1750.253
1106.466, 1761.110
1106.948, 1782.562
1107.430, 1784.586
1107.912, 1761.878
1108.394, 1741.532
1108.876, 1738.459
1109.359, 1733.789
1109.841, 1722.880
1110.323, 1705.689
1110.805, 1671.424
1111.287, 1638.356
1111.769, 1634.255
1112.251, 1653.213
1112.733, 1658.310
1113.215, 1641.649
1113.698, 1622.650
1114.180, 1598.161
1114.662, 1577.678
1115.144, 1565.642
1115.626, 1554.646
1116.108, 1539.799
1116.590, 1522.635
1117.072, 1505.787
1117.555, 1489.229
1118.037, 1472.860
1118.519, 1456.267
1119.001, 1443.090
1119.483, 1434.756
1119.965, 1422.203
1120.447, 1400.720
1120.929, 1380.197
1121.411, 1371.831
1121.894, 1369.733
1122.376, 1358.210
1122.858, 1339.192
1123.340, 1321.973
1123.822, 1306.892
1124.304, 1292.049
1124.786, 1277.484
1125.268, 1266.283
1125.750, 1260.276
1126.233, 1257.324
1126.715, 1257.221
1127.197, 1256.980
1127.679, 1251.940
1128.161, 1244.219
1128.643, 1236.131
1129.125, 1228.693
1129.607, 1225.076
1130.090, 1225.123
1130.572, 1219.008
1131.054, 1195.154
1131.536, 1175.786
1132.018, 1173.045
1132.500, 1177.960
1132.982, 1189.248
1133.464, 1201.100
1133.947, 1207.037
1134.429, 1207.683
1134.911, 1207.381
1135.393, 1205.917
1135.875, 1206.026
1136.357, 1210.490
1136.839, 1212.487
1137.321, 1206.699
1137.803, 1204.586
1138.286, 1215.270
1138.768, 1230.276
1139.250, 1237.153
1139.732, 1236.632
1140.214, 1234.831
1140.696, 1230.803
1141.178, 1234.942
1141.660, 1249.302
1142.142, 1254.288
1142.625, 1242.909
1143.107, 1233.665
1143.589, 1241.576
1144.071, 1256.655
1144.553, 1261.541
1145.035, 1259.452
1145.517, 1260.686
1145.999, 1263.329
1146.482, 1260.003
1146.964, 1251.417
1147.446, 1244.795
1147.928, 1242.758
1148.410, 1241.367
1148.892, 1237.458
1149.374, 1233.447
1149.856, 1233.308
1150.339, 1232.419
1150.821, 1224.167
1151.303, 1213.257
1151.785, 1204.890
1152.267, 1200.942
1152.749, 1206.906
1153.231, 1230.976
1153.713, 1237.292
1154.195, 1201.251
1154.677, 1169.264
1155.160, 1156.623
1155.642, 1150.766
1156.124, 1146.612
1156.606, 1142.002
1157.088, 1133.229
1157.570, 1120.815
1158.052, 1111.226
1158.534, 1105.474
1159.017, 1098.286
1159.499, 1089.784
1159.981, 1077.589
1160.463, 1060.715
1160.945, 1041.458
1161.427, 1020.630
1161.909, 1001.986
1162.391, 993.4063
1162.874, 991.3923
1163.356, 985.0331
1163.838, 974.7933
1164.320, 960.7628
1164.802, 944.4473
1165.284, 931.6161
1165.766, 923.5045
1166.248, 913.8571
1166.730, 898.1708
1167.213, 880.4313
1167.695, 862.6349
1168.177, 845.5884
1168.659, 830.0801
1169.141, 815.8348
1169.623, 802.4579
1170.105, 789.8904
1170.587, 777.5056
1171.069, 764.6431
1171.552, 756.5882
1172.034, 759.7640
1172.516, 759.1865
1172.998, 750.4995
1173.480, 740.7022
1173.962, 732.7800
1174.444, 724.9613
1174.926, 715.2243
1175.409, 704.2299
1175.891, 694.0673
1176.373, 684.6038
1176.855, 678.8273
1177.337, 676.8646
1177.819, 671.1478
1178.301, 660.3843
1178.783, 651.8515
1179.266, 649.1110
1179.748, 644.2301
1180.230, 626.5306
1180.712, 606.1647
1181.194, 603.6172
1181.676, 607.3680
1182.158, 596.5939
1182.640, 576.6343
1183.122, 558.5003
1183.604, 545.6691
1184.087, 542.4999
1184.569, 552.3344
1185.051, 558.2878
1185.533, 548.9087
1186.015, 539.1360
1186.497, 537.9810
1186.979, 535.6799
1187.461, 521.7842
1187.944, 504.9128
1188.426, 498.4483
1188.908, 500.4595
1189.390, 499.0636
1189.872, 493.7436
1190.354, 486.6336
1190.836, 477.3810
1191.318, 467.2618
1191.801, 456.0436
1192.283, 448.6342
1192.765, 448.5179
1193.247, 447.8061
1193.729, 434.3856
1194.211, 416.4965
1194.693, 416.4157
1195.175, 427.3629
1195.657, 433.2728
1196.140, 433.2849
1196.622, 427.1219
1197.104, 416.6385
1197.586, 409.4390
1198.068, 409.3206
1198.550, 408.0405
1199.032, 397.1116
1199.514, 387.8610
1199.996, 388.4730
1200.479, 391.4882
1200.961, 392.5554
1201.443, 391.2540
1201.925, 386.7670
1202.407, 379.6013
1202.889, 373.6074
1203.371, 369.4899
1203.853, 363.6690
1204.336, 353.2742
1204.818, 351.9772
1205.300, 365.2295
1205.782, 374.7724
1206.264, 370.2163
1206.746, 361.8202
1207.228, 362.5259
1207.710, 366.8300
1208.193, 358.2315
1208.675, 342.8093
1209.157, 339.1003
1209.639, 344.2896
1210.121, 348.2821
1210.603, 349.3340
1211.085, 350.1391
1211.567, 351.8038
1212.049, 351.7182
1212.531, 345.1378
1213.014, 340.6497
1213.496, 344.9839
1213.978, 350.5704
1214.460, 354.7764
1214.942, 355.2667
1215.424, 345.4366
1215.906, 330.0278
1216.388, 327.4037
1216.871, 341.2130
1217.353, 344.1299
1217.835, 332.0936
1218.317, 327.4376
1218.799, 334.5891
1219.281, 339.1856
1219.763, 335.0483
1220.245, 329.4740
1220.728, 328.8043
1221.210, 331.9276
1221.692, 339.4959
1222.174, 347.8179
1222.656, 347.2885
1223.138, 342.4714
1223.620, 344.0067
1224.102, 350.2090
1224.584, 351.9142
1225.067, 347.1680
1225.549, 343.6753
1226.031, 347.2965
1226.513, 347.5634
1226.995, 337.9246
1227.477, 328.1704
1227.959, 319.3744
1228.441, 315.7351
1228.923, 323.8138
1229.406, 335.5095
1229.888, 336.3571
1230.370, 327.4989
1230.852, 320.9301
1231.334, 316.6143
1231.816, 316.0903
1232.298, 319.2919
1232.780, 323.4624
1233.263, 327.6211
1233.745, 329.0983
1234.227, 326.2788
1234.709, 323.2339
##END=



