##NAMES=Beudantite
##RRUFFID=R070502
##IDEAL CHEMISTRY=Pb^2+^Fe^3+^_3_(As^5+^O_4_)(S^6+^O_4_)(OH)_6_
##LOCALITY=Dulcinea, Copiap√≥ Province, Atacama Region, Chile
##OWNER=RRUFF
##SOURCE=Bob Jenkins
##DESCRIPTION=Thin hexagonal yellow plates
##STATUS=The identification of this mineral has been confirmed only by single crystal X-ray diffraction.
##URL=rruff.info/R070502
151.6017, 10032.17
152.0838, 10160.10
152.5659, 10263.10
153.0481, 10336.31
153.5302, 10435.12
154.0123, 10583.61
154.4944, 10751.32
154.9765, 10906.67
155.4586, 11050.29
155.9408, 11177.53
156.4229, 11282.20
156.9050, 11311.18
157.3871, 11292.77
157.8692, 11288.50
158.3513, 11291.64
158.8335, 11282.90
159.3156, 11247.78
159.7977, 11209.41
160.2798, 11180.68
160.7619, 11173.84
161.2440, 11154.92
161.7262, 11102.40
162.2083, 11029.99
162.6904, 10969.09
163.1725, 10942.92
163.6546, 10925.12
164.1367, 10897.53
164.6189, 10842.75
165.1010, 10795.25
165.5831, 10766.86
166.0652, 10757.12
166.5473, 10765.96
167.0294, 10811.25
167.5116, 10866.54
167.9937, 10906.89
168.4758, 10908.74
168.9579, 10906.92
169.4400, 10931.80
169.9221, 10979.75
170.4043, 11013.43
170.8864, 10989.18
171.3685, 10940.12
171.8506, 10911.44
172.3327, 10937.30
172.8148, 10980.93
173.2970, 11014.10
173.7791, 11036.53
174.2612, 11046.26
174.7433, 11033.61
175.2254, 11007.36
175.7076, 10984.58
176.1897, 10974.22
176.6718, 10971.57
177.1539, 10971.10
177.6360, 10972.80
178.1181, 10976.07
178.6003, 10976.34
179.0824, 10976.74
179.5645, 10987.19
180.0466, 11022.61
180.5287, 11070.24
181.0108, 11102.15
181.4930, 11110.65
181.9751, 11118.52
182.4572, 11160.69
182.9393, 11232.37
183.4214, 11302.75
183.9035, 11350.33
184.3857, 11381.33
184.8678, 11412.57
185.3499, 11444.96
185.8320, 11480.14
186.3141, 11517.71
186.7962, 11558.16
187.2784, 11607.82
187.7605, 11670.97
188.2426, 11746.70
188.7247, 11834.76
189.2068, 11937.43
189.6889, 12048.75
190.1711, 12159.93
190.6532, 12270.24
191.1353, 12376.04
191.6174, 12471.38
192.0995, 12556.06
192.5816, 12640.43
193.0638, 12726.16
193.5459, 12812.95
194.0280, 12901.25
194.5101, 12993.12
194.9922, 13080.77
195.4743, 13154.93
195.9565, 13215.04
196.4386, 13275.09
196.9207, 13339.08
197.4028, 13406.46
197.8849, 13472.67
198.3671, 13538.81
198.8492, 13603.45
199.3313, 13666.75
199.8134, 13729.56
200.2955, 13784.82
200.7776, 13832.45
201.2598, 13871.99
201.7419, 13889.40
202.2240, 13874.77
202.7061, 13857.35
203.1882, 13887.39
203.6703, 13975.90
204.1525, 14053.25
204.6346, 14093.45
205.1167, 14094.61
205.5988, 14080.53
206.0809, 14044.03
206.5630, 14001.54
207.0452, 13983.61
207.5273, 13995.80
208.0094, 14013.08
208.4915, 14026.83
208.9736, 14037.41
209.4557, 14041.89
209.9379, 14036.87
210.4200, 14029.26
210.9021, 14037.37
211.3842, 14070.48
211.8663, 14095.09
212.3484, 14091.96
212.8306, 14053.64
213.3127, 14020.79
213.7948, 13992.88
214.2769, 13972.00
214.7590, 13964.18
215.2411, 13971.34
215.7233, 13987.42
216.2054, 14017.38
216.6875, 14077.62
217.1696, 14091.84
217.6517, 14040.26
218.1338, 13942.72
218.6160, 13870.23
219.0981, 13829.46
219.5802, 13799.90
220.0623, 13776.41
220.5444, 13774.56
221.0265, 13730.90
221.5087, 13620.20
221.9908, 13462.53
222.4729, 13362.58
222.9550, 13353.96
223.4371, 13350.49
223.9192, 13290.41
224.4014, 13142.67
224.8835, 13021.20
225.3656, 12949.32
225.8477, 12916.21
226.3298, 12853.95
226.8119, 12742.85
227.2941, 12628.16
227.7762, 12540.29
228.2583, 12490.65
228.7404, 12444.82
229.2225, 12399.09
229.7046, 12353.73
230.1868, 12312.06
230.6689, 12277.18
231.1510, 12242.22
231.6331, 12201.90
232.1152, 12156.21
232.5974, 12105.05
233.0795, 12042.32
233.5616, 11970.46
234.0437, 11919.78
234.5258, 11897.40
235.0079, 11888.66
235.4901, 11884.24
235.9722, 11893.91
236.4543, 11889.85
236.9364, 11865.32
237.4185, 11821.03
237.9006, 11775.54
238.3828, 11718.18
238.8649, 11670.96
239.3470, 11654.75
239.8291, 11686.73
240.3112, 11716.73
240.7933, 11734.65
241.2755, 11740.42
241.7576, 11751.72
242.2397, 11775.08
242.7218, 11796.48
243.2039, 11801.50
243.6860, 11779.35
244.1682, 11760.96
244.6503, 11752.02
245.1324, 11752.56
245.6145, 11757.40
246.0966, 11774.20
246.5787, 11787.72
247.0609, 11779.28
247.5430, 11726.57
248.0251, 11696.91
248.5072, 11712.67
248.9893, 11775.61
249.4714, 11811.06
249.9536, 11812.35
250.4357, 11793.02
250.9178, 11763.14
251.3999, 11712.35
251.8820, 11672.61
252.3641, 11649.41
252.8463, 11642.96
253.3284, 11654.11
253.8105, 11695.05
254.2926, 11739.92
254.7747, 11762.38
255.2568, 11755.56
255.7390, 11740.65
256.2211, 11716.47
256.7032, 11682.86
257.1853, 11671.04
257.6674, 11692.64
258.1495, 11722.15
258.6317, 11733.96
259.1138, 11723.88
259.5959, 11704.92
260.0780, 11674.96
260.5601, 11633.53
261.0422, 11609.64
261.5244, 11608.12
262.0065, 11617.31
262.4886, 11627.20
262.9707, 11640.58
263.4528, 11646.98
263.9349, 11641.52
264.4171, 11624.36
264.8992, 11615.86
265.3813, 11618.51
265.8634, 11625.59
266.3455, 11633.00
266.8276, 11644.84
267.3098, 11642.62
267.7919, 11614.99
268.2740, 11564.62
268.7561, 11543.53
269.2382, 11564.94
269.7203, 11591.91
270.2025, 11584.10
270.6846, 11530.18
271.1667, 11488.04
271.6488, 11472.62
272.1309, 11480.98
272.6130, 11482.18
273.0952, 11473.47
273.5773, 11463.98
274.0594, 11465.16
274.5415, 11480.28
275.0236, 11486.41
275.5057, 11476.73
275.9879, 11453.94
276.4700, 11433.30
276.9521, 11414.46
277.4342, 11399.31
277.9163, 11390.09
278.3984, 11387.21
278.8806, 11387.10
279.3627, 11390.17
279.8448, 11395.31
280.3269, 11396.30
280.8090, 11391.50
281.2911, 11388.49
281.7733, 11393.66
282.2554, 11406.89
282.7375, 11424.18
283.2196, 11446.08
283.7017, 11470.39
284.1838, 11487.94
284.6660, 11497.18
285.1481, 11509.43
285.6302, 11539.85
286.1123, 11586.71
286.5944, 11619.56
287.0765, 11629.77
287.5587, 11625.71
288.0408, 11631.71
288.5229, 11649.11
289.0050, 11658.22
289.4871, 11633.26
289.9692, 11582.00
290.4514, 11552.92
290.9335, 11558.17
291.4156, 11584.58
291.8977, 11606.53
292.3798, 11624.33
292.8619, 11644.65
293.3441, 11678.60
293.8262, 11720.19
294.3083, 11744.21
294.7904, 11742.48
295.2726, 11730.87
295.7547, 11734.75
296.2368, 11752.68
296.7189, 11772.96
297.2010, 11790.13
297.6831, 11803.85
298.1653, 11812.88
298.6474, 11816.28
299.1295, 11817.15
299.6116, 11817.32
300.0937, 11817.68
300.5758, 11821.99
301.0580, 11841.92
301.5401, 11864.87
302.0222, 11867.20
302.5043, 11842.59
302.9864, 11811.76
303.4685, 11793.04
303.9507, 11785.12
304.4328, 11784.78
304.9149, 11796.24
305.3970, 11811.74
305.8791, 11822.63
306.3612, 11828.07
306.8434, 11829.24
307.3255, 11824.15
307.8076, 11815.49
308.2897, 11808.58
308.7718, 11804.82
309.2539, 11804.49
309.7361, 11812.89
310.2182, 11831.70
310.7003, 11838.89
311.1824, 11794.68
311.6645, 11733.59
312.1466, 11706.80
312.6288, 11776.14
313.1109, 11855.40
313.5930, 11885.49
314.0751, 11863.94
314.5572, 11838.58
315.0393, 11837.16
315.5215, 11844.71
316.0036, 11844.56
316.4857, 11817.50
316.9678, 11793.91
317.4499, 11791.43
317.9320, 11809.04
318.4142, 11823.13
318.8963, 11823.07
319.3784, 11816.72
319.8605, 11810.35
320.3426, 11798.10
320.8247, 11793.37
321.3069, 11809.03
321.7890, 11839.98
322.2711, 11854.39
322.7532, 11824.15
323.2353, 11787.33
323.7174, 11767.14
324.1996, 11776.59
324.6817, 11791.75
325.1638, 11814.75
325.6459, 11842.22
326.1280, 11861.38
326.6101, 11875.78
327.0923, 11878.12
327.5744, 11865.39
328.0565, 11840.87
328.5386, 11796.92
329.0207, 11704.67
329.5028, 11594.51
329.9850, 11537.04
330.4671, 11580.57
330.9492, 11627.01
331.4313, 11641.05
331.9134, 11604.63
332.3955, 11583.28
332.8777, 11588.07
333.3598, 11602.69
333.8419, 11598.96
334.3240, 11561.02
334.8061, 11530.60
335.2882, 11521.40
335.7704, 11536.76
336.2525, 11550.17
336.7346, 11561.26
337.2167, 11570.33
337.6988, 11580.08
338.1809, 11594.90
338.6631, 11595.41
339.1452, 11572.88
339.6273, 11528.51
340.1094, 11486.45
340.5915, 11441.96
341.0736, 11410.58
341.5558, 11418.20
342.0379, 11470.48
342.5200, 11501.55
343.0021, 11490.98
343.4842, 11452.29
343.9663, 11436.35
344.4485, 11446.11
344.9306, 11459.91
345.4127, 11456.15
345.8948, 11438.17
346.3769, 11434.72
346.8590, 11454.66
347.3412, 11485.88
347.8233, 11505.24
348.3054, 11513.19
348.7875, 11516.66
349.2696, 11516.87
349.7517, 11515.70
350.2339, 11518.82
350.7160, 11527.04
351.1981, 11537.90
351.6802, 11549.34
352.1623, 11560.78
352.6444, 11571.16
353.1266, 11582.67
353.6087, 11591.09
354.0908, 11587.40
354.5729, 11569.33
355.0550, 11551.58
355.5371, 11546.64
356.0193, 11551.10
356.5014, 11558.71
356.9835, 11573.05
357.4656, 11585.69
357.9477, 11590.72
358.4298, 11588.32
358.9120, 11579.54
359.3941, 11558.20
359.8762, 11533.98
360.3583, 11516.83
360.8404, 11511.45
361.3225, 11513.09
361.8047, 11524.59
362.2868, 11543.35
362.7689, 11555.31
363.2510, 11547.03
363.7331, 11534.58
364.2152, 11528.75
364.6974, 11534.32
365.1795, 11542.26
365.6616, 11553.09
366.1437, 11564.88
366.6258, 11572.72
367.1079, 11569.86
367.5901, 11568.02
368.0722, 11572.71
368.5543, 11589.26
369.0364, 11602.60
369.5185, 11614.38
370.0006, 11622.62
370.4828, 11624.19
370.9649, 11619.78
371.4470, 11608.21
371.9291, 11585.55
372.4112, 11548.29
372.8933, 11523.89
373.3755, 11512.89
373.8576, 11514.08
374.3397, 11528.50
374.8218, 11561.64
375.3039, 11592.55
375.7861, 11619.27
376.2682, 11640.35
376.7503, 11647.24
377.2324, 11637.00
377.7145, 11619.37
378.1967, 11596.96
378.6788, 11568.40
379.1609, 11557.23
379.6430, 11573.44
380.1251, 11601.79
380.6072, 11600.42
381.0894, 11567.43
381.5715, 11541.73
382.0536, 11554.53
382.5357, 11597.56
383.0178, 11626.66
383.4999, 11639.03
383.9821, 11639.16
384.4642, 11628.89
384.9463, 11609.79
385.4284, 11590.65
385.9105, 11567.39
386.3926, 11548.29
386.8748, 11551.32
387.3569, 11576.77
387.8390, 11605.46
388.3211, 11613.72
388.8032, 11615.05
389.2853, 11634.00
389.7675, 11706.54
390.2496, 11772.59
390.7317, 11767.59
391.2138, 11704.80
391.6959, 11651.52
392.1780, 11653.63
392.6602, 11676.98
393.1423, 11689.86
393.6244, 11675.13
394.1065, 11670.61
394.5886, 11699.44
395.0707, 11749.74
395.5529, 11795.85
396.0350, 11836.18
396.5171, 11865.22
396.9992, 11879.23
397.4813, 11875.13
397.9634, 11865.04
398.4456, 11831.49
398.9277, 11799.38
399.4098, 11797.57
399.8919, 11865.31
400.3740, 11923.05
400.8561, 11956.30
401.3383, 11964.90
401.8204, 11969.23
402.3025, 11954.06
402.7846, 11950.45
403.2667, 11987.41
403.7488, 12098.57
404.2310, 12165.86
404.7131, 12161.12
405.1952, 12112.32
405.6773, 12109.09
406.1594, 12165.85
406.6415, 12224.58
407.1237, 12253.46
407.6058, 12250.19
408.0879, 12251.61
408.5700, 12258.42
409.0521, 12269.49
409.5342, 12282.78
410.0164, 12298.14
410.4985, 12317.60
410.9806, 12342.55
411.4627, 12372.01
411.9448, 12404.77
412.4269, 12441.10
412.9091, 12474.59
413.3912, 12493.89
413.8733, 12505.54
414.3554, 12524.64
414.8375, 12556.89
415.3196, 12595.26
415.8018, 12637.60
416.2839, 12680.93
416.7660, 12715.06
417.2481, 12706.98
417.7302, 12700.42
418.2123, 12744.30
418.6945, 12857.95
419.1766, 12973.75
419.6587, 13056.94
420.1408, 13116.57
420.6229, 13164.85
421.1050, 13178.81
421.5872, 13207.06
422.0693, 13277.42
422.5514, 13392.31
423.0335, 13503.02
423.5156, 13606.75
423.9977, 13698.17
424.4799, 13774.96
424.9620, 13794.45
425.4441, 13847.08
425.9262, 13963.16
426.4083, 14121.34
426.8904, 14240.45
427.3726, 14294.90
427.8547, 14342.93
428.3368, 14410.38
428.8189, 14508.75
429.3010, 14590.92
429.7831, 14651.55
430.2653, 14703.13
430.7474, 14767.81
431.2295, 14851.38
431.7116, 14922.79
432.1937, 14969.80
432.6758, 14996.72
433.1580, 15030.41
433.6401, 15071.89
434.1222, 15114.34
434.6043, 15159.83
435.0864, 15204.00
435.5685, 15221.16
436.0507, 15203.34
436.5328, 15160.90
437.0149, 15098.90
437.4970, 15022.28
437.9791, 14955.49
438.4612, 14924.23
438.9434, 14907.60
439.4255, 14875.60
439.9076, 14824.65
440.3897, 14769.96
440.8718, 14731.66
441.3539, 14696.82
441.8361, 14647.60
442.3182, 14562.50
442.8003, 14475.50
443.2824, 14401.49
443.7645, 14340.76
444.2466, 14291.79
444.7288, 14262.58
445.2109, 14239.82
445.6930, 14215.96
446.1751, 14191.88
446.6572, 14162.48
447.1393, 14122.34
447.6215, 14076.24
448.1036, 14034.66
448.5857, 13999.32
449.0678, 13965.96
449.5499, 13934.54
450.0320, 13906.25
450.5142, 13871.09
450.9963, 13823.66
451.4784, 13776.48
451.9605, 13744.66
452.4426, 13734.76
452.9247, 13712.09
453.4069, 13667.38
453.8890, 13608.73
454.3711, 13556.83
454.8532, 13510.02
455.3353, 13480.78
455.8174, 13486.25
456.2996, 13518.69
456.7817, 13533.38
457.2638, 13524.10
457.7459, 13514.71
458.2281, 13543.01
458.7102, 13595.25
459.1923, 13631.14
459.6744, 13628.31
460.1565, 13605.75
460.6386, 13580.29
461.1208, 13553.19
461.6029, 13533.18
462.0850, 13522.11
462.5671, 13523.39
463.0492, 13543.28
463.5313, 13593.08
464.0135, 13640.68
464.4956, 13661.07
464.9777, 13671.22
465.4598, 13699.77
465.9419, 13769.66
466.4240, 13844.83
466.9062, 13917.41
467.3883, 13988.17
467.8704, 14039.14
468.3525, 14043.68
468.8346, 14044.92
469.3167, 14074.07
469.7989, 14151.93
470.2810, 14218.31
470.7631, 14273.69
471.2452, 14313.23
471.7273, 14322.33
472.2094, 14295.72
472.6916, 14254.58
473.1737, 14201.83
473.6558, 14138.04
474.1379, 14097.04
474.6200, 14084.34
475.1021, 14075.07
475.5843, 14037.39
476.0664, 13975.83
476.5485, 13919.52
477.0306, 13880.60
477.5127, 13847.14
477.9948, 13801.43
478.4770, 13744.00
478.9591, 13678.58
479.4412, 13597.88
479.9233, 13513.75
480.4054, 13442.63
480.8875, 13387.87
481.3697, 13336.19
481.8518, 13278.80
482.3339, 13219.22
482.8160, 13162.31
483.2981, 13113.92
483.7802, 13063.82
484.2624, 13002.50
484.7445, 12932.72
485.2266, 12880.00
485.7087, 12868.23
486.1908, 12860.10
486.6729, 12837.74
487.1551, 12803.98
487.6372, 12748.56
488.1193, 12647.32
488.6014, 12538.96
489.0835, 12481.45
489.5656, 12495.63
490.0478, 12509.80
490.5299, 12508.15
491.0120, 12491.67
491.4941, 12465.56
491.9762, 12428.06
492.4583, 12388.73
492.9405, 12356.13
493.4226, 12328.80
493.9047, 12295.01
494.3868, 12249.64
494.8689, 12207.58
495.3510, 12188.47
495.8332, 12189.33
496.3153, 12199.49
496.7974, 12230.19
497.2795, 12257.73
497.7616, 12245.92
498.2437, 12197.99
498.7259, 12157.94
499.2080, 12158.17
499.6901, 12175.29
500.1722, 12187.92
500.6543, 12189.33
501.1364, 12190.31
501.6186, 12197.47
502.1007, 12206.60
502.5828, 12209.85
503.0649, 12204.61
503.5470, 12195.20
504.0291, 12179.60
504.5113, 12157.07
504.9934, 12148.07
505.4755, 12164.59
505.9576, 12180.98
506.4397, 12177.00
506.9218, 12144.26
507.4040, 12120.13
507.8861, 12106.52
508.3682, 12103.19
508.8503, 12113.54
509.3324, 12138.17
509.8145, 12159.67
510.2967, 12169.36
510.7788, 12170.20
511.2609, 12172.34
511.7430, 12175.64
512.2252, 12176.62
512.7073, 12165.62
513.1894, 12151.61
513.6715, 12152.65
514.1536, 12178.23
514.6357, 12205.08
515.1179, 12218.46
515.6000, 12219.39
516.0821, 12209.81
516.5642, 12170.54
517.0463, 12138.89
517.5284, 12139.75
518.0106, 12173.93
518.4927, 12198.99
518.9748, 12196.30
519.4569, 12187.62
519.9390, 12186.67
520.4211, 12197.33
520.9033, 12210.69
521.3854, 12233.20
521.8675, 12255.25
522.3496, 12255.91
522.8317, 12225.15
523.3138, 12202.06
523.7960, 12199.17
524.2781, 12214.22
524.7602, 12233.93
525.2423, 12259.60
525.7244, 12282.54
526.2065, 12292.07
526.6887, 12292.33
527.1708, 12301.11
527.6529, 12321.80
528.1350, 12347.02
528.6171, 12372.95
529.0992, 12397.20
529.5814, 12413.74
530.0635, 12412.16
530.5456, 12407.68
531.0277, 12409.21
531.5098, 12416.88
531.9919, 12432.13
532.4741, 12466.10
532.9562, 12499.86
533.4383, 12518.71
533.9204, 12507.03
534.4025, 12512.58
534.8846, 12568.05
535.3668, 12634.03
535.8489, 12658.87
536.3310, 12608.30
536.8131, 12576.84
537.2952, 12587.76
537.7773, 12630.94
538.2595, 12654.14
538.7416, 12654.04
539.2237, 12647.47
539.7058, 12639.67
540.1879, 12631.67
540.6700, 12639.98
541.1522, 12666.71
541.6343, 12699.39
542.1164, 12728.33
542.5985, 12751.70
543.0806, 12762.80
543.5627, 12751.01
544.0449, 12738.09
544.5270, 12744.20
545.0091, 12767.22
545.4912, 12801.15
545.9733, 12863.66
546.4554, 12919.93
546.9376, 12942.37
547.4197, 12925.48
547.9018, 12913.78
548.3839, 12924.06
548.8660, 12941.69
549.3481, 12955.50
549.8303, 12965.77
550.3124, 12971.55
550.7945, 12973.13
551.2766, 12970.60
551.7587, 12962.77
552.2408, 12947.09
552.7230, 12933.75
553.2051, 12924.66
553.6872, 12920.40
554.1693, 12925.83
554.6514, 12941.14
555.1335, 12963.81
555.6157, 13003.22
556.0978, 13048.92
556.5799, 13064.04
557.0620, 13039.47
557.5441, 13002.69
558.0262, 12975.17
558.5084, 12956.79
558.9905, 12947.07
559.4726, 12955.27
559.9547, 12963.45
560.4368, 12956.56
560.9189, 12939.26
561.4011, 12931.89
561.8832, 12955.76
562.3653, 12979.21
562.8474, 12986.00
563.3295, 12968.70
563.8116, 12954.43
564.2938, 12945.07
564.7759, 12937.32
565.2580, 12928.10
565.7401, 12917.07
566.2222, 12904.60
566.7043, 12888.19
567.1865, 12872.42
567.6686, 12869.45
568.1507, 12879.40
568.6328, 12891.17
569.1149, 12904.09
569.5970, 12914.08
570.0792, 12905.25
570.5613, 12878.26
571.0434, 12854.85
571.5255, 12866.32
572.0076, 12884.70
572.4897, 12868.66
572.9719, 12796.18
573.4540, 12734.15
573.9361, 12730.30
574.4182, 12756.48
574.9003, 12773.58
575.3824, 12778.43
575.8646, 12765.96
576.3467, 12723.54
576.8288, 12658.78
577.3109, 12611.17
577.7930, 12586.98
578.2751, 12571.94
578.7573, 12563.90
579.2394, 12564.97
579.7215, 12550.00
580.2036, 12514.97
580.6857, 12475.72
581.1678, 12449.81
581.6500, 12435.50
582.1321, 12417.96
582.6142, 12394.74
583.0963, 12367.26
583.5784, 12332.98
584.0605, 12295.43
584.5427, 12263.57
585.0248, 12241.18
585.5069, 12227.02
585.9890, 12220.50
586.4711, 12221.53
586.9532, 12229.20
587.4354, 12272.47
587.9175, 12300.24
588.3996, 12273.06
588.8817, 12146.91
589.3638, 12072.86
589.8459, 12085.22
590.3281, 12130.29
590.8102, 12154.14
591.2923, 12148.89
591.7744, 12143.51
592.2565, 12141.81
592.7386, 12142.00
593.2208, 12139.12
593.7029, 12132.99
594.1850, 12128.36
594.6671, 12129.89
595.1492, 12134.00
595.6313, 12134.37
596.1135, 12130.85
596.5956, 12118.87
597.0777, 12084.87
597.5598, 12045.66
598.0419, 12022.37
598.5240, 12022.18
599.0062, 12023.85
599.4883, 12017.59
599.9704, 12007.92
600.4525, 12000.06
600.9346, 11985.19
601.4167, 11984.03
601.8989, 12006.40
602.3810, 12043.52
602.8631, 12072.00
603.3452, 12091.99
603.8273, 12101.38
604.3094, 12093.06
604.7916, 12069.59
605.2737, 12071.83
605.7558, 12102.63
606.2379, 12139.52
606.7200, 12168.83
607.2021, 12190.50
607.6843, 12200.56
608.1664, 12196.14
608.6485, 12194.33
609.1306, 12214.04
609.6127, 12246.57
610.0948, 12278.81
610.5770, 12294.96
611.0591, 12321.88
611.5412, 12384.32
612.0233, 12467.47
612.5054, 12530.00
612.9875, 12550.63
613.4697, 12561.52
613.9518, 12564.34
614.4339, 12558.38
614.9160, 12586.42
615.3981, 12664.35
615.8802, 12745.01
616.3624, 12791.92
616.8445, 12803.63
617.3266, 12836.45
617.8087, 12898.26
618.2908, 12961.56
618.7729, 12987.86
619.2551, 12987.79
619.7372, 12993.92
620.2193, 13022.36
620.7014, 13049.88
621.1835, 13059.87
621.6656, 13051.85
622.1478, 13024.94
622.6299, 12965.35
623.1120, 12899.48
623.5941, 12840.42
624.0762, 12788.54
624.5583, 12730.96
625.0405, 12662.53
625.5226, 12592.22
626.0047, 12525.22
626.4868, 12465.39
626.9689, 12386.79
627.4510, 12277.64
627.9332, 12173.51
628.4153, 12120.38
628.8974, 12114.62
629.3795, 12104.60
629.8616, 12082.64
630.3438, 12048.30
630.8259, 11985.83
631.3080, 11908.88
631.7901, 11855.43
632.2722, 11867.55
632.7543, 11889.19
633.2365, 11877.90
633.7186, 11839.92
634.2007, 11804.95
634.6828, 11783.06
635.1649, 11767.16
635.6470, 11756.99
636.1292, 11755.38
636.6113, 11742.45
637.0934, 11705.02
637.5755, 11673.26
638.0576, 11673.91
638.5397, 11713.18
639.0219, 11745.13
639.5040, 11769.20
639.9861, 11779.07
640.4682, 11750.42
640.9503, 11694.27
641.4324, 11666.39
641.9146, 11700.84
642.3967, 11746.41
642.8788, 11744.48
643.3609, 11706.70
643.8430, 11665.84
644.3251, 11616.51
644.8073, 11586.92
645.2894, 11605.53
645.7715, 11671.34
646.2536, 11712.46
646.7357, 11701.22
647.2178, 11679.45
647.7000, 11663.04
648.1821, 11651.27
648.6642, 11653.04
649.1463, 11676.04
649.6284, 11696.56
650.1105, 11683.02
650.5927, 11639.16
651.0748, 11609.57
651.5569, 11603.61
652.0390, 11607.77
652.5211, 11605.33
653.0032, 11599.21
653.4854, 11596.42
653.9675, 11604.13
654.4496, 11611.75
654.9317, 11608.74
655.4138, 11599.49
655.8959, 11598.07
656.3781, 11624.46
656.8602, 11643.97
657.3423, 11641.71
657.8244, 11617.79
658.3065, 11591.24
658.7886, 11548.47
659.2708, 11527.55
659.7529, 11565.76
660.2350, 11666.17
660.7171, 11726.38
661.1992, 11742.13
661.6813, 11731.39
662.1635, 11704.40
662.6456, 11666.02
663.1277, 11625.59
663.6099, 11579.23
664.0920, 11547.08
664.5741, 11555.26
665.0562, 11586.07
665.5383, 11610.83
666.0204, 11621.60
666.5026, 11623.57
666.9847, 11617.09
667.4668, 11602.46
667.9489, 11581.35
668.4310, 11543.67
668.9131, 11516.97
669.3953, 11514.34
669.8774, 11532.45
670.3595, 11535.77
670.8416, 11521.76
671.3237, 11510.71
671.8058, 11524.72
672.2880, 11551.66
672.7701, 11550.78
673.2522, 11517.39
673.7343, 11499.48
674.2164, 11560.81
674.6985, 11646.27
675.1807, 11692.02
675.6628, 11665.79
676.1449, 11636.99
676.6270, 11625.43
677.1091, 11623.43
677.5912, 11621.73
678.0734, 11632.40
678.5555, 11619.50
679.0376, 11562.94
679.5197, 11489.78
680.0018, 11473.08
680.4839, 11518.03
680.9661, 11556.58
681.4482, 11556.67
681.9303, 11538.46
682.4124, 11555.92
682.8945, 11601.68
683.3766, 11630.32
683.8588, 11596.71
684.3409, 11545.74
684.8230, 11517.84
685.3051, 11515.66
685.7872, 11512.67
686.2693, 11493.73
686.7515, 11475.60
687.2336, 11470.39
687.7157, 11483.68
688.1978, 11493.40
688.6799, 11498.47
689.1620, 11501.41
689.6442, 11502.55
690.1263, 11501.41
690.6084, 11511.63
691.0905, 11539.80
691.5726, 11565.00
692.0547, 11554.88
692.5369, 11518.91
693.0190, 11481.43
693.5011, 11441.45
693.9832, 11415.27
694.4653, 11425.46
694.9474, 11458.52
695.4296, 11482.42
695.9117, 11488.24
696.3938, 11483.17
696.8759, 11459.42
697.3580, 11423.26
697.8401, 11416.12
698.3223, 11451.03
698.8044, 11486.40
699.2865, 11501.36
699.7686, 11498.79
700.2507, 11503.01
700.7328, 11514.00
701.2150, 11527.98
701.6971, 11548.13
702.1792, 11566.76
702.6613, 11570.79
703.1434, 11558.17
703.6255, 11536.15
704.1077, 11495.05
704.5898, 11454.20
705.0719, 11431.64
705.5540, 11444.12
706.0361, 11451.10
706.5182, 11440.76
707.0004, 11430.16
707.4825, 11444.36
707.9646, 11494.77
708.4467, 11521.52
708.9288, 11511.38
709.4109, 11480.96
709.8931, 11457.38
710.3752, 11440.34
710.8573, 11426.58
711.3394, 11415.34
711.8215, 11406.17
712.3036, 11395.60
712.7858, 11386.19
713.2679, 11385.85
713.7500, 11395.42
714.2321, 11416.64
714.7142, 11464.17
715.1964, 11534.14
715.6785, 11560.52
716.1606, 11518.25
716.6427, 11470.89
717.1248, 11446.06
717.6069, 11443.29
718.0891, 11440.34
718.5712, 11437.35
719.0533, 11433.67
719.5354, 11428.46
720.0175, 11422.63
720.4996, 11418.88
720.9818, 11418.01
721.4639, 11415.69
721.9460, 11411.99
722.4281, 11404.30
722.9102, 11388.28
723.3923, 11350.64
723.8745, 11330.82
724.3566, 11347.80
724.8387, 11376.17
725.3208, 11388.88
725.8029, 11378.76
726.2850, 11377.57
726.7672, 11390.88
727.2493, 11409.72
727.7314, 11415.73
728.2135, 11411.81
728.6956, 11416.89
729.1777, 11444.51
729.6599, 11472.23
730.1420, 11477.13
730.6241, 11464.01
731.1062, 11443.98
731.5883, 11401.55
732.0704, 11374.00
732.5526, 11391.07
733.0347, 11441.85
733.5168, 11455.50
733.9989, 11409.48
734.4810, 11371.54
734.9631, 11370.75
735.4453, 11399.61
735.9274, 11403.26
736.4095, 11381.06
736.8916, 11356.68
737.3737, 11337.62
737.8558, 11329.77
738.3380, 11351.74
738.8201, 11402.22
739.3022, 11443.28
739.7843, 11449.36
740.2664, 11439.61
740.7485, 11426.33
741.2307, 11410.67
741.7128, 11393.01
742.1949, 11369.16
742.6770, 11348.07
743.1591, 11336.43
743.6412, 11335.11
744.1234, 11337.55
744.6055, 11343.01
745.0876, 11354.16
745.5697, 11380.89
746.0518, 11415.21
746.5339, 11435.97
747.0161, 11437.40
747.4982, 11427.91
747.9803, 11399.74
748.4624, 11368.83
748.9445, 11356.76
749.4266, 11392.61
749.9088, 11416.76
750.3909, 11411.87
750.8730, 11396.06
751.3551, 11400.27
751.8372, 11433.80
752.3193, 11452.56
752.8015, 11444.91
753.2836, 11422.22
753.7657, 11403.90
754.2478, 11389.86
754.7299, 11379.35
755.2120, 11373.74
755.6942, 11369.79
756.1763, 11362.04
756.6584, 11352.87
757.1405, 11349.70
757.6226, 11359.47
758.1047, 11369.71
758.5869, 11375.50
759.0690, 11377.29
759.5511, 11381.12
760.0332, 11391.77
760.5153, 11389.60
760.9974, 11354.65
761.4796, 11302.02
761.9617, 11306.42
762.4438, 11364.16
762.9259, 11419.66
763.4080, 11441.29
763.8901, 11438.05
764.3723, 11410.60
764.8544, 11361.11
765.3365, 11321.14
765.8186, 11302.95
766.3007, 11297.65
766.7828, 11304.16
767.2650, 11324.74
767.7471, 11333.38
768.2292, 11323.81
768.7113, 11314.60
769.1934, 11319.94
769.6755, 11338.02
770.1577, 11357.89
770.6398, 11379.60
771.1219, 11392.98
771.6040, 11381.78
772.0861, 11360.24
772.5682, 11346.84
773.0504, 11346.91
773.5325, 11345.45
774.0146, 11327.75
774.4967, 11312.23
774.9788, 11316.31
775.4609, 11356.79
775.9431, 11379.62
776.4252, 11381.47
776.9073, 11371.74
777.3894, 11359.24
777.8715, 11344.31
778.3536, 11326.51
778.8358, 11302.55
779.3179, 11288.84
779.8000, 11316.31
780.2821, 11361.05
780.7642, 11386.96
781.2463, 11371.48
781.7285, 11356.06
782.2106, 11352.74
782.6927, 11357.64
783.1748, 11364.62
783.6569, 11372.40
784.1390, 11385.07
784.6212, 11404.57
785.1033, 11426.52
785.5854, 11440.88
786.0675, 11449.08
786.5496, 11463.61
787.0317, 11492.46
787.5139, 11520.24
787.9960, 11525.91
788.4781, 11519.19
788.9602, 11518.92
789.4423, 11542.12
789.9244, 11561.24
790.4066, 11567.40
790.8887, 11564.69
791.3708, 11561.54
791.8529, 11557.85
792.3350, 11555.43
792.8171, 11555.71
793.2993, 11557.08
793.7814, 11557.95
794.2635, 11557.33
794.7456, 11548.13
795.2277, 11506.99
795.7098, 11474.94
796.1920, 11503.72
796.6741, 11573.09
797.1562, 11624.47
797.6383, 11634.01
798.1204, 11627.38
798.6025, 11597.48
799.0847, 11557.06
799.5668, 11563.72
800.0489, 11630.08
800.5310, 11688.93
801.0131, 11708.73
801.4952, 11706.08
801.9774, 11724.95
802.4595, 11761.14
802.9416, 11794.96
803.4237, 11820.99
803.9058, 11836.08
804.3879, 11830.14
804.8701, 11808.03
805.3522, 11798.08
805.8343, 11821.52
806.3164, 11841.54
806.7985, 11847.96
807.2806, 11842.61
807.7628, 11835.82
808.2449, 11826.65
808.7270, 11825.93
809.2091, 11845.80
809.6912, 11875.72
810.1733, 11892.49
810.6555, 11898.69
811.1376, 11909.63
811.6197, 11948.44
812.1018, 11981.22
812.5839, 11977.92
813.0660, 11939.16
813.5482, 11930.22
814.0303, 11975.41
814.5124, 12013.47
814.9945, 12018.55
815.4766, 11994.55
815.9587, 11960.02
816.4409, 11915.26
816.9230, 11894.09
817.4051, 11944.87
817.8872, 12017.46
818.3693, 12046.23
818.8514, 12033.69
819.3336, 12019.59
819.8157, 12019.31
820.2978, 12023.39
820.7799, 12027.12
821.2620, 12030.16
821.7441, 12034.51
822.2263, 12036.92
822.7084, 12048.07
823.1905, 12075.75
823.6726, 12116.45
824.1547, 12156.78
824.6368, 12196.77
825.1190, 12234.86
825.6011, 12287.10
826.0832, 12325.30
826.5653, 12315.39
827.0474, 12258.02
827.5295, 12211.68
828.0117, 12196.85
828.4938, 12188.73
828.9760, 12179.89
829.4581, 12170.73
829.9402, 12161.83
830.4223, 12153.92
830.9044, 12143.51
831.3865, 12123.88
831.8687, 12102.06
832.3508, 12089.02
832.8329, 12085.40
833.3150, 12092.25
833.7971, 12129.13
834.2792, 12160.04
834.7614, 12157.97
835.2435, 12120.13
835.7256, 12100.37
836.2077, 12106.42
836.6898, 12115.42
837.1719, 12116.64
837.6541, 12111.97
838.1362, 12110.83
838.6183, 12113.36
839.1004, 12121.09
839.5825, 12139.32
840.0646, 12160.43
840.5468, 12183.09
841.0289, 12204.53
841.5110, 12205.57
841.9931, 12146.63
842.4752, 12101.17
842.9573, 12103.38
843.4395, 12146.62
843.9216, 12159.54
844.4037, 12136.10
844.8858, 12118.64
845.3679, 12133.25
845.8500, 12167.30
846.3322, 12204.87
846.8143, 12241.14
847.2964, 12252.33
847.7785, 12194.32
848.2606, 12136.50
848.7427, 12120.85
849.2249, 12144.21
849.7070, 12160.70
850.1891, 12173.17
850.6712, 12171.13
851.1533, 12147.09
851.6354, 12107.80
852.1176, 12076.46
852.5997, 12053.03
853.0818, 12037.11
853.5639, 12042.20
854.0460, 12044.28
854.5281, 12010.77
855.0103, 11953.39
855.4924, 11913.53
855.9745, 11915.46
856.4566, 11923.02
856.9387, 11930.47
857.4208, 11935.84
857.9030, 11930.80
858.3851, 11913.73
858.8672, 11900.48
859.3493, 11899.42
859.8314, 11901.55
860.3135, 11887.59
860.7957, 11864.21
861.2778, 11849.85
861.7599, 11874.56
862.2420, 11885.82
862.7241, 11839.57
863.2062, 11766.82
863.6884, 11748.72
864.1705, 11813.60
864.6526, 11857.50
865.1347, 11857.10
865.6168, 11829.16
866.0989, 11802.68
866.5811, 11776.74
867.0632, 11748.32
867.5453, 11708.55
868.0274, 11678.89
868.5095, 11692.41
868.9916, 11721.74
869.4738, 11724.29
869.9559, 11662.53
870.4380, 11613.82
870.9201, 11585.78
871.4022, 11570.99
871.8843, 11561.53
872.3665, 11557.25
872.8486, 11548.39
873.3307, 11531.98
873.8128, 11515.04
874.2949, 11508.53
874.7770, 11505.15
875.2592, 11492.12
875.7413, 11449.63
876.2234, 11431.31
876.7055, 11475.77
877.1876, 11530.87
877.6697, 11551.07
878.1519, 11529.88
878.6340, 11508.20
879.1161, 11486.47
879.5982, 11471.86
880.0803, 11478.17
880.5624, 11495.15
881.0446, 11507.08
881.5267, 11512.91
882.0088, 11504.32
882.4909, 11462.92
882.9730, 11416.66
883.4551, 11387.74
883.9373, 11381.20
884.4194, 11366.61
884.9015, 11341.26
885.3836, 11316.52
885.8657, 11299.41
886.3478, 11290.29
886.8300, 11292.62
887.3121, 11306.02
887.7942, 11317.87
888.2763, 11320.91
888.7584, 11318.91
889.2405, 11313.08
889.7227, 11303.24
890.2048, 11293.82
890.6869, 11283.04
891.1690, 11275.72
891.6511, 11278.65
892.1332, 11285.62
892.6154, 11262.08
893.0975, 11211.30
893.5796, 11171.13
894.0617, 11176.85
894.5438, 11189.63
895.0259, 11172.74
895.5081, 11134.70
895.9902, 11111.02
896.4723, 11123.90
896.9544, 11133.43
897.4365, 11131.53
897.9186, 11121.66
898.4008, 11111.21
898.8829, 11100.62
899.3650, 11093.99
899.8471, 11096.63
900.3292, 11097.82
900.8113, 11076.20
901.2935, 11046.35
901.7756, 11034.15
902.2577, 11056.70
902.7398, 11086.55
903.2219, 11130.53
903.7040, 11169.78
904.1862, 11173.04
904.6683, 11137.11
905.1504, 11107.17
905.6325, 11088.17
906.1146, 11081.84
906.5967, 11097.03
907.0789, 11123.67
907.5610, 11147.09
908.0431, 11164.39
908.5252, 11177.72
909.0073, 11192.88
909.4894, 11200.63
909.9716, 11191.77
910.4537, 11161.91
910.9358, 11143.45
911.4179, 11138.17
911.9000, 11134.23
912.3821, 11111.36
912.8643, 11087.15
913.3464, 11101.84
913.8285, 11157.07
914.3106, 11186.17
914.7927, 11119.50
915.2748, 11057.41
915.7570, 11058.07
916.2391, 11118.30
916.7212, 11155.51
917.2033, 11168.28
917.6854, 11166.21
918.1675, 11145.80
918.6497, 11118.65
919.1318, 11110.09
919.6139, 11115.88
920.0960, 11120.56
920.5781, 11108.72
921.0602, 11103.02
921.5424, 11125.90
922.0245, 11160.38
922.5066, 11156.76
922.9887, 11100.21
923.4708, 11066.68
923.9529, 11078.33
924.4351, 11111.81
924.9172, 11136.79
925.3993, 11153.20
925.8814, 11160.57
926.3635, 11158.32
926.8456, 11148.20
927.3278, 11123.92
927.8099, 11096.04
928.2920, 11075.31
928.7741, 11059.26
929.2562, 11062.10
929.7383, 11089.61
930.2205, 11118.24
930.7026, 11120.69
931.1847, 11105.41
931.6668, 11086.01
932.1489, 11063.12
932.6310, 11053.95
933.1132, 11088.47
933.5953, 11123.19
934.0774, 11125.95
934.5595, 11094.74
935.0416, 11065.05
935.5237, 11034.31
936.0059, 11014.83
936.4880, 11021.73
936.9701, 11042.13
937.4522, 11043.63
937.9343, 11030.39
938.4164, 11021.60
938.8986, 11034.07
939.3807, 11045.40
939.8628, 11044.32
940.3449, 11033.97
940.8270, 11020.57
941.3091, 10998.64
941.7913, 10999.02
942.2734, 11037.29
942.7555, 11085.99
943.2376, 11101.75
943.7197, 11093.65
944.2018, 11082.79
944.6840, 11074.71
945.1661, 11066.62
945.6482, 11057.15
946.1303, 11047.12
946.6124, 11038.12
947.0945, 11032.00
947.5767, 11016.71
948.0588, 10988.80
948.5409, 10967.16
949.0230, 10980.63
949.5051, 11010.17
949.9872, 11022.17
950.4694, 11013.30
950.9515, 10999.35
951.4336, 10983.14
951.9157, 10967.89
952.3978, 10953.60
952.8799, 10940.76
953.3621, 10939.07
953.8442, 10949.67
954.3263, 10960.67
954.8084, 10966.91
955.2905, 10968.87
955.7726, 10966.31
956.2548, 10959.75
956.7369, 10951.18
957.2190, 10932.77
957.7011, 10922.79
958.1832, 10930.90
958.6653, 10946.44
959.1475, 10952.51
959.6296, 10949.00
960.1117, 10934.09
960.5938, 10903.26
961.0759, 10877.34
961.5580, 10894.79
962.0402, 10925.67
962.5223, 10923.18
963.0044, 10857.83
963.4865, 10823.95
963.9686, 10861.70
964.4507, 10910.84
964.9329, 10930.98
965.4150, 10922.59
965.8971, 10929.54
966.3792, 10951.78
966.8613, 10965.58
967.3434, 10945.17
967.8256, 10913.89
968.3077, 10890.25
968.7898, 10875.27
969.2719, 10872.20
969.7540, 10894.95
970.2361, 10908.66
970.7183, 10901.97
971.2004, 10883.22
971.6825, 10874.92
972.1646, 10875.25
972.6467, 10872.48
973.1288, 10861.58
973.6110, 10849.20
974.0931, 10831.63
974.5752, 10819.62
975.0573, 10828.35
975.5394, 10878.38
976.0215, 10913.49
976.5037, 10931.92
976.9858, 10940.32
977.4679, 10945.54
977.9500, 10946.17
978.4321, 10931.39
978.9142, 10901.20
979.3964, 10883.33
979.8785, 10908.57
980.3606, 10939.98
980.8427, 10954.01
981.3248, 10951.82
981.8069, 10950.61
982.2891, 10949.54
982.7712, 10954.31
983.2533, 10968.70
983.7354, 10988.76
984.2175, 11011.33
984.6996, 11033.50
985.1818, 11047.98
985.6639, 11033.23
986.1460, 11032.73
986.6281, 11066.43
987.1102, 11116.57
987.5923, 11165.32
988.0745, 11212.82
988.5566, 11252.76
989.0387, 11282.36
989.5208, 11317.87
990.0029, 11385.55
990.4850, 11463.20
990.9672, 11520.12
991.4493, 11552.07
991.9314, 11587.96
992.4135, 11644.47
992.8957, 11693.10
993.3778, 11716.85
993.8599, 11724.87
994.3420, 11775.41
994.8242, 11862.32
995.3063, 11924.16
995.7884, 11905.54
996.2705, 11879.92
996.7526, 11913.02
997.2347, 11978.10
997.7169, 12021.30
998.1990, 12027.20
998.6811, 12028.21
999.1632, 12020.62
999.6453, 12021.89
1000.127, 12073.26
1000.610, 12149.49
1001.092, 12171.52
1001.574, 12125.63
1002.056, 12072.25
1002.538, 12047.74
1003.020, 12025.54
1003.502, 11986.64
1003.984, 11932.13
1004.466, 11882.15
1004.949, 11836.69
1005.431, 11799.84
1005.913, 11784.37
1006.395, 11769.33
1006.877, 11715.56
1007.359, 11636.63
1007.841, 11563.70
1008.323, 11512.90
1008.806, 11463.30
1009.288, 11407.50
1009.770, 11354.69
1010.252, 11317.46
1010.734, 11294.89
1011.216, 11269.64
1011.698, 11239.38
1012.180, 11205.67
1012.662, 11163.43
1013.145, 11122.65
1013.627, 11093.85
1014.109, 11079.15
1014.591, 11062.84
1015.073, 11044.98
1015.555, 11024.77
1016.037, 11002.07
1016.519, 10977.18
1017.002, 10948.65
1017.484, 10918.62
1017.966, 10894.00
1018.448, 10877.67
1018.930, 10867.39
1019.412, 10869.23
1019.894, 10873.09
1020.376, 10864.27
1020.858, 10839.72
1021.341, 10778.29
1021.823, 10822.38
1022.305, 10847.18
1022.787, 10853.73
1023.269, 10787.36
1023.751, 10815.15
1024.233, 10805.20
1024.715, 10793.71
1025.198, 10834.76
1025.680, 10778.99
1026.162, 10819.20
1026.644, 10821.10
1027.126, 10840.53
1027.608, 10822.00
1028.090, 10815.19
1028.572, 10846.36
1029.054, 10856.50
1029.536, 10833.59
1030.019, 10854.14
1030.501, 10797.05
1030.983, 10808.09
1031.465, 10848.52
1031.947, 10827.52
1032.429, 10848.76
1032.911, 10853.92
1033.393, 10785.96
1033.876, 10845.15
1034.358, 10849.36
1034.840, 10797.10
1035.322, 10851.94
1035.804, 10807.46
1036.286, 10798.44
1036.768, 10816.09
1037.250, 10805.93
1037.733, 10839.61
1038.215, 10831.06
1038.697, 10818.73
1039.179, 10822.88
1039.661, 10780.35
1040.143, 10824.40
1040.625, 10809.32
1041.107, 10823.63
1041.589, 10844.60
1042.072, 10814.55
1042.554, 10838.52
1043.036, 10778.72
1043.518, 10810.70
1044.000, 10807.58
1044.482, 10816.10
1044.964, 10832.03
1045.446, 10869.17
1045.928, 10894.42
1046.411, 10891.82
1046.893, 10875.80
1047.375, 10869.44
1047.857, 10872.48
1048.339, 10883.26
1048.821, 10903.92
1049.303, 10915.25
1049.785, 10882.67
1050.268, 10843.55
1050.750, 10836.57
1051.232, 10872.56
1051.714, 10864.67
1052.196, 10914.61
1052.678, 10945.25
1053.160, 10957.65
1053.642, 10897.12
1054.125, 10930.77
1054.607, 10926.67
1055.089, 10921.02
1055.571, 10967.90
1056.053, 10917.98
1056.535, 10964.04
1057.017, 10971.78
1057.499, 10997.06
1057.981, 10984.36
1058.464, 10983.41
1058.946, 11020.43
1059.428, 11036.42
1059.910, 11019.35
1060.392, 11045.75
1060.874, 10994.50
1061.356, 11011.38
1061.838, 11057.66
1062.320, 11042.50
1062.803, 11069.60
1063.285, 11080.60
1063.767, 11018.49
1064.249, 11083.52
1064.731, 11093.57
1065.213, 11047.16
1065.695, 11107.84
1066.177, 11069.21
1066.660, 11066.04
1067.142, 11089.53
1067.624, 11085.22
1068.106, 11124.75
1068.588, 11122.04
1069.070, 11115.56
1069.552, 11125.54
1070.034, 11088.87
1070.516, 11138.76
1070.999, 11129.53
1071.481, 11149.68
1071.963, 11176.50
1072.445, 11152.30
1072.927, 11182.11
1073.409, 11128.16
1073.891, 11144.29
1074.373, 11152.88
1074.855, 11206.27
1075.338, 11152.74
1075.820, 11166.92
1076.302, 11186.84
1076.784, 11224.61
1077.266, 11255.00
1077.748, 11259.73
1078.230, 11251.54
1078.713, 11271.71
1079.195, 11311.46
1079.677, 11331.60
1080.159, 11307.71
1080.641, 11291.35
1081.123, 11316.92
1081.605, 11358.39
1082.087, 11392.40
1082.569, 11418.99
1083.052, 11435.96
1083.534, 11442.58
1084.016, 11449.70
1084.498, 11460.75
1084.980, 11478.74
1085.462, 11512.30
1085.944, 11555.21
1086.426, 11589.21
1086.908, 11607.74
1087.391, 11627.42
1087.873, 11650.96
1088.355, 11674.30
1088.837, 11689.30
1089.319, 11701.46
1089.801, 11725.23
1090.283, 11762.46
1090.765, 11792.94
1091.248, 11798.22
1091.730, 11806.62
1092.212, 11828.41
1092.694, 11860.90
1093.176, 11894.10
1093.658, 11929.13
1094.140, 11977.48
1094.622, 12052.76
1095.104, 12115.25
1095.587, 12125.16
1096.069, 12115.56
1096.551, 12121.15
1097.033, 12147.17
1097.515, 12153.13
1097.997, 12135.72
1098.479, 12124.65
1098.961, 12151.02
1099.443, 12184.49
1099.926, 12186.71
1100.408, 12167.33
1100.890, 12152.05
1101.372, 12148.62
1101.854, 12144.68
1102.336, 12140.05
1102.818, 12133.08
1103.300, 12125.08
1103.783, 12112.88
1104.265, 12087.80
1104.747, 12050.05
1105.229, 12007.01
1105.711, 11946.50
1106.193, 11903.28
1106.675, 11898.67
1107.157, 11912.37
1107.640, 11883.95
1108.122, 11821.12
1108.604, 11772.56
1109.086, 11754.05
1109.568, 11739.78
1110.050, 11707.77
1110.532, 11675.16
1111.014, 11655.88
1111.496, 11649.42
1111.979, 11655.89
1112.461, 11676.86
1112.943, 11675.94
1113.425, 11615.64
1113.907, 11546.03
1114.389, 11525.53
1114.871, 11531.14
1115.353, 11521.15
1115.835, 11477.60
1116.318, 11442.28
1116.800, 11416.90
1117.282, 11397.56
1117.764, 11385.44
1118.246, 11374.85
1118.728, 11356.13
1119.210, 11329.45
1119.692, 11295.94
1120.175, 11241.58
1120.657, 11202.30
1121.139, 11190.67
1121.621, 11188.71
1122.103, 11160.53
1122.585, 11116.90
1123.067, 11102.18
1123.549, 11125.07
1124.031, 11140.99
1124.514, 11113.25
1124.996, 11084.56
1125.478, 11077.97
1125.960, 11088.47
1126.442, 11098.98
1126.924, 11108.34
1127.406, 11096.86
1127.888, 11045.30
1128.370, 11004.68
1128.853, 11038.69
1129.335, 11088.36
1129.817, 11086.44
1130.299, 11022.15
1130.781, 10981.12
1131.263, 10964.17
1131.745, 10964.55
1132.227, 10994.19
1132.710, 11024.44
1133.192, 11016.67
1133.674, 10986.73
1134.156, 10966.52
1134.638, 10959.70
1135.120, 10970.77
1135.602, 11007.79
1136.084, 11037.66
1136.567, 11021.32
1137.049, 10980.72
1137.531, 10947.72
1138.013, 10924.69
1138.495, 10914.84
1138.977, 10930.57
1139.459, 10943.72
1139.941, 10947.72
1140.423, 10949.39
1140.906, 10960.18
1141.388, 10977.27
1141.870, 10993.55
1142.352, 11008.31
1142.834, 11018.84
1143.316, 11020.57
1143.798, 11021.93
1144.280, 11025.06
1144.762, 11031.40
1145.245, 11053.47
1145.727, 11086.05
1146.209, 11092.27
1146.691, 11051.54
1147.173, 11016.70
1147.655, 11020.84
1148.137, 11044.27
1148.619, 11075.11
1149.102, 11112.48
1149.584, 11129.30
1150.066, 11125.38
1150.548, 11107.24
1151.030, 11057.51
1151.512, 11021.17
1151.994, 11060.08
1152.476, 11121.99
1152.958, 11125.68
1153.441, 11040.10
1153.923, 11019.49
1154.405, 11072.48
1154.887, 11117.32
1155.369, 11074.54
1155.851, 11007.98
1156.333, 10984.63
1156.815, 10992.57
1157.297, 10991.55
1157.780, 10975.35
1158.262, 10955.76
1158.744, 10931.56
1159.226, 10913.29
1159.708, 10923.68
1160.190, 10940.53
1160.672, 10926.34
1161.154, 10882.38
1161.637, 10852.82
1162.119, 10856.02
1162.601, 10848.68
1163.083, 10814.45
1163.565, 10780.90
1164.047, 10808.84
1164.529, 10863.43
1165.011, 10872.77
1165.494, 10820.21
1165.976, 10776.49
1166.458, 10756.32
1166.940, 10753.02
1167.422, 10772.60
1167.904, 10799.87
1168.386, 10788.75
1168.868, 10752.75
1169.350, 10729.74
1169.833, 10736.77
1170.315, 10739.43
1170.797, 10716.32
1171.279, 10696.42
1171.761, 10694.94
1172.243, 10709.68
1172.725, 10738.36
1173.207, 10775.10
1173.689, 10793.12
1174.172, 10770.66
1174.654, 10741.69
1175.136, 10714.50
1175.618, 10691.05
1176.100, 10670.17
1176.582, 10652.58
1177.064, 10664.90
1177.546, 10703.61
1178.029, 10729.79
1178.511, 10714.87
1178.993, 10688.18
1179.475, 10654.06
1179.957, 10623.06
1180.439, 10609.32
1180.921, 10612.71
1181.403, 10632.51
1181.885, 10668.32
1182.368, 10693.88
1182.850, 10684.20
1183.332, 10662.63
1183.814, 10633.81
1184.296, 10606.49
1184.778, 10607.56
1185.260, 10639.55
1185.742, 10638.53
1186.224, 10590.78
1186.707, 10547.51
1187.189, 10559.38
1187.671, 10587.82
1188.153, 10610.42
1188.635, 10623.15
1189.117, 10606.57
1189.599, 10556.39
1190.081, 10529.31
1190.564, 10545.12
1191.046, 10565.01
1191.528, 10546.81
1192.010, 10516.66
1192.492, 10498.57
1192.974, 10494.23
1193.456, 10502.55
1193.938, 10526.53
1194.421, 10533.51
1194.903, 10502.73
1195.385, 10471.02
1195.867, 10485.70
1196.349, 10519.27
1196.831, 10539.48
1197.313, 10542.96
1197.795, 10530.58
1198.277, 10499.28
1198.760, 10472.09
1199.242, 10465.16
1199.724, 10461.24
1200.206, 10428.18
1200.688, 10388.31
1201.170, 10383.91
1201.652, 10443.41
1202.134, 10450.41
1202.616, 10394.58
1203.099, 10341.68
1203.581, 10335.74
1204.063, 10356.41
1204.545, 10402.11
1205.027, 10450.65
1205.509, 10448.08
1205.991, 10356.44
1206.473, 10305.59
1206.956, 10305.10
1207.438, 10320.88
1207.920, 10332.72
1208.402, 10338.81
1208.884, 10335.55
1209.366, 10324.88
1209.848, 10312.22
1210.330, 10294.40
1210.813, 10286.30
1211.295, 10290.61
1211.777, 10299.31
1212.259, 10309.09
1212.741, 10315.30
1213.223, 10307.69
1213.705, 10289.45
1214.187, 10281.09
1214.669, 10284.73
1215.151, 10297.57
1215.634, 10321.96
1216.116, 10345.14
1216.598, 10346.71
1217.080, 10342.84
1217.562, 10360.79
1218.044, 10398.47
1218.526, 10405.96
1219.008, 10364.92
1219.491, 10343.11
1219.973, 10356.86
1220.455, 10387.32
1220.937, 10423.77
1221.419, 10454.64
1221.901, 10458.54
1222.383, 10432.61
1222.865, 10433.28
1223.348, 10474.42
1223.830, 10497.44
1224.312, 10484.60
1224.794, 10449.40
1225.276, 10393.32
1225.758, 10335.23
1226.240, 10300.23
1226.722, 10296.12
1227.204, 10291.52
1227.687, 10285.46
1228.169, 10284.47
1228.651, 10293.04
1229.133, 10303.68
1229.615, 10307.42
1230.097, 10306.90
1230.579, 10306.17
1231.061, 10306.62
1231.543, 10298.54
1232.026, 10280.55
1232.508, 10259.38
1232.990, 10229.86
1233.472, 10211.75
1233.954, 10246.28
1234.436, 10299.08
1234.918, 10322.00
1235.400, 10306.68
1235.883, 10277.37
1236.365, 10229.56
1236.847, 10205.18
1237.329, 10242.81
1237.811, 10294.84
1238.293, 10327.80
1238.775, 10337.04
1239.257, 10308.31
1239.740, 10228.11
1240.222, 10181.93
1240.704, 10170.71
1241.186, 10175.09
1241.668, 10190.47
1242.150, 10208.52
1242.632, 10227.42
1243.114, 10241.73
1243.596, 10244.65
1244.079, 10237.77
1244.561, 10201.27
1245.043, 10134.01
1245.525, 10095.09
1246.007, 10150.01
1246.489, 10219.85
1246.971, 10256.33
1247.453, 10266.09
1247.936, 10258.80
1248.418, 10231.70
1248.900, 10221.51
1249.382, 10229.07
1249.864, 10241.54
1250.346, 10256.12
1250.828, 10266.13
1251.310, 10261.47
1251.792, 10252.82
1252.275, 10259.53
1252.757, 10280.76
1253.239, 10284.38
1253.721, 10269.01
1254.203, 10242.13
1254.685, 10183.96
1255.167, 10145.04
1255.649, 10161.92
1256.131, 10202.55
1256.614, 10233.64
1257.096, 10252.94
1257.578, 10231.87
1258.060, 10171.94
1258.542, 10127.74
1259.024, 10144.89
1259.506, 10164.86
1259.988, 10165.32
1260.471, 10159.80
1260.953, 10169.90
1261.435, 10191.22
1261.917, 10208.61
1262.399, 10220.56
1262.881, 10228.50
1263.363, 10239.53
1263.845, 10234.20
1264.328, 10195.91
1264.810, 10158.64
1265.292, 10190.20
1265.774, 10257.55
1266.256, 10274.92
1266.738, 10237.53
1267.220, 10208.40
1267.702, 10210.52
1268.184, 10217.62
1268.667, 10227.75
1269.149, 10234.54
1269.631, 10225.54
1270.113, 10208.77
1270.595, 10194.77
1271.077, 10185.15
1271.559, 10186.53
1272.041, 10208.65
1272.523, 10214.29
1273.006, 10191.21
1273.488, 10164.49
1273.970, 10168.36
1274.452, 10186.10
1274.934, 10203.85
1275.416, 10217.98
1275.898, 10204.56
1276.380, 10152.98
1276.863, 10128.96
1277.345, 10153.38
1277.827, 10180.68
1278.309, 10148.90
1278.791, 10108.17
1279.273, 10110.37
1279.755, 10150.41
1280.237, 10181.16
1280.719, 10202.39
1281.202, 10215.00
1281.684, 10218.59
1282.166, 10219.03
1282.648, 10221.81
1283.130, 10222.68
1283.612, 10216.47
1284.094, 10206.58
1284.576, 10207.69
1285.058, 10217.47
1285.541, 10212.05
1286.023, 10183.45
1286.505, 10160.85
1286.987, 10158.64
1287.469, 10172.86
1287.951, 10209.68
1288.433, 10252.18
1288.915, 10247.81
##END=



