##NAMES=Bigcreekite
##RRUFFID=R060432
##IDEAL CHEMISTRY=BaSi_2_O_5_&#183;4H_2_O
##LOCALITY=Trumbull Peak, Mariposa County, California, USA
##OWNER=RRUFF
##SOURCE=Michael Scott
##DESCRIPTION=White veinlets with distinctive cleavage, running through sanbornite
##STATUS=The identification of this mineral is confirmed by single-crystal X-ray diffraction and chemical analysis.
##URL=rruff.info/R060432
##MEASURED CHEMISTRY=(Ba_0.99_Na_0.01_)_Σ=1_(Si_1.95_Fe^3+^_0.05_)_2_(O_4.94_(OH)_0.06_)_Σ=5_·4H_2_O
127.5289, 1774.722
128.0110, 1885.808
128.4931, 2028.259
128.9752, 2223.637
129.4574, 2446.420
129.9395, 2632.432
130.4216, 2780.352
130.9037, 2908.188
131.3858, 3044.809
131.8679, 3189.538
132.3500, 3305.242
132.8322, 3373.364
133.3143, 3396.781
133.7964, 3408.661
134.2785, 3409.496
134.7606, 3397.757
135.2427, 3372.593
135.7249, 3334.927
136.2070, 3278.823
136.6891, 3196.000
137.1712, 3080.021
137.6533, 2968.463
138.1354, 2860.579
138.6176, 2758.422
139.0997, 2671.607
139.5818, 2609.357
140.0639, 2545.444
140.5460, 2455.657
141.0281, 2321.650
141.5103, 2205.476
141.9924, 2117.638
142.4745, 2057.633
142.9566, 2011.200
143.4387, 1970.586
143.9208, 1936.926
144.4030, 1911.943
144.8851, 1904.117
145.3672, 1867.881
145.8493, 1888.179
146.3314, 1895.166
146.8135, 1889.585
147.2957, 1832.228
147.7778, 1842.925
148.2599, 1827.082
148.7420, 1810.651
149.2241, 1832.420
149.7062, 1785.284
150.1883, 1807.500
150.6705, 1802.762
151.1526, 1811.122
151.6347, 1792.775
152.1168, 1783.360
152.5989, 1801.707
153.0810, 1805.494
153.5632, 1786.101
154.0453, 1798.395
154.5274, 1755.531
155.0095, 1762.050
155.4916, 1790.173
155.9737, 1774.761
156.4559, 1790.166
156.9380, 1769.223
157.4201, 1796.690
157.9022, 1810.789
158.3843, 1812.262
158.8664, 1761.902
159.3486, 1779.537
159.8307, 1770.573
160.3128, 1760.964
160.7949, 1789.497
161.2770, 1749.065
161.7591, 1777.929
162.2413, 1779.781
162.7234, 1794.673
163.2055, 1782.798
163.6876, 1779.799
164.1697, 1804.503
164.6518, 1814.589
165.1339, 1801.437
165.6161, 1819.915
166.0982, 1783.175
166.5803, 1795.761
167.0624, 1829.891
167.5445, 1820.431
168.0266, 1841.727
168.5088, 1851.952
168.9909, 1810.208
169.4730, 1860.113
169.9551, 1871.047
170.4372, 1841.956
170.9193, 1890.129
171.4015, 1867.551
171.8836, 1870.855
172.3657, 1893.755
172.8478, 1897.175
173.3299, 1932.502
173.8120, 1938.003
174.2942, 1941.265
174.7763, 1956.799
175.2584, 1939.329
175.7405, 1984.413
176.2226, 1987.549
176.7047, 2012.232
177.1869, 2042.161
177.6690, 2024.952
178.1511, 2031.621
178.6332, 2045.397
179.1153, 2063.744
179.5974, 2079.789
180.0796, 2088.927
180.5617, 2077.915
181.0438, 2141.191
181.5259, 2192.171
182.0080, 2231.515
182.4901, 2224.374
182.9722, 2277.259
183.4544, 2306.096
183.9365, 2333.938
184.4186, 2395.272
184.9007, 2394.891
185.3828, 2455.694
185.8649, 2492.074
186.3471, 2539.639
186.8292, 2540.806
187.3113, 2593.806
187.7934, 2634.508
188.2755, 2663.575
188.7576, 2646.157
189.2398, 2688.770
189.7219, 2707.322
190.2040, 2724.887
190.6861, 2775.944
191.1682, 2765.286
191.6503, 2815.812
192.1325, 2841.920
192.6146, 2879.199
193.0967, 2892.275
193.5788, 2912.827
194.0609, 2957.591
194.5430, 2988.949
195.0252, 2999.244
195.5073, 3037.234
195.9894, 3025.731
196.4715, 3057.660
196.9536, 3108.327
197.4357, 3119.833
197.9178, 3158.267
198.4000, 3186.450
198.8821, 3173.173
199.3642, 3189.252
199.8463, 3207.899
200.3284, 3244.035
200.8105, 3305.681
201.2927, 3386.169
201.7748, 3453.448
202.2569, 3506.293
202.7390, 3549.126
203.2211, 3583.096
203.7032, 3605.618
204.1854, 3631.710
204.6675, 3662.824
205.1496, 3699.562
205.6317, 3748.573
206.1138, 3813.674
206.5959, 3884.924
207.0781, 3951.713
207.5602, 4014.093
208.0423, 4072.342
208.5244, 4127.481
209.0065, 4180.731
209.4886, 4221.581
209.9708, 4250.731
210.4529, 4267.186
210.9350, 4266.975
211.4171, 4244.101
211.8992, 4219.131
212.3813, 4198.504
212.8635, 4181.771
213.3456, 4171.519
213.8277, 4170.754
214.3098, 4174.693
214.7919, 4174.264
215.2740, 4171.670
215.7561, 4160.538
216.2383, 4135.531
216.7204, 4090.759
217.2025, 4050.177
217.6846, 4008.986
218.1667, 3973.582
218.6488, 3966.207
219.1310, 3998.512
219.6131, 4039.690
220.0952, 4069.794
220.5773, 4075.215
221.0594, 4103.857
221.5415, 4168.521
222.0237, 4261.391
222.5058, 4331.370
222.9879, 4359.929
223.4700, 4391.083
223.9521, 4460.007
224.4342, 4590.437
224.9164, 4706.296
225.3985, 4793.972
225.8806, 4855.378
226.3627, 4921.762
226.8448, 4985.731
227.3270, 5062.292
227.8091, 5168.093
228.2912, 5326.822
228.7733, 5468.322
229.2554, 5578.483
229.7375, 5656.203
230.2197, 5728.806
230.7018, 5797.888
231.1839, 5859.983
231.6660, 5914.576
232.1481, 5978.754
232.6302, 6006.263
233.1123, 5984.517
233.5945, 5910.720
234.0766, 5808.287
234.5587, 5655.266
235.0408, 5490.261
235.5229, 5367.281
236.0050, 5312.786
236.4872, 5255.790
236.9693, 5176.762
237.4514, 5070.123
237.9335, 4960.725
238.4156, 4834.410
238.8977, 4713.365
239.3799, 4638.239
239.8620, 4636.160
240.3441, 4637.161
240.8262, 4620.946
241.3083, 4590.563
241.7904, 4531.333
242.2726, 4427.982
242.7547, 4302.113
243.2368, 4200.146
243.7189, 4133.265
244.2010, 4073.159
244.6831, 4009.132
245.1653, 3941.791
245.6474, 3870.526
246.1295, 3794.774
246.6116, 3715.192
247.0937, 3632.558
247.5758, 3541.662
248.0579, 3455.213
248.5401, 3379.014
249.0222, 3318.865
249.5043, 3256.939
249.9864, 3191.762
250.4685, 3124.219
250.9506, 3057.833
251.4328, 2987.844
251.9149, 2925.472
252.3970, 2878.432
252.8791, 2854.606
253.3612, 2827.092
253.8433, 2788.914
254.3255, 2745.616
254.8076, 2722.634
255.2897, 2732.075
255.7718, 2743.271
256.2539, 2735.466
256.7360, 2699.194
257.2181, 2667.349
257.7003, 2640.787
258.1824, 2620.418
258.6645, 2613.483
259.1466, 2624.873
259.6287, 2641.608
260.1108, 2654.939
260.5930, 2664.033
261.0751, 2671.158
261.5572, 2673.799
262.0393, 2673.844
262.5214, 2687.264
263.0035, 2720.593
263.4857, 2755.983
263.9678, 2776.647
264.4499, 2775.015
264.9320, 2784.917
265.4141, 2818.222
265.8962, 2869.904
266.3784, 2894.654
266.8605, 2879.625
267.3426, 2862.231
267.8247, 2880.442
268.3068, 2943.874
268.7889, 3002.387
269.2711, 3044.804
269.7532, 3072.710
270.2353, 3096.993
270.7174, 3114.679
271.1995, 3135.006
271.6816, 3166.157
272.1638, 3208.661
272.6459, 3261.645
273.1280, 3329.618
273.6101, 3409.298
274.0922, 3475.768
274.5743, 3526.540
275.0565, 3572.109
275.5386, 3624.722
276.0207, 3685.607
276.5028, 3742.495
276.9849, 3792.335
277.4670, 3834.993
277.9492, 3878.084
278.4313, 3925.497
278.9134, 3960.030
279.3955, 3955.115
279.8776, 3908.599
280.3597, 3868.033
280.8419, 3851.216
281.3240, 3852.847
281.8061, 3840.665
282.2882, 3813.418
282.7703, 3777.914
283.2524, 3746.487
283.7346, 3718.631
284.2167, 3670.274
284.6988, 3584.306
285.1809, 3470.022
285.6630, 3379.688
286.1451, 3316.390
286.6273, 3252.243
287.1094, 3149.906
287.5915, 3013.583
288.0736, 2883.353
288.5557, 2771.990
289.0378, 2677.193
289.5199, 2590.841
290.0020, 2512.537
290.4842, 2442.043
290.9663, 2380.919
291.4484, 2328.541
291.9305, 2278.867
292.4126, 2229.744
292.8947, 2182.098
293.3769, 2137.063
293.8590, 2095.162
294.3411, 2054.448
294.8232, 2014.853
295.3053, 1975.432
295.7874, 1934.304
296.2696, 1883.123
296.7517, 1831.649
297.2338, 1803.278
297.7159, 1798.314
298.1980, 1794.998
298.6801, 1772.541
299.1623, 1736.097
299.6444, 1698.544
300.1265, 1655.335
300.6086, 1617.792
301.0907, 1605.282
301.5728, 1618.186
302.0550, 1632.907
302.5371, 1628.910
303.0192, 1613.293
303.5013, 1598.849
303.9834, 1591.269
304.4655, 1586.741
304.9477, 1582.859
305.4298, 1579.581
305.9119, 1574.466
306.3940, 1562.778
306.8761, 1548.847
307.3582, 1538.908
307.8404, 1534.253
308.3225, 1535.182
308.8046, 1546.390
309.2867, 1567.121
309.7688, 1582.292
310.2509, 1556.412
310.7331, 1581.082
311.2152, 1593.954
311.6973, 1595.690
312.1794, 1551.437
312.6615, 1567.710
313.1436, 1560.425
313.6258, 1552.651
314.1079, 1578.867
314.5900, 1543.867
315.0721, 1570.548
315.5542, 1573.304
316.0363, 1587.736
316.5185, 1578.463
317.0006, 1577.163
317.4827, 1600.573
317.9648, 1611.076
318.4469, 1601.008
318.9290, 1619.140
319.4112, 1588.277
319.8933, 1601.343
320.3754, 1633.646
320.8575, 1627.287
321.3396, 1648.352
321.8217, 1659.660
322.3038, 1624.861
322.7859, 1671.612
323.2681, 1683.811
323.7502, 1660.515
324.2323, 1707.712
324.7144, 1745.655
325.1965, 1783.307
325.6786, 1831.573
326.1608, 1871.443
326.6429, 1891.922
327.1250, 1859.159
327.6071, 1852.015
328.0892, 1884.082
328.5714, 1947.456
329.0535, 2002.256
329.5356, 2045.903
330.0177, 2083.609
330.4998, 2118.933
330.9819, 2153.612
331.4641, 2181.448
331.9462, 2194.683
332.4283, 2201.397
332.9104, 2230.750
333.3925, 2291.566
333.8746, 2359.250
334.3568, 2423.261
334.8389, 2483.332
335.3210, 2538.404
335.8031, 2587.802
336.2852, 2632.568
336.7673, 2677.581
337.2495, 2724.468
337.7316, 2765.532
338.2137, 2798.048
338.6958, 2822.541
339.1779, 2832.975
339.6600, 2825.313
340.1422, 2809.192
340.6243, 2804.552
341.1064, 2812.769
341.5885, 2816.083
342.0706, 2804.485
342.5527, 2779.245
343.0349, 2752.960
343.5170, 2726.014
343.9991, 2697.067
344.4812, 2656.067
344.9633, 2605.683
345.4454, 2571.961
345.9276, 2588.073
346.4097, 2629.719
346.8918, 2624.370
347.3739, 2566.836
347.8560, 2490.155
348.3381, 2418.282
348.8203, 2354.167
349.3024, 2309.248
349.7845, 2304.878
350.2666, 2316.212
350.7487, 2306.087
351.2308, 2273.672
351.7130, 2238.745
352.1951, 2216.790
352.6772, 2203.775
353.1593, 2192.762
353.6414, 2177.121
354.1235, 2165.044
354.6056, 2165.174
355.0877, 2176.804
355.5699, 2190.837
356.0520, 2206.951
356.5341, 2220.522
357.0162, 2226.349
357.4983, 2207.938
357.9804, 2195.615
358.4626, 2211.792
358.9447, 2250.834
359.4268, 2280.288
359.9089, 2272.489
360.3910, 2258.342
360.8731, 2260.706
361.3553, 2302.204
361.8374, 2339.136
362.3195, 2362.674
362.8016, 2373.696
363.2837, 2375.300
363.7658, 2379.392
364.2480, 2365.914
364.7301, 2322.838
365.2122, 2215.604
365.6943, 2129.089
366.1764, 2077.656
366.6585, 2049.680
367.1407, 2017.172
367.6228, 1974.429
368.1049, 1932.820
368.5870, 1894.202
369.0691, 1853.141
369.5512, 1830.136
370.0334, 1834.722
370.5155, 1852.382
370.9976, 1834.747
371.4797, 1862.844
371.9618, 1878.931
372.4439, 1883.752
372.9261, 1838.101
373.4082, 1861.803
373.8903, 1860.266
374.3724, 1859.444
374.8545, 1898.122
375.3366, 1869.196
375.8188, 1910.927
376.3009, 1927.004
376.7830, 1957.478
377.2651, 1962.548
377.7472, 1977.850
378.2293, 2022.217
378.7115, 2053.328
379.1936, 2062.558
379.6757, 2104.775
380.1578, 2118.019
380.6399, 2151.702
381.1220, 2202.235
381.6042, 2269.388
382.0863, 2349.207
382.5684, 2438.983
383.0505, 2539.431
383.5326, 2648.278
384.0147, 2759.824
384.4969, 2888.532
384.9790, 3053.254
385.4611, 3248.284
385.9432, 3461.927
386.4253, 3676.667
386.9074, 3907.383
387.3895, 4187.409
387.8716, 4543.811
388.3538, 4876.687
388.8359, 5143.036
389.3180, 5337.349
389.8001, 5438.915
390.2822, 5424.551
390.7643, 5328.465
391.2465, 5159.211
391.7286, 4907.332
392.2107, 4633.900
392.6928, 4338.119
393.1749, 4038.901
393.6570, 3763.350
394.1392, 3505.157
394.6213, 3280.516
395.1034, 3090.780
395.5855, 2935.313
396.0676, 2826.885
396.5497, 2799.946
397.0319, 2801.310
397.5140, 2787.291
397.9961, 2726.257
398.4782, 2691.685
398.9603, 2700.868
399.4424, 2747.373
399.9246, 2779.822
400.4067, 2784.856
400.8888, 2794.042
401.3709, 2824.039
401.8530, 2872.885
402.3351, 2950.198
402.8173, 3066.638
403.2994, 3205.531
403.7815, 3318.789
404.2636, 3396.912
404.7457, 3488.694
405.2278, 3629.792
405.7100, 3818.316
406.1921, 3986.581
406.6742, 4133.182
407.1563, 4259.609
407.6384, 4383.337
408.1205, 4500.360
408.6027, 4564.025
409.0848, 4553.899
409.5669, 4475.600
410.0490, 4328.026
410.5311, 4109.602
411.0132, 3873.213
411.4954, 3669.219
411.9775, 3485.172
412.4596, 3288.004
412.9417, 3041.979
413.4238, 2801.194
413.9059, 2613.380
414.3881, 2476.197
414.8702, 2363.354
415.3523, 2275.798
415.8344, 2198.375
416.3165, 2116.080
416.7986, 2021.063
417.2808, 1928.958
417.7629, 1838.954
418.2450, 1757.444
418.7271, 1703.982
419.2092, 1709.208
419.6913, 1724.790
420.1734, 1726.828
420.6555, 1705.926
421.1377, 1690.711
421.6198, 1691.640
422.1019, 1699.022
422.5840, 1698.922
423.0661, 1684.564
423.5482, 1669.645
424.0304, 1654.841
424.5125, 1639.160
424.9946, 1634.276
425.4767, 1643.934
425.9588, 1660.358
426.4409, 1677.094
426.9231, 1694.215
427.4052, 1712.034
427.8873, 1733.115
428.3694, 1754.674
428.8515, 1760.783
429.3336, 1746.208
429.8158, 1737.220
430.2979, 1759.522
430.7800, 1810.943
431.2621, 1839.025
431.7442, 1834.597
432.2263, 1814.255
432.7085, 1800.826
433.1906, 1794.392
433.6727, 1795.863
434.1548, 1807.314
434.6369, 1826.538
435.1190, 1848.800
435.6012, 1873.679
436.0833, 1904.571
436.5654, 1952.942
437.0475, 2008.708
437.5296, 2053.229
438.0117, 2066.437
438.4939, 2076.597
438.9760, 2100.047
439.4581, 2136.982
439.9402, 2188.616
440.4223, 2261.794
440.9044, 2346.803
441.3866, 2435.355
441.8687, 2528.908
442.3508, 2622.618
442.8329, 2706.635
443.3150, 2788.771
443.7971, 2888.823
444.2793, 3015.914
444.7614, 3156.645
445.2435, 3303.965
445.7256, 3450.708
446.2077, 3621.978
446.6898, 3823.261
447.1720, 4045.364
447.6541, 4283.674
448.1362, 4554.068
448.6183, 4807.354
449.1004, 5028.693
449.5826, 5220.626
450.0647, 5439.342
450.5468, 5705.140
451.0289, 5943.555
451.5110, 6093.168
451.9931, 6155.136
452.4753, 6152.357
452.9574, 6086.634
453.4395, 5960.471
453.9216, 5765.703
454.4037, 5504.554
454.8858, 5223.314
455.3679, 4938.347
455.8500, 4653.232
456.3322, 4361.834
456.8143, 4061.407
457.2964, 3779.511
457.7785, 3535.671
458.2606, 3329.830
458.7427, 3158.698
459.2249, 3038.900
459.7070, 2941.636
460.1891, 2851.650
460.6712, 2768.463
461.1533, 2691.411
461.6354, 2615.843
462.1176, 2548.511
462.5997, 2496.041
463.0818, 2476.737
463.5639, 2450.437
464.0460, 2407.226
464.5281, 2350.987
465.0103, 2292.813
465.4924, 2229.625
465.9745, 2168.991
466.4566, 2114.055
466.9387, 2065.806
467.4208, 2019.142
467.9030, 1969.366
468.3851, 1924.999
468.8672, 1898.945
469.3493, 1897.071
469.8314, 1892.934
470.3135, 1878.406
470.7957, 1856.701
471.2778, 1841.562
471.7599, 1832.175
472.2420, 1834.927
472.7241, 1863.590
473.2062, 1911.922
473.6884, 1945.356
474.1705, 1954.143
474.6526, 1957.978
475.1347, 1985.469
475.6168, 2032.130
476.0989, 2080.928
476.5811, 2125.813
477.0632, 2166.453
477.5453, 2197.168
478.0274, 2216.761
478.5095, 2248.259
478.9916, 2311.119
479.4738, 2392.090
479.9559, 2475.979
480.4380, 2551.143
480.9201, 2635.726
481.4022, 2742.714
481.8843, 2867.427
482.3665, 2983.575
482.8486, 3055.761
483.3307, 3142.155
483.8128, 3274.341
484.2949, 3487.846
484.7770, 3677.633
485.2592, 3834.242
485.7413, 3970.226
486.2234, 4104.028
486.7055, 4231.512
487.1876, 4368.876
487.6697, 4534.365
488.1518, 4722.847
488.6339, 4850.989
489.1161, 4914.573
489.5982, 4933.658
490.0803, 4921.021
490.5624, 4877.247
491.0445, 4811.928
491.5266, 4729.094
492.0088, 4620.209
492.4909, 4457.644
492.9730, 4252.234
493.4551, 4040.390
493.9372, 3836.466
494.4193, 3642.669
494.9015, 3470.335
495.3836, 3320.334
495.8657, 3169.760
496.3478, 2984.833
496.8299, 2796.173
497.3120, 2634.890
497.7942, 2522.377
498.2763, 2430.269
498.7584, 2358.249
499.2405, 2301.753
499.7226, 2235.174
500.2047, 2131.615
500.6869, 2033.826
501.1690, 1961.270
501.6511, 1919.546
502.1332, 1890.905
502.6153, 1889.116
503.0974, 1891.466
503.5796, 1859.133
504.0617, 1773.661
504.5438, 1706.233
505.0259, 1684.148
505.5080, 1697.532
505.9901, 1678.967
506.4723, 1623.136
506.9544, 1565.543
507.4365, 1539.078
507.9186, 1537.355
508.4007, 1526.561
508.8828, 1499.124
509.3650, 1469.108
509.8471, 1453.294
510.3292, 1450.225
510.8113, 1455.326
511.2934, 1480.981
511.7755, 1504.480
512.2576, 1499.452
512.7397, 1464.789
513.2219, 1431.573
513.7040, 1420.502
514.1861, 1395.042
514.6682, 1409.569
515.1503, 1413.132
515.6324, 1406.394
516.1146, 1354.499
516.5967, 1363.968
517.0788, 1350.712
517.5609, 1337.802
518.0430, 1359.716
518.5251, 1321.249
519.0073, 1345.297
519.4894, 1346.255
519.9715, 1359.724
520.4536, 1350.321
520.9357, 1349.727
521.4178, 1360.237
521.9000, 1340.310
522.3821, 1367.980
522.8642, 1381.817
523.3463, 1382.563
523.8284, 1331.012
524.3105, 1346.992
524.7927, 1335.908
525.2748, 1323.716
525.7569, 1349.200
526.2390, 1305.256
526.7211, 1330.143
527.2032, 1327.554
527.6854, 1337.539
528.1675, 1320.295
528.6496, 1311.461
529.1317, 1329.866
529.6138, 1333.189
530.0959, 1312.810
530.5781, 1323.594
531.0602, 1267.766
531.5423, 1291.297
532.0244, 1302.697
532.5065, 1302.627
532.9886, 1256.236
533.4708, 1270.037
533.9529, 1259.949
534.4350, 1249.039
534.9171, 1271.786
535.3992, 1232.985
535.8813, 1255.532
536.3635, 1253.821
536.8456, 1263.454
537.3277, 1249.047
537.8098, 1242.282
538.2919, 1259.896
538.7740, 1264.268
539.2562, 1247.737
539.7383, 1259.074
540.2204, 1221.082
540.7025, 1226.687
541.1846, 1251.197
541.6667, 1236.711
542.1489, 1249.318
542.6310, 1251.834
543.1131, 1207.911
543.5952, 1245.206
544.0773, 1247.613
544.5594, 1214.195
545.0416, 1249.209
545.5237, 1221.083
546.0058, 1215.720
546.4879, 1227.526
546.9700, 1194.740
547.4521, 1223.067
547.9343, 1239.097
548.4164, 1243.491
548.8985, 1201.400
549.3806, 1219.335
549.8627, 1213.215
550.3448, 1206.107
550.8270, 1232.491
551.3091, 1197.161
551.7912, 1223.014
552.2733, 1224.444
552.7554, 1237.051
553.2375, 1225.454
553.7197, 1221.333
554.2018, 1241.424
554.6839, 1248.109
555.1660, 1233.725
555.6481, 1247.043
556.1302, 1210.868
556.6124, 1218.124
557.0945, 1244.118
557.5766, 1230.951
558.0587, 1244.712
558.5408, 1248.217
559.0229, 1205.117
559.5051, 1243.068
559.9872, 1245.968
560.4693, 1212.875
560.9514, 1209.906
561.4335, 1203.592
561.9156, 1207.801
562.3978, 1216.575
562.8799, 1233.284
563.3620, 1253.554
563.8441, 1255.157
564.3262, 1234.198
564.8083, 1213.123
565.2905, 1205.043
565.7726, 1208.321
566.2547, 1213.337
566.7368, 1219.953
567.2189, 1226.605
567.7010, 1233.627
568.1831, 1239.222
568.6652, 1239.116
569.1473, 1227.146
569.6295, 1214.851
570.1116, 1212.769
570.5937, 1218.125
571.0758, 1222.410
571.5579, 1218.937
572.0400, 1215.993
572.5222, 1219.271
573.0043, 1231.725
573.4864, 1238.172
573.9685, 1234.502
574.4506, 1226.244
574.9327, 1216.606
575.4149, 1201.361
575.8970, 1195.861
576.3791, 1205.216
576.8612, 1222.616
577.3433, 1232.889
577.8254, 1235.821
578.3076, 1232.864
578.7897, 1218.734
579.2718, 1199.090
579.7539, 1198.943
580.2360, 1218.407
580.7181, 1236.323
581.2003, 1230.116
581.6824, 1212.531
582.1645, 1203.811
582.6466, 1212.920
583.1287, 1220.890
583.6108, 1209.035
584.0930, 1189.331
584.5751, 1182.644
585.0572, 1212.246
585.5393, 1238.700
586.0214, 1249.918
586.5035, 1245.359
586.9857, 1234.777
587.4678, 1213.518
587.9499, 1192.032
588.4320, 1173.933
588.9141, 1156.433
589.3962, 1157.217
589.8784, 1182.261
590.3605, 1214.186
590.8426, 1230.169
591.3247, 1230.747
591.8068, 1221.823
592.2889, 1196.130
592.7711, 1171.538
593.2532, 1190.899
593.7353, 1243.253
594.2174, 1276.259
594.6995, 1227.705
595.1816, 1165.463
595.6638, 1157.986
596.1459, 1220.622
596.6280, 1263.576
597.1101, 1229.816
597.5922, 1172.383
598.0743, 1139.781
598.5565, 1166.924
599.0386, 1182.715
599.5207, 1177.937
600.0028, 1160.820
600.4849, 1149.034
600.9670, 1140.703
601.4492, 1144.183
601.9313, 1171.885
602.4134, 1216.672
602.8955, 1218.118
603.3776, 1172.854
603.8597, 1127.874
604.3419, 1126.471
604.8240, 1154.100
605.3061, 1177.438
605.7882, 1191.653
606.2703, 1199.584
606.7524, 1198.145
607.2346, 1192.990
607.7167, 1193.045
608.1988, 1207.468
608.6809, 1221.843
609.1630, 1235.988
609.6451, 1247.530
610.1273, 1242.285
610.6094, 1189.756
611.0915, 1148.783
611.5736, 1144.680
612.0557, 1186.235
612.5378, 1214.784
613.0200, 1229.031
613.5021, 1232.747
613.9842, 1226.308
614.4663, 1210.089
614.9484, 1195.914
615.4305, 1184.126
615.9127, 1178.327
616.3948, 1190.627
616.8769, 1214.979
617.3590, 1231.152
617.8411, 1218.970
618.3232, 1201.471
618.8054, 1199.930
619.2875, 1213.002
619.7696, 1224.749
620.2517, 1236.717
620.7338, 1239.498
621.2159, 1224.359
621.6981, 1174.777
622.1802, 1143.701
622.6623, 1137.277
623.1444, 1145.957
623.6265, 1161.900
624.1086, 1189.676
624.5908, 1208.304
625.0729, 1211.708
625.5550, 1206.258
626.0371, 1208.086
626.5192, 1216.908
627.0013, 1226.055
627.4835, 1235.131
627.9656, 1241.109
628.4477, 1239.370
628.9298, 1229.734
629.4119, 1211.610
629.8940, 1168.871
630.3762, 1126.305
630.8583, 1108.735
631.3404, 1131.244
631.8225, 1153.720
632.3046, 1164.881
632.7867, 1169.903
633.2689, 1175.585
633.7510, 1180.608
634.2330, 1189.711
634.7151, 1208.843
635.1973, 1231.525
635.6794, 1230.973
636.1615, 1203.532
636.6436, 1173.795
637.1257, 1151.710
637.6078, 1137.362
638.0900, 1131.724
638.5721, 1134.834
639.0542, 1142.307
639.5363, 1154.657
640.0184, 1167.685
640.5005, 1175.772
640.9827, 1178.305
641.4648, 1174.523
641.9469, 1152.655
642.4290, 1127.547
642.9111, 1119.877
643.3932, 1153.244
643.8754, 1182.630
644.3575, 1202.914
644.8396, 1213.596
645.3217, 1208.483
645.8038, 1177.462
646.2859, 1155.712
646.7681, 1164.348
647.2502, 1199.892
647.7323, 1220.603
648.2144, 1226.469
648.6965, 1219.271
649.1786, 1185.795
649.6608, 1143.006
650.1429, 1130.810
650.6250, 1164.217
651.1071, 1199.514
651.5892, 1203.308
652.0714, 1188.217
652.5535, 1172.703
653.0356, 1150.578
653.5177, 1141.462
653.9998, 1167.596
654.4819, 1214.369
654.9641, 1220.733
655.4462, 1154.886
655.9283, 1100.862
656.4104, 1094.379
656.8925, 1133.433
657.3746, 1153.035
657.8568, 1150.591
658.3389, 1145.435
658.8210, 1155.869
659.3031, 1176.523
659.7852, 1191.455
660.2673, 1198.708
660.7495, 1200.023
661.2316, 1193.236
661.7137, 1182.636
662.1958, 1174.415
662.6779, 1176.023
663.1600, 1174.555
663.6422, 1160.755
664.1243, 1140.032
664.6064, 1130.070
665.0885, 1141.712
665.5706, 1149.398
666.0527, 1141.798
666.5349, 1121.203
667.0170, 1125.236
667.4991, 1160.391
667.9812, 1192.459
668.4633, 1189.965
668.9454, 1163.087
669.4276, 1153.044
669.9097, 1163.684
670.3918, 1181.383
670.8739, 1198.435
671.3560, 1212.733
671.8381, 1221.260
672.3203, 1223.202
672.8024, 1218.917
673.2845, 1201.346
673.7666, 1178.544
674.2487, 1166.323
674.7308, 1172.612
675.2130, 1182.623
675.6951, 1198.115
676.1772, 1215.976
676.6593, 1216.533
677.1414, 1196.736
677.6235, 1173.204
678.1057, 1147.290
678.5878, 1123.585
679.0699, 1134.569
679.5520, 1181.586
680.0341, 1222.154
680.5162, 1205.826
680.9984, 1167.929
681.4805, 1157.963
681.9626, 1197.254
682.4447, 1226.736
682.9268, 1206.972
683.4089, 1166.506
683.8911, 1139.897
684.3732, 1145.549
684.8553, 1149.017
685.3374, 1144.662
685.8195, 1137.355
686.3016, 1140.561
686.7838, 1156.513
687.2659, 1172.869
687.7480, 1187.166
688.2301, 1197.853
688.7122, 1199.243
689.1943, 1191.747
689.6765, 1179.716
690.1586, 1152.876
690.6407, 1130.361
691.1228, 1143.448
691.6049, 1199.144
692.0870, 1236.043
692.5692, 1202.098
693.0513, 1152.875
693.5334, 1133.506
694.0155, 1176.475
694.4976, 1205.083
694.9797, 1216.788
695.4619, 1216.283
695.9440, 1207.932
696.4261, 1190.566
696.9082, 1173.308
697.3903, 1155.692
697.8724, 1142.664
698.3546, 1147.364
698.8367, 1166.647
699.3188, 1185.989
699.8009, 1199.733
700.2830, 1208.671
700.7651, 1214.615
701.2472, 1216.936
701.7293, 1211.351
702.2114, 1186.225
702.6935, 1161.093
703.1757, 1145.101
703.6578, 1138.154
704.1399, 1143.437
704.6220, 1168.712
705.1041, 1194.435
705.5862, 1202.901
706.0684, 1193.614
706.5505, 1189.683
707.0326, 1193.414
707.5147, 1201.875
707.9968, 1219.650
708.4789, 1239.094
708.9611, 1240.312
709.4432, 1202.064
709.9253, 1166.610
710.4074, 1170.226
710.8895, 1196.708
711.3716, 1210.789
711.8538, 1186.745
712.3359, 1167.921
712.8180, 1166.964
713.3001, 1180.770
713.7822, 1191.109
714.2643, 1196.587
714.7465, 1202.803
715.2286, 1216.347
715.7107, 1233.989
716.1928, 1232.801
716.6749, 1212.539
717.1570, 1192.674
717.6392, 1190.939
718.1213, 1198.425
718.6034, 1203.990
719.0855, 1206.045
719.5676, 1206.080
720.0497, 1202.884
720.5319, 1198.951
721.0140, 1196.649
721.4961, 1192.031
721.9782, 1196.195
722.4603, 1216.197
722.9424, 1239.518
723.4246, 1245.683
723.9067, 1233.519
724.3888, 1214.685
724.8709, 1185.721
725.3530, 1160.480
725.8351, 1174.818
726.3173, 1218.706
726.7994, 1250.572
727.2815, 1239.761
727.7636, 1216.998
728.2457, 1202.210
728.7278, 1195.267
729.2100, 1191.745
729.6921, 1190.090
730.1742, 1192.160
730.6563, 1200.704
731.1384, 1217.180
731.6205, 1221.974
732.1027, 1209.769
732.5848, 1199.459
733.0669, 1212.985
733.5490, 1244.787
734.0311, 1251.894
734.5132, 1228.737
734.9954, 1199.330
735.4775, 1178.485
735.9596, 1168.920
736.4417, 1176.956
736.9238, 1216.345
737.4059, 1249.391
737.8881, 1255.245
738.3702, 1247.211
738.8523, 1245.593
739.3344, 1260.311
739.8165, 1264.301
740.2986, 1245.019
740.7808, 1218.980
741.2629, 1235.719
741.7450, 1297.161
742.2271, 1341.517
742.7092, 1334.329
743.1913, 1304.863
743.6735, 1307.126
744.1556, 1334.160
744.6377, 1354.695
745.1198, 1345.035
745.6019, 1328.472
746.0840, 1318.721
746.5662, 1316.625
747.0483, 1316.650
747.5304, 1323.527
748.0125, 1326.353
748.4946, 1317.842
748.9767, 1295.654
749.4589, 1284.865
749.9410, 1288.616
750.4231, 1291.473
750.9052, 1275.324
751.3873, 1246.955
751.8694, 1225.976
752.3516, 1215.931
752.8337, 1209.531
753.3158, 1203.613
753.7979, 1197.111
754.2800, 1188.552
754.7621, 1169.921
755.2443, 1160.463
755.7264, 1173.998
756.2085, 1193.593
756.6906, 1193.683
757.1727, 1165.415
757.6548, 1147.736
758.1370, 1151.481
758.6191, 1164.534
759.1012, 1161.075
759.5833, 1143.318
760.0654, 1122.994
760.5475, 1097.732
761.0297, 1079.010
761.5118, 1079.083
761.9939, 1095.073
762.4760, 1115.987
762.9581, 1155.393
763.4402, 1181.838
763.9224, 1177.378
764.4045, 1144.476
764.8866, 1111.058
765.3687, 1070.756
765.8508, 1046.515
766.3329, 1060.677
766.8150, 1106.271
767.2971, 1125.396
767.7792, 1117.740
768.2614, 1106.298
768.7435, 1111.483
769.2256, 1122.407
769.7077, 1126.668
770.1898, 1122.209
770.6719, 1113.595
771.1541, 1096.834
771.6362, 1080.277
772.1183, 1070.695
772.6004, 1070.048
773.0825, 1072.424
773.5646, 1078.482
774.0468, 1086.412
774.5289, 1095.289
775.0110, 1104.700
775.4931, 1111.158
775.9752, 1114.810
776.4573, 1112.920
776.9395, 1096.503
777.4216, 1073.735
777.9037, 1058.577
778.3858, 1054.047
778.8679, 1060.134
779.3500, 1087.421
779.8322, 1124.042
780.3143, 1142.928
780.7964, 1136.764
781.2785, 1129.064
781.7606, 1126.473
782.2427, 1124.484
782.7249, 1103.730
783.2070, 1066.433
783.6891, 1042.378
784.1712, 1060.411
784.6533, 1090.083
785.1354, 1091.368
785.6176, 1071.210
786.0997, 1059.743
786.5818, 1085.462
787.0639, 1108.484
787.5460, 1106.088
788.0281, 1078.989
788.5103, 1062.403
788.9924, 1057.980
789.4745, 1060.902
789.9566, 1073.958
790.4387, 1094.274
790.9208, 1092.934
791.4030, 1069.626
791.8851, 1050.759
792.3672, 1064.207
792.8493, 1088.983
793.3314, 1101.982
793.8135, 1100.334
794.2957, 1090.714
794.7778, 1062.283
795.2599, 1036.567
795.7420, 1029.610
796.2241, 1047.329
796.7062, 1066.294
797.1884, 1091.121
797.6705, 1106.614
798.1526, 1086.879
798.6347, 1040.943
799.1168, 1019.451
799.5989, 1032.250
800.0811, 1055.440
800.5632, 1074.001
801.0453, 1087.573
801.5274, 1095.355
802.0095, 1092.472
802.4916, 1091.733
802.9738, 1104.661
803.4559, 1116.527
803.9380, 1106.137
804.4201, 1061.632
804.9022, 1039.398
805.3843, 1050.650
805.8665, 1080.523
806.3486, 1110.954
806.8307, 1139.823
807.3128, 1159.827
807.7949, 1164.471
808.2770, 1165.367
808.7592, 1172.630
809.2413, 1182.441
809.7234, 1187.216
810.2055, 1174.714
810.6876, 1170.043
811.1697, 1182.310
811.6519, 1203.574
812.1340, 1212.164
812.6161, 1206.835
813.0982, 1197.740
813.5803, 1185.082
814.0624, 1173.917
814.5446, 1178.296
815.0267, 1193.837
815.5088, 1205.148
815.9909, 1191.995
816.4730, 1183.823
816.9551, 1205.344
817.4373, 1250.697
817.9194, 1276.219
818.4015, 1266.559
818.8836, 1256.806
819.3657, 1258.986
819.8478, 1270.467
820.3300, 1278.129
820.8121, 1282.042
821.2942, 1278.249
821.7763, 1257.487
822.2584, 1231.500
822.7405, 1217.203
823.2227, 1213.464
823.7048, 1207.754
824.1869, 1189.407
824.6690, 1171.849
825.1511, 1165.255
825.6332, 1170.401
826.1154, 1160.504
826.5975, 1127.145
827.0796, 1099.805
827.5617, 1101.090
828.0438, 1124.843
828.5259, 1138.420
829.0081, 1141.664
829.4902, 1142.723
829.9723, 1154.682
830.4544, 1162.742
830.9365, 1146.392
831.4186, 1099.387
831.9007, 1071.119
832.3828, 1095.583
832.8649, 1121.420
833.3470, 1120.764
833.8292, 1089.187
834.3113, 1064.352
834.7934, 1046.231
835.2755, 1034.935
835.7576, 1032.259
836.2397, 1036.054
836.7219, 1045.381
837.2040, 1061.154
837.6861, 1067.366
838.1682, 1038.236
838.6503, 1006.627
839.1324, 1001.506
839.6146, 1044.487
840.0967, 1061.630
840.5788, 1040.990
841.0609, 1013.137
841.5430, 1005.658
842.0251, 1016.652
842.5073, 1023.087
842.9894, 1022.632
843.4715, 1023.415
843.9536, 1038.284
844.4357, 1056.576
844.9178, 1063.279
845.4000, 1051.009
845.8821, 1042.495
846.3642, 1051.609
846.8463, 1061.629
847.3284, 1057.381
847.8105, 1032.886
848.2927, 1017.565
848.7748, 1011.710
849.2569, 1017.848
849.7390, 1052.958
850.2211, 1101.183
850.7032, 1116.806
851.1854, 1084.494
851.6675, 1052.950
852.1496, 1053.356
852.6317, 1070.639
853.1138, 1090.177
853.5959, 1119.944
854.0781, 1133.465
854.5602, 1126.096
855.0423, 1108.779
855.5244, 1091.309
856.0065, 1074.058
856.4886, 1059.416
856.9708, 1047.411
857.4529, 1040.236
857.9350, 1041.651
858.4171, 1048.555
858.8992, 1057.485
859.3813, 1070.492
859.8635, 1079.300
860.3456, 1076.849
860.8277, 1072.547
861.3098, 1077.351
861.7919, 1096.079
862.2740, 1096.000
862.7562, 1069.494
863.2383, 1040.063
863.7204, 1042.484
864.2025, 1062.826
864.6846, 1068.527
865.1667, 1046.247
865.6489, 1027.857
866.1310, 1036.328
866.6131, 1054.700
867.0952, 1063.668
867.5773, 1055.372
868.0594, 1052.229
868.5416, 1057.313
869.0237, 1062.820
869.5058, 1055.268
869.9879, 1038.330
870.4700, 1034.074
870.9521, 1048.417
871.4343, 1064.754
871.9164, 1067.932
872.3985, 1065.254
872.8806, 1065.130
873.3627, 1070.565
873.8448, 1076.518
874.3270, 1084.306
874.8091, 1090.620
875.2912, 1090.474
875.7733, 1083.349
876.2554, 1083.552
876.7375, 1094.308
877.2197, 1102.874
877.7018, 1088.711
878.1839, 1065.666
878.6660, 1057.019
879.1481, 1074.770
879.6302, 1085.058
880.1124, 1063.763
880.5945, 1038.589
881.0766, 1035.211
881.5587, 1062.802
882.0408, 1078.747
882.5229, 1080.385
883.0051, 1074.866
883.4872, 1065.827
883.9693, 1056.199
884.4514, 1052.976
884.9335, 1057.410
885.4156, 1067.302
885.8978, 1092.543
886.3799, 1115.800
886.8620, 1118.649
887.3441, 1087.298
887.8262, 1073.606
888.3083, 1084.852
888.7905, 1099.256
889.2726, 1092.433
889.7547, 1070.357
890.2368, 1065.942
890.7189, 1082.989
891.2010, 1099.527
891.6832, 1095.455
892.1653, 1084.654
892.6474, 1081.759
893.1295, 1093.965
893.6116, 1091.555
894.0938, 1060.711
894.5759, 1031.232
895.0580, 1024.561
895.5401, 1040.127
896.0222, 1049.105
896.5043, 1050.917
896.9865, 1049.617
897.4685, 1047.610
897.9506, 1044.772
898.4327, 1038.057
898.9149, 1026.426
899.3970, 1025.663
899.8791, 1056.929
900.3612, 1083.683
900.8433, 1087.345
901.3254, 1067.515
901.8076, 1050.350
902.2897, 1035.543
902.7718, 1029.058
903.2539, 1045.261
903.7360, 1067.337
904.2181, 1067.810
904.7003, 1047.696
905.1824, 1030.697
905.6645, 1029.016
906.1466, 1031.115
906.6287, 1034.374
907.1108, 1037.958
907.5930, 1028.123
908.0751, 1000.904
908.5572, 983.0524
909.0393, 996.9905
909.5214, 1025.783
910.0035, 1035.731
910.4857, 1029.812
910.9678, 1021.339
911.4499, 1007.587
911.9320, 1002.104
912.4141, 1017.653
912.8962, 1048.567
913.3784, 1066.973
913.8605, 1070.600
914.3426, 1069.790
914.8247, 1067.137
915.3068, 1062.985
915.7889, 1055.302
916.2711, 1046.276
916.7532, 1043.803
917.2353, 1059.505
917.7174, 1074.252
918.1995, 1075.799
918.6816, 1069.619
919.1638, 1070.754
919.6459, 1085.132
920.1280, 1091.985
920.6101, 1084.124
921.0922, 1072.038
921.5743, 1077.036
922.0565, 1094.593
922.5386, 1108.661
923.0207, 1112.723
923.5028, 1114.031
923.9849, 1117.059
924.4670, 1120.250
924.9492, 1121.120
925.4313, 1118.891
925.9134, 1116.714
926.3955, 1097.258
926.8776, 1127.318
927.3597, 1143.545
927.8419, 1146.681
928.3240, 1097.521
928.8061, 1115.892
929.2882, 1107.199
929.7703, 1097.396
930.2524, 1125.271
930.7346, 1083.717
931.2167, 1110.994
931.6988, 1110.796
932.1809, 1123.172
932.6630, 1108.318
933.1451, 1101.875
933.6273, 1122.670
934.1094, 1128.384
934.5915, 1085.887
935.0736, 1116.223
935.5557, 1132.725
936.0378, 1136.137
936.5200, 1087.252
937.0021, 1105.898
937.4842, 1097.480
937.9663, 1087.953
938.4484, 1116.103
938.9305, 1074.825
939.4127, 1102.378
939.8948, 1102.454
940.3769, 1115.106
940.8590, 1100.528
941.3411, 1094.360
941.8232, 1115.431
942.3054, 1121.419
942.7875, 1103.706
943.2696, 1117.158
943.7517, 1074.928
944.2338, 1081.559
944.7159, 1109.271
945.1981, 1092.927
945.6802, 1106.876
946.1623, 1109.288
946.6444, 1059.268
947.1265, 1100.432
947.6086, 1102.162
948.0908, 1063.402
948.5729, 1101.442
949.0550, 1068.264
949.5371, 1075.566
950.0192, 1079.542
950.5013, 1083.957
950.9835, 1087.412
951.4656, 1085.560
951.9477, 1080.299
952.4298, 1080.826
952.9119, 1091.673
953.3940, 1101.637
953.8762, 1095.183
954.3583, 1086.881
954.8404, 1094.503
955.3225, 1134.381
955.8046, 1158.182
956.2867, 1160.811
956.7689, 1158.060
957.2510, 1167.693
957.7331, 1184.888
958.2152, 1185.592
958.6973, 1167.056
959.1794, 1162.758
959.6616, 1215.193
960.1437, 1275.148
960.6258, 1302.144
961.1079, 1289.777
961.5900, 1288.499
962.0721, 1301.659
962.5543, 1316.399
963.0364, 1324.211
963.5184, 1328.365
964.0005, 1335.480
964.4827, 1346.849
964.9648, 1370.239
965.4469, 1426.219
965.9290, 1478.949
966.4111, 1506.984
966.8932, 1515.620
967.3754, 1529.743
967.8575, 1551.176
968.3396, 1572.750
968.8217, 1597.394
969.3038, 1613.970
969.7859, 1602.207
970.2681, 1566.388
970.7502, 1514.954
971.2323, 1426.958
971.7144, 1359.218
972.1965, 1354.297
972.6786, 1369.968
973.1608, 1347.698
973.6429, 1275.913
974.1250, 1225.774
974.6071, 1206.422
975.0892, 1198.743
975.5714, 1184.622
976.0535, 1166.466
976.5356, 1146.195
977.0177, 1122.383
977.4998, 1107.055
977.9819, 1111.816
978.4641, 1119.837
978.9462, 1121.949
979.4283, 1118.042
979.9104, 1110.558
980.3925, 1098.808
980.8746, 1095.018
981.3568, 1117.932
981.8389, 1146.480
982.3210, 1153.085
982.8031, 1140.670
983.2852, 1133.690
983.7673, 1149.233
984.2495, 1158.552
984.7316, 1153.205
985.2137, 1137.245
985.6958, 1120.746
986.1779, 1104.071
986.6600, 1091.078
987.1422, 1081.428
987.6243, 1078.814
988.1064, 1089.664
988.5885, 1108.915
989.0706, 1128.698
989.5527, 1157.511
990.0349, 1169.426
990.5170, 1158.986
990.9991, 1115.557
991.4812, 1146.907
991.9633, 1164.423
992.4454, 1168.849
992.9276, 1120.978
993.4097, 1140.637
993.8918, 1133.234
994.3739, 1124.721
994.8560, 1153.885
995.3381, 1113.620
995.8203, 1142.187
996.3024, 1143.277
996.7845, 1156.943
997.2666, 1143.378
997.7487, 1138.224
998.2308, 1160.309
998.7130, 1167.312
999.1951, 1150.613
999.6772, 1165.078
1000.159, 1154.342
1000.641, 1151.101
1001.124, 1136.660
1001.606, 1146.830
1002.088, 1185.381
1002.570, 1209.314
1003.052, 1202.606
1003.534, 1186.318
1004.016, 1181.473
1004.498, 1187.546
1004.980, 1204.698
1005.463, 1243.268
1005.945, 1273.975
1006.427, 1291.550
1006.909, 1301.987
1007.391, 1311.298
1007.873, 1319.076
1008.355, 1317.386
1008.837, 1305.416
1009.320, 1295.214
1009.802, 1292.589
1010.284, 1298.690
1010.766, 1318.744
1011.248, 1353.551
1011.730, 1377.732
1012.212, 1387.500
1012.694, 1393.778
1013.176, 1401.505
1013.659, 1408.302
1014.141, 1405.418
1014.623, 1395.463
1015.105, 1387.920
1015.587, 1391.453
1016.069, 1393.515
1016.551, 1388.084
1017.033, 1377.939
1017.516, 1369.652
1017.998, 1366.273
1018.480, 1345.839
1018.962, 1301.536
1019.444, 1256.113
1019.926, 1229.837
1020.408, 1222.139
1020.890, 1238.409
1021.372, 1287.204
1021.855, 1318.930
1022.337, 1308.153
1022.819, 1292.871
1023.301, 1292.970
1023.783, 1306.753
1024.265, 1316.172
1024.747, 1321.296
1025.229, 1323.212
1025.711, 1310.585
1026.194, 1305.846
1026.676, 1337.417
1027.158, 1392.673
1027.640, 1424.066
1028.122, 1421.849
1028.604, 1412.379
1029.086, 1397.254
1029.568, 1383.316
1030.051, 1381.786
1030.533, 1390.399
1031.015, 1401.729
1031.497, 1409.421
1031.979, 1433.522
1032.461, 1500.132
1032.943, 1574.046
1033.425, 1631.375
1033.907, 1647.193
1034.390, 1697.700
1034.872, 1734.330
1035.354, 1757.874
1035.836, 1729.122
1036.318, 1767.895
1036.800, 1779.609
1037.282, 1790.209
1037.764, 1838.491
1038.246, 1817.339
1038.729, 1865.061
1039.211, 1885.269
1039.693, 1918.047
1040.175, 1923.600
1040.657, 1907.610
1041.139, 1918.173
1041.621, 1969.458
1042.103, 2025.977
1042.586, 2071.967
1043.068, 2109.536
1043.550, 2139.951
1044.032, 2157.816
1044.514, 2188.440
1044.996, 2232.143
1045.478, 2286.514
1045.960, 2348.103
1046.443, 2419.162
1046.925, 2503.629
1047.407, 2601.327
1047.889, 2708.118
1048.371, 2840.379
1048.853, 2958.342
1049.335, 3039.986
1049.817, 3106.171
1050.299, 3224.675
1050.781, 3389.047
1051.264, 3549.446
1051.746, 3686.478
1052.228, 3825.884
1052.710, 3986.600
1053.192, 4160.658
1053.674, 4337.662
1054.156, 4512.489
1054.638, 4704.857
1055.121, 4921.338
1055.603, 5133.091
1056.085, 5311.767
1056.567, 5471.909
1057.049, 5645.752
1057.531, 5832.681
1058.013, 6000.500
1058.495, 6161.322
1058.978, 6269.706
1059.460, 6307.727
1059.942, 6287.462
1060.424, 6249.026
1060.906, 6190.465
1061.388, 6095.863
1061.870, 5957.593
1062.352, 5784.516
1062.834, 5567.854
1063.317, 5331.077
1063.799, 5104.566
1064.281, 4893.981
1064.763, 4689.958
1065.245, 4494.627
1065.727, 4296.660
1066.209, 4081.106
1066.691, 3860.244
1067.173, 3651.798
1067.656, 3456.685
1068.138, 3279.744
1068.620, 3129.825
1069.102, 2993.601
1069.584, 2867.793
1070.066, 2753.756
1070.548, 2662.119
1071.030, 2588.227
1071.512, 2503.872
1071.995, 2390.719
1072.477, 2285.084
1072.959, 2217.708
1073.441, 2167.992
1073.923, 2111.231
1074.405, 2042.411
1074.887, 1979.093
1075.369, 1920.279
1075.852, 1873.716
1076.334, 1858.451
1076.816, 1851.572
1077.298, 1813.963
1077.780, 1749.655
1078.262, 1694.136
1078.744, 1665.260
1079.226, 1637.820
1079.708, 1605.560
1080.191, 1572.764
1080.673, 1546.542
1081.155, 1527.372
1081.637, 1520.561
1082.119, 1534.227
1082.601, 1538.105
1083.083, 1502.387
1083.565, 1456.661
1084.047, 1427.089
1084.530, 1415.519
1085.012, 1406.726
1085.494, 1401.006
1085.976, 1393.841
1086.458, 1381.949
1086.940, 1367.116
1087.422, 1348.452
1087.904, 1328.131
1088.387, 1315.142
1088.869, 1323.036
1089.351, 1313.562
1089.833, 1272.633
1090.315, 1227.524
1090.797, 1228.678
1091.279, 1258.343
1091.761, 1269.708
1092.244, 1252.095
1092.726, 1229.504
1093.208, 1201.716
1093.690, 1183.070
1094.172, 1185.617
1094.654, 1206.556
1095.136, 1204.339
1095.618, 1180.528
1096.100, 1169.219
1096.583, 1214.604
1097.065, 1252.628
1097.547, 1210.145
1098.029, 1131.164
1098.511, 1108.263
1098.993, 1174.365
1099.475, 1208.007
1099.957, 1195.729
1100.439, 1165.842
1100.922, 1141.818
1101.404, 1123.578
1101.886, 1111.973
1102.368, 1106.977
1102.850, 1105.846
1103.332, 1107.024
1103.814, 1114.329
1104.296, 1134.040
1104.779, 1157.018
1105.261, 1150.287
1105.743, 1122.164
1106.225, 1105.969
1106.707, 1121.821
1107.189, 1135.637
1107.671, 1126.453
1108.153, 1111.034
1108.635, 1105.137
1109.118, 1109.674
1109.600, 1118.812
1110.082, 1133.093
1110.564, 1138.424
1111.046, 1116.607
1111.528, 1088.175
1112.010, 1067.811
1112.492, 1056.434
1112.974, 1053.914
1113.457, 1063.089
1113.939, 1071.946
1114.421, 1078.397
1114.903, 1082.743
1115.385, 1086.389
1115.867, 1087.683
1116.349, 1080.605
1116.831, 1058.868
1117.314, 1054.896
1117.796, 1087.685
1118.278, 1119.748
1118.760, 1133.467
1119.242, 1131.320
1119.724, 1115.981
1120.206, 1091.825
1120.688, 1078.151
1121.171, 1094.828
1121.653, 1111.473
1122.135, 1111.443
1122.617, 1108.160
1123.099, 1119.766
1123.581, 1146.803
1124.063, 1162.941
1124.545, 1165.586
1125.027, 1167.563
1125.510, 1183.367
1125.992, 1199.441
1126.474, 1204.717
1126.956, 1199.106
1127.438, 1191.292
1127.920, 1180.008
1128.402, 1173.081
1128.884, 1175.367
1129.366, 1177.268
1129.849, 1160.984
1130.331, 1137.336
1130.813, 1122.389
1131.295, 1119.303
1131.777, 1129.237
1132.259, 1162.470
1132.741, 1186.641
1133.223, 1175.428
1133.705, 1140.540
1134.188, 1109.438
1134.670, 1084.141
1135.152, 1073.434
1135.634, 1098.461
1136.116, 1116.554
1136.598, 1116.130
1137.080, 1105.615
1137.562, 1094.039
1138.045, 1082.219
1138.527, 1075.372
1139.009, 1074.314
1139.491, 1075.187
1139.973, 1078.402
1140.455, 1079.952
1140.937, 1076.626
1141.419, 1069.444
1141.901, 1064.444
1142.384, 1061.697
1142.866, 1053.312
1143.348, 1032.402
1143.830, 1014.115
1144.312, 1012.555
1144.794, 1021.843
1145.276, 1037.289
1145.758, 1063.559
1146.240, 1073.552
1146.723, 1065.864
1147.205, 1049.400
1147.687, 1019.597
1148.169, 992.2575
1148.651, 991.8444
1149.133, 1012.664
1149.615, 1036.067
1150.097, 1065.168
1150.580, 1083.112
1151.062, 1085.969
1151.544, 1081.170
1152.026, 1082.291
1152.508, 1081.421
1152.990, 1053.773
1153.472, 996.0509
1153.954, 961.3373
1154.437, 987.5808
1154.919, 1019.276
1155.401, 1043.494
1155.883, 1058.917
1156.365, 1058.063
1156.847, 1044.824
1157.329, 1033.231
1157.811, 1028.191
1158.293, 1024.066
1158.776, 1018.548
1159.258, 1012.771
1159.740, 1006.961
1160.222, 1001.216
1160.704, 998.4410
1161.186, 998.7549
1161.668, 1003.795
1162.150, 1016.369
1162.632, 1031.931
1163.115, 1054.833
1163.597, 1075.647
1164.079, 1078.549
1164.561, 1062.190
1165.043, 1033.517
1165.525, 990.5607
1166.007, 964.4783
1166.489, 998.8271
1166.972, 1048.000
1167.454, 1079.262
1167.936, 1088.876
1168.418, 1073.957
1168.900, 1026.208
1169.382, 997.1754
1169.864, 1006.111
1170.346, 1025.412
1170.828, 1021.159
1171.311, 1006.797
1171.793, 1000.522
1172.275, 1009.577
1172.757, 1006.108
1173.239, 981.8729
1173.721, 971.4021
1174.203, 1004.624
1174.685, 1053.694
1175.167, 1073.084
1175.650, 1067.907
1176.132, 1049.192
1176.614, 997.2863
1177.096, 968.2650
1177.578, 968.1682
1178.060, 983.7734
1178.542, 1011.849
1179.024, 1043.334
1179.507, 1057.323
1179.989, 1053.944
1180.471, 1042.368
1180.953, 1013.216
1181.435, 993.8316
1181.917, 992.4563
1182.399, 1000.127
1182.881, 999.9061
1183.364, 996.3640
1183.846, 1009.467
1184.328, 1045.032
1184.810, 1064.717
1185.292, 1030.548
1185.774, 1000.012
1186.256, 1001.500
1186.738, 1023.942
1187.220, 1027.188
1187.703, 1014.947
1188.185, 1004.892
1188.667, 1005.428
1189.149, 1003.290
1189.631, 982.8716
1190.113, 965.3588
1190.595, 969.1089
1191.077, 993.1549
1191.559, 1009.295
1192.042, 1017.751
1192.524, 1019.727
1193.006, 1011.965
1193.488, 1002.270
1193.970, 990.8951
1194.452, 982.2762
1194.934, 985.0070
1195.416, 999.8838
1195.898, 1001.333
1196.381, 987.4604
1196.863, 980.8135
1197.345, 1013.931
1197.827, 1045.761
1198.309, 1041.519
1198.791, 1012.831
1199.273, 994.4855
1199.755, 986.7073
1200.238, 986.6960
1200.720, 994.8920
1201.202, 1005.132
1201.684, 1017.275
1202.166, 1024.575
1202.648, 1013.635
1203.130, 1025.442
1203.612, 991.1874
1204.094, 1030.711
1204.577, 1059.025
1205.059, 1057.802
1205.541, 1041.343
1206.023, 1006.661
1206.505, 974.7963
1206.987, 979.4141
1207.469, 1033.167
1207.951, 1055.926
1208.433, 1045.161
1208.916, 1023.047
1209.398, 989.5293
1209.880, 964.2293
1210.362, 981.1599
1210.844, 1019.118
1211.326, 1030.780
1211.808, 1001.766
1212.290, 984.3592
1212.773, 981.6373
1213.255, 988.3138
1213.737, 1011.749
1214.219, 1033.108
1214.701, 1024.223
1215.183, 992.3969
1215.665, 977.6588
1216.147, 985.9072
1216.630, 1000.468
1217.112, 1020.347
1217.594, 1038.499
1218.076, 1049.494
1218.558, 1052.019
1219.040, 1040.866
1219.522, 1015.553
1220.004, 998.1085
1220.486, 990.0308
1220.969, 987.2316
1221.451, 988.3263
1221.933, 994.4879
1222.415, 1014.721
1222.897, 1037.567
1223.379, 1045.597
1223.861, 1030.744
1224.343, 1021.217
1224.825, 1017.174
1225.308, 1019.289
1225.790, 1032.234
1226.272, 1046.469
1226.754, 1049.023
1227.236, 1042.045
1227.718, 1028.516
1228.200, 997.4077
1228.682, 988.6893
1229.165, 1007.997
1229.647, 1028.219
1230.129, 1027.049
1230.611, 1015.854
1231.093, 1007.771
1231.575, 1003.425
1232.057, 1004.108
1232.539, 1010.308
1233.021, 1022.160
1233.504, 1042.374
1233.986, 1057.978
1234.468, 1047.970
1234.950, 1030.715
1235.432, 1032.044
1235.914, 1050.216
1236.396, 1062.753
1236.878, 1067.999
1237.360, 1066.233
1237.843, 1055.864
1238.325, 1044.071
1238.807, 1039.891
1239.289, 1039.775
1239.771, 1039.697
1240.253, 1039.219
1240.735, 1040.532
1241.217, 1046.474
1241.700, 1041.677
1242.182, 1013.861
1242.664, 991.6205
1243.146, 1030.331
1243.628, 1088.109
1244.110, 1106.999
1244.592, 1068.703
1245.074, 1040.224
1245.557, 1020.835
1246.039, 1014.301
1246.521, 1027.457
1247.003, 1046.239
1247.485, 1054.576
1247.967, 1055.674
1248.449, 1054.253
1248.931, 1051.418
1249.413, 1044.579
1249.896, 1033.583
1250.378, 1020.035
1250.860, 992.1714
1251.342, 973.1989
1251.824, 1000.611
1252.306, 1051.992
1252.788, 1081.305
1253.270, 1083.492
1253.752, 1068.925
1254.235, 1034.808
1254.717, 1012.842
1255.199, 1044.121
1255.681, 1085.219
1256.163, 1099.361
1256.645, 1089.809
1257.127, 1071.717
1257.609, 1042.514
1258.092, 1023.517
1258.574, 1017.232
1259.056, 1019.544
1259.538, 1030.704
1260.020, 1045.674
1260.502, 1064.768
1260.984, 1083.894
1261.466, 1086.415
1261.948, 1071.294
1262.431, 1063.100
1262.913, 1067.630
1263.395, 1072.299
1263.877, 1062.539
1264.359, 1052.135
1264.841, 1053.821
1265.323, 1064.266
1265.805, 1068.976
1266.287, 1068.027
1266.770, 1061.831
1267.252, 1047.978
1267.734, 1038.222
1268.216, 1042.641
1268.698, 1052.907
1269.180, 1063.772
##END=



