##NAMES=Bikitaite
##RRUFFID=R050160
##IDEAL CHEMISTRY=LiAlSi_2_O_6_&#183;H_2_O
##LOCALITY=Foote mine, Kings Mountain, Cleveland County, North Carolina, USA
##OWNER=RRUFF
##SOURCE=Jim McGlasson
##DESCRIPTION=Colorless prismatic crystals
##STATUS=The identification of this mineral has been confirmed by X-ray diffraction and chemical analysis
##URL=rruff.info/R050160
##MEASURED CHEMISTRY=Li_1.00_Si_2.00_O_6_Â·1.25H_2_O ; Li not measured but estimated by stoichiometry
93.74609, 44.80616
94.22821, 43.35453
94.71033, 43.85505
95.19244, 46.10582
95.67456, 49.39463
96.15668, 54.02610
96.63879, 59.53296
97.12091, 64.15115
97.60303, 67.65654
98.08514, 71.24643
98.56726, 76.39933
99.04938, 83.13977
99.53149, 91.13171
100.0136, 100.5987
100.4957, 111.5256
100.9778, 121.9379
101.4600, 131.3263
101.9421, 140.4935
102.4242, 151.1194
102.9063, 163.4987
103.3884, 176.7478
103.8705, 190.3330
104.3527, 204.6350
104.8348, 218.5944
105.3169, 232.3075
105.7990, 245.6770
106.2811, 258.8844
106.7632, 271.3636
107.2454, 284.1514
107.7275, 297.8239
108.2096, 312.7259
108.6917, 328.2794
109.1738, 344.1815
109.6559, 360.4298
110.1381, 378.3725
110.6202, 398.3421
111.1023, 420.0306
111.5844, 443.1451
112.0665, 471.7093
112.5486, 498.1815
113.0308, 521.0434
113.5129, 540.2122
113.9950, 556.6993
114.4771, 569.0939
114.9592, 579.1273
115.4413, 589.4772
115.9235, 601.2238
116.4056, 613.0108
116.8877, 623.8057
117.3698, 632.7766
117.8519, 642.8082
118.3340, 657.8766
118.8162, 675.0699
119.2983, 687.3898
119.7804, 694.7007
120.2625, 694.6463
120.7446, 684.9641
121.2267, 662.0125
121.7089, 633.7703
122.1910, 602.5254
122.6731, 569.1249
123.1552, 537.5253
123.6373, 510.0200
124.1194, 485.8517
124.6016, 463.5511
125.0837, 441.6950
125.5658, 422.7832
126.0479, 410.0958
126.5300, 403.5021
127.0121, 400.0440
127.4943, 397.2534
127.9764, 395.7292
128.4585, 396.8089
128.9406, 401.9409
129.4227, 409.7998
129.9048, 417.6974
130.3869, 425.4693
130.8691, 434.5920
131.3512, 446.6029
131.8333, 459.8936
132.3154, 472.9977
132.7975, 487.4805
133.2796, 503.9128
133.7618, 521.4202
134.2439, 539.9060
134.7260, 559.9739
135.2081, 581.9932
135.6902, 606.0001
136.1723, 632.5787
136.6545, 661.7245
137.1366, 693.2985
137.6187, 729.2479
138.1008, 770.7750
138.5829, 815.7769
139.0650, 860.8772
139.5472, 906.5654
140.0293, 951.1798
140.5114, 995.0856
140.9935, 1039.711
141.4756, 1078.387
141.9577, 1111.254
142.4399, 1138.326
142.9220, 1158.882
143.4041, 1173.272
143.8862, 1181.122
144.3683, 1181.808
144.8504, 1173.516
145.3326, 1162.361
145.8147, 1149.257
146.2968, 1134.076
146.7789, 1116.855
147.2610, 1097.657
147.7431, 1076.385
148.2253, 1052.398
148.7074, 1023.263
149.1895, 995.0156
149.6716, 969.2275
150.1537, 946.1035
150.6358, 922.9483
151.1180, 899.3790
151.6001, 875.9736
152.0822, 853.6833
152.5643, 830.9095
153.0464, 810.6656
153.5285, 794.0162
154.0107, 781.8685
154.4928, 770.2711
154.9749, 758.6465
155.4570, 747.4532
155.9391, 737.2516
156.4212, 728.2932
156.9034, 720.0352
157.3855, 712.2937
157.8676, 705.1740
158.3497, 698.5090
158.8318, 693.3694
159.3139, 688.5345
159.7961, 681.8790
160.2782, 672.2477
160.7603, 661.1706
161.2424, 649.1659
161.7245, 635.8051
162.2066, 622.6819
162.6888, 610.5758
163.1709, 599.0872
163.6530, 587.3412
164.1351, 574.5253
164.6172, 561.6066
165.0993, 549.1659
165.5815, 537.1584
166.0636, 525.8439
166.5457, 515.6846
167.0278, 506.3149
167.5099, 496.6246
167.9921, 486.0680
168.4742, 474.9345
168.9563, 463.4562
169.4384, 451.4972
169.9205, 439.4113
170.4026, 427.4977
170.8848, 415.6632
171.3669, 403.7096
171.8490, 390.9982
172.3311, 378.2763
172.8132, 366.4261
173.2953, 355.7047
173.7775, 345.9057
174.2596, 336.9619
174.7417, 328.7936
175.2238, 321.1041
175.7059, 313.3754
176.1880, 306.0822
176.6702, 300.0710
177.1523, 295.9430
177.6344, 292.9792
178.1165, 290.3760
178.5986, 288.1103
179.0807, 286.2613
179.5629, 284.7998
180.0450, 283.7690
180.5271, 283.2944
181.0092, 283.4757
181.4913, 284.1963
181.9734, 285.2440
182.4556, 286.6109
182.9377, 288.3913
183.4198, 290.7381
183.9019, 293.6069
184.3840, 296.7792
184.8661, 300.0522
185.3483, 303.5957
185.8304, 308.0257
186.3125, 313.3781
186.7946, 319.1410
187.2767, 324.8717
187.7588, 330.6038
188.2409, 336.1814
188.7231, 341.1505
189.2052, 345.9103
189.6873, 351.9203
190.1694, 359.2614
190.6515, 367.7461
191.1336, 377.3365
191.6158, 388.0029
192.0979, 399.2462
192.5800, 411.1046
193.0621, 423.4825
193.5442, 435.6746
194.0263, 447.4567
194.5085, 460.1813
194.9906, 475.7326
195.4727, 494.0872
195.9548, 514.0433
196.4369, 534.3998
196.9190, 555.3160
197.4012, 579.4961
197.8833, 606.7892
198.3654, 637.6208
198.8475, 671.7419
199.3296, 709.2928
199.8117, 749.9765
200.2939, 794.3021
200.7760, 842.1014
201.2581, 891.6913
201.7402, 944.5842
202.2223, 996.2753
202.7044, 1040.667
203.1866, 1078.114
203.6687, 1104.317
204.1508, 1117.831
204.6329, 1118.823
205.1150, 1104.716
205.5971, 1073.199
206.0793, 1029.477
206.5614, 981.1003
207.0435, 926.7140
207.5256, 874.7585
208.0077, 828.3787
208.4898, 787.3387
208.9720, 753.2728
209.4541, 726.3340
209.9362, 706.2049
210.4183, 692.6935
210.9004, 686.6583
211.3825, 685.0054
211.8647, 686.3797
212.3468, 690.6288
212.8289, 698.6144
213.3110, 710.5802
213.7931, 726.1734
214.2752, 744.6165
214.7574, 766.6769
215.2395, 790.0897
215.7216, 814.2700
216.2037, 839.1154
216.6858, 864.5889
217.1679, 891.9548
217.6501, 919.3281
218.1322, 942.1659
218.6143, 960.9365
219.0964, 974.7090
219.5785, 983.2260
220.0606, 987.5048
220.5428, 983.7079
221.0249, 970.9124
221.5070, 950.4660
221.9891, 925.5526
222.4712, 894.9567
222.9533, 861.6184
223.4355, 827.0891
223.9176, 789.9877
224.3997, 754.0912
224.8818, 718.6058
225.3639, 684.5256
225.8460, 653.1660
226.3282, 624.9041
226.8103, 599.0725
227.2924, 576.0124
227.7745, 555.5904
228.2566, 537.3192
228.7387, 521.4504
229.2209, 507.5806
229.7030, 495.1442
230.1851, 483.7188
230.6672, 474.2025
231.1493, 467.1098
231.6314, 463.1293
232.1136, 459.6760
232.5957, 456.4701
233.0778, 453.9030
233.5599, 452.8912
234.0420, 453.5656
234.5241, 455.5662
235.0063, 458.8000
235.4884, 463.3094
235.9705, 468.7644
236.4526, 475.1131
236.9347, 482.4695
237.4168, 491.1895
237.8990, 501.6298
238.3811, 512.8135
238.8632, 524.2576
239.3453, 535.7934
239.8274, 548.1115
240.3095, 560.8478
240.7917, 574.6190
241.2738, 590.6327
241.7559, 609.2385
242.2380, 629.4551
242.7201, 650.7562
243.2022, 673.0273
243.6844, 697.0945
244.1665, 723.4240
244.6486, 751.4407
245.1307, 780.2449
245.6128, 810.1523
246.0949, 840.3568
246.5771, 870.9003
247.0592, 902.3233
247.5413, 932.1606
248.0234, 960.6531
248.5055, 987.1980
248.9876, 1010.335
249.4697, 1030.105
249.9519, 1046.655
250.4340, 1059.606
250.9161, 1068.374
251.3982, 1076.306
251.8803, 1081.868
252.3624, 1087.803
252.8446, 1097.918
253.3267, 1113.636
253.8088, 1130.958
254.2909, 1149.882
254.7730, 1171.282
255.2551, 1188.355
255.7373, 1202.462
256.2194, 1210.907
256.7015, 1210.542
257.1836, 1201.709
257.6657, 1183.245
258.1479, 1153.364
258.6300, 1111.798
259.1121, 1067.664
259.5942, 1020.213
260.0763, 970.9600
260.5584, 919.4758
261.0406, 864.7465
261.5227, 811.6518
262.0048, 760.7131
262.4869, 712.3850
262.9690, 667.5278
263.4511, 626.5941
263.9333, 588.9996
264.4154, 554.2814
264.8975, 521.9531
265.3796, 493.1587
265.8617, 468.1850
266.3438, 447.0333
266.8260, 427.2627
267.3081, 408.7115
267.7902, 392.0800
268.2723, 378.7256
268.7544, 369.1091
269.2365, 360.1773
269.7187, 351.3816
270.2008, 342.8409
270.6829, 335.7158
271.1650, 330.1707
271.6471, 325.6392
272.1292, 321.8763
272.6114, 318.9034
273.0935, 316.4264
273.5756, 314.2755
274.0577, 312.6606
274.5398, 312.3844
275.0219, 313.5982
275.5041, 315.6743
275.9862, 318.4237
276.4683, 321.9474
276.9504, 325.1319
277.4325, 327.6211
277.9146, 329.9356
278.3968, 333.4233
278.8788, 338.1716
279.3610, 343.5681
279.8431, 349.0208
280.3252, 354.4393
280.8073, 361.4126
281.2894, 370.2656
281.7715, 380.3668
282.2537, 390.2974
282.7358, 399.9320
283.2179, 410.7284
283.7000, 423.5584
284.1821, 438.4330
284.6642, 453.8428
285.1464, 469.6021
285.6285, 486.4712
286.1106, 505.8516
286.5927, 527.7444
287.0748, 550.6097
287.5569, 574.2243
288.0391, 598.4931
288.5212, 622.3216
289.0033, 646.0424
289.4854, 668.4040
289.9675, 688.2051
290.4496, 705.4806
290.9318, 719.7722
291.4139, 731.2644
291.8960, 739.7861
292.3781, 744.6397
292.8602, 745.8725
293.3423, 743.4973
293.8245, 737.8871
294.3066, 728.8328
294.7887, 715.1172
295.2708, 695.5616
295.7529, 671.7445
296.2350, 645.6666
296.7172, 617.4672
297.1993, 590.4175
297.6814, 566.7557
298.1635, 546.1008
298.6456, 527.7626
299.1277, 511.2960
299.6099, 497.0159
300.0920, 486.5490
300.5741, 479.4102
301.0562, 473.2459
301.5383, 466.8354
302.0204, 460.0912
302.5026, 452.8958
302.9847, 445.0258
303.4668, 436.9773
303.9489, 428.9519
304.4310, 421.1398
304.9131, 413.6528
305.3953, 405.7089
305.8774, 398.5116
306.3595, 393.8161
306.8416, 392.0093
307.3237, 392.0848
307.8058, 393.5347
308.2880, 396.2348
308.7701, 399.8952
309.2522, 404.2923
309.7343, 409.6690
310.2164, 416.7061
310.6985, 425.7234
311.1807, 434.4506
311.6628, 442.2455
312.1449, 448.6818
312.6270, 452.8775
313.1091, 455.0338
313.5912, 454.5360
314.0734, 450.4696
314.5555, 442.8399
315.0376, 433.8535
315.5197, 424.4896
316.0018, 414.3502
316.4839, 403.2689
316.9661, 388.6195
317.4482, 375.2680
317.9303, 365.4576
318.4124, 358.9249
318.8945, 353.6732
319.3766, 348.5298
319.8588, 344.6774
320.3409, 343.0615
320.8230, 344.8285
321.3051, 347.5465
321.7872, 350.4484
322.2693, 353.7802
322.7515, 358.2962
323.2336, 365.0634
323.7157, 372.3876
324.1978, 379.6226
324.6799, 387.1406
325.1620, 393.5188
325.6442, 399.4975
326.1263, 404.1021
326.6084, 405.6035
327.0905, 402.2843
327.5726, 397.2642
328.0547, 391.3081
328.5369, 384.4085
329.0190, 376.8398
329.5011, 368.1211
329.9832, 359.0110
330.4653, 350.3288
330.9474, 340.8391
331.4296, 333.3240
331.9117, 328.6872
332.3938, 327.0861
332.8759, 325.5271
333.3580, 323.1715
333.8401, 321.6328
334.3223, 322.2498
334.8044, 325.6216
335.2865, 329.9820
335.7686, 335.2639
336.2507, 341.3985
336.7328, 347.6573
337.2150, 353.8493
337.6971, 360.5858
338.1792, 368.4272
338.6613, 377.5464
339.1434, 386.7189
339.6255, 395.7956
340.1077, 404.9322
340.5898, 414.9414
341.0719, 425.8673
341.5540, 436.7289
342.0361, 446.7228
342.5182, 455.8379
343.0004, 465.8865
343.4825, 477.1219
343.9646, 488.5226
344.4467, 498.3737
344.9288, 506.5536
345.4109, 514.5910
345.8931, 523.0520
346.3752, 531.7732
346.8573, 539.7648
347.3394, 547.0966
347.8215, 553.7123
348.3036, 559.5121
348.7858, 564.5428
349.2679, 568.9716
349.7500, 572.5540
350.2321, 575.8466
350.7142, 580.2980
351.1964, 585.6918
351.6785, 590.1303
352.1606, 592.3381
352.6427, 592.5409
353.1248, 591.2067
353.6069, 588.3727
354.0891, 584.1008
354.5712, 578.2186
355.0533, 570.9494
355.5354, 562.7703
356.0175, 552.8334
356.4996, 542.7902
356.9818, 534.2282
357.4639, 527.3202
357.9460, 521.5212
358.4281, 515.8620
358.9102, 511.1582
359.3923, 508.6991
359.8745, 509.8388
360.3566, 512.6926
360.8387, 516.1169
361.3208, 520.1375
361.8029, 525.3376
362.2850, 532.4897
362.7672, 540.6722
363.2493, 549.0906
363.7314, 556.5878
364.2135, 565.4938
364.6956, 576.5188
365.1777, 589.4816
365.6599, 603.7135
366.1420, 619.8745
366.6241, 636.7057
367.1062, 653.2412
367.5883, 668.5040
368.0704, 685.6962
368.5526, 705.8493
369.0347, 727.9120
369.5168, 750.5798
369.9989, 773.4252
370.4810, 797.2665
370.9631, 822.0131
371.4453, 847.3757
371.9274, 876.0002
372.4095, 908.6101
372.8916, 943.4886
373.3737, 979.3914
373.8558, 1015.935
374.3380, 1054.417
374.8201, 1095.354
375.3022, 1138.749
375.7843, 1183.341
376.2664, 1229.682
376.7485, 1277.047
377.2307, 1324.683
377.7128, 1372.522
378.1949, 1423.043
378.6770, 1476.670
379.1591, 1532.112
379.6412, 1586.454
380.1234, 1640.421
380.6055, 1691.270
381.0876, 1738.148
381.5697, 1780.912
382.0518, 1820.261
382.5339, 1856.077
383.0161, 1887.358
383.4982, 1912.479
383.9803, 1931.756
384.4624, 1945.472
384.9445, 1952.686
385.4266, 1955.314
385.9088, 1956.174
386.3909, 1955.287
386.8730, 1953.251
387.3551, 1949.822
387.8372, 1945.624
388.3193, 1941.440
388.8015, 1937.010
389.2836, 1933.800
389.7657, 1932.775
390.2478, 1934.005
390.7299, 1937.675
391.2120, 1944.124
391.6942, 1952.918
392.1763, 1964.818
392.6584, 1979.978
393.1405, 1993.793
393.6226, 2004.923
394.1047, 2013.028
394.5869, 2017.579
395.0690, 2020.575
395.5511, 2017.902
396.0332, 2009.264
396.5153, 1994.191
396.9974, 1970.196
397.4796, 1936.506
397.9617, 1893.834
398.4438, 1842.250
398.9259, 1779.512
399.4080, 1711.880
399.8901, 1636.370
400.3723, 1556.520
400.8544, 1479.851
401.3365, 1404.938
401.8186, 1334.267
402.3007, 1268.670
402.7828, 1208.363
403.2649, 1150.974
403.7470, 1095.365
404.2292, 1043.672
404.7113, 998.7849
405.1934, 961.8750
405.6755, 927.3780
406.1576, 894.8689
406.6397, 864.3492
407.1219, 836.3838
407.6040, 811.0223
408.0861, 787.9908
408.5682, 766.9615
409.0503, 748.2736
409.5324, 732.1897
410.0146, 719.0823
410.4967, 707.5587
410.9788, 695.2894
411.4609, 682.5934
411.9430, 671.5220
412.4251, 663.3082
412.9073, 657.1622
413.3894, 650.7891
413.8715, 644.1965
414.3536, 638.6158
414.8357, 635.1874
415.3178, 633.3816
415.8000, 632.3745
416.2821, 632.2895
416.7642, 632.3019
417.2463, 631.2009
417.7284, 629.5082
418.2105, 628.6406
418.6927, 629.8448
419.1748, 631.7912
419.6569, 633.8431
420.1390, 636.0764
420.6211, 637.1845
421.1032, 636.1174
421.5854, 633.8182
422.0675, 631.3207
422.5496, 629.1830
423.0317, 626.5794
423.5138, 623.4862
423.9959, 619.8280
424.4781, 614.9706
424.9602, 607.9456
425.4423, 600.4656
425.9244, 593.2516
426.4065, 586.3253
426.8886, 579.7257
427.3708, 573.2668
427.8529, 567.1533
428.3350, 561.7589
428.8171, 557.6580
429.2992, 553.1974
429.7813, 547.7938
430.2635, 541.5109
430.7456, 535.7369
431.2277, 530.6143
431.7098, 525.7742
432.1919, 520.7086
432.6740, 515.3157
433.1562, 511.1012
433.6383, 508.4781
434.1204, 506.7911
434.6025, 504.6488
435.0846, 502.0698
435.5667, 499.8869
436.0489, 498.6146
436.5310, 498.0610
437.0131, 497.5782
437.4952, 497.1315
437.9773, 497.0395
438.4594, 497.7179
438.9416, 498.9780
439.4237, 500.4197
439.9058, 501.9224
440.3879, 503.5710
440.8700, 505.5782
441.3521, 507.8526
441.8343, 510.0602
442.3164, 512.5737
442.7985, 514.6002
443.2806, 515.3381
443.7627, 514.4055
444.2448, 513.4056
444.7270, 513.5568
445.2091, 513.8139
445.6912, 512.9355
446.1733, 509.9945
446.6554, 506.5036
447.1375, 502.8640
447.6197, 499.0444
448.1018, 494.7356
448.5839, 488.4923
449.0660, 482.9771
449.5481, 479.5970
450.0302, 479.5581
450.5124, 479.1440
450.9945, 478.3807
451.4766, 477.2437
451.9587, 475.3933
452.4408, 472.0775
452.9229, 470.1676
453.4051, 470.5681
453.8872, 473.0959
454.3693, 476.1929
454.8514, 479.7578
455.3335, 484.4127
455.8156, 491.1075
456.2978, 499.6259
456.7799, 508.0128
457.2620, 515.9100
457.7441, 524.0251
458.2262, 533.3351
458.7083, 543.7859
459.1905, 555.5964
459.6726, 569.2214
460.1547, 583.9951
460.6368, 598.7410
461.1189, 613.6023
461.6010, 629.5191
462.0832, 647.9984
462.5653, 667.6464
463.0474, 686.6431
463.5295, 705.0178
464.0116, 722.3240
464.4937, 738.3926
464.9759, 753.2412
465.4580, 766.3790
465.9401, 778.0511
466.4222, 787.6984
466.9043, 794.6135
467.3864, 798.4769
467.8686, 801.8854
468.3507, 803.9431
468.8328, 806.3934
469.3149, 810.4652
469.7970, 816.4210
470.2791, 823.5128
470.7613, 831.6055
471.2434, 840.7747
471.7255, 851.2131
472.2076, 862.9164
472.6897, 875.9137
473.1718, 890.7888
473.6540, 907.4797
474.1361, 923.5342
474.6182, 938.6847
475.1003, 954.1818
475.5824, 971.7040
476.0645, 991.0840
476.5467, 1010.058
477.0288, 1028.527
477.5109, 1046.088
477.9930, 1061.609
478.4751, 1075.440
478.9572, 1089.230
479.4394, 1104.019
479.9215, 1119.300
480.4036, 1133.344
480.8857, 1146.056
481.3678, 1161.265
481.8499, 1182.862
482.3321, 1207.929
482.8142, 1232.859
483.2963, 1255.516
483.7784, 1279.725
484.2605, 1307.669
484.7426, 1338.184
485.2248, 1368.252
485.7069, 1396.179
486.1890, 1424.073
486.6711, 1452.709
487.1532, 1482.313
487.6353, 1511.984
488.1175, 1541.001
488.5996, 1570.048
489.0817, 1599.317
489.5638, 1627.497
490.0459, 1658.528
490.5280, 1693.500
491.0102, 1731.023
491.4923, 1768.084
491.9744, 1804.463
492.4565, 1842.819
492.9386, 1885.646
493.4207, 1932.422
493.9029, 1978.907
494.3850, 2025.706
494.8671, 2070.018
495.3492, 2110.145
495.8313, 2146.175
496.3134, 2179.423
496.7956, 2211.219
497.2777, 2237.813
497.7598, 2256.106
498.2419, 2265.848
498.7240, 2265.873
499.2061, 2256.407
499.6883, 2236.507
500.1704, 2204.836
500.6525, 2161.436
501.1346, 2109.604
501.6167, 2047.500
502.0988, 1978.821
502.5810, 1906.199
503.0631, 1827.449
503.5452, 1747.110
504.0273, 1664.685
504.5094, 1581.355
504.9915, 1501.365
505.4737, 1425.027
505.9558, 1351.653
506.4379, 1281.419
506.9200, 1214.359
507.4021, 1151.408
507.8842, 1091.772
508.3664, 1036.350
508.8485, 985.3665
509.3306, 938.8660
509.8127, 894.7782
510.2948, 853.0782
510.7769, 813.7483
511.2591, 777.4052
511.7412, 743.8914
512.2233, 713.4059
512.7054, 686.4734
513.1875, 661.8441
513.6696, 637.5042
514.1517, 613.6984
514.6339, 591.7587
515.1160, 573.1649
515.5981, 556.5167
516.0802, 540.4261
516.5623, 524.7769
517.0444, 509.3723
517.5266, 493.1941
518.0087, 477.5879
518.4908, 464.0210
518.9729, 454.3411
519.4550, 445.0001
519.9371, 435.1791
520.4193, 425.0974
520.9014, 416.0557
521.3835, 408.2596
521.8656, 401.1567
522.3477, 394.5772
522.8298, 388.5247
523.3120, 382.9304
523.7941, 377.9091
524.2762, 373.3324
524.7583, 369.0803
525.2404, 365.1281
525.7225, 361.8094
526.2047, 359.2257
526.6868, 357.1357
527.1689, 355.1896
527.6510, 353.3836
528.1331, 351.6570
528.6152, 349.9958
529.0974, 348.3754
529.5795, 346.5202
530.0616, 344.4875
530.5437, 343.0264
531.0258, 342.9610
531.5079, 343.5117
531.9901, 343.8104
532.4722, 343.3289
532.9543, 343.6302
533.4364, 346.2171
533.9185, 349.6716
534.4006, 352.1177
534.8828, 351.7682
535.3649, 351.9365
535.8470, 353.4102
536.3291, 355.9971
536.8112, 358.6066
537.2933, 361.3841
537.7755, 363.9498
538.2576, 366.1337
538.7397, 367.9610
539.2218, 369.3772
539.7039, 370.4357
540.1860, 370.8959
540.6682, 370.7687
541.1503, 369.9731
541.6324, 367.4240
542.1145, 362.7541
542.5966, 356.5389
543.0787, 349.2992
543.5609, 341.1955
544.0430, 332.8182
544.5251, 324.3869
545.0072, 315.8718
545.4893, 307.2194
545.9714, 298.4640
546.4536, 290.0341
546.9357, 281.7736
547.4178, 274.1681
547.8999, 267.7289
548.3820, 263.1526
548.8641, 258.3057
549.3463, 252.3001
549.8284, 245.9575
550.3105, 240.3416
550.7926, 235.6615
551.2747, 231.4295
551.7568, 227.5514
552.2390, 224.0269
552.7211, 220.7646
553.2032, 217.7329
553.6853, 215.0713
554.1674, 212.9626
554.6495, 211.3682
555.1317, 209.6019
555.6138, 207.6669
556.0959, 205.7965
556.5780, 204.2805
557.0601, 203.0183
557.5422, 201.7697
558.0244, 200.5403
558.5065, 199.1587
558.9886, 197.4401
559.4707, 195.4459
559.9528, 193.3423
560.4349, 190.5820
560.9171, 188.2632
561.3992, 187.3573
561.8813, 187.6208
562.3634, 187.3666
562.8455, 185.5552
563.3276, 183.6054
563.8098, 182.2360
564.2919, 181.6986
564.7740, 180.9378
565.2561, 179.7426
565.7382, 178.5310
566.2203, 177.8008
566.7025, 177.7875
567.1846, 177.1643
567.6667, 175.5075
568.1488, 173.4825
568.6309, 172.7169
569.1130, 173.1380
569.5952, 173.2249
570.0773, 172.1478
570.5594, 170.3957
571.0415, 168.6754
571.5236, 167.0113
572.0057, 165.6785
572.4879, 165.0606
572.9700, 164.7459
573.4521, 164.3067
573.9342, 163.6557
574.4163, 163.0202
574.8984, 162.4783
575.3806, 162.0164
575.8627, 161.6147
576.3448, 161.5274
576.8269, 161.1884
577.3090, 160.3770
577.7911, 159.2932
578.2733, 158.3666
578.7554, 157.6624
579.2375, 157.0195
579.7196, 156.4448
580.2017, 155.9053
580.6838, 155.0614
581.1660, 153.8485
581.6481, 152.7429
582.1302, 152.1955
582.6123, 152.0732
583.0944, 151.7979
583.5765, 151.3076
584.0587, 150.8589
584.5408, 150.9216
585.0229, 151.1666
585.5050, 151.0022
585.9871, 150.0308
586.4692, 148.9605
586.9514, 148.0701
587.4335, 147.3909
587.9156, 147.0088
588.3977, 147.3255
588.8798, 147.5701
589.3619, 147.4635
589.8441, 146.9966
590.3262, 146.4830
590.8083, 145.8374
591.2904, 145.2615
591.7725, 144.8930
592.2546, 144.7917
592.7368, 144.4928
593.2189, 143.9084
593.7010, 143.3529
594.1831, 143.3658
594.6652, 143.8296
595.1473, 143.7421
595.6295, 142.7452
596.1116, 141.5396
596.5937, 141.1505
597.0758, 141.3194
597.5579, 141.3604
598.0400, 140.8610
598.5222, 140.1972
599.0043, 139.5459
599.4864, 138.9335
599.9685, 138.4720
600.4506, 138.3024
600.9327, 138.2152
601.4149, 138.1548
601.8970, 138.1721
602.3791, 137.9343
602.8612, 137.1856
603.3433, 136.4341
603.8254, 136.1517
604.3076, 136.5605
604.7897, 136.4655
605.2718, 135.5688
605.7539, 134.5415
606.2360, 134.6854
606.7181, 135.8772
607.2003, 136.7128
607.6824, 136.6192
608.1645, 136.1255
608.6466, 136.0523
609.1287, 136.3092
609.6108, 136.5538
610.0930, 136.6839
610.5751, 136.6604
611.0572, 136.2113
611.5393, 135.3659
612.0214, 135.1188
612.5035, 136.3615
612.9857, 137.9069
613.4678, 139.0288
613.9499, 139.4066
614.4320, 139.9471
614.9141, 140.8888
615.3962, 141.7790
615.8784, 141.9926
616.3605, 141.2491
616.8426, 141.1579
617.3247, 142.0534
617.8068, 143.5487
618.2889, 144.9169
618.7711, 146.1803
619.2532, 147.4600
619.7353, 148.7620
620.2174, 150.1599
620.6995, 151.8985
621.1816, 153.8970
621.6638, 155.7012
622.1459, 156.7183
622.6280, 157.7398
623.1101, 159.5895
623.5922, 162.4490
624.0743, 164.5929
624.5565, 165.0545
625.0386, 164.9966
625.5207, 165.2801
626.0028, 166.6999
626.4849, 166.7373
626.9670, 164.8419
627.4492, 162.1556
627.9313, 160.3329
628.4134, 159.5664
628.8955, 157.7945
629.3776, 154.3705
629.8597, 150.1364
630.3419, 146.2230
630.8240, 142.7204
631.3061, 140.0597
631.7882, 139.1550
632.2703, 138.7298
632.7524, 137.1887
633.2346, 134.7942
633.7167, 132.8370
634.1988, 132.4660
634.6809, 132.3365
635.1630, 131.6820
635.6451, 130.3654
636.1273, 128.9695
636.6094, 127.2606
637.0915, 125.7587
637.5736, 124.8374
638.0557, 124.6596
638.5378, 124.5459
639.0200, 124.4788
639.5021, 124.4776
639.9842, 124.6649
640.4663, 125.0101
640.9484, 125.0536
641.4305, 124.5906
641.9127, 123.9716
642.3948, 123.6219
642.8769, 123.5138
643.3590, 123.5625
643.8411, 124.0552
644.3232, 124.4109
644.8054, 124.0567
645.2875, 123.1561
645.7696, 122.4930
646.2517, 122.3428
646.7338, 122.4547
647.2159, 122.8196
647.6981, 123.4724
648.1802, 123.9215
648.6623, 124.1658
649.1444, 124.2175
649.6265, 124.0536
650.1086, 123.6604
650.5908, 123.2167
651.0729, 122.6868
651.5550, 122.2758
652.0371, 122.2576
652.5192, 122.5499
653.0013, 122.9485
653.4835, 123.4896
653.9656, 123.9058
654.4477, 123.8237
654.9298, 123.4718
655.4119, 123.2298
655.8940, 123.2361
656.3762, 123.3781
656.8583, 123.7159
657.3404, 124.1723
657.8225, 124.4669
658.3046, 124.4136
658.7867, 124.4311
659.2689, 124.5536
659.7510, 124.8146
660.2331, 125.7605
660.7152, 127.5755
661.1973, 129.1016
661.6794, 129.3770
662.1616, 128.7456
662.6437, 128.4637
663.1258, 128.5723
663.6079, 128.8641
664.0900, 129.1601
664.5721, 129.5447
665.0543, 130.1452
665.5364, 131.0263
666.0185, 131.9746
666.5006, 133.1321
666.9827, 134.2058
667.4648, 134.8909
667.9470, 134.4802
668.4291, 134.5703
668.9112, 135.2940
669.3933, 136.5061
669.8754, 138.0271
670.3575, 139.9553
670.8397, 141.6788
671.3218, 142.9353
671.8039, 143.9991
672.2860, 145.5358
672.7681, 147.4785
673.2502, 149.5700
673.7324, 151.7439
674.2145, 153.9519
674.6966, 156.0463
675.1787, 158.0763
675.6608, 160.2875
676.1429, 162.8913
676.6251, 165.6016
677.1072, 168.1844
677.5893, 170.5392
678.0714, 173.4670
678.5535, 177.6066
679.0356, 181.6655
679.5178, 184.7610
679.9999, 186.7273
680.4820, 188.6991
680.9641, 190.6655
681.4462, 192.7986
681.9283, 195.5706
682.4105, 198.7584
682.8926, 201.4607
683.3747, 203.6187
683.8568, 204.9977
684.3389, 205.2946
684.8210, 204.7320
685.3032, 203.6614
685.7853, 202.2638
686.2674, 200.3164
686.7495, 197.3875
687.2316, 193.8670
687.7137, 190.6261
688.1959, 187.8646
688.6780, 185.1042
689.1601, 181.9583
689.6422, 178.7694
690.1243, 177.0205
690.6064, 176.8477
691.0886, 176.9306
691.5707, 176.5716
692.0528, 176.0444
692.5349, 175.8573
693.0170, 176.0553
693.4991, 176.9775
693.9813, 179.0865
694.4634, 181.8675
694.9455, 184.9557
695.4276, 188.2998
695.9097, 191.6712
696.3918, 194.3333
696.8740, 197.4853
697.3561, 202.0168
697.8382, 208.3147
698.3203, 214.6607
698.8024, 221.1109
699.2845, 227.5400
699.7667, 233.7141
700.2488, 239.6576
700.7309, 245.6187
701.2130, 251.5863
701.6951, 257.7199
702.1772, 264.6048
702.6594, 271.7938
703.1415, 278.2138
703.6236, 283.6195
704.1057, 288.1972
704.5878, 292.0146
705.0699, 295.0998
705.5521, 297.4962
706.0342, 299.6432
706.5163, 300.5559
706.9984, 300.1736
707.4805, 298.5002
707.9626, 295.3459
708.4448, 290.3671
708.9269, 285.0654
709.4090, 280.0833
709.8911, 273.8571
710.3732, 268.6444
710.8553, 260.9685
711.3374, 253.3723
711.8195, 246.3422
712.3016, 239.9799
712.7838, 234.7157
713.2659, 230.4442
713.7480, 226.0815
714.2301, 220.7169
714.7122, 215.4877
715.1943, 210.8340
715.6765, 206.7910
716.1586, 203.5376
716.6407, 201.5791
717.1228, 199.6668
717.6049, 196.8437
718.0870, 192.9381
718.5692, 190.1003
719.0513, 188.4339
719.5334, 187.2176
720.0155, 185.6325
720.4976, 184.0052
720.9797, 183.1432
721.4619, 183.2685
721.9440, 183.4936
722.4261, 183.1727
722.9082, 182.6191
723.3903, 182.1462
723.8724, 181.8559
724.3546, 181.6033
724.8367, 181.5342
725.3188, 181.3991
725.8009, 180.9673
726.2830, 180.3247
726.7651, 179.0662
727.2473, 177.0852
727.7294, 174.5239
728.2115, 171.2728
728.6936, 167.5030
729.1757, 164.3744
729.6578, 162.5110
730.1400, 161.0225
730.6221, 159.1088
731.1042, 156.8290
731.5863, 154.3447
732.0684, 151.4105
732.5505, 148.6106
733.0327, 146.0907
733.5148, 143.8651
733.9969, 142.0299
734.4790, 140.9351
734.9611, 139.5547
735.4432, 137.3979
735.9254, 134.7818
736.4075, 133.0444
736.8896, 132.1841
737.3717, 131.7403
737.8538, 131.7719
738.3359, 131.9092
738.8181, 131.4214
739.3002, 130.4300
739.7823, 129.6896
740.2644, 129.8193
740.7465, 130.1454
741.2286, 130.3088
741.7108, 130.2756
742.1929, 130.1216
742.6750, 129.6082
743.1571, 129.3021
743.6392, 129.6029
744.1213, 130.5493
744.6035, 130.8543
745.0856, 130.4148
745.5677, 130.0216
746.0498, 130.4587
746.5319, 131.3929
747.0140, 132.0026
747.4962, 132.2055
747.9783, 132.6869
748.4604, 134.2155
748.9425, 136.0644
749.4246, 137.5258
749.9067, 138.2493
750.3889, 139.3394
750.8710, 141.2805
751.3531, 143.3220
751.8352, 144.8325
752.3173, 145.5866
752.7994, 146.8865
753.2816, 148.8789
753.7637, 151.1845
754.2458, 153.5048
754.7279, 155.8154
755.2100, 158.0831
755.6921, 160.2359
756.1743, 162.5294
756.6564, 165.1925
757.1385, 168.0838
757.6206, 171.0428
758.1027, 174.4383
758.5848, 177.3256
759.0670, 179.4476
759.5491, 181.0809
760.0312, 182.4951
760.5133, 183.5622
760.9954, 184.9063
761.4775, 186.7022
761.9597, 188.6334
762.4418, 190.3510
762.9239, 191.8006
763.4060, 192.6702
763.8881, 192.7836
764.3702, 192.4377
764.8524, 191.6165
765.3345, 190.5742
765.8166, 189.7606
766.2987, 189.6042
766.7808, 189.3329
767.2629, 188.8627
767.7451, 188.1408
768.2272, 187.0233
768.7093, 185.5047
769.1914, 183.5944
769.6735, 181.1120
770.1556, 178.4675
770.6378, 176.6058
771.1199, 175.4213
771.6020, 174.3846
772.0841, 173.5133
772.5662, 172.4377
773.0483, 170.4981
773.5305, 168.0822
774.0126, 166.1824
774.4947, 165.2770
774.9768, 164.7829
775.4589, 164.8847
775.9410, 165.2706
776.4232, 164.7015
776.9053, 162.8035
777.3874, 161.2282
777.8695, 160.5131
778.3516, 160.5076
778.8337, 160.8777
779.3159, 161.6075
779.7980, 162.6093
780.2801, 164.1458
780.7622, 165.6778
781.2443, 166.3987
781.7264, 166.6100
782.2086, 167.5556
782.6907, 170.5345
783.1728, 173.3286
783.6549, 175.1363
784.1370, 176.1077
784.6191, 177.2979
785.1013, 178.8755
785.5834, 179.8813
786.0655, 179.5490
786.5476, 178.4544
787.0297, 178.5076
787.5118, 179.5092
787.9940, 180.1275
788.4761, 179.6499
788.9582, 178.4320
789.4403, 176.5512
789.9224, 174.0803
790.4045, 171.6114
790.8867, 169.6599
791.3688, 167.2424
791.8509, 163.8345
792.3330, 159.5527
792.8151, 156.1718
793.2972, 153.7328
793.7794, 151.7759
794.2615, 150.2721
794.7436, 148.9707
795.2257, 147.1016
795.7078, 144.7679
796.1899, 142.7551
796.6721, 141.7649
797.1542, 141.0299
797.6363, 140.1480
798.1184, 139.0798
798.6005, 137.6937
799.0826, 135.7760
799.5648, 133.8154
800.0469, 131.8991
800.5290, 130.0696
801.0111, 128.7743
801.4932, 128.0477
801.9753, 127.4585
802.4575, 126.7044
802.9396, 125.9255
803.4217, 125.4390
803.9038, 125.1930
804.3859, 124.8179
804.8680, 123.9407
805.3502, 123.0392
805.8323, 122.3191
806.3144, 121.8081
806.7965, 121.5468
807.2786, 121.7350
807.7607, 121.7897
808.2429, 121.3962
808.7250, 120.6422
809.2071, 120.0223
809.6892, 119.5388
810.1713, 119.2425
810.6534, 119.3534
811.1356, 119.5531
811.6177, 119.5106
812.0998, 119.2279
812.5819, 118.8011
813.0640, 117.8750
813.5461, 117.2063
814.0283, 117.3882
814.5104, 118.2996
814.9925, 118.2560
815.4746, 116.9028
815.9567, 115.7910
816.4388, 115.7388
816.9210, 116.4687
817.4031, 117.3187
817.8852, 118.2206
818.3673, 118.6757
818.8494, 117.9302
819.3315, 116.9924
819.8137, 116.6428
820.2958, 116.8317
820.7779, 116.9937
821.2600, 117.1242
821.7421, 117.0635
822.2242, 116.6606
822.7064, 116.0148
823.1885, 115.7873
823.6706, 116.0146
824.1527, 116.1976
824.6348, 115.9487
825.1169, 115.5901
825.5991, 115.7288
826.0812, 116.2655
826.5633, 116.8210
827.0454, 117.5356
827.5275, 117.9081
828.0096, 117.4961
828.4918, 116.4528
828.9739, 115.7306
829.4560, 115.4292
829.9381, 115.2606
830.4202, 115.1589
830.9023, 115.1158
831.3845, 115.0856
831.8666, 115.0792
832.3487, 115.1826
832.8308, 115.5516
833.3129, 115.9404
833.7950, 116.2689
834.2772, 116.4348
834.7593, 116.1752
835.2414, 114.6383
835.7235, 113.6006
836.2056, 113.5828
836.6877, 114.2671
837.1699, 115.0079
837.6520, 115.9012
838.1341, 115.9674
838.6162, 114.5666
839.0983, 112.7665
839.5804, 112.5410
840.0626, 113.4096
840.5447, 114.1159
841.0268, 114.0215
841.5089, 113.7996
841.9910, 113.7903
842.4731, 113.8658
842.9553, 113.7580
843.4374, 113.2232
843.9195, 113.0494
844.4016, 113.5678
844.8837, 114.1803
845.3658, 113.5500
845.8480, 111.9329
846.3301, 110.9541
846.8122, 111.1447
847.2943, 111.7482
847.7764, 112.2192
848.2585, 112.5857
848.7407, 112.8848
849.2228, 113.2465
849.7049, 113.3417
850.1870, 112.8038
850.6691, 112.2472
851.1512, 112.5032
851.6334, 113.7502
852.1155, 114.2456
852.5976, 113.6836
853.0797, 112.8495
853.5618, 112.6348
854.0439, 112.7819
854.5261, 112.8128
855.0082, 112.5925
855.4903, 112.4344
855.9724, 112.7293
856.4545, 112.9912
856.9366, 112.7254
857.4188, 111.6105
857.9009, 111.0468
858.3830, 111.1702
858.8651, 111.5201
859.3472, 111.8066
859.8293, 111.9934
860.3115, 111.8360
860.7936, 111.3196
861.2757, 110.9206
861.7578, 111.1899
862.2399, 111.5760
862.7220, 111.5640
863.2042, 111.0328
863.6863, 110.7473
864.1684, 110.9570
864.6505, 111.1318
865.1326, 110.9102
865.6147, 110.3553
866.0969, 110.4441
866.5790, 111.1755
867.0611, 111.7375
867.5432, 111.2840
868.0253, 110.5750
868.5074, 110.6808
868.9896, 111.4374
869.4717, 111.7647
869.9538, 110.8122
870.4359, 109.8679
870.9180, 109.2530
871.4001, 109.0038
871.8823, 109.4418
872.3644, 110.6835
872.8465, 111.7559
873.3286, 112.3585
873.8107, 112.5055
874.2928, 111.9700
874.7750, 110.9864
875.2571, 110.2318
875.7392, 110.0075
876.2213, 110.0413
876.7034, 110.4213
877.1855, 110.9446
877.6677, 111.1759
878.1498, 111.0275
878.6319, 110.8088
879.1140, 110.5111
879.5961, 110.2778
880.0782, 110.4203
880.5604, 110.8291
881.0425, 111.1622
881.5246, 111.3566
882.0067, 111.3799
882.4888, 110.9490
882.9709, 110.4587
883.4531, 110.3780
883.9352, 111.1878
884.4173, 111.6586
884.8994, 111.7370
885.3815, 111.5617
885.8636, 111.1658
886.3458, 110.6001
886.8279, 110.2534
887.3100, 110.1658
887.7921, 110.1905
888.2742, 110.1448
888.7563, 110.1929
889.2385, 110.6239
889.7206, 111.5709
890.2027, 112.0068
890.6848, 111.2918
891.1669, 110.7026
891.6490, 110.9963
892.1312, 112.0771
892.6133, 112.5989
893.0954, 112.5582
893.5775, 112.1705
894.0596, 111.1722
894.5417, 110.1781
895.0239, 109.9415
895.5060, 110.3499
895.9881, 110.7820
896.4702, 111.1802
896.9523, 111.3966
897.4344, 111.3257
897.9166, 111.0683
898.3987, 110.9840
898.8808, 111.0840
899.3629, 111.1446
899.8450, 111.0451
900.3271, 110.9544
900.8093, 111.2540
901.2914, 111.7218
901.7735, 111.9050
902.2556, 111.4511
902.7377, 110.9476
903.2198, 110.4311
903.7020, 110.0150
904.1841, 109.8213
904.6662, 109.8469
905.1483, 110.2127
905.6304, 111.0429
906.1125, 111.7903
906.5947, 111.5150
907.0768, 110.8145
907.5589, 110.9204
908.0410, 112.1797
908.5231, 113.1569
909.0052, 112.9747
909.4874, 112.4302
909.9695, 112.0355
910.4516, 111.7893
910.9337, 111.8226
911.4158, 112.2111
911.8979, 112.5480
912.3801, 112.3893
912.8622, 112.0347
913.3443, 112.2499
913.8264, 112.9442
914.3085, 113.5118
914.7906, 113.7184
915.2728, 113.6445
915.7549, 113.0936
916.2370, 112.2580
916.7191, 111.9396
917.2012, 112.2348
917.6833, 112.7290
918.1655, 113.3927
918.6476, 114.0541
919.1297, 114.3113
919.6118, 114.2932
920.0939, 114.3650
920.5760, 114.8040
921.0582, 115.1333
921.5403, 114.7975
922.0224, 114.3752
922.5045, 114.6744
922.9866, 115.9945
923.4688, 117.2861
923.9509, 118.6366
924.4330, 119.5301
924.9151, 118.9335
925.3972, 117.4897
925.8793, 116.7516
926.3615, 116.9323
926.8436, 117.4377
927.3257, 118.1636
927.8078, 118.9073
928.2899, 119.4805
928.7720, 119.8639
929.2542, 120.4295
929.7363, 121.2285
930.2184, 122.0518
930.7005, 122.7933
931.1826, 123.4878
931.6647, 124.2923
932.1469, 125.1438
932.6290, 125.7687
933.1111, 125.6574
933.5932, 125.6835
934.0753, 126.5113
934.5574, 127.7731
935.0396, 128.3065
935.5217, 127.6470
936.0038, 127.8583
936.4859, 129.5065
936.9680, 131.7655
937.4501, 133.5479
937.9323, 134.9223
938.4144, 135.8777
938.8965, 136.1600
939.3786, 136.9060
939.8607, 139.0256
940.3428, 141.6374
940.8250, 143.8840
941.3071, 145.5353
941.7892, 147.6303
942.2713, 150.1102
942.7534, 153.2316
943.2355, 157.4709
943.7177, 162.4301
944.1998, 167.3240
944.6819, 172.1681
945.1640, 177.5533
945.6461, 183.3362
946.1282, 190.1160
946.6104, 198.5481
947.0925, 208.2279
947.5746, 217.6962
948.0567, 226.7919
948.5388, 236.6041
949.0209, 247.4276
949.5031, 259.2203
949.9852, 271.7528
950.4673, 285.2823
950.9494, 300.0818
951.4315, 315.8674
951.9136, 333.7563
952.3958, 353.7312
952.8779, 376.3205
953.3600, 402.1410
953.8421, 431.3107
954.3242, 462.6516
954.8063, 495.6203
955.2885, 532.4178
955.7706, 575.7902
956.2527, 623.7330
956.7348, 674.0228
957.2169, 726.4142
957.6990, 780.0333
958.1811, 838.6788
958.6632, 894.2702
959.1453, 947.1034
959.6274, 995.1473
960.1096, 1028.979
960.5917, 1048.610
961.0738, 1051.022
961.5559, 1034.121
962.0380, 1000.776
962.5201, 947.7565
963.0023, 881.9244
963.4844, 814.9027
963.9665, 743.9858
964.4486, 680.3995
964.9307, 624.0050
965.4128, 575.2570
965.8950, 535.8541
966.3771, 505.5229
966.8592, 480.9061
967.3413, 462.0797
967.8234, 446.0080
968.3055, 432.3939
968.7877, 419.0800
969.2698, 404.2791
969.7519, 387.7258
970.2340, 370.8947
970.7161, 353.3247
971.1982, 336.3047
971.6804, 319.9037
972.1625, 304.5433
972.6446, 290.7912
973.1267, 278.8107
973.6088, 269.0789
974.0909, 262.6050
974.5731, 257.5019
975.0552, 253.5527
975.5373, 249.9991
976.0194, 245.5009
976.5015, 240.0198
976.9836, 233.6256
977.4658, 226.3251
977.9479, 218.3534
978.4300, 209.8934
978.9121, 201.1466
979.3942, 192.0404
979.8763, 182.5751
980.3585, 174.3740
980.8406, 168.6632
981.3227, 164.2360
981.8048, 160.5020
982.2869, 157.4322
982.7690, 154.8002
983.2512, 152.6194
983.7333, 150.7415
984.2154, 149.1043
984.6975, 147.7343
985.1796, 146.5830
985.6617, 145.7124
986.1439, 145.2719
986.6260, 145.6711
987.1081, 146.0040
987.5902, 145.8210
988.0723, 145.8467
988.5544, 147.0015
989.0366, 149.2419
989.5187, 151.5414
990.0008, 153.8289
990.4829, 156.1369
990.9650, 158.2156
991.4471, 160.5601
991.9293, 163.6920
992.4114, 167.6342
992.8935, 171.7206
993.3756, 175.6793
993.8577, 180.1850
994.3398, 185.3454
994.8220, 191.2578
995.3041, 197.9944
995.7862, 205.6176
996.2683, 214.6245
996.7504, 225.2473
997.2325, 237.0239
997.7147, 249.7289
998.1968, 263.4614
998.6789, 278.5750
999.1610, 295.5946
999.6431, 312.3485
1000.125, 328.6041
1000.607, 344.1587
1001.089, 360.2667
1001.572, 374.5733
1002.054, 383.4301
1002.536, 386.5862
1003.018, 384.8690
1003.500, 377.2717
1003.982, 365.9344
1004.464, 351.0441
1004.946, 333.4214
1005.429, 315.2669
1005.911, 296.5484
1006.393, 280.0552
1006.875, 266.4339
1007.357, 255.2186
1007.839, 245.9713
1008.321, 238.4903
1008.803, 232.3638
1009.285, 227.5629
1009.768, 224.5012
1010.250, 223.4677
1010.732, 223.5187
1011.214, 223.9361
1011.696, 224.8649
1012.178, 226.6964
1012.660, 229.4693
1013.142, 233.4980
1013.625, 239.3275
1014.107, 246.0643
1014.589, 253.1403
1015.071, 260.8315
1015.553, 269.5695
1016.035, 279.3868
1016.517, 290.0576
1016.999, 301.4935
1017.481, 313.8297
1017.964, 327.5845
1018.446, 341.9820
1018.928, 356.2210
1019.410, 370.2148
1019.892, 383.7012
1020.374, 396.8795
1020.856, 409.3047
1021.338, 421.2408
1021.820, 432.2720
1022.303, 440.3397
1022.785, 445.3260
1023.267, 446.0631
1023.749, 442.3585
1024.231, 433.7491
1024.713, 418.5288
1025.195, 398.5469
1025.677, 376.7223
1026.160, 352.6682
1026.642, 329.0905
1027.124, 305.8803
1027.606, 284.1186
1028.088, 264.8803
1028.570, 247.9630
1029.052, 232.7394
1029.534, 219.2561
1030.016, 206.9999
1030.499, 195.7314
1030.981, 185.8230
1031.463, 177.3260
1031.945, 170.1229
1032.427, 163.9322
1032.909, 158.7728
1033.391, 154.1292
1033.873, 149.8936
1034.356, 146.1175
1034.838, 143.1119
1035.320, 140.4066
1035.802, 137.4358
1036.284, 133.8314
1036.766, 130.7065
1037.248, 128.0308
1037.730, 125.9387
1038.213, 124.7700
1038.695, 124.2096
1039.177, 123.7630
1039.659, 123.2878
1040.141, 122.2155
1040.623, 119.2645
1041.105, 116.9225
1041.587, 116.3010
1042.069, 116.5052
1042.552, 116.2029
1043.034, 115.3868
1043.516, 114.5975
1043.998, 113.8992
1044.480, 113.1941
1044.962, 112.3015
1045.444, 111.3979
1045.926, 110.5732
1046.408, 109.8325
1046.891, 109.6213
1047.373, 110.3239
1047.855, 110.5233
1048.337, 109.3711
1048.819, 107.8051
1049.301, 108.1368
1049.783, 109.6371
1050.265, 110.4914
1050.748, 109.8366
1051.230, 108.9542
1051.712, 107.9063
1052.194, 107.1167
1052.676, 106.9903
1053.158, 107.5649
1053.640, 108.0281
1054.122, 108.3758
1054.604, 108.4402
1055.087, 107.8347
1055.569, 107.1359
1056.051, 106.6311
1056.533, 106.4193
1057.015, 106.8521
1057.497, 108.3751
1057.979, 109.3786
1058.461, 109.6345
1058.943, 109.3214
1059.426, 108.3187
1059.908, 107.0316
1060.390, 106.2030
1060.872, 105.9429
1061.354, 106.0097
1061.836, 106.6916
1062.318, 107.2581
1062.800, 107.3348
1063.283, 107.0881
1063.765, 107.2926
1064.247, 107.8833
1064.729, 108.2466
1065.211, 107.9797
1065.693, 107.8198
1066.175, 108.6271
1066.657, 109.6803
1067.140, 110.1215
1067.622, 109.8177
1068.104, 109.2857
1068.586, 108.4507
1069.068, 107.8003
1069.550, 107.7237
1070.032, 108.0281
1070.514, 108.5600
1070.996, 109.2217
1071.479, 109.7225
1071.961, 109.5268
1072.443, 109.8404
1072.925, 111.0829
1073.407, 112.5305
1073.889, 113.1351
1074.371, 113.0952
1074.853, 113.2246
1075.335, 113.6110
1075.818, 114.2408
1076.300, 115.3442
1076.782, 116.4558
1077.264, 117.2841
1077.746, 117.8904
1078.228, 118.4556
1078.710, 118.9744
1079.192, 119.5805
1079.675, 120.3222
1080.157, 121.1247
1080.639, 121.8338
1081.121, 122.6075
1081.603, 123.7128
1082.085, 125.4575
1082.567, 126.5382
1083.049, 126.7284
1083.531, 126.8661
1084.014, 127.5648
1084.496, 128.4652
1084.978, 128.7496
1085.460, 128.5301
1085.942, 128.1326
1086.424, 127.2734
1086.906, 126.8305
1087.388, 127.3177
1087.870, 127.8954
1088.353, 127.5964
1088.835, 126.5197
1089.317, 125.6644
1089.799, 125.0746
1090.281, 124.7051
1090.763, 124.7044
1091.245, 124.7387
1091.727, 124.5415
1092.209, 124.2227
1092.692, 124.0833
1093.174, 124.1101
1093.656, 124.4093
1094.138, 125.0161
1094.620, 125.8207
1095.102, 126.6667
1095.584, 127.6672
1096.066, 129.1046
1096.549, 131.0538
1097.031, 132.3907
1097.513, 132.6777
1097.995, 133.2853
1098.477, 134.7765
1098.959, 136.8242
1099.441, 138.8234
1099.923, 140.8274
1100.406, 143.0634
1100.888, 145.7148
1101.370, 148.3173
1101.852, 150.7449
1102.334, 153.0726
1102.816, 155.4670
1103.298, 157.8250
1103.780, 159.3366
1104.262, 160.0839
1104.745, 160.7026
1105.227, 161.7364
1105.709, 162.5119
1106.191, 162.9897
1106.673, 162.8136
1107.155, 161.4108
1107.637, 158.6022
1108.119, 156.0358
1108.601, 153.7978
1109.084, 151.5191
1109.566, 148.6348
1110.048, 145.7487
1110.530, 143.5260
1111.012, 140.9907
1111.494, 138.5918
1111.976, 136.7757
1112.458, 134.8368
1112.941, 132.8907
1113.423, 131.8422
1113.905, 130.7730
1114.387, 129.8452
1114.869, 129.4101
1115.351, 129.5303
1115.833, 129.5396
1116.315, 129.0492
1116.797, 128.8523
1117.280, 129.3328
1117.762, 130.1477
1118.244, 130.3026
1118.726, 130.0910
1119.208, 130.4239
1119.690, 131.7192
1120.172, 133.0725
1120.654, 134.0164
1121.136, 134.9876
1121.619, 136.1970
1122.101, 137.6538
1122.583, 139.4782
1123.065, 141.6552
1123.547, 144.0612
1124.029, 146.6854
1124.511, 149.4511
1124.993, 152.7427
1125.476, 155.8981
1125.958, 157.9253
1126.440, 158.4648
1126.922, 160.1496
1127.404, 163.0867
1127.886, 165.9144
1128.368, 167.9141
1128.850, 169.1001
1129.333, 169.1504
1129.815, 168.3993
1130.297, 167.8966
1130.779, 168.1082
1131.261, 167.4407
1131.743, 165.6978
1132.225, 163.2120
1132.707, 159.9607
1133.189, 156.4144
1133.672, 153.0017
1134.154, 149.7978
1134.636, 147.1333
1135.118, 145.5936
1135.600, 143.6077
1136.082, 140.5952
1136.564, 137.4346
1137.046, 135.6973
1137.528, 134.8481
1138.011, 133.6339
1138.493, 131.8046
1138.975, 130.0711
1139.457, 128.5285
1139.939, 127.3789
1140.421, 126.7820
1140.903, 126.5864
1141.385, 126.2658
1141.868, 125.9111
1142.350, 125.8983
1142.832, 126.4095
1143.314, 127.0531
1143.796, 127.4195
1144.278, 128.0766
1144.760, 129.5988
1145.242, 131.8486
1145.724, 132.7913
1146.207, 132.5928
1146.689, 132.9016
1147.171, 134.8498
1147.653, 136.9662
1148.135, 138.1936
1148.617, 139.0766
1149.099, 140.1929
1149.581, 141.4897
1150.063, 143.5117
1150.546, 146.2687
1151.028, 149.0709
1151.510, 151.2426
1151.992, 153.3908
1152.474, 155.9597
1152.956, 158.8952
1153.438, 162.0540
1153.920, 165.5252
1154.403, 168.7800
1154.885, 171.7409
1155.367, 174.7419
1155.849, 178.1555
1156.331, 181.6217
1156.813, 184.7453
1157.295, 187.5419
1157.777, 190.1667
1158.260, 192.7249
1158.742, 194.9879
1159.224, 196.9540
1159.706, 198.4416
1160.188, 199.0212
1160.670, 199.0889
1161.152, 199.3729
1161.634, 199.8742
1162.116, 199.5576
1162.599, 198.1390
1163.081, 196.0919
1163.563, 193.3389
1164.045, 190.3558
1164.527, 187.8644
1165.009, 185.7260
1165.491, 183.7852
1165.973, 182.0733
1166.455, 179.6790
1166.938, 175.7658
1167.420, 172.0212
1167.902, 168.9873
1168.384, 166.4391
1168.866, 164.0182
1169.348, 161.6389
1169.830, 159.0373
1170.312, 156.0792
1170.795, 153.1096
1171.277, 150.2097
1171.759, 147.3948
1172.241, 144.5822
1172.723, 141.9145
1173.205, 139.9845
1173.687, 138.6331
1174.169, 137.1487
1174.651, 135.2507
1175.134, 133.2648
1175.616, 130.9267
1176.098, 128.9279
1176.580, 127.9185
1177.062, 127.6941
1177.544, 126.3124
1178.026, 124.0462
1178.508, 122.3890
1178.990, 122.6883
1179.473, 122.9167
1179.955, 122.0509
1180.437, 120.8105
1180.919, 119.8651
1181.401, 119.2148
1181.883, 118.0044
1182.365, 116.2977
1182.847, 114.8921
1183.330, 114.2983
1183.812, 114.0753
1184.294, 114.5594
1184.776, 114.9483
1185.258, 114.0641
1185.740, 111.8685
1186.222, 110.3645
1186.704, 109.6243
1187.187, 109.0752
1187.669, 108.2478
1188.151, 107.5615
1188.633, 107.4895
1189.115, 107.6535
1189.597, 107.3355
1190.079, 106.5046
1190.561, 105.8806
1191.043, 105.5222
1191.526, 105.3550
1192.008, 105.5921
1192.490, 105.7375
1192.972, 105.3518
1193.454, 104.6106
1193.936, 103.9786
1194.418, 103.4595
1194.900, 103.0274
1195.382, 102.6996
1195.865, 102.2678
1196.347, 101.4549
1196.829, 100.5602
1197.311, 99.64246
1197.793, 98.83861
1198.275, 98.79564
1198.757, 99.60740
1199.239, 99.85505
1199.722, 99.18632
1200.204, 98.35877
1200.686, 97.94195
1201.168, 97.74699
1201.650, 97.74471
1202.132, 97.85307
1202.614, 97.53719
1203.096, 96.75615
1203.578, 96.17290
1204.061, 95.97969
1204.543, 95.95856
1205.025, 96.06778
1205.507, 96.12972
1205.989, 95.82399
1206.471, 95.19997
1206.953, 95.33205
1207.435, 96.29868
1207.917, 96.60352
1208.400, 95.50905
1208.882, 94.39358
1209.364, 94.80173
1209.846, 95.73560
1210.328, 96.27507
1210.810, 96.39439
1211.292, 95.74240
1211.774, 94.25389
1212.257, 93.15548
1212.739, 93.05483
1213.221, 93.16235
1213.703, 92.72622
1214.185, 92.09709
1214.667, 91.61317
1215.149, 91.27436
1215.631, 91.31646
1216.114, 91.75489
1216.596, 92.08403
1217.078, 92.08113
1217.560, 91.87424
1218.042, 91.26199
1218.524, 90.70657
1219.006, 90.88870
1219.488, 91.91634
1219.970, 92.03800
1220.453, 91.23009
1220.935, 90.49479
1221.417, 90.40314
1221.899, 90.47923
1222.381, 90.45254
1222.863, 90.31055
1223.345, 89.98930
1223.827, 89.44070
1224.309, 89.26450
1224.792, 89.46040
1225.274, 89.79521
1225.756, 90.45006
1226.238, 90.81225
1226.720, 90.07323
1227.202, 89.02100
1227.684, 88.71396
1228.166, 89.28186
1228.649, 89.15035
1229.131, 88.36369
1229.613, 87.91648
1230.095, 89.06263
1230.577, 89.99191
1231.059, 89.16978
1231.541, 87.77524
1232.023, 87.21679
1232.505, 87.52499
1232.988, 88.31810
1233.470, 89.53667
1233.952, 90.39828
1234.434, 90.38961
1234.916, 89.94205
1235.398, 88.82616
1235.880, 87.71207
1236.362, 87.46262
1236.844, 88.04825
1237.327, 88.10339
1237.809, 87.65376
1238.291, 87.28392
1238.773, 87.31076
1239.255, 87.53617
1239.737, 88.06203
1240.219, 88.59360
1240.701, 88.79848
1241.184, 88.71182
1241.666, 88.67338
1242.148, 88.67693
1242.630, 88.57317
1243.112, 88.09355
1243.594, 87.74198
1244.076, 87.75443
1244.558, 87.87120
1245.041, 87.81295
1245.523, 87.60780
1246.005, 87.37461
1246.487, 87.12041
1246.969, 86.83450
1247.451, 86.14754
1247.933, 85.98137
1248.415, 86.72315
1248.897, 87.70300
1249.380, 88.30226
1249.862, 88.49368
1250.344, 87.96440
1250.826, 86.85640
1251.308, 85.97060
1251.790, 85.74935
1252.272, 85.63905
1252.754, 85.58383
1253.236, 85.54857
1253.719, 85.39231
1254.201, 85.27229
1254.683, 85.64706
1255.165, 86.40244
1255.647, 86.90379
1256.129, 86.85697
1256.611, 86.74573
1257.093, 86.64608
1257.576, 86.40927
1258.058, 85.70273
1258.540, 84.87163
1259.022, 84.32727
1259.504, 84.11478
1259.986, 84.39954
1260.468, 85.53548
1260.950, 86.12469
1261.432, 85.93962
1261.915, 85.56870
1262.397, 85.62676
1262.879, 85.33292
1263.361, 85.54024
1263.843, 85.05411
1264.325, 84.81126
1264.807, 84.87203
1265.289, 84.99995
1265.771, 85.18172
1266.254, 85.31951
1266.736, 85.26189
1267.218, 85.18031
1267.700, 85.13563
1268.182, 85.20651
1268.664, 85.69839
1269.146, 86.69083
1269.628, 86.70730
1270.111, 85.58477
1270.593, 84.62131
1271.075, 85.08601
1271.557, 85.68482
1272.039, 85.51604
1272.521, 84.99707
1273.003, 84.72163
1273.485, 84.69063
1273.968, 85.04768
1274.450, 85.76845
1274.932, 86.14515
1275.414, 85.29054
1275.896, 84.59338
1276.378, 84.63006
1276.860, 84.99250
1277.342, 85.11465
1277.824, 85.07932
1278.307, 85.31039
1278.789, 85.78072
1279.271, 86.01546
1279.753, 85.40853
1280.235, 85.15834
1280.717, 85.69439
1281.199, 86.27512
1281.681, 85.76017
1282.163, 84.74740
1282.646, 84.63265
1283.128, 85.30225
1283.610, 85.66680
1284.092, 85.09543
1284.574, 84.93288
1285.056, 85.41444
1285.538, 85.98555
1286.020, 86.06217
1286.503, 85.91261
1286.985, 85.83545
1287.467, 85.84920
1287.949, 85.99012
1288.431, 86.36184
1288.913, 86.41617
1289.395, 86.07408
1289.877, 85.71507
1290.359, 85.58493
1290.842, 85.65432
1291.324, 86.16482
1291.806, 86.76905
1292.288, 86.64123
1292.770, 85.69067
1293.252, 85.22868
1293.734, 85.32964
1294.216, 85.54051
1294.698, 85.72034
1295.181, 85.74216
1295.663, 85.35020
1296.145, 84.89080
1296.627, 84.75542
1297.109, 84.91643
1297.591, 85.30546
1298.073, 85.84644
1298.555, 86.06657
1299.038, 85.06844
1299.520, 84.68674
1300.002, 85.48413
1300.484, 86.71219
1300.966, 87.90672
1301.448, 88.80554
1301.930, 88.34012
1302.412, 86.98557
1302.895, 86.47593
1303.377, 88.69296
1303.859, 89.48655
1304.341, 88.27809
1304.823, 86.85107
1305.305, 86.16746
##END=



