##NAMES=Billietite
##RRUFFID=R070624
##IDEAL CHEMISTRY=Ba(U^6+^O_2_)_6_O_4_(OH)_6_&#183;8H_2_O
##LOCALITY=Eureka mine, Castell Esta√≥, La Plana de Mont-ros, La Torre de Capdella, Lleida, Catalonia, Spain
##OWNER=RRUFF
##SOURCE=Joan Abella i Creus
##DESCRIPTION=Yellow platy crystals associated with green malachite and orange becquerelite
##STATUS=The identification of this mineral has been confirmed by single-crystal X-ray diffraction.
##URL=rruff.info/R070624
91.87140, 0.0000000E+00
92.35352, 1426.569
92.83563, 1321.645
93.31775, 1276.974
93.79987, 1310.365
94.28198, 1406.396
94.76410, 1522.148
95.24622, 1649.214
95.72833, 1791.043
96.21045, 1950.212
96.69257, 2127.181
97.17468, 2324.756
97.65680, 2542.540
98.13892, 2781.359
98.62103, 3043.561
99.10315, 3322.978
99.58527, 3622.937
100.0674, 3951.928
100.5495, 4305.867
101.0316, 4691.746
101.5137, 5108.813
101.9958, 5556.315
102.4780, 6047.134
102.9601, 6582.454
103.4422, 7162.508
103.9243, 7785.306
104.4064, 8467.471
104.8885, 9185.054
105.3707, 9916.979
105.8528, 10682.77
106.3349, 11426.65
106.8170, 12123.29
107.2991, 12769.92
107.7813, 13373.68
108.2634, 13915.33
108.7455, 14414.08
109.2276, 14914.70
109.7097, 15402.94
110.1918, 15908.30
110.6740, 16443.87
111.1561, 16987.74
111.6382, 17586.78
112.1203, 18242.79
112.6024, 18960.13
113.0845, 19729.10
113.5667, 20548.88
114.0488, 21415.99
114.5309, 22337.99
115.0130, 23345.76
115.4951, 24372.18
115.9772, 25412.11
116.4594, 26473.16
116.9415, 27519.12
117.4236, 28550.97
117.9057, 29557.57
118.3878, 30522.87
118.8699, 31457.05
119.3521, 32347.28
119.8342, 33198.76
120.3163, 34012.01
120.7984, 34781.46
121.2805, 35502.94
121.7626, 36178.38
122.2448, 36811.14
122.7269, 37389.20
123.2090, 37931.88
123.6911, 38452.89
124.1732, 38949.89
124.6553, 39440.98
125.1375, 39942.68
125.6196, 40452.28
126.1017, 40961.20
126.5838, 41442.00
127.0659, 41922.55
127.5480, 42456.41
128.0302, 43059.63
128.5123, 43708.00
128.9944, 44372.68
129.4765, 45053.95
129.9586, 45754.44
130.4407, 46478.45
130.9229, 47223.98
131.4050, 47991.57
131.8871, 48772.57
132.3692, 49563.34
132.8513, 50340.65
133.3334, 51023.98
133.8156, 51467.47
134.2977, 51739.77
134.7798, 52019.86
135.2619, 52270.20
135.7440, 52482.02
136.2261, 52659.12
136.7083, 52836.80
137.1904, 53024.47
137.6725, 53192.88
138.1546, 53307.41
138.6367, 53360.76
139.1188, 53412.21
139.6010, 53477.86
140.0831, 53557.68
140.5652, 53634.54
141.0473, 53707.52
141.5294, 53779.25
142.0115, 53851.80
142.4937, 53924.79
142.9758, 53997.21
143.4579, 54066.06
143.9400, 54125.73
144.4221, 54199.50
144.9042, 54289.36
145.3864, 54389.05
145.8685, 54485.55
146.3506, 54567.27
146.8327, 54660.09
147.3148, 54778.01
147.7969, 54946.00
148.2791, 55080.38
148.7612, 55162.68
149.2433, 55213.79
149.7254, 55282.97
150.2075, 55391.66
150.6896, 55500.82
151.1718, 55596.05
151.6539, 55673.18
152.1360, 55744.95
152.6181, 55807.94
153.1002, 55865.64
153.5823, 55927.87
154.0645, 55996.55
154.5466, 56069.05
155.0287, 56144.20
155.5108, 56242.65
155.9929, 56318.67
156.4750, 56355.53
156.9572, 56360.49
157.4393, 56363.45
157.9214, 56363.52
158.4035, 56367.20
158.8856, 56378.55
159.3677, 56399.04
159.8499, 56426.86
160.3320, 56462.17
160.8141, 56504.84
161.2962, 56553.59
161.7783, 56619.95
162.2604, 56687.08
162.7426, 56741.11
163.2247, 56763.36
163.7068, 56784.89
164.1889, 56818.54
164.6710, 56863.75
165.1531, 56915.24
165.6353, 56975.05
166.1174, 57037.67
166.5995, 57097.11
167.0816, 57148.12
167.5637, 57196.57
168.0458, 57246.82
168.5280, 57298.07
169.0101, 57346.21
169.4922, 57393.20
169.9743, 57433.76
170.4564, 57460.25
170.9385, 57449.28
171.4207, 57434.91
171.9028, 57451.76
172.3849, 57502.35
172.8670, 57556.84
173.3491, 57599.94
173.8312, 57631.00
174.3134, 57648.63
174.7955, 57639.61
175.2776, 57622.50
175.7597, 57621.37
176.2418, 57639.23
176.7239, 57660.36
177.2061, 57668.50
177.6882, 57668.41
178.1703, 57672.38
178.6524, 57693.84
179.1345, 57721.56
179.6166, 57734.06
180.0988, 57728.20
180.5809, 57718.04
181.0630, 57722.14
181.5451, 57736.61
182.0272, 57745.82
182.5093, 57728.80
182.9915, 57700.86
183.4736, 57703.52
183.9557, 57744.11
184.4378, 57797.42
184.9199, 57831.85
185.4020, 57848.43
185.8842, 57860.53
186.3663, 57874.50
186.8484, 57889.63
187.3305, 57904.48
187.8126, 57920.88
188.2947, 57932.98
188.7769, 57924.39
189.2590, 57896.65
189.7411, 57878.54
190.2232, 57894.38
190.7053, 57938.18
191.1874, 57969.88
191.6696, 57984.93
192.1517, 57990.62
192.6338, 57998.24
193.1159, 58007.84
193.5980, 58021.70
194.0801, 58045.31
194.5623, 58077.24
195.0444, 58098.92
195.5265, 58106.77
196.0086, 58105.14
196.4907, 58101.87
196.9728, 58096.30
197.4550, 58091.34
197.9371, 58086.99
198.4192, 58083.04
198.9013, 58087.39
199.3834, 58103.38
199.8655, 58125.04
200.3477, 58137.77
200.8298, 58140.27
201.3119, 58139.77
201.7940, 58140.20
202.2761, 58141.79
202.7582, 58144.91
203.2404, 58150.06
203.7225, 58157.31
204.2046, 58167.62
204.6867, 58182.89
205.1688, 58196.50
205.6509, 58202.99
206.1331, 58200.98
206.6152, 58203.33
207.0973, 58213.06
207.5794, 58227.05
208.0615, 58234.11
208.5436, 58230.93
209.0258, 58229.47
209.5079, 58238.26
209.9900, 58259.58
210.4721, 58278.41
210.9542, 58291.75
211.4363, 58301.67
211.9185, 58314.83
212.4006, 58329.09
212.8827, 58350.05
213.3648, 58382.79
213.8469, 58432.12
214.3290, 58475.66
214.8112, 58512.98
215.2933, 58542.30
215.7754, 58556.39
216.2575, 58546.70
216.7396, 58536.94
217.2217, 58542.57
217.7039, 58569.93
218.1860, 58594.03
218.6681, 58618.35
219.1502, 58637.54
219.6323, 58628.36
220.1144, 58579.63
220.5966, 58522.96
221.0787, 58476.35
221.5608, 58443.10
222.0429, 58412.79
222.5250, 58382.76
223.0071, 58356.45
223.4893, 58348.05
223.9714, 58366.68
224.4535, 58390.34
224.9356, 58408.00
225.4177, 58418.63
225.8998, 58426.25
226.3820, 58429.83
226.8641, 58430.63
227.3462, 58431.87
227.8283, 58429.30
228.3104, 58432.65
228.7925, 58446.87
229.2747, 58474.30
229.7568, 58507.02
230.2389, 58548.80
230.7210, 58594.63
231.2031, 58627.63
231.6852, 58643.71
232.1674, 58652.35
232.6495, 58656.34
233.1316, 58649.50
233.6137, 58651.88
234.0958, 58665.76
234.5779, 58688.88
235.0601, 58716.11
235.5422, 58755.45
236.0243, 58788.33
236.5064, 58804.46
236.9885, 58790.63
237.4706, 58789.73
237.9528, 58804.88
238.4349, 58832.24
238.9170, 58863.48
239.3991, 58904.38
239.8812, 58940.26
240.3633, 58963.76
240.8455, 58967.84
241.3276, 58977.03
241.8097, 58994.27
242.2918, 59015.44
242.7739, 59030.89
243.2560, 59035.98
243.7382, 59042.82
244.2203, 59057.74
244.7024, 59087.53
245.1845, 59106.38
245.6666, 59109.70
246.1487, 59104.50
246.6309, 59102.95
247.1130, 59100.75
247.5951, 59109.30
248.0772, 59135.98
248.5593, 59189.95
249.0414, 59227.58
249.5236, 59241.69
250.0057, 59243.31
250.4878, 59250.04
250.9699, 59260.38
251.4520, 59277.80
251.9341, 59304.71
252.4163, 59343.80
252.8984, 59379.50
253.3805, 59414.29
253.8626, 59443.83
254.3447, 59460.16
254.8268, 59458.27
255.3090, 59454.30
255.7911, 59453.39
256.2732, 59456.54
256.7553, 59455.32
257.2374, 59449.88
257.7195, 59440.07
258.2017, 59424.34
258.6838, 59397.74
259.1659, 59376.71
259.6480, 59366.32
260.1301, 59367.17
260.6122, 59368.63
261.0944, 59373.38
261.5765, 59375.76
262.0586, 59369.00
262.5407, 59350.45
263.0228, 59331.13
263.5049, 59311.93
263.9871, 59293.31
264.4692, 59285.47
264.9513, 59292.43
265.4334, 59304.16
265.9155, 59310.86
266.3976, 59309.82
266.8798, 59312.64
267.3619, 59322.57
267.8440, 59338.39
268.3261, 59349.32
268.8082, 59352.42
269.2903, 59356.37
269.7725, 59372.60
270.2546, 59407.50
270.7367, 59421.56
271.2188, 59401.41
271.7009, 59357.08
272.1830, 59330.38
272.6652, 59322.65
273.1473, 59328.71
273.6294, 59349.30
274.1115, 59387.82
274.5936, 59417.12
275.0757, 59429.70
275.5579, 59434.34
276.0400, 59461.32
276.5221, 59517.48
277.0042, 59566.32
277.4863, 59580.80
277.9684, 59557.55
278.4506, 59545.06
278.9327, 59550.92
279.4148, 59563.94
279.8969, 59558.36
280.3790, 59532.11
280.8611, 59504.96
281.3433, 59489.06
281.8254, 59484.57
282.3075, 59476.28
282.7896, 59465.13
283.2717, 59448.49
283.7538, 59418.55
284.2360, 59374.96
284.7181, 59334.37
285.2002, 59302.20
285.6823, 59278.68
286.1644, 59267.13
286.6465, 59268.67
287.1287, 59277.15
287.6108, 59285.80
288.0929, 59294.20
288.5750, 59302.63
289.0571, 59312.84
289.5392, 59322.82
290.0214, 59324.82
290.5035, 59318.62
290.9856, 59307.00
291.4677, 59293.85
291.9498, 59278.48
292.4319, 59256.01
292.9141, 59220.89
293.3962, 59180.36
293.8783, 59151.90
294.3604, 59136.20
294.8425, 59125.03
295.3246, 59113.62
295.8068, 59101.92
296.2889, 59088.25
296.7710, 59070.24
297.2531, 59053.19
297.7352, 59046.54
298.2173, 59049.63
298.6995, 59056.37
299.1816, 59056.68
299.6637, 59057.41
300.1458, 59077.33
300.6279, 59127.80
301.1100, 59178.95
301.5922, 59182.56
302.0743, 59149.24
302.5564, 59124.35
303.0385, 59144.90
303.5206, 59185.53
304.0027, 59210.04
304.4849, 59211.23
304.9670, 59203.02
305.4491, 59199.43
305.9312, 59196.99
306.4133, 59187.45
306.8954, 59166.27
307.3776, 59137.69
307.8597, 59105.96
308.3418, 59071.84
308.8239, 59036.68
309.3060, 58998.09
309.7881, 58960.50
310.2703, 58931.64
310.7524, 58922.12
311.2345, 58917.39
311.7166, 58903.55
312.1987, 58881.05
312.6808, 58868.00
313.1630, 58883.50
313.6451, 58909.68
314.1272, 58927.33
314.6093, 58920.40
315.0914, 58910.90
315.5735, 58905.92
316.0557, 58905.52
316.5378, 58912.25
317.0199, 58940.90
317.5020, 58968.92
317.9841, 58978.93
318.4662, 58953.22
318.9484, 58929.80
319.4305, 58928.75
319.9126, 58940.50
320.3947, 58939.60
320.8768, 58912.58
321.3589, 58876.09
321.8411, 58833.76
322.3232, 58774.32
322.8053, 58739.32
323.2874, 58757.00
323.7695, 58800.07
324.2516, 58825.35
324.7338, 58817.32
325.2159, 58798.27
325.6980, 58769.70
326.1801, 58725.83
326.6622, 58698.24
327.1443, 58700.48
327.6265, 58715.02
328.1086, 58724.36
328.5907, 58728.96
329.0728, 58728.04
329.5549, 58719.65
330.0370, 58703.88
330.5192, 58691.25
331.0013, 58685.93
331.4834, 58680.61
331.9655, 58670.64
332.4476, 58658.62
332.9297, 58636.54
333.4119, 58596.79
333.8940, 58545.36
334.3761, 58510.36
334.8582, 58497.38
335.3403, 58491.75
335.8224, 58485.82
336.3046, 58477.27
336.7867, 58474.99
337.2688, 58485.76
337.7509, 58497.10
338.2330, 58480.48
338.7151, 58427.38
339.1973, 58373.76
339.6794, 58333.64
340.1615, 58308.39
340.6436, 58285.69
341.1257, 58268.97
341.6078, 58250.65
342.0900, 58218.99
342.5721, 58174.38
343.0542, 58130.46
343.5363, 58089.49
344.0184, 58054.06
344.5005, 58035.65
344.9827, 58036.23
345.4648, 58042.65
345.9469, 58044.40
346.4290, 58041.37
346.9111, 58032.30
347.3932, 58010.19
347.8754, 57988.61
348.3575, 58001.88
348.8396, 58045.95
349.3217, 58085.57
349.8038, 58083.44
350.2859, 58058.13
350.7681, 58062.26
351.2502, 58108.55
351.7323, 58156.48
352.2144, 58156.38
352.6965, 58119.05
353.1786, 58077.10
353.6608, 58052.89
354.1429, 58031.62
354.6250, 57990.83
355.1071, 57929.80
355.5892, 57872.24
356.0714, 57834.70
356.5535, 57814.03
357.0356, 57805.45
357.5177, 57829.71
357.9998, 57847.46
358.4819, 57818.43
358.9641, 57751.52
359.4462, 57697.02
359.9283, 57693.44
360.4104, 57706.36
360.8925, 57704.77
361.3746, 57665.95
361.8568, 57637.52
362.3389, 57653.27
362.8210, 57693.12
363.3031, 57712.57
363.7852, 57672.76
364.2673, 57628.61
364.7495, 57607.45
365.2316, 57618.93
365.7137, 57628.07
366.1958, 57630.90
366.6779, 57626.93
367.1600, 57615.59
367.6422, 57596.64
368.1243, 57570.80
368.6064, 57532.82
369.0885, 57481.63
369.5706, 57445.50
370.0527, 57442.93
370.5349, 57441.66
371.0170, 57419.35
371.4991, 57356.22
371.9812, 57307.82
372.4633, 57285.18
372.9454, 57279.98
373.4276, 57261.43
373.9097, 57220.51
374.3918, 57182.38
374.8739, 57161.39
375.3560, 57163.12
375.8381, 57154.98
376.3203, 57132.61
376.8024, 57105.77
377.2845, 57087.30
377.7666, 57076.07
378.2487, 57079.07
378.7308, 57106.36
379.2130, 57151.39
379.6951, 57163.08
380.1772, 57135.35
380.6593, 57104.20
381.1414, 57110.08
381.6235, 57147.85
382.1057, 57169.88
382.5878, 57164.50
383.0699, 57140.99
383.5520, 57110.20
384.0341, 57073.35
384.5162, 57044.34
384.9984, 57038.81
385.4805, 57046.45
385.9626, 57044.71
386.4447, 57030.76
386.9268, 57010.42
387.4089, 56983.68
387.8911, 56954.52
388.3732, 56932.82
388.8553, 56933.09
389.3374, 56935.89
389.8195, 56920.43
390.3016, 56887.52
390.7838, 56852.89
391.2659, 56829.94
391.7480, 56809.39
392.2301, 56780.91
392.7122, 56733.77
393.1943, 56690.54
393.6765, 56673.61
394.1586, 56671.67
394.6407, 56652.06
395.1228, 56578.95
395.6049, 56506.07
396.0870, 56462.06
396.5692, 56459.68
397.0513, 56457.55
397.5334, 56445.69
398.0155, 56430.49
398.4976, 56419.97
398.9797, 56411.88
399.4619, 56410.57
399.9440, 56419.65
400.4261, 56438.43
400.9082, 56450.06
401.3903, 56458.89
401.8724, 56454.74
402.3546, 56426.94
402.8367, 56353.32
403.3188, 56304.86
403.8009, 56292.29
404.2830, 56304.18
404.7651, 56312.74
405.2473, 56317.69
405.7294, 56321.04
406.2115, 56328.21
406.6936, 56340.21
407.1757, 56325.68
407.6578, 56279.61
408.1400, 56221.63
408.6221, 56172.71
409.1042, 56132.88
409.5863, 56093.31
410.0684, 56047.50
410.5505, 56003.89
411.0327, 55985.20
411.5148, 55990.65
411.9969, 55997.55
412.4790, 55989.48
412.9611, 55970.89
413.4432, 55951.12
413.9254, 55930.26
414.4075, 55913.29
414.8896, 55912.13
415.3717, 55919.41
415.8538, 55917.48
416.3359, 55882.48
416.8181, 55844.29
417.3002, 55835.07
417.7823, 55854.07
418.2644, 55869.60
418.7465, 55862.37
419.2286, 55842.57
419.7108, 55819.13
420.1929, 55783.88
420.6750, 55757.75
421.1571, 55760.92
421.6392, 55779.58
422.1213, 55778.36
422.6035, 55726.89
423.0856, 55671.65
423.5677, 55633.74
424.0498, 55622.86
424.5319, 55602.89
425.0140, 55567.49
425.4962, 55524.77
425.9783, 55482.34
426.4604, 55435.32
426.9425, 55398.17
427.4246, 55376.73
427.9067, 55368.74
428.3889, 55356.61
428.8710, 55335.36
429.3531, 55319.05
429.8352, 55316.52
430.3173, 55330.28
430.7994, 55345.52
431.2816, 55365.68
431.7637, 55379.22
432.2458, 55361.52
432.7279, 55309.89
433.2100, 55260.52
433.6921, 55224.68
434.1743, 55200.00
434.6564, 55183.33
435.1385, 55174.54
435.6206, 55163.63
436.1027, 55142.06
436.5848, 55111.94
437.0670, 55079.29
437.5491, 55046.38
438.0312, 55009.91
438.5133, 54958.38
438.9954, 54899.56
439.4775, 54853.93
439.9597, 54849.13
440.4418, 54852.74
440.9239, 54831.07
441.4060, 54782.66
441.8881, 54740.48
442.3702, 54726.95
442.8524, 54727.83
443.3345, 54729.45
443.8166, 54734.70
444.2987, 54731.73
444.7808, 54709.23
445.2629, 54673.88
445.7451, 54645.88
446.2272, 54636.31
446.7093, 54628.18
447.1914, 54612.98
447.6735, 54584.41
448.1556, 54567.09
448.6378, 54566.04
449.1199, 54572.70
449.6020, 54580.01
450.0841, 54592.75
450.5662, 54596.12
451.0483, 54585.84
451.5305, 54564.81
452.0126, 54545.63
452.4947, 54528.79
452.9768, 54511.84
453.4589, 54491.74
453.9410, 54467.90
454.4232, 54449.76
454.9053, 54438.15
455.3874, 54427.53
455.8695, 54413.84
456.3516, 54395.76
456.8337, 54365.30
457.3159, 54312.60
457.7980, 54251.64
458.2801, 54210.85
458.7622, 54187.75
459.2443, 54162.11
459.7264, 54118.09
460.2086, 54065.45
460.6907, 54018.16
461.1728, 53980.21
461.6549, 53942.57
462.1370, 53897.41
462.6191, 53849.95
463.1013, 53808.60
463.5834, 53777.65
464.0655, 53752.05
464.5476, 53732.13
465.0297, 53716.64
465.5118, 53697.80
465.9940, 53674.27
466.4761, 53645.40
466.9582, 53609.81
467.4403, 53557.88
467.9224, 53514.50
468.4045, 53484.99
468.8867, 53461.97
469.3688, 53434.70
469.8509, 53402.56
470.3330, 53368.61
470.8151, 53332.03
471.2972, 53294.13
471.7794, 53267.30
472.2615, 53255.99
472.7436, 53244.45
473.2257, 53220.68
473.7078, 53184.48
474.1899, 53148.13
474.6721, 53110.90
475.1542, 53077.27
475.6363, 53059.08
476.1184, 53052.94
476.6005, 53037.64
477.0826, 52994.88
477.5648, 52943.44
478.0469, 52915.98
478.5290, 52910.55
479.0111, 52909.40
479.4932, 52902.80
479.9753, 52892.39
480.4575, 52880.38
480.9396, 52867.68
481.4217, 52851.90
481.9038, 52831.21
482.3859, 52806.85
482.8680, 52780.79
483.3502, 52747.14
483.8323, 52717.50
484.3144, 52699.37
484.7965, 52691.36
485.2786, 52675.18
485.7607, 52637.86
486.2429, 52598.92
486.7250, 52568.73
487.2071, 52555.88
487.6892, 52533.36
488.1713, 52497.46
488.6534, 52455.36
489.1356, 52416.13
489.6177, 52379.67
490.0998, 52350.18
490.5819, 52332.55
491.0640, 52323.43
491.5461, 52302.93
492.0283, 52270.88
492.5104, 52234.66
492.9925, 52196.98
493.4746, 52158.80
493.9567, 52126.23
494.4388, 52098.32
494.9210, 52078.28
495.4031, 52072.49
495.8852, 52076.27
496.3673, 52079.06
496.8494, 52077.50
497.3315, 52070.27
497.8137, 52050.80
498.2958, 52021.90
498.7779, 51998.35
499.2600, 51995.57
499.7421, 51994.89
500.2242, 51983.80
500.7064, 51960.11
501.1885, 51930.36
501.6706, 51896.96
502.1527, 51859.80
502.6348, 51819.28
503.1169, 51763.25
503.5991, 51720.58
504.0812, 51702.27
504.5633, 51701.26
505.0454, 51689.98
505.5275, 51666.79
506.0096, 51636.68
506.4918, 51599.55
506.9739, 51553.84
507.4560, 51512.66
507.9381, 51474.53
508.4202, 51444.05
508.9023, 51435.29
509.3845, 51445.77
509.8666, 51428.29
510.3487, 51363.48
510.8308, 51286.79
511.3129, 51264.80
511.7950, 51287.24
512.2772, 51305.10
512.7593, 51284.99
513.2414, 51250.35
513.7235, 51230.36
514.2056, 51224.94
514.6877, 51218.01
515.1699, 51189.79
515.6520, 51159.77
516.1341, 51148.37
516.6162, 51174.07
517.0983, 51189.63
517.5804, 51173.68
518.0626, 51138.23
518.5447, 51103.16
519.0268, 51068.52
519.5089, 51037.02
519.9910, 51008.86
520.4731, 50983.86
520.9553, 50964.76
521.4374, 50960.18
521.9195, 50949.62
522.4016, 50917.69
522.8837, 50857.95
523.3658, 50817.40
523.8480, 50802.16
524.3301, 50795.70
524.8122, 50777.99
525.2943, 50749.91
525.7764, 50713.43
526.2585, 50661.13
526.7407, 50610.88
527.2228, 50600.98
527.7049, 50625.75
528.1870, 50651.16
528.6691, 50663.53
529.1512, 50661.57
529.6334, 50639.10
530.1155, 50594.44
530.5976, 50548.55
531.0797, 50504.53
531.5618, 50468.10
532.0439, 50446.06
532.5261, 50450.13
533.0082, 50452.34
533.4903, 50445.35
533.9724, 50431.13
534.4545, 50414.01
534.9366, 50393.51
535.4188, 50371.65
535.9009, 50350.50
536.3830, 50330.32
536.8651, 50304.54
537.3472, 50273.77
537.8293, 50238.54
538.3115, 50197.04
538.7936, 50148.89
539.2757, 50111.12
539.7578, 50086.07
540.2399, 50069.37
540.7220, 50055.98
541.2042, 50045.82
541.6863, 50037.66
542.1684, 50030.48
542.6505, 50025.02
543.1326, 50026.74
543.6147, 50032.01
544.0969, 50027.85
544.5790, 49996.50
545.0611, 49958.49
545.5432, 49934.39
546.0253, 49926.86
546.5074, 49909.09
546.9896, 49848.80
547.4717, 49785.60
547.9538, 49752.23
548.4359, 49792.12
548.9180, 49810.75
549.4001, 49790.50
549.8823, 49748.76
550.3644, 49714.04
550.8465, 49688.11
551.3286, 49666.67
551.8107, 49651.71
552.2928, 49641.32
552.7750, 49618.06
553.2571, 49578.69
553.7392, 49542.56
554.2213, 49529.17
554.7034, 49532.37
555.1855, 49513.33
555.6677, 49467.96
556.1498, 49415.01
556.6319, 49369.45
557.1140, 49331.58
557.5961, 49303.26
558.0782, 49287.13
558.5604, 49276.37
559.0425, 49269.21
559.5246, 49263.17
560.0067, 49252.87
560.4888, 49238.30
560.9709, 49217.06
561.4531, 49187.95
561.9352, 49150.87
562.4173, 49108.21
562.8994, 49048.95
563.3815, 48994.00
563.8636, 48954.94
564.3458, 48941.45
564.8279, 48919.30
565.3100, 48885.48
565.7921, 48847.13
566.2742, 48814.96
566.7563, 48790.13
567.2385, 48760.25
567.7206, 48721.31
568.2027, 48678.14
568.6848, 48640.30
569.1669, 48607.64
569.6490, 48583.45
570.1312, 48579.31
570.6133, 48579.68
571.0954, 48556.81
571.5775, 48511.55
572.0596, 48471.99
572.5417, 48461.36
573.0239, 48460.64
573.5060, 48453.31
573.9881, 48433.85
574.4702, 48415.05
574.9523, 48403.83
575.4344, 48394.44
575.9166, 48379.65
576.3987, 48348.27
576.8808, 48326.42
577.3629, 48323.87
577.8450, 48331.96
578.3271, 48318.52
578.8093, 48273.56
579.2914, 48235.65
579.7735, 48224.50
580.2556, 48235.29
580.7377, 48230.02
581.2198, 48206.44
581.7020, 48183.83
582.1841, 48187.82
582.6662, 48203.43
583.1483, 48189.86
583.6304, 48136.75
584.1125, 48082.42
584.5947, 48074.90
585.0768, 48085.00
585.5589, 48069.45
586.0410, 47989.71
586.5231, 47910.47
587.0052, 47855.36
587.4874, 47822.57
587.9695, 47806.77
588.4516, 47847.98
588.9337, 47864.31
589.4158, 47816.68
589.8979, 47704.63
590.3801, 47649.00
590.8622, 47673.73
591.3443, 47711.45
591.8264, 47717.57
592.3085, 47688.84
592.7906, 47668.16
593.2728, 47657.54
593.7549, 47647.54
594.2370, 47619.55
594.7191, 47580.25
595.2012, 47560.58
595.6833, 47575.93
596.1655, 47596.61
596.6476, 47591.96
597.1297, 47567.55
597.6118, 47536.20
598.0939, 47499.92
598.5760, 47463.12
599.0582, 47427.07
599.5403, 47393.59
600.0224, 47366.01
600.5045, 47355.41
600.9866, 47343.80
601.4688, 47321.71
601.9509, 47285.42
602.4330, 47257.80
602.9151, 47242.77
603.3972, 47231.34
603.8793, 47213.79
604.3615, 47188.36
604.8436, 47171.05
605.3257, 47165.38
605.8078, 47162.56
606.2899, 47148.49
606.7720, 47124.30
607.2542, 47097.50
607.7363, 47063.69
608.2184, 47035.11
608.7005, 47040.70
609.1826, 47067.62
609.6647, 47071.32
610.1469, 47000.15
610.6290, 46922.87
611.1111, 46887.64
611.5932, 46898.56
612.0753, 46900.19
612.5574, 46876.08
613.0396, 46844.50
613.5217, 46815.95
614.0038, 46791.61
614.4859, 46766.52
614.9680, 46739.23
615.4501, 46712.59
615.9323, 46690.49
616.4144, 46672.90
616.8965, 46654.30
617.3786, 46633.67
617.8607, 46610.61
618.3428, 46582.62
618.8250, 46551.10
619.3071, 46522.36
619.7892, 46507.63
620.2713, 46491.64
620.7534, 46455.36
621.2355, 46403.20
621.7177, 46355.32
622.1998, 46326.67
622.6819, 46302.21
623.1640, 46270.85
623.6461, 46229.32
624.1282, 46201.20
624.6104, 46194.90
625.0925, 46197.21
625.5746, 46201.21
626.0567, 46209.70
626.5388, 46209.32
627.0209, 46197.40
627.5031, 46178.73
627.9852, 46157.31
628.4673, 46133.14
628.9494, 46113.23
629.4315, 46099.62
629.9136, 46089.07
630.3958, 46079.79
630.8779, 46070.14
631.3600, 46055.61
631.8421, 46033.90
632.3242, 46007.34
632.8063, 45974.24
633.2885, 45937.20
633.7706, 45906.41
634.2527, 45890.79
634.7348, 45878.54
635.2169, 45865.13
635.6990, 45851.10
636.1812, 45831.04
636.6633, 45797.75
637.1454, 45767.03
637.6275, 45754.77
638.1096, 45766.11
638.5917, 45754.42
639.0739, 45712.38
639.5560, 45660.49
640.0381, 45622.63
640.5202, 45596.45
641.0023, 45573.92
641.4844, 45554.41
641.9666, 45534.46
642.4487, 45508.50
642.9308, 45479.12
643.4129, 45452.15
643.8950, 45438.13
644.3771, 45419.88
644.8593, 45383.98
645.3414, 45335.39
645.8235, 45297.61
646.3056, 45280.54
646.7877, 45270.35
647.2698, 45265.73
647.7520, 45267.05
648.2341, 45257.85
648.7162, 45232.95
649.1983, 45210.64
649.6804, 45212.20
650.1625, 45232.66
650.6447, 45221.89
651.1268, 45173.89
651.6089, 45120.48
652.0910, 45096.20
652.5731, 45089.65
653.0552, 45080.30
653.5374, 45061.86
654.0195, 45044.06
654.5016, 45032.38
654.9837, 45025.75
655.4658, 45022.34
655.9479, 45031.55
656.4301, 45033.81
656.9122, 45019.61
657.3943, 44996.31
657.8764, 44983.54
658.3585, 44983.34
658.8406, 44987.35
659.3228, 44991.86
659.8049, 44997.26
660.2870, 45010.87
660.7691, 45032.21
661.2512, 45047.62
661.7333, 45048.37
662.2155, 45035.63
662.6976, 45005.15
663.1797, 44957.24
663.6618, 44917.37
664.1439, 44917.66
664.6260, 44925.47
665.1082, 44910.53
665.5903, 44862.80
666.0724, 44814.06
666.5545, 44775.07
667.0366, 44738.92
667.5187, 44699.05
668.0009, 44653.61
668.4830, 44611.69
668.9651, 44573.91
669.4472, 44542.16
669.9293, 44520.75
670.4114, 44510.02
670.8936, 44498.95
671.3757, 44484.93
671.8578, 44468.07
672.3399, 44445.35
672.8220, 44418.51
673.3041, 44395.05
673.7863, 44374.46
674.2684, 44360.76
674.7505, 44360.21
675.2326, 44369.85
675.7147, 44376.69
676.1968, 44377.32
676.6790, 44373.10
677.1611, 44364.35
677.6432, 44351.10
678.1253, 44334.79
678.6074, 44316.98
679.0895, 44293.74
679.5717, 44258.95
680.0538, 44212.50
680.5359, 44179.57
681.0180, 44161.40
681.5001, 44152.54
681.9822, 44157.32
682.4644, 44166.02
682.9465, 44157.21
683.4286, 44124.54
683.9107, 44084.55
684.3928, 44038.13
684.8749, 43995.04
685.3571, 43966.26
685.8392, 43978.74
686.3213, 43975.85
686.8034, 43935.76
687.2855, 43879.54
687.7676, 43841.40
688.2498, 43831.55
688.7319, 43812.55
689.2140, 43770.55
689.6961, 43720.39
690.1782, 43709.57
690.6603, 43736.07
691.1425, 43755.98
691.6246, 43744.80
692.1067, 43717.90
692.5888, 43695.94
693.0709, 43678.63
693.5530, 43665.15
694.0352, 43667.41
694.5173, 43662.71
694.9994, 43627.06
695.4815, 43557.70
695.9636, 43512.97
696.4457, 43514.80
696.9279, 43529.27
697.4100, 43543.23
697.8921, 43557.21
698.3742, 43563.92
698.8563, 43561.45
699.3384, 43557.31
699.8206, 43564.33
700.3027, 43577.10
700.7848, 43565.27
701.2669, 43522.85
701.7490, 43478.75
702.2311, 43465.09
702.7133, 43465.64
703.1954, 43457.51
703.6775, 43431.11
704.1596, 43403.88
704.6417, 43380.13
705.1238, 43360.15
705.6060, 43345.52
706.0881, 43348.82
706.5702, 43334.96
707.0523, 43291.02
707.5344, 43234.86
708.0165, 43208.12
708.4987, 43213.13
708.9808, 43210.53
709.4629, 43185.81
709.9450, 43150.32
710.4271, 43125.44
710.9092, 43108.64
711.3914, 43089.67
711.8735, 43055.99
712.3556, 43024.81
712.8377, 43013.57
713.3198, 43017.46
713.8019, 43012.04
714.2841, 42977.20
714.7662, 42945.51
715.2483, 42932.48
715.7304, 42937.19
716.2125, 42928.62
716.6946, 42902.57
717.1768, 42874.66
717.6589, 42854.34
718.1410, 42840.43
718.6231, 42824.31
719.1052, 42805.70
719.5873, 42790.46
720.0695, 42787.55
720.5516, 42788.39
721.0337, 42780.57
721.5158, 42761.55
721.9979, 42743.52
722.4800, 42734.57
722.9622, 42726.99
723.4443, 42714.04
723.9264, 42690.44
724.4085, 42671.46
724.8906, 42659.27
725.3727, 42648.57
725.8549, 42634.11
726.3370, 42615.45
726.8191, 42593.24
727.3012, 42565.89
727.7833, 42541.04
728.2654, 42531.28
728.7476, 42532.04
729.2297, 42534.56
729.7118, 42543.04
730.1939, 42538.84
730.6760, 42497.92
731.1581, 42439.36
731.6403, 42391.93
732.1224, 42368.26
732.6045, 42350.05
733.0866, 42338.95
733.5687, 42330.30
734.0508, 42313.85
734.5330, 42288.50
735.0151, 42260.14
735.4972, 42227.10
735.9793, 42195.83
736.4614, 42187.51
736.9435, 42196.83
737.4257, 42196.18
737.9078, 42154.67
738.3899, 42109.98
738.8720, 42102.55
739.3541, 42122.41
739.8362, 42135.10
740.3184, 42117.18
740.8005, 42100.23
741.2826, 42103.32
741.7647, 42121.65
742.2468, 42111.18
742.7289, 42055.98
743.2111, 42012.02
743.6932, 42014.98
744.1753, 42052.34
744.6574, 42045.74
745.1395, 41996.60
745.6216, 41949.42
746.1038, 41943.52
746.5859, 41953.44
747.0680, 41949.54
747.5501, 41930.59
748.0322, 41906.27
748.5143, 41873.56
748.9965, 41843.00
749.4786, 41821.81
749.9607, 41812.35
750.4428, 41801.68
750.9249, 41792.06
751.4070, 41776.82
751.8892, 41745.48
752.3713, 41698.38
752.8534, 41679.13
753.3355, 41691.96
753.8176, 41702.07
754.2997, 41667.54
754.7819, 41612.54
755.2640, 41574.23
755.7461, 41560.51
756.2282, 41552.98
756.7103, 41550.44
757.1924, 41545.43
757.6746, 41530.19
758.1567, 41490.18
758.6388, 41468.52
759.1209, 41473.64
759.6030, 41486.19
760.0851, 41484.50
760.5673, 41467.56
761.0494, 41457.48
761.5315, 41457.75
762.0136, 41458.49
762.4957, 41444.50
762.9778, 41422.98
763.4600, 41407.66
763.9421, 41403.14
764.4242, 41402.63
764.9063, 41409.30
765.3884, 41415.18
765.8705, 41410.33
766.3527, 41382.45
766.8348, 41361.06
767.3169, 41352.19
767.7990, 41346.49
768.2811, 41329.30
768.7632, 41300.30
769.2454, 41267.33
769.7275, 41229.61
770.2096, 41195.30
770.6917, 41181.46
771.1738, 41179.57
771.6559, 41170.34
772.1381, 41139.98
772.6202, 41109.90
773.1023, 41093.54
773.5844, 41084.69
774.0665, 41072.89
774.5486, 41060.21
775.0308, 41039.11
775.5129, 41004.31
775.9950, 40963.98
776.4771, 40939.79
776.9592, 40932.70
777.4413, 40915.32
777.9235, 40872.32
778.4056, 40827.13
778.8877, 40821.89
779.3698, 40843.96
779.8519, 40860.55
780.3340, 40846.70
780.8162, 40834.34
781.2983, 40843.54
781.7804, 40865.27
782.2625, 40874.15
782.7446, 40854.98
783.2267, 40845.37
783.7089, 40857.90
784.1910, 40881.48
784.6731, 40880.73
785.1552, 40855.79
785.6373, 40836.92
786.1194, 40836.42
786.6016, 40848.05
787.0837, 40875.73
787.5658, 40909.13
788.0479, 40919.23
788.5300, 40862.88
789.0121, 40810.09
789.4943, 40791.25
789.9764, 40801.55
790.4585, 40819.96
790.9406, 40855.50
791.4227, 40878.75
791.9048, 40877.25
792.3870, 40859.92
792.8691, 40857.43
793.3512, 40868.66
793.8333, 40875.68
794.3154, 40867.62
794.7975, 40853.43
795.2797, 40845.32
795.7618, 40840.85
796.2439, 40831.79
796.7260, 40806.00
797.2081, 40785.08
797.6902, 40784.29
798.1724, 40796.87
798.6545, 40794.07
799.1366, 40769.27
799.6187, 40747.45
800.1008, 40738.48
800.5829, 40737.03
801.0651, 40726.08
801.5472, 40706.98
802.0293, 40689.20
802.5114, 40682.05
802.9935, 40674.60
803.4756, 40654.77
803.9578, 40625.52
804.4399, 40597.90
804.9220, 40572.05
805.4041, 40550.85
805.8862, 40535.13
806.3683, 40524.21
806.8505, 40517.00
807.3326, 40515.17
807.8147, 40508.31
808.2968, 40489.54
808.7789, 40465.73
809.2610, 40454.00
809.7432, 40451.68
810.2253, 40447.56
810.7074, 40440.15
811.1895, 40425.59
811.6716, 40390.48
812.1537, 40344.53
812.6359, 40322.91
813.1180, 40349.74
813.6001, 40375.81
814.0822, 40388.34
814.5643, 40393.04
815.0464, 40411.66
815.5286, 40444.43
816.0107, 40476.79
816.4928, 40500.79
816.9749, 40523.15
817.4570, 40552.84
817.9391, 40589.01
818.4213, 40630.29
818.9034, 40673.57
819.3855, 40723.27
819.8676, 40783.98
820.3497, 40852.04
820.8318, 40912.62
821.3140, 40951.99
821.7961, 41016.23
822.2782, 41127.80
822.7603, 41259.88
823.2424, 41349.58
823.7245, 41402.41
824.2067, 41451.20
824.6888, 41503.73
825.1709, 41565.89
825.6530, 41649.69
826.1351, 41748.45
826.6172, 41844.14
827.0994, 41941.55
827.5815, 42026.77
828.0636, 42107.17
828.5457, 42172.20
829.0278, 42199.81
829.5099, 42188.10
829.9921, 42151.45
830.4742, 42090.86
830.9563, 42012.74
831.4384, 41923.10
831.9205, 41823.42
832.4026, 41717.33
832.8848, 41608.61
833.3669, 41487.59
833.8490, 41346.96
834.3311, 41190.52
834.8132, 41022.94
835.2953, 40830.01
835.7775, 40654.63
836.2596, 40506.31
836.7417, 40371.45
837.2238, 40226.02
837.7059, 40070.66
838.1880, 39929.48
838.6702, 39807.26
839.1523, 39699.19
839.6344, 39602.80
840.1165, 39516.50
840.5986, 39439.32
841.0807, 39368.89
841.5629, 39311.63
842.0450, 39284.28
842.5271, 39260.93
843.0092, 39212.50
843.4913, 39132.17
843.9734, 39067.18
844.4556, 39023.91
844.9377, 38988.55
845.4198, 38945.73
845.9019, 38898.68
846.3840, 38851.61
846.8661, 38803.97
847.3483, 38764.10
847.8304, 38744.42
848.3125, 38730.30
848.7946, 38707.25
849.2767, 38666.91
849.7589, 38639.63
850.2410, 38631.92
850.7231, 38624.46
851.2052, 38597.17
851.6873, 38553.35
852.1694, 38512.60
852.6516, 38475.35
853.1337, 38446.86
853.6158, 38439.84
854.0979, 38437.27
854.5800, 38419.73
855.0621, 38382.30
855.5443, 38352.91
856.0264, 38349.39
856.5085, 38343.07
856.9906, 38320.50
857.4727, 38282.23
857.9548, 38238.13
858.4370, 38187.75
858.9191, 38140.24
859.4012, 38101.45
859.8833, 38069.83
860.3654, 38044.43
860.8475, 38024.92
861.3297, 38007.86
861.8118, 37996.13
862.2939, 37982.09
862.7760, 37957.95
863.2581, 37926.07
863.7402, 37905.12
864.2224, 37897.83
864.7045, 37891.42
865.1866, 37880.18
865.6687, 37865.89
866.1508, 37851.22
866.6329, 37837.14
867.1151, 37829.15
867.5972, 37842.30
868.0793, 37850.07
868.5614, 37833.21
869.0435, 37797.71
869.5256, 37762.82
870.0078, 37725.69
870.4899, 37698.03
870.9720, 37685.50
871.4541, 37680.09
871.9362, 37664.86
872.4183, 37640.56
872.9005, 37610.75
873.3826, 37573.32
873.8647, 37538.40
874.3468, 37521.04
874.8289, 37511.22
875.3110, 37493.86
875.7932, 37458.24
876.2753, 37424.10
876.7574, 37393.76
877.2395, 37365.28
877.7216, 37333.96
878.2037, 37299.14
878.6859, 37277.45
879.1680, 37272.88
879.6501, 37270.84
880.1322, 37259.04
880.6143, 37238.10
881.0964, 37203.25
881.5786, 37146.38
882.0607, 37111.44
882.5428, 37140.72
883.0249, 37176.61
883.5070, 37177.81
883.9891, 37137.18
884.4713, 37104.96
884.9534, 37081.89
885.4355, 37063.55
885.9176, 37048.98
886.3997, 37035.39
886.8818, 37016.19
887.3640, 36991.29
887.8461, 36967.64
888.3282, 36945.36
888.8103, 36928.43
889.2924, 36921.57
889.7745, 36923.88
890.2567, 36925.88
890.7388, 36933.84
891.2209, 36921.52
891.7030, 36868.07
892.1851, 36793.80
892.6672, 36752.16
893.1494, 36737.20
893.6315, 36723.38
894.1136, 36695.21
894.5957, 36666.97
895.0778, 36646.65
895.5599, 36632.46
896.0421, 36620.82
896.5242, 36617.85
897.0063, 36603.18
897.4884, 36570.72
897.9705, 36529.40
898.4526, 36494.00
898.9348, 36464.40
899.4169, 36440.79
899.8990, 36425.13
900.3811, 36409.21
900.8632, 36378.01
901.3453, 36346.63
901.8275, 36333.00
902.3096, 36360.41
902.7917, 36368.27
903.2738, 36349.21
903.7559, 36320.04
904.2380, 36294.39
904.7202, 36271.63
905.2023, 36249.69
905.6844, 36228.52
906.1665, 36207.15
906.6486, 36187.18
907.1307, 36165.45
907.6129, 36138.55
908.0950, 36106.24
908.5771, 36072.40
909.0592, 36030.56
909.5413, 35998.57
910.0234, 35987.88
910.5056, 35994.20
910.9877, 35989.94
911.4698, 35975.55
911.9519, 35956.71
912.4340, 35935.04
912.9161, 35911.50
913.3983, 35883.42
913.8804, 35854.36
914.3625, 35834.75
914.8446, 35839.51
915.3267, 35837.85
915.8088, 35822.03
916.2910, 35798.07
916.7731, 35777.48
917.2552, 35759.96
917.7373, 35744.29
918.2194, 35731.04
918.7015, 35716.23
919.1837, 35693.69
919.6658, 35667.79
920.1479, 35645.14
920.6300, 35631.60
921.1121, 35611.81
921.5942, 35578.73
922.0764, 35544.33
922.5585, 35517.41
923.0406, 35498.13
923.5227, 35486.24
924.0048, 35482.32
924.4869, 35477.20
924.9691, 35458.31
925.4512, 35436.82
925.9333, 35427.21
926.4154, 35429.36
926.8975, 35428.33
927.3796, 35423.30
927.8618, 35408.98
928.3439, 35379.21
928.8260, 35338.36
929.3081, 35311.13
929.7902, 35297.09
930.2723, 35281.52
930.7545, 35259.35
931.2366, 35231.27
931.7187, 35193.39
932.2008, 35151.46
932.6829, 35117.25
933.1650, 35107.02
933.6472, 35087.45
934.1293, 35049.39
934.6114, 35005.66
935.0935, 34977.88
935.5756, 34965.65
936.0577, 34940.24
936.5399, 34896.41
937.0220, 34850.44
937.5041, 34817.55
937.9862, 34792.56
938.4683, 34770.61
938.9504, 34751.47
939.4326, 34732.18
939.9147, 34710.98
940.3968, 34691.57
940.8789, 34678.49
941.3610, 34670.32
941.8431, 34644.85
942.3253, 34602.53
942.8074, 34563.53
943.2895, 34546.60
943.7716, 34534.54
944.2537, 34508.21
944.7358, 34472.68
945.2180, 34447.18
945.7001, 34441.14
946.1822, 34439.83
946.6643, 34445.39
947.1464, 34450.54
947.6285, 34438.57
948.1107, 34411.23
948.5928, 34380.18
949.0749, 34346.64
949.5570, 34315.80
950.0391, 34292.60
950.5212, 34274.33
951.0034, 34258.46
951.4855, 34246.15
951.9676, 34231.00
952.4497, 34208.98
952.9318, 34190.39
953.4139, 34185.55
953.8961, 34191.54
954.3782, 34194.25
954.8603, 34192.93
955.3424, 34183.63
955.8245, 34159.04
956.3066, 34129.42
956.7888, 34100.12
957.2709, 34071.79
957.7530, 34047.42
958.2351, 34029.69
958.7172, 34010.28
959.1993, 33989.61
959.6815, 33962.51
960.1636, 33905.68
960.6457, 33832.35
961.1278, 33787.63
961.6099, 33800.61
962.0920, 33816.26
962.5742, 33803.46
963.0563, 33776.64
963.5384, 33752.62
964.0205, 33734.28
964.5026, 33709.77
964.9847, 33675.71
965.4669, 33647.55
965.9490, 33646.57
966.4311, 33659.80
966.9132, 33663.85
967.3953, 33656.56
967.8774, 33632.41
968.3596, 33551.25
968.8417, 33490.82
969.3238, 33505.77
969.8059, 33574.54
970.2880, 33598.39
970.7701, 33572.84
971.2523, 33539.78
971.7344, 33510.96
972.2165, 33484.75
972.6986, 33457.38
973.1807, 33430.32
973.6628, 33406.91
974.1450, 33388.16
974.6271, 33372.20
975.1092, 33366.08
975.5913, 33355.42
976.0734, 33320.57
976.5555, 33260.89
977.0377, 33230.88
977.5198, 33235.20
978.0019, 33241.58
978.4840, 33219.46
978.9661, 33189.89
979.4482, 33174.36
979.9304, 33173.88
980.4125, 33174.73
980.8946, 33183.09
981.3767, 33179.46
981.8588, 33155.56
982.3409, 33117.53
982.8231, 33078.00
983.3052, 33038.51
983.7873, 33008.83
984.2694, 32995.87
984.7515, 32986.18
985.2336, 32968.38
985.7158, 32948.72
986.1979, 32936.25
986.6800, 32938.05
987.1621, 32930.17
987.6442, 32910.34
988.1263, 32886.37
988.6085, 32866.02
989.0906, 32846.98
989.5727, 32823.96
990.0548, 32797.02
990.5369, 32769.18
991.0190, 32741.17
991.5012, 32714.05
991.9833, 32689.79
992.4654, 32667.21
992.9475, 32639.98
993.4296, 32607.84
993.9117, 32576.86
994.3939, 32548.04
994.8760, 32523.23
995.3581, 32510.56
995.8402, 32501.86
996.3223, 32482.14
996.8044, 32437.99
997.2866, 32404.35
997.7687, 32394.36
998.2508, 32385.46
998.7329, 32357.69
999.2150, 32312.49
999.6971, 32277.80
1000.179, 32254.39
1000.661, 32238.89
1001.143, 32237.58
1001.626, 32236.36
1002.108, 32223.93
1002.590, 32201.78
1003.072, 32178.91
1003.554, 32159.68
1004.036, 32130.71
1004.518, 32084.39
1005.000, 32036.64
1005.483, 32019.32
1005.965, 32022.65
1006.447, 32021.13
1006.929, 32007.38
1007.411, 31993.73
1007.893, 31986.97
1008.375, 31981.59
1008.857, 31973.85
1009.339, 31963.63
1009.822, 31948.38
1010.304, 31927.15
1010.786, 31911.25
1011.268, 31916.66
1011.750, 31925.60
1012.232, 31911.65
1012.714, 31882.00
1013.196, 31857.62
1013.679, 31855.23
1014.161, 31843.03
1014.643, 31811.52
1015.125, 31774.36
1015.607, 31752.34
1016.089, 31743.32
1016.571, 31735.44
1017.053, 31727.73
1017.535, 31714.68
1018.018, 31689.99
1018.500, 31660.36
1018.982, 31630.81
1019.464, 31602.03
1019.946, 31570.86
1020.428, 31536.71
1020.910, 31503.02
1021.392, 31467.76
1021.875, 31437.65
1022.357, 31431.96
1022.839, 31441.34
1023.321, 31444.26
1023.803, 31431.06
1024.285, 31411.88
1024.767, 31383.75
1025.249, 31354.30
1025.731, 31332.03
1026.214, 31316.84
1026.696, 31297.38
1027.178, 31273.02
1027.660, 31248.43
1028.142, 31224.52
1028.624, 31204.29
1029.106, 31194.31
1029.588, 31192.70
1030.071, 31181.89
1030.553, 31158.82
1031.035, 31131.26
1031.517, 31097.49
1031.999, 31066.05
1032.481, 31058.19
1032.963, 31063.85
1033.445, 31055.66
1033.927, 31022.31
1034.410, 30990.87
1034.892, 30966.19
1035.374, 30954.50
1035.856, 30966.00
1036.338, 31001.74
1036.820, 31002.06
1037.302, 30966.39
1037.784, 30928.20
1038.266, 30913.23
1038.749, 30901.49
1039.231, 30871.47
1039.713, 30829.20
1040.195, 30789.38
1040.677, 30747.93
1041.159, 30723.45
1041.641, 30724.05
1042.123, 30728.60
1042.605, 30706.72
1043.088, 30668.25
1043.570, 30643.56
1044.052, 30635.81
1044.534, 30626.41
1045.016, 30602.79
1045.498, 30577.54
1045.980, 30557.80
1046.462, 30542.29
1046.945, 30525.84
1047.427, 30508.59
1047.909, 30485.93
1048.391, 30454.70
1048.873, 30422.47
1049.355, 30392.19
1049.837, 30368.01
1050.319, 30356.89
1050.802, 30371.85
1051.284, 30371.68
1051.766, 30353.32
1052.248, 30325.81
1052.730, 30285.78
1053.212, 30243.10
1053.694, 30234.77
1054.176, 30254.40
1054.658, 30273.04
1055.141, 30285.77
1055.623, 30283.01
1056.105, 30246.00
1056.587, 30200.07
1057.069, 30186.19
1057.551, 30205.45
1058.033, 30217.96
1058.515, 30219.69
1058.998, 30206.59
1059.480, 30162.04
1059.962, 30110.45
1060.444, 30077.91
1060.926, 30067.10
1061.408, 30040.86
1061.890, 29987.40
1062.372, 29949.04
1062.854, 29944.95
1063.337, 29957.22
1063.819, 29953.70
1064.301, 29939.86
1064.783, 29928.64
1065.265, 29929.10
1065.747, 29919.21
1066.229, 29884.54
1066.711, 29844.22
1067.193, 29807.20
1067.676, 29773.95
1068.158, 29754.24
1068.640, 29746.90
1069.122, 29737.14
1069.604, 29708.76
1070.086, 29681.71
1070.568, 29676.44
1071.050, 29647.82
1071.532, 29662.69
1072.015, 29613.15
1072.497, 29581.48
1072.979, 29575.83
1073.461, 29573.64
1073.943, 29546.39
1074.425, 29510.19
1074.907, 29487.22
1075.389, 29479.37
1075.872, 29475.34
1076.354, 29476.41
1076.836, 29475.25
1077.318, 29470.25
1077.800, 29460.99
1078.282, 29445.92
1078.764, 29425.33
1079.246, 29398.84
1079.729, 29362.26
1080.211, 29332.95
1080.693, 29327.84
1081.175, 29327.23
1081.657, 29315.16
1082.139, 29291.53
1082.621, 29277.63
1083.103, 29273.59
1083.585, 29268.36
1084.068, 29251.72
1084.550, 29235.93
1085.032, 29243.48
1085.514, 29257.69
1085.996, 29245.88
1086.478, 29183.87
1086.960, 29145.71
1087.442, 29141.05
1087.925, 29137.32
1088.407, 29093.96
1088.889, 29034.87
1089.371, 29007.71
1089.853, 29009.49
1090.335, 29006.18
1090.817, 28986.91
1091.299, 28957.04
1091.781, 28908.90
1092.264, 28860.98
1092.746, 28855.18
1093.228, 28881.84
1093.710, 28894.95
1094.192, 28885.91
1094.674, 28868.97
1095.156, 28850.50
1095.638, 28828.91
1096.120, 28797.99
1096.603, 28761.04
1097.085, 28747.82
1097.567, 28759.11
1098.049, 28766.22
1098.531, 28758.62
1099.013, 28742.34
1099.495, 28718.61
1099.977, 28692.47
1100.459, 28669.78
1100.942, 28651.31
1101.424, 28640.21
1101.906, 28640.56
1102.388, 28635.52
1102.870, 28610.19
1103.352, 28574.29
1103.834, 28544.09
1104.316, 28519.01
1104.799, 28497.99
1105.281, 28485.77
1105.763, 28469.73
1106.245, 28444.92
1106.727, 28421.02
1107.209, 28414.01
1107.691, 28417.97
1108.173, 28406.66
1108.656, 28379.43
1109.138, 28350.99
1109.620, 28327.72
1110.102, 28307.13
1110.584, 28287.33
1111.066, 28269.43
1111.548, 28253.94
1112.030, 28240.76
1112.512, 28242.01
1112.995, 28263.37
1113.477, 28273.82
1113.959, 28228.41
1114.441, 28173.77
1114.923, 28155.61
1115.405, 28174.03
1115.887, 28169.10
1116.369, 28135.66
1116.852, 28108.10
1117.334, 28102.47
1117.816, 28100.31
1118.298, 28075.92
1118.780, 28039.73
1119.262, 28005.80
1119.744, 27975.42
1120.226, 27955.06
1120.708, 27948.27
1121.191, 27943.81
1121.673, 27937.52
1122.155, 27927.53
1122.637, 27904.55
1123.119, 27873.84
1123.601, 27849.74
1124.083, 27851.28
1124.565, 27839.93
1125.047, 27801.32
1125.530, 27759.74
1126.012, 27738.86
1126.494, 27734.87
1126.976, 27724.57
1127.458, 27708.87
1127.940, 27701.97
1128.422, 27725.18
1128.904, 27743.80
1129.386, 27739.73
1129.869, 27723.07
1130.351, 27707.04
1130.833, 27691.54
1131.315, 27679.37
1131.797, 27670.94
1132.279, 27660.60
1132.761, 27645.15
1133.243, 27616.71
1133.726, 27613.03
1134.208, 27593.04
1134.690, 27575.42
1135.172, 27570.17
1135.654, 27542.71
1136.136, 27536.08
1136.618, 27534.58
1137.100, 27523.52
1137.583, 27506.69
1138.065, 27486.40
1138.547, 27462.37
1139.029, 27446.78
1139.511, 27443.82
1139.993, 27435.49
1140.475, 27413.48
1140.957, 27384.23
1141.439, 27352.63
1141.922, 27322.50
1142.404, 27300.24
1142.886, 27290.19
1143.368, 27281.60
1143.850, 27275.66
1144.332, 27266.27
1144.814, 27249.16
1145.296, 27226.15
1145.779, 27197.08
1146.261, 27166.01
1146.743, 27143.92
1147.225, 27149.92
1147.707, 27144.96
1148.189, 27122.11
1148.671, 27089.18
1149.153, 27047.50
1149.635, 27001.30
1150.118, 26973.20
1150.600, 26961.32
1151.082, 26948.11
1151.564, 26924.95
1152.046, 26898.17
1152.528, 26862.87
1153.010, 26831.50
1153.492, 26827.06
1153.974, 26846.13
1154.457, 26846.78
1154.939, 26825.56
1155.421, 26801.87
1155.903, 26785.30
1156.385, 26773.39
1156.867, 26766.74
1157.349, 26762.87
1157.831, 26757.08
1158.313, 26749.07
1158.796, 26741.21
1159.278, 26734.26
1159.760, 26721.99
1160.242, 26692.23
1160.724, 26660.59
1161.206, 26640.08
1161.688, 26630.02
1162.170, 26621.35
1162.653, 26613.72
1163.135, 26612.94
1163.617, 26623.00
1164.099, 26632.42
1164.581, 26634.36
1165.063, 26626.06
1165.545, 26598.32
1166.027, 26547.52
1166.510, 26522.67
1166.992, 26528.51
1167.474, 26532.01
1167.956, 26518.30
1168.438, 26498.18
1168.920, 26486.57
1169.402, 26477.11
1169.884, 26459.11
1170.366, 26425.00
1170.849, 26403.54
1171.331, 26398.13
1171.813, 26394.53
1172.295, 26385.49
1172.777, 26372.86
1173.259, 26360.40
1173.741, 26346.52
1174.223, 26328.07
1174.706, 26296.63
1175.188, 26274.99
1175.670, 26266.80
1176.152, 26258.92
1176.634, 26237.43
1177.116, 26210.94
1177.598, 26202.42
1178.080, 26203.10
1178.563, 26186.75
1179.045, 26117.66
1179.527, 26073.69
1180.009, 26069.78
1180.491, 26072.22
1180.973, 26038.76
1181.455, 25990.46
1181.937, 25987.92
1182.419, 26021.29
1182.901, 26031.84
1183.384, 25976.69
1183.866, 25924.67
1184.348, 25884.36
1184.830, 25856.33
1185.312, 25845.04
1185.794, 25845.79
1186.276, 25849.16
1186.758, 25853.38
1187.240, 25849.90
1187.723, 25821.22
1188.205, 25802.51
1188.687, 25804.77
1189.169, 25815.90
1189.651, 25823.15
1190.133, 25821.94
1190.615, 25790.79
1191.097, 25726.48
1191.580, 25675.22
1192.062, 25661.64
1192.544, 25660.85
1193.026, 25670.18
1193.508, 25681.14
1193.990, 25674.37
1194.472, 25653.42
1194.954, 25630.15
1195.437, 25607.01
1195.919, 25581.30
1196.401, 25548.02
1196.883, 25517.10
1197.365, 25493.88
1197.847, 25475.44
1198.329, 25451.75
1198.811, 25424.95
1199.293, 25402.16
1199.776, 25384.31
1200.258, 25373.11
1200.740, 25378.40
1201.222, 25379.84
1201.704, 25364.74
1202.186, 25338.47
1202.668, 25325.37
1203.150, 25321.70
1203.633, 25312.07
1204.115, 25289.21
1204.597, 25267.08
1205.079, 25252.74
1205.561, 25241.02
1206.043, 25228.75
1206.525, 25216.97
1207.007, 25215.71
1207.490, 25221.23
1207.972, 25215.75
1208.454, 25186.74
1208.936, 25156.78
1209.418, 25133.64
1209.900, 25114.60
1210.382, 25099.74
1210.864, 25087.57
1211.346, 25067.46
1211.828, 25041.29
1212.311, 25019.34
1212.793, 25003.38
1213.275, 24996.50
1213.757, 25009.87
1214.239, 25023.07
1214.721, 25021.84
1215.203, 25007.09
1215.685, 24979.02
1216.167, 24941.23
1216.650, 24912.14
1217.132, 24912.13
1217.614, 24907.68
1218.096, 24886.43
1218.578, 24858.84
1219.060, 24831.32
1219.542, 24804.79
1220.024, 24785.83
1220.507, 24773.51
1220.989, 24760.69
1221.471, 24743.62
1221.953, 24725.76
1222.435, 24706.97
1222.917, 24689.22
1223.399, 24675.26
1223.881, 24664.20
1224.364, 24651.60
1224.846, 24637.55
1225.328, 24623.83
1225.810, 24609.34
1226.292, 24597.95
1226.774, 24590.36
1227.256, 24585.79
1227.738, 24589.57
1228.220, 24595.20
1228.703, 24570.71
1229.185, 24520.29
1229.667, 24483.96
1230.149, 24495.10
1230.631, 24501.87
1231.113, 24491.05
1231.595, 24473.36
1232.077, 24462.38
1232.560, 24455.41
1233.042, 24445.49
1233.524, 24432.17
1234.006, 24417.16
1234.488, 24402.01
1234.970, 24384.33
1235.452, 24366.08
1235.934, 24341.50
1236.417, 24296.17
1236.899, 24241.43
1237.381, 24202.60
1237.863, 24181.41
1238.345, 24167.21
1238.827, 24169.76
1239.309, 24159.00
1239.791, 24126.63
1240.273, 24087.18
1240.755, 24054.47
1241.238, 24030.62
1241.720, 24026.53
1242.202, 24040.28
1242.684, 24037.00
1243.166, 23994.75
1243.648, 23968.12
1244.130, 23970.76
1244.612, 23981.63
1245.094, 23972.85
1245.577, 23953.89
1246.059, 23937.78
1246.541, 23925.38
1247.023, 23915.72
1247.505, 23906.07
1247.987, 23906.02
1248.469, 23920.69
1248.951, 23933.65
1249.434, 23919.79
1249.916, 23895.50
1250.398, 23880.91
1250.880, 23877.13
1251.362, 23867.49
1251.844, 23850.42
1252.326, 23833.77
1252.808, 23819.74
1253.291, 23805.67
1253.773, 23794.01
1254.255, 23776.78
1254.737, 23737.87
1255.219, 23681.59
1255.701, 23654.56
1256.183, 23661.05
1256.665, 23659.24
1257.147, 23638.76
1257.630, 23613.86
1258.112, 23593.97
1258.594, 23578.61
1259.076, 23569.67
1259.558, 23565.13
1260.040, 23558.03
1260.522, 23548.42
1261.004, 23532.62
1261.487, 23508.95
1261.969, 23484.87
1262.451, 23457.45
1262.933, 23440.66
1263.415, 23452.73
1263.897, 23479.38
1264.379, 23469.30
1264.861, 23427.59
1265.344, 23392.25
1265.826, 23372.31
1266.308, 23354.00
1266.790, 23329.25
1267.272, 23304.14
1267.754, 23279.86
1268.236, 23259.22
1268.718, 23251.84
1269.200, 23254.27
1269.682, 23255.02
1270.165, 23252.23
1270.647, 23244.18
1271.129, 23226.89
1271.611, 23207.37
1272.093, 23186.10
1272.575, 23165.64
1273.057, 23153.28
1273.539, 23132.93
1274.021, 23128.34
1274.504, 23101.25
1274.986, 23080.56
1275.468, 23069.60
1275.950, 23064.90
1276.432, 23069.22
1276.914, 23071.19
1277.396, 23047.21
1277.878, 23011.99
1278.361, 22987.60
1278.843, 22977.80
1279.325, 22970.47
1279.807, 22966.87
1280.289, 22958.18
1280.771, 22941.04
1281.253, 22920.89
1281.735, 22899.68
1282.218, 22881.94
1282.700, 22874.23
1283.182, 22876.05
1283.664, 22875.07
1284.146, 22871.15
1284.628, 22862.15
1285.110, 22845.76
1285.592, 22830.80
1286.074, 22828.83
1286.557, 22827.35
1287.039, 22815.79
1287.521, 22796.06
1288.003, 22772.23
1288.485, 22745.29
1288.967, 22731.37
1289.449, 22736.54
1289.931, 22734.44
1290.414, 22696.43
1290.896, 22662.12
1291.378, 22655.60
1291.860, 22662.64
1292.342, 22644.10
1292.824, 22608.11
1293.306, 22582.66
1293.788, 22573.40
1294.271, 22564.64
1294.753, 22553.91
1295.235, 22536.64
1295.717, 22509.64
1296.199, 22478.76
1296.681, 22452.44
1297.163, 22430.54
1297.645, 22412.46
1298.127, 22398.21
1298.609, 22394.38
1299.092, 22408.40
1299.574, 22407.81
1300.056, 22383.03
1300.538, 22350.67
1301.020, 22331.39
1301.502, 22316.20
1301.984, 22294.16
1302.466, 22265.23
1302.948, 22243.45
1303.431, 22230.70
1303.913, 22216.13
1304.395, 22200.81
##END=



