##NAMES=Billietite
##RRUFFID=R070588
##IDEAL CHEMISTRY=Ba(U^6+^O_2_)_6_O_4_(OH)_6_&#183;8H_2_O
##LOCALITY=Musonoi mine, Kolwezi, Katanga, Zaire
##OWNER=RRUFF
##SOURCE=James Shigley
##DESCRIPTION=Pseudo-hexagonal amber yellow crystals
##STATUS=The identification of this mineral has been confirmed by single-crystal X-ray diffraction.
##URL=rruff.info/R070588
95.64258, 3562.457
96.12469, 3729.406
96.60681, 3900.322
97.08893, 4065.060
97.57104, 4238.059
98.05316, 4434.671
98.53528, 4660.441
99.01740, 4904.162
99.49951, 5140.383
99.98163, 5370.865
100.4637, 5593.371
100.9459, 5810.905
101.4280, 6021.962
101.9101, 6217.780
102.3922, 6381.899
102.8743, 6359.403
103.3564, 6373.546
103.8386, 6450.283
104.3207, 6538.338
104.8028, 6589.807
105.2849, 6600.323
105.7670, 6607.995
106.2491, 6639.364
106.7313, 6682.843
107.2134, 6722.327
107.6955, 6755.157
108.1776, 6779.625
108.6597, 6787.183
109.1418, 6772.100
109.6240, 6744.315
110.1061, 6703.963
110.5882, 6654.218
111.0703, 6604.421
111.5524, 6564.044
112.0345, 6535.078
112.5167, 6504.693
112.9988, 6464.964
113.4809, 6427.782
113.9630, 6404.059
114.4451, 6395.059
114.9272, 6389.746
115.4094, 6365.086
115.8915, 6286.412
116.3736, 6234.072
116.8557, 6221.172
117.3378, 6231.789
117.8199, 6250.083
118.3021, 6268.246
118.7842, 6285.646
119.2663, 6297.928
119.7484, 6300.684
120.2305, 6303.762
120.7127, 6312.130
121.1948, 6324.260
121.6769, 6333.944
122.1590, 6335.490
122.6411, 6328.644
123.1232, 6326.179
123.6054, 6326.946
124.0875, 6332.579
124.5696, 6346.826
125.0517, 6371.352
125.5338, 6397.107
126.0159, 6415.194
126.4981, 6426.937
126.9802, 6435.416
127.4623, 6437.619
127.9444, 6436.709
128.4265, 6442.786
128.9086, 6459.146
129.3907, 6482.136
129.8729, 6508.209
130.3550, 6537.225
130.8371, 6567.950
131.3192, 6595.269
131.8013, 6616.828
132.2834, 6654.212
132.7656, 6732.969
133.2477, 6817.523
133.7298, 6882.702
134.2119, 6920.789
134.6940, 6948.384
135.1761, 6998.038
135.6583, 7083.428
136.1404, 7168.944
136.6225, 7249.930
137.1046, 7327.173
137.5867, 7400.136
138.0688, 7468.367
138.5510, 7532.722
139.0331, 7600.902
139.5152, 7669.834
139.9973, 7746.023
140.4794, 7839.875
140.9615, 7942.748
141.4437, 8035.336
141.9258, 8100.833
142.4079, 8134.523
142.8900, 8187.612
143.3721, 8269.818
143.8542, 8359.152
144.3364, 8445.088
144.8185, 8526.296
145.3006, 8606.070
145.7827, 8688.927
146.2648, 8776.514
146.7469, 8859.247
147.2291, 8930.676
147.7112, 8999.550
148.1933, 9076.456
148.6754, 9165.237
149.1575, 9258.461
149.6396, 9346.905
150.1218, 9431.702
150.6039, 9508.707
151.0860, 9573.579
151.5681, 9628.906
152.0502, 9682.612
152.5324, 9732.552
153.0145, 9787.084
153.4966, 9858.576
153.9787, 9952.767
154.4608, 10045.15
154.9429, 10116.89
155.4251, 10167.76
155.9072, 10208.85
156.3893, 10241.21
156.8714, 10266.52
157.3535, 10286.30
157.8356, 10301.34
158.3178, 10309.66
158.7999, 10306.05
159.2820, 10284.74
159.7641, 10265.03
160.2462, 10261.55
160.7283, 10260.71
161.2105, 10245.98
161.6926, 10206.80
162.1747, 10149.21
162.6568, 10100.21
163.1389, 10073.45
163.6210, 10038.80
164.1032, 9978.161
164.5853, 9904.899
165.0674, 9842.322
165.5495, 9810.385
166.0316, 9810.397
166.5137, 9799.063
166.9959, 9775.787
167.4780, 9741.874
167.9601, 9689.975
168.4422, 9625.496
168.9243, 9562.449
169.4064, 9516.116
169.8886, 9492.474
170.3707, 9463.326
170.8528, 9424.740
171.3349, 9384.798
171.8170, 9348.036
172.2991, 9315.250
172.7813, 9284.538
173.2634, 9252.541
173.7455, 9213.703
174.2276, 9187.634
174.7097, 9184.604
175.1918, 9189.529
175.6740, 9184.855
176.1561, 9164.792
176.6382, 9142.326
177.1203, 9144.950
177.6024, 9187.188
178.0845, 9216.998
178.5667, 9214.216
179.0488, 9193.348
179.5309, 9178.018
180.0130, 9174.564
180.4951, 9186.051
180.9772, 9221.448
181.4594, 9293.519
181.9415, 9358.509
182.4236, 9386.575
182.9057, 9386.501
183.3878, 9397.021
183.8699, 9436.397
184.3521, 9497.322
184.8342, 9559.768
185.3163, 9621.815
185.7984, 9687.306
186.2805, 9763.140
186.7626, 9849.734
187.2448, 9930.688
187.7269, 9995.409
188.2090, 10049.40
188.6911, 10097.80
189.1732, 10136.89
189.6553, 10175.69
190.1375, 10227.68
190.6196, 10296.34
191.1017, 10367.26
191.5838, 10438.97
192.0659, 10507.68
192.5480, 10568.15
193.0302, 10613.62
193.5123, 10651.33
193.9944, 10701.70
194.4765, 10775.22
194.9586, 10842.64
195.4408, 10898.24
195.9229, 10940.40
196.4050, 10966.72
196.8871, 10976.68
197.3692, 10969.77
197.8513, 10940.63
198.3335, 10865.49
198.8156, 10793.88
199.2977, 10751.40
199.7798, 10725.18
200.2619, 10688.44
200.7440, 10621.14
201.2262, 10522.75
201.7083, 10411.23
202.1904, 10279.04
202.6725, 10139.87
203.1546, 10002.24
203.6367, 9861.991
204.1189, 9707.122
204.6010, 9522.887
205.0831, 9300.309
205.5652, 9094.744
206.0473, 8921.488
206.5294, 8749.097
207.0116, 8561.039
207.4937, 8357.592
207.9758, 8152.274
208.4579, 7959.771
208.9400, 7781.546
209.4221, 7610.986
209.9043, 7453.354
210.3864, 7297.673
210.8685, 7138.773
211.3506, 6975.497
211.8327, 6808.059
212.3148, 6635.469
212.7970, 6444.971
213.2791, 6285.400
213.7612, 6179.574
214.2433, 6088.285
214.7254, 5979.045
215.2075, 5845.032
215.6897, 5701.859
216.1718, 5573.689
216.6539, 5466.394
217.1360, 5364.564
217.6181, 5267.676
218.1002, 5176.496
218.5824, 5094.670
219.0645, 5023.389
219.5466, 4956.264
220.0287, 4881.326
220.5108, 4794.309
220.9929, 4709.882
221.4751, 4621.248
221.9572, 4538.678
222.4393, 4479.953
222.9214, 4452.992
223.4035, 4441.868
223.8856, 4413.354
224.3678, 4357.267
224.8499, 4313.948
225.3320, 4301.866
225.8141, 4308.277
226.2962, 4308.066
226.7783, 4290.491
227.2605, 4266.917
227.7426, 4260.029
228.2247, 4272.244
228.7068, 4288.496
229.1889, 4305.010
229.6710, 4321.362
230.1532, 4336.750
230.6353, 4351.072
231.1174, 4363.761
231.5995, 4371.721
232.0816, 4369.982
232.5637, 4377.169
233.0459, 4407.728
233.5280, 4456.478
234.0101, 4503.651
234.4922, 4541.410
234.9743, 4574.290
235.4564, 4609.964
235.9386, 4648.007
236.4207, 4689.519
236.9028, 4739.243
237.3849, 4795.042
237.8670, 4842.977
238.3491, 4873.487
238.8313, 4896.741
239.3134, 4927.524
239.7955, 4967.218
240.2776, 5011.144
240.7597, 5059.040
241.2418, 5110.377
241.7240, 5154.737
242.2061, 5185.098
242.6882, 5208.135
243.1703, 5231.928
243.6524, 5257.338
244.1345, 5282.505
244.6167, 5303.763
245.0988, 5321.027
245.5809, 5343.809
246.0630, 5383.466
246.5451, 5424.874
247.0272, 5451.879
247.5094, 5460.117
247.9915, 5462.558
248.4736, 5468.936
248.9557, 5478.973
249.4378, 5497.836
249.9199, 5538.039
250.4021, 5582.064
250.8842, 5610.311
251.3663, 5616.093
251.8484, 5623.971
252.3305, 5666.100
252.8126, 5747.452
253.2948, 5820.245
253.7769, 5865.715
254.2590, 5897.907
254.7411, 5923.675
255.2232, 5943.000
255.7053, 5964.934
256.1875, 6003.221
256.6696, 6061.503
257.1517, 6113.583
257.6338, 6148.462
258.1159, 6175.938
258.5981, 6201.343
259.0802, 6225.759
259.5623, 6248.805
260.0444, 6277.972
260.5265, 6320.202
261.0086, 6328.847
261.4908, 6255.005
261.9729, 6163.162
262.4550, 6096.180
262.9371, 6063.702
263.4192, 6040.083
263.9013, 5993.996
264.3835, 5921.842
264.8656, 5847.403
265.3477, 5782.688
265.8298, 5713.187
266.3119, 5625.924
266.7940, 5518.775
267.2762, 5406.177
267.7583, 5307.131
268.2404, 5224.861
268.7225, 5139.230
269.2046, 5037.418
269.6867, 4936.460
270.1689, 4846.018
270.6510, 4767.870
271.1331, 4698.271
271.6152, 4637.799
272.0973, 4590.172
272.5794, 4529.216
273.0616, 4428.214
273.5437, 4327.599
274.0258, 4251.112
274.5079, 4201.126
274.9900, 4161.801
275.4721, 4114.746
275.9543, 4057.485
276.4364, 4007.916
276.9185, 3972.227
277.4006, 3942.342
277.8827, 3917.235
278.3648, 3895.732
278.8470, 3873.492
279.3291, 3845.120
279.8112, 3809.340
280.2933, 3776.146
280.7754, 3747.753
281.2575, 3721.362
281.7397, 3694.808
282.2218, 3668.399
282.7039, 3645.286
283.1860, 3630.663
283.6681, 3625.520
284.1502, 3614.882
284.6324, 3590.971
285.1145, 3567.344
285.5966, 3551.375
286.0787, 3542.251
286.5608, 3534.398
287.0429, 3523.116
287.5251, 3508.406
288.0072, 3493.844
288.4893, 3480.597
288.9714, 3466.376
289.4535, 3450.091
289.9356, 3431.979
290.4178, 3412.972
290.8999, 3392.953
291.3820, 3372.056
291.8641, 3353.726
292.3462, 3335.702
292.8283, 3323.755
293.3105, 3325.181
293.7926, 3334.641
294.2747, 3339.071
294.7568, 3325.786
295.2389, 3299.064
295.7210, 3285.580
296.2032, 3293.630
296.6853, 3303.894
297.1674, 3309.415
297.6495, 3310.837
298.1316, 3309.297
298.6137, 3304.170
299.0959, 3296.861
299.5780, 3291.209
300.0601, 3282.801
300.5422, 3284.803
301.0243, 3307.302
301.5064, 3340.927
301.9886, 3373.201
302.4707, 3400.162
302.9528, 3420.402
303.4349, 3425.762
303.9170, 3404.211
304.3991, 3397.284
304.8813, 3434.687
305.3634, 3490.241
305.8455, 3533.672
306.3276, 3551.871
306.8097, 3557.212
307.2918, 3567.021
307.7740, 3579.258
308.2561, 3603.591
308.7382, 3658.363
309.2203, 3720.314
309.7024, 3767.947
310.1845, 3793.636
310.6667, 3809.774
311.1488, 3828.018
311.6309, 3847.271
312.1130, 3877.796
312.5951, 3935.385
313.0772, 3998.985
313.5594, 4048.917
314.0415, 4080.189
314.5236, 4110.254
315.0057, 4157.453
315.4878, 4221.581
315.9699, 4281.748
316.4521, 4330.641
316.9342, 4374.836
317.4163, 4420.069
317.8984, 4466.811
318.3805, 4514.029
318.8626, 4565.672
319.3448, 4619.206
319.8269, 4656.746
320.3090, 4662.693
320.7911, 4668.184
321.2732, 4708.178
321.7553, 4779.894
322.2375, 4842.796
322.7196, 4872.486
323.2017, 4877.918
323.6838, 4882.682
324.1659, 4888.211
324.6480, 4896.858
325.1302, 4910.979
325.6123, 4929.834
326.0944, 4952.098
326.5765, 4982.081
327.0586, 5013.533
327.5407, 5035.958
328.0229, 5047.465
328.5050, 5055.417
328.9871, 5065.988
329.4692, 5077.712
329.9513, 5085.082
330.4334, 5084.178
330.9156, 5080.212
331.3977, 5080.190
331.8798, 5084.258
332.3619, 5083.104
332.8440, 5067.434
333.3261, 5041.900
333.8083, 5025.188
334.2904, 5030.585
334.7725, 5033.526
335.2546, 5015.498
335.7367, 4979.877
336.2188, 4943.499
336.7010, 4914.676
337.1831, 4890.425
337.6652, 4861.295
338.1473, 4828.190
338.6294, 4790.075
339.1115, 4743.533
339.5937, 4691.758
340.0758, 4641.499
340.5579, 4595.098
341.0400, 4551.335
341.5221, 4508.065
342.0042, 4466.573
342.4864, 4422.196
342.9685, 4370.600
343.4506, 4316.911
343.9327, 4267.409
344.4148, 4223.841
344.8969, 4184.433
345.3791, 4148.411
345.8612, 4121.814
346.3433, 4080.939
346.8254, 4003.952
347.3075, 3927.053
347.7896, 3883.902
348.2718, 3875.725
348.7539, 3875.783
349.2360, 3858.393
349.7181, 3821.836
350.2002, 3776.028
350.6823, 3702.412
351.1645, 3637.988
351.6466, 3609.803
352.1287, 3608.211
352.6108, 3602.755
353.0929, 3570.277
353.5750, 3512.508
354.0572, 3461.329
354.5393, 3417.869
355.0214, 3379.737
355.5035, 3349.162
355.9856, 3323.008
356.4677, 3296.822
356.9499, 3268.303
357.4320, 3238.031
357.9141, 3207.690
358.3962, 3175.060
358.8783, 3145.865
359.3604, 3124.610
359.8426, 3104.803
360.3247, 3079.127
360.8068, 3045.636
361.2889, 3009.271
361.7710, 2979.161
362.2531, 2958.192
362.7353, 2935.436
363.2174, 2909.316
363.6995, 2881.726
364.1816, 2852.609
364.6637, 2822.574
365.1458, 2794.074
365.6280, 2768.046
366.1101, 2743.915
366.5922, 2729.382
367.0743, 2735.602
367.5564, 2740.301
368.0385, 2734.772
368.5207, 2719.513
369.0028, 2697.014
369.4849, 2663.598
369.9670, 2624.205
370.4491, 2599.412
370.9312, 2594.697
371.4134, 2593.516
371.8955, 2586.487
372.3776, 2577.772
372.8597, 2574.323
373.3418, 2581.115
373.8239, 2590.892
374.3061, 2593.865
374.7882, 2589.639
375.2703, 2581.750
375.7524, 2566.278
376.2345, 2551.014
376.7166, 2548.292
377.1988, 2564.560
377.6809, 2577.674
378.1630, 2564.369
378.6451, 2532.451
379.1272, 2516.421
379.6093, 2530.238
380.0915, 2556.661
380.5736, 2572.816
381.0557, 2578.622
381.5378, 2582.139
382.0199, 2584.305
382.5020, 2586.276
382.9842, 2590.397
383.4663, 2597.182
383.9484, 2603.354
384.4305, 2604.875
384.9126, 2601.257
385.3947, 2601.534
385.8769, 2608.269
386.3590, 2617.058
386.8411, 2626.241
387.3232, 2635.155
387.8053, 2640.847
388.2874, 2639.511
388.7696, 2633.489
389.2517, 2643.177
389.7338, 2686.055
390.2159, 2721.696
390.6980, 2733.706
391.1801, 2733.376
391.6623, 2739.071
392.1444, 2758.621
392.6265, 2784.337
393.1086, 2798.832
393.5907, 2784.239
394.0728, 2785.687
394.5550, 2814.381
395.0371, 2850.657
395.5192, 2882.760
396.0013, 2907.064
396.4834, 2923.367
396.9655, 2928.341
397.4477, 2917.271
397.9298, 2920.473
398.4119, 2955.687
398.8940, 2989.013
399.3761, 3006.294
399.8582, 3011.240
400.3404, 3014.964
400.8225, 3024.535
401.3046, 3038.976
401.7867, 3054.273
402.2688, 3072.663
402.7509, 3087.609
403.2331, 3094.327
403.7152, 3097.911
404.1973, 3104.573
404.6794, 3116.852
405.1615, 3131.136
405.6436, 3143.403
406.1258, 3153.755
406.6079, 3161.221
407.0900, 3163.952
407.5721, 3164.816
408.0542, 3165.358
408.5363, 3165.419
409.0185, 3169.480
409.5006, 3182.016
409.9827, 3200.519
410.4648, 3217.999
410.9469, 3232.804
411.4290, 3248.526
411.9112, 3271.971
412.3933, 3301.036
412.8754, 3320.584
413.3575, 3317.960
413.8396, 3311.985
414.3217, 3320.683
414.8039, 3342.946
415.2860, 3364.571
415.7681, 3375.070
416.2502, 3378.799
416.7323, 3397.829
417.2144, 3446.041
417.6966, 3490.401
418.1787, 3518.888
418.6608, 3538.888
419.1429, 3559.779
419.6250, 3585.054
420.1071, 3615.490
420.5893, 3653.222
421.0714, 3702.683
421.5535, 3750.295
422.0356, 3797.950
422.5177, 3842.419
422.9998, 3876.655
423.4820, 3903.866
423.9641, 3938.328
424.4462, 3995.092
424.9283, 4074.557
425.4104, 4140.845
425.8925, 4181.531
426.3747, 4222.136
426.8568, 4263.027
427.3389, 4309.430
427.8210, 4369.330
428.3031, 4447.821
428.7852, 4536.977
429.2674, 4621.147
429.7495, 4700.095
430.2316, 4775.482
430.7137, 4840.273
431.1958, 4905.599
431.6779, 4981.282
432.1601, 5068.208
432.6422, 5155.382
433.1243, 5229.992
433.6064, 5296.134
434.0885, 5376.948
434.5706, 5482.072
435.0528, 5587.026
435.5349, 5670.027
436.0170, 5736.120
436.4991, 5798.963
436.9812, 5853.598
437.4633, 5912.339
437.9455, 5992.789
438.4276, 6092.920
438.9097, 6188.962
439.3918, 6270.159
439.8739, 6336.615
440.3560, 6389.319
440.8382, 6418.827
441.3203, 6451.618
441.8024, 6498.313
442.2845, 6551.196
442.7666, 6600.333
443.2487, 6642.623
443.7309, 6681.010
444.2130, 6719.972
444.6951, 6764.471
445.1772, 6791.129
445.6593, 6800.022
446.1414, 6793.834
446.6236, 6768.541
447.1057, 6728.783
447.5878, 6686.061
448.0699, 6649.492
448.5520, 6615.489
449.0341, 6564.334
449.5163, 6486.296
449.9984, 6405.105
450.4805, 6325.426
450.9626, 6245.508
451.4447, 6164.708
451.9268, 6082.807
452.4090, 5997.793
452.8911, 5906.279
453.3732, 5808.009
453.8553, 5713.293
454.3374, 5637.931
454.8195, 5549.620
455.3017, 5412.908
455.7838, 5239.519
456.2659, 5087.220
456.7480, 5002.480
457.2301, 4946.268
457.7122, 4853.697
458.1944, 4720.774
458.6765, 4587.557
459.1586, 4475.641
459.6407, 4380.742
460.1229, 4285.255
460.6050, 4191.719
461.0871, 4094.225
461.5692, 3982.184
462.0513, 3865.906
462.5334, 3763.590
463.0156, 3680.822
463.4977, 3610.205
463.9798, 3542.537
464.4619, 3479.871
464.9440, 3413.490
465.4261, 3338.669
465.9083, 3264.664
466.3904, 3192.487
466.8725, 3124.779
467.3546, 3070.076
467.8367, 3036.380
468.3188, 3017.005
468.8010, 2977.394
469.2831, 2898.750
469.7652, 2828.611
470.2473, 2775.371
470.7294, 2733.395
471.2115, 2699.350
471.6937, 2672.086
472.1758, 2647.309
472.6579, 2621.684
473.1400, 2595.210
473.6221, 2563.552
474.1042, 2521.587
474.5864, 2481.395
475.0685, 2451.690
475.5506, 2430.158
476.0327, 2409.669
476.5148, 2385.617
476.9969, 2362.626
477.4791, 2348.839
477.9612, 2343.441
478.4433, 2333.803
478.9254, 2313.013
479.4075, 2285.245
479.8896, 2259.871
480.3718, 2234.079
480.8539, 2215.943
481.3360, 2216.181
481.8181, 2221.006
482.3002, 2211.717
482.7823, 2186.260
483.2645, 2160.027
483.7466, 2149.633
484.2287, 2157.161
484.7108, 2156.776
485.1929, 2138.803
485.6750, 2124.156
486.1572, 2121.690
486.6393, 2126.164
487.1214, 2129.461
487.6035, 2127.968
488.0856, 2122.823
488.5677, 2114.727
489.0499, 2100.740
489.5320, 2093.882
490.0141, 2105.053
490.4962, 2116.888
490.9783, 2118.972
491.4604, 2111.890
491.9426, 2103.547
492.4247, 2098.681
492.9068, 2096.173
493.3889, 2093.357
493.8710, 2090.096
494.3531, 2087.105
494.8353, 2083.946
495.3174, 2081.726
495.7995, 2082.432
496.2816, 2085.718
496.7637, 2092.687
497.2458, 2109.540
497.7280, 2129.124
498.2101, 2136.708
498.6922, 2128.364
499.1743, 2115.948
499.6564, 2113.726
500.1385, 2124.501
500.6207, 2131.604
501.1028, 2131.061
501.5849, 2131.361
502.0670, 2138.469
502.5491, 2149.058
503.0313, 2155.897
503.5134, 2154.927
503.9955, 2149.550
504.4776, 2147.654
504.9597, 2149.115
505.4418, 2154.550
505.9240, 2168.857
506.4061, 2183.410
506.8882, 2192.390
507.3703, 2195.887
507.8524, 2198.348
508.3345, 2203.256
508.8167, 2209.457
509.2988, 2212.891
509.7809, 2212.473
510.2630, 2214.019
510.7451, 2221.958
511.2272, 2233.763
511.7094, 2243.806
512.1915, 2251.150
512.6736, 2257.815
513.1557, 2265.749
513.6378, 2273.387
514.1199, 2276.071
514.6021, 2272.683
515.0842, 2271.033
515.5663, 2280.854
516.0484, 2304.984
516.5305, 2321.827
517.0126, 2326.314
517.4948, 2330.122
517.9769, 2339.298
518.4590, 2350.686
518.9411, 2357.119
519.4232, 2354.935
519.9053, 2350.802
520.3875, 2359.885
520.8696, 2388.347
521.3517, 2408.696
521.8338, 2411.092
522.3159, 2409.807
522.7980, 2410.067
523.2802, 2412.993
523.7623, 2420.555
524.2444, 2437.260
524.7265, 2458.017
525.2086, 2472.230
525.6907, 2479.461
526.1729, 2488.553
526.6550, 2502.807
527.1371, 2522.106
527.6192, 2546.993
528.1013, 2581.381
528.5834, 2610.395
529.0656, 2629.954
529.5477, 2641.857
530.0298, 2643.025
530.5119, 2635.478
530.9940, 2634.001
531.4761, 2653.312
531.9583, 2691.987
532.4404, 2716.106
532.9225, 2704.936
533.4046, 2702.827
533.8867, 2724.298
534.3688, 2754.619
534.8510, 2776.981
535.3331, 2786.710
535.8152, 2793.893
536.2973, 2812.917
536.7794, 2843.720
537.2615, 2862.622
537.7437, 2858.884
538.2258, 2858.465
538.7079, 2884.928
539.1900, 2925.519
539.6721, 2952.240
540.1542, 2948.625
540.6364, 2941.202
541.1185, 2952.081
541.6006, 2977.258
542.0827, 3005.380
542.5648, 3033.957
543.0469, 3059.401
543.5291, 3075.990
544.0112, 3080.616
544.4933, 3087.498
544.9754, 3097.114
545.4575, 3108.405
545.9396, 3122.705
546.4218, 3138.024
546.9039, 3150.892
547.3860, 3159.548
547.8681, 3164.224
548.3502, 3165.527
548.8323, 3163.506
549.3145, 3157.940
549.7966, 3139.059
550.2787, 3124.560
550.7608, 3129.737
551.2429, 3150.147
551.7250, 3164.150
552.2072, 3155.186
552.6893, 3135.094
553.1714, 3127.431
553.6535, 3132.145
554.1356, 3122.219
554.6177, 3078.184
555.0999, 3020.403
555.5820, 2992.604
556.0641, 3003.749
556.5462, 3007.997
557.0283, 2998.724
557.5104, 2977.451
557.9926, 2938.996
558.4747, 2888.000
558.9568, 2841.145
559.4389, 2811.940
559.9210, 2795.329
560.4031, 2765.890
560.8853, 2709.907
561.3674, 2664.500
561.8495, 2640.493
562.3316, 2623.803
562.8137, 2604.586
563.2958, 2581.299
563.7780, 2556.511
564.2601, 2534.938
564.7422, 2513.400
565.2243, 2479.285
565.7064, 2429.668
566.1885, 2383.863
566.6707, 2356.447
567.1528, 2337.876
567.6349, 2305.146
568.1170, 2249.515
568.5991, 2200.330
569.0812, 2171.822
569.5634, 2152.589
570.0455, 2130.659
570.5276, 2103.945
571.0097, 2074.521
571.4918, 2043.177
571.9739, 2010.493
572.4561, 1981.884
572.9382, 1964.359
573.4203, 1941.150
573.9024, 1903.854
574.3845, 1863.598
574.8666, 1831.050
575.3488, 1807.912
575.8309, 1787.596
576.3130, 1764.553
576.7951, 1739.463
577.2772, 1714.475
577.7593, 1688.311
578.2415, 1668.182
578.7236, 1665.064
579.2057, 1668.504
579.6878, 1653.337
580.1699, 1608.356
580.6520, 1566.747
581.1342, 1543.959
581.6163, 1530.218
582.0984, 1513.396
582.5805, 1491.854
583.0626, 1472.397
583.5447, 1462.382
584.0269, 1460.194
584.5090, 1443.503
584.9911, 1390.849
585.4732, 1353.083
585.9553, 1350.572
586.4374, 1358.082
586.9196, 1352.026
587.4017, 1328.427
587.8838, 1300.347
588.3659, 1275.655
588.8480, 1247.042
589.3301, 1246.848
589.8123, 1241.832
590.2944, 1232.261
590.7765, 1204.475
591.2586, 1200.208
591.7407, 1186.516
592.2228, 1172.439
592.7050, 1171.480
593.1871, 1146.345
593.6692, 1145.180
594.1513, 1134.446
594.6334, 1128.092
595.1155, 1112.256
595.5977, 1099.344
596.0798, 1095.924
596.5619, 1087.249
597.0440, 1070.320
597.5261, 1064.244
598.0082, 1038.778
598.4904, 1030.324
598.9725, 1029.216
599.4546, 1012.764
599.9367, 1006.861
600.4188, 996.9411
600.9009, 968.7621
601.3831, 972.3350
601.8652, 962.1786
602.3473, 946.3608
602.8294, 937.5676
603.3115, 927.7126
603.7936, 919.3905
604.2758, 913.5353
604.7579, 906.6000
605.2400, 897.1467
605.7221, 887.2327
606.2042, 878.5557
606.6863, 870.9723
607.1685, 863.2242
607.6506, 854.3767
608.1327, 845.2905
608.6148, 838.4966
609.0969, 834.5953
609.5790, 831.1360
610.0612, 828.6741
610.5433, 825.6838
611.0254, 822.5549
611.5075, 818.4763
611.9896, 809.8718
612.4717, 789.0548
612.9539, 767.3950
613.4360, 758.0531
613.9181, 758.9257
614.4002, 761.3630
614.8823, 762.6093
615.3644, 762.2756
615.8466, 759.6127
616.3287, 753.9562
616.8108, 748.2783
617.2929, 742.9999
617.7750, 737.3010
618.2571, 729.3847
618.7393, 721.1825
619.2214, 716.6075
619.7035, 717.3938
620.1856, 718.9880
620.6677, 713.8627
621.1498, 702.2390
621.6320, 695.7698
622.1141, 698.9832
622.5962, 700.4485
623.0783, 688.2338
623.5604, 667.9007
624.0425, 654.7780
624.5247, 654.0457
625.0068, 655.9738
625.4889, 658.3988
625.9710, 659.9190
626.4531, 657.6256
626.9352, 651.4012
627.4174, 644.9654
627.8995, 641.9604
628.3816, 642.1369
628.8637, 641.6443
629.3458, 640.5764
629.8279, 638.6313
630.3101, 635.3520
630.7922, 631.5266
631.2743, 627.3697
631.7564, 623.0590
632.2385, 620.0747
632.7206, 619.3929
633.2028, 620.6553
633.6849, 625.0831
634.1670, 632.3361
634.6491, 634.6520
635.1312, 626.9409
635.6133, 614.2770
636.0955, 607.4312
636.5776, 610.2384
637.0597, 611.2167
637.5418, 609.1313
638.0239, 606.2587
638.5060, 603.3467
638.9882, 600.7922
639.4703, 599.4909
639.9524, 600.1342
640.4345, 600.7947
640.9166, 597.3342
641.3987, 589.5302
641.8809, 584.0632
642.3630, 582.0726
642.8451, 582.3917
643.3272, 587.3737
643.8093, 594.4612
644.2914, 594.2548
644.7736, 577.8272
645.2557, 562.4857
645.7378, 557.0775
646.2199, 557.2981
646.7020, 556.2055
647.1841, 552.6565
647.6663, 551.5089
648.1484, 558.4373
648.6305, 572.5930
649.1126, 581.3234
649.5947, 583.7006
650.0768, 582.0814
650.5590, 572.9622
651.0411, 563.0056
651.5232, 558.8624
652.0053, 561.0280
652.4874, 562.6287
652.9695, 558.1484
653.4517, 552.0823
653.9338, 550.7359
654.4159, 553.6940
654.8980, 556.9767
655.3801, 558.8101
655.8622, 560.0189
656.3444, 562.5172
656.8265, 568.7173
657.3086, 569.3829
657.7907, 558.0530
658.2728, 548.6565
658.7549, 547.6925
659.2371, 552.6071
659.7192, 559.4987
660.2013, 567.4396
660.6834, 572.7468
661.1655, 568.6110
661.6476, 557.6518
662.1298, 553.3152
662.6119, 558.3310
663.0940, 563.6494
663.5761, 563.2652
664.0582, 557.9902
664.5403, 551.7598
665.0225, 541.7708
665.5046, 534.8658
665.9867, 533.3567
666.4688, 534.4569
666.9509, 536.6254
667.4330, 539.2007
667.9152, 541.3769
668.3973, 542.6523
668.8794, 543.0942
669.3615, 542.3861
669.8436, 540.2254
670.3257, 539.6937
670.8079, 542.1276
671.2900, 545.5012
671.7721, 548.7636
672.2542, 551.6464
672.7363, 551.8256
673.2184, 546.5020
673.7006, 541.0512
674.1827, 538.3115
674.6648, 537.1365
675.1469, 535.1609
675.6290, 532.0733
676.1111, 530.4485
676.5933, 533.5259
677.0754, 540.7518
677.5575, 545.2254
678.0396, 546.3090
678.5217, 546.0782
679.0038, 544.1323
679.4860, 541.8331
679.9681, 540.1210
680.4502, 539.0439
680.9323, 539.6038
681.4144, 544.1589
681.8965, 548.9497
682.3787, 550.0467
682.8608, 548.3495
683.3429, 546.4604
683.8250, 545.3903
684.3071, 545.7560
684.7892, 549.3369
685.2714, 557.6109
685.7535, 559.9828
686.2356, 550.5269
686.7177, 542.9668
687.1998, 542.3201
687.6819, 546.0526
688.1641, 551.7042
688.6462, 559.1520
689.1283, 565.2598
689.6104, 569.0666
690.0925, 569.8698
690.5746, 564.5015
691.0568, 554.0908
691.5389, 546.0724
692.0210, 544.3868
692.5031, 547.6655
692.9852, 553.4046
693.4673, 564.5617
693.9495, 570.9780
694.4316, 568.1473
694.9137, 565.2117
695.3958, 567.8407
695.8779, 572.5007
696.3600, 571.4750
696.8422, 560.6026
697.3243, 551.0508
697.8064, 554.6081
698.2885, 565.7388
698.7706, 572.2520
699.2527, 572.8548
699.7349, 573.2422
700.2170, 577.5154
700.6991, 583.9382
701.1812, 586.2227
701.6633, 579.3925
702.1454, 577.0859
702.6276, 584.5283
703.1097, 591.5234
703.5918, 592.4709
704.0739, 588.3618
704.5560, 581.5117
705.0381, 570.6990
705.5203, 563.4873
706.0024, 571.8239
706.4845, 589.9835
706.9666, 600.4934
707.4487, 600.3342
707.9308, 598.4494
708.4130, 601.6885
708.8951, 608.9249
709.3772, 614.2795
709.8593, 618.0282
710.3414, 619.3354
710.8235, 614.1226
711.3057, 610.0419
711.7878, 614.0406
712.2699, 623.7153
712.7520, 630.3146
713.2341, 627.3602
713.7162, 624.0313
714.1984, 634.6642
714.6805, 654.1842
715.1626, 663.0370
715.6447, 656.7248
716.1268, 650.2909
716.6089, 657.4908
717.0911, 675.5986
717.5732, 684.5747
718.0553, 672.7612
718.5374, 668.0652
719.0195, 678.8336
719.5016, 691.8585
719.9838, 696.4073
720.4659, 694.4726
720.9480, 696.5010
721.4301, 710.3201
721.9122, 726.0510
722.3943, 730.8196
722.8765, 727.5765
723.3586, 725.5264
723.8407, 726.4402
724.3228, 732.5565
724.8049, 747.5239
725.2870, 769.5801
725.7692, 782.5168
726.2513, 777.1404
726.7334, 776.1513
727.2155, 783.3409
727.6976, 793.8085
728.1797, 804.4276
728.6619, 815.1610
729.1440, 827.2654
729.6261, 842.6469
730.1082, 857.7718
730.5903, 868.1097
731.0724, 875.2114
731.5546, 883.7357
732.0367, 894.6332
732.5188, 904.8204
733.0009, 911.3123
733.4830, 914.9097
733.9651, 921.2156
734.4473, 931.5698
734.9294, 942.4064
735.4115, 952.0511
735.8936, 963.0756
736.3757, 978.7460
736.8578, 997.4007
737.3400, 1013.167
737.8221, 1021.969
738.3042, 1029.906
738.7863, 1042.870
739.2684, 1058.710
739.7505, 1073.847
740.2327, 1087.486
740.7148, 1097.443
741.1969, 1101.261
741.6790, 1101.017
742.1611, 1105.634
742.6432, 1114.552
743.1254, 1129.809
743.6075, 1158.490
744.0896, 1187.278
744.5717, 1210.186
745.0538, 1227.043
745.5359, 1237.584
746.0181, 1238.028
746.5002, 1238.661
746.9823, 1246.293
747.4644, 1257.790
747.9465, 1269.069
748.4286, 1279.462
748.9108, 1289.315
749.3929, 1298.936
749.8750, 1308.173
750.3571, 1316.883
750.8392, 1325.319
751.3214, 1332.013
751.8035, 1336.005
752.2856, 1339.324
752.7677, 1342.239
753.2498, 1345.585
753.7319, 1351.535
754.2141, 1361.197
754.6962, 1371.719
755.1783, 1382.359
755.6604, 1393.246
756.1425, 1406.469
756.6246, 1420.190
757.1068, 1427.697
757.5889, 1424.754
758.0710, 1419.115
758.5531, 1426.331
759.0352, 1446.106
759.5173, 1456.995
759.9995, 1453.476
760.4816, 1452.949
760.9637, 1468.288
761.4458, 1492.763
761.9279, 1508.300
762.4100, 1511.877
762.8922, 1515.275
763.3743, 1516.597
763.8564, 1521.253
764.3385, 1533.630
764.8206, 1551.613
765.3027, 1571.537
765.7849, 1592.119
766.2670, 1611.930
766.7491, 1629.829
767.2312, 1645.796
767.7133, 1659.422
768.1954, 1670.595
768.6776, 1680.872
769.1597, 1689.589
769.6418, 1700.920
770.1239, 1723.077
770.6060, 1760.462
771.0881, 1792.391
771.5703, 1815.979
772.0524, 1837.917
772.5345, 1858.478
773.0166, 1879.471
773.4987, 1903.917
773.9808, 1932.093
774.4630, 1959.081
774.9451, 1980.943
775.4272, 2000.818
775.9093, 2018.779
776.3914, 2037.950
776.8735, 2069.154
777.3557, 2115.761
777.8378, 2170.394
778.3199, 2226.833
778.8020, 2284.077
779.2841, 2321.855
779.7662, 2326.709
780.2484, 2341.857
780.7305, 2382.496
781.2126, 2434.390
781.6947, 2486.877
782.1768, 2539.729
782.6589, 2594.549
783.1411, 2649.090
783.6232, 2708.755
784.1053, 2779.264
784.5874, 2854.819
785.0695, 2923.999
785.5516, 2988.734
786.0338, 3068.317
786.5159, 3180.740
786.9980, 3307.597
787.4801, 3401.148
787.9622, 3461.739
788.4443, 3545.636
788.9265, 3667.029
789.4086, 3796.030
789.8907, 3911.174
790.3728, 4015.468
790.8549, 4122.633
791.3370, 4224.137
791.8192, 4340.887
792.3013, 4472.874
792.7834, 4620.987
793.2655, 4799.399
793.7476, 4990.646
794.2297, 5156.776
794.7119, 5281.041
795.1940, 5402.733
795.6761, 5559.332
796.1582, 5735.989
796.6403, 5907.300
797.1224, 6071.033
797.6046, 6225.423
798.0867, 6368.835
798.5688, 6513.530
799.0509, 6684.603
799.5330, 6890.685
800.0151, 7062.850
800.4973, 7179.977
800.9794, 7295.879
801.4615, 7435.530
801.9436, 7580.304
802.4257, 7712.843
802.9078, 7831.387
803.3900, 7946.326
803.8721, 8060.457
804.3542, 8172.366
804.8363, 8277.703
805.3184, 8382.521
805.8005, 8493.635
806.2827, 8613.337
806.7648, 8743.305
807.2469, 8886.716
807.7290, 9039.366
808.2111, 9185.713
808.6932, 9326.469
809.1754, 9488.224
809.6575, 9680.330
810.1396, 9874.437
810.6217, 10038.92
811.1038, 10182.51
811.5859, 10367.33
812.0681, 10607.97
812.5502, 10870.02
813.0323, 11164.95
813.5144, 11467.93
813.9965, 11753.88
814.4786, 12038.85
814.9608, 12361.36
815.4429, 12732.17
815.9250, 13140.74
816.4071, 13569.91
816.8892, 14035.80
817.3713, 14559.62
817.8535, 15142.44
818.3356, 15783.61
818.8177, 16482.90
819.2998, 17236.15
819.7819, 18034.24
820.2640, 18881.55
820.7462, 19787.28
821.2283, 20753.73
821.7104, 21775.96
822.1925, 22831.01
822.6746, 23958.19
823.1567, 25202.84
823.6389, 26578.11
824.1210, 27990.60
824.6031, 29414.90
825.0852, 30912.00
825.5673, 32537.78
826.0494, 34215.85
826.5316, 35863.23
827.0137, 37472.83
827.4958, 39095.96
827.9779, 40774.39
828.4600, 42444.05
828.9421, 44085.78
829.4243, 45653.61
829.9064, 47059.46
830.3885, 48286.21
830.8707, 49278.21
831.3528, 49999.96
831.8349, 50464.49
832.3170, 50713.76
832.7991, 50754.48
833.2813, 50548.52
833.7634, 50087.46
834.2455, 49388.65
834.7276, 48418.28
835.2097, 47223.19
835.6918, 45893.22
836.1740, 44407.38
836.6561, 42887.17
837.1382, 41360.00
837.6203, 39784.78
838.1024, 38140.09
838.5845, 36439.31
839.0667, 34683.54
839.5488, 32877.26
840.0309, 31093.21
840.5130, 29392.38
840.9951, 27738.45
841.4772, 26045.30
841.9594, 24341.61
842.4415, 22714.25
842.9236, 21193.79
843.4057, 19727.65
843.8878, 18265.68
844.3699, 16836.00
844.8521, 15511.36
845.3342, 14300.30
845.8163, 13193.78
846.2984, 12205.86
846.7805, 11309.13
847.2626, 10488.68
847.7448, 9742.022
848.2269, 9058.154
848.7090, 8439.948
849.1911, 7876.947
849.6732, 7369.833
850.1553, 6911.417
850.6375, 6502.929
851.1196, 6137.264
851.6017, 5809.604
852.0838, 5515.462
852.5659, 5241.785
853.0480, 4973.872
853.5302, 4720.334
854.0123, 4497.994
854.4944, 4302.814
854.9765, 4115.999
855.4586, 3933.721
855.9407, 3755.308
856.4229, 3579.484
856.9050, 3410.014
857.3871, 3261.399
857.8692, 3136.766
858.3513, 3022.589
858.8334, 2917.128
859.3156, 2821.969
859.7977, 2741.439
860.2798, 2671.305
860.7619, 2596.372
861.2440, 2514.432
861.7261, 2432.741
862.2083, 2351.883
862.6904, 2270.876
863.1725, 2182.322
863.6546, 2095.845
864.1367, 2027.769
864.6188, 1981.082
865.1010, 1942.020
865.5831, 1908.357
866.0652, 1871.832
866.5473, 1818.516
867.0294, 1754.896
867.5115, 1696.015
867.9937, 1646.094
868.4758, 1603.364
868.9579, 1566.858
869.4400, 1535.544
869.9221, 1507.637
870.4042, 1483.537
870.8864, 1456.652
871.3685, 1425.630
871.8506, 1392.662
872.3327, 1357.493
872.8148, 1322.303
873.2969, 1293.853
873.7791, 1277.043
874.2612, 1255.974
874.7433, 1224.921
875.2254, 1196.499
875.7075, 1176.688
876.1896, 1161.576
876.6718, 1146.273
877.1539, 1130.164
877.6360, 1113.845
878.1181, 1098.641
878.6002, 1082.305
879.0823, 1061.872
879.5645, 1039.884
880.0466, 1019.655
880.5287, 1001.948
881.0108, 986.5909
881.4929, 973.4858
881.9750, 962.3856
882.4572, 953.6430
882.9393, 946.6292
883.4214, 938.6529
883.9035, 929.4460
884.3856, 918.8296
884.8677, 906.4536
885.3499, 893.6901
885.8320, 883.8719
886.3141, 878.1520
886.7962, 867.2405
887.2783, 848.9728
887.7604, 829.7651
888.2426, 810.6816
888.7247, 792.4458
889.2068, 775.9078
889.6889, 761.0451
890.1710, 746.3904
890.6531, 732.6263
891.1353, 718.0931
891.6174, 701.4630
892.0995, 684.5645
892.5816, 668.4412
893.0637, 653.4009
893.5458, 639.9551
894.0280, 628.5185
894.5101, 617.3945
894.9922, 603.1234
895.4743, 589.6977
895.9564, 583.8115
896.4385, 583.6212
896.9207, 583.2875
897.4028, 580.5737
897.8849, 575.5500
898.3670, 566.9804
898.8491, 556.6859
899.3312, 552.8567
899.8134, 555.4559
900.2955, 552.9344
900.7776, 541.7207
901.2597, 529.8238
901.7418, 523.8375
902.2239, 522.4468
902.7061, 519.9004
903.1882, 515.7317
903.6703, 511.5444
904.1524, 507.5319
904.6345, 503.2946
905.1166, 498.1797
905.5988, 492.9142
906.0809, 489.2510
906.5630, 487.8868
907.0451, 483.3667
907.5272, 468.5709
908.0093, 457.6322
908.4915, 459.4194
908.9736, 466.6288
909.4557, 474.0106
909.9378, 479.0529
910.4199, 476.3941
910.9020, 459.6099
911.3842, 441.9138
911.8663, 436.1318
912.3484, 436.7643
912.8305, 436.0924
913.3126, 433.3764
913.7947, 430.1051
914.2769, 426.9705
914.7590, 423.0573
915.2411, 415.3108
915.7232, 405.5239
916.2053, 403.9825
916.6874, 410.6391
917.1696, 415.5164
917.6517, 415.7635
918.1338, 412.4901
918.6159, 406.0710
919.0980, 397.3125
919.5801, 391.0972
920.0623, 387.4694
920.5444, 386.4719
921.0265, 390.6372
921.5086, 393.6595
921.9907, 390.5661
922.4728, 384.3180
922.9550, 381.0461
923.4371, 381.3073
923.9192, 382.2624
924.4013, 386.3451
924.8834, 387.8719
925.3655, 381.3488
925.8477, 373.3900
926.3298, 372.4125
926.8119, 377.7408
927.2940, 380.1941
927.7761, 374.2318
928.2582, 367.2909
928.7404, 362.9374
929.2225, 361.0692
929.7046, 362.5703
930.1867, 366.3708
930.6688, 369.8684
931.1509, 371.9773
931.6331, 373.1544
932.1152, 373.5712
932.5973, 373.5435
933.0794, 373.7289
933.5615, 374.1079
934.0436, 374.1036
934.5258, 373.6218
935.0079, 374.7886
935.4900, 379.9443
935.9721, 387.2788
936.4542, 390.1884
936.9363, 388.1948
937.4185, 388.6666
937.9006, 393.0631
938.3827, 397.2017
938.8648, 398.9380
939.3469, 398.9996
939.8290, 399.0295
940.3112, 399.7420
940.7933, 395.8435
941.2754, 382.3531
941.7575, 371.9756
942.2396, 368.7804
942.7217, 368.9587
943.2039, 372.5484
943.6860, 377.5498
944.1681, 374.9428
944.6502, 356.0639
945.1323, 342.7787
945.6144, 345.7650
946.0966, 349.3963
946.5787, 342.1388
947.0608, 329.2881
947.5429, 319.9680
948.0250, 316.1413
948.5071, 314.8874
948.9893, 316.8280
949.4714, 318.4410
949.9535, 316.9560
950.4356, 313.2857
950.9177, 307.7886
951.3998, 301.3958
951.8820, 296.4832
952.3641, 294.1889
952.8462, 294.7361
953.3283, 301.4044
953.8104, 310.1509
954.2925, 310.3297
954.7747, 302.9808
955.2568, 295.7512
955.7389, 291.4584
956.2210, 290.9773
956.7031, 296.5859
957.1852, 305.5055
957.6674, 305.9525
958.1495, 297.7753
958.6316, 291.9337
959.1137, 290.5913
959.5958, 288.7567
960.0779, 282.3946
960.5601, 275.2229
961.0422, 276.5551
961.5243, 289.6040
962.0064, 292.1133
962.4885, 277.0627
962.9706, 267.1685
963.4528, 272.4979
963.9349, 282.0394
964.4170, 284.2007
964.8991, 279.9887
965.3812, 280.2165
965.8633, 289.8397
966.3455, 296.2383
966.8276, 296.7805
967.3097, 296.0771
967.7918, 297.9895
968.2739, 299.4655
968.7560, 294.5572
969.2382, 282.0987
969.7203, 271.9906
970.2024, 266.1278
970.6845, 264.3344
971.1666, 270.1835
971.6487, 277.3291
972.1309, 278.8420
972.6130, 275.6151
973.0951, 273.3499
973.5772, 274.8985
974.0593, 274.9693
974.5414, 265.2730
975.0236, 255.9254
975.5057, 262.1044
975.9878, 276.2274
976.4699, 280.6123
976.9520, 271.9343
977.4341, 261.7178
977.9163, 257.7048
978.3984, 258.4140
978.8805, 264.6816
979.3626, 273.2383
979.8447, 274.6490
980.3268, 269.1979
980.8090, 265.0472
981.2911, 266.0642
981.7732, 269.4196
982.2553, 271.9565
982.7374, 273.5891
983.2195, 273.2137
983.7017, 271.0251
984.1838, 271.6350
984.6659, 276.4304
985.1480, 278.6269
985.6301, 272.4481
986.1122, 261.6928
986.5944, 256.7795
987.0765, 258.6353
987.5586, 257.0197
988.0407, 249.7290
988.5228, 247.3530
989.0049, 255.7839
989.4871, 266.8607
989.9692, 271.4087
990.4513, 269.8803
990.9334, 268.0380
991.4155, 266.2794
991.8976, 263.0912
992.3798, 255.7498
992.8619, 250.7176
993.3440, 244.0659
993.8261, 255.1215
994.3082, 261.3594
994.7903, 263.0385
995.2725, 246.5046
995.7546, 253.4890
996.2367, 251.0484
996.7188, 248.2212
997.2009, 258.5157
997.6830, 244.6309
998.1652, 254.7173
998.6473, 255.2348
999.1294, 260.1318
999.6115, 255.5455
1000.094, 253.8883
1000.576, 261.7174
1001.058, 264.2938
1001.540, 258.6158
1002.022, 263.7911
1002.504, 249.5750
1002.986, 252.3752
1003.468, 262.5171
1003.951, 257.3160
1004.433, 262.6647
1004.915, 263.9955
1005.397, 247.0661
1005.879, 261.8929
1006.361, 262.9862
1006.843, 249.9782
1007.325, 263.7169
1007.807, 252.6529
1008.290, 250.4421
1008.772, 254.8936
1009.254, 252.3998
1009.736, 260.8561
1010.218, 258.7634
1010.700, 255.7281
1011.182, 256.8060
1011.664, 246.2284
1012.147, 257.2742
1012.629, 253.5493
1013.111, 257.1666
1013.593, 262.4480
1014.075, 257.2723
1014.557, 253.1484
1015.039, 249.6145
1015.521, 251.1105
1016.003, 254.9715
1016.486, 257.4637
1016.968, 258.8766
1017.450, 260.7672
1017.932, 262.7261
1018.414, 260.9890
1018.896, 254.5281
1019.378, 248.7506
1019.860, 248.7267
1020.343, 252.3474
1020.825, 254.1793
1021.307, 254.4480
1021.789, 256.1986
1022.271, 259.7229
1022.753, 260.3797
1023.235, 255.7911
1023.717, 250.5226
1024.199, 250.4106
1024.682, 254.5337
1025.164, 257.8028
1025.646, 260.3514
1026.128, 259.7038
1026.610, 254.8742
1027.092, 250.3033
1027.574, 248.4423
1028.056, 248.4330
1028.538, 248.9832
1029.021, 250.1264
1029.503, 250.0935
1029.985, 247.9323
1030.467, 248.8186
1030.949, 255.3513
1031.431, 261.1612
1031.913, 261.0494
1032.395, 257.5404
1032.878, 257.4159
1033.360, 261.9324
1033.842, 263.9862
1034.324, 262.4541
1034.806, 261.0131
1035.288, 260.9732
1035.770, 260.9698
1036.252, 259.6853
1036.734, 257.4360
1037.217, 255.7272
1037.699, 256.2646
1038.181, 253.2897
1038.663, 241.5736
1039.145, 234.3596
1039.627, 239.9788
1040.109, 249.0918
1040.591, 251.0622
1041.073, 246.7368
1041.556, 245.8187
1042.038, 252.5861
1042.520, 256.1099
1043.002, 252.4577
1043.484, 249.7384
1043.966, 252.1742
1044.448, 256.9662
1044.930, 261.6527
1045.413, 266.1378
1045.895, 266.2472
1046.377, 260.0235
1046.859, 251.8729
1047.341, 236.9627
1047.823, 226.0296
1048.305, 227.6019
1048.787, 236.0778
1049.270, 242.7731
1049.752, 246.8684
1050.234, 250.7298
1050.716, 256.9364
1051.198, 259.9280
1051.680, 255.6207
1052.162, 250.1786
1052.644, 247.3335
1053.126, 246.8187
1053.609, 247.7654
1054.091, 250.2272
1054.573, 252.7213
1055.055, 257.5382
1055.537, 258.9226
1056.019, 250.5141
1056.501, 241.4163
1056.983, 240.4155
1057.465, 245.0357
1057.948, 246.9980
1058.430, 243.5197
1058.912, 243.5812
1059.394, 255.8007
1059.876, 265.0485
1060.358, 262.5287
1060.840, 254.9126
1061.322, 246.9201
1061.805, 240.0865
1062.287, 237.0336
1062.769, 239.5423
1063.251, 241.4598
1063.733, 239.1650
1064.215, 237.2108
1064.697, 238.3939
1065.179, 241.1510
1065.661, 244.5453
1066.144, 247.8024
1066.626, 249.1248
1067.108, 247.8856
1067.590, 244.9078
1068.072, 237.5511
1068.554, 231.7775
1069.036, 232.0745
1069.518, 235.8203
1070.000, 241.4303
1070.483, 247.3434
1070.965, 248.6081
1071.447, 241.8277
1071.929, 234.4830
1072.411, 228.1582
1072.893, 224.2690
1073.375, 224.3329
1073.857, 227.1815
1074.340, 232.4897
1074.822, 239.2606
1075.304, 243.4961
1075.786, 242.0280
1076.268, 241.3287
1076.750, 247.7971
1077.232, 252.7671
1077.714, 246.4004
1078.197, 236.1355
1078.679, 234.1775
1079.161, 240.9629
1079.643, 246.3764
1080.125, 246.6634
1080.607, 244.6705
1081.089, 239.4529
1081.571, 234.7752
1082.053, 234.5694
1082.536, 236.2802
1083.018, 236.5096
1083.500, 234.4890
1083.982, 229.5775
1084.464, 217.3618
1084.946, 209.3533
1085.428, 214.1080
1085.910, 221.8870
1086.393, 226.4259
1086.875, 228.3111
1087.357, 229.0337
1087.839, 228.9403
1088.321, 228.3501
1088.803, 226.8332
1089.285, 225.7053
1089.767, 225.6857
1090.250, 226.0837
1090.732, 226.5201
1091.214, 226.9517
1091.696, 227.7016
1092.178, 228.6492
1092.660, 228.3303
1093.142, 224.3121
1093.624, 221.8405
1094.106, 224.6599
1094.589, 227.9331
1095.071, 228.4080
1095.553, 226.9740
1096.035, 224.3687
1096.517, 221.1039
1096.999, 220.5052
1097.481, 227.3533
1097.963, 231.5093
1098.445, 227.5598
1098.928, 222.2258
1099.410, 219.6370
1099.892, 218.6620
1100.374, 207.7873
1100.856, 218.6416
1101.338, 224.6781
1101.820, 226.1559
1102.302, 209.4206
1102.785, 216.2033
1103.267, 213.5613
1103.749, 210.5327
1104.231, 220.6259
1104.713, 206.5396
1105.195, 216.4247
1105.677, 216.7408
1106.159, 221.4364
1106.641, 216.6487
1107.124, 214.7898
1107.606, 222.4175
1108.088, 224.7926
1108.570, 218.9132
1109.052, 223.8872
1109.534, 209.4696
1110.016, 212.0684
1110.498, 222.0090
1110.980, 216.6064
1111.463, 221.7535
1111.945, 222.8828
1112.427, 205.7521
1112.909, 220.3775
1113.391, 221.2694
1113.873, 208.0601
1114.355, 221.5974
1114.837, 210.3320
1115.320, 207.9194
1115.802, 212.1696
1116.284, 209.4743
1116.766, 217.7293
1117.248, 215.4351
1117.730, 215.8654
1118.212, 224.5051
1118.694, 226.1645
1119.177, 215.0939
1119.659, 210.5422
1120.141, 217.4871
1120.623, 221.4309
1121.105, 215.3254
1121.587, 207.6403
1122.069, 207.0902
1122.551, 211.5441
1123.033, 211.7958
1123.516, 205.9944
1123.998, 202.4116
1124.480, 201.3386
1124.962, 201.9520
1125.444, 204.8348
1125.926, 207.1348
1126.408, 205.9278
1126.890, 202.8520
1127.372, 202.9546
1127.855, 206.7312
1128.337, 210.0678
1128.819, 213.1409
1129.301, 214.6607
1129.783, 214.2593
1130.265, 212.0113
1130.747, 207.3853
1131.229, 202.6411
1131.712, 203.8059
1132.194, 210.5385
1132.676, 211.2957
1133.158, 206.0527
1133.640, 204.1837
1134.122, 207.8211
1134.604, 210.1520
1135.086, 206.6366
1135.568, 200.9372
1136.051, 198.9659
1136.533, 199.9254
1137.015, 200.5781
1137.497, 200.8603
1137.979, 200.0587
1138.461, 198.2360
1138.943, 197.0862
1139.425, 197.4933
1139.907, 198.2549
1140.390, 197.3514
1140.872, 196.1864
1141.354, 198.3136
1141.836, 202.6091
1142.318, 206.5985
1142.800, 209.6449
1143.282, 210.5517
1143.764, 208.9634
1144.247, 207.0888
1144.729, 207.2293
1145.211, 207.7139
1145.693, 205.3643
1146.175, 202.4870
1146.657, 203.5230
1147.139, 207.2621
1147.621, 209.9157
1148.104, 210.4027
1148.586, 209.7532
1149.068, 208.2186
1149.550, 206.4824
1150.032, 205.2551
1150.514, 203.9493
1150.996, 201.5668
1151.478, 198.8371
1151.960, 196.8514
1152.443, 195.8572
1152.925, 195.7409
1153.407, 195.7641
1153.889, 198.2636
1154.371, 208.4691
1154.853, 216.8277
1155.335, 216.9577
1155.817, 211.9398
1156.299, 202.8484
1156.782, 192.1190
1157.264, 188.1698
1157.746, 195.7833
1158.228, 200.8763
1158.710, 198.1255
1159.192, 195.9147
1159.674, 198.8701
1160.156, 202.0290
1160.639, 200.4733
1161.121, 195.9548
1161.603, 193.2995
1162.085, 192.2837
1162.567, 194.5297
1163.049, 204.2878
1163.531, 209.1569
1164.013, 204.2889
1164.495, 198.5751
1164.978, 197.4001
1165.460, 198.4050
1165.942, 197.4893
1166.424, 194.7029
1166.906, 194.0909
1167.388, 196.3466
1167.870, 197.4907
1168.352, 197.2532
1168.834, 194.1420
1169.317, 186.5537
1169.799, 180.1020
1170.281, 181.8660
1170.763, 189.4168
1171.245, 193.6963
1171.727, 194.9875
1172.209, 197.3955
1172.691, 201.0204
1173.174, 202.7525
1173.656, 201.6483
1174.138, 199.2783
1174.620, 196.5273
1175.102, 194.7231
1175.584, 198.1604
1176.066, 203.4050
1176.548, 199.4983
1177.031, 190.3171
1177.513, 190.3482
1177.995, 200.0069
1178.477, 205.4459
1178.959, 199.1942
1179.441, 190.5983
1179.923, 187.6478
1180.405, 187.5528
1180.887, 188.2272
1181.370, 189.1243
1181.852, 188.2033
1182.334, 187.1436
1182.816, 192.0347
1183.298, 204.5327
1183.780, 212.7596
1184.262, 208.0380
1184.744, 201.2327
1185.226, 195.4429
1185.709, 191.8047
1186.191, 193.8739
1186.673, 197.1884
1187.155, 192.6737
1187.637, 180.6411
1188.119, 176.2556
1188.601, 188.1675
1189.083, 197.5598
1189.566, 203.7599
1190.048, 205.6144
1190.530, 199.6739
1191.012, 192.3663
1191.494, 188.7026
1191.976, 188.7124
1192.458, 193.3811
1192.940, 205.2460
1193.422, 209.0791
1193.905, 201.3474
1194.387, 198.9107
1194.869, 207.6095
1195.351, 213.4681
1195.833, 206.6202
1196.315, 195.0063
1196.797, 192.1923
1197.279, 196.4923
1197.761, 195.8211
1198.244, 190.9395
1198.726, 193.2372
1199.208, 203.1405
1199.690, 207.8524
1200.172, 202.4104
1200.654, 193.9305
1201.136, 187.9399
1201.618, 185.6009
1202.101, 191.4625
1202.583, 201.0044
1203.065, 205.7460
1203.547, 206.3082
1204.029, 205.6109
1204.511, 204.3518
1204.993, 201.8161
1205.475, 197.2990
1205.958, 193.1819
1206.440, 190.5196
1206.922, 189.6704
1207.404, 191.2281
1207.886, 194.5202
1208.368, 200.6124
1208.850, 207.3461
1209.332, 208.6776
1209.814, 202.7432
1210.297, 200.8000
1210.779, 212.6200
1211.261, 218.3495
1211.743, 206.7404
1212.225, 195.2740
1212.707, 194.8015
1213.189, 199.0681
1213.671, 201.6428
1214.153, 202.3085
1214.636, 198.4186
1215.118, 185.9295
1215.600, 183.1880
1216.082, 193.9270
1216.564, 202.1367
1217.046, 202.6473
1217.528, 201.0610
1218.010, 201.2242
1218.493, 203.3594
1218.975, 209.6308
1219.457, 218.4975
1219.939, 218.0823
1220.421, 209.9111
1220.903, 203.8072
1221.385, 201.0547
1221.867, 198.8392
1222.349, 195.9839
1222.832, 194.3884
1223.314, 196.5019
1223.796, 199.6114
1224.278, 200.2580
1224.760, 199.5173
1225.242, 197.5726
1225.724, 196.0584
1226.206, 198.9423
1226.688, 205.7275
1227.171, 210.4346
1227.653, 210.1087
1228.135, 209.5437
1228.617, 211.6702
1229.099, 213.1973
1229.581, 213.1312
1230.063, 211.0626
1230.545, 203.4259
1231.028, 194.5317
1231.510, 195.7866
1231.992, 209.8061
1232.474, 214.5975
1232.956, 204.3181
1233.438, 197.2697
1233.920, 196.2861
1234.402, 195.7118
1234.885, 192.4968
1235.367, 190.8154
1235.849, 195.7551
1236.331, 204.4891
1236.813, 207.8928
1237.295, 206.2330
1237.777, 204.4421
1238.259, 202.6447
1238.741, 200.3311
1239.224, 197.6276
1239.706, 197.6446
1240.188, 202.1729
1240.670, 206.3816
1241.152, 203.7278
1241.634, 198.6624
1242.116, 196.8858
1242.598, 197.7247
1243.080, 201.8248
1243.563, 207.0734
1244.045, 208.8456
1244.527, 206.6204
1245.009, 204.6584
1245.491, 205.0113
1245.973, 205.2223
1246.455, 204.5143
1246.937, 203.1040
1247.420, 199.4866
1247.902, 196.6338
1248.384, 198.6182
1248.866, 203.2769
1249.348, 204.3259
1249.830, 201.0746
1250.312, 200.5436
1250.794, 204.0610
1251.276, 206.4582
1251.759, 206.8974
1252.241, 207.0610
1252.723, 207.7331
1253.205, 208.2142
1253.687, 208.0486
1254.169, 206.5540
1254.651, 199.6594
1255.133, 189.8060
1255.615, 191.7883
1256.098, 202.4819
1256.580, 205.2083
1257.062, 198.6414
1257.544, 195.0187
1258.026, 200.0584
1258.508, 205.8259
1258.990, 204.3658
1259.472, 201.8514
1259.955, 196.2711
1260.437, 207.2565
1260.919, 213.4243
1261.401, 215.0333
1261.883, 198.4293
1262.365, 205.3436
1262.847, 202.8328
1263.329, 199.9355
1263.812, 210.1599
1264.294, 196.2049
1264.776, 206.2212
1265.258, 206.6686
1265.740, 211.4954
1266.222, 206.8390
1266.704, 205.1116
1267.186, 212.8706
1267.668, 215.3769
1268.151, 209.6288
1268.633, 214.7340
1269.115, 200.4478
1269.597, 203.1778
1270.079, 213.2496
1270.561, 207.9783
1271.043, 213.2570
1271.525, 214.5176
1272.007, 197.5181
1272.490, 212.2748
1272.972, 213.2979
1273.454, 200.2198
1273.936, 213.8884
1274.418, 202.7543
1274.900, 213.9734
1275.382, 218.0454
1275.864, 214.7799
1276.347, 209.3961
1276.829, 201.0851
1277.311, 195.2484
1277.793, 193.4126
1278.275, 194.1052
1278.757, 199.0535
1279.239, 203.9299
1279.721, 204.8865
1280.203, 203.7500
##END=



