##NAMES=Bindheimite
##RRUFFID=R050546
##IDEAL CHEMISTRY=Pb^2+^_2_Sb^5+^_2_O_7_
##LOCALITY=Arabia District, Pershing County, Nevada, USA
##OWNER=RRUFF
##SOURCE=University of Arizona Mineral Museum
##DESCRIPTION=Yellow-brown coarsely fibrous massive, intimately mixed with mimetite
##STATUS=The identification of this mineral has been confirmed by X-ray diffraction and chemical analysis
##URL=rruff.info/R050546
##MEASURED CHEMISTRY=(Pb_1.33_Fe_0.47_Ca_0.20_)_Σ=2_(Sb^5+^_1.97_As^5+^_0.03_)_Σ=2_O_7_  ;(darker phase, with trace amounts of Na);   (Pb_4.07_Ca_0.92_Fe_0.01_)_Σ=5_((As_2.97_Sb_0.03_)_Σ=1_O_4_)_3_Cl_1.00_ (lighter phase = mimetite)
90.92609, 0.0000000E+00
91.40820, 36.03938
91.89032, 35.80560
92.37244, 35.96331
92.85455, 36.44016
93.33667, 36.80409
93.81879, 36.54363
94.30090, 35.89414
94.78302, 35.58687
95.26514, 35.88618
95.74725, 36.53340
96.22937, 36.99378
96.71149, 37.25766
97.19360, 37.39849
97.67572, 37.39565
98.15784, 37.25370
98.63995, 37.28737
99.12207, 37.69953
99.60419, 38.41211
100.0863, 38.71699
100.5684, 38.51525
101.0505, 38.10280
101.5327, 37.78428
102.0148, 37.50192
102.4969, 37.51217
102.9790, 37.83562
103.4611, 38.40129
103.9432, 39.72011
104.4253, 42.08796
104.9075, 45.04506
105.3896, 47.53956
105.8717, 48.95137
106.3538, 50.77369
106.8359, 53.52440
107.3180, 56.73301
107.8002, 61.65512
108.2823, 68.67565
108.7644, 77.46147
109.2465, 87.10901
109.7286, 97.11457
110.2107, 108.2196
110.6929, 120.9344
111.1750, 135.0055
111.6571, 150.8203
112.1392, 168.7392
112.6213, 188.6122
113.1034, 209.6882
113.5856, 230.5593
114.0677, 253.5793
114.5498, 280.2075
115.0319, 311.0949
115.5140, 345.5039
115.9961, 382.6331
116.4783, 422.5035
116.9604, 466.5956
117.4425, 515.4638
117.9246, 569.4449
118.4067, 628.3860
118.8888, 694.2313
119.3710, 764.0919
119.8531, 837.8116
120.3352, 915.5264
120.8173, 992.4100
121.2994, 1064.841
121.7815, 1133.778
122.2637, 1201.175
122.7458, 1268.770
123.2279, 1334.179
123.7100, 1394.911
124.1921, 1450.680
124.6742, 1501.857
125.1564, 1546.020
125.6385, 1585.115
126.1206, 1625.486
126.6027, 1668.819
127.0848, 1715.925
127.5669, 1768.574
128.0491, 1828.116
128.5312, 1891.028
129.0133, 1953.900
129.4954, 2016.048
129.9775, 2076.415
130.4596, 2136.979
130.9418, 2195.445
131.4239, 2244.727
131.9060, 2282.239
132.3881, 2311.038
132.8702, 2338.218
133.3523, 2364.219
133.8345, 2384.831
134.3166, 2395.956
134.7987, 2397.637
135.2808, 2394.181
135.7629, 2385.907
136.2450, 2373.228
136.7272, 2358.348
137.2093, 2341.064
137.6914, 2321.975
138.1735, 2301.061
138.6556, 2277.958
139.1377, 2255.441
139.6199, 2233.194
140.1020, 2211.420
140.5841, 2194.171
141.0662, 2181.801
141.5483, 2173.727
142.0304, 2169.387
142.5126, 2168.921
142.9947, 2171.001
143.4768, 2169.251
143.9589, 2159.010
144.4410, 2150.384
144.9231, 2143.174
145.4053, 2137.568
145.8874, 2133.861
146.3695, 2132.966
146.8516, 2132.694
147.3337, 2132.345
147.8158, 2131.483
148.2980, 2131.697
148.7801, 2133.125
149.2622, 2135.596
149.7443, 2138.739
150.2264, 2144.202
150.7085, 2148.935
151.1907, 2151.837
151.6728, 2152.043
152.1549, 2152.051
152.6370, 2153.126
153.1191, 2154.094
153.6012, 2151.993
154.0834, 2143.527
154.5655, 2134.285
155.0476, 2126.539
155.5297, 2122.234
156.0118, 2117.221
156.4939, 2110.127
156.9761, 2101.642
157.4582, 2094.344
157.9403, 2089.662
158.4224, 2085.748
158.9045, 2081.471
159.3866, 2075.157
159.8688, 2070.217
160.3509, 2068.543
160.8330, 2069.443
161.3151, 2069.655
161.7972, 2066.769
162.2793, 2063.427
162.7615, 2061.653
163.2436, 2063.597
163.7257, 2065.707
164.2078, 2066.402
164.6899, 2065.845
165.1720, 2065.216
165.6541, 2065.824
166.1363, 2066.328
166.6184, 2065.406
167.1005, 2060.960
167.5826, 2056.221
168.0647, 2053.019
168.5468, 2051.290
169.0290, 2050.278
169.5111, 2050.083
169.9932, 2050.189
170.4753, 2049.920
170.9574, 2048.536
171.4395, 2046.998
171.9217, 2046.354
172.4038, 2046.616
172.8859, 2046.583
173.3680, 2044.715
173.8501, 2041.999
174.3322, 2040.131
174.8144, 2040.650
175.2965, 2042.016
175.7786, 2041.897
176.2607, 2040.171
176.7428, 2039.104
177.2249, 2041.688
177.7071, 2046.587
178.1892, 2050.604
178.6713, 2051.404
179.1534, 2050.649
179.6355, 2051.034
180.1176, 2052.661
180.5998, 2054.950
181.0819, 2057.016
181.5640, 2059.118
182.0461, 2062.327
182.5282, 2069.629
183.0103, 2078.154
183.4925, 2080.084
183.9746, 2074.188
184.4567, 2066.474
184.9388, 2064.520
185.4209, 2067.563
185.9030, 2071.065
186.3852, 2073.477
186.8673, 2074.716
187.3494, 2074.171
187.8315, 2071.516
188.3136, 2068.233
188.7957, 2066.140
189.2779, 2065.225
189.7600, 2064.891
190.2421, 2065.220
190.7242, 2066.030
191.2063, 2066.057
191.6884, 2064.987
192.1706, 2063.732
192.6527, 2063.673
193.1348, 2064.797
193.6169, 2066.431
194.0990, 2068.634
194.5811, 2071.275
195.0633, 2072.700
195.5454, 2072.469
196.0275, 2071.651
196.5096, 2072.661
196.9917, 2075.740
197.4738, 2078.047
197.9560, 2077.582
198.4381, 2074.365
198.9202, 2072.423
199.4023, 2072.238
199.8844, 2073.079
200.3665, 2073.475
200.8487, 2073.376
201.3308, 2073.395
201.8129, 2073.993
202.2950, 2075.257
202.7771, 2076.116
203.2592, 2076.425
203.7414, 2076.431
204.2235, 2076.423
204.7056, 2076.124
205.1877, 2076.747
205.6698, 2079.373
206.1519, 2084.483
206.6341, 2088.120
207.1162, 2089.648
207.5983, 2089.991
208.0804, 2091.500
208.5625, 2094.773
209.0446, 2097.300
209.5268, 2097.093
210.0089, 2092.927
210.4910, 2092.270
210.9731, 2096.735
211.4552, 2103.874
211.9373, 2107.275
212.4195, 2105.274
212.9016, 2103.810
213.3837, 2106.287
213.8658, 2114.388
214.3479, 2120.284
214.8300, 2123.365
215.3121, 2124.469
215.7943, 2125.537
216.2764, 2126.503
216.7585, 2127.486
217.2406, 2128.462
217.7227, 2129.241
218.2048, 2130.453
218.6870, 2132.073
219.1691, 2134.082
219.6512, 2136.733
220.1333, 2140.801
220.6154, 2144.048
221.0975, 2145.150
221.5797, 2142.620
222.0618, 2142.411
222.5439, 2145.491
223.0260, 2150.483
223.5081, 2154.489
223.9902, 2157.586
224.4724, 2159.641
224.9545, 2160.297
225.4366, 2158.688
225.9187, 2158.433
226.4008, 2160.118
226.8829, 2162.923
227.3651, 2165.016
227.8472, 2165.824
228.3293, 2166.896
228.8114, 2168.893
229.2935, 2172.143
229.7757, 2175.132
230.2578, 2177.362
230.7399, 2179.484
231.2220, 2183.004
231.7041, 2188.893
232.1862, 2194.499
232.6684, 2198.876
233.1505, 2201.797
233.6326, 2204.011
234.1147, 2204.852
234.5968, 2205.328
235.0789, 2207.380
235.5611, 2211.997
236.0432, 2216.602
236.5253, 2220.560
237.0074, 2223.960
237.4895, 2226.031
237.9716, 2225.528
238.4538, 2224.481
238.9359, 2226.389
239.4180, 2233.300
239.9001, 2239.905
240.3822, 2244.535
240.8643, 2246.724
241.3465, 2248.937
241.8286, 2251.202
242.3107, 2253.459
242.7928, 2255.625
243.2749, 2257.695
243.7570, 2259.621
244.2392, 2261.208
244.7213, 2262.257
245.2034, 2264.342
245.6855, 2268.315
246.1676, 2272.649
246.6497, 2275.233
247.1319, 2274.694
247.6140, 2275.000
248.0961, 2277.377
248.5782, 2282.145
249.0603, 2286.365
249.5424, 2289.868
250.0246, 2293.073
250.5067, 2296.424
250.9888, 2299.785
251.4709, 2303.594
251.9530, 2308.049
252.4351, 2313.214
252.9173, 2318.094
253.3994, 2322.466
253.8815, 2326.789
254.3636, 2331.566
254.8457, 2336.967
255.3278, 2342.175
255.8100, 2346.981
256.2921, 2351.391
256.7742, 2355.711
257.2563, 2359.892
257.7384, 2364.025
258.2205, 2368.134
258.7026, 2372.267
259.1848, 2376.443
259.6669, 2380.870
260.1490, 2385.477
260.6311, 2388.910
261.1132, 2390.452
261.5953, 2392.079
262.0775, 2395.243
262.5596, 2400.331
263.0417, 2406.023
263.5238, 2412.528
264.0059, 2419.512
264.4880, 2425.505
264.9702, 2429.809
265.4523, 2434.310
265.9344, 2440.153
266.4165, 2447.550
266.8986, 2455.749
267.3807, 2465.283
267.8629, 2475.418
268.3450, 2483.885
268.8271, 2490.633
269.3092, 2496.132
269.7913, 2500.217
270.2734, 2502.203
270.7556, 2506.492
271.2377, 2514.125
271.7198, 2523.661
272.2019, 2531.642
272.6840, 2537.660
273.1661, 2543.740
273.6483, 2550.555
274.1304, 2557.953
274.6125, 2567.446
275.0946, 2579.782
275.5767, 2593.077
276.0588, 2603.135
276.5410, 2608.837
277.0231, 2616.663
277.5052, 2630.750
277.9873, 2651.280
278.4694, 2666.040
278.9515, 2673.734
279.4337, 2678.196
279.9158, 2684.547
280.3979, 2692.864
280.8800, 2701.775
281.3621, 2711.087
281.8442, 2720.680
282.3264, 2728.538
282.8085, 2734.275
283.2906, 2739.795
283.7727, 2747.722
284.2548, 2758.124
284.7369, 2767.872
285.2191, 2775.965
285.7012, 2782.730
286.1833, 2789.466
286.6654, 2796.083
287.1475, 2803.362
287.6296, 2812.527
288.1118, 2823.354
288.5939, 2833.215
289.0760, 2841.320
289.5581, 2848.156
290.0402, 2855.378
290.5223, 2863.032
291.0045, 2869.840
291.4866, 2874.176
291.9687, 2876.630
292.4508, 2880.196
292.9329, 2885.825
293.4150, 2892.199
293.8972, 2897.708
294.3793, 2902.330
294.8614, 2905.516
295.3435, 2906.174
295.8256, 2905.103
296.3077, 2904.176
296.7899, 2903.384
297.2720, 2903.609
297.7541, 2907.470
298.2362, 2913.972
298.7183, 2918.694
299.2004, 2917.540
299.6826, 2913.250
300.1647, 2911.162
300.6468, 2911.918
301.1289, 2913.065
301.6110, 2912.086
302.0931, 2909.452
302.5753, 2906.423
303.0574, 2903.885
303.5395, 2901.137
304.0216, 2897.006
304.5037, 2891.407
304.9858, 2885.873
305.4680, 2882.229
305.9501, 2879.482
306.4322, 2875.940
306.9143, 2870.906
307.3964, 2864.910
307.8785, 2857.785
308.3607, 2849.750
308.8428, 2842.386
309.3249, 2837.531
309.8070, 2833.661
310.2891, 2828.817
310.7712, 2820.785
311.2534, 2813.634
311.7355, 2811.208
312.2176, 2812.297
312.6997, 2812.580
313.1818, 2809.555
313.6639, 2804.835
314.1461, 2799.485
314.6282, 2793.335
315.1103, 2787.468
315.5924, 2782.165
316.0745, 2777.555
316.5566, 2773.832
317.0388, 2772.374
317.5209, 2770.958
318.0030, 2768.336
318.4851, 2764.262
318.9672, 2759.484
319.4493, 2753.797
319.9315, 2747.735
320.4136, 2741.917
320.8957, 2735.496
321.3778, 2730.358
321.8599, 2727.747
322.3420, 2727.983
322.8242, 2727.401
323.3063, 2725.237
323.7884, 2721.920
324.2705, 2717.821
324.7526, 2711.784
325.2347, 2706.208
325.7169, 2701.842
326.1990, 2698.555
326.6811, 2695.215
327.1632, 2691.424
327.6453, 2687.773
328.1274, 2684.596
328.6096, 2682.285
329.0917, 2679.964
329.5738, 2677.930
330.0559, 2675.933
330.5380, 2673.094
331.0201, 2669.035
331.5023, 2664.549
331.9844, 2659.730
332.4665, 2653.839
332.9486, 2649.642
333.4307, 2648.282
333.9128, 2648.031
334.3950, 2645.980
334.8771, 2641.542
335.3592, 2636.325
335.8413, 2630.625
336.3234, 2624.299
336.8055, 2618.591
337.2877, 2613.564
337.7698, 2609.130
338.2519, 2605.167
338.7340, 2601.724
339.2161, 2598.780
339.6982, 2596.846
340.1803, 2595.485
340.6624, 2591.734
341.1446, 2584.935
341.6267, 2577.813
342.1088, 2572.203
342.5909, 2568.176
343.0730, 2565.151
343.5551, 2563.615
344.0373, 2562.399
344.5194, 2558.658
345.0015, 2552.269
345.4836, 2545.176
345.9657, 2538.082
346.4478, 2531.121
346.9300, 2525.066
347.4121, 2519.928
347.8942, 2515.663
348.3763, 2512.914
348.8584, 2511.319
349.3405, 2508.581
349.8227, 2502.589
350.3048, 2495.022
350.7869, 2489.711
351.2690, 2486.748
351.7511, 2484.025
352.2332, 2479.648
352.7154, 2474.113
353.1975, 2468.393
353.6796, 2462.291
354.1617, 2456.616
354.6438, 2452.225
355.1259, 2449.024
355.6081, 2446.664
356.0902, 2446.395
356.5723, 2446.138
357.0544, 2443.038
357.5365, 2435.262
358.0186, 2427.533
358.5008, 2423.754
358.9829, 2422.410
359.4650, 2420.270
359.9471, 2415.922
360.4292, 2410.273
360.9113, 2403.343
361.3935, 2394.929
361.8756, 2387.554
362.3577, 2382.725
362.8398, 2379.393
363.3219, 2376.362
363.8040, 2374.760
364.2862, 2372.073
364.7683, 2367.331
365.2504, 2360.580
365.7325, 2353.232
366.2146, 2343.491
366.6967, 2334.547
367.1789, 2328.381
367.6610, 2328.388
368.1431, 2327.397
368.6252, 2325.227
369.1073, 2321.712
369.5894, 2316.395
370.0716, 2305.818
370.5537, 2296.945
371.0358, 2292.621
371.5179, 2294.913
372.0000, 2295.435
372.4821, 2293.751
372.9643, 2290.568
373.4464, 2286.634
373.9285, 2281.386
374.4106, 2276.569
374.8927, 2272.531
375.3748, 2269.227
375.8570, 2266.414
376.3391, 2264.147
376.8212, 2262.134
377.3033, 2259.978
377.7854, 2257.570
378.2675, 2256.039
378.7497, 2255.981
379.2318, 2256.472
379.7139, 2254.925
380.1960, 2251.230
380.6781, 2247.165
381.1602, 2244.031
381.6424, 2241.596
382.1245, 2237.900
382.6066, 2232.519
383.0887, 2227.283
383.5708, 2225.080
384.0529, 2225.292
384.5351, 2224.756
385.0172, 2221.646
385.4993, 2217.287
385.9814, 2213.473
386.4635, 2210.255
386.9456, 2208.147
387.4278, 2208.562
387.9099, 2210.167
388.3920, 2210.728
388.8741, 2209.195
389.3562, 2207.252
389.8383, 2206.311
390.3205, 2206.109
390.8026, 2205.969
391.2847, 2205.505
391.7668, 2204.961
392.2489, 2204.696
392.7310, 2204.919
393.2132, 2204.488
393.6953, 2202.857
394.1774, 2200.278
394.6595, 2197.020
395.1416, 2190.497
395.6237, 2185.931
396.1059, 2186.547
396.5880, 2191.970
397.0701, 2195.491
397.5522, 2193.992
398.0343, 2191.352
398.5164, 2189.866
398.9986, 2191.563
399.4807, 2192.065
399.9628, 2190.514
400.4449, 2187.761
400.9270, 2185.729
401.4091, 2184.623
401.8913, 2184.022
402.3734, 2183.855
402.8555, 2184.178
403.3376, 2184.698
403.8197, 2185.743
404.3018, 2186.574
404.7840, 2186.278
405.2661, 2184.518
405.7482, 2182.639
406.2303, 2180.640
406.7124, 2178.725
407.1945, 2178.038
407.6767, 2178.851
408.1588, 2179.412
408.6409, 2177.992
409.1230, 2174.791
409.6051, 2173.084
410.0872, 2173.326
410.5694, 2174.484
411.0515, 2175.265
411.5336, 2175.685
412.0157, 2175.736
412.4978, 2175.118
412.9799, 2174.256
413.4621, 2174.164
413.9442, 2174.844
414.4263, 2175.428
414.9084, 2174.631
415.3905, 2173.428
415.8727, 2173.541
416.3548, 2176.178
416.8369, 2179.027
417.3190, 2179.922
417.8011, 2179.452
418.2832, 2179.186
418.7654, 2179.531
419.2475, 2180.579
419.7296, 2182.523
420.2117, 2185.494
420.6938, 2188.581
421.1759, 2191.625
421.6581, 2194.477
422.1402, 2197.026
422.6223, 2199.406
423.1044, 2201.242
423.5865, 2202.580
424.0686, 2203.350
424.5508, 2203.094
425.0329, 2199.071
425.5150, 2196.222
425.9971, 2196.966
426.4792, 2203.539
426.9613, 2209.142
427.4435, 2213.508
427.9256, 2217.054
428.4077, 2220.325
428.8898, 2223.162
429.3719, 2226.225
429.8540, 2229.828
430.3362, 2233.898
430.8183, 2237.169
431.3004, 2238.977
431.7825, 2241.865
432.2646, 2249.267
432.7467, 2261.174
433.2289, 2269.566
433.7110, 2272.625
434.1931, 2272.683
434.6752, 2273.493
435.1573, 2275.007
435.6394, 2276.842
436.1216, 2278.069
436.6036, 2279.597
437.0858, 2283.884
437.5679, 2291.035
438.0500, 2298.750
438.5321, 2305.482
439.0142, 2311.321
439.4963, 2316.252
439.9785, 2319.313
440.4606, 2322.856
440.9427, 2329.531
441.4248, 2338.381
441.9069, 2346.452
442.3890, 2352.552
442.8712, 2357.294
443.3533, 2360.424
443.8354, 2361.292
444.3175, 2363.903
444.7996, 2371.354
445.2817, 2380.432
445.7639, 2387.834
446.2460, 2389.682
446.7281, 2393.388
447.2102, 2401.465
447.6923, 2413.146
448.1744, 2422.714
448.6566, 2428.366
449.1387, 2433.733
449.6208, 2440.529
450.1029, 2449.635
450.5850, 2457.597
451.0671, 2464.281
451.5493, 2469.855
452.0314, 2474.287
452.5135, 2477.246
452.9956, 2480.455
453.4777, 2484.464
453.9598, 2489.046
454.4420, 2493.241
454.9241, 2496.992
455.4062, 2500.702
455.8883, 2504.450
456.3704, 2508.345
456.8525, 2512.976
457.3347, 2518.486
457.8168, 2524.151
458.2989, 2528.824
458.7810, 2532.831
459.2631, 2536.960
459.7452, 2542.243
460.2274, 2547.501
460.7095, 2550.583
461.1916, 2551.933
461.6737, 2554.629
462.1558, 2561.466
462.6379, 2570.050
463.1201, 2578.485
463.6022, 2587.167
464.0843, 2593.989
464.5664, 2596.926
465.0485, 2597.667
465.5306, 2598.916
466.0128, 2601.129
466.4949, 2604.074
466.9770, 2607.630
467.4591, 2611.790
467.9412, 2616.837
468.4233, 2623.864
468.9055, 2630.897
469.3876, 2636.707
469.8697, 2639.924
470.3518, 2645.213
470.8339, 2654.030
471.3160, 2664.107
471.7982, 2670.641
472.2803, 2672.404
472.7624, 2675.684
473.2445, 2682.867
473.7266, 2693.349
474.2087, 2703.588
474.6909, 2713.503
475.1730, 2723.340
475.6551, 2733.321
476.1372, 2743.291
476.6193, 2752.488
477.1014, 2760.371
477.5836, 2768.381
478.0657, 2778.474
478.5478, 2790.180
479.0299, 2801.972
479.5120, 2813.239
479.9941, 2824.366
480.4763, 2835.247
480.9584, 2846.048
481.4405, 2857.760
481.9226, 2871.517
482.4047, 2886.103
482.8868, 2900.730
483.3690, 2915.542
483.8511, 2929.466
484.3332, 2940.654
484.8153, 2951.032
485.2974, 2963.980
485.7795, 2982.142
486.2617, 3000.454
486.7438, 3017.474
487.2259, 3033.318
487.7080, 3050.704
488.1901, 3070.308
488.6722, 3090.774
489.1544, 3111.771
489.6365, 3133.446
490.1186, 3154.317
490.6007, 3174.251
491.0828, 3193.550
491.5649, 3212.942
492.0471, 3232.241
492.5292, 3251.916
493.0113, 3271.375
493.4934, 3291.376
493.9755, 3315.400
494.4576, 3343.027
494.9398, 3370.340
495.4219, 3392.888
495.9040, 3413.357
496.3861, 3435.819
496.8682, 3461.257
497.3503, 3487.673
497.8325, 3515.033
498.3146, 3542.142
498.7967, 3567.721
499.2788, 3589.246
499.7609, 3610.799
500.2430, 3635.548
500.7252, 3662.415
501.2073, 3687.044
501.6894, 3704.642
502.1715, 3722.329
502.6536, 3744.376
503.1357, 3773.790
503.6179, 3799.598
504.1000, 3819.265
504.5821, 3836.728
505.0642, 3856.001
505.5463, 3878.455
506.0284, 3899.450
506.5106, 3917.961
506.9927, 3934.441
507.4748, 3950.529
507.9569, 3966.312
508.4390, 3980.979
508.9211, 3994.740
509.4033, 4007.277
509.8854, 4015.546
510.3675, 4019.222
510.8496, 4021.227
511.3317, 4024.757
511.8138, 4028.936
512.2960, 4031.601
512.7781, 4032.860
513.2602, 4031.359
513.7423, 4025.519
514.2244, 4015.838
514.7065, 4003.498
515.1887, 3989.582
515.6708, 3972.759
516.1529, 3951.631
516.6350, 3926.218
517.1171, 3899.781
517.5992, 3874.532
518.0814, 3848.226
518.5635, 3819.367
519.0456, 3786.085
519.5277, 3752.916
520.0098, 3720.891
520.4919, 3688.980
520.9741, 3655.628
521.4562, 3620.499
521.9383, 3585.203
522.4204, 3549.915
522.9025, 3514.715
523.3846, 3480.132
523.8668, 3446.382
524.3489, 3413.096
524.8310, 3379.010
525.3131, 3344.391
525.7952, 3313.724
526.2773, 3287.514
526.7595, 3262.277
527.2416, 3234.647
527.7237, 3205.215
528.2058, 3174.608
528.6879, 3141.812
529.1700, 3110.337
529.6522, 3084.100
530.1343, 3062.328
530.6164, 3041.886
531.0985, 3021.896
531.5806, 3002.523
532.0627, 2984.309
532.5449, 2967.429
533.0270, 2950.372
533.5091, 2931.670
533.9912, 2913.409
534.4733, 2897.343
534.9554, 2885.109
535.4376, 2872.555
535.9197, 2859.868
536.4018, 2846.781
536.8839, 2832.945
537.3660, 2817.373
537.8481, 2803.324
538.3303, 2791.732
538.8124, 2782.266
539.2945, 2772.873
539.7766, 2763.478
540.2587, 2754.819
540.7408, 2748.039
541.2230, 2742.485
541.7051, 2736.035
542.1872, 2728.575
542.6693, 2720.226
543.1514, 2709.642
543.6335, 2698.476
544.1157, 2689.604
544.5978, 2685.168
545.0799, 2681.558
545.5620, 2676.605
546.0441, 2670.611
546.5262, 2664.316
547.0084, 2656.061
547.4905, 2649.325
547.9726, 2645.991
548.4547, 2646.424
548.9368, 2646.530
549.4189, 2647.080
549.9011, 2646.195
550.3832, 2642.418
550.8653, 2633.435
551.3474, 2627.108
551.8295, 2624.759
552.3116, 2623.659
552.7938, 2619.492
553.2759, 2611.882
553.7580, 2604.883
554.2401, 2600.016
554.7222, 2596.071
555.2043, 2589.696
555.6865, 2581.148
556.1686, 2572.533
556.6507, 2565.372
557.1328, 2558.946
557.6149, 2551.874
558.0970, 2544.102
558.5792, 2536.733
559.0613, 2531.571
559.5434, 2526.835
560.0255, 2520.487
560.5076, 2510.537
560.9897, 2501.880
561.4719, 2497.700
561.9540, 2495.492
562.4361, 2491.153
562.9182, 2481.027
563.4003, 2472.207
563.8824, 2466.457
564.3646, 2463.270
564.8467, 2458.656
565.3288, 2451.750
565.8109, 2445.074
566.2930, 2440.136
566.7751, 2437.031
567.2573, 2432.669
567.7394, 2426.730
568.2215, 2420.731
568.7036, 2416.275
569.1857, 2413.069
569.6678, 2409.991
570.1500, 2407.057
570.6321, 2403.670
571.1142, 2399.206
571.5963, 2393.823
572.0784, 2387.880
572.5605, 2380.298
573.0427, 2373.284
573.5248, 2368.677
574.0069, 2366.133
574.4890, 2362.852
574.9711, 2357.983
575.4532, 2352.280
575.9354, 2345.585
576.4175, 2336.709
576.8996, 2331.339
577.3817, 2331.595
577.8638, 2333.328
578.3459, 2332.497
578.8281, 2328.027
579.3102, 2325.672
579.7923, 2326.883
580.2744, 2329.199
580.7565, 2327.474
581.2386, 2321.922
581.7208, 2316.551
582.2029, 2312.845
582.6850, 2310.237
583.1671, 2307.729
583.6492, 2305.334
584.1313, 2303.123
584.6134, 2301.382
585.0955, 2299.702
585.5776, 2297.443
586.0598, 2294.431
586.5419, 2292.224
587.0240, 2292.582
587.5061, 2293.400
587.9882, 2292.903
588.4703, 2288.894
588.9525, 2286.242
589.4346, 2285.341
589.9167, 2285.766
590.3988, 2287.222
590.8809, 2290.794
591.3630, 2292.323
591.8452, 2290.247
592.3273, 2285.570
592.8094, 2282.012
593.2915, 2279.574
593.7736, 2277.875
594.2557, 2277.350
594.7379, 2277.335
595.2200, 2276.009
595.7021, 2273.358
596.1842, 2270.011
596.6663, 2264.595
597.1484, 2259.594
597.6306, 2258.583
598.1127, 2263.689
598.5948, 2268.665
599.0769, 2271.638
599.5590, 2272.492
600.0411, 2271.065
600.5233, 2264.198
601.0054, 2258.781
601.4875, 2256.606
601.9696, 2256.656
602.4517, 2255.731
602.9338, 2253.133
603.4160, 2251.096
603.8981, 2250.730
604.3802, 2251.765
604.8623, 2251.507
605.3444, 2249.915
605.8265, 2247.297
606.3087, 2242.435
606.7908, 2236.762
607.2729, 2234.898
607.7550, 2237.575
608.2371, 2240.892
608.7192, 2241.590
609.2014, 2240.662
609.6835, 2239.494
610.1656, 2238.612
610.6477, 2237.354
611.1298, 2234.681
611.6119, 2231.560
612.0941, 2229.666
612.5762, 2230.803
613.0583, 2231.579
613.5404, 2231.470
614.0225, 2230.480
614.5046, 2228.469
614.9868, 2225.139
615.4689, 2221.482
615.9510, 2217.673
616.4331, 2213.773
616.9152, 2210.820
617.3973, 2208.859
617.8795, 2207.468
618.3616, 2206.512
618.8437, 2205.862
619.3258, 2205.383
619.8079, 2205.187
620.2900, 2204.503
620.7722, 2202.061
621.2543, 2198.904
621.7364, 2196.519
622.2185, 2195.391
622.7006, 2195.066
623.1827, 2195.494
623.6649, 2196.613
624.1470, 2198.322
624.6291, 2203.625
625.1112, 2205.628
625.5933, 2201.275
626.0754, 2191.777
626.5576, 2186.741
627.0397, 2187.407
627.5218, 2188.386
628.0039, 2186.060
628.4860, 2181.017
628.9681, 2179.165
629.4503, 2180.768
629.9324, 2181.988
630.4145, 2178.618
630.8966, 2172.764
631.3787, 2167.802
631.8608, 2164.218
632.3430, 2162.341
632.8251, 2164.443
633.3072, 2167.683
633.7893, 2168.589
634.2714, 2163.260
634.7535, 2158.977
635.2357, 2158.090
635.7178, 2159.129
636.1999, 2158.631
636.6820, 2155.271
637.1641, 2152.818
637.6462, 2152.612
638.1284, 2154.052
638.6105, 2153.997
639.0926, 2152.286
639.5747, 2150.317
640.0568, 2148.889
640.5389, 2147.819
641.0211, 2146.458
641.5032, 2144.820
641.9853, 2143.743
642.4674, 2144.942
642.9495, 2146.568
643.4316, 2146.503
643.9138, 2144.183
644.3959, 2141.141
644.8780, 2137.710
645.3601, 2134.104
645.8422, 2130.603
646.3243, 2126.295
646.8065, 2123.444
647.2886, 2122.890
647.7707, 2123.410
648.2528, 2122.580
648.7349, 2119.859
649.2170, 2118.242
649.6992, 2119.083
650.1813, 2120.937
650.6634, 2119.596
651.1455, 2115.356
651.6276, 2111.277
652.1097, 2109.045
652.5919, 2107.884
653.0740, 2106.926
653.5561, 2106.114
654.0382, 2105.188
654.5203, 2103.147
655.0024, 2101.567
655.4846, 2101.882
655.9667, 2104.854
656.4488, 2106.615
656.9309, 2105.780
657.4130, 2104.188
657.8951, 2103.098
658.3773, 2103.011
658.8594, 2101.864
659.3415, 2099.360
659.8236, 2096.183
660.3057, 2092.966
660.7878, 2089.794
661.2700, 2087.382
661.7521, 2086.106
662.2342, 2085.237
662.7163, 2083.630
663.1984, 2081.660
663.6805, 2080.224
664.1627, 2080.969
664.6448, 2081.276
665.1269, 2078.858
665.6090, 2074.552
666.0911, 2071.574
666.5732, 2071.843
667.0554, 2072.396
667.5375, 2072.245
668.0196, 2071.397
668.5017, 2070.771
668.9838, 2070.454
669.4659, 2070.089
669.9481, 2069.527
670.4302, 2068.740
670.9123, 2067.305
671.3944, 2065.128
671.8765, 2062.995
672.3586, 2061.157
672.8408, 2060.005
673.3229, 2060.458
673.8050, 2062.939
674.2871, 2065.722
674.7692, 2069.224
675.2513, 2071.751
675.7335, 2071.372
676.2156, 2064.365
676.6977, 2058.690
677.1798, 2055.669
677.6619, 2054.456
678.1440, 2053.847
678.6262, 2053.916
679.1083, 2054.538
679.5904, 2055.981
680.0725, 2057.698
680.5546, 2058.011
681.0367, 2057.000
681.5189, 2056.626
682.0010, 2058.391
682.4831, 2060.879
682.9652, 2062.054
683.4473, 2062.016
683.9294, 2061.433
684.4116, 2059.644
684.8937, 2058.247
685.3758, 2058.419
685.8579, 2060.291
686.3400, 2062.252
686.8221, 2064.804
687.3043, 2066.692
687.7864, 2067.308
688.2685, 2066.554
688.7506, 2064.783
689.2327, 2061.305
689.7148, 2058.633
690.1970, 2060.267
690.6791, 2065.276
691.1612, 2067.205
691.6433, 2064.894
692.1254, 2061.830
692.6075, 2061.982
693.0897, 2063.597
693.5718, 2063.672
694.0539, 2059.892
694.5360, 2057.255
695.0181, 2059.274
695.5002, 2063.499
695.9824, 2066.122
696.4645, 2065.639
696.9466, 2064.842
697.4287, 2063.686
697.9108, 2062.566
698.3929, 2062.476
698.8751, 2063.498
699.3572, 2065.210
699.8393, 2067.904
700.3214, 2070.853
700.8035, 2071.980
701.2856, 2071.572
701.7678, 2071.337
702.2499, 2072.226
702.7320, 2073.749
703.2141, 2075.667
703.6962, 2077.886
704.1783, 2079.872
704.6605, 2081.979
705.1426, 2083.280
705.6247, 2082.901
706.1068, 2080.575
706.5889, 2079.197
707.0710, 2079.289
707.5532, 2079.406
708.0353, 2078.342
708.5174, 2076.100
708.9995, 2075.333
709.4816, 2076.322
709.9637, 2077.253
710.4459, 2075.551
710.9280, 2072.800
711.4101, 2072.404
711.8922, 2075.495
712.3743, 2078.127
712.8564, 2076.675
713.3386, 2074.006
713.8207, 2073.160
714.3028, 2076.846
714.7849, 2079.343
715.2670, 2079.593
715.7491, 2078.859
716.2313, 2078.746
716.7134, 2079.378
717.1955, 2079.934
717.6776, 2080.225
718.1597, 2080.363
718.6418, 2080.363
719.1240, 2080.317
719.6061, 2080.883
720.0882, 2082.964
720.5703, 2084.882
721.0524, 2084.252
721.5345, 2082.110
722.0167, 2080.957
722.4988, 2083.728
722.9809, 2085.646
723.4630, 2084.241
723.9451, 2080.317
724.4272, 2077.863
724.9094, 2077.159
725.3915, 2077.642
725.8736, 2079.737
726.3557, 2082.920
726.8378, 2083.863
727.3199, 2082.551
727.8021, 2081.419
728.2842, 2082.559
728.7663, 2084.610
729.2484, 2085.229
729.7305, 2084.441
730.2126, 2083.500
730.6948, 2082.806
731.1769, 2082.365
731.6590, 2082.229
732.1411, 2082.425
732.6232, 2082.519
733.1053, 2082.292
733.5875, 2082.125
734.0696, 2082.400
734.5517, 2083.292
735.0338, 2083.238
735.5159, 2082.114
735.9980, 2080.705
736.4802, 2079.321
736.9623, 2078.311
737.4444, 2079.028
737.9265, 2081.922
738.4086, 2084.414
738.8907, 2084.142
739.3729, 2082.622
739.8550, 2081.482
740.3371, 2081.334
740.8192, 2080.996
741.3013, 2080.444
741.7834, 2079.453
742.2656, 2077.630
742.7477, 2074.515
743.2298, 2071.966
743.7119, 2070.121
744.1940, 2068.965
744.6761, 2068.985
745.1583, 2069.841
745.6404, 2069.835
746.1225, 2068.275
746.6046, 2066.326
747.0867, 2065.472
747.5688, 2064.966
748.0510, 2063.538
748.5331, 2059.976
749.0152, 2056.368
749.4973, 2052.994
749.9794, 2050.033
750.4615, 2047.898
750.9437, 2046.900
751.4258, 2046.028
751.9079, 2045.021
752.3900, 2044.058
752.8721, 2043.944
753.3542, 2044.504
753.8364, 2044.058
754.3185, 2041.076
754.8006, 2037.527
755.2827, 2035.671
755.7648, 2035.169
756.2469, 2035.121
756.7291, 2036.151
757.2112, 2036.516
757.6933, 2034.943
758.1754, 2031.874
758.6575, 2030.082
759.1396, 2030.693
759.6218, 2030.249
760.1039, 2026.976
760.5860, 2021.815
761.0681, 2019.075
761.5502, 2018.717
762.0323, 2018.490
762.5145, 2017.068
762.9966, 2015.048
763.4787, 2012.950
763.9608, 2010.894
764.4429, 2009.440
764.9250, 2008.872
765.4072, 2008.976
765.8893, 2010.442
766.3714, 2013.354
766.8535, 2013.170
767.3356, 2008.206
767.8177, 2003.066
768.2999, 1999.911
768.7820, 1998.579
769.2641, 1998.425
769.7462, 1999.484
770.2283, 1999.153
770.7104, 1993.273
771.1926, 1985.894
771.6747, 1983.507
772.1568, 1986.321
772.6389, 1988.349
773.1210, 1985.742
773.6031, 1982.229
774.0853, 1980.296
774.5674, 1980.547
775.0495, 1979.621
775.5316, 1977.147
776.0137, 1974.218
776.4958, 1971.543
776.9780, 1969.114
777.4601, 1966.038
777.9422, 1962.231
778.4243, 1959.087
778.9064, 1957.740
779.3885, 1957.750
779.8707, 1959.080
780.3528, 1961.891
780.8349, 1963.445
781.3170, 1961.896
781.7991, 1959.047
782.2812, 1955.921
782.7633, 1952.185
783.2454, 1949.550
783.7275, 1948.224
784.2097, 1947.657
784.6918, 1947.769
785.1739, 1948.424
785.6560, 1948.523
786.1381, 1948.059
786.6202, 1946.349
787.1024, 1941.376
787.5845, 1935.450
788.0666, 1931.658
788.5487, 1930.740
789.0308, 1930.496
789.5129, 1930.418
789.9951, 1930.499
790.4772, 1930.778
790.9593, 1931.465
791.4414, 1931.655
791.9235, 1931.235
792.4056, 1930.520
792.8878, 1929.774
793.3699, 1928.969
793.8520, 1928.015
794.3341, 1926.878
794.8162, 1925.585
795.2983, 1924.462
795.7805, 1923.021
796.2626, 1920.522
796.7447, 1916.385
797.2268, 1912.726
797.7089, 1910.045
798.1910, 1908.066
798.6732, 1906.673
799.1553, 1906.016
799.6374, 1905.462
800.1195, 1905.076
800.6016, 1904.629
801.0837, 1904.102
801.5659, 1903.322
802.0480, 1901.333
802.5301, 1897.788
803.0122, 1894.948
803.4943, 1895.420
803.9764, 1896.886
804.4586, 1896.933
804.9407, 1894.276
805.4228, 1892.329
805.9049, 1891.887
806.3870, 1891.693
806.8691, 1890.510
807.3513, 1888.102
807.8334, 1886.943
808.3155, 1887.373
808.7976, 1887.879
809.2797, 1886.712
809.7618, 1884.497
810.2440, 1882.362
810.7261, 1880.424
811.2082, 1878.899
811.6903, 1878.176
812.1724, 1877.753
812.6545, 1877.257
813.1367, 1876.832
813.6188, 1875.871
814.1009, 1874.424
814.5830, 1872.400
815.0651, 1869.345
815.5472, 1865.402
816.0294, 1862.670
816.5115, 1861.417
816.9936, 1860.422
817.4757, 1858.241
817.9578, 1855.856
818.4399, 1854.667
818.9221, 1855.175
819.4042, 1855.389
819.8863, 1853.973
820.3684, 1852.578
820.8505, 1852.606
821.3326, 1854.932
821.8148, 1854.581
822.2969, 1850.760
822.7790, 1846.756
823.2611, 1845.647
823.7432, 1846.652
824.2253, 1847.555
824.7075, 1848.156
825.1896, 1848.407
825.6717, 1848.290
826.1538, 1847.758
826.6359, 1846.707
827.1180, 1845.052
827.6002, 1843.255
828.0823, 1840.724
828.5644, 1838.909
829.0465, 1839.243
829.5286, 1841.860
830.0107, 1841.835
830.4929, 1839.036
830.9750, 1835.785
831.4571, 1834.234
831.9392, 1833.332
832.4213, 1831.240
832.9034, 1827.952
833.3856, 1825.162
833.8677, 1823.464
834.3498, 1822.714
834.8319, 1823.228
835.3140, 1825.042
835.7961, 1825.983
836.2783, 1825.948
836.7604, 1825.277
837.2425, 1824.075
837.7246, 1822.366
838.2067, 1819.338
838.6888, 1815.286
839.1710, 1813.541
839.6531, 1818.676
840.1352, 1825.120
840.6173, 1828.487
841.0994, 1828.774
841.5815, 1828.130
842.0637, 1825.629
842.5458, 1823.823
843.0279, 1823.829
843.5100, 1825.226
843.9921, 1825.288
844.4742, 1823.973
844.9564, 1822.635
845.4385, 1822.160
845.9206, 1821.984
846.4027, 1821.323
846.8848, 1820.267
847.3669, 1819.047
847.8491, 1817.186
848.3312, 1815.865
848.8133, 1816.438
849.2954, 1817.982
849.7775, 1817.167
850.2596, 1812.938
850.7418, 1809.678
851.2239, 1808.609
851.7060, 1809.173
852.1881, 1810.417
852.6702, 1812.230
853.1523, 1814.239
853.6345, 1816.432
854.1166, 1818.500
854.5987, 1820.705
855.0808, 1822.488
855.5629, 1822.822
856.0450, 1819.872
856.5272, 1817.903
857.0093, 1817.874
857.4914, 1818.529
857.9735, 1817.600
858.4556, 1815.218
858.9377, 1813.064
859.4199, 1811.680
859.9020, 1810.435
860.3841, 1808.101
860.8662, 1805.708
861.3483, 1804.820
861.8304, 1806.907
862.3126, 1808.646
862.7947, 1809.300
863.2768, 1809.192
863.7589, 1808.249
864.2410, 1806.008
864.7231, 1805.318
865.2053, 1806.511
865.6874, 1808.330
866.1695, 1809.786
866.6516, 1810.741
867.1337, 1810.815
867.6158, 1809.831
868.0980, 1808.812
868.5801, 1808.066
869.0622, 1807.664
869.5443, 1807.635
870.0264, 1807.902
870.5085, 1809.295
870.9907, 1812.526
871.4728, 1815.143
871.9549, 1814.926
872.4370, 1812.584
872.9191, 1810.815
873.4012, 1809.659
873.8834, 1808.808
874.3655, 1808.038
874.8476, 1807.482
875.3297, 1807.289
875.8118, 1807.446
876.2939, 1807.510
876.7761, 1807.256
877.2582, 1807.144
877.7403, 1807.396
878.2224, 1807.891
878.7045, 1808.017
879.1866, 1807.805
879.6688, 1807.756
880.1509, 1808.057
880.6330, 1808.719
881.1151, 1810.033
881.5972, 1811.741
882.0793, 1813.085
882.5615, 1813.215
883.0436, 1813.820
883.5257, 1815.787
884.0078, 1818.166
884.4899, 1818.741
884.9720, 1817.456
885.4542, 1815.333
885.9363, 1811.879
886.4184, 1809.516
886.9005, 1813.014
887.3826, 1819.483
887.8647, 1823.792
888.3469, 1823.188
888.8290, 1822.309
889.3111, 1822.637
889.7932, 1823.274
890.2753, 1823.115
890.7574, 1821.656
891.2396, 1821.955
891.7217, 1824.582
892.2038, 1827.266
892.6859, 1826.721
893.1680, 1824.629
893.6501, 1824.647
894.1323, 1827.467
894.6144, 1830.122
895.0965, 1831.444
895.5786, 1831.835
896.0607, 1831.530
896.5428, 1830.566
897.0250, 1828.807
897.5071, 1825.663
897.9892, 1823.788
898.4713, 1826.051
898.9534, 1830.689
899.4355, 1831.981
899.9177, 1830.464
900.3998, 1829.966
900.8819, 1835.052
901.3640, 1839.595
901.8461, 1838.735
902.3282, 1833.555
902.8104, 1831.879
903.2925, 1835.271
903.7746, 1838.540
904.2567, 1840.326
904.7388, 1840.893
905.2209, 1840.465
905.7031, 1839.299
906.1852, 1838.422
906.6673, 1838.273
907.1494, 1838.508
907.6315, 1839.425
908.1136, 1840.462
908.5958, 1840.677
909.0779, 1839.561
909.5600, 1838.479
910.0421, 1837.432
910.5242, 1836.645
911.0063, 1836.229
911.4885, 1836.278
911.9706, 1837.418
912.4527, 1839.819
912.9348, 1842.394
913.4169, 1845.137
913.8990, 1847.075
914.3812, 1846.993
914.8633, 1844.043
915.3454, 1841.968
915.8275, 1840.610
916.3096, 1840.536
916.7917, 1842.331
917.2739, 1845.730
917.7560, 1849.574
918.2381, 1853.730
918.7202, 1856.827
919.2023, 1857.498
919.6844, 1857.133
920.1666, 1856.162
920.6487, 1854.945
921.1308, 1855.221
921.6129, 1858.986
922.0950, 1861.327
922.5771, 1860.749
923.0593, 1858.395
923.5414, 1857.042
924.0235, 1856.569
924.5056, 1855.835
924.9877, 1854.173
925.4698, 1852.849
925.9520, 1853.481
926.4341, 1854.971
926.9162, 1855.775
927.3983, 1854.310
927.8804, 1854.168
928.3625, 1856.117
928.8447, 1858.292
929.3268, 1858.261
929.8089, 1856.434
930.2910, 1856.458
930.7731, 1858.711
931.2552, 1860.929
931.7374, 1860.814
932.2195, 1860.216
932.7016, 1861.129
933.1837, 1863.930
933.6658, 1865.043
934.1479, 1863.504
934.6301, 1861.453
935.1122, 1859.128
935.5943, 1857.181
936.0764, 1859.343
936.5585, 1865.063
937.0406, 1870.012
937.5228, 1871.992
938.0049, 1872.304
938.4870, 1871.053
938.9691, 1868.968
939.4512, 1867.777
939.9333, 1867.670
940.4155, 1868.580
940.8976, 1870.862
941.3797, 1873.588
941.8618, 1875.646
942.3439, 1876.890
942.8260, 1875.959
943.3082, 1871.905
943.7903, 1869.445
944.2724, 1874.547
944.7545, 1881.447
945.2366, 1884.726
945.7188, 1882.415
946.2009, 1880.545
946.6830, 1879.015
947.1651, 1878.140
947.6472, 1878.678
948.1293, 1880.092
948.6115, 1879.790
949.0936, 1878.015
949.5757, 1876.547
950.0578, 1876.798
950.5399, 1877.431
951.0220, 1877.280
951.5042, 1876.814
951.9863, 1878.066
952.4684, 1881.932
952.9505, 1885.373
953.4326, 1888.139
953.9147, 1889.450
954.3969, 1886.753
954.8790, 1881.518
955.3611, 1877.707
955.8432, 1876.463
956.3253, 1876.806
956.8074, 1879.360
957.2896, 1882.542
957.7717, 1884.844
958.2538, 1886.040
958.7359, 1886.594
959.2180, 1886.072
959.7001, 1886.500
960.1823, 1891.215
960.6644, 1897.462
961.1465, 1898.609
961.6286, 1895.102
962.1107, 1892.536
962.5928, 1894.977
963.0750, 1897.456
963.5571, 1897.777
964.0392, 1896.461
964.5213, 1895.211
965.0034, 1894.012
965.4855, 1893.607
965.9677, 1894.664
966.4498, 1895.845
966.9319, 1894.938
967.4140, 1892.914
967.8961, 1891.395
968.3782, 1890.471
968.8604, 1890.917
969.3425, 1894.450
969.8246, 1897.909
970.3067, 1898.217
970.7888, 1895.194
971.2709, 1893.966
971.7531, 1894.715
972.2352, 1896.207
972.7173, 1898.375
973.1994, 1900.077
973.6815, 1899.154
974.1636, 1895.923
974.6458, 1895.183
975.1279, 1899.877
975.6100, 1904.079
976.0921, 1906.328
976.5742, 1906.894
977.0563, 1906.008
977.5385, 1903.938
978.0206, 1902.174
978.5027, 1900.599
978.9848, 1900.820
979.4669, 1906.467
979.9490, 1913.600
980.4311, 1916.975
980.9132, 1914.067
981.3953, 1911.860
981.8774, 1910.456
982.3596, 1909.539
982.8417, 1909.052
983.3238, 1908.807
983.8059, 1908.021
984.2880, 1906.739
984.7701, 1906.062
985.2523, 1907.266
985.7344, 1908.592
986.2165, 1908.965
986.6986, 1908.621
987.1807, 1908.645
987.6628, 1909.129
988.1450, 1909.410
988.6271, 1909.347
989.1092, 1908.879
989.5913, 1907.130
990.0734, 1905.112
990.5555, 1904.862
991.0377, 1908.267
991.5198, 1910.751
992.0019, 1910.378
992.4840, 1909.530
992.9661, 1910.245
993.4482, 1912.630
993.9304, 1913.194
994.4125, 1911.862
994.8946, 1910.154
995.3767, 1908.384
995.8588, 1907.330
996.3409, 1908.335
996.8231, 1910.965
997.3052, 1912.441
997.7873, 1911.429
998.2694, 1910.916
998.7515, 1911.608
999.2336, 1913.017
999.7158, 1914.470
1000.198, 1915.813
1000.680, 1916.440
1001.162, 1916.088
1001.644, 1915.298
1002.126, 1913.273
1002.608, 1911.762
1003.091, 1912.986
1003.573, 1917.993
1004.055, 1919.078
1004.537, 1915.410
1005.019, 1911.889
1005.501, 1912.615
1005.983, 1915.259
1006.465, 1915.604
1006.948, 1914.189
1007.430, 1913.173
1007.912, 1913.853
1008.394, 1914.561
1008.876, 1914.965
1009.358, 1915.087
1009.840, 1914.741
1010.322, 1913.960
1010.804, 1914.047
1011.287, 1915.350
1011.769, 1916.745
1012.251, 1916.418
1012.733, 1916.103
1013.215, 1918.211
1013.697, 1923.854
1014.179, 1925.981
1014.661, 1923.032
1015.143, 1919.518
1015.626, 1917.039
1016.108, 1915.936
1016.590, 1918.526
1017.072, 1923.647
1017.554, 1927.046
1018.036, 1925.370
1018.518, 1923.147
1019.000, 1921.975
1019.483, 1921.458
1019.965, 1920.899
1020.447, 1920.053
1020.929, 1920.729
1021.411, 1923.243
1021.893, 1925.925
1022.375, 1927.690
1022.857, 1928.364
1023.339, 1927.243
1023.822, 1924.382
1024.304, 1922.113
1024.786, 1920.777
1025.268, 1920.662
1025.750, 1922.757
1026.232, 1925.528
1026.714, 1923.524
1027.196, 1917.912
1027.679, 1914.937
1028.161, 1918.065
1028.643, 1921.008
1029.125, 1918.425
1029.607, 1914.213
1030.089, 1912.834
1030.571, 1915.500
1031.053, 1916.412
1031.536, 1915.192
1032.018, 1913.914
1032.500, 1914.648
1032.982, 1915.975
1033.464, 1914.321
1033.946, 1910.848
1034.428, 1910.510
1034.910, 1919.173
1035.392, 1926.141
1035.875, 1929.545
1036.357, 1929.769
1036.839, 1925.920
1037.321, 1918.698
1037.803, 1915.331
1038.285, 1917.530
1038.767, 1919.345
1039.249, 1914.240
1039.731, 1908.009
1040.214, 1905.836
1040.696, 1908.339
1041.178, 1909.978
1041.660, 1910.840
1042.142, 1910.284
1042.624, 1907.177
1043.106, 1903.437
1043.588, 1902.872
1044.071, 1904.299
1044.553, 1905.010
1045.035, 1903.127
1045.517, 1901.916
1045.999, 1902.204
1046.481, 1903.172
1046.963, 1904.649
1047.445, 1906.486
1047.927, 1905.330
1048.410, 1901.157
1048.892, 1897.435
1049.374, 1896.505
1049.856, 1897.011
1050.338, 1899.099
1050.820, 1901.930
1051.302, 1901.910
1051.784, 1897.864
1052.266, 1894.872
1052.749, 1893.860
1053.231, 1894.510
1053.713, 1897.737
1054.195, 1901.812
1054.677, 1903.877
1055.159, 1903.159
1055.641, 1901.785
1056.123, 1899.270
1056.606, 1897.509
1057.088, 1897.670
1057.570, 1899.308
1058.052, 1900.235
1058.534, 1900.427
1059.016, 1899.680
1059.498, 1897.039
1059.980, 1894.580
1060.463, 1893.854
1060.945, 1893.991
1061.427, 1893.479
1061.909, 1891.358
1062.391, 1892.638
1062.873, 1898.096
1063.355, 1903.185
1063.837, 1903.582
1064.319, 1901.408
1064.802, 1898.756
1065.284, 1896.033
1065.766, 1894.747
1066.248, 1896.972
1066.730, 1898.330
1067.212, 1897.806
1067.694, 1896.329
1068.176, 1895.452
1068.658, 1895.101
1069.141, 1895.010
1069.623, 1895.128
1070.105, 1895.588
1070.587, 1897.177
1071.069, 1898.527
1071.551, 1898.909
1072.033, 1898.323
1072.515, 1895.905
1072.998, 1891.586
1073.480, 1888.617
1073.962, 1888.937
1074.444, 1890.507
1074.926, 1891.551
1075.408, 1892.225
1075.890, 1892.752
1076.372, 1893.113
1076.854, 1893.490
1077.337, 1894.036
1077.819, 1894.196
1078.301, 1893.076
1078.783, 1891.373
1079.265, 1890.915
1079.747, 1891.517
1080.229, 1891.997
1080.711, 1891.911
1081.193, 1891.459
1081.676, 1890.064
1082.158, 1888.896
1082.640, 1890.936
1083.122, 1895.585
1083.604, 1896.424
1084.086, 1892.255
1084.568, 1888.132
1085.050, 1888.384
1085.532, 1889.702
1086.015, 1889.566
1086.497, 1888.100
1086.979, 1887.257
1087.461, 1887.086
1087.943, 1887.508
1088.425, 1888.907
1088.907, 1890.054
1089.389, 1889.286
1089.872, 1887.275
1090.354, 1884.699
1090.836, 1880.718
1091.318, 1879.452
1091.800, 1882.338
1092.282, 1885.122
1092.764, 1884.658
1093.246, 1882.248
1093.729, 1882.033
1094.211, 1883.424
1094.693, 1884.310
1095.175, 1883.574
1095.657, 1882.350
1096.139, 1879.585
1096.621, 1877.633
1097.103, 1880.024
1097.585, 1886.491
1098.068, 1890.075
1098.550, 1890.432
1099.032, 1889.932
1099.514, 1890.204
1099.996, 1890.287
1100.478, 1889.436
1100.960, 1887.852
1101.442, 1886.034
1101.924, 1883.597
1102.407, 1883.598
1102.889, 1887.166
1103.371, 1890.880
1103.853, 1890.190
1104.335, 1887.851
1104.817, 1887.061
1105.299, 1888.347
1105.781, 1890.052
1106.264, 1892.337
1106.746, 1894.167
1107.228, 1895.111
1107.710, 1895.413
1108.192, 1895.534
1108.674, 1895.441
1109.156, 1894.969
1109.638, 1893.656
1110.120, 1893.071
1110.603, 1894.149
1111.085, 1895.472
1111.567, 1896.586
1112.049, 1897.284
1112.531, 1895.088
1113.013, 1890.645
1113.495, 1887.831
1113.977, 1891.166
1114.459, 1893.783
1114.942, 1891.036
1115.424, 1886.476
1115.906, 1885.057
1116.388, 1887.231
1116.870, 1887.176
1117.352, 1884.489
1117.834, 1882.470
1118.316, 1884.123
1118.799, 1887.198
1119.281, 1890.755
1119.763, 1894.171
1120.245, 1895.196
1120.727, 1893.094
1121.209, 1891.083
1121.691, 1889.596
1122.173, 1888.601
1122.656, 1888.359
1123.138, 1888.405
1123.620, 1888.094
1124.102, 1887.333
1124.584, 1886.559
1125.066, 1885.587
1125.548, 1885.060
1126.030, 1885.137
1126.512, 1885.852
1126.995, 1887.683
1127.477, 1890.153
1127.959, 1892.154
1128.441, 1893.489
1128.923, 1894.214
1129.405, 1894.211
1129.887, 1893.768
1130.369, 1892.934
1130.851, 1891.771
1131.334, 1890.083
1131.816, 1888.172
1132.298, 1887.500
1132.780, 1889.318
1133.262, 1891.462
1133.744, 1893.208
1134.226, 1894.563
1134.708, 1895.447
1135.191, 1895.795
1135.673, 1896.626
1136.155, 1897.909
1136.637, 1898.508
1137.119, 1897.472
1137.601, 1895.768
1138.083, 1893.757
1138.565, 1891.701
1139.047, 1890.161
1139.530, 1889.255
1140.012, 1888.186
1140.494, 1886.830
1140.976, 1886.099
1141.458, 1887.292
1141.940, 1889.168
1142.422, 1890.700
1142.904, 1891.770
1143.386, 1892.193
1143.869, 1891.836
1144.351, 1891.125
1144.833, 1889.937
1145.315, 1889.032
1145.797, 1889.515
1146.279, 1890.849
1146.761, 1892.711
1147.243, 1895.092
1147.726, 1895.690
1148.208, 1892.985
1148.690, 1891.250
1149.172, 1892.239
1149.654, 1894.140
1150.136, 1892.711
1150.618, 1889.745
1151.100, 1889.286
1151.583, 1893.021
1152.065, 1895.542
1152.547, 1894.608
1153.029, 1893.379
1153.511, 1893.193
1153.993, 1893.810
1154.475, 1894.734
1154.957, 1895.806
1155.439, 1896.462
1155.922, 1896.266
1156.404, 1896.178
1156.886, 1897.009
1157.368, 1897.680
1157.850, 1897.221
1158.332, 1895.871
1158.814, 1896.061
1159.296, 1897.552
1159.778, 1898.731
1160.261, 1899.216
1160.743, 1898.612
1161.225, 1895.086
1161.707, 1891.478
1162.189, 1891.091
1162.671, 1893.996
1163.153, 1896.147
1163.635, 1897.423
1164.118, 1898.035
1164.600, 1897.795
1165.082, 1897.268
1165.564, 1896.281
1166.046, 1895.485
1166.528, 1896.468
1167.010, 1899.651
1167.492, 1900.227
1167.974, 1897.629
1168.457, 1895.097
1168.939, 1895.942
1169.421, 1897.380
1169.903, 1897.019
1170.385, 1895.248
1170.867, 1894.307
1171.349, 1894.329
1171.831, 1894.273
1172.313, 1893.922
1172.796, 1893.704
1173.278, 1894.150
1173.760, 1894.886
1174.242, 1895.641
1174.724, 1896.369
1175.206, 1896.810
1175.688, 1896.797
1176.170, 1897.394
1176.653, 1899.109
1177.135, 1900.805
1177.617, 1901.201
1178.099, 1900.626
1178.581, 1898.998
1179.063, 1896.085
1179.545, 1895.217
1180.027, 1896.855
1180.510, 1899.186
1180.992, 1902.047
1181.474, 1904.239
1181.956, 1902.974
1182.438, 1900.240
1182.920, 1899.250
1183.402, 1901.139
1183.884, 1902.742
1184.366, 1903.722
1184.849, 1905.159
1185.331, 1908.566
1185.813, 1911.693
1186.295, 1909.103
1186.777, 1903.496
1187.259, 1899.959
1187.741, 1900.769
1188.223, 1901.750
1188.705, 1902.958
1189.188, 1903.596
1189.670, 1902.704
1190.152, 1901.150
1190.634, 1900.482
1191.116, 1900.681
1191.598, 1901.717
1192.080, 1904.615
1192.562, 1906.712
1193.045, 1907.834
1193.527, 1908.208
1194.009, 1907.541
1194.491, 1906.435
1194.973, 1906.244
1195.455, 1906.870
1195.937, 1907.933
1196.419, 1910.247
1196.901, 1911.515
1197.384, 1911.329
1197.866, 1910.400
1198.348, 1909.310
1198.830, 1908.039
1199.312, 1905.944
1199.794, 1903.448
1200.276, 1902.604
1200.758, 1906.405
1201.240, 1908.881
1201.723, 1909.119
1202.205, 1907.892
1202.687, 1905.183
1203.169, 1902.020
1203.651, 1901.199
1204.133, 1902.688
1204.615, 1904.343
1205.097, 1906.281
1205.580, 1906.774
1206.062, 1904.707
1206.544, 1902.393
1207.026, 1903.799
1207.508, 1907.443
1207.990, 1909.645
1208.472, 1910.068
1208.954, 1910.237
1209.437, 1910.030
1209.919, 1910.611
1210.401, 1912.548
1210.883, 1914.926
1211.365, 1916.186
1211.847, 1916.710
1212.329, 1917.500
1212.811, 1918.713
1213.293, 1919.717
1213.776, 1920.366
1214.258, 1920.719
1214.740, 1920.802
1215.222, 1920.586
1215.704, 1919.370
1216.186, 1917.952
1216.668, 1918.750
1217.150, 1922.502
1217.632, 1924.410
1218.115, 1921.293
1218.597, 1918.988
1219.079, 1919.680
1219.561, 1921.855
1220.043, 1922.396
1220.525, 1922.044
1221.007, 1922.742
1221.489, 1925.279
1221.972, 1926.264
1222.454, 1923.691
1222.936, 1921.877
1223.418, 1922.811
1223.900, 1925.031
1224.382, 1925.084
1224.864, 1924.079
1225.346, 1924.557
1225.828, 1927.685
1226.311, 1929.881
1226.793, 1931.000
1227.275, 1930.362
1227.757, 1926.835
1228.239, 1922.358
1228.721, 1921.108
1229.203, 1921.961
1229.685, 1922.814
1230.167, 1923.496
1230.650, 1922.777
1231.132, 1919.779
1231.614, 1917.483
1232.096, 1917.417
1232.578, 1918.974
1233.060, 1921.777
1233.542, 1925.088
1234.024, 1927.449
1234.507, 1928.255
1234.989, 1928.543
1235.471, 1928.053
1235.953, 1927.989
1236.435, 1929.336
1236.917, 1931.192
1237.399, 1932.547
1237.881, 1933.162
1238.364, 1932.422
1238.846, 1928.975
1239.328, 1927.390
1239.810, 1928.063
1240.292, 1929.126
1240.774, 1929.189
1241.256, 1929.270
1241.738, 1931.362
1242.220, 1934.302
1242.703, 1935.902
1243.185, 1935.089
1243.667, 1935.412
1244.149, 1937.151
1244.631, 1938.150
1245.113, 1935.930
1245.595, 1933.212
1246.077, 1933.091
1246.559, 1934.548
1247.042, 1936.037
1247.524, 1937.957
1248.006, 1937.050
1248.488, 1932.952
1248.970, 1930.689
1249.452, 1936.289
1249.934, 1942.545
1250.416, 1942.778
1250.899, 1939.760
1251.381, 1937.912
1251.863, 1937.543
1252.345, 1937.912
1252.827, 1939.032
1253.309, 1939.542
1253.791, 1937.495
1254.273, 1935.637
1254.755, 1936.033
1255.238, 1937.620
1255.720, 1938.998
1256.202, 1940.164
1256.684, 1939.947
1257.166, 1938.426
1257.648, 1937.698
1258.130, 1939.770
1258.612, 1942.120
1259.094, 1943.696
1259.577, 1944.695
1260.059, 1945.382
1260.541, 1945.738
1261.023, 1944.830
1261.505, 1942.859
1261.987, 1941.373
1262.469, 1940.997
1262.951, 1941.650
1263.434, 1944.114
1263.916, 1946.590
1264.398, 1947.076
1264.880, 1946.000
1265.362, 1945.263
1265.844, 1944.844
1266.326, 1944.437
1266.808, 1942.840
1267.291, 1942.951
1267.773, 1946.042
1268.255, 1949.348
1268.737, 1949.671
1269.219, 1948.266
1269.701, 1948.154
1270.183, 1949.233
1270.665, 1950.624
1271.147, 1953.107
1271.630, 1954.125
1272.112, 1953.170
1272.594, 1951.744
1273.076, 1951.021
1273.558, 1950.874
1274.040, 1951.279
1274.522, 1952.057
1275.004, 1952.693
1275.486, 1953.045
1275.969, 1953.413
1276.451, 1953.838
1276.933, 1954.119
1277.415, 1953.521
1277.897, 1953.161
1278.379, 1954.599
1278.861, 1957.157
1279.343, 1959.239
1279.825, 1961.031
1280.308, 1960.668
1280.790, 1957.915
1281.272, 1955.846
1281.754, 1957.331
1282.236, 1959.711
1282.718, 1961.362
1283.200, 1962.503
1283.682, 1963.738
1284.165, 1965.104
1284.647, 1965.155
1285.129, 1963.900
1285.611, 1962.443
1286.093, 1960.905
1286.575, 1959.991
1287.057, 1960.472
1287.539, 1961.372
1288.021, 1961.564
1288.504, 1961.251
1288.986, 1961.619
1289.468, 1962.643
1289.950, 1963.846
1290.432, 1966.234
1290.914, 1966.827
1291.396, 1964.248
1291.878, 1961.429
1292.360, 1961.645
1292.843, 1963.587
1293.325, 1963.797
1293.807, 1962.762
1294.289, 1962.483
1294.771, 1963.629
1295.253, 1966.007
1295.735, 1970.298
1296.217, 1973.486
1296.700, 1971.201
1297.182, 1967.561
1297.664, 1969.239
1298.146, 1973.882
1298.628, 1975.449
1299.110, 1972.466
1299.592, 1971.456
1300.074, 1972.777
1300.557, 1973.682
1301.039, 1971.473
1301.521, 1968.780
1302.003, 1968.071
1302.485, 1968.276
1302.967, 1968.273
1303.449, 1969.203
##END=



