##NAMES=Bismutite
##RRUFFID=R050634
##IDEAL CHEMISTRY=Bi_2_O_2_(CO_3_)
##LOCALITY=Outpost mine, Wickenburg, White Picacho District, Maricopa County, Arizona, USA
##OWNER=RRUFF
##SOURCE=University of Arizona Mineral Museum
##DESCRIPTION=Pale brown flattened spear-head shaped crystals
##STATUS=The identification of this mineral has been confirmed by single-crystal X-ray diffraction.
##URL=rruff.info/R050634
116.2704, 3059.775
116.7525, 3181.276
117.2346, 3285.149
117.7167, 3378.643
118.1988, 3485.386
118.6810, 3622.548
119.1631, 3776.515
119.6452, 3933.501
120.1273, 4100.606
120.6094, 4262.500
121.0915, 4407.069
121.5737, 4534.165
122.0558, 4657.835
122.5379, 4794.833
123.0200, 4934.857
123.5021, 5059.320
123.9842, 5155.066
124.4664, 5232.217
124.9485, 5300.048
125.4306, 5357.139
125.9127, 5412.599
126.3948, 5472.986
126.8769, 5539.270
127.3591, 5616.466
127.8412, 5717.377
128.3233, 5831.675
128.8054, 5932.894
129.2875, 6010.159
129.7696, 6068.070
130.2518, 6113.431
130.7339, 6152.224
131.2160, 6196.690
131.6981, 6250.512
132.1802, 6310.438
132.6623, 6352.967
133.1445, 6351.460
133.6266, 6317.475
134.1087, 6330.630
134.5908, 6395.369
135.0729, 6493.230
135.5550, 6605.168
136.0372, 6733.957
136.5193, 6849.566
137.0014, 6933.675
137.4835, 6983.119
137.9656, 7032.336
138.4477, 7084.433
138.9299, 7137.748
139.4120, 7189.638
139.8941, 7242.925
140.3762, 7289.631
140.8583, 7321.215
141.3404, 7329.265
141.8226, 7348.583
142.3047, 7388.480
142.7868, 7449.363
143.2689, 7505.286
143.7510, 7552.156
144.2331, 7597.530
144.7152, 7652.022
145.1974, 7725.691
145.6795, 7793.865
146.1616, 7850.023
146.6437, 7890.864
147.1258, 7926.341
147.6079, 7945.166
148.0901, 7958.987
148.5722, 7998.577
149.0543, 8089.183
149.5364, 8183.184
150.0185, 8259.265
150.5006, 8305.790
150.9828, 8348.093
151.4649, 8381.444
151.9470, 8407.334
152.4291, 8443.851
152.9112, 8494.395
153.3933, 8553.721
153.8755, 8618.730
154.3576, 8704.738
154.8397, 8780.379
155.3218, 8834.424
155.8039, 8863.030
156.2860, 8896.876
156.7682, 8955.137
157.2503, 9017.499
157.7324, 9058.985
158.2145, 9051.881
158.6966, 9039.493
159.1787, 9039.901
159.6609, 9059.500
160.1430, 9082.900
160.6251, 9114.468
161.1072, 9147.296
161.5893, 9165.095
162.0714, 9165.850
162.5536, 9147.662
163.0357, 9108.149
163.5178, 9027.977
163.9999, 8947.639
164.4820, 8888.590
164.9641, 8847.686
165.4463, 8806.783
165.9284, 8768.857
166.4105, 8722.263
166.8926, 8654.402
167.3747, 8538.362
167.8568, 8415.004
168.3390, 8310.887
168.8211, 8229.301
169.3032, 8154.006
169.7853, 8074.144
170.2674, 7993.629
170.7495, 7919.404
171.2317, 7861.105
171.7138, 7807.356
172.1959, 7746.355
172.6780, 7675.289
173.1601, 7603.772
173.6422, 7533.192
174.1244, 7467.092
174.6065, 7418.083
175.0886, 7411.615
175.5707, 7422.074
176.0528, 7409.944
176.5349, 7359.032
177.0171, 7294.796
177.4992, 7243.338
177.9813, 7204.276
178.4634, 7171.241
178.9455, 7142.802
179.4276, 7116.906
179.9098, 7087.967
180.3919, 7049.111
180.8740, 7008.747
181.3561, 6982.125
181.8382, 6969.995
182.3203, 6959.776
182.8025, 6942.412
183.2846, 6917.721
183.7667, 6883.838
184.2488, 6823.890
184.7309, 6753.657
185.2130, 6727.305
185.6951, 6752.729
186.1773, 6793.022
186.6594, 6801.551
187.1415, 6780.096
187.6236, 6747.869
188.1057, 6706.237
188.5878, 6659.650
189.0700, 6629.248
189.5521, 6620.367
190.0342, 6623.300
190.5163, 6623.149
190.9984, 6619.800
191.4805, 6610.911
191.9627, 6590.405
192.4448, 6559.518
192.9269, 6536.704
193.4090, 6528.800
193.8911, 6528.604
194.3732, 6513.931
194.8554, 6483.186
195.3375, 6446.628
195.8196, 6410.948
196.3017, 6376.158
196.7838, 6348.231
197.2659, 6329.736
197.7481, 6319.909
198.2302, 6315.819
198.7123, 6320.834
199.1944, 6322.728
199.6765, 6301.504
200.1586, 6253.005
200.6408, 6212.633
201.1229, 6194.367
201.6050, 6198.606
202.0871, 6202.800
202.5692, 6205.608
203.0513, 6210.165
203.5335, 6224.964
204.0156, 6253.801
204.4977, 6276.252
204.9798, 6282.154
205.4619, 6269.702
205.9440, 6251.270
206.4262, 6223.846
206.9083, 6192.847
207.3904, 6173.034
207.8725, 6167.110
208.3546, 6164.546
208.8367, 6159.185
209.3189, 6150.000
209.8010, 6142.042
210.2831, 6135.995
210.7652, 6131.436
211.2473, 6127.211
211.7294, 6125.140
212.2116, 6120.190
212.6937, 6107.843
213.1758, 6085.775
213.6579, 6064.017
214.1400, 6042.331
214.6221, 6021.389
215.1043, 6010.697
215.5864, 6013.043
216.0685, 6021.845
216.5506, 6031.683
217.0327, 6044.757
217.5148, 6053.638
217.9970, 6055.859
218.4791, 6050.920
218.9612, 6045.402
219.4433, 6036.496
219.9254, 6029.523
220.4075, 6034.479
220.8897, 6062.205
221.3718, 6078.382
221.8539, 6067.672
222.3360, 6020.522
222.8181, 5991.458
223.3002, 5984.436
223.7824, 5993.135
224.2645, 6009.398
224.7466, 6044.555
225.2287, 6068.078
225.7108, 6065.758
226.1929, 6025.875
226.6750, 5992.917
227.1572, 5967.177
227.6393, 5948.699
228.1214, 5937.027
228.6035, 5931.333
229.0856, 5933.917
229.5677, 5948.443
230.0499, 5985.327
230.5320, 6009.380
231.0141, 6015.098
231.4962, 6006.523
231.9783, 5999.871
232.4604, 5994.358
232.9426, 5991.717
233.4247, 5993.797
233.9068, 6004.735
234.3889, 6012.309
234.8710, 6018.454
235.3531, 6021.813
235.8353, 6007.058
236.3174, 5959.864
236.7995, 5910.980
237.2816, 5885.884
237.7637, 5903.157
238.2458, 5907.706
238.7280, 5883.778
239.2101, 5832.186
239.6922, 5808.804
240.1743, 5828.977
240.6564, 5862.066
241.1385, 5879.039
241.6207, 5869.358
242.1028, 5862.674
242.5849, 5866.878
243.0670, 5883.568
243.5491, 5889.165
244.0313, 5874.523
244.5134, 5856.421
244.9955, 5856.051
245.4776, 5887.072
245.9597, 5912.180
246.4418, 5921.208
246.9240, 5911.155
247.4061, 5902.451
247.8882, 5895.194
248.3703, 5889.375
248.8524, 5884.943
249.3345, 5881.569
249.8167, 5880.365
250.2988, 5884.405
250.7809, 5899.208
251.2630, 5894.318
251.7451, 5853.484
252.2272, 5802.465
252.7094, 5792.141
253.1915, 5849.404
253.6736, 5901.302
254.1557, 5918.239
254.6378, 5884.876
255.1199, 5865.543
255.6021, 5865.839
256.0842, 5877.594
256.5663, 5882.868
257.0484, 5878.412
257.5305, 5873.211
258.0126, 5871.700
258.4948, 5876.429
258.9769, 5877.324
259.4590, 5871.357
259.9411, 5862.698
260.4232, 5864.156
260.9053, 5882.486
261.3875, 5898.757
261.8696, 5901.814
262.3517, 5885.788
262.8338, 5875.335
263.3159, 5873.127
263.7980, 5876.941
264.2802, 5878.226
264.7623, 5873.321
265.2444, 5872.992
265.7265, 5886.696
266.2086, 5920.621
266.6907, 5943.956
267.1729, 5951.001
267.6550, 5945.743
268.1371, 5945.813
268.6192, 5956.560
269.1013, 5960.336
269.5834, 5937.949
270.0656, 5879.054
270.5477, 5844.125
271.0298, 5845.526
271.5119, 5875.736
271.9940, 5906.249
272.4761, 5940.298
272.9583, 5966.061
273.4404, 5970.911
273.9225, 5949.962
274.4046, 5936.692
274.8867, 5940.277
275.3688, 5954.905
275.8510, 5952.309
276.3331, 5928.938
276.8152, 5899.174
277.2973, 5869.924
277.7794, 5839.302
278.2615, 5829.087
278.7437, 5851.935
279.2258, 5897.315
279.7079, 5914.491
280.1900, 5898.441
280.6721, 5873.829
281.1542, 5861.873
281.6364, 5862.993
282.1185, 5867.404
282.6006, 5873.632
283.0827, 5881.475
283.5648, 5891.823
284.0469, 5905.902
284.5291, 5916.388
285.0112, 5915.052
285.4933, 5902.163
285.9754, 5885.767
286.4575, 5862.052
286.9396, 5837.655
287.4217, 5843.816
287.9038, 5884.711
288.3860, 5925.010
288.8681, 5920.977
289.3502, 5878.296
289.8323, 5849.741
290.3144, 5856.429
290.7965, 5885.786
291.2787, 5904.836
291.7608, 5913.331
292.2429, 5914.406
292.7250, 5906.477
293.2071, 5892.076
293.6892, 5884.178
294.1714, 5893.170
294.6535, 5908.998
295.1356, 5906.178
295.6177, 5884.011
296.0998, 5861.260
296.5819, 5856.160
297.0641, 5865.127
297.5462, 5876.125
298.0283, 5885.771
298.5104, 5894.772
298.9925, 5905.349
299.4746, 5917.560
299.9568, 5927.580
300.4389, 5932.841
300.9210, 5933.334
301.4031, 5928.877
301.8852, 5910.686
302.3673, 5892.393
302.8495, 5897.145
303.3316, 5924.266
303.8137, 5948.617
304.2958, 5943.536
304.7779, 5921.695
305.2600, 5905.846
305.7422, 5908.806
306.2243, 5918.700
306.7064, 5925.908
307.1885, 5930.417
307.6706, 5930.469
308.1527, 5921.099
308.6349, 5907.437
309.1170, 5896.765
309.5991, 5886.448
310.0812, 5883.968
310.5633, 5902.408
311.0454, 5940.258
311.5276, 5968.523
312.0097, 5960.760
312.4918, 5937.215
312.9739, 5920.344
313.4560, 5927.822
313.9381, 5936.162
314.4203, 5927.814
314.9024, 5904.472
315.3845, 5889.611
315.8666, 5899.540
316.3487, 5920.838
316.8308, 5940.819
317.3130, 5957.079
317.7951, 5969.998
318.2772, 5979.518
318.7593, 5985.652
319.2414, 5988.040
319.7235, 5984.017
320.2057, 5977.521
320.6878, 5971.686
321.1699, 5962.274
321.6520, 5958.744
322.1341, 5971.410
322.6162, 5997.469
323.0984, 6007.541
323.5805, 5973.486
324.0626, 5934.961
324.5447, 5918.718
325.0268, 5950.359
325.5089, 5980.221
325.9911, 6002.722
326.4732, 6017.772
326.9553, 6027.953
327.4374, 6021.685
327.9195, 6018.128
328.4016, 6028.625
328.8838, 6085.576
329.3659, 6115.178
329.8480, 6096.635
330.3301, 6040.129
330.8122, 6009.833
331.2943, 6015.814
331.7765, 6037.507
332.2586, 6065.121
332.7407, 6107.326
333.2228, 6140.056
333.7049, 6162.295
334.1870, 6174.324
334.6692, 6176.590
335.1513, 6165.191
335.6334, 6150.680
336.1155, 6138.211
336.5976, 6127.012
337.0797, 6120.162
337.5619, 6117.824
338.0440, 6119.958
338.5261, 6127.654
339.0082, 6142.611
339.4903, 6157.665
339.9724, 6166.829
340.4546, 6168.613
340.9367, 6179.793
341.4188, 6206.088
341.9009, 6236.510
342.3830, 6245.590
342.8651, 6231.367
343.3473, 6215.431
343.8294, 6211.277
344.3115, 6217.739
344.7936, 6216.711
345.2757, 6204.815
345.7578, 6191.711
346.2400, 6193.897
346.7221, 6210.677
347.2042, 6229.377
347.6863, 6237.021
348.1684, 6240.936
348.6505, 6270.829
349.1327, 6332.976
349.6148, 6398.242
350.0969, 6427.039
350.5790, 6427.104
351.0611, 6428.973
351.5432, 6451.667
352.0254, 6483.375
352.5075, 6506.205
352.9896, 6518.956
353.4717, 6526.200
353.9538, 6529.870
354.4359, 6531.198
354.9181, 6532.463
355.4002, 6534.954
355.8823, 6537.911
356.3644, 6543.232
356.8465, 6551.095
357.3286, 6552.500
357.8108, 6538.938
358.2929, 6516.369
358.7750, 6492.330
359.2571, 6461.324
359.7392, 6436.568
360.2213, 6427.937
360.7035, 6434.535
361.1856, 6442.725
361.6677, 6445.369
362.1498, 6447.354
362.6319, 6452.931
363.1140, 6480.844
363.5962, 6494.484
364.0783, 6474.156
364.5604, 6425.115
365.0425, 6384.824
365.5246, 6358.026
366.0067, 6345.110
366.4889, 6346.182
366.9710, 6378.756
367.4531, 6404.834
367.9352, 6423.730
368.4173, 6434.503
368.8994, 6432.483
369.3815, 6406.795
369.8636, 6377.985
370.3458, 6355.038
370.8279, 6340.444
371.3100, 6327.070
371.7921, 6314.129
372.2742, 6302.454
372.7563, 6294.161
373.2385, 6289.866
373.7206, 6288.011
374.2027, 6291.179
374.6848, 6305.227
375.1669, 6297.723
375.6490, 6259.697
376.1312, 6209.412
376.6133, 6173.044
377.0954, 6148.906
377.5775, 6146.123
378.0596, 6177.950
378.5417, 6242.297
379.0239, 6285.952
379.5060, 6308.361
379.9881, 6310.757
380.4702, 6285.423
380.9523, 6233.354
381.4344, 6188.754
381.9166, 6159.190
382.3987, 6146.016
382.8808, 6161.730
383.3629, 6208.326
383.8450, 6249.185
384.3271, 6236.384
384.8093, 6187.037
385.2914, 6154.846
385.7735, 6161.937
386.2556, 6188.036
386.7377, 6215.586
387.2198, 6242.220
387.7020, 6250.150
388.1841, 6207.124
388.6662, 6143.782
389.1483, 6102.086
389.6304, 6102.078
390.1125, 6111.027
390.5947, 6106.108
391.0768, 6090.377
391.5589, 6073.199
392.0410, 6054.339
392.5231, 6039.120
393.0052, 6031.452
393.4874, 6033.124
393.9695, 6039.878
394.4516, 6057.507
394.9337, 6078.282
395.4158, 6088.092
395.8979, 6066.050
396.3801, 6046.421
396.8622, 6044.864
397.3443, 6068.342
397.8264, 6088.739
398.3085, 6102.062
398.7906, 6110.265
399.2728, 6115.821
399.7549, 6138.269
400.2370, 6135.785
400.7191, 6084.611
401.2012, 5978.262
401.6833, 5924.981
402.1655, 5958.632
402.6476, 6012.605
403.1297, 6026.726
403.6118, 5978.397
404.0939, 5946.055
404.5760, 5945.302
405.0582, 5970.173
405.5403, 5990.994
406.0224, 6009.225
406.5045, 6018.583
406.9866, 6008.183
407.4688, 5975.951
407.9509, 5961.173
408.4330, 5971.592
408.9151, 5995.995
409.3972, 6011.076
409.8793, 6016.715
410.3615, 6022.713
410.8436, 6040.144
411.3257, 6063.129
411.8078, 6067.667
412.2899, 6048.844
412.7720, 6027.444
413.2542, 6035.349
413.7363, 6062.409
414.2184, 6078.468
414.7005, 6056.621
415.1826, 6022.718
415.6647, 6005.519
416.1469, 6006.027
416.6290, 6017.189
417.1111, 6052.436
417.5932, 6090.241
418.0753, 6101.603
418.5574, 6039.390
419.0396, 5981.851
419.5217, 5978.763
420.0038, 6021.653
420.4859, 6053.653
420.9680, 6044.354
421.4501, 6021.379
421.9323, 6003.809
422.4144, 5998.278
422.8965, 5993.812
423.3786, 5982.766
423.8607, 5971.040
424.3428, 5974.970
424.8250, 6025.706
425.3071, 6066.086
425.7892, 6072.040
426.2713, 6021.344
426.7534, 5997.560
427.2355, 6016.748
427.7177, 6052.753
428.1998, 6065.346
428.6819, 6042.099
429.1640, 6022.720
429.6461, 6019.116
430.1282, 6030.792
430.6104, 6038.311
431.0925, 6040.412
431.5746, 6040.819
432.0567, 6044.873
432.5388, 6052.747
433.0209, 6053.348
433.5031, 6041.431
433.9852, 6023.216
434.4673, 6015.034
434.9494, 6016.779
435.4315, 6018.886
435.9136, 6013.249
436.3958, 6002.951
436.8779, 5995.960
437.3600, 5994.305
437.8421, 5994.345
438.3242, 5987.805
438.8063, 5979.080
439.2885, 5980.382
439.7706, 6016.725
440.2527, 6054.835
440.7348, 6058.481
441.2169, 6021.450
441.6990, 5986.344
442.1812, 5975.321
442.6633, 5979.969
443.1454, 5990.062
443.6275, 6009.507
444.1096, 6026.800
444.5917, 6037.236
445.0739, 6041.104
445.5560, 6043.815
446.0381, 6050.633
446.5202, 6053.809
447.0023, 6048.762
447.4844, 6032.357
447.9666, 6010.935
448.4487, 5976.079
448.9308, 5936.890
449.4129, 5919.501
449.8950, 5936.375
450.3771, 5955.132
450.8593, 5961.235
451.3413, 5950.360
451.8235, 5954.555
452.3056, 5981.004
452.7877, 6011.236
453.2698, 6018.921
453.7519, 6002.211
454.2340, 5982.652
454.7162, 5962.343
455.1983, 5944.842
455.6804, 5945.634
456.1625, 5965.593
456.6446, 5988.575
457.1267, 6006.043
457.6089, 6016.003
458.0910, 6011.247
458.5731, 5983.348
459.0552, 5952.957
459.5373, 5951.305
460.0194, 5969.727
460.5016, 5979.351
460.9837, 5946.615
461.4658, 5907.662
461.9479, 5898.254
462.4300, 5927.392
462.9121, 5957.964
463.3943, 5974.183
463.8764, 5979.828
464.3585, 5979.478
464.8406, 5966.354
465.3227, 5955.419
465.8048, 5950.929
466.2870, 5953.021
466.7691, 5960.003
467.2512, 5980.744
467.7333, 6000.042
468.2154, 6008.475
468.6975, 5998.819
469.1797, 5989.423
469.6618, 5978.063
470.1439, 5968.201
470.6260, 5972.411
471.1081, 6000.128
471.5902, 6018.758
472.0724, 6009.070
472.5545, 5968.252
473.0366, 5946.566
473.5187, 5947.684
474.0008, 5958.117
474.4829, 5962.440
474.9651, 5961.148
475.4472, 5960.000
475.9293, 5962.018
476.4114, 5964.566
476.8935, 5957.989
477.3756, 5943.669
477.8578, 5937.105
478.3399, 5960.364
478.8220, 5995.624
479.3041, 6016.410
479.7862, 6016.150
480.2683, 6004.650
480.7505, 5977.133
481.2326, 5943.976
481.7147, 5926.779
482.1968, 5946.189
482.6789, 5973.767
483.1610, 5997.196
483.6432, 6015.673
484.1253, 6026.895
484.6074, 6019.601
485.0895, 6009.810
485.5716, 6011.375
486.0537, 6045.472
486.5359, 6066.559
487.0180, 6064.379
487.5001, 6044.938
487.9822, 6035.697
488.4643, 6037.438
488.9464, 6048.330
489.4286, 6074.124
489.9107, 6122.942
490.3928, 6138.358
490.8749, 6109.828
491.3570, 6066.466
491.8391, 6051.964
492.3213, 6066.384
492.8034, 6083.302
493.2855, 6095.690
493.7676, 6103.370
494.2497, 6103.366
494.7318, 6095.947
495.2140, 6089.810
495.6961, 6092.755
496.1782, 6101.714
496.6603, 6111.259
497.1424, 6120.246
497.6245, 6129.734
498.1067, 6145.212
498.5888, 6161.892
499.0709, 6168.973
499.5530, 6155.188
500.0351, 6135.520
500.5172, 6112.865
500.9994, 6085.322
501.4815, 6074.572
501.9636, 6100.911
502.4457, 6138.208
502.9278, 6162.968
503.4099, 6170.836
503.8921, 6169.749
504.3742, 6158.532
504.8563, 6138.873
505.3384, 6116.777
505.8205, 6090.993
506.3026, 6065.915
506.7848, 6042.653
507.2669, 6020.378
507.7490, 6007.243
508.2311, 6005.229
508.7132, 6008.193
509.1953, 6010.354
509.6775, 6011.287
510.1596, 6005.302
510.6417, 5985.179
511.1238, 5960.301
511.6059, 5952.196
512.0880, 5959.159
512.5701, 5964.264
513.0522, 5952.481
513.5344, 5932.743
514.0165, 5917.053
514.4986, 5909.400
514.9807, 5900.100
515.4628, 5875.357
515.9449, 5846.052
516.4271, 5830.950
516.9092, 5853.495
517.3913, 5875.156
517.8734, 5880.602
518.3555, 5868.772
518.8376, 5856.616
519.3198, 5844.701
519.8019, 5834.198
520.2840, 5825.731
520.7661, 5819.752
521.2482, 5815.540
521.7303, 5772.312
522.2125, 5822.403
522.6946, 5849.228
523.1767, 5854.039
523.6588, 5770.692
524.1409, 5801.344
524.6230, 5786.410
525.1052, 5769.674
525.5873, 5816.574
526.0694, 5746.413
526.5515, 5792.446
527.0336, 5792.195
527.5157, 5813.230
527.9979, 5788.396
528.4800, 5777.823
528.9621, 5813.274
529.4442, 5823.351
529.9263, 5793.512
530.4084, 5816.319
530.8906, 5745.260
531.3727, 5756.704
531.8548, 5803.783
532.3369, 5776.607
532.8190, 5800.608
533.3011, 5805.216
533.7833, 5721.438
534.2654, 5791.565
534.7475, 5795.234
535.2296, 5730.665
535.7117, 5795.733
536.1938, 5740.722
536.6760, 5728.667
537.1581, 5748.958
537.6402, 5735.675
538.1223, 5775.508
538.6044, 5764.309
539.0865, 5748.615
539.5687, 5752.916
540.0508, 5700.827
540.5329, 5753.556
541.0150, 5734.804
541.4971, 5751.690
541.9792, 5776.708
542.4614, 5740.069
542.9435, 5768.851
543.4256, 5696.360
543.9077, 5708.737
544.3898, 5712.054
544.8719, 5769.643
545.3541, 5697.929
545.8362, 5708.233
546.3183, 5753.500
546.8004, 5750.016
547.2825, 5767.015
547.7646, 5723.654
548.2468, 5737.134
548.7289, 5735.037
549.2110, 5787.083
549.6931, 5796.511
550.1752, 5754.529
550.6573, 5712.836
551.1395, 5769.056
551.6216, 5732.610
552.1037, 5746.266
552.5858, 5708.321
553.0679, 5715.061
553.5500, 5721.164
554.0322, 5750.208
554.5143, 5709.974
554.9964, 5759.767
555.4785, 5757.638
555.9606, 5761.195
556.4427, 5740.020
556.9249, 5715.746
557.4070, 5691.170
557.8891, 5673.799
558.3712, 5677.486
558.8533, 5706.085
559.3354, 5728.649
559.8176, 5723.414
560.2997, 5705.431
560.7818, 5690.089
561.2639, 5679.812
561.7460, 5674.200
562.2281, 5676.196
562.7103, 5683.352
563.1924, 5686.001
563.6745, 5675.646
564.1566, 5672.127
564.6387, 5685.729
565.1208, 5719.603
565.6030, 5740.361
566.0851, 5746.044
566.5672, 5743.129
567.0493, 5733.813
567.5314, 5718.948
568.0135, 5714.701
568.4957, 5728.891
568.9778, 5746.756
569.4599, 5736.145
569.9420, 5704.887
570.4241, 5686.585
570.9063, 5720.542
571.3884, 5763.033
571.8705, 5766.402
572.3526, 5728.716
572.8347, 5687.359
573.3168, 5649.980
573.7990, 5624.119
574.2811, 5617.900
574.7632, 5657.954
575.2453, 5681.888
575.7274, 5668.670
576.2095, 5634.986
576.6917, 5613.054
577.1738, 5601.794
577.6559, 5604.917
578.1380, 5630.815
578.6201, 5676.748
579.1022, 5695.039
579.5844, 5680.139
580.0665, 5658.029
580.5486, 5646.819
581.0307, 5645.563
581.5128, 5649.793
581.9949, 5660.463
582.4771, 5671.244
582.9592, 5673.141
583.4413, 5668.994
583.9234, 5665.810
584.4055, 5673.731
584.8876, 5678.116
585.3698, 5655.146
585.8519, 5613.279
586.3340, 5598.080
586.8161, 5667.867
587.2982, 5740.458
587.7803, 5764.737
588.2625, 5707.809
588.7446, 5675.212
589.2267, 5683.701
589.7088, 5710.042
590.1909, 5729.724
590.6730, 5739.304
591.1552, 5752.378
591.6373, 5776.054
592.1194, 5801.658
592.6015, 5796.143
593.0836, 5757.016
593.5657, 5726.631
594.0479, 5735.917
594.5300, 5770.348
595.0121, 5792.618
595.4942, 5801.849
595.9763, 5800.844
596.4584, 5782.362
596.9406, 5758.375
597.4227, 5744.111
597.9048, 5744.012
598.3869, 5753.186
598.8690, 5781.517
599.3511, 5816.132
599.8333, 5832.625
600.3154, 5805.789
600.7975, 5781.133
601.2796, 5771.555
601.7617, 5776.771
602.2438, 5782.168
602.7260, 5791.765
603.2081, 5795.095
603.6902, 5781.760
604.1723, 5749.694
604.6544, 5729.912
605.1365, 5726.292
605.6187, 5728.347
606.1008, 5721.890
606.5829, 5708.972
607.0650, 5698.130
607.5471, 5692.537
608.0292, 5689.614
608.5114, 5685.928
608.9935, 5682.194
609.4756, 5681.063
609.9577, 5689.550
610.4398, 5696.625
610.9219, 5692.746
611.4041, 5674.618
611.8862, 5663.674
612.3683, 5665.148
612.8504, 5674.740
613.3325, 5689.959
613.8146, 5719.999
614.2968, 5737.049
614.7789, 5735.991
615.2610, 5724.673
615.7431, 5720.863
616.2252, 5726.416
616.7073, 5720.680
617.1895, 5691.083
617.6716, 5647.069
618.1537, 5611.375
618.6358, 5583.876
619.1179, 5569.364
619.6000, 5581.823
620.0822, 5604.280
620.5643, 5614.085
621.0464, 5606.062
621.5285, 5600.196
622.0106, 5616.706
622.4927, 5637.208
622.9749, 5641.946
623.4570, 5601.502
623.9391, 5575.367
624.4212, 5582.415
624.9033, 5608.288
625.3854, 5614.892
625.8676, 5591.694
626.3497, 5572.495
626.8318, 5571.468
627.3139, 5585.979
627.7960, 5589.140
628.2781, 5579.634
628.7603, 5569.309
629.2424, 5570.687
629.7245, 5578.603
630.2066, 5578.949
630.6887, 5568.960
631.1708, 5555.898
631.6530, 5542.155
632.1351, 5530.534
632.6172, 5525.266
633.0993, 5539.713
633.5814, 5548.584
634.0635, 5536.919
634.5457, 5511.138
635.0278, 5495.826
635.5099, 5502.897
635.9920, 5510.285
636.4741, 5509.494
636.9562, 5499.522
637.4384, 5502.364
637.9205, 5523.153
638.4026, 5542.638
638.8847, 5541.274
639.3668, 5521.725
639.8489, 5509.877
640.3311, 5509.959
640.8132, 5512.994
641.2953, 5508.521
641.7774, 5498.891
642.2595, 5488.969
642.7416, 5474.775
643.2238, 5466.916
643.7059, 5477.054
644.1880, 5500.073
644.6701, 5518.976
645.1522, 5526.963
645.6343, 5530.887
646.1165, 5531.235
646.5986, 5527.108
647.0807, 5531.277
647.5628, 5551.961
648.0449, 5569.132
648.5270, 5565.045
649.0092, 5537.654
649.4913, 5515.135
649.9734, 5498.110
650.4555, 5489.952
650.9376, 5503.025
651.4197, 5530.331
651.9019, 5545.973
652.3840, 5533.783
652.8661, 5515.173
653.3482, 5510.498
653.8303, 5516.198
654.3124, 5521.544
654.7946, 5517.703
655.2767, 5516.054
655.7588, 5525.695
656.2409, 5548.962
656.7230, 5558.833
657.2051, 5544.525
657.6872, 5527.292
658.1693, 5518.943
658.6514, 5520.119
659.1335, 5529.392
659.6157, 5549.932
660.0978, 5571.823
660.5799, 5584.583
661.0620, 5588.083
661.5441, 5577.780
662.0262, 5543.813
662.5084, 5509.943
662.9905, 5512.822
663.4726, 5539.919
663.9547, 5557.182
664.4368, 5530.814
664.9189, 5505.444
665.4011, 5513.185
665.8832, 5552.934
666.3653, 5570.978
666.8474, 5531.757
667.3295, 5492.127
667.8116, 5477.589
668.2938, 5493.969
668.7759, 5512.572
669.2580, 5537.829
669.7401, 5555.881
670.2222, 5541.831
670.7043, 5500.650
671.1865, 5486.324
671.6686, 5517.207
672.1507, 5557.420
672.6328, 5566.078
673.1149, 5549.205
673.5970, 5521.053
674.0792, 5473.936
674.5613, 5430.080
675.0434, 5398.678
675.5255, 5380.525
676.0076, 5377.575
676.4897, 5408.522
676.9719, 5436.771
677.4540, 5447.096
677.9361, 5436.736
678.4182, 5434.805
678.9003, 5445.125
679.3824, 5455.018
679.8646, 5452.015
680.3467, 5437.424
680.8288, 5425.978
681.3109, 5417.890
681.7930, 5418.019
682.2751, 5440.981
682.7573, 5475.201
683.2394, 5497.324
683.7215, 5490.943
684.2036, 5481.729
684.6857, 5492.264
685.1678, 5510.758
685.6500, 5510.090
686.1321, 5458.395
686.6142, 5414.083
687.0963, 5394.163
687.5784, 5396.564
688.0605, 5400.229
688.5427, 5405.618
689.0248, 5410.993
689.5069, 5414.401
689.9890, 5416.294
690.4711, 5423.950
690.9532, 5438.071
691.4354, 5449.991
691.9175, 5454.675
692.3996, 5450.927
692.8817, 5433.755
693.3638, 5395.662
693.8459, 5363.718
694.3281, 5355.855
694.8102, 5362.486
695.2923, 5370.925
695.7744, 5390.024
696.2565, 5396.138
696.7386, 5377.719
697.2208, 5346.660
697.7029, 5334.563
698.1850, 5345.082
698.6671, 5362.401
699.1492, 5385.309
699.6313, 5409.423
700.1135, 5419.456
700.5956, 5415.546
701.0777, 5400.759
701.5598, 5356.798
702.0419, 5313.391
702.5240, 5314.691
703.0062, 5366.020
703.4883, 5415.131
703.9704, 5443.679
704.4525, 5455.392
704.9346, 5451.372
705.4167, 5410.592
705.8989, 5393.263
706.3810, 5417.336
706.8631, 5449.800
707.3452, 5443.804
707.8273, 5390.301
708.3094, 5362.442
708.7916, 5381.445
709.2737, 5417.847
709.7558, 5412.987
710.2379, 5376.762
710.7200, 5348.750
711.2021, 5357.613
711.6843, 5374.363
712.1664, 5371.406
712.6485, 5353.455
713.1306, 5340.964
713.6127, 5346.178
714.0948, 5354.273
714.5770, 5358.006
715.0591, 5356.673
715.5412, 5359.562
716.0233, 5369.275
716.5054, 5378.429
716.9875, 5380.958
717.4697, 5376.904
717.9518, 5377.605
718.4339, 5384.618
718.9160, 5389.864
719.3981, 5381.472
719.8802, 5365.807
720.3624, 5355.736
720.8445, 5356.369
721.3266, 5358.141
721.8087, 5354.807
722.2908, 5349.088
722.7729, 5344.939
723.2551, 5340.511
723.7372, 5341.204
724.2193, 5350.164
724.7014, 5363.928
725.1835, 5372.622
725.6656, 5375.159
726.1478, 5376.178
726.6299, 5375.052
727.1120, 5374.383
727.5941, 5386.122
728.0762, 5408.618
728.5583, 5425.654
729.0405, 5421.173
729.5226, 5409.640
730.0047, 5406.004
730.4868, 5411.388
730.9689, 5415.341
731.4510, 5415.975
731.9332, 5412.622
732.4153, 5404.341
732.8974, 5389.632
733.3795, 5374.492
733.8616, 5356.237
734.3438, 5342.141
734.8259, 5344.569
735.3080, 5362.923
735.7901, 5364.800
736.2722, 5341.710
736.7543, 5314.751
737.2365, 5315.924
737.7186, 5332.495
738.2007, 5337.887
738.6828, 5309.428
739.1649, 5284.654
739.6470, 5287.446
740.1292, 5307.806
740.6113, 5323.002
741.0934, 5328.113
741.5755, 5328.315
742.0576, 5321.000
742.5397, 5309.543
743.0219, 5309.792
743.5040, 5323.061
743.9861, 5340.172
744.4682, 5361.409
744.9503, 5382.108
745.4324, 5386.512
745.9146, 5376.110
746.3967, 5365.607
746.8788, 5365.837
747.3609, 5369.761
747.8430, 5370.771
748.3251, 5367.350
748.8073, 5367.717
749.2894, 5380.013
749.7715, 5391.874
750.2536, 5396.709
750.7357, 5396.521
751.2178, 5378.539
751.7000, 5333.275
752.1821, 5292.083
752.6642, 5298.824
753.1463, 5344.331
753.6284, 5383.470
754.1105, 5409.552
754.5927, 5423.109
755.0748, 5419.106
755.5569, 5404.603
756.0390, 5390.641
756.5211, 5380.768
757.0032, 5372.573
757.4854, 5366.555
757.9675, 5361.760
758.4496, 5354.839
758.9317, 5339.000
759.4138, 5337.149
759.8959, 5360.103
760.3781, 5397.600
760.8602, 5419.301
761.3423, 5425.602
761.8244, 5422.156
762.3065, 5404.831
762.7886, 5383.591
763.2708, 5371.974
763.7529, 5368.597
764.2350, 5364.083
764.7171, 5345.116
765.1992, 5331.170
765.6813, 5336.727
766.1635, 5365.793
766.6456, 5381.424
767.1277, 5376.947
767.6098, 5369.628
768.0919, 5370.283
768.5740, 5378.779
769.0562, 5385.663
769.5383, 5390.546
770.0204, 5396.087
770.5025, 5406.122
770.9846, 5418.077
771.4667, 5429.517
771.9489, 5442.222
772.4310, 5445.077
772.9131, 5424.331
773.3952, 5395.078
773.8773, 5372.470
774.3594, 5358.199
774.8416, 5350.834
775.3237, 5351.095
775.8058, 5357.593
776.2879, 5373.357
776.7700, 5398.603
777.2521, 5406.729
777.7343, 5386.112
778.2164, 5360.034
778.6985, 5368.472
779.1806, 5396.453
779.6627, 5409.956
780.1448, 5374.709
780.6270, 5342.656
781.1091, 5337.048
781.5912, 5352.374
782.0733, 5373.607
782.5554, 5410.943
783.0375, 5434.820
783.5197, 5434.386
784.0018, 5416.463
784.4839, 5405.493
784.9660, 5401.483
785.4481, 5400.934
785.9302, 5403.420
786.4124, 5407.542
786.8945, 5413.193
787.3766, 5419.310
787.8587, 5419.884
788.3408, 5405.004
788.8229, 5389.622
789.3051, 5383.998
789.7872, 5389.691
790.2693, 5389.274
790.7514, 5380.449
791.2335, 5368.921
791.7156, 5354.892
792.1978, 5338.547
792.6799, 5338.535
793.1620, 5355.992
793.6441, 5372.637
794.1262, 5368.265
794.6083, 5355.042
795.0905, 5350.625
795.5726, 5357.260
796.0547, 5368.802
796.5368, 5385.978
797.0189, 5404.239
797.5010, 5420.577
797.9832, 5438.373
798.4653, 5443.672
798.9474, 5430.391
799.4295, 5414.162
799.9116, 5412.859
800.3937, 5425.226
800.8759, 5430.817
801.3580, 5425.516
801.8401, 5421.020
802.3222, 5435.475
802.8043, 5457.248
803.2864, 5468.188
803.7686, 5457.535
804.2507, 5446.706
804.7328, 5439.027
805.2149, 5436.833
805.6970, 5443.172
806.1791, 5461.413
806.6613, 5480.057
807.1434, 5499.180
807.6255, 5515.826
808.1076, 5521.872
808.5897, 5519.393
809.0718, 5521.451
809.5540, 5533.399
810.0361, 5548.991
810.5182, 5566.617
811.0003, 5582.867
811.4824, 5591.162
811.9645, 5586.294
812.4467, 5576.733
812.9288, 5562.623
813.4109, 5545.806
813.8930, 5530.436
814.3751, 5516.266
814.8572, 5504.574
815.3394, 5495.648
815.8215, 5489.565
816.3036, 5489.444
816.7857, 5493.339
817.2678, 5492.037
817.7499, 5475.612
818.2321, 5457.117
818.7142, 5446.122
819.1963, 5440.986
819.6784, 5434.012
820.1605, 5416.872
820.6426, 5405.903
821.1248, 5410.769
821.6068, 5426.042
822.0889, 5412.034
822.5710, 5365.157
823.0532, 5331.622
823.5353, 5349.603
824.0174, 5391.913
824.4995, 5407.760
824.9816, 5400.715
825.4637, 5394.431
825.9459, 5410.974
826.4280, 5423.554
826.9101, 5410.674
827.3922, 5370.505
827.8743, 5353.615
828.3564, 5371.375
828.8386, 5392.781
829.3207, 5406.072
829.8028, 5411.022
830.2849, 5402.958
830.7670, 5382.155
831.2491, 5362.795
831.7313, 5356.750
832.2134, 5356.889
832.6955, 5356.854
833.1776, 5356.099
833.6597, 5351.985
834.1418, 5336.661
834.6240, 5324.063
835.1061, 5322.083
835.5882, 5332.045
836.0703, 5339.843
836.5524, 5345.485
837.0345, 5349.055
837.5167, 5349.074
837.9988, 5347.248
838.4809, 5350.213
838.9630, 5358.204
839.4451, 5362.822
839.9272, 5349.979
840.4094, 5337.076
840.8915, 5338.065
841.3736, 5356.557
841.8557, 5381.218
842.3378, 5418.539
842.8199, 5451.708
843.3021, 5467.680
843.7842, 5465.761
844.2663, 5468.392
844.7484, 5476.044
845.2305, 5485.123
845.7126, 5491.327
846.1948, 5497.471
846.6769, 5508.909
847.1590, 5527.337
847.6411, 5542.466
848.1232, 5540.601
848.6053, 5541.626
849.0875, 5561.634
849.5696, 5608.682
850.0517, 5642.507
850.5338, 5660.691
851.0159, 5672.901
851.4980, 5688.635
851.9802, 5705.545
852.4623, 5714.175
852.9444, 5713.089
853.4265, 5712.255
853.9086, 5717.500
854.3907, 5727.384
854.8729, 5740.722
855.3550, 5757.267
855.8371, 5777.841
856.3192, 5808.305
856.8013, 5835.377
857.2834, 5844.191
857.7656, 5834.144
858.2477, 5844.634
858.7298, 5880.292
859.2119, 5911.848
859.6940, 5913.914
860.1761, 5894.074
860.6583, 5857.534
861.1404, 5801.262
861.6225, 5752.516
862.1046, 5722.344
862.5867, 5703.815
863.0688, 5692.909
863.5510, 5692.916
864.0331, 5688.318
864.5152, 5680.055
864.9973, 5663.730
865.4794, 5629.385
865.9615, 5583.982
866.4437, 5546.228
866.9258, 5518.314
867.4079, 5495.027
867.8900, 5468.795
868.3721, 5448.121
868.8542, 5442.270
869.3364, 5461.313
869.8185, 5469.306
870.3006, 5465.536
870.7827, 5451.998
871.2648, 5425.146
871.7469, 5387.286
872.2291, 5361.574
872.7112, 5349.498
873.1933, 5346.744
873.6754, 5363.673
874.1575, 5379.836
874.6396, 5365.889
875.1218, 5308.076
875.6039, 5276.322
876.0860, 5311.054
876.5681, 5355.297
877.0502, 5378.217
877.5323, 5377.351
878.0145, 5376.247
878.4966, 5374.816
878.9787, 5373.154
879.4608, 5376.182
879.9429, 5377.136
880.4250, 5358.421
880.9072, 5317.872
881.3893, 5290.315
881.8714, 5306.270
882.3535, 5330.057
882.8356, 5338.410
883.3177, 5328.737
883.7999, 5323.503
884.2820, 5323.030
884.7641, 5326.065
885.2462, 5334.977
885.7283, 5346.420
886.2104, 5352.111
886.6926, 5351.580
887.1747, 5341.566
887.6568, 5300.380
888.1389, 5264.483
888.6210, 5267.822
889.1031, 5317.676
889.5853, 5335.320
890.0674, 5300.770
890.5495, 5268.312
891.0316, 5266.091
891.5137, 5289.381
891.9958, 5311.281
892.4780, 5331.651
892.9601, 5344.600
893.4422, 5339.678
893.9243, 5330.686
894.4064, 5329.948
894.8885, 5337.168
895.3707, 5343.417
895.8528, 5349.505
896.3349, 5350.188
896.8170, 5339.735
897.2991, 5322.023
897.7813, 5325.037
898.2634, 5348.725
898.7455, 5362.571
899.2276, 5338.962
899.7097, 5303.442
900.1918, 5281.199
900.6740, 5273.342
901.1561, 5283.720
901.6382, 5350.422
902.1203, 5393.185
902.6024, 5378.025
903.0845, 5323.027
903.5667, 5290.239
904.0488, 5280.009
904.5309, 5292.012
905.0130, 5340.149
905.4951, 5392.715
905.9772, 5390.225
906.4594, 5351.128
906.9415, 5324.182
907.4236, 5342.574
907.9057, 5361.701
908.3878, 5363.461
908.8699, 5356.073
909.3521, 5355.561
909.8342, 5362.879
910.3163, 5375.593
910.7984, 5398.399
911.2805, 5416.375
911.7626, 5393.640
912.2448, 5347.063
912.7269, 5317.242
913.2090, 5324.298
913.6911, 5340.653
914.1732, 5361.449
914.6553, 5380.490
915.1375, 5389.546
915.6196, 5387.946
916.1017, 5375.250
916.5838, 5345.899
917.0659, 5317.994
917.5480, 5322.390
918.0302, 5347.690
918.5123, 5359.709
918.9944, 5349.499
919.4765, 5334.083
919.9586, 5314.361
920.4407, 5300.363
920.9229, 5303.914
921.4050, 5336.907
921.8871, 5356.940
922.3692, 5360.863
922.8513, 5358.754
923.3334, 5359.597
923.8156, 5362.260
924.2977, 5363.038
924.7798, 5361.714
925.2619, 5356.479
925.7440, 5336.477
926.2261, 5319.046
926.7083, 5322.298
927.1904, 5353.725
927.6725, 5365.832
928.1546, 5350.200
928.6367, 5331.633
929.1188, 5323.980
929.6010, 5325.542
930.0831, 5329.511
930.5652, 5335.482
931.0473, 5339.368
931.5294, 5339.657
932.0115, 5335.902
932.4937, 5321.636
932.9758, 5299.375
933.4579, 5296.950
933.9400, 5331.232
934.4221, 5355.094
934.9042, 5348.903
935.3864, 5324.996
935.8685, 5324.296
936.3506, 5343.040
936.8327, 5358.771
937.3148, 5355.706
937.7969, 5350.383
938.2791, 5355.062
938.7612, 5366.405
939.2433, 5377.281
939.7254, 5395.251
940.2075, 5396.445
940.6896, 5370.588
941.1718, 5335.222
941.6539, 5318.287
942.1360, 5319.593
942.6181, 5342.668
943.1002, 5399.763
943.5823, 5447.575
944.0645, 5443.732
944.5466, 5414.454
945.0287, 5391.655
945.5108, 5378.650
945.9929, 5377.723
946.4750, 5392.992
946.9572, 5413.377
947.4393, 5430.979
947.9214, 5444.379
948.4035, 5443.438
948.8856, 5426.227
949.3677, 5408.320
949.8499, 5396.285
950.3320, 5392.192
950.8141, 5401.388
951.2962, 5429.216
951.7783, 5441.473
952.2604, 5428.467
952.7426, 5418.625
953.2247, 5434.229
953.7068, 5467.210
954.1889, 5479.397
954.6710, 5472.203
955.1531, 5458.313
955.6353, 5434.474
956.1174, 5416.405
956.5995, 5421.521
957.0816, 5445.187
957.5637, 5451.267
958.0458, 5426.263
958.5280, 5413.469
959.0101, 5427.807
959.4922, 5459.775
959.9743, 5494.667
960.4564, 5528.247
960.9385, 5544.758
961.4207, 5526.312
961.9028, 5504.612
962.3849, 5497.142
962.8670, 5497.782
963.3491, 5495.254
963.8312, 5485.361
964.3134, 5481.790
964.7955, 5485.960
965.2776, 5496.249
965.7597, 5517.921
966.2418, 5543.154
966.7239, 5549.524
967.2061, 5528.834
967.6882, 5510.013
968.1703, 5520.179
968.6524, 5530.048
969.1345, 5510.719
969.6166, 5450.261
970.0988, 5427.004
970.5809, 5447.515
971.0630, 5476.633
971.5451, 5492.861
972.0272, 5497.443
972.5093, 5485.980
972.9915, 5461.527
973.4736, 5450.323
973.9557, 5474.346
974.4378, 5505.066
974.9199, 5538.416
975.4020, 5568.688
975.8842, 5560.067
976.3663, 5507.158
976.8484, 5469.125
977.3305, 5476.419
977.8126, 5500.885
978.2947, 5498.853
978.7769, 5482.219
979.2590, 5477.451
979.7411, 5516.183
980.2232, 5537.876
980.7053, 5518.102
981.1874, 5486.358
981.6696, 5486.942
982.1517, 5520.775
982.6338, 5538.958
983.1159, 5532.310
983.5980, 5521.526
984.0801, 5528.581
984.5623, 5542.376
985.0444, 5549.650
985.5265, 5545.563
986.0085, 5545.148
986.4907, 5552.554
986.9728, 5560.434
987.4549, 5562.650
987.9370, 5560.475
988.4191, 5573.523
988.9012, 5599.996
989.3834, 5611.057
989.8655, 5563.403
990.3476, 5514.029
990.8297, 5511.847
991.3118, 5549.790
991.7939, 5573.016
992.2761, 5575.000
992.7582, 5568.892
993.2403, 5554.600
993.7224, 5538.578
994.2045, 5537.468
994.6866, 5547.077
995.1688, 5553.112
995.6509, 5544.929
996.1330, 5542.466
996.6151, 5563.598
997.0972, 5592.667
997.5793, 5609.102
998.0615, 5607.902
998.5436, 5611.084
999.0257, 5620.490
999.5078, 5630.121
999.9899, 5635.067
1000.472, 5635.345
1000.954, 5628.231
1001.436, 5613.258
1001.918, 5603.566
1002.401, 5610.486
1002.883, 5617.703
1003.365, 5614.826
1003.847, 5604.256
1004.329, 5614.169
1004.811, 5645.432
1005.293, 5666.910
1005.775, 5658.431
1006.257, 5637.477
1006.740, 5614.362
1007.222, 5594.337
1007.704, 5589.454
1008.186, 5619.252
1008.668, 5643.526
1009.150, 5659.345
1009.632, 5666.145
1010.114, 5656.947
1010.596, 5635.982
1011.079, 5629.990
1011.561, 5647.074
1012.043, 5660.521
1012.525, 5638.559
1013.007, 5610.731
1013.489, 5605.995
1013.971, 5631.549
1014.453, 5653.391
1014.936, 5673.510
1015.418, 5683.406
1015.900, 5668.969
1016.382, 5643.002
1016.864, 5638.253
1017.346, 5650.802
1017.828, 5659.091
1018.310, 5645.910
1018.792, 5634.613
1019.275, 5638.027
1019.757, 5648.247
1020.239, 5643.350
1020.721, 5622.280
1021.203, 5608.583
1021.685, 5608.005
1022.167, 5616.540
1022.649, 5640.849
1023.132, 5666.929
1023.614, 5673.523
1024.096, 5642.852
1024.578, 5623.866
1025.060, 5624.359
1025.542, 5629.959
1026.024, 5629.122
1026.506, 5623.371
1026.989, 5624.538
1027.471, 5632.093
1027.953, 5635.370
1028.435, 5615.324
1028.917, 5599.787
1029.399, 5614.729
1029.881, 5652.625
1030.363, 5667.084
1030.845, 5650.736
1031.328, 5638.204
1031.810, 5638.695
1032.292, 5648.277
1032.774, 5668.632
1033.256, 5691.797
1033.738, 5701.317
1034.220, 5683.271
1034.702, 5668.162
1035.184, 5661.258
1035.667, 5661.826
1036.149, 5672.739
1036.631, 5694.151
1037.113, 5707.694
1037.595, 5712.981
1038.077, 5706.645
1038.559, 5666.216
1039.041, 5628.902
1039.524, 5636.250
1040.006, 5685.030
1040.488, 5703.265
1040.970, 5674.027
1041.452, 5646.407
1041.934, 5633.415
1042.416, 5633.192
1042.898, 5649.584
1043.380, 5675.302
1043.863, 5690.614
1044.345, 5686.874
1044.827, 5675.761
1045.309, 5651.179
1045.791, 5628.851
1046.273, 5625.518
1046.755, 5643.648
1047.237, 5655.368
1047.719, 5659.578
1048.202, 5660.438
1048.684, 5664.628
1049.166, 5664.981
1049.648, 5648.702
1050.130, 5617.303
1050.612, 5599.277
1051.094, 5595.200
1051.576, 5610.383
1052.059, 5657.244
1052.541, 5712.610
1053.023, 5708.973
1053.505, 5666.854
1053.987, 5655.184
1054.469, 5717.205
1054.951, 5771.529
1055.433, 5768.165
1055.916, 5746.460
1056.398, 5745.291
1056.880, 5768.297
1057.362, 5791.993
1057.844, 5816.634
1058.326, 5836.251
1058.808, 5839.812
1059.290, 5839.996
1059.772, 5856.048
1060.255, 5885.481
1060.737, 5895.915
1061.219, 5857.044
1061.701, 5847.636
1062.183, 5896.973
1062.665, 5973.869
1063.147, 6010.681
1063.629, 6018.300
1064.111, 6033.748
1064.594, 6071.393
1065.076, 6108.525
1065.558, 6140.227
1066.040, 6160.843
1066.522, 6165.081
1067.004, 6150.682
1067.486, 6134.971
1067.968, 6117.576
1068.450, 6103.122
1068.933, 6099.531
1069.415, 6097.217
1069.897, 6088.387
1070.379, 6072.449
1070.861, 6046.941
1071.343, 6003.815
1071.825, 5967.754
1072.307, 5947.133
1072.790, 5929.034
1073.272, 5883.286
1073.754, 5822.781
1074.236, 5787.803
1074.718, 5794.283
1075.200, 5794.334
1075.682, 5748.452
1076.164, 5703.569
1076.646, 5693.638
1077.129, 5718.324
1077.611, 5726.665
1078.093, 5718.620
1078.575, 5701.645
1079.057, 5668.838
1079.539, 5639.480
1080.021, 5632.609
1080.503, 5642.720
1080.985, 5656.059
1081.468, 5675.399
1081.950, 5687.938
1082.432, 5692.448
1082.914, 5689.703
1083.396, 5677.605
1083.878, 5659.952
1084.360, 5642.783
1084.842, 5626.719
1085.325, 5616.008
1085.807, 5608.834
1086.289, 5612.520
1086.771, 5634.428
1087.253, 5669.052
1087.735, 5689.331
1088.217, 5696.122
1088.699, 5696.199
1089.182, 5686.966
1089.664, 5679.837
1090.146, 5682.291
1090.628, 5691.905
1091.110, 5706.939
1091.592, 5733.118
1092.074, 5739.367
1092.556, 5720.744
1093.038, 5703.812
1093.521, 5717.030
1094.003, 5743.757
1094.485, 5764.146
1094.967, 5777.261
1095.449, 5788.050
1095.931, 5803.990
1096.413, 5805.325
1096.895, 5778.958
1097.377, 5744.858
1097.860, 5750.032
1098.342, 5784.310
1098.824, 5818.506
1099.306, 5851.129
1099.788, 5863.175
1100.270, 5820.305
1100.752, 5774.086
1101.234, 5762.368
1101.717, 5785.701
1102.199, 5820.160
1102.681, 5865.549
1103.163, 5896.115
1103.645, 5878.221
1104.127, 5854.194
1104.609, 5862.272
1105.091, 5891.004
1105.573, 5909.132
1106.056, 5914.030
1106.538, 5909.054
1107.020, 5890.499
1107.502, 5876.407
1107.984, 5894.218
1108.466, 5928.229
1108.948, 5956.481
1109.430, 5976.556
1109.912, 5986.311
1110.395, 5970.703
1110.877, 5966.949
1111.359, 5994.896
1111.841, 6039.409
1112.323, 6051.789
1112.805, 6039.290
1113.287, 6027.250
1113.769, 6024.878
1114.252, 6024.708
1114.734, 6027.357
1115.216, 6027.844
1115.698, 6019.166
1116.180, 5999.825
1116.662, 5998.299
1117.144, 6015.141
1117.626, 6026.594
1118.109, 6000.270
1118.591, 5975.724
1119.073, 5994.127
1119.555, 6042.406
1120.037, 6068.623
1120.519, 6071.795
1121.001, 6047.753
1121.483, 5988.046
1121.965, 5927.703
1122.448, 5919.400
1122.930, 5935.526
1123.412, 5933.983
1123.894, 5904.738
1124.376, 5891.800
1124.858, 5913.701
1125.340, 5926.038
1125.822, 5902.491
1126.304, 5861.379
1126.787, 5856.311
1127.269, 5877.513
1127.751, 5896.520
1128.233, 5904.347
1128.715, 5905.032
1129.197, 5894.584
1129.679, 5882.061
1130.161, 5873.889
1130.644, 5870.220
1131.126, 5878.152
1131.608, 5896.705
1132.090, 5903.946
1132.572, 5867.886
1133.054, 5833.094
1133.536, 5833.048
1134.018, 5854.748
1134.500, 5859.757
1134.983, 5844.961
1135.465, 5843.975
1135.947, 5865.219
1136.429, 5889.042
1136.911, 5903.186
1137.393, 5903.901
1137.875, 5878.295
1138.357, 5819.460
1138.839, 5801.065
1139.322, 5835.803
1139.804, 5868.256
1140.286, 5870.833
1140.768, 5863.277
1141.250, 5884.540
1141.732, 5919.841
1142.214, 5940.771
1142.696, 5929.810
1143.179, 5919.082
1143.661, 5908.358
1144.143, 5903.301
1144.625, 5912.877
1145.107, 5931.158
1145.589, 5938.522
1146.071, 5935.907
1146.553, 5931.721
1147.036, 5929.128
1147.518, 5925.946
1148.000, 5919.734
1148.482, 5913.965
1148.964, 5914.154
1149.446, 5920.023
1149.928, 5931.781
1150.410, 5949.855
1150.892, 5967.540
1151.375, 5990.225
1151.857, 6001.587
1152.339, 5984.034
1152.821, 5945.697
1153.303, 5927.310
1153.785, 5928.768
1154.267, 5936.394
1154.749, 5948.546
1155.231, 5958.708
1155.714, 5958.033
1156.196, 5953.851
1156.678, 5954.854
1157.160, 5961.882
1157.642, 5970.675
1158.124, 5981.456
1158.606, 5991.560
1159.088, 6003.778
1159.571, 6010.699
1160.053, 5997.874
1160.535, 5973.760
1161.017, 5959.496
1161.499, 5961.804
1161.981, 5966.925
1162.463, 5976.708
1162.945, 5980.675
1163.427, 5957.660
1163.910, 5926.906
1164.392, 5924.799
1164.874, 5949.918
1165.356, 5959.448
1165.838, 5927.582
1166.320, 5905.563
1166.802, 5907.262
1167.284, 5919.280
1167.766, 5919.323
1168.249, 5911.112
1168.731, 5902.741
1169.213, 5895.506
1169.695, 5889.181
1170.177, 5880.717
1170.659, 5877.102
1171.141, 5884.551
1171.623, 5897.813
1172.106, 5896.354
1172.588, 5883.591
1173.070, 5872.010
1173.552, 5862.040
1174.034, 5862.007
1174.516, 5885.296
1174.998, 5911.720
1175.480, 5926.305
1175.963, 5929.374
1176.445, 5931.284
1176.927, 5931.771
1177.409, 5927.955
1177.891, 5909.572
1178.373, 5895.869
1178.855, 5902.653
1179.337, 5917.284
1179.819, 5918.873
1180.302, 5906.969
1180.784, 5907.545
1181.266, 5923.855
1181.748, 5941.373
1182.230, 5953.642
1182.712, 5958.833
1183.194, 5955.125
1183.676, 5942.841
1184.158, 5919.213
1184.641, 5882.203
1185.123, 5854.943
1185.605, 5841.246
1186.087, 5845.958
1186.569, 5900.243
1187.051, 5957.661
1187.533, 5962.442
1188.015, 5907.964
1188.498, 5881.820
1188.980, 5886.597
1189.462, 5902.494
1189.944, 5929.980
1190.426, 5950.191
1190.908, 5926.620
1191.390, 5887.028
1191.872, 5875.684
1192.354, 5915.569
1192.837, 5928.021
1193.319, 5908.315
1193.801, 5885.716
1194.283, 5877.974
1194.765, 5880.846
1195.247, 5894.180
1195.729, 5913.246
1196.211, 5925.644
1196.693, 5932.970
1197.176, 5923.147
1197.658, 5889.480
1198.140, 5858.756
1198.622, 5866.082
1199.104, 5888.570
1199.586, 5888.776
1200.068, 5868.869
1200.550, 5862.749
1201.033, 5886.943
1201.515, 5901.291
1201.997, 5895.817
1202.479, 5885.003
1202.961, 5886.417
1203.443, 5898.005
1203.925, 5924.263
1204.407, 5967.588
1204.890, 5979.305
1205.372, 5933.701
1205.854, 5893.333
1206.336, 5876.433
1206.818, 5879.139
1207.300, 5906.646
1207.782, 5944.588
1208.264, 5962.574
1208.746, 5948.507
1209.229, 5931.344
1209.711, 5910.700
1210.193, 5897.024
1210.675, 5899.171
1211.157, 5909.732
1211.639, 5905.862
1212.121, 5895.026
1212.603, 5897.322
1213.085, 5941.359
1213.568, 5960.253
1214.050, 5934.589
1214.532, 5905.686
1215.014, 5912.813
1215.496, 5940.929
1215.978, 5940.682
1216.460, 5918.976
1216.942, 5905.878
1217.425, 5922.618
1217.907, 5936.840
1218.389, 5942.625
1218.871, 5944.725
1219.353, 5950.278
1219.835, 5956.061
1220.317, 5951.864
1220.799, 5937.901
1221.281, 5922.604
1221.764, 5901.896
1222.246, 5891.974
1222.728, 5901.101
1223.210, 5915.780
1223.692, 5908.731
1224.174, 5890.232
1224.656, 5890.219
1225.138, 5913.593
1225.620, 5935.222
1226.103, 5951.666
1226.585, 5955.009
1227.067, 5936.192
1227.549, 5909.987
1228.031, 5911.906
1228.513, 5933.352
1228.995, 5952.081
1229.477, 5963.632
1229.960, 5970.185
1230.442, 5971.103
1230.924, 5968.702
1231.406, 5961.201
1231.888, 5953.289
1232.370, 5964.516
1232.852, 5986.198
1233.334, 5992.594
1233.816, 5962.468
1234.299, 5948.239
1234.781, 5971.505
1235.263, 5994.353
1235.745, 5990.207
1236.227, 5967.310
1236.709, 5939.956
1237.191, 5915.773
1237.673, 5919.364
1238.156, 6007.625
1238.638, 6050.818
1239.120, 6014.979
1239.602, 5966.227
1240.084, 5968.663
1240.566, 6003.024
1241.048, 6020.016
1241.530, 6020.831
1242.012, 6017.068
1242.495, 6000.924
1242.977, 6000.920
1243.459, 6028.330
1243.941, 6057.622
1244.423, 6053.146
1244.905, 6030.786
1245.387, 6028.813
1245.869, 6046.147
1246.351, 6055.098
1246.834, 6038.623
1247.316, 6025.391
1247.798, 6021.252
1248.280, 6019.221
1248.762, 6002.724
1249.244, 5984.118
1249.726, 5991.697
1250.208, 6027.708
1250.691, 6050.948
1251.173, 6050.572
1251.655, 6043.764
1252.137, 6032.470
1252.619, 6021.157
1253.101, 6015.105
1253.583, 6014.491
1254.065, 6022.918
1254.547, 6042.789
1255.030, 6048.387
1255.512, 6032.632
1255.994, 6018.862
1256.476, 6016.892
1256.958, 6018.001
1257.440, 6003.122
1257.922, 5984.971
1258.404, 5984.683
1258.886, 6012.765
1259.369, 6025.958
1259.851, 6019.282
1260.333, 6016.302
1260.815, 6031.262
1261.297, 6050.118
1261.779, 6056.011
1262.261, 6052.817
1262.743, 6044.935
1263.226, 6030.371
1263.708, 6024.171
1264.190, 6027.904
1264.672, 6029.654
1265.154, 6016.122
1265.636, 6004.536
1266.118, 6020.785
1266.600, 6047.997
1267.083, 6057.501
1267.565, 6043.719
1268.047, 6029.712
1268.529, 6015.106
1269.011, 6005.579
1269.493, 6000.119
1269.975, 6005.905
1270.457, 6045.297
1270.939, 6092.495
1271.422, 6099.550
1271.904, 6059.206
1272.386, 6043.278
1272.868, 6054.235
1273.350, 6069.343
1273.832, 6067.792
1274.314, 6070.333
1274.796, 6101.030
1275.278, 6138.466
1275.761, 6147.750
1276.243, 6129.726
1276.725, 6103.572
1277.207, 6071.010
1277.689, 6043.767
1278.171, 6031.372
1278.653, 6023.465
1279.135, 6013.883
1279.618, 6014.152
1280.100, 6009.901
1280.582, 6021.966
1281.064, 6034.504
1281.546, 6046.661
1282.028, 6056.041
1282.510, 6073.552
1282.992, 6069.759
1283.474, 6027.055
1283.957, 5970.661
1284.439, 5942.624
1284.921, 5938.195
1285.403, 5948.380
1285.885, 5972.118
1286.367, 5996.710
1286.849, 6027.137
1287.331, 6041.299
1287.813, 6027.409
1288.296, 6003.842
1288.778, 6003.587
1289.260, 6016.278
1289.742, 6022.596
1290.224, 6018.588
1290.706, 6020.160
1291.188, 6032.074
1291.670, 6039.710
1292.153, 6036.196
1292.635, 6031.208
1293.117, 6041.332
1293.599, 6057.540
1294.081, 6069.405
1294.563, 6075.651
1295.045, 6064.218
1295.527, 6029.904
1296.010, 6011.203
1296.492, 6028.715
1296.974, 6052.099
1297.456, 6049.551
1297.938, 6033.531
1298.420, 6012.254
1298.902, 5986.254
1299.384, 5989.087
1299.866, 6020.667
1300.349, 6047.863
1300.831, 6055.896
1301.313, 6054.489
1301.795, 6049.780
##END=



