##NAMES=Bismuthinite
##RRUFFID=R070533
##IDEAL CHEMISTRY=Bi^3+^_2_S^2-^_3_
##LOCALITY=Llallagua, Bustillos Province, Potosi, Bolivia
##OWNER=RRUFF
##SOURCE=James Shigley
##DESCRIPTION=Elongated tin-white prismatic crystals associated with black cassiterite
##STATUS=The identification of this mineral has been confirmed by single-crystal X-ray diffraction.
##URL=rruff.info/R070533
133.2813, 158.6147
133.7634, 165.9386
134.2455, 176.7230
134.7276, 190.5181
135.2097, 201.2227
135.6918, 207.1756
136.1740, 209.0253
136.6561, 208.6349
137.1382, 204.8222
137.6203, 202.3909
138.1024, 208.3588
138.5845, 224.7883
139.0667, 238.0296
139.5488, 242.1988
140.0309, 236.5403
140.5130, 239.6049
140.9951, 255.3670
141.4772, 275.5155
141.9594, 284.7351
142.4415, 278.1114
142.9236, 271.6643
143.4057, 271.3803
143.8878, 278.4536
144.3699, 289.0302
144.8521, 306.5973
145.3342, 327.1623
145.8163, 337.3598
146.2984, 331.3029
146.7805, 321.9337
147.2626, 315.6639
147.7448, 313.1014
148.2269, 312.7898
148.7090, 314.8821
149.1911, 319.3380
149.6732, 325.3483
150.1554, 337.3094
150.6375, 348.0902
151.1196, 352.4111
151.6017, 337.6465
152.0838, 329.6667
152.5659, 333.0232
153.0481, 348.9009
153.5302, 365.9001
154.0123, 390.7521
154.4944, 413.7168
154.9765, 424.9070
155.4586, 407.7023
155.9408, 392.6377
156.4229, 388.7883
156.9050, 397.8834
157.3871, 406.4847
157.8692, 417.3235
158.3513, 427.5410
158.8335, 432.3431
159.3156, 424.0880
159.7977, 415.4370
160.2798, 412.1353
160.7619, 416.5248
161.2440, 422.9370
161.7262, 431.2443
162.2083, 440.4738
162.6904, 448.1140
163.1725, 452.3130
163.6546, 455.1268
164.1367, 457.7840
164.6189, 459.6482
165.1010, 462.5443
165.5831, 467.5442
166.0652, 474.3931
166.5473, 481.9604
167.0294, 489.4992
167.5116, 497.3611
167.9937, 505.8302
168.4758, 516.2692
168.9579, 526.3592
169.4400, 534.5911
169.9221, 541.0002
170.4043, 546.4351
170.8864, 553.4662
171.3685, 559.5385
171.8506, 560.9752
172.3327, 549.3834
172.8148, 536.3773
173.2970, 533.6008
173.7791, 542.1095
174.2612, 553.6270
174.7433, 561.5248
175.2254, 567.1773
175.7076, 573.6707
176.1897, 585.4633
176.6718, 597.8869
177.1539, 604.7553
177.6360, 605.0272
178.1181, 601.8337
178.6003, 594.6379
179.0824, 585.3842
179.5645, 581.9784
180.0466, 594.0125
180.5287, 614.3225
181.0108, 628.4941
181.4930, 633.4710
181.9751, 634.1945
182.4572, 637.9012
182.9393, 644.0652
183.4214, 648.1615
183.9035, 646.0646
184.3857, 639.3243
184.8678, 631.8113
185.3499, 623.1084
185.8320, 615.3459
186.3141, 613.5624
186.7962, 617.7218
187.2784, 623.4089
187.7605, 628.1407
188.2426, 631.6218
188.7247, 632.4977
189.2068, 630.7484
189.6889, 626.0265
190.1711, 615.8177
190.6532, 599.6470
191.1353, 582.8423
191.6174, 570.4660
192.0995, 562.5138
192.5816, 557.4824
193.0638, 556.0242
193.5459, 557.3084
194.0280, 557.3900
194.5101, 556.1229
194.9922, 554.2590
195.4743, 553.9880
195.9565, 555.4203
196.4386, 552.8578
196.9207, 540.0198
197.4028, 518.4311
197.8849, 511.2241
198.3671, 522.1820
198.8492, 539.0060
199.3313, 541.5024
199.8134, 527.8943
200.2955, 514.0795
200.7776, 507.6578
201.2598, 508.9682
201.7419, 507.4440
202.2240, 501.9583
202.7061, 494.8719
203.1882, 491.1493
203.6703, 491.4954
204.1525, 492.0496
204.6346, 490.7952
205.1167, 487.5074
205.5988, 484.1809
206.0809, 480.7780
206.5630, 477.4814
207.0452, 474.6042
207.5273, 471.9397
208.0094, 470.3028
208.4915, 469.5872
208.9736, 469.2384
209.4557, 473.3132
209.9379, 484.0629
210.4200, 498.8297
210.9021, 507.5486
211.3842, 508.0917
211.8663, 507.4781
212.3484, 510.6298
212.8306, 518.6219
213.3127, 526.2003
213.7948, 533.1188
214.2769, 539.2006
214.7590, 542.2988
215.2411, 539.4140
215.7233, 538.8561
216.2054, 548.3922
216.6875, 572.0352
217.1696, 593.3283
217.6517, 610.8001
218.1338, 624.2938
218.6160, 630.2358
219.0981, 624.4120
219.5802, 617.1460
220.0623, 617.7913
220.5444, 628.6525
221.0265, 641.7131
221.5087, 656.8320
221.9908, 674.0056
222.4729, 686.8658
222.9550, 693.6596
223.4371, 698.3804
223.9192, 704.9063
224.4014, 713.0016
224.8835, 723.3343
225.3656, 737.2070
225.8477, 755.2184
226.3298, 767.9282
226.8119, 772.3622
227.2941, 774.5505
227.7762, 781.6052
228.2583, 795.3793
228.7404, 810.0701
229.2225, 824.9957
229.7046, 840.5441
230.1868, 852.2561
230.6689, 858.8216
231.1510, 862.4904
231.6331, 866.0799
232.1152, 869.7157
232.5974, 873.0385
233.0795, 876.3629
233.5616, 880.1022
234.0437, 881.2076
234.5258, 877.7048
235.0079, 873.0550
235.4901, 873.1646
235.9722, 883.5197
236.4543, 889.2232
236.9364, 884.3937
237.4185, 865.4050
237.9006, 851.8781
238.3828, 846.2462
238.8649, 844.5317
239.3470, 840.4448
239.8291, 833.4689
240.3112, 824.8643
240.7933, 815.0411
241.2755, 803.8860
241.7576, 791.3885
242.2397, 776.0748
242.7218, 760.1758
243.2039, 747.6879
243.6860, 739.2655
244.1682, 733.1986
244.6503, 729.8976
245.1324, 731.5917
245.6145, 728.3022
246.0966, 717.9055
246.5787, 703.6221
247.0609, 691.4081
247.5430, 681.1435
248.0251, 673.1447
248.5072, 667.3311
248.9893, 663.2594
249.4714, 663.1519
249.9536, 668.8105
250.4357, 677.5843
250.9178, 684.1843
251.3999, 688.6038
251.8820, 690.7569
252.3641, 690.0493
252.8463, 684.8587
253.3284, 681.5214
253.8105, 679.8437
254.2926, 680.1263
254.7747, 683.5197
255.2568, 691.9627
255.7390, 700.1454
256.2211, 706.1121
256.7032, 709.6176
257.1853, 711.3574
257.6674, 710.5603
258.1495, 708.3868
258.6317, 708.6592
259.1138, 715.7596
259.5959, 716.8275
260.0780, 703.3805
260.5601, 666.0258
261.0422, 644.2511
261.5244, 644.0423
262.0065, 655.9068
262.4886, 658.3672
262.9707, 648.9648
263.4528, 635.5481
263.9349, 621.3787
264.4171, 606.7999
264.8992, 589.3220
265.3813, 566.5689
265.8634, 542.2483
266.3455, 525.0764
266.8276, 517.3454
267.3098, 510.6260
267.7919, 500.5202
268.2740, 485.7011
268.7561, 473.7864
269.2382, 465.5090
269.7203, 459.8669
270.2025, 456.0481
270.6846, 455.9260
271.1667, 452.0149
271.6488, 438.1372
272.1309, 411.1351
272.6130, 394.2159
273.0952, 390.4127
273.5773, 393.9066
274.0594, 393.3155
274.5415, 387.9192
275.0236, 381.5248
275.5057, 375.8529
275.9879, 371.0029
276.4700, 366.0756
276.9521, 361.3969
277.4342, 356.1816
277.9163, 348.5074
278.3984, 337.9300
278.8806, 327.5246
279.3627, 318.2030
279.8448, 309.9537
280.3269, 304.4353
280.8090, 302.1476
281.2911, 301.8501
281.7733, 302.3259
282.2554, 303.8212
282.7375, 303.3187
283.2196, 297.6325
283.7017, 287.1935
284.1838, 281.7857
284.6660, 282.5093
285.1481, 285.9550
285.6302, 287.6890
286.1123, 287.7142
286.5944, 286.0326
287.0765, 281.3946
287.5587, 274.4614
288.0408, 270.9256
288.5229, 271.8178
289.0050, 272.8239
289.4871, 266.3072
289.9692, 253.0217
290.4514, 242.2245
290.9335, 239.4133
291.4156, 242.6570
291.8977, 243.9728
292.3798, 243.0636
292.8619, 241.6705
293.3441, 241.7057
293.8262, 243.0720
294.3083, 245.2259
294.7904, 249.7662
295.2726, 254.8144
295.7547, 255.0165
296.2368, 250.0856
296.7189, 242.9454
297.2010, 235.2374
297.6831, 227.6259
298.1653, 222.2196
298.6474, 220.0166
299.1295, 220.5132
299.6116, 224.2054
300.0937, 231.2113
300.5758, 236.9190
301.0580, 235.4484
301.5401, 229.3257
302.0222, 224.2823
302.5043, 223.0226
302.9864, 223.6915
303.4685, 224.7280
303.9507, 226.0699
304.4328, 225.9576
304.9149, 220.3219
305.3970, 212.7176
305.8791, 209.1130
306.3612, 215.3257
306.8434, 223.3355
307.3255, 225.1208
307.8076, 221.1736
308.2897, 215.7065
308.7718, 208.7506
309.2539, 202.8348
309.7361, 201.4804
310.2182, 210.1164
310.7003, 218.8445
311.1824, 219.1368
311.6645, 212.4742
312.1466, 206.4017
312.6288, 203.3975
313.1109, 203.7182
313.5930, 208.2192
314.0751, 222.4808
314.5572, 233.5108
315.0393, 232.6616
315.5215, 222.4396
316.0036, 211.6235
316.4857, 200.5571
316.9678, 192.3257
317.4499, 189.6888
317.9320, 197.4238
318.4142, 203.3276
318.8963, 201.2521
319.3784, 193.9823
319.8605, 188.1842
320.3426, 186.1686
320.8247, 186.1104
321.3069, 187.2592
321.7890, 190.0868
322.2711, 192.8255
322.7532, 195.4711
323.2353, 197.7328
323.7174, 199.0687
324.1996, 198.8936
324.6817, 198.1775
325.1638, 196.7855
325.6459, 193.4794
326.1280, 192.9539
326.6101, 199.9796
327.0923, 209.0114
327.5744, 211.9658
328.0565, 200.0403
328.5386, 190.3093
329.0207, 187.8557
329.5028, 195.1190
329.9850, 198.9974
330.4671, 197.9223
330.9492, 194.3149
331.4313, 190.5672
331.9134, 184.7757
332.3955, 181.5922
332.8777, 182.9954
333.3598, 189.2500
333.8419, 193.0175
334.3240, 193.3198
334.8061, 192.1327
335.2882, 191.2160
335.7704, 190.8868
336.2525, 190.1396
336.7346, 189.1046
337.2167, 187.6103
337.6988, 183.5704
338.1809, 175.2128
338.6631, 167.7511
339.1452, 165.7307
339.6273, 170.2278
340.1094, 174.8192
340.5915, 178.8953
341.0736, 182.4583
341.5558, 185.5899
342.0379, 188.5347
342.5200, 190.1630
343.0021, 189.5242
343.4842, 186.6322
343.9663, 182.8024
344.4485, 177.6447
344.9306, 172.4599
345.4127, 170.4527
345.8948, 171.5963
346.3769, 172.9374
346.8590, 172.2917
347.3412, 170.2892
347.8233, 170.1887
348.3054, 172.5332
348.7875, 175.4294
349.2696, 175.6277
349.7517, 173.7873
350.2339, 173.1629
350.7160, 177.4083
351.1981, 183.4474
351.6802, 184.8749
352.1623, 181.2205
352.6444, 176.0644
353.1266, 172.6063
353.6087, 170.2530
354.0908, 167.8348
354.5729, 162.7845
355.0550, 158.6662
355.5371, 160.9238
356.0193, 169.1350
356.5014, 176.3398
356.9835, 175.6213
357.4656, 171.6216
357.9477, 170.2165
358.4298, 176.1828
358.9120, 182.0122
359.3941, 181.4071
359.8762, 175.9807
360.3583, 172.5461
360.8404, 177.9907
361.3225, 184.7879
361.8047, 186.9265
362.2868, 180.6301
362.7689, 173.8762
363.2510, 168.8410
363.7331, 165.4577
364.2152, 163.5651
364.6974, 163.6959
365.1795, 164.8669
365.6616, 166.9708
366.1437, 170.8812
366.6258, 173.3695
367.1079, 172.5082
367.5901, 170.2663
368.0722, 169.5977
368.5543, 172.4581
369.0364, 175.2992
369.5185, 177.7020
370.0006, 180.0714
370.4828, 179.8745
370.9649, 175.4239
371.4470, 169.5041
371.9291, 164.5410
372.4112, 159.7806
372.8933, 157.2605
373.3755, 157.8849
373.8576, 161.4097
374.3397, 164.8484
374.8218, 168.7102
375.3039, 171.6084
375.7861, 171.8495
376.2682, 168.1305
376.7503, 166.9331
377.2324, 169.4877
377.7145, 174.7043
378.1967, 179.8931
378.6788, 185.2249
379.1609, 189.4991
379.6430, 192.7243
380.1251, 194.8307
380.6072, 192.2255
381.0894, 183.5598
381.5715, 172.8246
382.0536, 165.8922
382.5357, 162.5919
383.0178, 161.2841
383.4999, 162.2306
383.9821, 164.5830
384.4642, 165.7133
384.9463, 165.5305
385.4284, 164.8762
385.9105, 164.3994
386.3926, 164.0986
386.8748, 163.9536
387.3569, 163.7134
387.8390, 163.7963
388.3211, 164.8835
388.8032, 166.9085
389.2853, 169.0950
389.7675, 172.5946
390.2496, 175.3754
390.7317, 174.5301
391.2138, 167.1605
391.6959, 159.6423
392.1780, 155.5460
392.6602, 154.4587
393.1423, 155.1069
393.6244, 158.2025
394.1065, 161.9194
394.5886, 165.8046
395.0707, 170.8880
395.5529, 172.5873
396.0350, 165.3764
396.5171, 154.8076
396.9992, 149.0007
397.4813, 154.5584
397.9634, 160.5300
398.4456, 163.7918
398.9277, 163.8621
399.4098, 163.4798
399.8919, 162.5070
400.3740, 161.3204
400.8561, 160.1698
401.3383, 158.4090
401.8204, 157.6878
402.3025, 158.8410
402.7846, 161.4246
403.2667, 162.1788
403.7488, 159.3889
404.2310, 157.3950
404.7131, 159.4364
405.1952, 167.3159
405.6773, 172.2829
406.1594, 173.6543
406.6415, 172.2021
407.1237, 168.5450
407.6058, 162.0645
408.0879, 157.2450
408.5700, 156.4781
409.0521, 159.4988
409.5342, 163.4982
410.0164, 169.0175
410.4985, 173.0145
410.9806, 169.2097
411.4627, 159.2989
411.9448, 154.7046
412.4269, 162.9196
412.9091, 176.1677
413.3912, 177.3055
413.8733, 167.3664
414.3554, 157.9051
414.8375, 160.6777
415.3196, 169.1487
415.8018, 172.5980
416.2839, 167.4345
416.7660, 159.4879
417.2481, 150.9728
417.7302, 143.4518
418.2123, 141.0870
418.6945, 151.8299
419.1766, 164.6190
419.6587, 170.5138
420.1408, 167.3479
420.6229, 165.0345
421.1050, 169.8038
421.5872, 177.0744
422.0693, 181.5835
422.5514, 178.7417
423.0335, 176.1127
423.5156, 176.8671
423.9977, 180.8888
424.4799, 182.0228
424.9620, 176.5624
425.4441, 170.0271
425.9262, 165.5462
426.4083, 164.0791
426.8904, 163.3093
427.3726, 162.9638
427.8547, 163.3069
428.3368, 165.3385
428.8189, 170.6756
429.3010, 174.8658
429.7831, 175.7004
430.2653, 172.5378
430.7474, 171.5096
431.2295, 173.7603
431.7116, 176.1393
432.1937, 173.3417
432.6758, 164.7278
433.1580, 159.7157
433.6401, 162.5445
434.1222, 170.2565
434.6043, 172.9974
435.0864, 170.6531
435.5685, 166.2657
436.0507, 160.3336
436.5328, 154.0888
437.0149, 151.9148
437.4970, 155.4756
437.9791, 160.7323
438.4612, 163.1551
438.9434, 163.2090
439.4255, 162.3705
439.9076, 159.4328
440.3897, 157.1015
440.8718, 159.5356
441.3539, 167.3603
441.8361, 173.2572
442.3182, 170.3186
442.8003, 163.9644
443.2824, 160.3746
443.7645, 165.8665
444.2466, 170.1795
444.7288, 167.3354
445.2109, 159.0658
445.6930, 154.7803
446.1751, 159.3738
446.6572, 166.3462
447.1393, 172.7135
447.6215, 179.8076
448.1036, 183.4264
448.5857, 180.8904
449.0678, 175.7533
449.5499, 173.9982
450.0320, 178.5557
450.5142, 181.6295
450.9963, 180.5597
451.4784, 175.2045
451.9605, 172.1206
452.4426, 172.0087
452.9247, 172.7329
453.4069, 171.9353
453.8890, 169.2887
454.3711, 169.0672
454.8532, 172.7669
455.3353, 178.2608
455.8174, 180.8184
456.2996, 180.4702
456.7817, 178.2664
457.2638, 173.8177
457.7459, 168.0477
458.2281, 162.4577
458.7102, 156.8576
459.1923, 154.0765
459.6744, 160.3335
460.1565, 171.4340
460.6386, 178.4939
461.1208, 176.1904
461.6029, 170.4536
462.0850, 164.8956
462.5671, 159.7119
463.0492, 156.2545
463.5313, 156.4206
464.0135, 157.7959
464.4956, 158.4272
464.9777, 157.3013
465.4598, 156.9701
465.9419, 158.8434
466.4240, 161.8362
466.9062, 164.1572
467.3883, 165.7693
467.8704, 166.4149
468.3525, 165.1687
468.8346, 161.7170
469.3167, 161.3144
469.7989, 167.0954
470.2810, 172.6566
470.7631, 172.6824
471.2452, 164.4066
471.7273, 158.4007
472.2094, 156.0719
472.6916, 156.2348
473.1737, 155.7311
473.6558, 154.2779
474.1379, 154.0117
474.6200, 157.2344
475.1021, 163.1986
475.5843, 165.1553
476.0664, 162.6418
476.5485, 159.1185
477.0306, 158.1383
477.5127, 159.1903
477.9948, 160.8694
478.4770, 163.3818
478.9591, 165.5631
479.4412, 165.0957
479.9233, 162.7059
480.4054, 161.5539
480.8875, 165.6717
481.3697, 170.5313
481.8518, 171.8953
482.3339, 168.5196
482.8160, 164.8552
483.2981, 163.1440
483.7802, 162.2214
484.2624, 160.6522
484.7445, 154.6951
485.2266, 151.5721
485.7087, 154.5455
486.1908, 163.1171
486.6729, 169.9556
487.1551, 175.7218
487.6372, 178.9458
488.1193, 178.6111
488.6014, 173.1703
489.0835, 167.9014
489.5656, 162.4296
490.0478, 157.4854
490.5299, 153.9667
491.0120, 151.7710
491.4941, 151.6760
491.9762, 155.1393
492.4583, 160.8520
492.9405, 161.7659
493.4226, 157.5303
493.9047, 153.0114
494.3868, 152.3241
494.8689, 154.5018
495.3510, 156.8033
495.8332, 159.1044
496.3153, 160.4604
496.7974, 158.5396
497.2795, 154.7540
497.7616, 152.5907
498.2437, 154.8932
498.7259, 158.5450
499.2080, 161.1224
499.6901, 162.5999
500.1722, 164.4724
500.6543, 168.7941
501.1364, 172.9670
501.6186, 174.9992
502.1007, 173.0475
502.5828, 171.0770
503.0649, 168.9930
503.5470, 167.3812
504.0291, 167.6291
504.5113, 173.3188
504.9934, 176.3101
505.4755, 173.7451
505.9576, 165.3915
506.4397, 158.2656
506.9218, 152.1357
507.4040, 147.7341
507.8861, 146.0020
508.3682, 147.1505
508.8503, 148.6934
509.3324, 150.2274
509.8145, 152.2026
510.2967, 156.4534
510.7788, 162.6418
511.2609, 166.9584
511.7430, 166.9173
512.2252, 163.9064
512.7073, 159.7540
513.1894, 154.5141
513.6715, 150.3482
514.1536, 148.9783
514.6357, 149.6651
515.1179, 151.8214
515.6000, 156.7636
516.0821, 160.4230
516.5642, 160.4276
517.0463, 157.6276
517.5284, 153.7679
518.0106, 146.3243
518.4927, 140.7275
518.9748, 140.3443
519.4569, 146.1245
519.9390, 148.6029
520.4211, 144.3207
520.9033, 139.3342
521.3854, 137.8627
521.8675, 142.0679
522.3496, 144.6437
522.8317, 144.3447
523.3138, 142.8733
523.7960, 144.6099
524.2781, 150.3749
524.7602, 154.0641
525.2423, 152.0168
525.7244, 145.9492
526.2065, 144.1520
526.6887, 146.8117
527.1708, 149.9990
527.6529, 149.5500
528.1350, 147.2080
528.6171, 147.3703
529.0992, 152.2551
529.5814, 155.9201
530.0635, 149.5126
530.5456, 138.1719
531.0277, 131.9607
531.5098, 141.5845
531.9919, 152.0817
532.4741, 154.5791
532.9562, 149.2270
533.4383, 145.7554
533.9204, 149.0327
534.4025, 153.3879
534.8846, 155.2169
535.3668, 151.2032
535.8489, 150.2936
536.3310, 155.2047
536.8131, 161.6158
537.2952, 162.6245
537.7773, 156.2590
538.2595, 149.7770
538.7416, 144.0836
539.2237, 139.7034
539.7058, 140.2424
540.1879, 146.2228
540.6700, 152.4588
541.1522, 155.4111
541.6343, 155.6387
542.1164, 155.1443
542.5985, 154.1803
543.0806, 152.0307
543.5627, 145.8129
544.0449, 138.0535
544.5270, 133.7986
545.0091, 138.0201
545.4912, 143.2906
545.9733, 144.0797
546.4554, 141.4603
546.9376, 139.4774
547.4197, 139.4664
547.9018, 140.7041
548.3839, 143.7305
548.8660, 150.2231
549.3481, 152.3676
549.8303, 144.7725
550.3124, 135.7419
550.7945, 132.7495
551.2766, 138.5590
551.7587, 144.4642
552.2408, 150.1643
552.7230, 154.9913
553.2051, 156.1476
553.6872, 152.8554
554.1693, 151.2204
554.6514, 156.1532
555.1335, 165.4214
555.6157, 167.6302
556.0978, 162.5938
556.5799, 156.3150
557.0620, 154.6071
557.5441, 155.2721
558.0262, 153.9673
558.5084, 148.9290
558.9905, 143.8997
559.4726, 142.0740
559.9547, 142.1630
560.4368, 141.8567
560.9189, 139.6788
561.4011, 137.5228
561.8832, 135.4669
562.3653, 133.6526
562.8474, 134.2282
563.3295, 142.3082
563.8116, 148.7563
564.2938, 148.5796
564.7759, 137.7516
565.2580, 132.0312
565.7401, 133.0840
566.2222, 137.2231
566.7043, 139.7063
567.1865, 140.2712
567.6686, 141.6478
568.1507, 144.9935
568.6328, 148.9872
569.1149, 150.3548
569.5970, 149.3071
570.0792, 148.0438
570.5613, 148.9411
571.0434, 149.9777
571.5255, 146.8040
572.0076, 139.1292
572.4897, 133.8351
572.9719, 130.2731
573.4540, 140.8424
573.9361, 146.7809
574.4182, 148.3374
574.9003, 132.3876
575.3824, 139.0436
575.8646, 136.6402
576.3467, 133.8653
576.8288, 143.7030
577.3109, 130.2995
577.7930, 139.9371
578.2751, 140.3772
578.7573, 145.0267
579.2394, 140.5610
579.7215, 138.9106
580.2036, 146.3785
580.6857, 148.7976
581.1678, 143.2825
581.6500, 148.1997
582.1321, 134.4776
582.6142, 137.1118
583.0963, 146.8028
583.5784, 141.7460
584.0605, 146.8298
584.5427, 148.0515
585.0248, 131.7216
585.5069, 145.9157
585.9890, 146.9092
586.4711, 134.3485
586.9532, 147.4967
587.4354, 136.8046
587.9175, 134.6221
588.3996, 138.8435
588.8817, 136.3890
589.3638, 150.9413
589.8459, 156.0485
590.3281, 149.3568
590.8102, 143.8938
591.2923, 140.0271
591.7744, 137.1429
592.2565, 134.1623
592.7386, 130.9201
593.2208, 128.9115
593.7029, 128.5093
594.1850, 129.6226
594.6671, 133.2655
595.1492, 139.0179
595.6313, 142.7749
596.1135, 139.0902
596.5956, 133.2191
597.0777, 133.3481
597.5598, 140.1480
598.0419, 146.0788
598.5240, 145.1682
599.0062, 141.8945
599.4883, 140.5611
599.9704, 144.0072
600.4525, 146.3706
600.9346, 145.8566
601.4167, 143.5774
601.8989, 141.3426
602.3810, 138.2579
602.8631, 136.9485
603.3452, 139.2531
603.8273, 143.9199
604.3094, 142.9522
604.7916, 134.8453
605.2737, 127.5651
605.7558, 125.9722
606.2379, 129.2708
606.7200, 134.2123
607.2021, 141.0371
607.6843, 145.9249
608.1664, 142.9830
608.6485, 136.2329
609.1306, 132.9077
609.6127, 136.4396
610.0948, 140.1116
610.5770, 138.4856
611.0591, 134.2331
611.5412, 131.9506
612.0233, 136.6990
612.5054, 139.7886
612.9875, 136.9429
613.4697, 129.0056
613.9518, 125.1922
614.4339, 128.0837
614.9160, 131.1979
615.3981, 131.1880
615.8802, 127.6346
616.3624, 126.8579
616.8445, 129.6131
617.3266, 132.6246
617.8087, 131.1406
618.2908, 126.5816
618.7729, 127.1118
619.2551, 135.8636
619.7372, 144.7006
620.2193, 141.7391
620.7014, 132.0418
621.1835, 126.4628
621.6656, 134.7839
622.1478, 143.8077
622.6299, 145.9118
623.1120, 142.4107
623.5941, 139.2409
624.0762, 138.4078
624.5583, 137.7740
625.0405, 136.0768
625.5226, 132.8915
626.0047, 132.0679
626.4868, 134.7011
626.9689, 138.0028
627.4510, 139.7817
627.9332, 139.9358
628.4153, 139.9745
628.8974, 140.0881
629.3795, 139.9359
629.8616, 138.9138
630.3438, 137.1932
630.8259, 135.2620
631.3080, 132.3497
631.7901, 130.4577
632.2722, 133.3203
632.7543, 139.1455
633.2365, 142.5760
633.7186, 138.7578
634.2007, 134.1931
634.6828, 132.3508
635.1649, 133.5791
635.6470, 134.1360
636.1292, 133.1744
636.6113, 131.8871
637.0934, 130.8242
637.5755, 129.9098
638.0576, 129.4332
638.5397, 129.2721
639.0219, 129.7914
639.5040, 132.0225
639.9861, 135.7670
640.4682, 138.3873
640.9503, 139.4200
641.4324, 138.8129
641.9146, 135.0497
642.3967, 129.4459
642.8788, 125.6090
643.3609, 127.8158
643.8430, 130.2915
644.3251, 127.5099
644.8073, 120.6814
645.2894, 117.3853
645.7715, 123.5602
646.2536, 130.5621
646.7357, 134.0822
647.2178, 133.1935
647.7000, 134.2152
648.1821, 138.9744
648.6642, 143.0310
649.1463, 141.7190
649.6284, 134.3475
650.1105, 130.8208
650.5927, 132.7208
651.0748, 136.3150
651.5569, 136.6771
652.0390, 134.4121
652.5211, 131.3044
653.0032, 126.5880
653.4854, 123.1801
653.9675, 125.8534
654.4496, 132.0857
654.9317, 135.3599
655.4138, 129.4616
655.8959, 123.3582
656.3781, 121.0307
656.8602, 122.5542
657.3423, 124.6619
657.8244, 128.1828
658.3065, 131.0212
658.7886, 131.5755
659.2708, 129.1791
659.7529, 130.4273
660.2350, 136.5185
660.7171, 142.4021
661.1992, 142.3993
661.6813, 137.7278
662.1635, 133.7099
662.6456, 130.9366
663.1277, 129.9367
663.6099, 132.9057
664.0920, 137.7565
664.5741, 140.8968
665.0562, 140.1226
665.5383, 138.2806
666.0204, 135.7740
666.5026, 133.0686
666.9847, 131.4703
667.4668, 132.1669
667.9489, 132.9668
668.4310, 133.6462
668.9131, 134.1256
669.3953, 132.9525
669.8774, 129.3063
670.3595, 126.7384
670.8416, 128.1742
671.3237, 132.8589
671.8058, 136.6689
672.2880, 139.5533
672.7701, 140.4995
673.2522, 136.1966
673.7343, 130.1950
674.2164, 128.2159
674.6985, 132.7279
675.1807, 136.8525
675.6628, 135.9726
676.1449, 132.9304
676.6270, 131.0685
677.1091, 131.8418
677.5912, 132.8895
678.0734, 134.3708
678.5555, 135.8473
679.0376, 136.2732
679.5197, 135.3631
680.0018, 134.4132
680.4839, 133.8387
680.9661, 133.4828
681.4482, 132.4649
681.9303, 130.9001
682.4124, 130.2356
682.8945, 132.0744
683.3766, 134.9736
683.8588, 137.1350
684.3409, 138.5191
684.8230, 139.7010
685.3051, 142.4349
685.7872, 144.0951
686.2693, 141.9896
686.7515, 132.7797
687.2336, 128.7108
687.7157, 134.0853
688.1978, 141.3668
688.6799, 143.8326
689.1620, 140.3853
689.6442, 136.8295
690.1263, 133.5244
690.6084, 130.6243
691.0905, 128.0756
691.5726, 126.0887
692.0547, 125.8490
692.5369, 128.8609
693.0190, 132.0895
693.5011, 131.5481
693.9832, 128.5717
694.4653, 126.4685
694.9474, 127.6545
695.4296, 129.0364
695.9117, 128.6925
696.3938, 126.9258
696.8759, 127.3668
697.3580, 132.4657
697.8401, 136.5565
698.3223, 137.4154
698.8044, 134.9901
699.2865, 130.7482
699.7686, 123.9930
700.2507, 119.1382
700.7328, 121.4687
701.2150, 128.4287
701.6971, 132.6568
702.1792, 133.4100
702.6613, 132.3146
703.1434, 129.2971
703.6255, 125.8140
704.1077, 123.5530
704.5898, 123.3744
705.0719, 123.5674
705.5540, 124.3975
706.0361, 125.0529
706.5182, 124.4172
707.0004, 121.6992
707.4825, 119.1280
707.9646, 116.2498
708.4467, 114.3816
708.9288, 117.5260
709.4109, 125.6414
709.8931, 132.5366
710.3752, 136.0193
710.8573, 136.8432
711.3394, 134.5537
711.8215, 130.2162
712.3036, 128.0272
712.7858, 132.9343
713.2679, 138.3950
713.7500, 140.0214
714.2321, 137.8154
714.7142, 135.5370
715.1964, 134.0565
715.6785, 132.4285
716.1606, 129.8521
716.6427, 125.9258
717.1248, 125.1689
717.6069, 128.4362
718.0891, 132.2190
718.5712, 133.4635
719.0533, 132.6419
719.5354, 131.8759
720.0175, 131.4372
720.4996, 130.3152
720.9818, 125.9497
721.4639, 120.9633
721.9460, 118.9639
722.4281, 121.9854
722.9102, 125.4828
723.3923, 128.2488
723.8745, 130.5114
724.3566, 132.6295
724.8387, 134.6509
725.3208, 136.5175
725.8029, 138.5474
726.2850, 140.1493
726.7672, 139.7540
727.2493, 137.3191
727.7314, 135.3811
728.2135, 134.9121
728.6956, 135.2099
729.1777, 135.7964
729.6599, 136.2913
730.1420, 135.4362
730.6241, 130.0113
731.1062, 125.3310
731.5883, 125.8177
732.0704, 130.7145
732.5526, 133.4376
733.0347, 130.3849
733.5168, 127.5324
733.9989, 126.6342
734.4810, 127.6772
734.9631, 130.5444
735.4453, 135.9896
735.9274, 140.0426
736.4095, 139.4383
736.8916, 135.1738
737.3737, 129.8678
737.8558, 123.5739
738.3380, 119.0775
738.8201, 119.8861
739.3022, 122.8999
739.7843, 125.1941
740.2664, 126.4367
740.7485, 126.3283
741.2307, 122.3377
741.7128, 118.5453
742.1949, 118.7323
742.6770, 125.8073
743.1591, 128.9378
743.6412, 126.1572
744.1234, 122.1132
744.6055, 123.9301
745.0876, 130.7762
745.5697, 136.0313
746.0518, 138.3183
746.5339, 138.5654
747.0161, 136.6298
747.4982, 133.6029
747.9803, 131.4440
748.4624, 131.4586
748.9445, 131.8378
749.4266, 132.2173
749.9088, 132.4899
750.3909, 132.4268
750.8730, 132.1135
751.3551, 131.2782
751.8372, 129.6373
752.3193, 127.5446
752.8015, 125.7445
753.2836, 124.2304
753.7657, 124.7912
754.2478, 130.1679
754.7299, 136.8921
755.2120, 139.9734
755.6942, 139.6063
756.1763, 136.5216
756.6584, 125.8354
757.1405, 117.2053
757.6226, 117.5636
758.1047, 127.2502
758.5869, 133.4948
759.0690, 134.5778
759.5511, 133.6932
760.0332, 131.3752
760.5153, 127.7184
760.9974, 127.5920
761.4796, 131.3340
761.9617, 135.5157
762.4438, 137.9828
762.9259, 138.9173
763.4080, 137.9468
763.8901, 135.0113
764.3723, 132.9321
764.8544, 135.4078
765.3365, 138.2072
765.8186, 137.7139
766.3007, 131.9743
766.7828, 126.9849
767.2650, 121.6503
767.7471, 118.6568
768.2292, 121.7947
768.7113, 132.2952
769.1934, 136.3642
769.6755, 132.0614
770.1577, 125.4014
770.6398, 122.2177
771.1219, 122.1427
771.6040, 125.1119
772.0861, 132.4861
772.5682, 138.3102
773.0504, 137.7542
773.5325, 133.8497
774.0146, 130.1859
774.4967, 128.0156
774.9788, 125.3187
775.4609, 121.0673
775.9431, 116.9394
776.4252, 115.5059
776.9073, 117.0135
777.3894, 119.2062
777.8715, 121.9903
778.3536, 124.5293
778.8358, 125.0703
779.3179, 124.2528
779.8000, 123.9022
780.2821, 125.6533
780.7642, 126.8564
781.2463, 125.1163
781.7285, 121.7434
782.2106, 119.5805
782.6927, 119.2716
783.1748, 120.2392
783.6569, 123.3186
784.1390, 127.2611
784.6212, 128.5583
785.1033, 127.0426
785.5854, 124.4014
786.0675, 120.5104
786.5496, 116.5461
787.0317, 114.8465
787.5139, 115.0475
787.9960, 116.0200
788.4781, 118.1670
788.9602, 119.9905
789.4423, 120.3074
789.9244, 119.4217
790.4066, 119.0379
790.8887, 118.3044
791.3708, 119.6978
791.8529, 125.0213
792.3350, 133.1709
792.8171, 137.2334
793.2993, 137.1030
793.7814, 135.8020
794.2635, 135.4444
794.7456, 134.7875
795.2277, 130.2709
795.7098, 122.8468
796.1920, 118.0565
796.6741, 123.0340
797.1562, 127.6965
797.6383, 124.3915
798.1204, 112.5337
798.6025, 107.9469
799.0847, 114.5247
799.5668, 121.9721
800.0489, 125.6401
800.5310, 125.8420
801.0131, 125.4749
801.4952, 124.5224
801.9774, 123.6365
802.4595, 122.9939
802.9416, 122.8547
803.4237, 124.1208
803.9058, 126.7063
804.3879, 128.1930
804.8701, 125.9609
805.3522, 123.5899
805.8343, 123.2728
806.3164, 125.1543
806.7985, 127.5706
807.2806, 131.2928
807.7628, 133.7567
808.2449, 132.4901
808.7270, 128.1951
809.2091, 125.2365
809.6912, 123.7117
810.1733, 123.2829
810.6555, 125.0869
811.1376, 127.0120
811.6197, 126.1807
812.1018, 121.8857
812.5839, 119.5580
813.0660, 124.1968
813.5482, 128.2557
814.0303, 126.6740
814.5124, 117.9937
814.9945, 114.2634
815.4766, 116.2443
815.9587, 120.2004
816.4409, 124.4818
816.9230, 128.2248
817.4051, 127.5965
817.8872, 122.2885
818.3693, 118.4793
818.8514, 122.6115
819.3336, 128.6805
819.8157, 131.7355
820.2978, 130.4795
820.7799, 128.8134
821.2620, 126.7267
821.7441, 124.7604
822.2263, 122.9764
822.7084, 121.2932
823.1905, 122.0459
823.6726, 125.6946
824.1547, 128.4683
824.6368, 124.8787
825.1190, 118.9665
825.6011, 117.2028
826.0832, 120.6392
826.5653, 125.3372
827.0474, 133.3096
827.5295, 139.0820
828.0117, 136.8266
828.4938, 122.1411
828.9760, 117.4566
829.4581, 126.3962
829.9402, 137.4345
830.4223, 140.6297
830.9044, 137.3029
831.3865, 134.5199
831.8687, 132.7083
832.3508, 132.0423
832.8329, 134.0344
833.3150, 136.4615
833.7971, 136.9168
834.2792, 134.6412
834.7614, 132.5710
835.2435, 131.3426
835.7256, 130.5115
836.2077, 130.2127
836.6898, 130.8553
837.1719, 128.5096
837.6541, 122.4975
838.1362, 117.1467
838.6183, 116.7921
839.1004, 119.6818
839.5825, 122.4830
840.0646, 124.9034
840.5468, 126.8457
841.0289, 127.8574
841.5110, 128.6906
841.9931, 130.1158
842.4752, 132.6700
842.9573, 133.4623
843.4395, 131.7816
843.9216, 129.6017
844.4037, 127.9332
844.8858, 126.8508
845.3679, 127.1229
845.8500, 128.7658
846.3322, 131.6518
846.8143, 139.2943
847.2964, 145.9094
847.7785, 143.2230
848.2606, 129.6663
848.7427, 120.9182
849.2249, 126.0880
849.7070, 132.6096
850.1891, 134.6364
850.6712, 131.9822
851.1533, 128.0644
851.6354, 122.3603
852.1176, 118.6027
852.5997, 120.9979
853.0818, 126.6455
853.5639, 130.2443
854.0460, 131.6146
854.5281, 131.0482
855.0103, 125.9513
855.4924, 121.2769
855.9745, 121.2153
856.4566, 126.2113
856.9387, 126.1716
857.4208, 117.5328
857.9030, 111.8777
858.3851, 117.0615
858.8672, 130.0875
859.3493, 137.3323
859.8314, 138.9496
860.3135, 137.3882
860.7957, 131.1892
861.2778, 124.8402
861.7599, 122.8409
862.2420, 124.7169
862.7241, 125.2979
863.2062, 119.6448
863.6884, 117.2051
864.1705, 123.0116
864.6526, 134.4848
865.1347, 135.1941
865.6168, 124.6068
866.0989, 115.4323
866.5811, 114.8822
867.0632, 118.6735
867.5453, 121.7941
868.0274, 124.0793
868.5095, 125.0310
868.9916, 122.5303
869.4738, 120.6976
869.9559, 122.1276
870.4380, 125.4351
870.9201, 126.0219
871.4022, 122.9118
871.8843, 121.2109
872.3665, 122.7052
872.8486, 126.1824
873.3307, 129.5067
873.8128, 132.7806
874.2949, 136.2117
874.7770, 142.5806
875.2592, 146.1883
875.7413, 141.2291
876.2234, 131.7196
876.7055, 126.6144
877.1876, 129.2281
877.6697, 130.6668
878.1519, 129.5340
878.6340, 126.8743
879.1161, 123.2318
879.5982, 119.2684
880.0803, 119.4322
880.5624, 126.5085
881.0446, 133.9035
881.5267, 135.4023
882.0088, 133.6766
882.4909, 132.3791
882.9730, 133.2352
883.4551, 133.2772
883.9373, 131.9493
884.4194, 130.1854
884.9015, 128.8811
885.3836, 128.0348
885.8657, 127.8140
886.3478, 128.1488
886.8300, 129.6434
887.3121, 136.2915
887.7942, 143.0272
888.2763, 141.9409
888.7584, 128.9978
889.2405, 118.1274
889.7227, 113.3629
890.2048, 112.3867
890.6869, 114.2707
891.1690, 119.6556
891.6511, 124.4874
892.1332, 129.0011
892.6154, 131.2918
893.0975, 127.3777
893.5796, 121.0086
894.0617, 119.0430
894.5438, 121.8991
895.0259, 124.5979
895.5081, 124.3500
895.9902, 123.6104
896.4723, 124.0501
896.9544, 125.7165
897.4365, 125.8482
897.9186, 124.0705
898.4008, 122.2729
898.8829, 121.4380
899.3650, 121.3363
899.8471, 121.3823
900.3292, 121.6045
900.8113, 122.1411
901.2935, 123.3120
901.7756, 124.5774
902.2577, 125.9586
902.7398, 127.2395
903.2219, 127.3268
903.7040, 125.4916
904.1862, 124.2235
904.6683, 124.2216
905.1504, 125.2240
905.6325, 128.4312
906.1146, 132.5446
906.5967, 131.9607
907.0789, 119.6758
907.5610, 108.3990
908.0431, 108.9281
908.5252, 115.5165
909.0073, 117.8381
909.4894, 110.5350
909.9716, 107.0973
910.4537, 109.7400
910.9358, 114.9762
911.4179, 118.1662
911.9000, 119.5380
912.3821, 120.0838
912.8643, 119.6653
913.3464, 120.0380
913.8285, 125.1868
914.3106, 130.5045
914.7927, 130.6279
915.2748, 120.8213
915.7570, 115.1492
916.2391, 114.2867
916.7212, 117.2878
917.2033, 126.0998
917.6854, 139.5296
918.1675, 144.1231
918.6497, 139.3590
919.1318, 132.2537
919.6139, 126.6204
920.0960, 122.2959
920.5781, 118.8078
921.0602, 116.1198
921.5424, 116.3471
922.0245, 121.7316
922.5066, 127.1303
922.9887, 131.2222
923.4708, 133.6436
923.9529, 131.3272
924.4351, 124.6933
924.9172, 119.1431
925.3993, 118.6490
925.8814, 119.7255
926.3635, 119.1721
926.8456, 117.5588
927.3278, 116.5606
927.8099, 115.6671
928.2920, 116.8761
928.7741, 121.4701
929.2562, 127.5158
929.7383, 131.4685
930.2205, 133.3737
930.7026, 133.6707
931.1847, 132.2211
931.6668, 129.9489
932.1489, 126.6163
932.6310, 123.4551
933.1132, 122.4460
933.5953, 127.7143
934.0774, 127.8090
934.5595, 118.4848
935.0416, 108.1694
935.5237, 104.6972
936.0059, 107.7672
936.4880, 110.4823
936.9701, 112.3963
937.4522, 114.5447
937.9343, 118.0665
938.4164, 122.0943
938.8986, 126.7498
939.3807, 132.1973
939.8628, 133.6245
940.3449, 126.0643
940.8270, 120.7238
941.3091, 123.7900
941.7913, 133.1292
942.2734, 134.0995
942.7555, 127.5027
943.2376, 123.4391
943.7197, 132.1340
944.2018, 141.9973
944.6840, 141.5837
945.1661, 134.1552
945.6482, 128.7719
946.1303, 128.8825
946.6124, 129.0249
947.0945, 127.9517
947.5767, 127.0995
948.0588, 130.8941
948.5409, 138.2274
949.0230, 139.8119
949.5051, 131.8032
949.9872, 123.4302
950.4694, 124.1116
950.9515, 128.0989
951.4336, 128.6118
951.9157, 121.2541
952.3978, 117.4158
952.8799, 117.6288
953.3621, 120.7343
953.8442, 127.8696
954.3263, 137.6066
954.8084, 141.3068
955.2905, 138.7611
955.7726, 133.1230
956.2548, 122.0469
956.7369, 112.4400
957.2190, 110.6249
957.7011, 116.4773
958.1832, 120.3198
958.6653, 121.2474
959.1475, 121.3947
959.6296, 121.0529
960.1117, 120.7909
960.5938, 122.3212
961.0759, 125.3067
961.5580, 128.5747
962.0402, 133.3626
962.5223, 136.0082
963.0044, 132.2632
963.4865, 125.7765
963.9686, 122.7284
964.4507, 124.5378
964.9329, 126.7165
965.4150, 129.2912
965.8971, 131.1547
966.3792, 130.0138
966.8613, 127.2606
967.3434, 126.6162
967.8256, 128.8417
968.3077, 130.4771
968.7898, 128.7204
969.2719, 126.6122
969.7540, 126.4838
970.2361, 128.4898
970.7183, 128.8307
971.2004, 127.1555
971.6825, 125.7873
972.1646, 127.3746
972.6467, 129.3836
973.1288, 125.4182
973.6110, 117.6322
974.0931, 113.5690
974.5752, 120.5741
975.0573, 126.8927
975.5394, 129.6115
976.0215, 129.1334
976.5037, 124.5677
976.9858, 115.4057
977.4679, 111.6032
977.9500, 116.2134
978.4321, 122.5906
978.9142, 123.6473
979.3964, 121.4230
979.8785, 118.1038
980.3606, 112.8326
980.8427, 110.8800
981.3248, 114.6503
981.8069, 119.7038
982.2891, 123.6449
982.7712, 126.4615
983.2533, 128.2443
983.7354, 128.9845
984.2175, 128.7599
984.6996, 126.2571
985.1818, 123.9427
985.6639, 124.5688
986.1460, 127.4567
986.6281, 128.5291
987.1102, 125.9157
987.5923, 124.6508
988.0745, 126.4874
988.5566, 129.3503
989.0387, 127.7965
989.5208, 123.4688
990.0029, 122.8938
990.4850, 129.8466
990.9672, 135.8273
991.4493, 135.2843
991.9314, 131.4623
992.4135, 127.2956
992.8957, 122.0783
993.3778, 120.0948
993.8599, 121.9429
994.3420, 124.6467
994.8242, 125.8489
995.3063, 126.1900
995.7884, 126.6797
996.2705, 127.4006
996.7526, 128.5895
997.2347, 133.5704
997.7169, 135.2114
998.1990, 128.1426
998.6811, 116.6008
999.1632, 114.3344
999.6453, 121.7549
1000.127, 127.2543
1000.610, 127.3598
1001.092, 124.4889
1001.574, 118.6762
1002.056, 112.7747
1002.538, 111.1591
1003.020, 118.0098
1003.502, 122.8321
1003.984, 124.6085
1004.466, 124.6239
1004.949, 122.6980
1005.431, 119.4862
1005.913, 121.2309
1006.395, 127.7913
1006.877, 133.1081
1007.359, 131.6562
1007.841, 128.8406
1008.323, 129.3004
1008.806, 132.1166
1009.288, 129.5218
1009.770, 118.1232
1010.252, 112.7465
1010.734, 119.4723
1011.216, 130.3695
1011.698, 132.1826
1012.180, 127.5645
1012.662, 122.1909
1013.145, 116.4154
1013.627, 113.1080
1014.109, 114.7324
1014.591, 118.2269
1015.073, 121.8514
1015.555, 125.9961
1016.037, 125.9296
1016.519, 121.3333
1017.002, 118.0455
1017.484, 121.8048
1017.966, 127.9372
1018.448, 133.1917
1018.930, 136.8758
1019.412, 136.1744
1019.894, 126.0610
1020.376, 118.8285
1020.858, 117.5607
1021.341, 119.8666
1021.823, 121.3275
1022.305, 122.2232
1022.787, 123.9052
1023.269, 127.2215
1023.751, 129.6362
1024.233, 129.0325
1024.715, 127.0949
1025.198, 125.1845
1025.680, 123.1874
1026.162, 122.1373
1026.644, 122.0174
1027.126, 122.9670
1027.608, 126.2171
1028.090, 129.9642
1028.572, 131.1495
1029.054, 130.2445
1029.536, 129.2387
1030.019, 129.1046
1030.501, 128.5426
1030.983, 126.9636
1031.465, 125.0962
1031.947, 124.7373
1032.429, 125.5840
1032.911, 124.4382
1033.393, 120.4078
1033.876, 116.3583
1034.358, 113.7277
1034.840, 112.8087
1035.322, 114.1014
1035.804, 117.8624
1036.286, 122.6557
1036.768, 129.5631
1037.250, 133.9529
1037.733, 131.7304
1038.215, 126.5668
1038.697, 127.2286
1039.179, 131.7303
1039.661, 134.1571
1040.143, 129.3495
1040.625, 125.4678
1041.107, 124.2859
1041.589, 125.3123
1042.072, 129.5809
1042.554, 137.1207
1043.036, 138.1437
1043.518, 131.3538
1044.000, 123.0772
1044.482, 116.9787
1044.964, 113.2791
1045.446, 112.4202
1045.928, 114.5460
1046.411, 118.2711
1046.893, 124.8777
1047.375, 129.3373
1047.857, 129.2540
1048.339, 126.8195
1048.821, 126.9062
1049.303, 128.3355
1049.785, 127.8640
1050.268, 121.9390
1050.750, 118.5801
1051.232, 122.7209
1051.714, 128.8522
1052.196, 133.0197
1052.678, 135.1965
1053.160, 135.7213
1053.642, 134.5801
1054.125, 133.1869
1054.607, 133.3265
1055.089, 132.9985
1055.571, 129.2462
1056.053, 123.1807
1056.535, 120.7597
1057.017, 124.9340
1057.499, 125.7320
1057.981, 120.0399
1058.464, 112.8146
1058.946, 111.5764
1059.428, 114.6499
1059.910, 118.6149
1060.392, 122.9482
1060.874, 127.3571
1061.356, 134.7321
1061.838, 138.8980
1062.320, 135.0896
1062.803, 124.5054
1063.285, 120.8532
1063.767, 123.6368
1064.249, 126.0011
1064.731, 122.4358
1065.213, 119.1544
1065.695, 122.9464
1066.177, 129.8158
1066.660, 132.0666
1067.142, 127.0410
1067.624, 123.2985
1068.106, 121.0449
1068.588, 121.0440
1069.070, 125.4463
1069.552, 132.0402
1070.034, 138.1073
1070.516, 143.1975
1070.999, 144.2157
1071.481, 134.1194
1071.963, 127.1869
1072.445, 129.5174
1072.927, 136.3491
1073.409, 133.3060
1073.891, 122.5442
1074.373, 117.5676
1074.855, 124.0017
1075.338, 130.4833
1075.820, 126.9120
1076.302, 121.3468
1076.784, 121.9739
1077.266, 130.0055
1077.748, 135.1109
1078.230, 137.1282
1078.713, 137.1994
1079.195, 135.4008
1079.677, 132.4951
1080.159, 129.3878
1080.641, 126.0113
1081.123, 122.2956
1081.605, 115.4198
1082.087, 112.9430
1082.569, 117.3888
1083.052, 122.9573
1083.534, 121.2754
1084.016, 115.0877
1084.498, 113.0071
1084.980, 115.8012
1085.462, 118.6621
1085.944, 119.4004
1086.426, 119.1345
1086.908, 117.8192
1087.391, 116.0973
1087.873, 116.8054
1088.355, 119.8499
1088.837, 121.3412
1089.319, 119.5692
1089.801, 117.5945
1090.283, 117.9473
1090.765, 119.7926
1091.248, 123.1516
1091.730, 129.6782
1092.212, 128.1019
1092.694, 115.9671
1093.176, 105.4953
1093.658, 104.8595
1094.140, 110.2518
1094.622, 117.4729
1095.104, 125.0732
1095.587, 128.9817
1096.069, 123.0498
1096.551, 120.3227
1097.033, 123.4192
1097.515, 128.5362
1097.997, 131.3495
1098.479, 132.3907
1098.961, 135.1481
1099.443, 139.6400
1099.926, 140.4046
1100.408, 128.3674
1100.890, 117.8567
1101.372, 117.6100
1101.854, 124.1543
1102.336, 128.1730
1102.818, 129.7318
1103.300, 126.4869
1103.783, 116.3635
1104.265, 107.2664
1104.747, 107.1056
1105.229, 111.7220
1105.711, 118.1311
1106.193, 126.7892
1106.675, 129.5066
1107.157, 124.7261
1107.640, 120.4250
1108.122, 121.8779
1108.604, 125.0187
1109.086, 122.4461
1109.568, 116.3201
1110.050, 111.2429
1110.532, 104.7747
1111.014, 106.2611
1111.496, 120.5137
1111.979, 135.3528
1112.461, 138.2928
1112.943, 132.5409
1113.425, 130.3922
1113.907, 131.6740
1114.389, 131.8003
1114.871, 124.5705
1115.353, 120.3240
1115.835, 125.1530
1116.318, 133.8769
1116.800, 137.2270
1117.282, 135.4766
1117.764, 132.7876
1118.246, 129.5939
1118.728, 127.5814
1119.210, 129.7440
1119.692, 132.2898
1120.175, 132.0233
1120.657, 129.0865
1121.139, 125.3701
1121.621, 120.3841
1122.103, 118.8882
1122.585, 123.9565
1123.067, 129.9280
1123.549, 127.6316
1124.031, 122.9260
1124.514, 124.9019
1124.996, 140.5614
1125.478, 145.9086
1125.960, 137.5061
1126.442, 127.9108
1126.924, 125.6744
1127.406, 127.0595
1127.888, 122.9337
1128.370, 115.7203
1128.853, 112.1514
1129.335, 119.9271
1129.817, 123.7766
1130.299, 119.4287
1130.781, 114.0783
1131.263, 116.4544
1131.745, 124.3357
1132.227, 129.1099
1132.710, 130.4407
1133.192, 130.0112
1133.674, 125.6574
1134.156, 123.4375
1134.638, 128.4885
1135.120, 135.7030
1135.602, 132.9649
1136.084, 121.2710
1136.567, 113.4313
1137.049, 111.6216
1137.531, 114.1684
1138.013, 124.9044
1138.495, 135.3698
1138.977, 137.6102
1139.459, 132.9406
1139.941, 130.6405
1140.423, 130.8150
1140.906, 132.1342
1141.388, 135.1900
1141.870, 136.7016
1142.352, 130.5966
1142.834, 122.3044
1143.316, 118.7763
1143.798, 122.4015
1144.280, 123.7397
1144.762, 122.2113
1145.245, 120.8791
1145.727, 122.3440
1146.209, 124.2437
1146.691, 122.2038
1147.173, 117.9674
1147.655, 115.2287
1148.137, 115.6159
1148.619, 116.7164
1149.102, 118.5333
1149.584, 120.8800
1150.066, 124.9111
1150.548, 128.8254
1151.030, 127.1289
1151.512, 120.9888
1151.994, 117.0082
1152.476, 118.7323
1152.958, 121.9858
1153.441, 127.2250
1153.923, 131.8343
1154.405, 131.0427
1154.887, 126.6198
1155.369, 125.2263
1155.851, 127.5153
1156.333, 129.4550
1156.815, 130.3810
1157.297, 128.5919
1157.780, 121.8906
1158.262, 113.3398
1158.744, 111.2509
1159.226, 114.8272
1159.708, 119.2534
1160.190, 123.8582
1160.672, 126.9416
1161.154, 126.4671
1161.637, 124.7764
1162.119, 122.9012
1162.601, 121.1615
1163.083, 122.4657
1163.565, 126.6353
1164.047, 129.5710
1164.529, 129.4799
1165.011, 128.2054
1165.494, 126.9499
1165.976, 125.3723
1166.458, 122.3490
1166.940, 117.1483
1167.422, 118.1973
1167.904, 125.9736
1168.386, 133.1290
1168.868, 135.0349
1169.350, 135.0718
1169.833, 137.0205
1170.315, 139.0692
1170.797, 137.4373
1171.279, 129.6336
1171.761, 126.6844
1172.243, 129.6152
1172.725, 132.6193
1173.207, 130.3526
1173.689, 126.2879
1174.172, 124.6613
1174.654, 124.7272
1175.136, 123.4105
1175.618, 118.9004
1176.100, 117.2583
1176.582, 119.5767
1177.064, 123.0538
1177.546, 125.0757
1178.029, 126.2189
1178.511, 127.6955
1178.993, 129.3690
1179.475, 128.9247
1179.957, 124.6453
1180.439, 121.4054
1180.921, 119.9403
1181.403, 120.3741
1181.885, 125.2511
1182.368, 131.1974
1182.850, 131.1950
1183.332, 123.9775
1183.814, 119.1060
1184.296, 119.2515
1184.778, 120.2943
1185.260, 121.2635
1185.742, 121.9451
1186.224, 121.3854
1186.707, 120.3179
1187.189, 120.3937
1187.671, 122.2682
1188.153, 123.9981
1188.635, 125.7835
1189.117, 126.3067
1189.599, 124.4658
1190.081, 121.2890
1190.564, 119.6867
1191.046, 119.1640
1191.528, 118.1843
1192.010, 114.7354
1192.492, 114.6309
1192.974, 122.0677
1193.456, 128.8738
1193.938, 129.1068
1194.421, 124.6628
1194.903, 121.8226
1195.385, 120.7109
1195.867, 121.8009
1196.349, 129.0541
1196.831, 133.0769
1197.313, 129.8085
1197.795, 125.1384
1198.277, 124.0715
1198.760, 125.9558
1199.242, 128.5041
1199.724, 131.1710
1200.206, 131.2086
1200.688, 122.0870
1201.170, 117.0570
1201.652, 121.8006
1202.134, 129.6109
1202.616, 132.7509
1203.099, 132.0083
1203.581, 131.2889
1204.063, 130.8754
1204.545, 131.0902
1205.027, 135.3214
1205.509, 135.8317
1205.991, 127.2149
1206.473, 116.4262
1206.956, 115.9063
1207.438, 123.4474
1207.920, 127.0765
1208.402, 125.4864
1208.884, 123.2304
1209.366, 122.0105
1209.848, 121.7178
1210.330, 122.7000
1210.813, 124.1395
1211.295, 123.5473
1211.777, 121.6327
1212.259, 123.0892
1212.741, 129.0711
1213.223, 132.8950
1213.705, 127.1231
1214.187, 122.6322
1214.669, 125.8157
1215.151, 133.0808
1215.634, 132.7727
1216.116, 126.5681
1216.598, 122.4987
1217.080, 122.7641
1217.562, 123.8559
1218.044, 124.0911
1218.526, 124.5274
1219.008, 126.1962
1219.491, 128.2930
1219.973, 127.0446
1220.455, 123.2924
1220.937, 120.7800
1221.419, 120.2508
1221.901, 122.3894
1222.383, 132.0189
1222.865, 139.6113
1223.348, 138.4038
1223.830, 131.0256
1224.312, 132.0214
1224.794, 139.0563
1225.276, 141.4436
1225.758, 132.5271
1226.240, 124.5008
1226.722, 124.6845
1227.204, 125.2053
1227.687, 119.7897
1228.169, 110.6204
1228.651, 111.6451
1229.133, 120.5451
1229.615, 127.5002
1230.097, 127.3081
1230.579, 126.0231
1231.061, 124.4450
1231.543, 123.5929
1232.026, 124.2236
1232.508, 126.2594
1232.990, 131.5357
1233.472, 138.4144
1233.954, 139.4475
1234.436, 122.4682
1234.918, 111.9311
1235.400, 115.4493
1235.883, 123.4575
1236.365, 128.4642
1236.847, 130.9962
1237.329, 133.2560
1237.811, 135.0317
1238.293, 135.2438
1238.775, 131.8521
1239.257, 128.9899
1239.740, 127.2907
1240.222, 126.4331
1240.704, 125.9911
1241.186, 126.1322
1241.668, 128.5950
1242.150, 132.5099
1242.632, 133.2366
1243.114, 126.4360
1243.596, 119.4350
1244.079, 111.9470
1244.561, 107.1511
1245.043, 110.5545
1245.525, 118.5278
1246.007, 123.5021
1246.489, 125.4663
1246.971, 127.4597
1247.453, 132.9264
1247.936, 133.8550
1248.418, 127.8442
1248.900, 120.4052
1249.382, 117.2035
1249.864, 117.4449
1250.346, 121.2922
1250.828, 127.9884
1251.310, 132.2623
1251.792, 133.3953
1252.275, 131.2230
1252.757, 124.5198
1253.239, 118.4660
1253.721, 121.3072
1254.203, 127.2314
1254.685, 127.4194
1255.167, 122.0573
1255.649, 120.7244
1256.131, 125.7281
1256.614, 128.4848
1257.096, 126.7978
1257.578, 124.7262
1258.060, 128.2080
1258.542, 132.8727
1259.024, 133.4601
1259.506, 129.9397
1259.988, 127.6185
1260.471, 126.4442
1260.953, 127.4266
1261.435, 131.1839
1261.917, 135.0625
1262.399, 137.4635
1262.881, 137.8473
1263.363, 134.4323
1263.845, 128.1726
1264.328, 124.7858
1264.810, 124.3792
1265.292, 125.7464
1265.774, 129.1768
1266.256, 131.1851
1266.738, 126.2459
1267.220, 121.1024
1267.702, 121.9815
1268.184, 126.9564
1268.667, 127.8517
1269.149, 125.0923
1269.631, 125.8418
1270.113, 132.8353
1270.595, 137.1193
1271.077, 128.8512
1271.559, 120.0662
1272.041, 117.6235
1272.523, 119.9262
1273.006, 121.9960
1273.488, 123.9600
1273.970, 126.8811
1274.452, 131.6732
1274.934, 133.6895
1275.416, 126.6266
1275.898, 121.3128
1276.380, 122.8444
1276.863, 128.4689
1277.345, 131.7406
1277.827, 132.9874
1278.309, 132.9274
1278.791, 131.5606
1279.273, 129.8426
1279.755, 128.1819
1280.237, 125.7072
1280.719, 121.1418
1281.202, 117.0324
1281.684, 119.6189
1282.166, 125.5411
1282.648, 128.7714
1283.130, 127.6890
1283.612, 125.9949
1284.094, 123.5224
1284.576, 122.1601
1285.058, 122.9540
1285.541, 124.4999
1286.023, 124.5735
1286.505, 124.2812
1286.987, 124.8520
1287.469, 126.4281
1287.951, 131.1072
1288.433, 139.7682
1288.915, 144.0666
1289.398, 139.7722
1289.880, 132.8413
##END=



