##NAMES=Bismutotantalite
##RRUFFID=R130254
##IDEAL CHEMISTRY=Bi^3+^Ta^5+^O_4_
##LOCALITY=Wampewo Hill, Busiiro Co. (Bushiro Co.), Wakiso District, Uganda
##OWNER=RRUFF
##SOURCE=Rock Currier
##DESCRIPTION=Submetallic black anhedral crystals and grains
##STATUS=The identification of this mineral has been confirmed only by single crystal X-ray diffraction.
##URL=rruff.info/R130254
8.813672e+001, 3.262701e+002
8.861884e+001, 3.295517e+002
8.910095e+001, 3.333284e+002
8.958307e+001, 3.389803e+002
9.006519e+001, 3.461796e+002
9.054730e+001, 3.540677e+002
9.102942e+001, 3.638224e+002
9.151154e+001, 3.721722e+002
9.199365e+001, 3.742050e+002
9.247577e+001, 3.710357e+002
9.295789e+001, 3.680455e+002
9.344000e+001, 3.701919e+002
9.392212e+001, 3.752963e+002
9.440424e+001, 3.777363e+002
9.488635e+001, 3.761384e+002
9.536847e+001, 3.725331e+002
9.585059e+001, 3.709726e+002
9.633270e+001, 3.714398e+002
9.681482e+001, 3.730252e+002
9.729694e+001, 3.748390e+002
9.777905e+001, 3.768852e+002
9.826117e+001, 3.799785e+002
9.874329e+001, 3.850009e+002
9.922540e+001, 3.914235e+002
9.970752e+001, 3.951548e+002
1.001896e+002, 3.954564e+002
1.006718e+002, 3.945916e+002
1.011539e+002, 3.953268e+002
1.016360e+002, 3.978880e+002
1.021181e+002, 4.011698e+002
1.026002e+002, 4.047214e+002
1.030823e+002, 4.083981e+002
1.035645e+002, 4.131167e+002
1.040466e+002, 4.187607e+002
1.045287e+002, 4.255130e+002
1.050108e+002, 4.341232e+002
1.054929e+002, 4.459721e+002
1.059750e+002, 4.576371e+002
1.064572e+002, 4.680168e+002
1.069393e+002, 4.784735e+002
1.074214e+002, 4.853329e+002
1.079035e+002, 4.869832e+002
1.083856e+002, 4.849168e+002
1.088677e+002, 4.842414e+002
1.093499e+002, 4.851946e+002
1.098320e+002, 4.873720e+002
1.103141e+002, 4.905938e+002
1.107962e+002, 4.949165e+002
1.112783e+002, 5.002719e+002
1.117604e+002, 5.069173e+002
1.122426e+002, 5.147888e+002
1.127247e+002, 5.230030e+002
1.132068e+002, 5.313269e+002
1.136889e+002, 5.400316e+002
1.141710e+002, 5.492215e+002
1.146531e+002, 5.603820e+002
1.151353e+002, 5.706202e+002
1.156174e+002, 5.788297e+002
1.160995e+002, 5.849631e+002
1.165816e+002, 5.912336e+002
1.170637e+002, 5.993637e+002
1.175458e+002, 6.077318e+002
1.180280e+002, 6.146760e+002
1.185101e+002, 6.174267e+002
1.189922e+002, 6.199955e+002
1.194743e+002, 6.247220e+002
1.199564e+002, 6.318934e+002
1.204385e+002, 6.401257e+002
1.209207e+002, 6.480127e+002
1.214028e+002, 6.564024e+002
1.218849e+002, 6.667437e+002
1.223670e+002, 6.841752e+002
1.228491e+002, 7.020739e+002
1.233312e+002, 7.124521e+002
1.238134e+002, 7.130792e+002
1.242955e+002, 7.114540e+002
1.247776e+002, 7.134382e+002
1.252597e+002, 7.187590e+002
1.257418e+002, 7.264200e+002
1.262239e+002, 7.372595e+002
1.267061e+002, 7.500024e+002
1.271882e+002, 7.619566e+002
1.276703e+002, 7.729153e+002
1.281524e+002, 7.829001e+002
1.286345e+002, 7.914193e+002
1.291166e+002, 7.986057e+002
1.295988e+002, 8.059206e+002
1.300809e+002, 8.148322e+002
1.305630e+002, 8.248986e+002
1.310451e+002, 8.341575e+002
1.315272e+002, 8.416738e+002
1.320093e+002, 8.484434e+002
1.324915e+002, 8.570555e+002
1.329736e+002, 8.676259e+002
1.334557e+002, 8.788682e+002
1.339378e+002, 8.895281e+002
1.344199e+002, 8.996328e+002
1.349020e+002, 9.098107e+002
1.353842e+002, 9.204541e+002
1.358663e+002, 9.311497e+002
1.363484e+002, 9.408620e+002
1.368305e+002, 9.494263e+002
1.373126e+002, 9.573132e+002
1.377947e+002, 9.657763e+002
1.382769e+002, 9.756751e+002
1.387590e+002, 9.816926e+002
1.392411e+002, 9.819941e+002
1.397232e+002, 9.764687e+002
1.402053e+002, 9.687136e+002
1.406874e+002, 9.584474e+002
1.411696e+002, 9.461973e+002
1.416517e+002, 9.327096e+002
1.421338e+002, 9.176298e+002
1.426159e+002, 9.019770e+002
1.430980e+002, 8.856464e+002
1.435801e+002, 8.684128e+002
1.440623e+002, 8.522670e+002
1.445444e+002, 8.372699e+002
1.450265e+002, 8.233748e+002
1.455086e+002, 8.109547e+002
1.459907e+002, 8.011189e+002
1.464728e+002, 7.911928e+002
1.469550e+002, 7.800119e+002
1.474371e+002, 7.664595e+002
1.479192e+002, 7.543994e+002
1.484013e+002, 7.442811e+002
1.488834e+002, 7.356411e+002
1.493655e+002, 7.273029e+002
1.498477e+002, 7.187332e+002
1.503298e+002, 7.109757e+002
1.508119e+002, 7.045657e+002
1.512940e+002, 7.010881e+002
1.517761e+002, 6.965816e+002
1.522583e+002, 6.897783e+002
1.527404e+002, 6.817645e+002
1.532225e+002, 6.755846e+002
1.537046e+002, 6.741219e+002
1.541867e+002, 6.727040e+002
1.546688e+002, 6.691835e+002
1.551510e+002, 6.614564e+002
1.556331e+002, 6.538426e+002
1.561152e+002, 6.469246e+002
1.565973e+002, 6.406276e+002
1.570794e+002, 6.348121e+002
1.575615e+002, 6.295059e+002
1.580437e+002, 6.245818e+002
1.585258e+002, 6.199451e+002
1.590079e+002, 6.154839e+002
1.594900e+002, 6.114049e+002
1.599721e+002, 6.077147e+002
1.604542e+002, 6.044318e+002
1.609364e+002, 6.016602e+002
1.614185e+002, 5.999627e+002
1.619006e+002, 5.985400e+002
1.623827e+002, 5.967484e+002
1.628648e+002, 5.943109e+002
1.633469e+002, 5.915412e+002
1.638291e+002, 5.883132e+002
1.643112e+002, 5.847245e+002
1.647933e+002, 5.814643e+002
1.652754e+002, 5.791051e+002
1.657575e+002, 5.771707e+002
1.662396e+002, 5.751610e+002
1.667218e+002, 5.724459e+002
1.672039e+002, 5.699373e+002
1.676860e+002, 5.682155e+002
1.681681e+002, 5.672949e+002
1.686502e+002, 5.668312e+002
1.691323e+002, 5.671632e+002
1.696145e+002, 5.677177e+002
1.700966e+002, 5.677084e+002
1.705787e+002, 5.666693e+002
1.710608e+002, 5.650276e+002
1.715429e+002, 5.628893e+002
1.720250e+002, 5.602139e+002
1.725072e+002, 5.578531e+002
1.729893e+002, 5.566623e+002
1.734714e+002, 5.561945e+002
1.739535e+002, 5.556211e+002
1.744356e+002, 5.543352e+002
1.749177e+002, 5.528583e+002
1.753999e+002, 5.517423e+002
1.758820e+002, 5.509993e+002
1.763641e+002, 5.506201e+002
1.768462e+002, 5.508369e+002
1.773283e+002, 5.514235e+002
1.778104e+002, 5.518044e+002
1.782926e+002, 5.516419e+002
1.787747e+002, 5.511035e+002
1.792568e+002, 5.503928e+002
1.797389e+002, 5.494933e+002
1.802210e+002, 5.485802e+002
1.807031e+002, 5.477933e+002
1.811853e+002, 5.471465e+002
1.816674e+002, 5.467327e+002
1.821495e+002, 5.468538e+002
1.826316e+002, 5.472338e+002
1.831137e+002, 5.470861e+002
1.835958e+002, 5.462496e+002
1.840780e+002, 5.454026e+002
1.845601e+002, 5.457053e+002
1.850422e+002, 5.469696e+002
1.855243e+002, 5.479297e+002
1.860064e+002, 5.477109e+002
1.864885e+002, 5.466196e+002
1.869707e+002, 5.457036e+002
1.874528e+002, 5.450189e+002
1.879349e+002, 5.445400e+002
1.884170e+002, 5.443197e+002
1.888991e+002, 5.443404e+002
1.893812e+002, 5.442905e+002
1.898634e+002, 5.438557e+002
1.903455e+002, 5.431338e+002
1.908276e+002, 5.427455e+002
1.913097e+002, 5.427368e+002
1.917918e+002, 5.430278e+002
1.922739e+002, 5.435084e+002
1.927561e+002, 5.441818e+002
1.932382e+002, 5.449838e+002
1.937203e+002, 5.460514e+002
1.942024e+002, 5.473295e+002
1.946845e+002, 5.480987e+002
1.951666e+002, 5.481818e+002
1.956488e+002, 5.479223e+002
1.961309e+002, 5.480203e+002
1.966130e+002, 5.485236e+002
1.970951e+002, 5.490233e+002
1.975772e+002, 5.492692e+002
1.980593e+002, 5.492604e+002
1.985415e+002, 5.493134e+002
1.990236e+002, 5.494830e+002
1.995057e+002, 5.496904e+002
1.999878e+002, 5.497031e+002
2.004699e+002, 5.494688e+002
2.009520e+002, 5.493029e+002
2.014342e+002, 5.495072e+002
2.019163e+002, 5.501451e+002
2.023984e+002, 5.503810e+002
2.028805e+002, 5.501077e+002
2.033626e+002, 5.494477e+002
2.038447e+002, 5.486242e+002
2.043269e+002, 5.475577e+002
2.048090e+002, 5.466046e+002
2.052911e+002, 5.460609e+002
2.057732e+002, 5.460158e+002
2.062553e+002, 5.457589e+002
2.067374e+002, 5.452472e+002
2.072196e+002, 5.445004e+002
2.077017e+002, 5.435549e+002
2.081838e+002, 5.423904e+002
2.086659e+002, 5.410833e+002
2.091480e+002, 5.396129e+002
2.096301e+002, 5.378650e+002
2.101123e+002, 5.364394e+002
2.105944e+002, 5.354140e+002
2.110765e+002, 5.346998e+002
2.115586e+002, 5.341018e+002
2.120407e+002, 5.337343e+002
2.125228e+002, 5.332229e+002
2.130050e+002, 5.322505e+002
2.134871e+002, 5.305754e+002
2.139692e+002, 5.293705e+002
2.144513e+002, 5.288116e+002
2.149334e+002, 5.287173e+002
2.154155e+002, 5.285256e+002
2.158977e+002, 5.281508e+002
2.163798e+002, 5.278291e+002
2.168619e+002, 5.276840e+002
2.173440e+002, 5.277305e+002
2.178261e+002, 5.279017e+002
2.183082e+002, 5.282730e+002
2.187904e+002, 5.287346e+002
2.192725e+002, 5.289293e+002
2.197546e+002, 5.287330e+002
2.202367e+002, 5.284868e+002
2.207188e+002, 5.283157e+002
2.212009e+002, 5.280959e+002
2.216831e+002, 5.283461e+002
2.221652e+002, 5.293290e+002
2.226473e+002, 5.307360e+002
2.231294e+002, 5.315403e+002
2.236115e+002, 5.313020e+002
2.240936e+002, 5.312259e+002
2.245758e+002, 5.320137e+002
2.250579e+002, 5.342706e+002
2.255400e+002, 5.358644e+002
2.260221e+002, 5.364621e+002
2.265042e+002, 5.364648e+002
2.269863e+002, 5.369721e+002
2.274685e+002, 5.382494e+002
2.279506e+002, 5.396301e+002
2.284327e+002, 5.407830e+002
2.289148e+002, 5.415090e+002
2.293969e+002, 5.424715e+002
2.298790e+002, 5.436318e+002
2.303612e+002, 5.450342e+002
2.308433e+002, 5.468604e+002
2.313254e+002, 5.495004e+002
2.318075e+002, 5.519882e+002
2.322896e+002, 5.539150e+002
2.327717e+002, 5.551603e+002
2.332539e+002, 5.560769e+002
2.337360e+002, 5.564366e+002
2.342181e+002, 5.565215e+002
2.347002e+002, 5.570159e+002
2.351823e+002, 5.581573e+002
2.356644e+002, 5.593294e+002
2.361466e+002, 5.602966e+002
2.366287e+002, 5.610167e+002
2.371108e+002, 5.616193e+002
2.375929e+002, 5.620388e+002
2.380750e+002, 5.623584e+002
2.385571e+002, 5.627973e+002
2.390393e+002, 5.636566e+002
2.395214e+002, 5.641683e+002
2.400035e+002, 5.640126e+002
2.404856e+002, 5.629774e+002
2.409677e+002, 5.619431e+002
2.414498e+002, 5.609554e+002
2.419320e+002, 5.599660e+002
2.424141e+002, 5.588807e+002
2.428962e+002, 5.577856e+002
2.433783e+002, 5.564792e+002
2.438604e+002, 5.548381e+002
2.443425e+002, 5.527182e+002
2.448247e+002, 5.508406e+002
2.453068e+002, 5.493156e+002
2.457889e+002, 5.479720e+002
2.462710e+002, 5.464822e+002
2.467531e+002, 5.446570e+002
2.472352e+002, 5.430108e+002
2.477174e+002, 5.418320e+002
2.481995e+002, 5.413610e+002
2.486816e+002, 5.401130e+002
2.491637e+002, 5.376620e+002
2.496458e+002, 5.347338e+002
2.501279e+002, 5.323862e+002
2.506101e+002, 5.307955e+002
2.510922e+002, 5.294123e+002
2.515743e+002, 5.281854e+002
2.520564e+002, 5.271682e+002
2.525385e+002, 5.258358e+002
2.530206e+002, 5.241351e+002
2.535028e+002, 5.221501e+002
2.539849e+002, 5.200226e+002
2.544670e+002, 5.176979e+002
2.549491e+002, 5.152710e+002
2.554312e+002, 5.125383e+002
2.559133e+002, 5.094481e+002
2.563955e+002, 5.075658e+002
2.568776e+002, 5.075771e+002
2.573597e+002, 5.080262e+002
2.578418e+002, 5.073050e+002
2.583239e+002, 5.048801e+002
2.588061e+002, 5.025128e+002
2.592882e+002, 5.004756e+002
2.597703e+002, 4.987611e+002
2.602524e+002, 4.974731e+002
2.607345e+002, 4.968624e+002
2.612166e+002, 4.963104e+002
2.616988e+002, 4.951513e+002
2.621809e+002, 4.930893e+002
2.626630e+002, 4.913575e+002
2.631451e+002, 4.903194e+002
2.636272e+002, 4.898615e+002
2.641093e+002, 4.889677e+002
2.645915e+002, 4.874165e+002
2.650736e+002, 4.858172e+002
2.655557e+002, 4.846797e+002
2.660378e+002, 4.841987e+002
2.665199e+002, 4.835990e+002
2.670020e+002, 4.828631e+002
2.674842e+002, 4.819308e+002
2.679663e+002, 4.803908e+002
2.684484e+002, 4.779436e+002
2.689305e+002, 4.755784e+002
2.694126e+002, 4.740438e+002
2.698947e+002, 4.734827e+002
2.703769e+002, 4.730805e+002
2.708590e+002, 4.728721e+002
2.713411e+002, 4.727081e+002
2.718232e+002, 4.720457e+002
2.723053e+002, 4.707323e+002
2.727874e+002, 4.693820e+002
2.732696e+002, 4.683613e+002
2.737517e+002, 4.677236e+002
2.742338e+002, 4.670879e+002
2.747159e+002, 4.664585e+002
2.751980e+002, 4.657872e+002
2.756801e+002, 4.649019e+002
2.761623e+002, 4.637238e+002
2.766444e+002, 4.627007e+002
2.771265e+002, 4.621978e+002
2.776086e+002, 4.622765e+002
2.780907e+002, 4.619302e+002
2.785728e+002, 4.610205e+002
2.790550e+002, 4.598637e+002
2.795371e+002, 4.590108e+002
2.800192e+002, 4.584880e+002
2.805013e+002, 4.580516e+002
2.809834e+002, 4.575959e+002
2.814655e+002, 4.571210e+002
2.819477e+002, 4.567250e+002
2.824298e+002, 4.564406e+002
2.829119e+002, 4.561432e+002
2.833940e+002, 4.554793e+002
2.838761e+002, 4.544240e+002
2.843582e+002, 4.538537e+002
2.848404e+002, 4.544716e+002
2.853225e+002, 4.559583e+002
2.858046e+002, 4.562479e+002
2.862867e+002, 4.551728e+002
2.867688e+002, 4.536686e+002
2.872509e+002, 4.527362e+002
2.877331e+002, 4.523462e+002
2.882152e+002, 4.521021e+002
2.886973e+002, 4.520572e+002
2.891794e+002, 4.520291e+002
2.896615e+002, 4.512133e+002
2.901436e+002, 4.495351e+002
2.906258e+002, 4.479643e+002
2.911079e+002, 4.474895e+002
2.915900e+002, 4.479534e+002
2.920721e+002, 4.485082e+002
2.925542e+002, 4.490126e+002
2.930363e+002, 4.494274e+002
2.935185e+002, 4.496355e+002
2.940006e+002, 4.496415e+002
2.944827e+002, 4.495646e+002
2.949648e+002, 4.496026e+002
2.954469e+002, 4.496429e+002
2.959290e+002, 4.492328e+002
2.964112e+002, 4.480411e+002
2.968933e+002, 4.467743e+002
2.973754e+002, 4.466555e+002
2.978575e+002, 4.475401e+002
2.983396e+002, 4.485644e+002
2.988217e+002, 4.492409e+002
2.993039e+002, 4.496418e+002
2.997860e+002, 4.498264e+002
3.002681e+002, 4.497233e+002
3.007502e+002, 4.496554e+002
3.012323e+002, 4.502589e+002
3.017144e+002, 4.512925e+002
3.021966e+002, 4.518993e+002
3.026787e+002, 4.510356e+002
3.031608e+002, 4.497092e+002
3.036429e+002, 4.494328e+002
3.041250e+002, 4.504443e+002
3.046071e+002, 4.516382e+002
3.050893e+002, 4.520633e+002
3.055714e+002, 4.519293e+002
3.060535e+002, 4.516617e+002
3.065356e+002, 4.514332e+002
3.070177e+002, 4.511723e+002
3.074998e+002, 4.507200e+002
3.079820e+002, 4.500702e+002
3.084641e+002, 4.496013e+002
3.089462e+002, 4.496971e+002
3.094283e+002, 4.501141e+002
3.099104e+002, 4.505217e+002
3.103925e+002, 4.508092e+002
3.108747e+002, 4.510411e+002
3.113568e+002, 4.512686e+002
3.118389e+002, 4.514876e+002
3.123210e+002, 4.516472e+002
3.128031e+002, 4.518757e+002
3.132852e+002, 4.519659e+002
3.137674e+002, 4.516885e+002
3.142495e+002, 4.506448e+002
3.147316e+002, 4.496656e+002
3.152137e+002, 4.492945e+002
3.156958e+002, 4.493567e+002
3.161779e+002, 4.492690e+002
3.166601e+002, 4.483483e+002
3.171422e+002, 4.474701e+002
3.176243e+002, 4.472767e+002
3.181064e+002, 4.482156e+002
3.185885e+002, 4.491270e+002
3.190706e+002, 4.496883e+002
3.195528e+002, 4.499478e+002
3.200349e+002, 4.500027e+002
3.205170e+002, 4.497233e+002
3.209991e+002, 4.493706e+002
3.214812e+002, 4.490690e+002
3.219633e+002, 4.488653e+002
3.224455e+002, 4.485748e+002
3.229276e+002, 4.480480e+002
3.234097e+002, 4.474505e+002
3.238918e+002, 4.469859e+002
3.243739e+002, 4.469012e+002
3.248560e+002, 4.467472e+002
3.253382e+002, 4.464436e+002
3.258203e+002, 4.459932e+002
3.263024e+002, 4.453478e+002
3.267845e+002, 4.443230e+002
3.272666e+002, 4.432043e+002
3.277487e+002, 4.422136e+002
3.282309e+002, 4.413008e+002
3.287130e+002, 4.405947e+002
3.291951e+002, 4.400922e+002
3.296772e+002, 4.397980e+002
3.301593e+002, 4.397941e+002
3.306414e+002, 4.405786e+002
3.311236e+002, 4.411748e+002
3.316057e+002, 4.410003e+002
3.320878e+002, 4.393832e+002
3.325699e+002, 4.381992e+002
3.330520e+002, 4.377202e+002
3.335341e+002, 4.376699e+002
3.340163e+002, 4.372896e+002
3.344984e+002, 4.364557e+002
3.349805e+002, 4.354954e+002
3.354626e+002, 4.344571e+002
3.359447e+002, 4.331948e+002
3.364268e+002, 4.324671e+002
3.369090e+002, 4.324740e+002
3.373911e+002, 4.328090e+002
3.378732e+002, 4.328723e+002
3.383553e+002, 4.326755e+002
3.388374e+002, 4.321717e+002
3.393195e+002, 4.312100e+002
3.398017e+002, 4.298292e+002
3.402838e+002, 4.288739e+002
3.407659e+002, 4.284319e+002
3.412480e+002, 4.282000e+002
3.417301e+002, 4.278153e+002
3.422122e+002, 4.272556e+002
3.426944e+002, 4.269443e+002
3.431765e+002, 4.271118e+002
3.436586e+002, 4.275274e+002
3.441407e+002, 4.273097e+002
3.446228e+002, 4.264074e+002
3.451049e+002, 4.254678e+002
3.455871e+002, 4.250595e+002
3.460692e+002, 4.250920e+002
3.465513e+002, 4.249624e+002
3.470334e+002, 4.245307e+002
3.475155e+002, 4.240220e+002
3.479977e+002, 4.238478e+002
3.484798e+002, 4.239738e+002
3.489619e+002, 4.241329e+002
3.494440e+002, 4.242780e+002
3.499261e+002, 4.243336e+002
3.504082e+002, 4.240415e+002
3.508904e+002, 4.233365e+002
3.513725e+002, 4.226257e+002
3.518546e+002, 4.223955e+002
3.523367e+002, 4.225019e+002
3.528188e+002, 4.225602e+002
3.533009e+002, 4.223388e+002
3.537831e+002, 4.220136e+002
3.542652e+002, 4.217664e+002
3.547473e+002, 4.215980e+002
3.552294e+002, 4.215146e+002
3.557115e+002, 4.218580e+002
3.561936e+002, 4.221886e+002
3.566758e+002, 4.218519e+002
3.571579e+002, 4.199637e+002
3.576400e+002, 4.182363e+002
3.581221e+002, 4.181389e+002
3.586042e+002, 4.193047e+002
3.590863e+002, 4.203991e+002
3.595685e+002, 4.208985e+002
3.600506e+002, 4.209897e+002
3.605327e+002, 4.207505e+002
3.610148e+002, 4.200717e+002
3.614969e+002, 4.194067e+002
3.619790e+002, 4.187458e+002
3.624612e+002, 4.182515e+002
3.629433e+002, 4.181833e+002
3.634254e+002, 4.193045e+002
3.639075e+002, 4.202645e+002
3.643896e+002, 4.203447e+002
3.648717e+002, 4.193418e+002
3.653539e+002, 4.186743e+002
3.658360e+002, 4.188815e+002
3.663181e+002, 4.194208e+002
3.668002e+002, 4.197963e+002
3.672823e+002, 4.199770e+002
3.677644e+002, 4.199595e+002
3.682466e+002, 4.194774e+002
3.687287e+002, 4.186194e+002
3.692108e+002, 4.184215e+002
3.696929e+002, 4.197968e+002
3.701750e+002, 4.210358e+002
3.706571e+002, 4.212049e+002
3.711393e+002, 4.192496e+002
3.716214e+002, 4.181100e+002
3.721035e+002, 4.182234e+002
3.725856e+002, 4.190261e+002
3.730677e+002, 4.191886e+002
3.735498e+002, 4.183497e+002
3.740320e+002, 4.175665e+002
3.745141e+002, 4.172155e+002
3.749962e+002, 4.173270e+002
3.754783e+002, 4.176839e+002
3.759604e+002, 4.184698e+002
3.764425e+002, 4.191967e+002
3.769247e+002, 4.191505e+002
3.774068e+002, 4.181794e+002
3.778889e+002, 4.173727e+002
3.783710e+002, 4.170016e+002
3.788531e+002, 4.170045e+002
3.793352e+002, 4.172796e+002
3.798174e+002, 4.179030e+002
3.802995e+002, 4.182631e+002
3.807816e+002, 4.175801e+002
3.812637e+002, 4.160220e+002
3.817458e+002, 4.151125e+002
3.822279e+002, 4.151934e+002
3.827101e+002, 4.157057e+002
3.831922e+002, 4.158375e+002
3.836743e+002, 4.156074e+002
3.841564e+002, 4.151342e+002
3.846385e+002, 4.141479e+002
3.851206e+002, 4.130277e+002
3.856028e+002, 4.126666e+002
3.860849e+002, 4.131592e+002
3.865670e+002, 4.137476e+002
3.870491e+002, 4.136289e+002
3.875312e+002, 4.131006e+002
3.880133e+002, 4.127588e+002
3.884955e+002, 4.129892e+002
3.889776e+002, 4.133556e+002
3.894597e+002, 4.135514e+002
3.899418e+002, 4.135617e+002
3.904239e+002, 4.133025e+002
3.909060e+002, 4.122491e+002
3.913882e+002, 4.111469e+002
3.918703e+002, 4.107251e+002
3.923524e+002, 4.113666e+002
3.928345e+002, 4.121972e+002
3.933166e+002, 4.130778e+002
3.937987e+002, 4.138383e+002
3.942809e+002, 4.141282e+002
3.947630e+002, 4.133511e+002
3.952451e+002, 4.124995e+002
3.957272e+002, 4.119515e+002
3.962093e+002, 4.117502e+002
3.966914e+002, 4.118097e+002
3.971736e+002, 4.124992e+002
3.976557e+002, 4.132547e+002
3.981378e+002, 4.135583e+002
3.986199e+002, 4.128918e+002
3.991020e+002, 4.122837e+002
3.995841e+002, 4.118947e+002
4.000663e+002, 4.116848e+002
4.005484e+002, 4.114008e+002
4.010305e+002, 4.111161e+002
4.015126e+002, 4.106805e+002
4.019947e+002, 4.099548e+002
4.024768e+002, 4.086139e+002
4.029590e+002, 4.078353e+002
4.034411e+002, 4.079140e+002
4.039232e+002, 4.083487e+002
4.044053e+002, 4.081744e+002
4.048874e+002, 4.071388e+002
4.053695e+002, 4.062894e+002
4.058517e+002, 4.060438e+002
4.063338e+002, 4.063538e+002
4.068159e+002, 4.064766e+002
4.072980e+002, 4.064624e+002
4.077801e+002, 4.060954e+002
4.082622e+002, 4.047541e+002
4.087444e+002, 4.025128e+002
4.092265e+002, 4.014005e+002
4.097086e+002, 4.021075e+002
4.101907e+002, 4.037315e+002
4.106728e+002, 4.044917e+002
4.111549e+002, 4.044395e+002
4.116371e+002, 4.041409e+002
4.121192e+002, 4.038394e+002
4.126013e+002, 4.035498e+002
4.130834e+002, 4.033192e+002
4.135655e+002, 4.031544e+002
4.140476e+002, 4.030097e+002
4.145298e+002, 4.028580e+002
4.150119e+002, 4.026913e+002
4.154940e+002, 4.024921e+002
4.159761e+002, 4.023193e+002
4.164582e+002, 4.020643e+002
4.169403e+002, 4.014896e+002
4.174225e+002, 4.006746e+002
4.179046e+002, 4.001114e+002
4.183867e+002, 4.005004e+002
4.188688e+002, 4.010453e+002
4.193509e+002, 4.009963e+002
4.198330e+002, 3.998120e+002
4.203152e+002, 3.988927e+002
4.207973e+002, 3.991059e+002
4.212794e+002, 3.999053e+002
4.217615e+002, 4.002955e+002
4.222436e+002, 3.995963e+002
4.227257e+002, 3.988550e+002
4.232079e+002, 3.984280e+002
4.236900e+002, 3.983747e+002
4.241721e+002, 3.983442e+002
4.246542e+002, 3.981607e+002
4.251363e+002, 3.980809e+002
4.256184e+002, 3.983259e+002
4.261006e+002, 3.994732e+002
4.265827e+002, 4.000111e+002
4.270648e+002, 3.995216e+002
4.275469e+002, 3.983463e+002
4.280290e+002, 3.977363e+002
4.285111e+002, 3.979672e+002
4.289933e+002, 3.982081e+002
4.294754e+002, 3.980734e+002
4.299575e+002, 3.975013e+002
4.304396e+002, 3.969108e+002
4.309217e+002, 3.962285e+002
4.314038e+002, 3.956631e+002
4.318860e+002, 3.956164e+002
4.323681e+002, 3.961159e+002
4.328502e+002, 3.963832e+002
4.333323e+002, 3.961332e+002
4.338144e+002, 3.955780e+002
4.342965e+002, 3.952848e+002
4.347787e+002, 3.952562e+002
4.352608e+002, 3.953054e+002
4.357429e+002, 3.954247e+002
4.362250e+002, 3.955240e+002
4.367071e+002, 3.953034e+002
4.371892e+002, 3.946657e+002
4.376714e+002, 3.939991e+002
4.381535e+002, 3.937627e+002
4.386356e+002, 3.938188e+002
4.391177e+002, 3.938654e+002
4.395998e+002, 3.936526e+002
4.400819e+002, 3.934495e+002
4.405641e+002, 3.935714e+002
4.410462e+002, 3.939749e+002
4.415283e+002, 3.942386e+002
4.420104e+002, 3.938928e+002
4.424925e+002, 3.934255e+002
4.429746e+002, 3.932744e+002
4.434568e+002, 3.937437e+002
4.439389e+002, 3.941299e+002
4.444210e+002, 3.942827e+002
4.449031e+002, 3.941965e+002
4.453852e+002, 3.938615e+002
4.458673e+002, 3.928358e+002
4.463495e+002, 3.919896e+002
4.468316e+002, 3.915879e+002
4.473137e+002, 3.916791e+002
4.477958e+002, 3.919969e+002
4.482779e+002, 3.930329e+002
4.487600e+002, 3.938932e+002
4.492422e+002, 3.938055e+002
4.497243e+002, 3.919607e+002
4.502064e+002, 3.909032e+002
4.506885e+002, 3.910254e+002
4.511706e+002, 3.919532e+002
4.516527e+002, 3.927422e+002
4.521349e+002, 3.934556e+002
4.526170e+002, 3.938077e+002
4.530991e+002, 3.934554e+002
4.535812e+002, 3.924395e+002
4.540633e+002, 3.921400e+002
4.545454e+002, 3.926552e+002
4.550276e+002, 3.933654e+002
4.555097e+002, 3.935858e+002
4.559918e+002, 3.933930e+002
4.564739e+002, 3.932540e+002
4.569560e+002, 3.933360e+002
4.574381e+002, 3.934332e+002
4.579203e+002, 3.931166e+002
4.584024e+002, 3.924820e+002
4.588845e+002, 3.919674e+002
4.593666e+002, 3.918249e+002
4.598488e+002, 3.919625e+002
4.603309e+002, 3.924466e+002
4.608130e+002, 3.933338e+002
4.612951e+002, 3.938868e+002
4.617772e+002, 3.932052e+002
4.622593e+002, 3.920262e+002
4.627415e+002, 3.912282e+002
4.632236e+002, 3.914125e+002
4.637057e+002, 3.917126e+002
4.641878e+002, 3.914283e+002
4.646699e+002, 3.909027e+002
4.651520e+002, 3.913550e+002
4.656342e+002, 3.950834e+002
4.661163e+002, 3.982028e+002
4.665984e+002, 3.987609e+002
4.670805e+002, 3.953954e+002
4.675626e+002, 3.929741e+002
4.680447e+002, 3.919442e+002
4.685269e+002, 3.916936e+002
4.690090e+002, 3.916588e+002
4.694911e+002, 3.920662e+002
4.699732e+002, 3.922301e+002
4.704553e+002, 3.918764e+002
4.709374e+002, 3.912099e+002
4.714196e+002, 3.911263e+002
4.719017e+002, 3.916866e+002
4.723838e+002, 3.926353e+002
4.728659e+002, 3.942853e+002
4.733480e+002, 3.966373e+002
4.738301e+002, 3.970497e+002
4.743123e+002, 3.951212e+002
4.747944e+002, 3.926669e+002
4.752765e+002, 3.920018e+002
4.757586e+002, 3.928166e+002
4.762407e+002, 3.934972e+002
4.767228e+002, 3.934874e+002
4.772050e+002, 3.931757e+002
4.776871e+002, 3.930618e+002
4.781692e+002, 3.931502e+002
4.786513e+002, 3.934613e+002
4.791334e+002, 3.944038e+002
4.796155e+002, 3.953797e+002
4.800977e+002, 3.955884e+002
4.805798e+002, 3.948263e+002
4.810619e+002, 3.942205e+002
4.815440e+002, 3.944182e+002
4.820261e+002, 3.951669e+002
4.825082e+002, 3.961749e+002
4.829904e+002, 3.984414e+002
4.834725e+002, 3.998208e+002
4.839546e+002, 3.991798e+002
4.844367e+002, 3.969508e+002
4.849188e+002, 3.950742e+002
4.854009e+002, 3.937503e+002
4.858831e+002, 3.928922e+002
4.863652e+002, 3.924915e+002
4.868473e+002, 3.926633e+002
4.873294e+002, 3.928565e+002
4.878115e+002, 3.930112e+002
4.882936e+002, 3.932303e+002
4.887758e+002, 3.937007e+002
4.892579e+002, 3.946155e+002
4.897400e+002, 3.951255e+002
4.902221e+002, 3.950144e+002
4.907042e+002, 3.944544e+002
4.911863e+002, 3.938305e+002
4.916685e+002, 3.930958e+002
4.921506e+002, 3.927457e+002
4.926327e+002, 3.933892e+002
4.931148e+002, 3.947385e+002
4.935969e+002, 3.953529e+002
4.940790e+002, 3.951862e+002
4.945612e+002, 3.947003e+002
4.950433e+002, 3.942220e+002
4.955254e+002, 3.937823e+002
4.960075e+002, 3.934415e+002
4.964896e+002, 3.932703e+002
4.969717e+002, 3.931330e+002
4.974539e+002, 3.927164e+002
4.979360e+002, 3.922141e+002
4.984181e+002, 3.921458e+002
4.989002e+002, 3.932328e+002
4.993823e+002, 3.944576e+002
4.998644e+002, 3.952408e+002
5.003466e+002, 3.955316e+002
5.008287e+002, 3.954755e+002
5.013108e+002, 3.945241e+002
5.017929e+002, 3.935761e+002
5.022750e+002, 3.933152e+002
5.027571e+002, 3.946855e+002
5.032393e+002, 3.956287e+002
5.037214e+002, 3.957587e+002
5.042035e+002, 3.954725e+002
5.046856e+002, 3.956682e+002
5.051677e+002, 3.967670e+002
5.056498e+002, 3.975630e+002
5.061320e+002, 3.976150e+002
5.066141e+002, 3.969603e+002
5.070962e+002, 3.964781e+002
5.075783e+002, 3.961639e+002
5.080604e+002, 3.960606e+002
5.085425e+002, 3.963360e+002
5.090247e+002, 3.969496e+002
5.095068e+002, 3.973308e+002
5.099889e+002, 3.974120e+002
5.104710e+002, 3.972690e+002
5.109531e+002, 3.968086e+002
5.114352e+002, 3.961650e+002
5.119174e+002, 3.958314e+002
5.123995e+002, 3.963110e+002
5.128816e+002, 3.970119e+002
5.133637e+002, 3.971516e+002
5.138458e+002, 3.968302e+002
5.143279e+002, 3.966681e+002
5.148101e+002, 3.971924e+002
5.152922e+002, 3.979160e+002
5.157743e+002, 3.984385e+002
5.162564e+002, 3.986436e+002
5.167385e+002, 3.988190e+002
5.172206e+002, 3.991837e+002
5.177028e+002, 3.995179e+002
5.181849e+002, 3.995703e+002
5.186670e+002, 3.986715e+002
5.191491e+002, 3.982292e+002
5.196312e+002, 3.987297e+002
5.201133e+002, 3.999013e+002
5.205955e+002, 4.006008e+002
5.210776e+002, 4.007084e+002
5.215597e+002, 4.005478e+002
5.220418e+002, 4.001124e+002
5.225239e+002, 3.993256e+002
5.230060e+002, 3.993036e+002
5.234882e+002, 4.002808e+002
5.239703e+002, 4.013893e+002
5.244524e+002, 4.015348e+002
5.249345e+002, 4.008085e+002
5.254166e+002, 4.005753e+002
5.258987e+002, 4.012132e+002
5.263809e+002, 4.021992e+002
5.268630e+002, 4.027933e+002
5.273451e+002, 4.030381e+002
5.278272e+002, 4.031146e+002
5.283093e+002, 4.028336e+002
5.287914e+002, 4.025878e+002
5.292736e+002, 4.028658e+002
5.297557e+002, 4.036436e+002
5.302378e+002, 4.044990e+002
5.307199e+002, 4.053690e+002
5.312020e+002, 4.061123e+002
5.316841e+002, 4.065609e+002
5.321663e+002, 4.064989e+002
5.326484e+002, 4.065695e+002
5.331305e+002, 4.071817e+002
5.336126e+002, 4.079563e+002
5.340947e+002, 4.083559e+002
5.345768e+002, 4.080170e+002
5.350590e+002, 4.076972e+002
5.355411e+002, 4.074743e+002
5.360232e+002, 4.073622e+002
5.365053e+002, 4.074371e+002
5.369874e+002, 4.077290e+002
5.374695e+002, 4.081563e+002
5.379517e+002, 4.086629e+002
5.384338e+002, 4.092503e+002
5.389159e+002, 4.101958e+002
5.393980e+002, 4.116615e+002
5.398801e+002, 4.128402e+002
5.403622e+002, 4.125027e+002
5.408444e+002, 4.109738e+002
5.413265e+002, 4.097550e+002
5.418086e+002, 4.091438e+002
5.422907e+002, 4.090134e+002
5.427728e+002, 4.093465e+002
5.432549e+002, 4.100388e+002
5.437371e+002, 4.107898e+002
5.442192e+002, 4.115547e+002
5.447013e+002, 4.122354e+002
5.451834e+002, 4.127412e+002
5.456655e+002, 4.130833e+002
5.461476e+002, 4.133833e+002
5.466298e+002, 4.136352e+002
5.471119e+002, 4.139091e+002
5.475940e+002, 4.142489e+002
5.480761e+002, 4.146552e+002
5.485582e+002, 4.151539e+002
5.490403e+002, 4.157963e+002
5.495225e+002, 4.165146e+002
5.500046e+002, 4.172583e+002
5.504867e+002, 4.182299e+002
5.509688e+002, 4.187784e+002
5.514509e+002, 4.186067e+002
5.519330e+002, 4.179798e+002
5.524152e+002, 4.178583e+002
5.528973e+002, 4.182701e+002
5.533794e+002, 4.189724e+002
5.538615e+002, 4.199897e+002
5.543436e+002, 4.212267e+002
5.548257e+002, 4.221524e+002
5.553079e+002, 4.227436e+002
5.557900e+002, 4.232464e+002
5.562721e+002, 4.239025e+002
5.567542e+002, 4.246171e+002
5.572363e+002, 4.251964e+002
5.577184e+002, 4.255640e+002
5.582006e+002, 4.259044e+002
5.586827e+002, 4.263121e+002
5.591648e+002, 4.268025e+002
5.596469e+002, 4.274089e+002
5.601290e+002, 4.282016e+002
5.606111e+002, 4.290560e+002
5.610933e+002, 4.299517e+002
5.615754e+002, 4.308795e+002
5.620575e+002, 4.317554e+002
5.625396e+002, 4.326144e+002
5.630217e+002, 4.333718e+002
5.635038e+002, 4.339225e+002
5.639860e+002, 4.341317e+002
5.644681e+002, 4.348316e+002
5.649502e+002, 4.362495e+002
5.654323e+002, 4.378012e+002
5.659144e+002, 4.388224e+002
5.663965e+002, 4.392533e+002
5.668787e+002, 4.399451e+002
5.673608e+002, 4.410370e+002
5.678429e+002, 4.423914e+002
5.683250e+002, 4.438275e+002
5.688071e+002, 4.453224e+002
5.692892e+002, 4.466784e+002
5.697714e+002, 4.476760e+002
5.702535e+002, 4.485632e+002
5.707356e+002, 4.497232e+002
5.712177e+002, 4.511101e+002
5.716998e+002, 4.523561e+002
5.721819e+002, 4.527255e+002
5.726641e+002, 4.532435e+002
5.731462e+002, 4.549097e+002
5.736283e+002, 4.581244e+002
5.741104e+002, 4.609640e+002
5.745925e+002, 4.626973e+002
5.750746e+002, 4.638874e+002
5.755568e+002, 4.650713e+002
5.760389e+002, 4.662697e+002
5.765210e+002, 4.674568e+002
5.770031e+002, 4.686110e+002
5.774852e+002, 4.697730e+002
5.779673e+002, 4.710499e+002
5.784495e+002, 4.725059e+002
5.789316e+002, 4.738920e+002
5.794137e+002, 4.749458e+002
5.798958e+002, 4.758993e+002
5.803779e+002, 4.782133e+002
5.808600e+002, 4.819536e+002
5.813422e+002, 4.852650e+002
5.818243e+002, 4.866213e+002
5.823064e+002, 4.866645e+002
5.827885e+002, 4.865596e+002
5.832706e+002, 4.863444e+002
5.837527e+002, 4.867336e+002
5.842349e+002, 4.888662e+002
5.847170e+002, 4.917274e+002
5.851991e+002, 4.940568e+002
5.856812e+002, 4.954772e+002
5.861633e+002, 4.964299e+002
5.866454e+002, 4.964718e+002
5.871276e+002, 4.962648e+002
5.876097e+002, 4.970087e+002
5.880918e+002, 5.005691e+002
5.885739e+002, 5.032415e+002
5.890560e+002, 5.038112e+002
5.895381e+002, 5.026481e+002
5.900203e+002, 5.025240e+002
5.905024e+002, 5.039517e+002
5.909845e+002, 5.054106e+002
5.914666e+002, 5.060755e+002
5.919487e+002, 5.059435e+002
5.924308e+002, 5.062006e+002
5.929130e+002, 5.069180e+002
5.933951e+002, 5.076995e+002
5.938772e+002, 5.082398e+002
5.943593e+002, 5.085349e+002
5.948414e+002, 5.084926e+002
5.953235e+002, 5.080255e+002
5.958057e+002, 5.074739e+002
5.962878e+002, 5.070885e+002
5.967699e+002, 5.068746e+002
5.972520e+002, 5.068460e+002
5.977341e+002, 5.073807e+002
5.982162e+002, 5.077304e+002
5.986984e+002, 5.073848e+002
5.991805e+002, 5.065099e+002
5.996626e+002, 5.057280e+002
6.001447e+002, 5.053742e+002
6.006268e+002, 5.049304e+002
6.011089e+002, 5.041704e+002
6.015911e+002, 5.030571e+002
6.020732e+002, 5.020263e+002
6.025553e+002, 5.010613e+002
6.030374e+002, 5.002217e+002
6.035195e+002, 4.996888e+002
6.040016e+002, 4.995293e+002
6.044838e+002, 4.988583e+002
6.049659e+002, 4.975983e+002
6.054480e+002, 4.959611e+002
6.059301e+002, 4.939728e+002
6.064122e+002, 4.917863e+002
6.068943e+002, 4.900070e+002
6.073765e+002, 4.889130e+002
6.078586e+002, 4.881003e+002
6.083407e+002, 4.873774e+002
6.088228e+002, 4.866036e+002
6.093049e+002, 4.854556e+002
6.097870e+002, 4.832816e+002
6.102692e+002, 4.811203e+002
6.107513e+002, 4.796359e+002
6.112334e+002, 4.787763e+002
6.117155e+002, 4.777477e+002
6.121976e+002, 4.762633e+002
6.126797e+002, 4.746738e+002
6.131619e+002, 4.730450e+002
6.136440e+002, 4.712149e+002
6.141261e+002, 4.701655e+002
6.146082e+002, 4.703741e+002
6.150903e+002, 4.705995e+002
6.155724e+002, 4.695283e+002
6.160546e+002, 4.671085e+002
6.165367e+002, 4.650857e+002
6.170188e+002, 4.637537e+002
6.175009e+002, 4.626800e+002
6.179830e+002, 4.610838e+002
6.184651e+002, 4.591810e+002
6.189473e+002, 4.577515e+002
6.194294e+002, 4.574297e+002
6.199115e+002, 4.572855e+002
6.203936e+002, 4.563097e+002
6.208757e+002, 4.547477e+002
6.213578e+002, 4.533261e+002
6.218400e+002, 4.525522e+002
6.223221e+002, 4.518344e+002
6.228042e+002, 4.507610e+002
6.232863e+002, 4.493039e+002
6.237684e+002, 4.483077e+002
6.242505e+002, 4.483286e+002
6.247327e+002, 4.483687e+002
6.252148e+002, 4.479331e+002
6.256969e+002, 4.469073e+002
6.261790e+002, 4.458409e+002
6.266611e+002, 4.446818e+002
6.271432e+002, 4.436189e+002
6.276254e+002, 4.429386e+002
6.281075e+002, 4.426108e+002
6.285896e+002, 4.421381e+002
6.290717e+002, 4.414119e+002
6.295538e+002, 4.405970e+002
6.300359e+002, 4.399403e+002
6.305181e+002, 4.393739e+002
6.310002e+002, 4.387097e+002
6.314823e+002, 4.376801e+002
6.319644e+002, 4.367124e+002
6.324465e+002, 4.362575e+002
6.329286e+002, 4.361315e+002
6.334108e+002, 4.357719e+002
6.338929e+002, 4.346601e+002
6.343750e+002, 4.335829e+002
6.348571e+002, 4.328204e+002
6.353392e+002, 4.323890e+002
6.358214e+002, 4.322423e+002
6.363035e+002, 4.327931e+002
6.367856e+002, 4.330549e+002
6.372677e+002, 4.322473e+002
6.377498e+002, 4.301213e+002
6.382319e+002, 4.290328e+002
6.387141e+002, 4.291664e+002
6.391962e+002, 4.296131e+002
6.396783e+002, 4.293565e+002
6.401604e+002, 4.285939e+002
6.406425e+002, 4.280655e+002
6.411246e+002, 4.278935e+002
6.416068e+002, 4.280193e+002
6.420889e+002, 4.288886e+002
6.425710e+002, 4.299251e+002
6.430531e+002, 4.301208e+002
6.435352e+002, 4.280909e+002
6.440173e+002, 4.261876e+002
6.444995e+002, 4.256783e+002
6.449816e+002, 4.260603e+002
6.454637e+002, 4.258570e+002
6.459458e+002, 4.235543e+002
6.464279e+002, 4.221157e+002
6.469100e+002, 4.226434e+002
6.473922e+002, 4.249272e+002
6.478743e+002, 4.260804e+002
6.483564e+002, 4.258139e+002
6.488385e+002, 4.252991e+002
6.493206e+002, 4.251530e+002
6.498027e+002, 4.253479e+002
6.502849e+002, 4.257670e+002
6.507670e+002, 4.264305e+002
6.512491e+002, 4.269017e+002
6.517312e+002, 4.266103e+002
6.522133e+002, 4.259136e+002
6.526954e+002, 4.253858e+002
6.531776e+002, 4.251604e+002
6.536597e+002, 4.249897e+002
6.541418e+002, 4.245490e+002
6.546239e+002, 4.241436e+002
6.551060e+002, 4.241251e+002
6.555881e+002, 4.252953e+002
6.560703e+002, 4.259834e+002
6.565524e+002, 4.256461e+002
6.570345e+002, 4.247621e+002
6.575166e+002, 4.241524e+002
6.579987e+002, 4.238901e+002
6.584808e+002, 4.237217e+002
6.589630e+002, 4.236455e+002
6.594451e+002, 4.235919e+002
6.599272e+002, 4.232781e+002
6.604093e+002, 4.227041e+002
6.608914e+002, 4.221385e+002
6.613735e+002, 4.217280e+002
6.618557e+002, 4.214258e+002
6.623378e+002, 4.210340e+002
6.628199e+002, 4.205971e+002
6.633020e+002, 4.204897e+002
6.637841e+002, 4.213799e+002
6.642662e+002, 4.224113e+002
6.647484e+002, 4.228964e+002
6.652305e+002, 4.226980e+002
6.657126e+002, 4.223133e+002
6.661947e+002, 4.217028e+002
6.666768e+002, 4.210565e+002
6.671589e+002, 4.205089e+002
6.676411e+002, 4.201061e+002
6.681232e+002, 4.196980e+002
6.686053e+002, 4.192918e+002
6.690874e+002, 4.188536e+002
6.695695e+002, 4.182444e+002
6.700516e+002, 4.174615e+002
6.705338e+002, 4.170311e+002
6.710159e+002, 4.171171e+002
6.714980e+002, 4.174485e+002
6.719801e+002, 4.177538e+002
6.724622e+002, 4.179861e+002
6.729443e+002, 4.180061e+002
6.734265e+002, 4.175560e+002
6.739086e+002, 4.170737e+002
6.743907e+002, 4.170210e+002
6.748728e+002, 4.172008e+002
6.753549e+002, 4.170073e+002
6.758370e+002, 4.156512e+002
6.763192e+002, 4.145082e+002
6.768013e+002, 4.142779e+002
6.772834e+002, 4.148527e+002
6.777655e+002, 4.148679e+002
6.782476e+002, 4.140301e+002
6.787297e+002, 4.132435e+002
6.792119e+002, 4.130278e+002
6.796940e+002, 4.133454e+002
6.801761e+002, 4.134614e+002
6.806582e+002, 4.133508e+002
6.811403e+002, 4.132785e+002
6.816224e+002, 4.135423e+002
6.821046e+002, 4.139807e+002
6.825867e+002, 4.143901e+002
6.830688e+002, 4.147934e+002
6.835509e+002, 4.147506e+002
6.840330e+002, 4.132988e+002
6.845151e+002, 4.115766e+002
6.849973e+002, 4.107802e+002
6.854794e+002, 4.119441e+002
6.859615e+002, 4.127134e+002
6.864436e+002, 4.124184e+002
6.869257e+002, 4.116893e+002
6.874078e+002, 4.112263e+002
6.878900e+002, 4.110584e+002
6.883721e+002, 4.111300e+002
6.888542e+002, 4.115699e+002
6.893363e+002, 4.120825e+002
6.898184e+002, 4.119052e+002
6.903005e+002, 4.111075e+002
6.907827e+002, 4.105469e+002
6.912648e+002, 4.107675e+002
6.917469e+002, 4.111799e+002
6.922290e+002, 4.107449e+002
6.927111e+002, 4.097387e+002
6.931932e+002, 4.090746e+002
6.936754e+002, 4.095051e+002
6.941575e+002, 4.101445e+002
6.946396e+002, 4.105914e+002
6.951217e+002, 4.108179e+002
6.956038e+002, 4.108002e+002
6.960859e+002, 4.104711e+002
6.965681e+002, 4.099420e+002
6.970502e+002, 4.091399e+002
6.975323e+002, 4.080363e+002
6.980144e+002, 4.074397e+002
6.984965e+002, 4.074463e+002
6.989786e+002, 4.076246e+002
6.994608e+002, 4.078044e+002
6.999429e+002, 4.079142e+002
7.004250e+002, 4.074557e+002
7.009071e+002, 4.063628e+002
7.013892e+002, 4.054386e+002
7.018713e+002, 4.056555e+002
7.023535e+002, 4.063370e+002
7.028356e+002, 4.065713e+002
7.033177e+002, 4.059703e+002
7.037998e+002, 4.055883e+002
7.042819e+002, 4.061026e+002
7.047640e+002, 4.069078e+002
7.052462e+002, 4.073485e+002
7.057283e+002, 4.071935e+002
7.062104e+002, 4.069953e+002
7.066925e+002, 4.067714e+002
7.071746e+002, 4.065138e+002
7.076567e+002, 4.061587e+002
7.081389e+002, 4.056906e+002
7.086210e+002, 4.053884e+002
7.091031e+002, 4.053005e+002
7.095852e+002, 4.054328e+002
7.100673e+002, 4.060468e+002
7.105494e+002, 4.069218e+002
7.110316e+002, 4.074038e+002
7.115137e+002, 4.068609e+002
7.119958e+002, 4.061227e+002
7.124779e+002, 4.057204e+002
7.129600e+002, 4.055637e+002
7.134421e+002, 4.053808e+002
7.139243e+002, 4.050439e+002
7.144064e+002, 4.047256e+002
7.148885e+002, 4.044536e+002
7.153706e+002, 4.042335e+002
7.158527e+002, 4.041418e+002
7.163348e+002, 4.041985e+002
7.168170e+002, 4.043237e+002
7.172991e+002, 4.045430e+002
7.177812e+002, 4.048040e+002
7.182633e+002, 4.048024e+002
7.187454e+002, 4.045408e+002
7.192275e+002, 4.042062e+002
7.197097e+002, 4.038546e+002
7.201918e+002, 4.035421e+002
7.206739e+002, 4.033355e+002
7.211560e+002, 4.032433e+002
7.216381e+002, 4.032182e+002
7.221202e+002, 4.033391e+002
7.226024e+002, 4.034508e+002
7.230845e+002, 4.034238e+002
7.235666e+002, 4.031585e+002
7.240487e+002, 4.030446e+002
7.245308e+002, 4.030855e+002
7.250129e+002, 4.032765e+002
7.254951e+002, 4.037609e+002
7.259772e+002, 4.045891e+002
7.264593e+002, 4.047271e+002
7.269414e+002, 4.039956e+002
7.274235e+002, 4.030518e+002
7.279056e+002, 4.025779e+002
7.283878e+002, 4.024659e+002
7.288699e+002, 4.025257e+002
7.293520e+002, 4.027886e+002
7.298341e+002, 4.029862e+002
7.303162e+002, 4.028008e+002
7.307983e+002, 4.024944e+002
7.312805e+002, 4.023953e+002
7.317626e+002, 4.029413e+002
7.322447e+002, 4.032197e+002
7.327268e+002, 4.029720e+002
7.332089e+002, 4.025157e+002
7.336910e+002, 4.023918e+002
7.341732e+002, 4.026828e+002
7.346553e+002, 4.029570e+002
7.351374e+002, 4.031330e+002
7.356195e+002, 4.032328e+002
7.361016e+002, 4.032143e+002
7.365837e+002, 4.031293e+002
7.370659e+002, 4.032193e+002
7.375480e+002, 4.038294e+002
7.380301e+002, 4.043945e+002
7.385122e+002, 4.042297e+002
7.389943e+002, 4.036037e+002
7.394764e+002, 4.032119e+002
7.399586e+002, 4.034209e+002
7.404407e+002, 4.037590e+002
7.409228e+002, 4.039933e+002
7.414049e+002, 4.042056e+002
7.418870e+002, 4.049582e+002
7.423691e+002, 4.067050e+002
7.428513e+002, 4.077012e+002
7.433334e+002, 4.069089e+002
7.438155e+002, 4.049178e+002
7.442976e+002, 4.043674e+002
7.447797e+002, 4.051844e+002
7.452618e+002, 4.060099e+002
7.457440e+002, 4.057914e+002
7.462261e+002, 4.052516e+002
7.467082e+002, 4.052858e+002
7.471903e+002, 4.058594e+002
7.476724e+002, 4.063929e+002
7.481545e+002, 4.067350e+002
7.486367e+002, 4.068751e+002
7.491188e+002, 4.067137e+002
7.496009e+002, 4.061953e+002
7.500830e+002, 4.059632e+002
7.505651e+002, 4.061536e+002
7.510472e+002, 4.063658e+002
7.515294e+002, 4.062956e+002
7.520115e+002, 4.059573e+002
7.524936e+002, 4.059531e+002
7.529757e+002, 4.062997e+002
7.534578e+002, 4.066852e+002
7.539399e+002, 4.067900e+002
7.544221e+002, 4.067830e+002
7.549042e+002, 4.069751e+002
7.553863e+002, 4.074307e+002
7.558684e+002, 4.077095e+002
7.563505e+002, 4.073496e+002
7.568326e+002, 4.068869e+002
7.573148e+002, 4.067848e+002
7.577969e+002, 4.073662e+002
7.582790e+002, 4.075241e+002
7.587611e+002, 4.069307e+002
7.592432e+002, 4.063577e+002
7.597253e+002, 4.065099e+002
7.602075e+002, 4.074010e+002
7.606896e+002, 4.085016e+002
7.611717e+002, 4.098804e+002
7.616538e+002, 4.109301e+002
7.621359e+002, 4.105960e+002
7.626180e+002, 4.095861e+002
7.631002e+002, 4.092819e+002
7.635823e+002, 4.102139e+002
7.640644e+002, 4.110169e+002
7.645465e+002, 4.108163e+002
7.650286e+002, 4.101742e+002
7.655107e+002, 4.096941e+002
7.659929e+002, 4.093231e+002
7.664750e+002, 4.093747e+002
7.669571e+002, 4.101143e+002
7.674392e+002, 4.110117e+002
7.679213e+002, 4.112778e+002
7.684034e+002, 4.108768e+002
7.688856e+002, 4.109248e+002
7.693677e+002, 4.117233e+002
7.698498e+002, 4.126069e+002
7.703319e+002, 4.126923e+002
7.708140e+002, 4.122193e+002
7.712961e+002, 4.116390e+002
7.717783e+002, 4.107978e+002
7.722604e+002, 4.104058e+002
7.727425e+002, 4.112678e+002
7.732246e+002, 4.126824e+002
7.737067e+002, 4.135884e+002
7.741888e+002, 4.135134e+002
7.746710e+002, 4.134420e+002
7.751531e+002, 4.134665e+002
7.756352e+002, 4.135323e+002
7.761173e+002, 4.134842e+002
7.765994e+002, 4.133162e+002
7.770815e+002, 4.134267e+002
7.775637e+002, 4.140602e+002
7.780458e+002, 4.147050e+002
7.785279e+002, 4.142882e+002
7.790100e+002, 4.133280e+002
7.794921e+002, 4.130108e+002
7.799742e+002, 4.146387e+002
7.804564e+002, 4.160540e+002
7.809385e+002, 4.160339e+002
7.814206e+002, 4.151602e+002
7.819027e+002, 4.146805e+002
7.823848e+002, 4.147653e+002
7.828669e+002, 4.151013e+002
7.833491e+002, 4.156813e+002
7.838312e+002, 4.164601e+002
7.843133e+002, 4.170869e+002
7.847954e+002, 4.175827e+002
7.852775e+002, 4.191878e+002
7.857596e+002, 4.229243e+002
7.862418e+002, 4.270684e+002
7.867239e+002, 4.294409e+002
7.872060e+002, 4.302944e+002
7.876881e+002, 4.303053e+002
7.881702e+002, 4.283223e+002
7.886523e+002, 4.270790e+002
7.891345e+002, 4.286293e+002
7.896166e+002, 4.317738e+002
7.900987e+002, 4.329454e+002
7.905808e+002, 4.313275e+002
7.910629e+002, 4.292281e+002
7.915450e+002, 4.271019e+002
7.920272e+002, 4.248810e+002
7.925093e+002, 4.221634e+002
7.929914e+002, 4.190262e+002
7.934735e+002, 4.168420e+002
7.939556e+002, 4.165719e+002
7.944377e+002, 4.170822e+002
7.949199e+002, 4.169210e+002
7.954020e+002, 4.164314e+002
7.958841e+002, 4.165236e+002
7.963662e+002, 4.187608e+002
7.968483e+002, 4.203378e+002
7.973304e+002, 4.188302e+002
7.978126e+002, 4.158648e+002
7.982947e+002, 4.172440e+002
7.987768e+002, 4.256294e+002
7.992589e+002, 4.306273e+002
7.997410e+002, 4.281227e+002
8.002231e+002, 4.213369e+002
8.007053e+002, 4.186076e+002
8.011874e+002, 4.193463e+002
8.016695e+002, 4.201887e+002
8.021516e+002, 4.191779e+002
8.026337e+002, 4.178560e+002
8.031158e+002, 4.176683e+002
8.035980e+002, 4.182794e+002
8.040801e+002, 4.187588e+002
8.045622e+002, 4.184301e+002
8.050443e+002, 4.184058e+002
8.055264e+002, 4.192472e+002
8.060085e+002, 4.205512e+002
8.064907e+002, 4.209032e+002
8.069728e+002, 4.200898e+002
8.074549e+002, 4.194075e+002
8.079370e+002, 4.192784e+002
8.084191e+002, 4.195391e+002
8.089012e+002, 4.200594e+002
8.093834e+002, 4.207177e+002
8.098655e+002, 4.210790e+002
8.103476e+002, 4.205514e+002
8.108297e+002, 4.200217e+002
8.113118e+002, 4.201841e+002
8.117939e+002, 4.207930e+002
8.122761e+002, 4.210956e+002
8.127582e+002, 4.205214e+002
8.132403e+002, 4.203154e+002
8.137224e+002, 4.209273e+002
8.142045e+002, 4.219771e+002
8.146866e+002, 4.223251e+002
8.151688e+002, 4.219604e+002
8.156509e+002, 4.213774e+002
8.161330e+002, 4.206371e+002
8.166151e+002, 4.199194e+002
8.170972e+002, 4.194064e+002
8.175793e+002, 4.191274e+002
8.180615e+002, 4.191479e+002
8.185436e+002, 4.196576e+002
8.190257e+002, 4.202965e+002
8.195078e+002, 4.210172e+002
8.199899e+002, 4.217520e+002
8.204720e+002, 4.223300e+002
8.209542e+002, 4.227203e+002
8.214363e+002, 4.230048e+002
8.219184e+002, 4.231913e+002
8.224005e+002, 4.232915e+002
8.228826e+002, 4.233593e+002
8.233647e+002, 4.233799e+002
8.238469e+002, 4.232484e+002
8.243290e+002, 4.228427e+002
8.248111e+002, 4.223946e+002
8.252932e+002, 4.220772e+002
8.257753e+002, 4.218755e+002
8.262574e+002, 4.217652e+002
8.267396e+002, 4.216641e+002
8.272217e+002, 4.217677e+002
8.277038e+002, 4.223195e+002
8.281859e+002, 4.229815e+002
8.286681e+002, 4.230089e+002
8.291502e+002, 4.222633e+002
8.296323e+002, 4.219426e+002
8.301144e+002, 4.225103e+002
8.305966e+002, 4.232043e+002
8.310787e+002, 4.225352e+002
8.315608e+002, 4.210926e+002
8.320429e+002, 4.203095e+002
8.325250e+002, 4.210806e+002
8.330071e+002, 4.219771e+002
8.334893e+002, 4.224287e+002
8.339714e+002, 4.225048e+002
8.344535e+002, 4.222700e+002
8.349356e+002, 4.212759e+002
8.354177e+002, 4.209490e+002
8.358998e+002, 4.216815e+002
8.363820e+002, 4.227401e+002
8.368641e+002, 4.229448e+002
8.373462e+002, 4.224021e+002
8.378283e+002, 4.220510e+002
8.383104e+002, 4.220880e+002
8.387925e+002, 4.223569e+002
8.392747e+002, 4.230456e+002
8.397568e+002, 4.237448e+002
8.402389e+002, 4.238372e+002
8.407210e+002, 4.225670e+002
8.412031e+002, 4.217835e+002
8.416852e+002, 4.223034e+002
8.421674e+002, 4.231480e+002
8.426495e+002, 4.233832e+002
8.431316e+002, 4.228856e+002
8.436137e+002, 4.225493e+002
8.440958e+002, 4.224784e+002
8.445779e+002, 4.224272e+002
8.450601e+002, 4.220768e+002
8.455422e+002, 4.215434e+002
8.460243e+002, 4.210056e+002
8.465064e+002, 4.204518e+002
8.469885e+002, 4.201453e+002
8.474706e+002, 4.204823e+002
8.479528e+002, 4.209611e+002
8.484349e+002, 4.211376e+002
8.489170e+002, 4.208811e+002
8.493991e+002, 4.205569e+002
8.498812e+002, 4.200471e+002
8.503633e+002, 4.196776e+002
8.508455e+002, 4.199041e+002
8.513276e+002, 4.205829e+002
8.518097e+002, 4.206505e+002
8.522918e+002, 4.200439e+002
8.527739e+002, 4.193972e+002
8.532560e+002, 4.192223e+002
8.537382e+002, 4.192524e+002
8.542203e+002, 4.191977e+002
8.547024e+002, 4.190065e+002
8.551845e+002, 4.190578e+002
8.556666e+002, 4.198004e+002
8.561487e+002, 4.204145e+002
8.566309e+002, 4.205197e+002
8.571130e+002, 4.201217e+002
8.575951e+002, 4.195028e+002
8.580772e+002, 4.186432e+002
8.585593e+002, 4.177617e+002
8.590414e+002, 4.168090e+002
8.595236e+002, 4.160074e+002
8.600057e+002, 4.157758e+002
8.604878e+002, 4.160672e+002
8.609699e+002, 4.165106e+002
8.614520e+002, 4.173717e+002
8.619341e+002, 4.179273e+002
8.624163e+002, 4.175892e+002
8.628984e+002, 4.165405e+002
8.633805e+002, 4.160331e+002
8.638626e+002, 4.161932e+002
8.643447e+002, 4.164559e+002
8.648268e+002, 4.165624e+002
8.653090e+002, 4.166498e+002
8.657911e+002, 4.170130e+002
8.662732e+002, 4.176483e+002
8.667553e+002, 4.185317e+002
8.672374e+002, 4.207963e+002
8.677195e+002, 4.221954e+002
8.682017e+002, 4.203334e+002
8.686838e+002, 4.165014e+002
8.691659e+002, 4.146163e+002
8.696480e+002, 4.166242e+002
8.701301e+002, 4.174291e+002
8.706122e+002, 4.156967e+002
8.710944e+002, 4.126868e+002
8.715765e+002, 4.110537e+002
8.720586e+002, 4.106637e+002
8.725407e+002, 4.104958e+002
8.730228e+002, 4.102919e+002
8.735049e+002, 4.101293e+002
8.739871e+002, 4.103705e+002
8.744692e+002, 4.106235e+002
8.749513e+002, 4.102909e+002
8.754334e+002, 4.085332e+002
8.759155e+002, 4.071133e+002
8.763976e+002, 4.061393e+002
8.768798e+002, 4.055813e+002
8.773619e+002, 4.055508e+002
8.778440e+002, 4.060948e+002
8.783261e+002, 4.062040e+002
8.788082e+002, 4.056923e+002
8.792903e+002, 4.050849e+002
8.797725e+002, 4.051578e+002
8.802546e+002, 4.054001e+002
8.807367e+002, 4.049594e+002
8.812188e+002, 4.034984e+002
8.817009e+002, 4.022410e+002
8.821830e+002, 4.016739e+002
8.826652e+002, 4.014190e+002
8.831473e+002, 4.012401e+002
8.836294e+002, 4.011550e+002
8.841115e+002, 4.010366e+002
8.845936e+002, 4.008929e+002
8.850757e+002, 4.006938e+002
8.855579e+002, 4.004055e+002
8.860400e+002, 4.000546e+002
8.865221e+002, 3.997043e+002
8.870042e+002, 3.993589e+002
8.874863e+002, 3.989471e+002
8.879684e+002, 3.981683e+002
8.884506e+002, 3.975586e+002
8.889327e+002, 3.974278e+002
8.894148e+002, 3.977664e+002
8.898969e+002, 3.985199e+002
8.903790e+002, 4.001153e+002
8.908611e+002, 4.007300e+002
8.913433e+002, 3.990428e+002
8.918254e+002, 3.962222e+002
8.923075e+002, 3.954558e+002
8.927896e+002, 3.963552e+002
8.932717e+002, 3.972491e+002
8.937538e+002, 3.974840e+002
8.942360e+002, 3.972625e+002
8.947181e+002, 3.963435e+002
8.952002e+002, 3.950675e+002
8.956823e+002, 3.943974e+002
8.961644e+002, 3.949356e+002
8.966465e+002, 3.948548e+002
8.971287e+002, 3.936154e+002
8.976108e+002, 3.919790e+002
8.980929e+002, 3.913934e+002
8.985750e+002, 3.916859e+002
8.990571e+002, 3.920151e+002
8.995392e+002, 3.921071e+002
9.000214e+002, 3.923704e+002
9.005035e+002, 3.938531e+002
9.009856e+002, 3.953617e+002
9.014677e+002, 3.954700e+002
9.019498e+002, 3.927389e+002
9.024319e+002, 3.906070e+002
9.029141e+002, 3.890929e+002
9.033962e+002, 3.881815e+002
9.038783e+002, 3.881212e+002
9.043604e+002, 3.887852e+002
9.048425e+002, 3.886946e+002
9.053246e+002, 3.877100e+002
9.058068e+002, 3.869799e+002
9.062889e+002, 3.880407e+002
9.067710e+002, 3.893832e+002
9.072531e+002, 3.894940e+002
9.077352e+002, 3.881362e+002
9.082173e+002, 3.869094e+002
9.086995e+002, 3.858666e+002
9.091816e+002, 3.852170e+002
9.096637e+002, 3.850255e+002
9.101458e+002, 3.853099e+002
9.106279e+002, 3.864642e+002
9.111100e+002, 3.884383e+002
9.115922e+002, 3.901788e+002
9.120743e+002, 3.916735e+002
9.125564e+002, 3.922152e+002
9.130385e+002, 3.902771e+002
9.135206e+002, 3.867319e+002
9.140027e+002, 3.841808e+002
9.144849e+002, 3.843595e+002
9.149670e+002, 3.843228e+002
9.154491e+002, 3.833757e+002
9.159312e+002, 3.820178e+002
9.164133e+002, 3.812967e+002
9.168954e+002, 3.812011e+002
9.173776e+002, 3.812873e+002
9.178597e+002, 3.814963e+002
9.183418e+002, 3.816984e+002
9.188239e+002, 3.817118e+002
9.193060e+002, 3.816401e+002
9.197881e+002, 3.816528e+002
9.202703e+002, 3.819639e+002
9.207524e+002, 3.819631e+002
9.212345e+002, 3.811455e+002
9.217166e+002, 3.804281e+002
9.221987e+002, 3.808156e+002
9.226808e+002, 3.823826e+002
9.231630e+002, 3.827666e+002
9.236451e+002, 3.817964e+002
9.241272e+002, 3.807704e+002
9.246093e+002, 3.809637e+002
9.250914e+002, 3.816128e+002
9.255735e+002, 3.819042e+002
9.260557e+002, 3.817671e+002
9.265378e+002, 3.814399e+002
9.270199e+002, 3.806871e+002
9.275020e+002, 3.800865e+002
9.279841e+002, 3.798834e+002
9.284662e+002, 3.800056e+002
9.289484e+002, 3.800107e+002
9.294305e+002, 3.799010e+002
9.299126e+002, 3.797951e+002
9.303947e+002, 3.798198e+002
9.308768e+002, 3.798055e+002
9.313589e+002, 3.795029e+002
9.318411e+002, 3.790146e+002
9.323232e+002, 3.785703e+002
9.328053e+002, 3.782264e+002
9.332874e+002, 3.779629e+002
9.337695e+002, 3.777506e+002
9.342516e+002, 3.776403e+002
9.347338e+002, 3.778264e+002
9.352159e+002, 3.783079e+002
9.356980e+002, 3.783366e+002
9.361801e+002, 3.777277e+002
9.366622e+002, 3.770098e+002
9.371443e+002, 3.766405e+002
9.376265e+002, 3.765108e+002
9.381086e+002, 3.765270e+002
9.385907e+002, 3.767127e+002
9.390728e+002, 3.768444e+002
9.395549e+002, 3.767313e+002
9.400370e+002, 3.767390e+002
9.405192e+002, 3.771959e+002
9.410013e+002, 3.780542e+002
9.414834e+002, 3.783271e+002
9.419655e+002, 3.780243e+002
9.424476e+002, 3.776337e+002
9.429297e+002, 3.775473e+002
9.434119e+002, 3.774775e+002
9.438940e+002, 3.770958e+002
9.443761e+002, 3.764670e+002
9.448582e+002, 3.759120e+002
9.453403e+002, 3.753633e+002
9.458224e+002, 3.751113e+002
9.463046e+002, 3.753130e+002
9.467867e+002, 3.757799e+002
9.472688e+002, 3.762054e+002
9.477509e+002, 3.765482e+002
9.482330e+002, 3.763275e+002
9.487151e+002, 3.751707e+002
9.491973e+002, 3.740722e+002
9.496794e+002, 3.740883e+002
9.501615e+002, 3.746206e+002
9.506436e+002, 3.749526e+002
9.511257e+002, 3.749081e+002
9.516078e+002, 3.746671e+002
9.520900e+002, 3.739948e+002
9.525721e+002, 3.735328e+002
9.530542e+002, 3.741044e+002
9.535363e+002, 3.754539e+002
9.540184e+002, 3.758974e+002
9.545005e+002, 3.753935e+002
9.549827e+002, 3.747614e+002
9.554648e+002, 3.743980e+002
9.559469e+002, 3.742619e+002
9.564290e+002, 3.743821e+002
9.569111e+002, 3.747380e+002
9.573932e+002, 3.750819e+002
9.578754e+002, 3.754318e+002
9.583575e+002, 3.756742e+002
9.588396e+002, 3.757165e+002
9.593217e+002, 3.756778e+002
9.598038e+002, 3.759404e+002
9.602859e+002, 3.763849e+002
9.607681e+002, 3.765864e+002
9.612502e+002, 3.763080e+002
9.617323e+002, 3.758777e+002
9.622144e+002, 3.753304e+002
9.626965e+002, 3.748153e+002
9.631786e+002, 3.745431e+002
9.636608e+002, 3.746296e+002
9.641429e+002, 3.746594e+002
9.646250e+002, 3.746156e+002
9.651071e+002, 3.745499e+002
9.655892e+002, 3.744966e+002
9.660714e+002, 3.744707e+002
9.665535e+002, 3.745753e+002
9.670356e+002, 3.748102e+002
9.675177e+002, 3.748257e+002
9.679998e+002, 3.740905e+002
9.684819e+002, 3.734295e+002
9.689641e+002, 3.733929e+002
9.694462e+002, 3.738632e+002
9.699283e+002, 3.739344e+002
9.704104e+002, 3.735361e+002
9.708925e+002, 3.732546e+002
9.713746e+002, 3.733981e+002
9.718568e+002, 3.736593e+002
9.723389e+002, 3.734077e+002
9.728210e+002, 3.729301e+002
9.733031e+002, 3.728411e+002
9.737852e+002, 3.738673e+002
9.742673e+002, 3.746024e+002
9.747495e+002, 3.747607e+002
9.752316e+002, 3.745409e+002
9.757137e+002, 3.739533e+002
9.761958e+002, 3.729547e+002
9.766779e+002, 3.728208e+002
9.771600e+002, 3.737184e+002
9.776422e+002, 3.747077e+002
9.781243e+002, 3.751241e+002
9.786064e+002, 3.751152e+002
9.790885e+002, 3.746922e+002
9.795706e+002, 3.738626e+002
9.800527e+002, 3.733023e+002
9.805349e+002, 3.731157e+002
9.810170e+002, 3.732419e+002
9.814991e+002, 3.738182e+002
9.819812e+002, 3.746141e+002
9.824633e+002, 3.747193e+002
9.829454e+002, 3.742468e+002
9.834276e+002, 3.739240e+002
9.839097e+002, 3.743576e+002
9.843918e+002, 3.745889e+002
9.848739e+002, 3.735175e+002
9.853560e+002, 3.719439e+002
9.858381e+002, 3.711317e+002
9.863203e+002, 3.713138e+002
9.868024e+002, 3.720132e+002
9.872845e+002, 3.734671e+002
9.877666e+002, 3.748015e+002
9.882487e+002, 3.748358e+002
9.887308e+002, 3.740890e+002
9.892130e+002, 3.740459e+002
9.896951e+002, 3.747995e+002
9.901772e+002, 3.752653e+002
9.906593e+002, 3.743154e+002
9.911414e+002, 3.734305e+002
9.916235e+002, 3.735612e+002
9.921057e+002, 3.744972e+002
9.925878e+002, 3.750286e+002
9.930699e+002, 3.750874e+002
9.935520e+002, 3.752516e+002
9.940341e+002, 3.758506e+002
9.945162e+002, 3.764481e+002
9.949984e+002, 3.763066e+002
9.954805e+002, 3.757238e+002
9.959626e+002, 3.752682e+002
9.964447e+002, 3.752346e+002
9.969268e+002, 3.751378e+002
9.974089e+002, 3.748474e+002
9.978911e+002, 3.745479e+002
9.983732e+002, 3.744322e+002
9.988553e+002, 3.744983e+002
9.993374e+002, 3.745007e+002
9.998195e+002, 3.744322e+002
1.000302e+003, 3.743201e+002
1.000784e+003, 3.740711e+002
1.001266e+003, 3.738763e+002
1.001748e+003, 3.739560e+002
1.002230e+003, 3.742773e+002
1.002712e+003, 3.744330e+002
1.003194e+003, 3.742610e+002
1.003676e+003, 3.742109e+002
1.004159e+003, 3.744277e+002
1.004641e+003, 3.747817e+002
1.005123e+003, 3.750375e+002
1.005605e+003, 3.752137e+002
1.006087e+003, 3.753814e+002
1.006569e+003, 3.755851e+002
1.007051e+003, 3.757320e+002
1.007533e+003, 3.756838e+002
1.008016e+003, 3.756391e+002
1.008498e+003, 3.758415e+002
1.008980e+003, 3.764246e+002
1.009462e+003, 3.764366e+002
1.009944e+003, 3.758062e+002
1.010426e+003, 3.751546e+002
1.010908e+003, 3.749355e+002
1.011390e+003, 3.749763e+002
1.011872e+003, 3.750204e+002
1.012355e+003, 3.751046e+002
1.012837e+003, 3.754223e+002
1.013319e+003, 3.763517e+002
1.013801e+003, 3.771131e+002
1.014283e+003, 3.775865e+002
1.014765e+003, 3.777650e+002
1.015247e+003, 3.776046e+002
1.015729e+003, 3.771260e+002
1.016211e+003, 3.763997e+002
1.016694e+003, 3.753329e+002
1.017176e+003, 3.746089e+002
1.017658e+003, 3.750180e+002
1.018140e+003, 3.758760e+002
1.018622e+003, 3.766133e+002
1.019104e+003, 3.771834e+002
1.019586e+003, 3.776442e+002
1.020068e+003, 3.780611e+002
1.020551e+003, 3.781376e+002
1.021033e+003, 3.772005e+002
1.021515e+003, 3.761486e+002
1.021997e+003, 3.777130e+002
1.022479e+003, 3.809172e+002
1.022961e+003, 3.828578e+002
1.023443e+003, 3.812258e+002
1.023925e+003, 3.794679e+002
1.024407e+003, 3.783340e+002
1.024890e+003, 3.777264e+002
1.025372e+003, 3.776756e+002
1.025854e+003, 3.781995e+002
1.026336e+003, 3.785284e+002
1.026818e+003, 3.785710e+002
1.027300e+003, 3.786124e+002
1.027782e+003, 3.792213e+002
1.028264e+003, 3.797301e+002
1.028746e+003, 3.792154e+002
1.029229e+003, 3.776270e+002
1.029711e+003, 3.769245e+002
1.030193e+003, 3.775795e+002
1.030675e+003, 3.783371e+002
1.031157e+003, 3.788820e+002
1.031639e+003, 3.791631e+002
1.032121e+003, 3.788666e+002
1.032603e+003, 3.782066e+002
1.033086e+003, 3.778921e+002
1.033568e+003, 3.783654e+002
1.034050e+003, 3.787447e+002
1.034532e+003, 3.784648e+002
1.035014e+003, 3.780434e+002
1.035496e+003, 3.779375e+002
1.035978e+003, 3.781901e+002
1.036460e+003, 3.785366e+002
1.036943e+003, 3.789874e+002
1.037425e+003, 3.793138e+002
1.037907e+003, 3.789857e+002
1.038389e+003, 3.787105e+002
1.038871e+003, 3.794269e+002
1.039353e+003, 3.809115e+002
1.039835e+003, 3.821774e+002
1.040317e+003, 3.828287e+002
1.040799e+003, 3.836207e+002
1.041281e+003, 3.848211e+002
1.041764e+003, 3.859645e+002
1.042246e+003, 3.859483e+002
1.042728e+003, 3.852570e+002
1.043210e+003, 3.857680e+002
1.043692e+003, 3.880366e+002
1.044174e+003, 3.895761e+002
1.044656e+003, 3.878538e+002
1.045138e+003, 3.859810e+002
1.045621e+003, 3.865337e+002
1.046103e+003, 3.891966e+002
1.046585e+003, 3.887119e+002
1.047067e+003, 3.848284e+002
1.047549e+003, 3.813076e+002
1.048031e+003, 3.799604e+002
1.048513e+003, 3.796886e+002
1.048995e+003, 3.794588e+002
1.049478e+003, 3.793534e+002
1.049960e+003, 3.795140e+002
1.050442e+003, 3.807422e+002
1.050924e+003, 3.809399e+002
1.051406e+003, 3.796055e+002
1.051888e+003, 3.781215e+002
1.052370e+003, 3.778286e+002
1.052852e+003, 3.784185e+002
1.053334e+003, 3.789742e+002
1.053817e+003, 3.794302e+002
1.054299e+003, 3.795978e+002
1.054781e+003, 3.791414e+002
1.055263e+003, 3.786168e+002
1.055745e+003, 3.782191e+002
1.056227e+003, 3.779528e+002
1.056709e+003, 3.778222e+002
1.057191e+003, 3.778234e+002
1.057673e+003, 3.780923e+002
1.058156e+003, 3.787542e+002
1.058638e+003, 3.792628e+002
1.059120e+003, 3.787523e+002
1.059602e+003, 3.779656e+002
1.060084e+003, 3.777599e+002
1.060566e+003, 3.783782e+002
1.061048e+003, 3.788785e+002
1.061530e+003, 3.793024e+002
1.062013e+003, 3.794019e+002
1.062495e+003, 3.788684e+002
1.062977e+003, 3.780775e+002
1.063459e+003, 3.780993e+002
1.063941e+003, 3.786488e+002
1.064423e+003, 3.789065e+002
1.064905e+003, 3.784866e+002
1.065387e+003, 3.778094e+002
1.065870e+003, 3.765180e+002
1.066352e+003, 3.754161e+002
1.066834e+003, 3.754414e+002
1.067316e+003, 3.766072e+002
1.067798e+003, 3.769581e+002
1.068280e+003, 3.764284e+002
1.068762e+003, 3.760014e+002
1.069244e+003, 3.766395e+002
1.069726e+003, 3.774607e+002
1.070208e+003, 3.778263e+002
1.070691e+003, 3.777519e+002
1.071173e+003, 3.772788e+002
1.071655e+003, 3.757875e+002
1.072137e+003, 3.762519e+002
1.072619e+003, 3.798870e+002
1.073101e+003, 3.836973e+002
1.073583e+003, 3.831060e+002
1.074065e+003, 3.801797e+002
1.074548e+003, 3.783004e+002
1.075030e+003, 3.781818e+002
1.075512e+003, 3.777251e+002
1.075994e+003, 3.757067e+002
1.076476e+003, 3.741657e+002
1.076958e+003, 3.741195e+002
1.077440e+003, 3.751102e+002
1.077922e+003, 3.754448e+002
1.078405e+003, 3.752486e+002
1.078887e+003, 3.751419e+002
1.079369e+003, 3.755130e+002
1.079851e+003, 3.757747e+002
1.080333e+003, 3.753383e+002
1.080815e+003, 3.747931e+002
1.081297e+003, 3.748247e+002
1.081779e+003, 3.755858e+002
1.082261e+003, 3.760204e+002
1.082744e+003, 3.761074e+002
1.083226e+003, 3.761772e+002
1.083708e+003, 3.766194e+002
1.084190e+003, 3.770473e+002
1.084672e+003, 3.769513e+002
1.085154e+003, 3.764845e+002
1.085636e+003, 3.762096e+002
1.086118e+003, 3.764581e+002
1.086601e+003, 3.763294e+002
1.087083e+003, 3.756006e+002
1.087565e+003, 3.747477e+002
1.088047e+003, 3.741807e+002
1.088529e+003, 3.739989e+002
1.089011e+003, 3.746586e+002
1.089493e+003, 3.761956e+002
1.089975e+003, 3.772596e+002
1.090458e+003, 3.770891e+002
1.090940e+003, 3.764966e+002
1.091422e+003, 3.755765e+002
1.091904e+003, 3.745793e+002
1.092386e+003, 3.744411e+002
1.092868e+003, 3.750215e+002
1.093350e+003, 3.754600e+002
1.093832e+003, 3.755021e+002
1.094314e+003, 3.753678e+002
1.094797e+003, 3.751016e+002
1.095279e+003, 3.748074e+002
1.095761e+003, 3.745507e+002
1.096243e+003, 3.743270e+002
1.096725e+003, 3.744379e+002
1.097207e+003, 3.749415e+002
1.097689e+003, 3.751439e+002
1.098171e+003, 3.743848e+002
1.098653e+003, 3.734084e+002
1.099136e+003, 3.729692e+002
1.099618e+003, 3.729646e+002
1.100100e+003, 3.732027e+002
1.100582e+003, 3.739413e+002
1.101064e+003, 3.743268e+002
1.101546e+003, 3.742300e+002
1.102028e+003, 3.740396e+002
1.102510e+003, 3.741372e+002
1.102993e+003, 3.743932e+002
1.103475e+003, 3.745604e+002
1.103957e+003, 3.746269e+002
1.104439e+003, 3.745962e+002
1.104921e+003, 3.743882e+002
1.105403e+003, 3.741881e+002
1.105885e+003, 3.740465e+002
1.106367e+003, 3.739415e+002
1.106849e+003, 3.738888e+002
1.107332e+003, 3.738554e+002
1.107814e+003, 3.734959e+002
1.108296e+003, 3.726999e+002
1.108778e+003, 3.724075e+002
1.109260e+003, 3.739295e+002
1.109742e+003, 3.754896e+002
1.110224e+003, 3.758627e+002
1.110706e+003, 3.752720e+002
1.111188e+003, 3.749525e+002
1.111671e+003, 3.749073e+002
1.112153e+003, 3.745861e+002
1.112635e+003, 3.735764e+002
1.113117e+003, 3.728212e+002
1.113599e+003, 3.736357e+002
1.114081e+003, 3.750193e+002
1.114563e+003, 3.757564e+002
1.115045e+003, 3.755732e+002
1.115528e+003, 3.755549e+002
1.116010e+003, 3.757652e+002
1.116492e+003, 3.758731e+002
1.116974e+003, 3.757006e+002
1.117456e+003, 3.753114e+002
1.117938e+003, 3.745563e+002
1.118420e+003, 3.737052e+002
1.118902e+003, 3.733310e+002
1.119385e+003, 3.743400e+002
1.119867e+003, 3.746673e+002
1.120349e+003, 3.739441e+002
1.120831e+003, 3.730795e+002
1.121313e+003, 3.730393e+002
1.121795e+003, 3.734936e+002
1.122277e+003, 3.733217e+002
1.122759e+003, 3.726368e+002
1.123241e+003, 3.723054e+002
1.123724e+003, 3.731185e+002
1.124206e+003, 3.738614e+002
1.124688e+003, 3.742594e+002
1.125170e+003, 3.743360e+002
1.125652e+003, 3.738838e+002
1.126134e+003, 3.730492e+002
1.126616e+003, 3.730604e+002
1.127098e+003, 3.740865e+002
1.127580e+003, 3.749968e+002
1.128063e+003, 3.748906e+002
1.128545e+003, 3.745619e+002
1.129027e+003, 3.746490e+002
1.129509e+003, 3.749209e+002
1.129991e+003, 3.742895e+002
1.130473e+003, 3.727246e+002
1.130955e+003, 3.718700e+002
1.131437e+003, 3.722531e+002
1.131920e+003, 3.730255e+002
1.132402e+003, 3.736245e+002
1.132884e+003, 3.740562e+002
1.133366e+003, 3.743285e+002
1.133848e+003, 3.744414e+002
1.134330e+003, 3.742243e+002
1.134812e+003, 3.734879e+002
1.135294e+003, 3.735522e+002
1.135776e+003, 3.755198e+002
1.136259e+003, 3.777115e+002
1.136741e+003, 3.777182e+002
1.137223e+003, 3.764774e+002
1.137705e+003, 3.754341e+002
1.138187e+003, 3.749564e+002
1.138669e+003, 3.745769e+002
1.139151e+003, 3.742386e+002
1.139633e+003, 3.741271e+002
1.140115e+003, 3.745276e+002
1.140598e+003, 3.751568e+002
1.141080e+003, 3.754270e+002
1.141562e+003, 3.754248e+002
1.142044e+003, 3.753983e+002
1.142526e+003, 3.755600e+002
1.143008e+003, 3.754951e+002
1.143490e+003, 3.750244e+002
1.143972e+003, 3.745591e+002
1.144455e+003, 3.746323e+002
1.144937e+003, 3.750402e+002
1.145419e+003, 3.749792e+002
1.145901e+003, 3.745099e+002
1.146383e+003, 3.742920e+002
1.146865e+003, 3.751245e+002
1.147347e+003, 3.756656e+002
1.147829e+003, 3.754870e+002
1.148312e+003, 3.748626e+002
1.148794e+003, 3.738715e+002
1.149276e+003, 3.727025e+002
1.149758e+003, 3.730499e+002
1.150240e+003, 3.751332e+002
1.150722e+003, 3.767630e+002
1.151204e+003, 3.758698e+002
1.151686e+003, 3.748008e+002
1.152168e+003, 3.749660e+002
1.152651e+003, 3.759245e+002
1.153133e+003, 3.764656e+002
1.153615e+003, 3.765934e+002
1.154097e+003, 3.763393e+002
1.154579e+003, 3.756121e+002
1.155061e+003, 3.750341e+002
1.155543e+003, 3.751819e+002
1.156025e+003, 3.756377e+002
1.156507e+003, 3.761856e+002
1.156990e+003, 3.767719e+002
1.157472e+003, 3.768696e+002
1.157954e+003, 3.764389e+002
1.158436e+003, 3.761808e+002
1.158918e+003, 3.763983e+002
1.159400e+003, 3.767328e+002
1.159882e+003, 3.767553e+002
1.160364e+003, 3.767311e+002
1.160847e+003, 3.770380e+002
1.161329e+003, 3.777998e+002
1.161811e+003, 3.782216e+002
1.162293e+003, 3.782721e+002
1.162775e+003, 3.781513e+002
1.163257e+003, 3.779401e+002
1.163739e+003, 3.776316e+002
1.164221e+003, 3.770037e+002
1.164703e+003, 3.763347e+002
1.165186e+003, 3.761270e+002
1.165668e+003, 3.767916e+002
1.166150e+003, 3.771710e+002
1.166632e+003, 3.772359e+002
1.167114e+003, 3.771047e+002
1.167596e+003, 3.766432e+002
1.168078e+003, 3.761737e+002
1.168560e+003, 3.764206e+002
1.169042e+003, 3.770923e+002
1.169525e+003, 3.774043e+002
1.170007e+003, 3.768126e+002
1.170489e+003, 3.764015e+002
1.170971e+003, 3.762270e+002
1.171453e+003, 3.762352e+002
1.171935e+003, 3.765027e+002
1.172417e+003, 3.768608e+002
1.172899e+003, 3.768033e+002
1.173382e+003, 3.764695e+002
1.173864e+003, 3.766056e+002
1.174346e+003, 3.783631e+002
1.174828e+003, 3.792431e+002
1.175310e+003, 3.786681e+002
1.175792e+003, 3.775543e+002
1.176274e+003, 3.769546e+002
1.176756e+003, 3.767583e+002
1.177239e+003, 3.767293e+002
1.177721e+003, 3.768340e+002
1.178203e+003, 3.769616e+002
1.178685e+003, 3.770373e+002
1.179167e+003, 3.771760e+002
1.179649e+003, 3.774380e+002
1.180131e+003, 3.777299e+002
1.180613e+003, 3.777723e+002
1.181095e+003, 3.777188e+002
1.181578e+003, 3.780969e+002
1.182060e+003, 3.790102e+002
1.182542e+003, 3.798404e+002
1.183024e+003, 3.806960e+002
1.183506e+003, 3.808849e+002
1.183988e+003, 3.798874e+002
1.184470e+003, 3.783314e+002
1.184952e+003, 3.777925e+002
1.185434e+003, 3.780816e+002
1.185917e+003, 3.786173e+002
1.186399e+003, 3.793503e+002
1.186881e+003, 3.798461e+002
1.187363e+003, 3.797646e+002
1.187845e+003, 3.795023e+002
1.188327e+003, 3.791284e+002
1.188809e+003, 3.787779e+002
1.189291e+003, 3.790396e+002
1.189774e+003, 3.798121e+002
1.190256e+003, 3.807642e+002
1.190738e+003, 3.821736e+002
1.191220e+003, 3.826191e+002
1.191702e+003, 3.799679e+002
1.192184e+003, 3.775412e+002
1.192666e+003, 3.776736e+002
1.193148e+003, 3.798860e+002
1.193630e+003, 3.810654e+002
1.194113e+003, 3.813297e+002
1.194595e+003, 3.813542e+002
1.195077e+003, 3.813711e+002
1.195559e+003, 3.812941e+002
1.196041e+003, 3.811523e+002
1.196523e+003, 3.808247e+002
1.197005e+003, 3.800613e+002
1.197487e+003, 3.789293e+002
1.197969e+003, 3.786552e+002
1.198452e+003, 3.791611e+002
1.198934e+003, 3.798326e+002
1.199416e+003, 3.804087e+002
1.199898e+003, 3.809962e+002
1.200380e+003, 3.818943e+002
1.200862e+003, 3.826334e+002
1.201344e+003, 3.826551e+002
1.201826e+003, 3.819618e+002
1.202309e+003, 3.815853e+002
1.202791e+003, 3.814997e+002
1.203273e+003, 3.813548e+002
1.203755e+003, 3.807799e+002
1.204237e+003, 3.802766e+002
1.204719e+003, 3.800691e+002
1.205201e+003, 3.801032e+002
1.205683e+003, 3.804721e+002
1.206166e+003, 3.811548e+002
1.206648e+003, 3.810126e+002
1.207130e+003, 3.800703e+002
1.207612e+003, 3.794980e+002
1.208094e+003, 3.804642e+002
1.208576e+003, 3.815533e+002
1.209058e+003, 3.818881e+002
1.209540e+003, 3.819420e+002
1.210022e+003, 3.825777e+002
1.210505e+003, 3.837495e+002
1.210987e+003, 3.836641e+002
1.211469e+003, 3.822275e+002
1.211951e+003, 3.808940e+002
1.212433e+003, 3.804547e+002
1.212915e+003, 3.805830e+002
1.213397e+003, 3.814756e+002
1.213879e+003, 3.826281e+002
1.214361e+003, 3.829978e+002
1.214844e+003, 3.826812e+002
1.215326e+003, 3.836439e+002
1.215808e+003, 3.861199e+002
1.216290e+003, 3.876451e+002
1.216772e+003, 3.853961e+002
1.217254e+003, 3.829360e+002
1.217736e+003, 3.821711e+002
1.218218e+003, 3.825465e+002
1.218701e+003, 3.832554e+002
1.219183e+003, 3.842013e+002
1.219665e+003, 3.841001e+002
1.220147e+003, 3.826942e+002
1.220629e+003, 3.815820e+002
1.221111e+003, 3.822602e+002
1.221593e+003, 3.830139e+002
1.222075e+003, 3.826950e+002
1.222557e+003, 3.818928e+002
1.223040e+003, 3.823893e+002
1.223522e+003, 3.839517e+002
1.224004e+003, 3.846145e+002
1.224486e+003, 3.839449e+002
1.224968e+003, 3.833110e+002
1.225450e+003, 3.838970e+002
1.225932e+003, 3.843516e+002
1.226414e+003, 3.837941e+002
1.226896e+003, 3.827102e+002
1.227379e+003, 3.827098e+002
1.227861e+003, 3.835731e+002
1.228343e+003, 3.841260e+002
1.228825e+003, 3.841074e+002
1.229307e+003, 3.837858e+002
1.229789e+003, 3.828071e+002
1.230271e+003, 3.821323e+002
1.230753e+003, 3.823549e+002
1.231236e+003, 3.831460e+002
1.231718e+003, 3.833492e+002
1.232200e+003, 3.831339e+002
1.232682e+003, 3.832240e+002
1.233164e+003, 3.838712e+002
1.233646e+003, 3.844847e+002
1.234128e+003, 3.849284e+002
1.234610e+003, 3.850674e+002
1.235093e+003, 3.847369e+002
1.235575e+003, 3.841307e+002
1.236057e+003, 3.838377e+002
1.236539e+003, 3.838110e+002
1.237021e+003, 3.839449e+002
1.237503e+003, 3.843051e+002
1.237985e+003, 3.844615e+002
1.238467e+003, 3.839786e+002
1.238949e+003, 3.835998e+002
1.239432e+003, 3.837108e+002
1.239914e+003, 3.841140e+002
1.240396e+003, 3.841984e+002
1.240878e+003, 3.840730e+002
1.241360e+003, 3.840347e+002
1.241842e+003, 3.841603e+002
1.242324e+003, 3.844194e+002
1.242806e+003, 3.850703e+002
1.243288e+003, 3.853813e+002
1.243771e+003, 3.847323e+002
1.244253e+003, 3.837138e+002
1.244735e+003, 3.840669e+002
1.245217e+003, 3.852263e+002
1.245699e+003, 3.857974e+002
1.246181e+003, 3.850599e+002
1.246663e+003, 3.847049e+002
1.247145e+003, 3.850688e+002
1.247628e+003, 3.854895e+002
1.248110e+003, 3.855888e+002
1.248592e+003, 3.855316e+002
1.249074e+003, 3.857082e+002
1.249556e+003, 3.859771e+002
1.250038e+003, 3.860398e+002
1.250520e+003, 3.856317e+002
1.251002e+003, 3.855342e+002
1.251484e+003, 3.858626e+002
1.251967e+003, 3.862198e+002
1.252449e+003, 3.863057e+002
1.252931e+003, 3.863575e+002
1.253413e+003, 3.871021e+002
1.253895e+003, 3.879811e+002
1.254377e+003, 3.878792e+002
1.254859e+003, 3.858558e+002
1.255341e+003, 3.850211e+002
1.255823e+003, 3.856115e+002
1.256306e+003, 3.862506e+002
1.256788e+003, 3.859464e+002
1.257270e+003, 3.854796e+002
1.257752e+003, 3.859485e+002
1.258234e+003, 3.868458e+002
1.258716e+003, 3.873225e+002
1.259198e+003, 3.871767e+002
1.259680e+003, 3.873117e+002
1.260163e+003, 3.877884e+002
1.260645e+003, 3.879950e+002
1.261127e+003, 3.873138e+002
1.261609e+003, 3.865578e+002
1.262091e+003, 3.865135e+002
1.262573e+003, 3.868304e+002
1.263055e+003, 3.869860e+002
1.263537e+003, 3.868969e+002
1.264020e+003, 3.872860e+002
1.264502e+003, 3.881415e+002
1.264984e+003, 3.886400e+002
1.265466e+003, 3.879107e+002
1.265948e+003, 3.871491e+002
1.266430e+003, 3.872173e+002
1.266912e+003, 3.876201e+002
1.267394e+003, 3.877766e+002
1.267876e+003, 3.876775e+002
1.268359e+003, 3.878067e+002
1.268841e+003, 3.881100e+002
1.269323e+003, 3.880944e+002
1.269805e+003, 3.871986e+002
1.270287e+003, 3.863276e+002
1.270769e+003, 3.855735e+002
1.271251e+003, 3.853215e+002
1.271733e+003, 3.862096e+002
1.272215e+003, 3.880058e+002
1.272698e+003, 3.886930e+002
1.273180e+003, 3.884298e+002
1.273662e+003, 3.879080e+002
1.274144e+003, 3.870954e+002
1.274626e+003, 3.865826e+002
1.275108e+003, 3.865583e+002
1.275590e+003, 3.867235e+002
1.276072e+003, 3.868495e+002
1.276555e+003, 3.869784e+002
1.277037e+003, 3.873536e+002
1.277519e+003, 3.878519e+002
1.278001e+003, 3.881168e+002
1.278483e+003, 3.876182e+002
1.278965e+003, 3.875309e+002
1.279447e+003, 3.880578e+002
1.279929e+003, 3.886443e+002
1.280411e+003, 3.888995e+002
1.280894e+003, 3.889033e+002
1.281376e+003, 3.887198e+002
1.281858e+003, 3.884191e+002
1.282340e+003, 3.881477e+002
1.282822e+003, 3.877442e+002
1.283304e+003, 3.878633e+002
1.283786e+003, 3.886162e+002
1.284268e+003, 3.893568e+002
1.284750e+003, 3.895716e+002
1.285233e+003, 3.896112e+002
1.285715e+003, 3.896418e+002
1.286197e+003, 3.898766e+002
1.286679e+003, 3.908777e+002
1.287161e+003, 3.931646e+002
1.287643e+003, 3.936122e+002
1.288125e+003, 3.921288e+002
1.288607e+003, 3.911060e+002
1.289090e+003, 3.926569e+002
1.289572e+003, 3.944906e+002
1.290054e+003, 3.953823e+002
1.290536e+003, 3.953228e+002
1.291018e+003, 3.942032e+002
1.291500e+003, 3.919508e+002
1.291982e+003, 3.909266e+002
1.292464e+003, 3.910095e+002
1.292947e+003, 3.910205e+002
1.293429e+003, 3.902863e+002
1.293911e+003, 3.894469e+002
1.294393e+003, 3.882687e+002
1.294875e+003, 3.876209e+002
1.295357e+003, 3.885214e+002
1.295839e+003, 3.905755e+002
1.296321e+003, 3.916108e+002
1.296803e+003, 3.918258e+002
1.297286e+003, 3.918883e+002
1.297768e+003, 3.924301e+002
1.298250e+003, 3.920937e+002
1.298732e+003, 3.901377e+002
1.299214e+003, 3.884701e+002
1.299696e+003, 3.886767e+002
1.300178e+003, 3.898943e+002
1.300660e+003, 3.906516e+002
##END=



