##NAMES=Bismuth
##RRUFFID=R050650
##IDEAL CHEMISTRY=Bi
##LOCALITY=Wolfram Camp, Queensland, Australia
##OWNER=RRUFF
##SOURCE=University of Arizona Mineral Museum
##DESCRIPTION=Gray metallic fragment
##STATUS=The identification of this mineral has been confirmed by X-ray diffraction and chemical analysis
##URL=rruff.info/R050650
##MEASURED CHEMISTRY=Bi
89.78156, 0.0000000E+00
90.26367, 13.34114
90.74579, 13.35550
91.22791, 13.31571
91.71002, 13.23436
92.19214, 13.22655
92.67426, 13.33291
93.15638, 13.57914
93.63850, 14.04424
94.12061, 14.96829
94.60273, 16.07663
95.08485, 16.78574
95.56696, 17.09386
96.04908, 16.97246
96.53120, 15.93461
97.01331, 14.07222
97.49543, 12.88667
97.97755, 13.65811
98.45966, 16.20955
98.94178, 17.14034
99.42390, 16.02035
99.90602, 13.86419
100.3881, 12.53060
100.8703, 12.12834
101.3524, 12.15607
101.8345, 12.45386
102.3166, 13.12603
102.7987, 13.59400
103.2808, 13.74197
103.7630, 13.65891
104.2451, 13.74850
104.7272, 14.14233
105.2093, 14.53608
105.6914, 14.74711
106.1735, 14.78381
106.6557, 14.60031
107.1378, 13.96349
107.6199, 12.83384
108.1020, 12.47635
108.5841, 13.77119
109.0662, 15.37448
109.5484, 16.09765
110.0305, 14.80693
110.5126, 13.77057
110.9947, 13.60952
111.4768, 14.67527
111.9590, 15.00284
112.4411, 13.40565
112.9232, 11.21588
113.4053, 10.19350
113.8874, 12.03396
114.3695, 13.95626
114.8517, 14.79694
115.3338, 13.94493
115.8159, 13.22058
116.2980, 13.29098
116.7801, 13.86779
117.2622, 14.31728
117.7444, 13.72325
118.2265, 13.32598
118.7086, 14.07049
119.1907, 16.96129
119.6728, 19.81336
120.1549, 21.25418
120.6371, 21.56362
121.1192, 21.87783
121.6013, 22.97269
122.0834, 24.37732
122.5655, 25.55805
123.0476, 26.21648
123.5298, 26.70687
124.0119, 27.25954
124.4940, 27.88288
124.9761, 28.69902
125.4582, 30.06706
125.9404, 31.68998
126.4225, 32.97087
126.9046, 33.32499
127.3867, 33.30285
127.8688, 33.92270
128.3509, 35.25151
128.8331, 36.56962
129.3152, 36.73130
129.7973, 36.02480
130.2794, 35.88300
130.7615, 37.40718
131.2436, 40.08364
131.7258, 42.17535
132.2079, 43.59899
132.6900, 44.49173
133.1721, 44.67918
133.6542, 44.14627
134.1364, 44.17764
134.6185, 45.73468
135.1006, 48.76328
135.5827, 51.58037
136.0648, 54.10264
136.5469, 56.33692
137.0291, 58.31059
137.5112, 60.01785
137.9933, 61.43125
138.4754, 62.55151
138.9575, 63.37103
139.4396, 63.88829
139.9218, 64.10645
140.4039, 64.02028
140.8860, 63.46859
141.3681, 62.15398
141.8502, 60.90979
142.3323, 60.51147
142.8145, 61.38031
143.2966, 61.96395
143.7787, 61.81776
144.2608, 60.96486
144.7429, 60.92945
145.2250, 62.21136
145.7072, 63.86364
146.1893, 64.98841
146.6714, 65.28408
147.1535, 65.49580
147.6356, 65.68544
148.1178, 65.80431
148.5999, 66.22188
149.0820, 67.05947
149.5641, 68.14471
150.0462, 69.27110
150.5283, 70.55180
151.0105, 71.74660
151.4926, 72.17449
151.9747, 72.43476
152.4568, 72.46765
152.9389, 72.01010
153.4210, 71.39518
153.9032, 71.08347
154.3853, 71.78191
154.8674, 72.21231
155.3495, 71.84510
155.8316, 70.10024
156.3137, 68.84868
156.7959, 68.76623
157.2780, 69.32915
157.7601, 69.55447
158.2422, 68.68797
158.7243, 67.83313
159.2065, 67.55741
159.6886, 68.30872
160.1707, 68.98996
160.6528, 69.17030
161.1349, 69.02711
161.6170, 69.03003
162.0992, 69.59753
162.5813, 70.21364
163.0634, 70.53117
163.5455, 70.33695
164.0276, 70.02393
164.5097, 69.60647
164.9919, 69.16145
165.4740, 68.99509
165.9561, 69.54678
166.4382, 70.31118
166.9203, 70.83501
167.4024, 70.85422
167.8846, 70.74206
168.3667, 70.55434
168.8488, 70.34708
169.3309, 70.49617
169.8130, 71.89884
170.2952, 73.60432
170.7773, 74.40207
171.2594, 73.05711
171.7415, 71.29662
172.2236, 70.57796
172.7057, 70.84957
173.1879, 71.40310
173.6700, 71.78515
174.1521, 72.08596
174.6342, 72.45963
175.1163, 73.02273
175.5984, 73.66259
176.0806, 74.37973
176.5627, 75.18393
177.0448, 75.65659
177.5269, 75.02790
178.0090, 73.75269
178.4911, 72.89628
178.9733, 73.30630
179.4554, 74.29661
179.9375, 74.77004
180.4196, 74.67981
180.9017, 74.37833
181.3838, 74.13894
181.8660, 73.97131
182.3481, 73.90132
182.8302, 74.01244
183.3123, 74.22592
183.7944, 74.40345
184.2766, 74.56614
184.7587, 74.58237
185.2408, 74.32155
185.7229, 73.78809
186.2050, 72.97923
186.6871, 71.63593
187.1693, 69.96223
187.6514, 68.85033
188.1335, 68.39812
188.6156, 68.22896
189.0977, 67.73943
189.5798, 66.95383
190.0620, 66.31753
190.5441, 66.29557
191.0262, 66.73080
191.5083, 66.51878
191.9904, 65.48237
192.4725, 64.05004
192.9547, 62.87143
193.4368, 61.93742
193.9189, 61.20821
194.4010, 60.72093
194.8831, 60.46070
195.3652, 60.19623
195.8474, 59.91835
196.3295, 59.62157
196.8116, 59.26622
197.2937, 58.84150
197.7758, 58.46973
198.2579, 58.32903
198.7401, 58.43132
199.2222, 58.14932
199.7043, 57.30856
200.1864, 56.21297
200.6685, 55.57557
201.1507, 55.46361
201.6328, 55.50902
202.1149, 55.65717
202.5970, 55.97718
203.0791, 55.57510
203.5612, 54.07543
204.0434, 52.04464
204.5255, 51.13726
205.0076, 51.59216
205.4897, 52.34314
205.9718, 52.83942
206.4539, 53.10601
206.9361, 52.90329
207.4182, 51.97036
207.9003, 50.66497
208.3824, 50.18740
208.8645, 50.76740
209.3466, 51.57368
209.8288, 52.22815
210.3109, 52.83747
210.7930, 52.73152
211.2751, 51.45897
211.7572, 49.52936
212.2393, 48.97595
212.7215, 50.39173
213.2036, 51.88959
213.6857, 52.13758
214.1678, 50.63805
214.6499, 49.57937
215.1320, 49.21393
215.6142, 49.41842
216.0963, 49.72797
216.5784, 50.27974
217.0605, 50.67712
217.5426, 50.59593
218.0247, 49.81496
218.5069, 49.20496
218.9890, 48.82006
219.4711, 48.66547
219.9532, 48.82551
220.4353, 49.55263
220.9175, 50.18385
221.3996, 50.23762
221.8817, 49.40252
222.3638, 48.80622
222.8459, 48.59086
223.3280, 48.69918
223.8102, 48.87453
224.2923, 49.19304
224.7744, 49.46659
225.2565, 49.55322
225.7386, 49.34416
226.2207, 49.22043
226.7029, 49.28131
227.1850, 49.46343
227.6671, 49.45163
228.1492, 49.27443
228.6313, 48.86433
229.1134, 48.06707
229.5956, 46.36703
230.0777, 45.46822
230.5598, 45.85200
231.0419, 47.18390
231.5240, 47.75275
232.0062, 47.04310
232.4883, 46.27361
232.9704, 46.24303
233.4525, 47.46568
233.9346, 48.29582
234.4167, 48.56666
234.8989, 48.34591
235.3810, 47.89875
235.8631, 46.96688
236.3452, 46.14010
236.8273, 45.79171
237.3094, 46.23379
237.7916, 46.46222
238.2737, 46.29719
238.7558, 45.86918
239.2379, 45.78766
239.7200, 46.46495
240.2021, 46.93061
240.6843, 46.52774
241.1664, 44.43743
241.6485, 43.31991
242.1306, 43.70807
242.6127, 45.15111
243.0948, 45.90898
243.5770, 45.67512
244.0591, 45.18451
244.5412, 44.81130
245.0233, 44.64575
245.5054, 44.36971
245.9876, 43.81313
246.4697, 43.16248
246.9518, 43.04444
247.4339, 43.78400
247.9160, 44.57252
248.3981, 45.01637
248.8803, 45.00204
249.3624, 44.90776
249.8445, 44.66291
250.3266, 44.36152
250.8087, 44.31055
251.2908, 44.75867
251.7730, 45.05486
252.2551, 44.82514
252.7372, 43.68642
253.2193, 43.01768
253.7014, 42.96762
254.1835, 43.32528
254.6657, 43.60697
255.1478, 43.72623
255.6299, 43.92445
256.1120, 44.38079
256.5941, 45.31840
257.0763, 45.75614
257.5584, 45.49798
258.0405, 44.86881
258.5226, 44.58092
259.0047, 44.91607
259.4868, 45.00130
259.9690, 44.36037
260.4511, 42.69570
260.9332, 41.68615
261.4153, 41.46010
261.8974, 41.76376
262.3795, 42.27045
262.8617, 43.20150
263.3438, 43.79891
263.8259, 43.61275
264.3080, 42.42149
264.7901, 42.17001
265.2722, 43.30610
265.7544, 44.84914
266.2365, 45.27556
266.7186, 44.22264
267.2007, 43.16433
267.6828, 42.55107
268.1649, 42.39801
268.6471, 42.33712
269.1292, 42.40618
269.6113, 42.50656
270.0934, 42.46770
270.5755, 42.20530
271.0576, 42.13851
271.5398, 42.45643
272.0219, 43.14551
272.5040, 43.59862
272.9861, 43.75186
273.4682, 43.79774
273.9503, 43.97240
274.4325, 44.32445
274.9146, 44.53195
275.3967, 44.53947
275.8788, 44.34267
276.3610, 43.76320
276.8431, 42.62490
277.3252, 41.65482
277.8073, 41.76965
278.2894, 43.10616
278.7715, 43.88618
279.2537, 43.49265
279.7358, 42.33747
280.2179, 42.41762
280.7000, 44.04512
281.1821, 45.50397
281.6642, 45.00392
282.1464, 42.52875
282.6285, 41.00028
283.1106, 41.13434
283.5927, 42.30713
284.0748, 42.86468
284.5569, 42.76522
285.0391, 42.42876
285.5212, 41.96883
286.0033, 41.42774
286.4854, 41.42856
286.9675, 42.26516
287.4496, 43.34586
287.9318, 43.33631
288.4139, 42.21763
288.8960, 41.05972
289.3781, 40.47238
289.8602, 40.38044
290.3423, 40.44294
290.8245, 40.67174
291.3066, 40.94415
291.7887, 40.97691
292.2708, 40.80946
292.7529, 40.81506
293.2350, 41.45569
293.7172, 42.44743
294.1993, 42.84886
294.6814, 42.56270
295.1635, 41.95433
295.6456, 41.30508
296.1277, 40.66832
296.6099, 40.28849
297.0920, 40.46150
297.5741, 40.93430
298.0562, 41.21075
298.5383, 41.27247
299.0204, 41.25793
299.5026, 41.28720
299.9847, 41.34610
300.4668, 41.39844
300.9489, 41.44304
301.4311, 41.46607
301.9132, 41.35747
302.3953, 41.12837
302.8774, 41.07861
303.3595, 41.80446
303.8416, 42.82758
304.3238, 43.29408
304.8059, 42.60315
305.2880, 41.55316
305.7701, 40.89654
306.2522, 40.59534
306.7343, 40.45875
307.2165, 40.47663
307.6986, 40.54295
308.1807, 40.51365
308.6628, 40.29437
309.1449, 40.06580
309.6270, 39.95337
310.1092, 39.94152
310.5913, 39.98498
311.0734, 39.87562
311.5555, 39.90751
312.0376, 40.48460
312.5197, 42.00670
313.0019, 43.18348
313.4840, 43.05469
313.9661, 42.07441
314.4482, 41.17421
314.9303, 40.83986
315.4124, 40.64638
315.8946, 40.25758
316.3767, 39.53266
316.8588, 39.13126
317.3409, 39.66751
317.8230, 40.59338
318.3051, 41.18425
318.7873, 40.89029
319.2694, 40.51228
319.7515, 40.39594
320.2336, 40.58057
320.7157, 40.74284
321.1978, 40.79865
321.6800, 40.78761
322.1621, 40.74477
322.6442, 40.64547
323.1263, 40.54705
323.6084, 40.51592
324.0905, 40.53805
324.5727, 40.40061
325.0548, 39.64730
325.5369, 38.99947
326.0190, 38.89561
326.5012, 39.92572
326.9833, 40.85451
327.4654, 41.73463
327.9475, 42.48193
328.4296, 42.74059
328.9117, 41.99642
329.3939, 41.21707
329.8760, 40.81840
330.3581, 41.21406
330.8402, 41.20203
331.3223, 40.37351
331.8044, 39.24829
332.2866, 38.93648
332.7687, 40.04551
333.2508, 41.08441
333.7329, 41.61427
334.2150, 41.59074
334.6971, 41.21441
335.1793, 40.26348
335.6614, 39.16932
336.1435, 38.48964
336.6256, 38.27380
337.1077, 38.34277
337.5898, 38.73433
338.0720, 39.43086
338.5541, 39.98790
339.0362, 40.43068
339.5183, 40.69337
340.0004, 40.59172
340.4825, 40.02689
340.9647, 39.86846
341.4468, 40.50456
341.9289, 41.52019
342.4110, 41.34733
342.8931, 39.80512
343.3752, 38.26756
343.8574, 37.76186
344.3395, 38.22206
344.8216, 38.72079
345.3037, 39.19775
345.7858, 39.61104
346.2679, 39.92264
346.7501, 40.12910
347.2322, 40.14211
347.7143, 39.75382
348.1964, 39.12352
348.6785, 38.79578
349.1607, 38.81843
349.6428, 38.95712
350.1249, 38.99509
350.6070, 38.93896
351.0891, 38.80389
351.5713, 38.46876
352.0534, 38.12241
352.5355, 38.10828
353.0176, 38.41481
353.4997, 38.72374
353.9818, 38.78910
354.4640, 38.69394
354.9461, 38.55793
355.4282, 38.38124
355.9103, 38.22145
356.3924, 38.06610
356.8745, 37.95021
357.3567, 38.01249
357.8388, 38.62358
358.3209, 39.28395
358.8030, 39.51028
359.2851, 39.05971
359.7672, 38.59309
360.2494, 38.48162
360.7315, 38.59896
361.2136, 38.71262
361.6957, 38.77495
362.1778, 38.77972
362.6599, 38.65055
363.1421, 38.33966
363.6242, 38.24572
364.1063, 38.85553
364.5884, 39.59302
365.0705, 39.86408
365.5526, 38.86584
366.0348, 38.10457
366.5169, 38.07265
366.9990, 38.72313
367.4811, 39.15504
367.9632, 39.42150
368.4453, 39.35203
368.9275, 38.82986
369.4096, 37.14831
369.8917, 35.99706
370.3738, 35.55893
370.8559, 35.66332
371.3380, 35.84549
371.8202, 36.11139
372.3023, 36.45580
372.7844, 36.98249
373.2665, 37.90767
373.7487, 38.08681
374.2308, 37.24348
374.7129, 35.93291
375.1950, 34.73271
375.6771, 33.41313
376.1592, 33.00192
376.6414, 34.16994
377.1235, 36.65880
377.6056, 37.71598
378.0877, 37.01623
378.5698, 35.98481
379.0519, 36.07119
379.5341, 37.28572
380.0162, 37.75795
380.4983, 36.91566
380.9804, 35.46245
381.4625, 35.11965
381.9446, 35.85985
382.4268, 36.68705
382.9089, 36.89035
383.3910, 36.68549
383.8731, 36.86011
384.3552, 37.54409
384.8373, 38.26449
385.3195, 38.44566
385.8016, 38.20521
386.2837, 37.89025
386.7658, 37.66547
387.2479, 37.44784
387.7300, 37.14586
388.2122, 36.75902
388.6943, 36.26688
389.1764, 35.28526
389.6585, 34.31181
390.1406, 34.07169
390.6227, 35.29866
391.1049, 36.53868
391.5870, 36.58040
392.0691, 35.80669
392.5512, 35.37098
393.0333, 36.40493
393.5154, 37.52703
393.9976, 37.75851
394.4797, 36.69307
394.9618, 35.68630
395.4439, 35.15929
395.9260, 34.94159
396.4081, 34.80708
396.8903, 34.63911
397.3724, 34.61579
397.8545, 34.88946
398.3366, 35.47965
398.8188, 35.84015
399.3009, 35.65460
399.7830, 35.41341
400.2651, 35.43447
400.7472, 36.01080
401.2293, 36.40571
401.7115, 36.50895
402.1936, 36.41549
402.6757, 36.46533
403.1578, 36.93371
403.6399, 37.05919
404.1220, 36.27913
404.6042, 34.23597
405.0863, 33.47765
405.5684, 34.40828
406.0505, 35.98378
406.5326, 36.85540
407.0147, 36.94761
407.4969, 36.93210
407.9790, 37.04379
408.4611, 37.17690
408.9432, 36.73485
409.4253, 35.65076
409.9074, 34.72003
410.3896, 34.79908
410.8717, 35.62798
411.3538, 35.94052
411.8359, 35.37189
412.3180, 34.67665
412.8001, 35.24002
413.2823, 36.70762
413.7644, 37.69918
414.2465, 36.84701
414.7286, 35.37638
415.2107, 35.07161
415.6928, 36.04704
416.1750, 37.05954
416.6571, 37.11207
417.1392, 36.63921
417.6213, 36.23632
418.1034, 36.28592
418.5855, 36.26218
419.0677, 35.58537
419.5498, 34.49908
420.0319, 33.94270
420.5140, 34.89730
420.9961, 36.06698
421.4782, 36.66554
421.9604, 36.44939
422.4425, 36.02417
422.9246, 35.08563
423.4067, 34.13490
423.8889, 33.85018
424.3710, 35.20795
424.8531, 36.30865
425.3352, 36.59520
425.8173, 36.06446
426.2994, 35.89558
426.7816, 36.52391
427.2637, 37.07388
427.7458, 36.88020
428.2279, 35.38295
428.7100, 34.53859
429.1921, 34.69609
429.6743, 35.43179
430.1564, 35.73785
430.6385, 35.51433
431.1206, 35.25470
431.6027, 35.29063
432.0848, 35.58586
432.5670, 35.05518
433.0491, 33.47827
433.5312, 31.97520
434.0133, 31.97398
434.4954, 33.24411
434.9775, 34.23784
435.4597, 34.56789
435.9418, 34.43453
436.4239, 33.91444
436.9060, 33.11029
437.3881, 32.65111
437.8702, 33.32776
438.3524, 34.45664
438.8345, 34.96212
439.3166, 34.64353
439.7987, 34.30052
440.2808, 34.81417
440.7629, 35.67459
441.2451, 36.08260
441.7272, 35.19105
442.2093, 34.24453
442.6914, 33.89748
443.1735, 34.09668
443.6556, 34.43334
444.1378, 35.03798
444.6199, 35.54472
445.1020, 35.68437
445.5841, 35.15485
446.0662, 34.77575
446.5483, 34.74208
447.0305, 34.90626
447.5126, 35.02608
447.9947, 35.10848
448.4768, 35.12354
448.9590, 34.96483
449.4411, 34.62210
449.9232, 34.75133
450.4053, 35.69604
450.8874, 36.61869
451.3695, 36.78577
451.8517, 35.94081
452.3338, 35.53085
452.8159, 35.84713
453.2980, 36.47615
453.7801, 36.46759
454.2622, 35.76695
454.7444, 35.23948
455.2265, 35.49640
455.7086, 36.27559
456.1907, 36.34596
456.6728, 35.66075
457.1549, 34.87553
457.6371, 34.43852
458.1192, 34.36312
458.6013, 34.73836
459.0834, 35.76936
459.5655, 36.91358
460.0476, 37.69249
460.5298, 38.11910
461.0119, 38.19922
461.4940, 37.64396
461.9761, 36.95118
462.4582, 36.48430
462.9403, 36.27340
463.4225, 36.23267
463.9046, 36.31107
464.3867, 36.54584
464.8688, 36.96957
465.3509, 38.13969
465.8330, 38.88542
466.3152, 38.73663
466.7973, 37.92744
467.2794, 37.30377
467.7615, 36.97006
468.2436, 36.77216
468.7257, 36.67785
469.2079, 36.71033
469.6900, 36.72982
470.1721, 36.66509
470.6542, 36.66534
471.1363, 36.92412
471.6184, 37.52236
472.1006, 38.09004
472.5827, 38.66160
473.0648, 39.10040
473.5469, 38.80126
474.0291, 37.68760
474.5112, 36.73861
474.9933, 36.69224
475.4754, 37.31943
475.9575, 37.59690
476.4396, 37.45704
476.9218, 37.21476
477.4039, 37.21051
477.8860, 37.36137
478.3681, 37.46032
478.8502, 37.33326
479.3323, 37.26111
479.8145, 37.71124
480.2966, 38.50875
480.7787, 38.99555
481.2608, 38.60689
481.7429, 37.95577
482.2250, 37.40360
482.7072, 36.96827
483.1893, 36.77821
483.6714, 37.18831
484.1535, 37.72927
484.6356, 37.92882
485.1177, 37.31947
485.5999, 36.81719
486.0820, 36.71997
486.5641, 36.86901
487.0462, 36.59684
487.5283, 35.17298
488.0104, 34.32064
488.4926, 34.96029
488.9747, 37.46935
489.4568, 38.98006
489.9389, 39.29852
490.4210, 38.94494
490.9031, 38.38114
491.3853, 37.59027
491.8674, 36.78701
492.3495, 35.91494
492.8316, 35.18187
493.3137, 35.18993
493.7958, 35.87735
494.2780, 36.56178
494.7601, 36.75879
495.2422, 36.69964
495.7243, 36.89121
496.2064, 37.37288
496.6885, 37.70921
497.1707, 37.40520
497.6528, 36.79101
498.1349, 36.32995
498.6170, 36.27969
499.0992, 36.21948
499.5813, 35.77242
500.0634, 35.13342
500.5455, 34.77547
501.0276, 35.05433
501.5097, 35.46411
501.9919, 35.82787
502.4740, 36.13129
502.9561, 36.38696
503.4382, 36.59445
503.9203, 36.75882
504.4024, 36.89463
504.8846, 37.07084
505.3667, 37.05877
505.8488, 36.75202
506.3309, 36.30780
506.8130, 36.08620
507.2951, 36.13633
507.7773, 36.18870
508.2594, 36.11717
508.7415, 35.96056
509.2236, 36.01142
509.7057, 36.29534
510.1878, 36.46491
510.6700, 35.90929
511.1521, 34.99396
511.6342, 34.98409
512.1163, 36.31947
512.5984, 37.69773
513.0806, 37.54408
513.5627, 36.41837
514.0448, 35.49051
514.5269, 35.35791
515.0090, 35.52654
515.4911, 35.78764
515.9733, 36.10682
516.4554, 36.29211
516.9375, 35.98541
517.4196, 35.73162
517.9017, 35.91952
518.3839, 36.90327
518.8660, 37.56533
519.3481, 37.64762
519.8302, 37.40968
520.3123, 37.09706
520.7944, 36.60277
521.2766, 36.23396
521.7587, 36.09343
522.2408, 36.10661
522.7229, 35.94006
523.2050, 35.52699
523.6871, 35.18372
524.1693, 35.12688
524.6514, 35.32835
525.1335, 35.35987
525.6156, 35.18642
526.0977, 35.07527
526.5798, 35.47779
527.0620, 36.17769
527.5441, 36.48156
528.0262, 36.08838
528.5083, 35.52984
528.9904, 35.40869
529.4725, 35.57232
529.9547, 35.65136
530.4368, 35.40587
530.9189, 35.06165
531.4010, 34.66832
531.8831, 34.23609
532.3652, 34.07570
532.8474, 34.62263
533.3295, 35.23732
533.8116, 35.50454
534.2937, 35.08377
534.7758, 34.81013
535.2579, 34.73693
535.7401, 34.80488
536.2222, 34.94887
536.7043, 35.23922
537.1864, 35.44273
537.6685, 35.48016
538.1506, 35.39752
538.6328, 35.46601
539.1149, 35.73824
539.5970, 35.83767
540.0791, 35.43458
540.5612, 34.63877
541.0433, 33.84282
541.5255, 33.01502
542.0076, 32.64165
542.4897, 33.86525
542.9718, 35.81301
543.4539, 36.64648
543.9360, 35.33984
544.4182, 33.68554
544.9003, 32.97221
545.3824, 32.97807
545.8645, 33.21042
546.3466, 33.57258
546.8287, 34.02372
547.3109, 34.68896
547.7930, 35.57033
548.2751, 36.02122
548.7572, 35.52318
549.2393, 34.89451
549.7214, 34.61639
550.2036, 35.07725
550.6857, 34.93120
551.1678, 33.73903
551.6499, 32.38758
552.1320, 32.27254
552.6141, 33.61613
553.0963, 34.74822
553.5784, 35.30897
554.0605, 35.38966
554.5426, 35.08443
555.0247, 34.41674
555.5068, 33.80780
555.9890, 33.55756
556.4711, 33.52086
556.9532, 33.41048
557.4353, 33.21616
557.9174, 33.15320
558.3995, 33.60299
558.8817, 34.17261
559.3638, 34.41493
559.8459, 34.10499
560.3281, 33.69841
560.8102, 33.27202
561.2923, 32.88947
561.7744, 32.65468
562.2565, 32.65545
562.7386, 32.73598
563.2208, 32.96925
563.7029, 33.29738
564.1850, 33.26298
564.6671, 32.56881
565.1492, 32.04222
565.6313, 32.16938
566.1135, 33.01198
566.5956, 33.67257
567.0777, 34.14846
567.5598, 34.43500
568.0419, 34.40197
568.5240, 34.13346
569.0062, 34.13159
569.4883, 34.62754
569.9704, 35.10044
570.4525, 34.65884
570.9346, 33.64328
571.4167, 32.95179
571.8989, 33.32703
572.3810, 33.88129
572.8631, 34.07909
573.3452, 33.92491
573.8273, 33.54126
574.3094, 32.55746
574.7916, 31.68406
575.2737, 31.35636
575.7558, 31.82364
576.2379, 32.16720
576.7200, 32.24845
577.2021, 32.29100
577.6843, 32.52114
578.1664, 33.05122
578.6485, 33.42503
579.1306, 33.58208
579.6127, 33.57774
580.0948, 33.47152
580.5770, 33.26308
581.0591, 33.16543
581.5412, 33.37560
582.0233, 33.68959
582.5054, 33.56142
582.9875, 33.05436
583.4697, 32.63689
583.9518, 32.75324
584.4339, 33.06216
584.9160, 33.21975
585.3981, 33.18726
585.8802, 33.01310
586.3624, 32.41455
586.8445, 31.84248
587.3266, 31.71537
587.8087, 32.55232
588.2908, 33.28360
588.7729, 33.95739
589.2551, 34.41122
589.7372, 34.28183
590.2193, 33.12324
590.7014, 32.27879
591.1835, 32.21022
591.6656, 32.71739
592.1478, 32.63697
592.6299, 31.86096
593.1120, 31.30180
593.5941, 31.82826
594.0762, 33.04817
594.5583, 33.36511
595.0405, 32.69462
595.5226, 31.99314
596.0047, 32.28363
596.4868, 33.01752
596.9689, 33.38083
597.4510, 33.09151
597.9332, 32.67193
598.4153, 32.24898
598.8974, 31.93313
599.3795, 31.87387
599.8616, 32.47577
600.3438, 32.93959
600.8259, 33.07913
601.3080, 32.92812
601.7901, 32.56719
602.2722, 31.80058
602.7543, 31.15451
603.2365, 30.81281
603.7186, 30.77472
604.2007, 30.96082
604.6828, 31.43196
605.1649, 31.82548
605.6470, 31.69257
606.1292, 31.19506
606.6113, 31.05755
607.0934, 31.40017
607.5755, 31.86511
608.0576, 32.10796
608.5398, 32.21575
609.0219, 32.34420
609.5040, 32.68882
609.9861, 32.86613
610.4683, 32.47775
610.9504, 31.78063
611.4325, 31.32214
611.9146, 31.16438
612.3967, 31.35474
612.8788, 32.18307
613.3610, 33.54372
613.8431, 34.24572
614.3252, 34.10999
614.8073, 33.60286
615.2894, 32.79754
615.7715, 31.65488
616.2537, 31.08799
616.7358, 31.17260
617.2179, 31.47134
617.7000, 31.53825
618.1821, 31.45272
618.6642, 31.51972
619.1464, 31.83088
619.6285, 32.15855
620.1106, 32.28796
620.5927, 32.27139
621.0748, 32.19952
621.5569, 32.18293
622.0391, 32.04053
622.5212, 31.49988
623.0033, 30.74670
623.4854, 30.34823
623.9675, 30.88043
624.4496, 31.27949
624.9318, 31.08260
625.4139, 30.31279
625.8960, 30.31962
626.3781, 31.50550
626.8602, 32.53747
627.3423, 32.36056
627.8245, 31.02629
628.3066, 30.44107
628.7887, 30.73178
629.2708, 31.25266
629.7529, 31.38470
630.2350, 31.23103
630.7172, 31.05328
631.1993, 30.96003
631.6814, 30.70588
632.1635, 29.70852
632.6456, 28.50222
633.1277, 27.92109
633.6099, 28.99361
634.0920, 29.93345
634.5741, 30.17459
635.0562, 29.82940
635.5383, 29.37278
636.0204, 28.58989
636.5026, 28.02514
636.9847, 27.82822
637.4668, 27.99644
637.9489, 28.56145
638.4310, 29.64366
638.9131, 30.60292
639.3953, 30.98729
639.8774, 30.88410
640.3595, 30.63882
640.8416, 30.25852
641.3237, 29.86409
641.8058, 29.64831
642.2880, 29.46762
642.7701, 29.06701
643.2522, 28.22981
643.7343, 27.60214
644.2164, 27.61950
644.6985, 28.00088
645.1807, 28.37178
645.6628, 28.83862
646.1449, 29.05840
646.6270, 28.93806
647.1091, 28.55971
647.5912, 28.07428
648.0734, 27.33558
648.5555, 26.91919
649.0376, 27.17688
649.5197, 27.87214
650.0018, 27.78095
650.4839, 26.91178
650.9661, 26.22804
651.4482, 26.62391
651.9303, 27.51443
652.4124, 27.81967
652.8945, 27.50351
653.3766, 27.18036
653.8588, 27.21210
654.3409, 27.44000
654.8230, 27.76962
655.3051, 28.26608
655.7872, 28.62100
656.2693, 28.72926
656.7515, 28.68258
657.2336, 28.56335
657.7158, 28.32298
658.1979, 28.10319
658.6800, 27.87733
659.1621, 27.71717
659.6442, 27.87974
660.1263, 28.37227
660.6085, 28.46106
661.0906, 27.69944
661.5727, 26.67881
662.0548, 26.59874
662.5369, 27.21535
663.0190, 27.59896
663.5012, 26.76794
663.9833, 25.89029
664.4654, 26.05212
664.9475, 27.12961
665.4296, 27.95582
665.9117, 28.04908
666.3939, 27.88715
666.8760, 27.65005
667.3581, 27.32149
667.8402, 27.08041
668.3223, 26.91277
668.8044, 26.85149
669.2866, 26.97635
669.7687, 27.30124
670.2508, 27.43650
670.7329, 27.32239
671.2150, 27.19185
671.6971, 27.46025
672.1793, 27.91646
672.6614, 27.90975
673.1435, 27.03907
673.6256, 26.33912
674.1077, 26.96973
674.5898, 28.23054
675.0720, 29.02926
675.5541, 28.74198
676.0362, 28.27734
676.5183, 27.70459
677.0004, 27.13554
677.4825, 26.86483
677.9647, 27.01263
678.4468, 27.24305
678.9289, 27.52391
679.4110, 27.80994
679.8931, 27.87439
680.3752, 27.70862
680.8574, 27.45438
681.3395, 27.10339
681.8216, 26.74476
682.3037, 26.63882
682.7858, 26.76390
683.2679, 26.82689
683.7501, 26.40530
684.2322, 25.98639
684.7143, 26.09617
685.1964, 26.93207
685.6785, 27.42376
686.1606, 26.91343
686.6428, 26.21915
687.1249, 25.92809
687.6070, 26.21800
688.0891, 26.55646
688.5712, 27.05744
689.0533, 27.42352
689.5355, 27.14025
690.0176, 26.24458
690.4997, 25.69466
690.9818, 25.73345
691.4639, 25.97488
691.9460, 25.85984
692.4282, 25.55014
692.9103, 25.40586
693.3924, 25.64768
693.8745, 25.99249
694.3566, 26.33230
694.8387, 26.65043
695.3209, 26.90793
695.8030, 27.26149
696.2851, 27.34522
696.7672, 26.91262
697.2493, 26.11783
697.7314, 25.79940
698.2136, 26.05654
698.6957, 26.47899
699.1778, 27.03367
699.6599, 27.60413
700.1420, 27.49019
700.6241, 26.73304
701.1063, 26.12465
701.5884, 26.52829
702.0705, 27.23174
702.5526, 27.23705
703.0347, 26.47820
703.5168, 25.88845
703.9990, 25.99430
704.4811, 26.39350
704.9632, 26.91431
705.4453, 27.83135
705.9274, 27.94562
706.4095, 26.72297
706.8917, 25.29586
707.3738, 24.64385
707.8560, 24.84979
708.3381, 25.18822
708.8202, 25.64841
709.3023, 26.08778
709.7844, 26.27763
710.2665, 26.29881
710.7487, 26.39575
711.2308, 26.66268
711.7129, 26.93135
712.1950, 27.01678
712.6771, 27.03284
713.1592, 27.15217
713.6414, 27.60361
714.1235, 27.95807
714.6056, 28.15629
715.0877, 28.18445
715.5698, 27.94939
716.0519, 27.27759
716.5341, 26.82229
717.0162, 26.83897
717.4983, 27.10778
717.9804, 26.90314
718.4625, 26.26695
718.9446, 25.81569
719.4268, 25.99176
719.9089, 26.42509
720.3910, 26.65183
720.8731, 26.70931
721.3552, 26.76566
721.8373, 26.99288
722.3195, 27.16244
722.8016, 27.09902
723.2837, 26.79458
723.7658, 26.60723
724.2479, 26.58443
724.7300, 26.63780
725.2122, 26.75515
725.6943, 26.93859
726.1764, 26.97551
726.6585, 26.82337
727.1406, 26.80263
727.6227, 27.50939
728.1049, 28.47936
728.5870, 28.40687
729.0691, 27.16356
729.5512, 25.98621
730.0333, 25.84677
730.5154, 26.13911
730.9976, 26.28354
731.4797, 26.06125
731.9618, 26.07555
732.4439, 26.68020
732.9260, 27.38373
733.4081, 27.84260
733.8903, 28.04677
734.3724, 27.99732
734.8545, 27.64157
735.3366, 27.16009
735.8187, 26.77587
736.3008, 26.46697
736.7830, 26.06967
737.2651, 25.45470
737.7472, 25.06227
738.2293, 25.44463
738.7114, 26.30339
739.1935, 27.21210
739.6757, 28.59739
740.1578, 29.29248
740.6399, 28.37412
741.1220, 26.72428
741.6041, 25.87905
742.0862, 26.17727
742.5684, 26.54101
743.0505, 26.81720
743.5326, 27.04387
744.0147, 27.38691
744.4968, 27.81675
744.9789, 27.96125
745.4611, 27.53415
745.9432, 26.93560
746.4253, 26.72746
746.9074, 26.77207
747.3895, 26.71570
747.8716, 26.22855
748.3538, 25.78260
748.8359, 25.59723
749.3180, 25.63589
749.8001, 25.65154
750.2822, 25.38887
750.7643, 25.56540
751.2465, 26.65106
751.7286, 28.32518
752.2107, 28.92087
752.6928, 28.42852
753.1749, 27.64562
753.6570, 26.75690
754.1392, 25.98417
754.6213, 25.73978
755.1034, 25.97250
755.5855, 26.39651
756.0676, 27.09827
756.5498, 27.73908
757.0319, 28.10516
757.5140, 28.17442
757.9962, 28.22289
758.4783, 28.30134
758.9604, 28.31673
759.4425, 28.21265
759.9246, 27.99297
760.4067, 27.77709
760.8889, 27.56378
761.3710, 27.37555
761.8531, 27.17142
762.3352, 27.02255
762.8173, 27.19924
763.2994, 27.69305
763.7816, 27.91856
764.2637, 26.99686
764.7458, 26.03802
765.2279, 25.96865
765.7100, 27.11258
766.1921, 27.96468
766.6743, 28.44901
767.1564, 28.61802
767.6385, 28.38315
768.1206, 27.65530
768.6027, 27.38029
769.0848, 27.60070
769.5670, 28.04351
770.0491, 28.74025
770.5312, 29.41078
771.0133, 29.42060
771.4954, 28.65476
771.9775, 27.70562
772.4597, 26.39434
772.9418, 25.41179
773.4239, 25.47397
773.9060, 27.41932
774.3881, 28.48899
774.8702, 28.12035
775.3524, 27.39409
775.8345, 27.18663
776.3166, 27.53048
776.7987, 28.14795
777.2808, 29.13345
777.7629, 29.79934
778.2451, 28.89959
778.7272, 27.23966
779.2093, 26.51179
779.6914, 27.22355
780.1735, 28.06047
780.6556, 28.32505
781.1378, 28.27989
781.6199, 28.16392
782.1020, 27.85345
782.5841, 27.76862
783.0662, 28.05988
783.5483, 28.40839
784.0305, 28.35215
784.5126, 27.86381
784.9947, 27.94928
785.4768, 28.85922
785.9589, 29.74021
786.4410, 29.29152
786.9232, 28.17817
787.4053, 27.65207
787.8874, 28.22540
788.3695, 28.83868
788.8516, 28.97889
789.3337, 28.88330
789.8159, 28.82710
790.2980, 28.99106
790.7801, 28.90156
791.2622, 28.45793
791.7443, 27.87329
792.2264, 27.34836
792.7086, 26.89152
793.1907, 26.84355
793.6728, 27.33786
794.1549, 27.93395
794.6370, 28.15983
795.1191, 28.14907
795.6013, 28.09347
796.0834, 27.92099
796.5655, 27.96336
797.0476, 28.76135
797.5297, 29.63510
798.0118, 29.71047
798.4940, 28.42318
798.9761, 27.66439
799.4582, 27.68050
799.9403, 28.05134
800.4224, 28.30908
800.9045, 28.43866
801.3867, 28.29321
801.8688, 27.75160
802.3509, 27.27569
802.8330, 27.50731
803.3151, 28.02817
803.7972, 28.23127
804.2794, 27.60520
804.7615, 27.24500
805.2436, 27.65400
805.7258, 28.28323
806.2079, 28.56060
806.6900, 28.41568
807.1721, 28.13578
807.6542, 27.66522
808.1364, 27.30147
808.6185, 27.58455
809.1006, 28.30582
809.5827, 28.87055
810.0648, 29.16571
810.5469, 29.21079
811.0291, 28.79202
811.5112, 28.23303
811.9933, 27.90799
812.4754, 28.04800
812.9575, 28.19678
813.4396, 28.37815
813.9218, 28.51371
814.4039, 28.48332
814.8860, 28.27236
815.3681, 28.10899
815.8502, 27.99848
816.3323, 28.02410
816.8145, 28.44000
817.2966, 29.01949
817.7787, 29.38221
818.2608, 29.45222
818.7429, 29.26925
819.2250, 28.43427
819.7072, 27.58947
820.1893, 27.42607
820.6714, 28.41262
821.1535, 29.10700
821.6356, 29.51612
822.1177, 29.61964
822.5999, 29.24466
823.0820, 28.48322
823.5641, 27.95014
824.0462, 27.71896
824.5283, 27.66871
825.0104, 27.73609
825.4926, 27.89940
825.9747, 28.16041
826.4568, 28.57551
826.9389, 28.89216
827.4210, 28.90499
827.9031, 28.91851
828.3853, 29.22868
828.8674, 30.02423
829.3495, 30.10092
829.8316, 29.33443
830.3137, 28.35831
830.7958, 27.57121
831.2780, 27.08732
831.7601, 27.33168
832.2422, 28.37946
832.7243, 29.32693
833.2064, 29.67560
833.6885, 29.64230
834.1707, 29.27295
834.6528, 28.38236
835.1349, 28.06725
835.6170, 28.69552
836.0991, 29.27605
836.5812, 28.96314
837.0634, 27.85604
837.5455, 27.55745
838.0276, 28.08238
838.5097, 28.75117
838.9918, 29.31710
839.4739, 29.58384
839.9561, 29.10214
840.4382, 27.86949
840.9203, 27.06153
841.4024, 27.42000
841.8845, 27.95737
842.3666, 28.22648
842.8488, 28.23446
843.3309, 28.36106
843.8130, 28.61567
844.2951, 28.93801
844.7772, 29.40150
845.2593, 29.87579
845.7415, 30.06060
846.2236, 29.97497
846.7057, 29.70882
847.1878, 29.20595
847.6699, 28.63557
848.1520, 27.96276
848.6342, 27.25347
849.1163, 26.98985
849.5984, 27.46341
850.0805, 27.79143
850.5626, 27.56129
851.0447, 27.04568
851.5269, 27.26622
852.0090, 28.13043
852.4911, 28.88000
852.9732, 29.09485
853.4553, 29.07104
853.9374, 29.05696
854.4196, 29.01863
854.9017, 28.87180
855.3839, 28.31120
855.8660, 28.00880
856.3481, 28.27873
856.8302, 28.78602
857.3123, 28.68379
857.7944, 27.90320
858.2766, 27.45697
858.7587, 27.69566
859.2408, 28.16625
859.7229, 28.19851
860.2050, 27.96926
860.6871, 27.85591
861.1693, 28.23021
861.6514, 28.34970
862.1335, 27.38161
862.6156, 26.26336
863.0977, 26.33607
863.5798, 28.27592
864.0620, 29.43386
864.5441, 29.49179
865.0262, 28.99363
865.5083, 28.61437
865.9904, 28.25434
866.4725, 27.39075
866.9547, 25.72744
867.4368, 24.70727
867.9189, 26.09916
868.4010, 28.15959
868.8831, 29.25016
869.3652, 28.74708
869.8474, 28.25812
870.3295, 27.83805
870.8116, 27.36209
871.2937, 26.51484
871.7758, 25.39681
872.2579, 25.40539
872.7401, 26.58856
873.2222, 27.73318
873.7043, 27.94779
874.1864, 27.60147
874.6685, 26.78238
875.1506, 25.49701
875.6328, 24.87986
876.1149, 25.96191
876.5970, 26.95893
877.0791, 27.13363
877.5612, 26.59118
878.0433, 26.45358
878.5255, 26.73763
879.0076, 26.98941
879.4897, 26.91444
879.9718, 26.67357
880.4539, 26.45290
880.9360, 26.25534
881.4182, 26.09075
881.9003, 25.90129
882.3824, 25.81575
882.8645, 25.96454
883.3466, 26.23486
883.8287, 26.30219
884.3109, 26.09976
884.7930, 26.10764
885.2751, 26.56281
885.7572, 27.08328
886.2393, 26.99937
886.7214, 26.47204
887.2036, 25.88448
887.6857, 25.27582
888.1678, 24.79053
888.6499, 24.55827
889.1320, 24.46068
889.6141, 24.32415
890.0963, 24.06455
890.5784, 23.99627
891.0605, 24.17176
891.5426, 24.46170
892.0247, 24.77780
892.5068, 25.08743
892.9890, 25.31775
893.4711, 25.46617
893.9532, 25.43689
894.4353, 24.90985
894.9174, 24.35402
895.3995, 24.19313
895.8817, 24.59480
896.3638, 24.82629
896.8459, 24.87574
897.3280, 24.77340
897.8101, 24.36376
898.2922, 23.78082
898.7744, 24.03377
899.2565, 25.01882
899.7386, 25.62129
900.2207, 24.52367
900.7028, 23.28678
901.1849, 23.23482
901.6671, 24.21564
902.1492, 24.75936
902.6313, 24.35697
903.1134, 24.13722
903.5955, 24.50666
904.0776, 25.17385
904.5598, 25.29526
905.0419, 24.92526
905.5240, 24.49646
906.0062, 24.13064
906.4883, 23.83256
906.9704, 23.55584
907.4525, 23.36404
907.9346, 23.35772
908.4167, 23.90721
908.8989, 24.13581
909.3810, 23.81051
909.8631, 23.35409
910.3452, 23.33962
910.8273, 23.73351
911.3094, 24.05381
911.7916, 24.25021
912.2737, 24.30482
912.7558, 23.98039
913.2379, 23.63130
913.7200, 23.72921
914.2021, 24.47455
914.6843, 24.91877
915.1664, 24.89158
915.6485, 24.56625
916.1306, 23.85355
916.6127, 22.81322
917.0948, 22.65658
917.5770, 23.37929
918.0591, 23.98491
918.5412, 23.64012
919.0233, 22.99918
919.5054, 22.71981
919.9875, 22.75469
920.4697, 22.81825
920.9518, 22.73202
921.4339, 22.81137
921.9160, 23.23662
922.3981, 23.80415
922.8802, 23.90557
923.3624, 23.56005
923.8445, 23.50988
924.3266, 24.17000
924.8087, 24.71019
925.2908, 23.61202
925.7729, 22.01242
926.2551, 21.67129
926.7372, 24.48970
927.2193, 25.91676
927.7014, 24.70037
928.1835, 22.81424
928.6656, 22.07001
929.1478, 22.46743
929.6299, 22.72926
930.1120, 22.79233
930.5941, 22.75581
931.0762, 22.49348
931.5583, 22.30981
932.0405, 22.71268
932.5226, 23.72486
933.0047, 24.28607
933.4868, 23.65791
933.9689, 23.15280
934.4510, 23.32059
934.9332, 23.97364
935.4153, 24.14783
935.8974, 23.85824
936.3795, 23.41046
936.8616, 22.87545
937.3438, 22.32785
937.8259, 21.67202
938.3080, 21.08357
938.7901, 20.92779
939.2722, 21.69184
939.7543, 22.37743
940.2365, 22.87403
940.7186, 23.24898
941.2007, 23.68368
941.6828, 24.13546
942.1649, 23.97852
942.6470, 23.05419
943.1292, 22.11289
943.6113, 21.92509
944.0934, 22.00712
944.5755, 21.84024
945.0576, 21.28172
945.5397, 20.89226
946.0219, 20.46289
946.5040, 20.62692
946.9861, 22.09456
947.4682, 24.48226
947.9503, 25.25567
948.4324, 24.55997
948.9146, 23.57528
949.3967, 22.68077
949.8788, 22.03763
950.3609, 21.89881
950.8430, 22.11038
951.3251, 22.21444
951.8073, 22.05909
952.2894, 21.99157
952.7715, 22.05285
953.2536, 22.23664
953.7357, 22.71620
954.2179, 23.33803
954.7000, 23.41635
955.1821, 22.71880
955.6642, 21.91568
956.1464, 21.47431
956.6285, 21.14452
957.1106, 20.56760
957.5927, 19.46519
958.0748, 19.46887
958.5569, 21.00585
959.0391, 22.50420
959.5212, 22.90363
960.0033, 22.47319
960.4854, 21.75640
960.9675, 20.84590
961.4496, 20.27020
961.9318, 20.52866
962.4139, 20.95984
962.8960, 21.31452
963.3781, 21.57986
963.8602, 21.71758
964.3423, 21.65722
964.8245, 21.79950
965.3066, 22.29536
965.7887, 22.84015
966.2708, 22.94699
966.7529, 22.79679
967.2350, 22.76925
967.7172, 23.04180
968.1993, 23.10739
968.6814, 22.55967
969.1635, 21.90971
969.6456, 21.43622
970.1277, 21.12081
970.6099, 21.42497
971.0920, 22.40506
971.5741, 23.23178
972.0562, 23.20720
972.5383, 22.77440
973.0204, 22.32094
973.5026, 21.92722
973.9847, 21.84626
974.4668, 22.68457
974.9489, 23.14971
975.4310, 22.76608
975.9131, 22.02619
976.3953, 22.01712
976.8774, 22.67942
977.3595, 23.08725
977.8416, 22.99614
978.3237, 22.77565
978.8058, 22.71718
979.2880, 22.73734
979.7701, 22.74114
980.2522, 22.69255
980.7343, 22.71814
981.2164, 22.89451
981.6985, 23.00883
982.1807, 22.92748
982.6628, 22.67591
983.1449, 22.23835
983.6270, 21.67968
984.1091, 21.40646
984.5912, 22.00109
985.0734, 22.58909
985.5555, 22.58433
986.0376, 22.21209
986.5197, 22.12724
987.0018, 22.45360
987.4839, 22.62765
987.9661, 22.50071
988.4482, 22.37642
988.9303, 22.92281
989.4124, 23.69898
989.8945, 23.74395
990.3766, 22.76278
990.8588, 21.92298
991.3409, 21.75922
991.8230, 21.84241
992.3051, 21.96537
992.7872, 22.12089
993.2693, 22.12600
993.7515, 21.97458
994.2336, 21.84930
994.7157, 21.90158
995.1978, 21.98602
995.6799, 21.94626
996.1620, 21.80533
996.6442, 21.61841
997.1263, 21.25585
997.6084, 21.05108
998.0905, 21.01925
998.5726, 21.17511
999.0547, 21.66635
999.5369, 22.40792
1000.019, 22.85176
1000.501, 22.93009
1000.983, 22.79866
1001.465, 22.27130
1001.947, 21.81617
1002.430, 21.96929
1002.912, 22.75399
1003.394, 22.86769
1003.876, 22.09966
1004.358, 21.32441
1004.840, 20.79338
1005.322, 20.54572
1005.804, 20.86967
1006.287, 21.51849
1006.769, 21.88401
1007.251, 21.53241
1007.733, 21.18562
1008.215, 21.07339
1008.697, 21.05908
1009.179, 20.96521
1009.661, 21.22371
1010.143, 21.04156
1010.626, 21.89522
1011.108, 22.72680
1011.590, 23.27695
1012.072, 23.42284
1012.554, 22.68088
1013.036, 21.23910
1013.518, 20.61163
1014.000, 21.52921
1014.483, 22.39893
1014.965, 22.86376
1015.447, 23.06402
1015.929, 23.31438
1016.411, 23.56028
1016.893, 23.57667
1017.375, 23.25507
1017.857, 22.88283
1018.339, 22.50084
1018.822, 22.24677
1019.304, 22.28057
1019.786, 22.65335
1020.268, 22.87485
1020.750, 22.94544
1021.232, 22.85999
1021.714, 22.50183
1022.196, 22.05194
1022.679, 21.78439
1023.161, 21.66368
1023.643, 21.59235
1024.125, 21.26345
1024.607, 21.40527
1025.089, 22.40676
1025.571, 23.60176
1026.053, 24.05505
1026.535, 23.82494
1027.018, 23.26985
1027.500, 22.39504
1027.982, 21.85511
1028.464, 22.56182
1028.946, 23.48317
1029.428, 23.69416
1029.910, 23.16384
1030.392, 23.21082
1030.875, 24.09583
1031.357, 24.59376
1031.839, 24.17865
1032.321, 23.27985
1032.803, 22.35249
1033.285, 21.58254
1033.767, 21.44409
1034.249, 22.56946
1034.731, 23.34637
1035.214, 23.17242
1035.696, 22.72187
1036.178, 22.40111
1036.660, 22.21369
1037.142, 22.40034
1037.624, 22.94118
1038.106, 23.38395
1038.588, 23.27754
1039.071, 23.08966
1039.553, 23.25241
1040.035, 23.63102
1040.517, 23.77457
1040.999, 23.75594
1041.481, 23.11407
1041.963, 21.48563
1042.445, 20.01216
1042.927, 20.64117
1043.410, 22.37877
1043.892, 23.20851
1044.374, 22.75671
1044.856, 22.41248
1045.338, 22.78056
1045.820, 23.30851
1046.302, 23.85610
1046.784, 24.35464
1047.266, 24.41735
1047.749, 24.06537
1048.231, 23.50172
1048.713, 22.58690
1049.195, 21.89528
1049.677, 22.15195
1050.159, 22.78659
1050.641, 22.97156
1051.123, 22.31088
1051.606, 22.22390
1052.088, 22.88433
1052.570, 23.48613
1053.052, 23.31910
1053.534, 22.70691
1054.016, 22.02720
1054.498, 21.40333
1054.980, 21.31909
1055.463, 22.68832
1055.945, 23.68291
1056.427, 23.76377
1056.909, 23.37935
1057.391, 23.25220
1057.873, 23.34296
1058.355, 23.33219
1058.837, 23.16875
1059.319, 22.93165
1059.802, 22.43768
1060.284, 22.09721
1060.766, 22.49018
1061.248, 23.53365
1061.730, 23.51460
1062.212, 22.14469
1062.694, 21.25060
1063.176, 21.70415
1063.658, 22.62635
1064.141, 22.87922
1064.623, 22.66112
1065.105, 22.26858
1065.587, 21.56431
1066.069, 21.20774
1066.551, 21.43854
1067.033, 21.72409
1067.515, 21.54651
1067.998, 21.07660
1068.480, 21.49527
1068.962, 22.59282
1069.444, 23.18475
1069.926, 22.01869
1070.408, 20.85471
1070.890, 20.51525
1071.372, 20.71241
1071.854, 21.15978
1072.337, 21.93164
1072.819, 22.10592
1073.301, 21.54107
1073.783, 20.84903
1074.265, 20.56652
1074.747, 20.47192
1075.229, 20.26538
1075.711, 19.96803
1076.193, 20.15848
1076.676, 21.17749
1077.158, 21.87280
1077.640, 21.86256
1078.122, 21.51348
1078.604, 21.30650
1079.086, 21.28071
1079.568, 21.59714
1080.051, 22.42778
1080.533, 23.02031
1081.015, 23.02097
1081.497, 22.79839
1081.979, 22.48771
1082.461, 22.10138
1082.943, 21.60137
1083.425, 21.03300
1083.907, 20.78675
1084.390, 21.37586
1084.872, 21.87634
1085.354, 21.53874
1085.836, 20.85450
1086.318, 20.44295
1086.800, 20.32179
1087.282, 20.57181
1087.764, 21.26821
1088.246, 21.74048
1088.729, 21.15554
1089.211, 20.27550
1089.693, 19.94846
1090.175, 20.10537
1090.657, 20.38843
1091.139, 20.91269
1091.621, 21.19155
1092.103, 21.08109
1092.586, 20.87392
1093.068, 21.08505
1093.550, 21.47385
1094.032, 21.34270
1094.514, 20.61016
1094.996, 20.21278
1095.478, 21.02180
1095.960, 21.71656
1096.443, 21.75047
1096.925, 21.34309
1097.407, 21.14631
1097.889, 21.12173
1098.371, 20.95989
1098.853, 20.50580
1099.335, 20.15885
1099.817, 20.26529
1100.299, 20.56269
1100.781, 20.84996
1101.264, 21.12402
1101.746, 21.25923
1102.228, 21.24618
1102.710, 21.24612
1103.192, 21.49080
1103.674, 21.58992
1104.156, 20.71679
1104.638, 19.51489
1105.121, 19.06529
1105.603, 20.12635
1106.085, 20.81083
1106.567, 21.05586
1107.049, 21.10622
1107.531, 21.03245
1108.013, 20.96066
1108.495, 21.32975
1108.978, 21.96671
1109.460, 22.18314
1109.942, 21.25184
1110.424, 20.51367
1110.906, 20.19171
1111.388, 20.15639
1111.870, 20.31126
1112.352, 20.60880
1112.834, 20.87477
1113.317, 21.09204
1113.799, 21.19443
1114.281, 21.17493
1114.763, 20.98605
1115.245, 20.48311
1115.727, 19.84929
1116.209, 19.53821
1116.691, 19.54323
1117.173, 19.75624
1117.656, 20.19318
1118.138, 20.61352
1118.620, 20.80497
1119.102, 20.89479
1119.584, 21.09265
1120.066, 21.38444
1120.548, 20.95638
1121.030, 19.64328
1121.513, 18.79563
1121.995, 19.06000
1122.477, 19.70934
1122.959, 19.93667
1123.441, 19.93707
1123.923, 19.99154
1124.405, 20.20054
1124.887, 20.30207
1125.370, 20.25141
1125.852, 20.20629
1126.334, 20.22934
1126.816, 20.34193
1127.298, 20.63942
1127.780, 21.05757
1128.262, 21.44070
1128.744, 21.89574
1129.226, 22.05000
1129.709, 21.80186
1130.191, 21.38522
1130.673, 20.95470
1131.155, 20.52561
1131.637, 20.04239
1132.119, 19.56474
1132.601, 19.42711
1133.083, 20.11994
1133.566, 20.80054
1134.048, 21.30787
1134.530, 21.55478
1135.012, 21.18502
1135.494, 20.31044
1135.976, 20.33656
1136.458, 21.37504
1136.940, 22.12357
1137.422, 21.22714
1137.905, 20.22448
1138.387, 20.09049
1138.869, 20.54217
1139.351, 20.97516
1139.833, 21.40720
1140.315, 21.36280
1140.797, 20.68054
1141.279, 20.06111
1141.761, 20.32683
1142.244, 20.77701
1142.726, 20.75739
1143.208, 20.26858
1143.690, 19.94012
1144.172, 19.77904
1144.654, 19.78419
1145.136, 20.02305
1145.618, 20.23693
1146.101, 19.87064
1146.583, 19.42027
1147.065, 19.61461
1147.547, 20.78825
1148.029, 21.27030
1148.511, 20.83788
1148.993, 20.36605
1149.475, 20.21954
1149.958, 20.27077
1150.440, 20.46509
1150.922, 20.65786
1151.404, 20.54947
1151.886, 19.80661
1152.368, 19.42924
1152.850, 19.57998
1153.332, 19.87563
1153.814, 20.20598
1154.297, 20.44210
1154.779, 20.09059
1155.261, 19.36504
1155.743, 18.87504
1156.225, 18.67955
1156.707, 19.06295
1157.189, 20.41251
1157.671, 21.71975
1158.153, 22.20531
1158.636, 21.92730
1159.118, 20.67272
1159.600, 18.74159
1160.082, 17.56163
1160.564, 18.44766
1161.046, 19.38910
1161.528, 19.88602
1162.010, 20.12451
1162.493, 20.29692
1162.975, 20.39602
1163.457, 20.40690
1163.939, 20.32070
1164.421, 20.04230
1164.903, 19.33530
1165.385, 18.62177
1165.867, 18.01130
1166.349, 17.56324
1166.832, 17.36152
1167.314, 17.41326
1167.796, 17.96582
1168.278, 19.05513
1168.760, 19.97669
1169.242, 20.20026
1169.724, 20.13712
1170.206, 19.84640
1170.688, 19.51191
1171.171, 19.63304
1171.653, 20.20244
1172.135, 20.75137
1172.617, 21.22009
1173.099, 21.40804
1173.581, 20.78594
1174.063, 20.12211
1174.545, 20.11597
1175.028, 20.61233
1175.510, 20.88497
1175.992, 20.93104
1176.474, 20.85448
1176.956, 20.66570
1177.438, 20.42895
1177.920, 20.19153
1178.402, 19.94438
1178.885, 19.57958
1179.367, 19.12000
1179.849, 19.20725
1180.331, 19.89933
1180.813, 20.56448
1181.295, 21.08625
1181.777, 21.24130
1182.259, 20.42004
1182.741, 19.33625
1183.224, 18.81389
1183.706, 18.96719
1184.188, 19.11968
1184.670, 19.26096
1185.152, 19.49832
1185.634, 19.93267
1186.116, 20.38645
1186.598, 20.81526
1187.081, 21.06025
1187.563, 20.78440
1188.045, 19.70286
1188.527, 19.31587
1189.009, 19.72801
1189.491, 20.23301
1189.973, 20.50588
1190.455, 20.59955
1190.938, 20.51099
1191.420, 20.31393
1191.902, 20.12038
1192.384, 19.93845
1192.866, 19.76958
1193.348, 19.58343
1193.830, 19.56179
1194.312, 20.06114
1194.794, 20.59482
1195.276, 20.33011
1195.759, 19.66437
1196.241, 19.45902
1196.723, 20.36371
1197.205, 20.37418
1197.687, 19.24369
1198.169, 18.20889
1198.651, 18.43414
1199.133, 19.17527
1199.616, 19.51041
1200.098, 19.55008
1200.580, 19.58003
1201.062, 19.54904
1201.544, 19.79973
1202.026, 20.43568
1202.508, 20.98205
1202.990, 21.04485
1203.473, 20.75739
1203.955, 20.01146
1204.437, 19.05871
1204.919, 18.73590
1205.401, 19.58350
1205.883, 19.92009
1206.365, 19.49906
1206.847, 19.05411
1207.329, 19.40806
1207.812, 20.06819
1208.294, 20.49747
1208.776, 20.67581
1209.258, 20.61589
1209.740, 20.29870
1210.222, 19.78485
1210.704, 18.97724
1211.186, 18.37462
1211.668, 18.61212
1212.151, 19.24929
1212.633, 19.90306
1213.115, 20.48323
1213.597, 20.57839
1214.079, 19.90131
1214.561, 19.63863
1215.043, 20.05267
1215.525, 20.48866
1216.008, 20.07074
1216.490, 19.39490
1216.972, 19.19529
1217.454, 19.45444
1217.936, 19.65330
1218.418, 19.66086
1218.900, 19.98978
1219.382, 20.82169
1219.865, 21.57691
1220.347, 21.71694
1220.829, 21.35612
1221.311, 20.30066
1221.793, 18.73215
1222.275, 18.03066
1222.757, 18.43002
1223.239, 18.97633
1223.721, 19.56345
1224.203, 19.89185
1224.686, 19.24181
1225.168, 18.44906
1225.650, 18.41990
1226.132, 19.18123
1226.614, 19.95060
1227.096, 20.76263
1227.578, 21.37667
1228.061, 21.75569
1228.543, 21.85358
1229.025, 21.41904
1229.507, 20.83249
1229.989, 20.41171
1230.471, 20.19073
1230.953, 20.19586
1231.435, 20.46247
1231.917, 20.62176
1232.400, 20.56417
1232.882, 20.50783
1233.364, 20.71476
1233.846, 20.97703
1234.328, 21.15098
1234.810, 21.21561
1235.292, 20.97223
1235.774, 20.38872
1236.256, 20.42444
1236.739, 21.49132
1237.221, 22.26660
1237.703, 21.00104
1238.185, 19.51280
1238.667, 19.52233
1239.149, 20.62931
1239.631, 21.05976
1240.113, 20.82738
1240.596, 20.39119
1241.078, 19.80349
1241.560, 19.38417
1242.042, 19.57082
1242.524, 19.82460
1243.006, 19.71285
1243.488, 19.38050
1243.970, 19.40954
1244.453, 19.76517
1244.935, 20.21283
1245.417, 20.74532
1245.899, 21.08679
1246.381, 20.97436
1246.863, 20.70972
1247.345, 20.45299
1247.827, 20.20129
1248.309, 19.85665
1248.792, 19.50321
1249.274, 19.61740
1249.756, 20.42566
1250.238, 20.95261
1250.720, 20.27532
1251.202, 19.75934
1251.684, 20.07626
1252.166, 20.83797
1252.648, 21.08278
1253.131, 20.92774
1253.613, 20.62892
1254.095, 20.16305
1254.577, 20.13370
1255.059, 21.38397
1255.541, 22.07189
1256.023, 21.30084
1256.505, 19.91649
1256.988, 19.74596
1257.470, 20.28834
1257.952, 20.48746
1258.434, 20.10863
1258.916, 19.69471
1259.398, 19.11800
1259.880, 19.01563
1260.362, 19.69852
1260.844, 20.76872
1261.327, 21.82169
1261.809, 22.70084
1262.291, 23.12992
1262.773, 23.02277
1263.255, 22.92497
1263.737, 22.92069
1264.219, 22.73305
1264.701, 22.22541
1265.183, 21.63856
1265.666, 21.25861
1266.148, 20.98010
1266.630, 20.58744
1267.112, 20.64207
1267.594, 20.17768
1268.076, 20.99511
1268.558, 21.78653
1269.040, 22.39983
1269.523, 22.67151
1270.005, 22.02543
1270.487, 21.28835
1270.969, 21.40045
1271.451, 22.17915
1271.933, 22.58162
1272.415, 22.60682
1272.897, 22.25193
1273.380, 21.41824
1273.862, 20.80379
1274.344, 21.15704
1274.826, 21.67063
1275.308, 21.75543
1275.790, 21.61125
1276.272, 22.21827
1276.754, 23.29823
1277.236, 23.05619
1277.719, 20.93000
1278.201, 19.36358
1278.683, 20.12267
1279.165, 21.22914
1279.647, 22.08394
1280.129, 22.55973
1280.611, 22.05001
1281.093, 21.01870
1281.576, 20.82574
1282.058, 21.72300
1282.540, 22.50024
1283.022, 22.73756
1283.504, 22.90673
1283.986, 23.10776
1284.468, 23.32943
1284.950, 23.81727
1285.432, 24.18600
1285.915, 23.50584
1286.397, 21.73809
1286.879, 20.96695
1287.361, 21.69953
1287.843, 22.22858
1288.325, 22.15384
1288.807, 21.85657
1289.289, 21.60405
1289.771, 21.48961
1290.254, 21.67568
1290.736, 22.12548
1291.218, 22.58701
1291.700, 23.11839
1292.182, 22.98084
1292.664, 21.98650
1293.146, 20.97777
1293.628, 20.65514
1294.111, 20.58411
1294.593, 20.27998
1295.075, 20.07223
1295.557, 21.03243
1296.039, 22.97558
1296.521, 23.72084
1297.003, 23.02253
1297.485, 22.24491
1297.968, 22.04897
1298.450, 22.17196
1298.932, 22.65718
1299.414, 23.17102
1299.896, 22.98190
1300.378, 22.43481
1300.860, 22.79611
1301.342, 24.01008
1301.824, 24.78644
##END=



