##NAMES=Bismutite
##RRUFFID=R050634
##IDEAL CHEMISTRY=Bi_2_O_2_(CO_3_)
##LOCALITY=Outpost mine, Wickenburg, White Picacho District, Maricopa County, Arizona, USA
##OWNER=RRUFF
##SOURCE=University of Arizona Mineral Museum
##DESCRIPTION=Pale brown flattened spear-head shaped crystals
##STATUS=The identification of this mineral has been confirmed by single-crystal X-ray diffraction.
##URL=rruff.info/R050634
89.15009, 4704.982
89.63220, 4825.137
90.11432, 4935.088
90.59644, 5015.783
91.07855, 5034.587
91.56067, 5053.319
92.04279, 5117.095
92.52490, 5234.586
93.00702, 5373.811
93.48914, 5476.846
93.97125, 5521.599
94.45337, 5546.202
94.93549, 5497.984
95.41760, 5410.335
95.89972, 5330.320
96.38184, 5259.150
96.86395, 5200.005
97.34607, 5160.441
97.82819, 5158.400
98.31030, 5152.261
98.79242, 5111.082
99.27454, 5035.392
99.75665, 4962.135
100.2388, 4911.213
100.7209, 4878.819
101.2030, 4862.202
101.6851, 4874.821
102.1672, 4900.246
102.6494, 4902.725
103.1315, 4874.675
103.6136, 4833.707
104.0957, 4774.492
104.5778, 4708.673
105.0599, 4665.363
105.5421, 4680.960
106.0242, 4764.580
106.5063, 4817.116
106.9884, 4815.928
107.4705, 4799.019
107.9526, 4772.917
108.4348, 4742.473
108.9169, 4717.077
109.3990, 4712.811
109.8811, 4751.538
110.3632, 4775.306
110.8453, 4782.676
111.3275, 4777.041
111.8096, 4757.797
112.2917, 4724.699
112.7738, 4683.227
113.2559, 4654.280
113.7380, 4639.179
114.2202, 4633.514
114.7023, 4645.263
115.1844, 4666.928
115.6665, 4681.090
116.1486, 4674.620
116.6307, 4649.744
117.1129, 4632.565
117.5950, 4629.481
118.0771, 4628.939
118.5592, 4618.694
119.0413, 4597.222
119.5234, 4581.881
120.0056, 4600.326
120.4877, 4639.741
120.9698, 4661.437
121.4519, 4637.101
121.9340, 4587.365
122.4161, 4562.371
122.8982, 4577.230
123.3804, 4602.631
123.8625, 4621.771
124.3446, 4633.933
124.8267, 4635.369
125.3088, 4614.287
125.7909, 4567.560
126.2731, 4541.824
126.7552, 4567.980
127.2373, 4600.472
127.7194, 4620.629
128.2015, 4624.333
128.6837, 4615.470
129.1658, 4597.498
129.6479, 4560.827
130.1300, 4534.244
130.6121, 4516.128
131.0942, 4508.782
131.5764, 4518.490
132.0585, 4547.960
132.5406, 4588.959
133.0227, 4611.974
133.5048, 4592.676
133.9869, 4580.751
134.4691, 4584.072
134.9512, 4598.537
135.4333, 4616.521
135.9154, 4632.954
136.3975, 4648.432
136.8796, 4672.154
137.3618, 4718.661
137.8439, 4758.909
138.3260, 4774.273
138.8081, 4766.940
139.2902, 4756.761
139.7723, 4759.737
140.2545, 4776.492
140.7366, 4794.511
141.2187, 4814.346
141.7008, 4834.621
142.1829, 4853.016
142.6650, 4868.375
143.1472, 4885.249
143.6293, 4912.474
144.1114, 4947.372
144.5935, 4976.275
145.0756, 4984.957
145.5577, 4981.582
146.0399, 4993.987
146.5220, 5030.869
147.0041, 5081.589
147.4862, 5140.759
147.9683, 5207.332
148.4504, 5268.932
148.9326, 5311.304
149.4147, 5332.476
149.8968, 5358.196
150.3789, 5393.715
150.8610, 5435.216
151.3431, 5485.482
151.8252, 5544.517
152.3074, 5602.217
152.7895, 5638.829
153.2716, 5635.717
153.7537, 5652.720
154.2358, 5709.366
154.7179, 5779.392
155.2001, 5840.866
155.6822, 5884.654
156.1643, 5915.777
156.6464, 5950.178
157.1285, 6004.686
157.6106, 6042.531
158.0928, 6053.931
158.5749, 6047.897
159.0570, 6034.559
159.5391, 6018.970
160.0212, 6002.276
160.5033, 5998.944
160.9855, 6017.751
161.4676, 6038.763
161.9497, 6063.129
162.4318, 6086.119
162.9139, 6096.151
163.3960, 6082.856
163.8782, 6044.784
164.3603, 6009.169
164.8424, 5984.434
165.3245, 5955.463
165.8066, 5913.020
166.2887, 5856.265
166.7709, 5789.835
167.2530, 5717.479
167.7351, 5638.551
168.2172, 5551.177
168.6993, 5443.212
169.1814, 5331.211
169.6636, 5237.797
170.1457, 5169.242
170.6278, 5107.215
171.1099, 5031.691
171.5920, 4945.126
172.0741, 4859.006
172.5563, 4775.653
173.0384, 4695.734
173.5205, 4623.275
174.0026, 4562.958
174.4847, 4503.700
174.9668, 4432.765
175.4490, 4351.188
175.9311, 4273.912
176.4132, 4210.012
176.8953, 4159.038
177.3774, 4118.313
177.8595, 4099.990
178.3417, 4081.847
178.8238, 4046.781
179.3059, 3993.726
179.7880, 3939.177
180.2701, 3906.734
180.7522, 3905.849
181.2344, 3886.253
181.7165, 3818.322
182.1986, 3743.934
182.6807, 3688.280
183.1628, 3658.383
183.6449, 3644.077
184.1271, 3630.328
184.6092, 3622.279
185.0913, 3603.545
185.5734, 3564.901
186.0555, 3520.869
186.5376, 3484.538
187.0198, 3461.127
187.5019, 3445.405
187.9840, 3423.068
188.4661, 3386.937
188.9482, 3352.782
189.4303, 3323.929
189.9125, 3296.939
190.3946, 3267.200
190.8767, 3231.795
191.3588, 3192.981
191.8409, 3160.464
192.3230, 3133.416
192.8052, 3113.633
193.2873, 3105.220
193.7694, 3104.318
194.2515, 3106.063
194.7336, 3108.765
195.2157, 3111.081
195.6979, 3097.919
196.1800, 3054.496
196.6621, 3014.543
197.1442, 2994.691
197.6263, 2989.630
198.1084, 2981.165
198.5906, 2954.863
199.0727, 2913.090
199.5548, 2886.354
200.0369, 2895.032
200.5190, 2900.249
201.0011, 2872.569
201.4833, 2814.697
201.9654, 2759.082
202.4475, 2730.116
202.9296, 2726.855
203.4117, 2722.077
203.8938, 2718.144
204.3760, 2710.509
204.8581, 2691.608
205.3402, 2660.300
205.8223, 2631.579
206.3044, 2621.143
206.7865, 2623.900
207.2687, 2621.673
207.7508, 2607.624
208.2329, 2588.059
208.7150, 2570.288
209.1971, 2554.169
209.6792, 2541.918
210.1614, 2539.759
210.6435, 2543.401
211.1256, 2542.553
211.6077, 2530.515
212.0898, 2511.748
212.5719, 2496.026
213.0541, 2484.722
213.5362, 2474.587
214.0183, 2461.753
214.5004, 2447.949
214.9825, 2437.880
215.4646, 2438.309
215.9468, 2445.634
216.4289, 2444.285
216.9110, 2429.868
217.3931, 2411.677
217.8752, 2394.850
218.3573, 2379.011
218.8395, 2363.083
219.3216, 2345.723
219.8037, 2327.208
220.2858, 2309.953
220.7679, 2288.135
221.2500, 2274.951
221.7322, 2283.706
222.2143, 2307.696
222.6964, 2326.592
223.1785, 2321.740
223.6606, 2292.015
224.1427, 2263.820
224.6249, 2230.561
225.1070, 2205.432
225.5891, 2197.288
226.0712, 2203.222
226.5533, 2212.601
227.0354, 2216.125
227.5176, 2213.178
227.9997, 2208.378
228.4818, 2202.474
228.9639, 2193.952
229.4460, 2178.671
229.9281, 2158.872
230.4103, 2142.083
230.8924, 2137.410
231.3745, 2148.582
231.8566, 2154.983
232.3387, 2153.175
232.8208, 2149.927
233.3030, 2149.704
233.7851, 2151.794
234.2672, 2151.524
234.7493, 2143.385
235.2314, 2125.176
235.7135, 2106.764
236.1957, 2082.461
236.6778, 2062.388
237.1599, 2056.501
237.6420, 2062.902
238.1241, 2068.736
238.6062, 2057.094
239.0884, 2016.140
239.5705, 1997.856
240.0526, 2022.511
240.5347, 2049.766
241.0168, 2054.726
241.4989, 2035.589
241.9811, 2006.914
242.4632, 1984.612
242.9453, 1968.977
243.4274, 1960.672
243.9095, 1966.455
244.3916, 1973.443
244.8738, 1972.081
245.3559, 1961.847
245.8380, 1950.404
246.3201, 1947.182
246.8022, 1956.739
247.2843, 1959.761
247.7665, 1952.082
248.2486, 1941.497
248.7307, 1932.913
249.2128, 1927.176
249.6949, 1923.151
250.1770, 1919.841
250.6592, 1917.921
251.1413, 1913.956
251.6234, 1902.883
252.1055, 1893.272
252.5876, 1894.332
253.0697, 1906.195
253.5519, 1918.213
254.0340, 1917.890
254.5161, 1900.620
254.9982, 1888.581
255.4803, 1883.853
255.9624, 1882.858
256.4445, 1884.051
256.9267, 1886.898
257.4088, 1889.829
257.8909, 1892.488
258.3730, 1895.906
258.8551, 1888.481
259.3372, 1855.425
259.8194, 1821.084
260.3015, 1806.543
260.7836, 1813.777
261.2657, 1829.257
261.7478, 1841.251
262.2299, 1849.226
262.7121, 1854.196
263.1942, 1857.074
263.6763, 1856.353
264.1584, 1848.158
264.6405, 1832.695
265.1227, 1818.216
265.6048, 1811.850
266.0869, 1814.566
266.5690, 1821.385
267.0511, 1835.756
267.5332, 1851.874
268.0154, 1868.306
268.4975, 1884.267
268.9796, 1891.422
269.4617, 1879.432
269.9438, 1848.306
270.4259, 1826.811
270.9081, 1817.406
271.3902, 1816.594
271.8723, 1824.643
272.3544, 1840.961
272.8365, 1858.144
273.3186, 1873.012
273.8008, 1883.956
274.2829, 1884.597
274.7650, 1862.232
275.2471, 1838.915
275.7292, 1834.294
276.2113, 1847.373
276.6935, 1859.252
277.1756, 1856.771
277.6577, 1841.228
278.1398, 1828.032
278.6219, 1813.749
279.1040, 1804.488
279.5862, 1808.602
280.0683, 1824.230
280.5504, 1836.177
281.0325, 1833.259
281.5146, 1819.284
281.9967, 1812.190
282.4789, 1817.675
282.9610, 1824.628
283.4431, 1827.976
283.9252, 1827.499
284.4073, 1820.935
284.8894, 1803.670
285.3716, 1781.202
285.8537, 1769.874
286.3358, 1775.022
286.8179, 1784.000
287.3000, 1791.860
287.7821, 1798.300
288.2643, 1801.805
288.7464, 1801.312
289.2285, 1797.618
289.7106, 1792.798
290.1927, 1785.008
290.6748, 1779.395
291.1570, 1776.958
291.6391, 1778.394
292.1212, 1787.992
292.6033, 1811.600
293.0854, 1838.490
293.5675, 1845.046
294.0497, 1823.964
294.5318, 1806.128
295.0139, 1808.972
295.4960, 1824.068
295.9781, 1830.651
296.4602, 1819.640
296.9424, 1802.522
297.4245, 1801.542
297.9066, 1820.070
298.3887, 1833.993
298.8708, 1831.250
299.3529, 1819.813
299.8351, 1814.994
300.3172, 1822.245
300.7993, 1831.526
301.2814, 1825.086
301.7635, 1800.605
302.2456, 1785.792
302.7278, 1797.887
303.2099, 1819.369
303.6920, 1823.718
304.1741, 1804.409
304.6562, 1780.826
305.1383, 1776.428
305.6205, 1792.447
306.1026, 1803.889
306.5847, 1807.364
307.0668, 1804.823
307.5489, 1795.959
308.0310, 1780.779
308.5132, 1765.876
308.9953, 1756.534
309.4774, 1753.334
309.9595, 1755.564
310.4416, 1768.557
310.9237, 1783.225
311.4059, 1791.502
311.8880, 1793.471
312.3701, 1796.192
312.8522, 1806.784
313.3343, 1823.914
313.8164, 1830.335
314.2986, 1811.928
314.7807, 1795.771
315.2628, 1803.039
315.7449, 1828.417
316.2270, 1847.520
316.7091, 1843.479
317.1913, 1821.105
317.6734, 1809.612
318.1555, 1815.888
318.6376, 1823.703
319.1197, 1828.152
319.6018, 1829.568
320.0840, 1829.202
320.5661, 1827.855
321.0482, 1824.809
321.5303, 1816.918
322.0124, 1789.004
322.4945, 1776.962
322.9767, 1803.986
323.4588, 1847.795
323.9409, 1873.273
324.4230, 1866.435
324.9051, 1842.386
325.3872, 1830.257
325.8694, 1826.470
326.3515, 1842.005
326.8336, 1907.226
327.3157, 1978.082
327.7978, 2003.534
328.2799, 1971.709
328.7621, 1917.260
329.2442, 1887.198
329.7263, 1894.262
330.2084, 1896.961
330.6905, 1892.496
331.1726, 1885.912
331.6548, 1880.390
332.1369, 1876.465
332.6190, 1873.053
333.1011, 1868.492
333.5832, 1861.435
334.0653, 1861.668
334.5475, 1874.932
335.0296, 1888.752
335.5117, 1898.167
335.9938, 1902.891
336.4759, 1903.631
336.9580, 1899.966
337.4402, 1892.080
337.9223, 1892.566
338.4044, 1910.467
338.8865, 1926.604
339.3686, 1934.818
339.8507, 1938.042
340.3329, 1941.898
340.8150, 1949.750
341.2971, 1960.335
341.7792, 1968.037
342.2613, 1964.859
342.7434, 1969.241
343.2256, 1991.618
343.7077, 2018.823
344.1898, 2035.426
344.6719, 2035.493
345.1540, 2027.081
345.6361, 2026.357
346.1183, 2036.704
346.6004, 2048.773
347.0825, 2061.043
347.5646, 2074.869
348.0467, 2093.962
348.5288, 2117.788
349.0110, 2139.267
349.4931, 2146.907
349.9752, 2135.194
350.4573, 2131.765
350.9394, 2144.288
351.4215, 2159.445
351.9037, 2172.934
352.3858, 2183.865
352.8679, 2192.042
353.3500, 2197.402
353.8321, 2199.931
354.3142, 2197.842
354.7964, 2178.540
355.2785, 2170.816
355.7606, 2196.797
356.2427, 2241.179
356.7248, 2273.847
357.2069, 2275.689
357.6891, 2255.419
358.1712, 2234.293
358.6533, 2205.217
359.1354, 2191.904
359.6175, 2218.256
360.0996, 2259.081
360.5818, 2286.107
361.0639, 2289.291
361.5460, 2278.422
362.0281, 2262.297
362.5102, 2239.377
362.9923, 2225.014
363.4745, 2233.351
363.9566, 2246.557
364.4387, 2246.148
364.9208, 2228.890
365.4029, 2208.966
365.8850, 2197.252
366.3672, 2192.272
366.8493, 2184.859
367.3314, 2170.365
367.8135, 2157.179
368.2956, 2154.829
368.7777, 2162.462
369.2599, 2171.040
369.7420, 2179.937
370.2241, 2186.585
370.7062, 2184.521
371.1883, 2171.558
371.6704, 2158.521
372.1526, 2155.740
372.6347, 2161.367
373.1168, 2164.588
373.5989, 2160.779
374.0810, 2156.513
374.5631, 2158.478
375.0453, 2165.953
375.5274, 2172.646
376.0095, 2176.416
376.4916, 2175.672
376.9737, 2165.094
377.4558, 2129.675
377.9380, 2102.547
378.4201, 2100.223
378.9022, 2114.097
379.3843, 2129.722
379.8664, 2142.234
380.3485, 2149.516
380.8307, 2146.098
381.3128, 2122.671
381.7949, 2105.791
382.2770, 2098.932
382.7591, 2098.338
383.2412, 2102.429
383.7234, 2110.160
384.2055, 2117.904
384.6876, 2120.906
385.1697, 2116.942
385.6518, 2118.044
386.1339, 2129.757
386.6161, 2140.518
387.0982, 2145.560
387.5803, 2144.798
388.0624, 2139.354
388.5445, 2129.534
389.0266, 2115.836
389.5088, 2103.807
389.9909, 2089.175
390.4730, 2081.751
390.9551, 2087.757
391.4372, 2100.356
391.9193, 2111.480
392.4015, 2117.660
392.8836, 2120.329
393.3657, 2122.774
393.8478, 2126.572
394.3299, 2125.959
394.8120, 2113.585
395.2942, 2101.380
395.7763, 2099.129
396.2584, 2107.593
396.7405, 2117.532
397.2226, 2119.224
397.7047, 2112.601
398.1869, 2107.147
398.6690, 2103.159
399.1511, 2100.953
399.6332, 2097.902
400.1153, 2096.159
400.5974, 2102.098
401.0796, 2127.386
401.5617, 2160.264
402.0438, 2172.714
402.5259, 2160.669
403.0080, 2144.115
403.4901, 2127.382
403.9723, 2114.861
404.4544, 2115.609
404.9365, 2138.857
405.4186, 2162.947
405.9007, 2171.960
406.3828, 2166.761
406.8650, 2147.225
407.3471, 2102.287
407.8292, 2057.849
408.3113, 2062.816
408.7934, 2126.758
409.2755, 2180.747
409.7577, 2198.896
410.2398, 2196.429
410.7219, 2190.693
411.2040, 2184.854
411.6861, 2181.776
412.1682, 2185.333
412.6504, 2196.742
413.1325, 2203.758
413.6146, 2201.441
414.0967, 2199.443
414.5788, 2203.950
415.0609, 2213.552
415.5431, 2223.688
416.0252, 2231.967
416.5073, 2237.966
416.9894, 2239.696
417.4715, 2230.776
417.9536, 2225.276
418.4358, 2228.038
418.9179, 2233.294
419.4000, 2234.500
419.8821, 2229.802
420.3642, 2222.653
420.8463, 2217.076
421.3285, 2210.115
421.8106, 2213.344
422.2927, 2238.782
422.7748, 2263.257
423.2569, 2273.107
423.7390, 2270.964
424.2212, 2270.022
424.7033, 2284.026
425.1854, 2308.179
425.6675, 2309.952
426.1496, 2272.090
426.6317, 2241.043
427.1139, 2237.214
427.5960, 2248.437
428.0781, 2260.242
428.5602, 2268.214
429.0423, 2273.769
429.5244, 2277.821
430.0066, 2280.313
430.4887, 2284.019
430.9708, 2289.729
431.4529, 2297.127
431.9350, 2306.613
432.4171, 2318.459
432.8993, 2327.726
433.3814, 2327.768
433.8635, 2324.727
434.3456, 2334.021
434.8277, 2359.788
435.3098, 2379.660
435.7920, 2370.930
436.2741, 2335.695
436.7562, 2310.745
437.2383, 2306.734
437.7204, 2304.635
438.2025, 2290.613
438.6847, 2268.945
439.1668, 2252.719
439.6489, 2248.500
440.1310, 2253.300
440.6131, 2259.306
441.0952, 2272.803
441.5774, 2278.528
442.0595, 2270.258
442.5416, 2257.177
443.0237, 2245.821
443.5058, 2238.192
443.9879, 2235.333
444.4701, 2239.003
444.9522, 2250.151
445.4343, 2260.966
445.9164, 2275.918
446.3985, 2285.899
446.8806, 2289.015
447.3628, 2284.736
447.8449, 2270.476
448.3270, 2242.408
448.8091, 2209.444
449.2912, 2194.834
449.7733, 2204.709
450.2555, 2216.093
450.7376, 2223.865
451.2197, 2230.393
451.7018, 2239.000
452.1839, 2250.062
452.6660, 2256.769
453.1482, 2252.010
453.6303, 2237.760
454.1124, 2222.584
454.5945, 2206.133
455.0766, 2191.519
455.5587, 2181.954
456.0409, 2176.357
456.5230, 2172.527
457.0051, 2169.188
457.4872, 2167.971
457.9693, 2172.695
458.4514, 2181.915
458.9336, 2187.145
459.4156, 2183.611
459.8978, 2174.467
460.3799, 2168.500
460.8620, 2170.643
461.3441, 2166.279
461.8262, 2140.874
462.3083, 2114.013
462.7905, 2111.291
463.2726, 2135.136
463.7547, 2162.583
464.2368, 2169.255
464.7189, 2152.393
465.2010, 2138.572
465.6832, 2128.584
466.1653, 2120.668
466.6474, 2112.308
467.1295, 2106.087
467.6116, 2107.841
468.0938, 2121.272
468.5759, 2139.165
469.0580, 2143.720
469.5401, 2128.502
470.0222, 2118.312
470.5043, 2126.752
470.9865, 2134.757
471.4686, 2125.586
471.9507, 2100.174
472.4328, 2079.612
472.9149, 2083.938
473.3970, 2106.316
473.8792, 2123.519
474.3613, 2135.866
474.8434, 2138.922
475.3255, 2119.480
475.8076, 2089.686
476.2897, 2075.635
476.7719, 2091.830
477.2540, 2111.022
477.7361, 2114.489
478.2182, 2105.794
478.7003, 2095.566
479.1824, 2087.496
479.6646, 2079.002
480.1467, 2064.459
480.6288, 2037.900
481.1109, 2025.201
481.5930, 2038.862
482.0751, 2058.095
482.5573, 2070.495
483.0394, 2074.761
483.5215, 2072.414
484.0036, 2063.638
484.4857, 2050.002
484.9678, 2041.687
485.4500, 2033.957
485.9321, 2039.047
486.4142, 2074.225
486.8963, 2113.798
487.3784, 2131.360
487.8605, 2120.915
488.3427, 2099.649
488.8248, 2087.396
489.3069, 2084.762
489.7890, 2074.939
490.2711, 2043.552
490.7532, 2023.795
491.2354, 2046.619
491.7175, 2093.307
492.1996, 2119.002
492.6817, 2092.780
493.1638, 2052.080
493.6459, 2041.865
494.1281, 2060.337
494.6102, 2083.748
495.0923, 2107.200
495.5744, 2126.113
496.0565, 2131.100
496.5386, 2120.853
497.0208, 2107.373
497.5029, 2088.161
497.9850, 2070.194
498.4671, 2061.185
498.9492, 2061.298
499.4313, 2065.300
499.9135, 2069.226
500.3956, 2073.198
500.8777, 2079.256
501.3598, 2098.851
501.8419, 2106.643
502.3240, 2089.109
502.8062, 2061.951
503.2883, 2042.305
503.7704, 2035.349
504.2525, 2034.530
504.7346, 2033.201
505.2167, 2032.262
505.6989, 2023.578
506.1810, 1996.506
506.6631, 1973.909
507.1452, 1972.637
507.6273, 1983.482
508.1094, 1985.049
508.5916, 1963.837
509.0737, 1934.657
509.5558, 1917.366
510.0379, 1911.703
510.5200, 1909.084
511.0021, 1908.618
511.4843, 1907.402
511.9664, 1900.263
512.4485, 1886.527
512.9306, 1873.440
513.4127, 1867.833
513.8948, 1860.570
514.3770, 1836.486
514.8591, 1798.366
515.3412, 1770.193
515.8233, 1770.926
516.3054, 1794.574
516.7875, 1802.632
517.2697, 1778.212
517.7518, 1758.669
518.2339, 1747.033
518.7160, 1742.089
519.1981, 1747.537
519.6802, 1761.610
520.1624, 1770.362
520.6445, 1752.679
521.1266, 1707.403
521.6087, 1684.327
522.0908, 1696.858
522.5729, 1712.526
523.0551, 1719.648
523.5372, 1719.640
524.0193, 1713.447
524.5014, 1698.792
524.9835, 1684.127
525.4656, 1680.606
525.9478, 1685.503
526.4299, 1683.417
526.9120, 1668.639
527.3941, 1650.445
527.8762, 1639.717
528.3583, 1636.705
528.8405, 1633.958
529.3226, 1624.257
529.8047, 1620.357
530.2868, 1640.299
530.7689, 1673.520
531.2510, 1689.223
531.7332, 1670.581
532.2153, 1632.832
532.6974, 1613.606
533.1795, 1624.048
533.6616, 1633.453
534.1437, 1643.161
534.6259, 1650.115
535.1080, 1652.734
535.5901, 1650.888
536.0722, 1644.643
536.5543, 1632.920
537.0364, 1617.504
537.5186, 1602.791
538.0007, 1587.100
538.4828, 1578.635
538.9649, 1587.930
539.4470, 1601.636
539.9291, 1603.044
540.4113, 1589.258
540.8934, 1576.368
541.3755, 1572.007
541.8576, 1573.627
542.3397, 1580.268
542.8218, 1591.353
543.3040, 1597.133
543.7861, 1588.711
544.2682, 1568.395
544.7503, 1556.050
545.2324, 1557.338
545.7145, 1558.349
546.1967, 1554.618
546.6788, 1550.248
547.1609, 1552.264
547.6430, 1560.897
548.1251, 1566.521
548.6072, 1555.269
549.0894, 1526.078
549.5715, 1513.529
550.0536, 1529.829
550.5357, 1545.662
551.0178, 1550.792
551.4999, 1548.840
551.9821, 1543.310
552.4642, 1533.616
552.9463, 1526.893
553.4284, 1534.685
553.9105, 1551.991
554.3926, 1556.782
554.8748, 1542.354
555.3569, 1524.584
555.8390, 1518.370
556.3211, 1523.690
556.8032, 1526.905
557.2853, 1529.422
557.7675, 1528.041
558.2496, 1517.467
558.7317, 1502.860
559.2138, 1493.920
559.6959, 1494.008
560.1780, 1497.107
560.6602, 1493.973
561.1423, 1482.921
561.6244, 1472.503
562.1065, 1458.933
562.5886, 1450.075
563.0707, 1454.678
563.5529, 1464.947
564.0350, 1465.605
564.5171, 1447.691
564.9992, 1424.954
565.4813, 1416.814
565.9634, 1422.341
566.4456, 1425.899
566.9277, 1422.322
567.4098, 1418.827
567.8919, 1426.609
568.3740, 1443.997
568.8561, 1452.591
569.3383, 1441.507
569.8204, 1428.398
570.3025, 1426.081
570.7846, 1430.817
571.2667, 1431.543
571.7488, 1423.502
572.2310, 1413.602
572.7131, 1415.471
573.1952, 1437.419
573.6773, 1448.597
574.1594, 1437.361
574.6415, 1427.520
575.1237, 1433.839
575.6058, 1449.006
576.0879, 1455.301
576.5700, 1441.531
577.0521, 1421.942
577.5342, 1422.523
578.0164, 1443.458
578.4985, 1452.734
578.9806, 1439.057
579.4627, 1417.276
579.9448, 1397.914
580.4269, 1381.403
580.9091, 1379.057
581.3912, 1409.031
581.8733, 1439.292
582.3554, 1447.594
582.8375, 1438.417
583.3196, 1422.509
583.8018, 1403.969
584.2839, 1388.214
584.7660, 1386.291
585.2481, 1406.956
585.7302, 1416.385
586.2123, 1402.871
586.6945, 1390.536
587.1766, 1390.073
587.6587, 1398.203
588.1408, 1407.544
588.6229, 1415.210
589.1050, 1421.106
589.5872, 1422.706
590.0693, 1420.427
590.5514, 1426.883
591.0335, 1449.831
591.5156, 1472.806
591.9977, 1474.342
592.4799, 1458.155
592.9620, 1453.169
593.4441, 1477.892
593.9262, 1500.362
594.4083, 1495.548
594.8904, 1475.888
595.3726, 1468.653
595.8547, 1483.262
596.3368, 1504.489
596.8189, 1509.260
597.3010, 1492.750
597.7831, 1482.969
598.2653, 1489.765
598.7474, 1493.109
599.2295, 1480.154
599.7116, 1461.626
600.1937, 1455.252
600.6758, 1468.796
601.1580, 1488.060
601.6401, 1498.821
602.1222, 1502.348
602.6043, 1505.744
603.0864, 1511.312
603.5685, 1511.679
604.0507, 1494.915
604.5328, 1464.854
605.0149, 1456.481
605.4970, 1493.032
605.9791, 1523.796
606.4612, 1530.048
606.9434, 1521.070
607.4255, 1499.513
607.9076, 1470.586
608.3897, 1459.731
608.8718, 1504.948
609.3539, 1603.850
609.8361, 1638.061
610.3182, 1565.311
610.8003, 1497.463
611.2824, 1475.221
611.7645, 1473.767
612.2466, 1467.095
612.7288, 1450.295
613.2109, 1434.945
613.6930, 1431.030
614.1751, 1432.962
614.6572, 1429.484
615.1393, 1419.794
615.6215, 1411.576
616.1036, 1409.251
616.5857, 1412.225
617.0678, 1418.425
617.5499, 1442.673
618.0320, 1449.299
618.5142, 1419.261
618.9963, 1384.541
619.4784, 1371.576
619.9605, 1377.904
620.4426, 1383.532
620.9247, 1373.442
621.4069, 1355.043
621.8890, 1348.888
622.3711, 1357.047
622.8532, 1365.685
623.3353, 1374.411
623.8174, 1378.888
624.2996, 1373.419
624.7817, 1358.691
625.2638, 1344.781
625.7459, 1333.960
626.2280, 1325.289
626.7101, 1315.231
627.1923, 1306.774
627.6744, 1310.323
628.1565, 1330.234
628.6386, 1353.931
629.1207, 1360.143
629.6028, 1343.348
630.0850, 1331.529
630.5671, 1323.088
631.0492, 1321.845
631.5313, 1339.906
632.0134, 1362.773
632.4955, 1365.326
632.9777, 1336.423
633.4598, 1304.746
633.9419, 1302.388
634.4240, 1320.207
634.9061, 1326.241
635.3882, 1314.987
635.8704, 1301.886
636.3525, 1299.581
636.8346, 1305.383
637.3167, 1301.751
637.7988, 1274.056
638.2809, 1257.611
638.7631, 1265.921
639.2452, 1282.923
639.7273, 1294.485
640.2094, 1299.144
640.6915, 1303.252
641.1736, 1313.367
641.6558, 1325.312
642.1379, 1320.498
642.6200, 1292.627
643.1021, 1276.381
643.5842, 1290.853
644.0663, 1312.473
644.5485, 1314.670
645.0306, 1298.049
645.5127, 1283.723
645.9948, 1275.683
646.4769, 1273.746
646.9590, 1279.851
647.4412, 1291.901
647.9233, 1307.132
648.4054, 1324.445
648.8875, 1337.597
649.3696, 1335.377
649.8517, 1313.248
650.3339, 1298.964
650.8160, 1296.621
651.2981, 1297.775
651.7802, 1302.933
652.2623, 1308.500
652.7444, 1308.780
653.2266, 1301.595
653.7087, 1294.192
654.1908, 1293.742
654.6729, 1296.785
655.1550, 1294.800
655.6371, 1286.968
656.1193, 1280.268
656.6014, 1279.700
657.0835, 1283.366
657.5656, 1284.076
658.0477, 1270.517
658.5298, 1269.959
659.0120, 1299.683
659.4941, 1328.131
659.9762, 1327.415
660.4583, 1305.520
660.9404, 1291.348
661.4225, 1300.979
661.9047, 1327.722
662.3868, 1371.444
662.8689, 1430.765
663.3510, 1453.371
663.8331, 1418.212
664.3152, 1365.832
664.7974, 1331.808
665.2795, 1316.061
665.7616, 1304.465
666.2437, 1299.244
666.7258, 1295.190
667.2079, 1288.583
667.6901, 1283.000
668.1722, 1285.708
668.6543, 1296.442
669.1364, 1304.231
669.6185, 1296.663
670.1006, 1277.325
670.5828, 1269.566
671.0649, 1277.979
671.5470, 1282.631
672.0291, 1274.287
672.5112, 1261.168
672.9933, 1251.037
673.4755, 1243.888
673.9576, 1243.280
674.4397, 1258.359
674.9218, 1273.310
675.4039, 1276.852
675.8860, 1270.145
676.3682, 1255.450
676.8503, 1233.838
677.3324, 1210.608
677.8145, 1192.336
678.2966, 1178.208
678.7787, 1176.628
679.2609, 1198.321
679.7430, 1216.733
680.2251, 1221.105
680.7072, 1216.926
681.1893, 1209.610
681.6714, 1199.307
682.1536, 1191.322
682.6357, 1189.580
683.1178, 1191.412
683.5999, 1192.796
684.0820, 1193.978
684.5641, 1199.298
685.0463, 1211.979
685.5284, 1226.690
686.0105, 1229.990
686.4926, 1214.347
686.9747, 1205.189
687.4568, 1208.406
687.9390, 1212.226
688.4211, 1213.116
688.9032, 1210.910
689.3853, 1205.504
689.8674, 1196.278
690.3495, 1185.945
690.8317, 1173.268
691.3138, 1161.877
691.7959, 1161.218
692.2780, 1172.218
692.7601, 1187.280
693.2422, 1202.135
693.7244, 1215.677
694.2065, 1223.455
694.6886, 1224.163
695.1707, 1220.816
695.6528, 1211.447
696.1349, 1200.268
696.6171, 1187.754
697.0992, 1175.563
697.5813, 1167.580
698.0634, 1166.420
698.5455, 1168.141
699.0276, 1169.453
699.5098, 1169.961
699.9919, 1167.022
700.4740, 1159.715
700.9561, 1154.153
701.4382, 1155.644
701.9203, 1163.379
702.4025, 1170.953
702.8846, 1184.159
703.3667, 1189.250
703.8488, 1179.912
704.3309, 1166.378
704.8130, 1152.153
705.2952, 1140.355
705.7773, 1138.325
706.2594, 1155.101
706.7415, 1175.965
707.2236, 1176.973
707.7057, 1161.761
708.1879, 1153.982
708.6700, 1160.325
709.1521, 1166.581
709.6342, 1157.074
710.1163, 1133.045
710.5984, 1124.763
711.0806, 1150.863
711.5627, 1167.272
712.0448, 1160.917
712.5269, 1147.137
713.0090, 1139.452
713.4911, 1137.922
713.9733, 1133.407
714.4554, 1116.816
714.9375, 1098.011
715.4196, 1095.958
715.9017, 1108.254
716.3839, 1115.045
716.8660, 1110.554
717.3481, 1102.563
717.8302, 1098.181
718.3123, 1097.425
718.7944, 1098.293
719.2766, 1098.991
719.7587, 1103.496
720.2408, 1118.585
720.7229, 1133.575
721.2050, 1138.071
721.6871, 1132.230
722.1693, 1124.112
722.6514, 1119.026
723.1335, 1114.489
723.6156, 1103.431
724.0977, 1087.689
724.5798, 1081.910
725.0620, 1091.262
725.5441, 1105.129
726.0262, 1113.417
726.5083, 1116.131
726.9904, 1115.861
727.4725, 1108.732
727.9547, 1103.734
728.4368, 1102.889
728.9189, 1104.336
729.4010, 1107.825
729.8831, 1112.344
730.3652, 1114.417
730.8474, 1109.533
731.3295, 1103.599
731.8116, 1108.118
732.2937, 1120.207
732.7758, 1123.418
733.2579, 1112.474
733.7401, 1101.190
734.2222, 1104.575
734.7043, 1121.732
735.1864, 1129.974
735.6685, 1122.678
736.1506, 1114.796
736.6328, 1107.318
737.1149, 1100.439
737.5970, 1094.798
738.0791, 1089.999
738.5612, 1084.232
739.0433, 1074.594
739.5255, 1065.925
740.0076, 1062.539
740.4897, 1064.633
740.9718, 1076.070
741.4539, 1097.787
741.9360, 1115.767
742.4182, 1116.634
742.9003, 1102.411
743.3824, 1090.194
743.8645, 1075.621
744.3466, 1070.856
744.8287, 1087.019
745.3109, 1104.520
745.7930, 1110.542
746.2751, 1106.357
746.7572, 1099.775
747.2393, 1092.623
747.7214, 1085.747
748.2036, 1077.760
748.6857, 1071.186
749.1678, 1073.599
749.6499, 1085.069
750.1320, 1093.935
750.6141, 1090.599
751.0963, 1078.708
751.5784, 1073.453
752.0605, 1078.659
752.5426, 1079.428
753.0247, 1066.931
753.5068, 1057.122
753.9890, 1063.743
754.4711, 1080.440
754.9532, 1089.236
755.4353, 1081.607
755.9174, 1074.501
756.3995, 1080.195
756.8817, 1089.025
757.3638, 1087.982
757.8459, 1077.625
758.3280, 1067.332
758.8101, 1062.904
759.2922, 1062.078
759.7744, 1059.272
760.2565, 1053.783
760.7386, 1054.177
761.2207, 1064.330
761.7028, 1074.464
762.1849, 1079.414
762.6671, 1079.589
763.1492, 1075.811
763.6313, 1064.772
764.1134, 1057.449
764.5955, 1060.860
765.0776, 1064.944
765.5598, 1058.413
766.0419, 1046.732
766.5240, 1045.273
767.0061, 1060.960
767.4882, 1079.688
767.9703, 1083.855
768.4525, 1075.167
768.9346, 1060.171
769.4167, 1037.937
769.8988, 1021.087
770.3809, 1015.936
770.8630, 1019.984
771.3452, 1029.183
771.8273, 1046.615
772.3094, 1060.332
772.7915, 1072.625
773.2736, 1078.909
773.7557, 1074.916
774.2379, 1064.875
774.7200, 1052.493
775.2021, 1039.010
775.6842, 1029.695
776.1663, 1029.015
776.6484, 1034.634
777.1306, 1047.218
777.6127, 1063.962
778.0948, 1069.001
778.5769, 1055.821
779.0590, 1039.747
779.5411, 1041.315
780.0233, 1061.189
780.5054, 1069.420
780.9875, 1056.549
781.4696, 1047.587
781.9517, 1050.665
782.4338, 1058.251
782.9160, 1067.645
783.3981, 1077.339
783.8802, 1078.843
784.3623, 1062.658
784.8444, 1044.410
785.3265, 1030.966
785.8087, 1023.356
786.2908, 1024.894
786.7729, 1034.874
787.2550, 1046.757
787.7371, 1055.864
788.2192, 1062.190
788.7014, 1065.409
789.1835, 1065.427
789.6656, 1062.964
790.1477, 1057.310
790.6298, 1050.983
791.1119, 1046.007
791.5941, 1042.001
792.0762, 1036.901
792.5583, 1025.963
793.0404, 1021.474
793.5225, 1032.498
794.0046, 1044.187
794.4868, 1045.006
794.9689, 1037.983
795.4510, 1031.323
795.9331, 1028.094
796.4152, 1028.886
796.8973, 1037.242
797.3795, 1049.541
797.8616, 1056.805
798.3437, 1058.447
798.8258, 1056.007
799.3079, 1049.640
799.7900, 1041.838
800.2722, 1036.795
800.7543, 1034.051
801.2364, 1036.200
801.7185, 1046.884
802.2006, 1057.547
802.6827, 1065.344
803.1649, 1071.795
803.6470, 1079.082
804.1291, 1087.422
804.6112, 1092.776
805.0933, 1089.246
805.5754, 1086.463
806.0576, 1091.803
806.5397, 1102.908
807.0218, 1115.990
807.5039, 1129.889
807.9860, 1144.652
808.4681, 1162.045
808.9503, 1178.668
809.4324, 1180.970
809.9145, 1167.860
810.3966, 1159.856
810.8787, 1162.340
811.3608, 1168.984
811.8430, 1176.730
812.3251, 1184.398
812.8072, 1183.118
813.2893, 1163.153
813.7714, 1148.573
814.2535, 1147.259
814.7357, 1146.408
815.2178, 1136.568
815.6999, 1120.583
816.1820, 1106.971
816.6641, 1099.668
817.1462, 1091.255
817.6284, 1071.322
818.1105, 1048.414
818.5926, 1037.932
819.0747, 1038.924
819.5568, 1040.507
820.0389, 1037.602
820.5211, 1033.223
821.0032, 1033.865
821.4853, 1040.489
821.9674, 1032.934
822.4495, 1001.447
822.9316, 981.0711
823.4138, 992.7439
823.8959, 1015.452
824.3780, 1022.366
824.8601, 1013.432
825.3422, 1003.170
825.8243, 990.7136
826.3065, 980.0936
826.7886, 972.2833
827.2707, 967.4739
827.7528, 966.2570
828.2349, 968.3034
828.7170, 973.0322
829.1992, 983.7257
829.6813, 990.4642
830.1633, 972.9348
830.6454, 940.2704
831.1276, 924.0630
831.6097, 928.8066
832.0918, 938.6969
832.5739, 943.6847
833.0560, 944.6417
833.5381, 943.1375
834.0203, 937.0168
834.5024, 935.9855
834.9845, 942.5836
835.4666, 951.0602
835.9487, 961.9711
836.4308, 971.6457
836.9130, 974.0654
837.3951, 967.8638
837.8772, 960.1881
838.3593, 946.9351
838.8414, 938.7327
839.3235, 949.1577
839.8057, 965.7176
840.2878, 965.6329
840.7699, 946.3945
841.2520, 932.4063
841.7341, 946.8904
842.2162, 976.2234
842.6984, 998.6235
843.1805, 1013.915
843.6626, 1018.136
844.1447, 1010.040
844.6268, 1000.326
845.1089, 997.2542
845.5911, 1000.769
846.0732, 1011.500
846.5553, 1033.426
847.0374, 1051.486
847.5195, 1060.565
848.0016, 1070.329
848.4838, 1090.876
848.9659, 1114.873
849.4480, 1126.363
849.9301, 1118.323
850.4122, 1116.321
850.8943, 1132.085
851.3765, 1151.527
851.8586, 1167.403
852.3407, 1179.213
852.8228, 1185.756
853.3049, 1187.296
853.7870, 1189.725
854.2692, 1197.664
854.7513, 1210.149
855.2334, 1228.695
855.7155, 1251.010
856.1976, 1264.760
856.6797, 1266.523
857.1619, 1265.236
857.6440, 1269.649
858.1261, 1277.652
858.6082, 1277.468
859.0903, 1266.466
859.5724, 1255.983
860.0546, 1250.119
860.5367, 1241.228
861.0188, 1219.946
861.5009, 1192.564
861.9830, 1174.387
862.4651, 1167.893
862.9473, 1165.430
863.4294, 1178.992
863.9115, 1182.652
864.3936, 1149.296
864.8757, 1099.970
865.3578, 1071.851
865.8400, 1073.162
866.3221, 1074.795
866.8042, 1050.462
867.2863, 1017.318
867.7684, 996.9444
868.2505, 987.8541
868.7327, 988.4398
869.2148, 997.0409
869.6969, 998.8807
870.1790, 978.2817
870.6611, 983.2148
871.1432, 982.6639
871.6254, 969.0393
872.1075, 981.6741
872.5896, 968.1478
873.0717, 947.1162
873.5538, 926.3914
874.0359, 908.7204
874.5181, 902.4133
875.0002, 915.0182
875.4823, 922.2728
875.9644, 922.1155
876.4465, 918.8055
876.9286, 912.7719
877.4108, 905.2552
877.8929, 896.9061
878.3750, 888.0093
878.8571, 881.3137
879.3392, 879.5931
879.8214, 879.0484
880.3035, 876.7894
880.7856, 873.5461
881.2677, 869.6601
881.7498, 865.8303
882.2319, 864.8179
882.7141, 869.0235
883.1962, 875.3379
883.6783, 879.2791
884.1604, 880.5724
884.6425, 875.9528
885.1246, 864.6703
885.6068, 855.4207
886.0889, 853.5663
886.5710, 854.4028
887.0531, 848.0939
887.5352, 831.7855
888.0173, 825.3312
888.4995, 837.1116
888.9816, 844.3354
889.4637, 834.7751
889.9458, 821.4428
890.4279, 816.3204
890.9100, 819.2205
891.3922, 825.6649
891.8743, 841.9337
892.3564, 852.6901
892.8385, 846.6385
893.3206, 838.3626
893.8027, 843.1321
894.2849, 856.8192
894.7670, 865.5178
895.2491, 863.7964
895.7312, 854.8834
896.2133, 834.0840
896.6954, 812.0305
897.1776, 807.6129
897.6597, 817.4484
898.1418, 826.7037
898.6239, 830.0314
899.1060, 830.9938
899.5881, 834.0533
900.0703, 837.9406
900.5524, 834.9170
901.0345, 824.3837
901.5166, 821.3803
901.9987, 831.1454
902.4808, 842.1113
902.9630, 845.0829
903.4451, 841.5659
903.9272, 837.2364
904.4093, 827.7073
904.8914, 826.6758
905.3735, 844.4453
905.8557, 858.9163
906.3378, 858.9026
906.8199, 851.0486
907.3020, 845.0236
907.7841, 842.1045
908.2662, 835.5322
908.7484, 816.0331
909.2305, 801.3341
909.7126, 805.2792
910.1947, 815.5643
910.6768, 815.0913
911.1589, 805.1697
911.6411, 803.3058
912.1232, 823.8718
912.6053, 844.5353
913.0874, 836.9379
913.5695, 816.8012
914.0516, 814.7307
914.5338, 828.8517
915.0159, 835.1534
915.4980, 822.3668
915.9801, 804.1914
916.4622, 799.6601
916.9443, 806.7686
917.4265, 812.3716
917.9086, 816.3569
918.3907, 822.2751
918.8728, 832.5430
919.3549, 838.9688
919.8370, 831.8716
920.3192, 814.2952
920.8013, 807.4310
921.2834, 817.3558
921.7655, 823.1231
922.2476, 818.5438
922.7297, 815.2211
923.2119, 824.9693
923.6940, 838.3151
924.1761, 836.6322
924.6582, 814.1647
925.1403, 799.7468
925.6224, 804.6655
926.1046, 809.7638
926.5867, 803.4413
927.0688, 795.3264
927.5509, 798.1351
928.0330, 811.0871
928.5151, 821.5107
928.9973, 822.4886
929.4794, 821.2717
929.9615, 825.9468
930.4436, 829.7449
930.9257, 820.1603
931.4078, 801.4063
931.8900, 789.6038
932.3721, 791.6595
932.8542, 798.5206
933.3363, 799.4337
933.8184, 797.5358
934.3005, 801.8719
934.7827, 811.5402
935.2648, 821.1907
935.7469, 829.3555
936.2290, 832.8338
936.7111, 828.1899
937.1932, 817.5633
937.6754, 808.3782
938.1575, 800.8834
938.6396, 791.2281
939.1217, 774.8515
939.6038, 771.2365
940.0859, 797.2615
940.5681, 834.7485
941.0502, 849.8811
941.5323, 838.1742
942.0144, 827.2296
942.4965, 812.5008
942.9786, 805.1450
943.4608, 812.5557
943.9429, 823.8224
944.4250, 830.0308
944.9071, 832.2398
945.3892, 836.8745
945.8713, 852.0820
946.3535, 857.1324
946.8356, 834.1037
947.3177, 811.5213
947.7998, 810.6420
948.2819, 823.2871
948.7640, 834.9570
949.2462, 842.0011
949.7283, 845.5602
950.2104, 844.2755
950.6925, 841.8084
951.1746, 840.0015
951.6567, 839.9022
952.1389, 845.4570
952.6210, 855.0731
953.1031, 859.1850
953.5852, 851.1448
954.0673, 841.0981
954.5494, 843.7013
955.0316, 854.6084
955.5137, 863.0978
955.9958, 868.6028
956.4779, 872.8113
956.9600, 876.3470
957.4421, 878.5446
957.9243, 878.5883
958.4064, 876.7145
958.8885, 872.4238
959.3706, 865.2197
959.8527, 866.3120
960.3348, 879.2404
960.8170, 892.9861
961.2991, 900.9817
961.7812, 903.8878
962.2633, 902.5962
962.7454, 895.6596
963.2275, 891.1108
963.7097, 889.8420
964.1918, 889.5035
964.6739, 892.4732
965.1560, 892.9597
965.6381, 880.2195
966.1202, 856.4563
966.6024, 849.0640
967.0845, 873.4043
967.5666, 891.4032
968.0487, 900.2252
968.5308, 901.0046
969.0129, 886.2941
969.4951, 867.2660
969.9772, 862.0738
970.4593, 874.2329
970.9414, 889.5891
971.4235, 911.5009
971.9056, 926.1089
972.3878, 920.0193
972.8699, 907.0569
973.3520, 902.7538
973.8341, 906.6183
974.3162, 909.0244
974.7983, 905.6606
975.2805, 900.9009
975.7626, 898.2432
976.2447, 895.8919
976.7268, 890.8880
977.2089, 884.5897
977.6910, 878.9719
978.1732, 875.2849
978.6553, 877.9113
979.1374, 893.5760
979.6195, 913.0338
980.1016, 923.0264
980.5837, 924.2838
981.0659, 914.1129
981.5480, 895.1192
982.0301, 886.3967
982.5122, 898.0363
982.9943, 916.5626
983.4764, 921.9168
983.9586, 916.5811
984.4407, 915.5852
984.9228, 918.8315
985.4049, 919.8363
985.8870, 916.7731
986.3691, 912.7917
986.8513, 910.0172
987.3334, 909.0200
987.8155, 912.4730
988.2976, 921.6711
988.7797, 926.3354
989.2618, 925.1660
989.7440, 922.1208
990.2261, 917.7827
990.7082, 913.9848
991.1903, 912.6508
991.6724, 913.8084
992.1545, 919.1125
992.6367, 932.2820
993.1188, 941.9940
993.6009, 947.1848
994.0830, 948.3657
994.5651, 944.4089
995.0472, 937.1069
995.5294, 929.2229
996.0115, 919.2796
996.4936, 915.1987
996.9757, 922.4637
997.4578, 928.9318
997.9399, 930.2529
998.4221, 930.4004
998.9042, 932.3665
999.3863, 936.1501
999.8684, 941.0731
1000.351, 947.6891
1000.833, 953.8041
1001.315, 961.7099
1001.797, 965.8999
1002.279, 960.2655
1002.761, 950.4842
1003.243, 942.4599
1003.725, 937.8021
1004.207, 939.5314
1004.690, 953.1806
1005.172, 967.4006
1005.654, 974.4321
1006.136, 979.7532
1006.618, 994.3356
1007.100, 1010.580
1007.582, 1007.440
1008.064, 979.2050
1008.547, 952.7565
1009.029, 948.3693
1009.511, 954.8083
1009.993, 965.3827
1010.475, 976.3998
1010.957, 980.0267
1011.439, 977.7075
1011.921, 980.3286
1012.403, 993.9664
1012.886, 1007.360
1013.368, 1005.697
1013.850, 1009.728
1014.332, 1007.346
1014.814, 999.4313
1015.296, 994.5332
1015.778, 979.1798
1016.260, 967.5522
1016.742, 971.2615
1017.225, 981.2276
1017.707, 980.0953
1018.189, 971.7199
1018.671, 971.1603
1019.153, 978.4214
1019.635, 984.7957
1020.117, 987.0696
1020.599, 985.8965
1021.082, 980.8685
1021.564, 974.2828
1022.046, 975.6117
1022.528, 983.9732
1023.010, 984.8976
1023.492, 976.2095
1023.974, 971.0790
1024.456, 976.9985
1024.938, 985.0256
1025.421, 979.6046
1025.903, 988.2958
1026.385, 994.9146
1026.867, 992.3330
1027.349, 1006.207
1027.831, 998.3809
1028.313, 988.7578
1028.795, 991.0015
1029.278, 999.8745
1029.760, 1003.482
1030.242, 1000.964
1030.724, 1000.545
1031.206, 1002.458
1031.688, 1006.013
1032.170, 1012.150
1032.652, 1017.071
1033.135, 1016.091
1033.617, 1011.878
1034.099, 1015.201
1034.581, 1029.918
1035.063, 1041.426
1035.545, 1052.187
1036.027, 1053.965
1036.509, 1038.509
1036.991, 1019.184
1037.474, 1009.663
1037.956, 1009.465
1038.438, 1013.712
1038.920, 1028.816
1039.402, 1035.746
1039.884, 1027.658
1040.366, 1019.324
1040.848, 1014.912
1041.330, 1015.497
1041.813, 1025.619
1042.295, 1046.220
1042.777, 1055.780
1043.259, 1050.467
1043.741, 1039.822
1044.223, 1012.664
1044.705, 993.0769
1045.187, 1003.325
1045.670, 1026.241
1046.152, 1030.254
1046.634, 1010.790
1047.116, 998.6305
1047.598, 1003.237
1048.080, 1005.734
1048.562, 994.6818
1049.044, 986.9053
1049.526, 1000.709
1050.009, 1025.468
1050.491, 1034.133
1050.973, 1018.047
1051.455, 1012.313
1051.937, 1036.460
1052.419, 1054.165
1052.901, 1045.997
1053.383, 1031.531
1053.865, 1028.378
1054.348, 1034.027
1054.830, 1036.214
1055.312, 1029.303
1055.794, 1030.043
1056.276, 1050.379
1056.758, 1069.927
1057.240, 1072.267
1057.722, 1073.878
1058.205, 1094.770
1058.687, 1132.094
1059.169, 1166.882
1059.651, 1194.234
1060.133, 1218.962
1060.615, 1242.323
1061.097, 1263.757
1061.579, 1283.638
1062.062, 1300.943
1062.544, 1311.596
1063.026, 1317.478
1063.508, 1330.827
1063.990, 1358.520
1064.472, 1388.254
1064.954, 1420.942
1065.436, 1448.290
1065.918, 1461.487
1066.401, 1467.279
1066.883, 1477.024
1067.365, 1491.184
1067.847, 1498.676
1068.329, 1496.367
1068.811, 1485.249
1069.293, 1459.622
1069.775, 1431.355
1070.257, 1411.266
1070.740, 1394.321
1071.222, 1371.090
1071.704, 1340.153
1072.186, 1307.907
1072.668, 1274.137
1073.150, 1243.141
1073.632, 1213.392
1074.114, 1190.635
1074.597, 1188.089
1075.079, 1193.190
1075.561, 1179.875
1076.043, 1143.754
1076.525, 1114.686
1077.007, 1113.464
1077.489, 1112.594
1077.971, 1094.205
1078.453, 1073.545
1078.936, 1062.683
1079.418, 1061.113
1079.900, 1067.836
1080.382, 1082.510
1080.864, 1091.447
1081.346, 1084.424
1081.828, 1075.161
1082.310, 1068.755
1082.792, 1065.292
1083.275, 1063.234
1083.757, 1064.578
1084.239, 1076.376
1084.721, 1100.861
1085.203, 1117.854
1085.685, 1114.147
1086.167, 1106.137
1086.649, 1098.228
1087.131, 1093.804
1087.614, 1090.736
1088.096, 1094.840
1088.578, 1123.559
1089.060, 1183.677
1089.542, 1230.999
1090.024, 1252.279
1090.506, 1250.699
1090.988, 1204.397
1091.471, 1155.772
1091.953, 1150.773
1092.435, 1175.830
1092.917, 1191.610
1093.399, 1188.497
1093.881, 1180.521
1094.363, 1163.674
1094.845, 1154.517
1095.328, 1167.353
1095.810, 1186.118
1096.292, 1194.291
1096.774, 1196.226
1097.256, 1208.086
1097.738, 1236.194
1098.220, 1252.567
1098.702, 1234.844
1099.184, 1220.513
1099.667, 1231.220
1100.149, 1247.633
1100.631, 1250.174
1101.113, 1244.415
1101.595, 1248.609
1102.077, 1268.776
1102.559, 1282.084
1103.041, 1277.739
1103.523, 1272.279
1104.006, 1268.270
1104.488, 1268.803
1104.970, 1279.071
1105.452, 1295.197
1105.934, 1307.110
1106.416, 1311.905
1106.898, 1321.245
1107.380, 1348.872
1107.863, 1365.642
1108.345, 1348.811
1108.827, 1330.834
1109.309, 1342.102
1109.791, 1370.174
1110.273, 1381.540
1110.755, 1367.384
1111.237, 1367.232
1111.719, 1403.274
1112.202, 1427.830
1112.684, 1424.377
1113.166, 1411.564
1113.648, 1394.206
1114.130, 1379.073
1114.612, 1383.814
1115.094, 1415.514
1115.576, 1434.955
1116.058, 1431.040
1116.541, 1432.110
1117.023, 1450.325
1117.505, 1465.789
1117.987, 1464.956
1118.469, 1453.513
1118.951, 1441.617
1119.433, 1428.520
1119.915, 1420.385
1120.398, 1417.351
1120.880, 1419.300
1121.362, 1429.267
1121.844, 1439.015
1122.326, 1443.331
1122.808, 1444.768
1123.290, 1448.936
1123.772, 1456.459
1124.255, 1450.975
1124.737, 1423.714
1125.219, 1413.310
1125.701, 1432.752
1126.183, 1448.793
1126.665, 1440.217
1127.147, 1424.257
1127.629, 1429.662
1128.111, 1454.434
1128.594, 1459.163
1129.076, 1439.885
1129.558, 1424.922
1130.040, 1416.481
1130.522, 1422.315
1131.004, 1448.956
1131.486, 1480.400
1131.968, 1494.825
1132.450, 1495.559
1132.933, 1501.228
1133.415, 1511.750
1133.897, 1515.159
1134.379, 1509.998
1134.861, 1505.187
1135.343, 1504.180
1135.825, 1511.171
1136.307, 1534.508
1136.790, 1529.145
1137.272, 1562.110
1137.754, 1537.161
1138.236, 1530.415
1138.718, 1543.206
1139.200, 1555.553
1139.682, 1560.276
1140.164, 1559.399
1140.646, 1552.128
1141.129, 1546.848
1141.611, 1565.391
1142.093, 1595.753
1142.575, 1604.508
1143.057, 1595.399
1143.539, 1588.003
1144.021, 1588.503
1144.503, 1596.959
1144.985, 1614.335
1145.468, 1636.522
1145.950, 1664.245
1146.432, 1689.751
1146.914, 1697.459
1147.396, 1694.530
1147.878, 1696.824
1148.360, 1706.928
1148.842, 1718.813
1149.325, 1729.708
1149.807, 1740.258
1150.289, 1752.651
1150.771, 1763.223
1151.253, 1765.446
1151.735, 1765.520
1152.217, 1774.233
1152.699, 1789.620
1153.182, 1799.661
1153.664, 1799.334
1154.146, 1799.156
1154.628, 1802.298
1155.110, 1809.163
1155.592, 1821.330
1156.074, 1836.195
1156.556, 1853.378
1157.038, 1870.611
1157.521, 1882.890
1158.003, 1888.828
1158.485, 1893.473
1158.967, 1900.950
1159.449, 1903.005
1159.931, 1889.052
1160.413, 1877.235
1160.895, 1882.997
1161.377, 1897.974
1161.860, 1905.044
1162.342, 1902.679
1162.824, 1907.063
1163.306, 1924.417
1163.788, 1937.283
1164.270, 1942.507
1164.752, 1945.102
1165.234, 1944.584
1165.717, 1946.400
1166.199, 1958.780
1166.681, 1980.258
1167.163, 1998.085
1167.645, 2013.612
1168.127, 2017.443
1168.609, 2004.602
1169.091, 2001.009
1169.573, 2018.614
1170.056, 2038.531
1170.538, 2041.838
1171.020, 2034.328
1171.502, 2029.446
1171.984, 2027.994
1172.466, 2050.781
1172.948, 2096.869
1173.430, 2130.836
1173.912, 2143.486
1174.395, 2146.963
1174.877, 2149.149
1175.359, 2150.631
1175.841, 2150.822
1176.323, 2151.643
1176.805, 2158.743
1177.287, 2170.842
1177.769, 2186.601
1178.252, 2203.365
1178.734, 2209.864
1179.216, 2200.577
1179.698, 2190.863
1180.180, 2194.563
1180.662, 2205.945
1181.144, 2220.211
1181.626, 2236.886
1182.109, 2258.292
1182.591, 2280.889
1183.073, 2295.069
1183.555, 2298.791
1184.037, 2303.413
1184.519, 2315.306
1185.001, 2328.996
1185.483, 2346.904
1185.965, 2360.211
1186.448, 2355.805
1186.930, 2345.923
1187.412, 2348.945
1187.894, 2365.723
1188.376, 2384.709
1188.858, 2405.564
1189.340, 2425.269
1189.822, 2452.757
1190.304, 2467.253
1190.787, 2444.098
1191.269, 2419.989
1191.751, 2431.913
1192.233, 2429.792
1192.715, 2438.723
1193.197, 2467.178
1193.679, 2474.561
1194.161, 2514.198
1194.644, 2545.094
1195.126, 2557.309
1195.608, 2562.261
1196.090, 2564.764
1196.572, 2570.836
1197.054, 2593.437
1197.536, 2599.859
1198.018, 2616.628
1198.500, 2636.264
1198.983, 2650.003
1199.465, 2687.173
1199.947, 2710.539
1200.429, 2704.937
1200.911, 2691.935
1201.393, 2689.992
1201.875, 2700.164
1202.357, 2734.130
1202.839, 2777.286
1203.322, 2794.698
1203.804, 2792.322
1204.286, 2792.248
1204.768, 2799.532
1205.250, 2806.365
1205.732, 2806.091
1206.214, 2814.389
1206.696, 2855.209
1207.179, 2898.130
1207.661, 2911.618
1208.143, 2914.149
1208.625, 2936.234
1209.107, 2968.989
1209.589, 2974.753
1210.071, 2939.800
1210.553, 2920.117
1211.036, 2943.966
1211.518, 2968.047
1212.000, 2985.603
1212.482, 2992.576
1212.964, 2969.644
1213.446, 2944.535
1213.928, 2966.823
1214.410, 3033.285
1214.892, 3066.653
1215.375, 3047.760
1215.857, 3049.738
1216.339, 3086.422
1216.821, 3111.738
1217.303, 3104.964
1217.785, 3096.931
1218.267, 3115.960
1218.749, 3151.814
1219.231, 3180.731
1219.714, 3202.791
1220.196, 3216.016
1220.678, 3221.657
1221.160, 3234.239
1221.642, 3255.715
1222.124, 3274.595
1222.606, 3284.701
1223.088, 3291.694
1223.571, 3302.302
1224.053, 3313.464
1224.535, 3317.777
1225.017, 3330.631
1225.499, 3341.439
1225.981, 3351.953
1226.463, 3367.667
1226.945, 3378.502
1227.427, 3394.067
1227.910, 3424.674
1228.392, 3449.051
1228.874, 3450.178
1229.356, 3447.440
1229.838, 3449.624
1230.320, 3458.213
1230.802, 3476.875
1231.284, 3502.656
1231.766, 3525.590
1232.249, 3545.369
1232.731, 3559.544
1233.213, 3561.912
1233.695, 3570.154
1234.177, 3592.030
1234.659, 3611.198
1235.141, 3616.822
1235.623, 3632.715
1236.106, 3629.022
1236.588, 3647.334
1237.070, 3655.465
1237.552, 3652.987
1238.034, 3662.245
1238.516, 3684.709
1238.998, 3712.081
1239.480, 3741.253
1239.963, 3752.234
1240.445, 3725.800
1240.927, 3695.818
1241.409, 3722.417
1241.891, 3773.918
1242.373, 3791.323
1242.855, 3787.140
1243.337, 3783.026
1243.819, 3786.697
1244.302, 3813.186
1244.784, 3867.147
1245.266, 3906.120
1245.748, 3887.188
1246.230, 3871.699
1246.712, 3899.432
1247.194, 3934.079
1247.676, 3948.982
1248.158, 3953.246
1248.641, 3957.030
1249.123, 3962.918
1249.605, 3983.284
1250.087, 4031.996
1250.569, 4061.994
1251.051, 4067.461
1251.533, 4065.273
1252.015, 4055.113
1252.498, 4049.259
1252.980, 4057.752
1253.462, 4069.856
1253.944, 4063.544
1254.426, 4085.703
1254.908, 4066.855
1255.390, 4121.522
1255.872, 4160.947
1256.354, 4181.053
1256.837, 4188.689
1257.319, 4187.517
1257.801, 4188.070
1258.283, 4198.008
1258.765, 4213.850
1259.247, 4241.384
1259.729, 4263.896
1260.211, 4247.679
1260.693, 4221.101
1261.176, 4232.191
1261.658, 4273.469
1262.140, 4304.458
1262.622, 4313.870
1263.104, 4326.425
1263.586, 4357.320
1264.068, 4381.364
1264.550, 4390.666
1265.033, 4392.368
1265.515, 4383.960
1265.997, 4375.556
1266.479, 4377.360
1266.961, 4388.795
1267.443, 4409.364
1267.925, 4442.568
1268.407, 4462.732
1268.890, 4468.242
1269.372, 4478.452
1269.854, 4498.221
1270.336, 4498.725
1270.818, 4461.504
1271.300, 4431.784
1271.782, 4476.918
1272.264, 4553.104
1272.746, 4570.196
1273.229, 4556.352
1273.711, 4566.376
1274.193, 4594.236
1274.675, 4610.094
1275.157, 4610.921
1275.639, 4622.304
1276.121, 4661.792
1276.603, 4689.988
1277.085, 4678.039
1277.568, 4662.892
1278.050, 4656.887
1278.532, 4661.373
1279.014, 4688.868
1279.496, 4721.763
1279.978, 4721.825
1280.460, 4689.742
1280.942, 4684.806
1281.425, 4718.755
1281.907, 4733.584
1282.389, 4720.049
1282.871, 4718.816
1283.353, 4744.077
1283.835, 4773.346
1284.317, 4789.210
1284.799, 4799.181
1285.281, 4817.818
1285.764, 4839.517
1286.246, 4847.139
1286.728, 4847.113
1287.210, 4856.867
1287.692, 4873.885
1288.174, 4885.724
1288.656, 4886.960
##END=



