##NAMES=Bismuth
##RRUFFID=R050650
##IDEAL CHEMISTRY=Bi
##LOCALITY=Wolfram Camp, Queensland, Australia
##OWNER=RRUFF
##SOURCE=University of Arizona Mineral Museum
##DESCRIPTION=Gray metallic fragment
##STATUS=The identification of this mineral has been confirmed by X-ray diffraction and chemical analysis
##URL=rruff.info/R050650
##MEASURED CHEMISTRY=Bi
92.02539, 1513.242
92.50751, 1553.735
92.98962, 1583.849
93.47174, 1571.759
93.95386, 1541.451
94.43597, 1503.835
94.91809, 1467.667
95.40021, 1430.529
95.88232, 1376.826
96.36444, 1298.175
96.84656, 1215.122
97.32867, 1131.327
97.81078, 1048.757
98.29290, 969.7465
98.77502, 895.2692
99.25713, 823.6127
99.73925, 757.7906
100.2214, 698.0242
100.7035, 641.6452
101.1856, 585.0203
101.6677, 528.7761
102.1498, 478.6995
102.6320, 442.3177
103.1141, 425.2596
103.5962, 409.7879
104.0783, 398.2585
104.5604, 387.2475
105.0425, 372.6334
105.5247, 352.7390
106.0068, 330.2622
106.4889, 309.2593
106.9710, 289.1742
107.4531, 271.3520
107.9352, 256.1744
108.4173, 243.6261
108.8995, 233.7615
109.3816, 228.1803
109.8637, 224.3171
110.3458, 219.1771
110.8279, 212.0966
111.3100, 204.9773
111.7922, 200.2207
112.2743, 198.4538
112.7564, 197.1624
113.2385, 196.0168
113.7206, 194.7843
114.2027, 193.2586
114.6849, 191.3562
115.1670, 189.0950
115.6491, 186.5498
116.1312, 183.0623
116.6133, 180.0412
117.0954, 177.7431
117.5776, 176.0347
118.0597, 174.7805
118.5418, 173.9507
119.0239, 173.5581
119.5060, 172.3576
119.9881, 168.5191
120.4703, 165.6962
120.9524, 166.2428
121.4345, 169.6293
121.9166, 173.0742
122.3987, 173.9160
122.8808, 171.6099
123.3630, 169.8913
123.8451, 168.9748
124.3272, 168.5288
124.8093, 168.5813
125.2914, 169.2942
125.7735, 169.5563
126.2557, 167.2827
126.7378, 163.0567
127.2199, 159.6252
127.7020, 159.1356
128.1841, 160.4408
128.6662, 159.6535
129.1483, 154.7241
129.6305, 149.2658
130.1126, 146.0943
130.5947, 145.0767
131.0768, 144.6924
131.5589, 143.6838
132.0410, 141.9626
132.5232, 140.3474
133.0053, 139.0790
133.4874, 137.8416
133.9695, 136.3492
134.4516, 134.5898
134.9337, 132.9340
135.4159, 132.0280
135.8980, 132.5522
136.3801, 132.5357
136.8622, 131.8981
137.3443, 130.7750
137.8264, 129.2025
138.3086, 127.2081
138.7907, 124.9045
139.2728, 122.6447
139.7549, 120.3344
140.2370, 118.1703
140.7191, 116.1336
141.2013, 114.2519
141.6834, 112.6669
142.1655, 111.5429
142.6476, 110.6409
143.1297, 108.9097
143.6118, 105.4375
144.0939, 102.2675
144.5761, 100.3340
145.0582, 99.46816
145.5403, 98.89792
146.0224, 98.29221
146.5045, 97.61964
146.9866, 96.82525
147.4688, 95.82388
147.9509, 94.77068
148.4330, 93.86275
148.9151, 93.13891
149.3972, 92.30650
149.8793, 90.81111
150.3615, 89.15981
150.8436, 88.05202
151.3257, 88.00159
151.8078, 88.52182
152.2899, 88.40381
152.7720, 87.06382
153.2542, 86.13454
153.7363, 86.62964
154.2184, 87.84306
154.7005, 88.67838
155.1826, 88.33728
155.6647, 86.96514
156.1469, 86.07413
156.6290, 86.10396
157.1111, 86.24247
157.5932, 86.15112
158.0753, 85.98739
158.5574, 86.15288
159.0396, 87.07491
159.5217, 88.91058
160.0038, 90.02881
160.4859, 89.83929
160.9680, 89.57237
161.4501, 89.78496
161.9323, 90.44740
162.4144, 91.14562
162.8965, 91.41386
163.3786, 91.06026
163.8607, 91.17986
164.3428, 92.01845
164.8250, 93.11028
165.3071, 94.22609
165.7892, 95.30996
166.2713, 96.22613
166.7534, 96.72280
167.2355, 96.71130
167.7177, 96.95210
168.1998, 97.74856
168.6819, 98.76505
169.1640, 99.61733
169.6461, 100.2523
170.1282, 100.6224
170.6104, 100.4122
171.0925, 99.69418
171.5746, 99.34336
172.0567, 100.1602
172.5388, 101.6601
173.0209, 102.3367
173.5031, 101.5256
173.9852, 100.3430
174.4673, 99.69801
174.9494, 99.56815
175.4315, 99.76531
175.9136, 100.3214
176.3958, 101.2186
176.8779, 101.8818
177.3600, 102.0781
177.8421, 102.1274
178.3242, 102.2837
178.8063, 102.5278
179.2885, 102.5925
179.7706, 102.1371
180.2527, 101.0298
180.7348, 99.96410
181.2169, 99.01028
181.6990, 98.09003
182.1812, 97.18076
182.6633, 96.26973
183.1454, 95.35369
183.6275, 94.42831
184.1096, 93.50488
184.5917, 92.54368
185.0738, 91.54409
185.5560, 90.51559
186.0381, 89.51213
186.5202, 88.53075
187.0023, 87.47176
187.4844, 86.16531
187.9665, 84.37901
188.4487, 82.68913
188.9308, 81.13412
189.4129, 79.66273
189.8950, 78.24349
190.3771, 76.87134
190.8592, 75.51604
191.3414, 74.08379
191.8235, 72.19820
192.3056, 70.96800
192.7877, 71.18313
193.2698, 71.94070
193.7519, 71.99036
194.2341, 70.84092
194.7162, 69.00253
195.1983, 67.40105
195.6804, 65.93484
196.1625, 64.84019
196.6446, 64.32220
197.1268, 64.22666
197.6089, 64.23500
198.0910, 64.29847
198.5731, 64.33281
199.0552, 64.19087
199.5373, 63.84502
200.0195, 63.50292
200.5016, 63.42307
200.9837, 63.50279
201.4658, 63.14677
201.9479, 61.78521
202.4300, 60.31507
202.9122, 59.76192
203.3943, 60.21119
203.8764, 60.91152
204.3585, 61.50298
204.8406, 61.98541
205.3227, 61.77826
205.8048, 59.85085
206.2870, 57.84242
206.7691, 57.01702
207.2512, 57.50761
207.7333, 58.42293
208.2154, 58.94806
208.6975, 59.08547
209.1797, 58.80906
209.6618, 57.34642
210.1439, 55.98039
210.6260, 55.56362
211.1081, 56.19226
211.5902, 57.18844
212.0724, 57.73781
212.5545, 57.80222
213.0366, 57.49041
213.5187, 56.16826
214.0008, 54.95876
214.4829, 54.77693
214.9651, 55.70065
215.4472, 56.89031
215.9293, 57.01331
216.4114, 55.16445
216.8935, 54.13042
217.3756, 54.20210
217.8578, 54.72813
218.3399, 55.50360
218.8220, 56.37728
219.3041, 57.01714
219.7862, 56.83754
220.2683, 55.00945
220.7505, 53.98869
221.2326, 54.11659
221.7147, 54.73476
222.1968, 55.58422
222.6789, 56.52047
223.1610, 57.15587
223.6432, 56.84959
224.1253, 54.76095
224.6074, 53.46514
225.0895, 53.32316
225.5716, 53.75440
226.0537, 54.34550
226.5358, 54.98315
227.0180, 55.60649
227.5001, 56.15088
227.9822, 56.65322
228.4643, 56.90276
228.9464, 56.78278
229.4285, 56.44983
229.9107, 56.07166
230.3928, 55.68792
230.8749, 55.21498
231.3570, 54.44884
231.8391, 53.33050
232.3212, 52.54807
232.8034, 52.44346
233.2855, 52.64618
233.7676, 52.56675
234.2497, 52.02219
234.7318, 51.66217
235.2139, 52.60211
235.6961, 54.65082
236.1782, 56.11255
236.6603, 56.38464
237.1424, 55.86786
237.6245, 55.00669
238.1066, 53.69661
238.5888, 52.56777
239.0709, 52.36988
239.5530, 52.86087
240.0351, 53.38751
240.5172, 53.78289
240.9993, 54.06102
241.4815, 54.31432
241.9636, 54.66426
242.4457, 54.66849
242.9278, 53.48492
243.4099, 51.70555
243.8920, 50.63102
244.3742, 51.37271
244.8563, 53.10679
245.3384, 53.91029
245.8205, 53.51021
246.3026, 52.75873
246.7847, 51.97825
247.2668, 51.21913
247.7490, 50.56703
248.2311, 50.04652
248.7132, 49.66622
249.1953, 49.46381
249.6774, 49.52148
250.1595, 49.59788
250.6417, 49.65377
251.1238, 49.65065
251.6059, 49.50899
252.0880, 49.14378
252.5701, 48.67949
253.0522, 48.49695
253.5344, 48.92809
254.0165, 48.96526
254.4986, 47.95721
254.9807, 46.59357
255.4628, 45.62000
255.9449, 45.37891
256.4271, 45.63848
256.9092, 45.88551
257.3913, 46.14027
257.8734, 46.33633
258.3555, 46.43910
258.8376, 46.49980
259.3198, 46.57775
259.8019, 46.69643
260.2840, 46.81026
260.7661, 46.85704
261.2482, 46.99025
261.7303, 46.71984
262.2125, 45.60336
262.6946, 44.35291
263.1767, 43.51911
263.6588, 43.28112
264.1409, 43.51748
264.6230, 44.12019
265.1052, 45.65294
265.5873, 46.39831
266.0694, 45.64019
266.5515, 44.62513
267.0336, 44.37617
267.5157, 45.07180
267.9979, 46.04194
268.4800, 46.26903
268.9621, 45.33965
269.4442, 44.52397
269.9263, 43.57258
270.4084, 42.88635
270.8906, 42.97649
271.3727, 43.77314
271.8548, 44.55620
272.3369, 44.34904
272.8190, 42.57149
273.3011, 41.77844
273.7833, 42.61074
274.2654, 43.68695
274.7475, 44.26825
275.2296, 44.31819
275.7117, 44.20886
276.1938, 44.33057
276.6760, 44.78042
277.1581, 44.83730
277.6402, 44.27100
278.1223, 43.62349
278.6044, 42.95070
279.0865, 42.37925
279.5686, 42.22060
280.0508, 42.79383
280.5329, 44.12246
281.0150, 44.96751
281.4971, 44.75875
281.9792, 44.74672
282.4613, 45.87733
282.9435, 47.61116
283.4256, 48.56705
283.9077, 47.74886
284.3898, 45.41968
284.8719, 44.00069
285.3540, 44.22239
285.8362, 44.37086
286.3183, 43.87447
286.8004, 43.00808
287.2825, 42.28930
287.7646, 41.98565
288.2467, 42.00448
288.7289, 42.02795
289.2110, 42.18774
289.6931, 42.19373
290.1752, 42.00274
290.6573, 41.63035
291.1394, 41.00574
291.6216, 40.08003
292.1037, 39.11264
292.5858, 38.67088
293.0679, 39.15348
293.5500, 39.39472
294.0321, 38.90916
294.5143, 38.28796
294.9964, 38.31366
295.4785, 39.19316
295.9606, 40.31326
296.4427, 40.80705
296.9248, 40.44469
297.4070, 40.07367
297.8891, 39.66015
298.3712, 39.28532
298.8533, 39.04936
299.3354, 38.95964
299.8175, 38.89268
300.2997, 38.69534
300.7818, 38.32802
301.2639, 38.20353
301.7460, 38.55872
302.2281, 38.96625
302.7102, 39.13580
303.1924, 39.06561
303.6745, 38.90703
304.1566, 38.72317
304.6387, 38.54167
305.1208, 38.65738
305.6029, 39.53279
306.0851, 40.23339
306.5672, 40.11469
307.0493, 39.39044
307.5314, 38.79160
308.0135, 38.76258
308.4956, 39.14833
308.9778, 39.26535
309.4599, 39.07286
309.9420, 38.72570
310.4241, 38.09351
310.9062, 37.35395
311.3883, 36.87194
311.8705, 36.81159
312.3526, 37.04038
312.8347, 37.25864
313.3168, 37.31658
313.7989, 37.69496
314.2810, 39.12292
314.7632, 40.70626
315.2453, 41.09556
315.7274, 39.88351
316.2095, 38.05666
316.6916, 36.92743
317.1737, 36.65965
317.6559, 36.39051
318.1380, 35.90631
318.6201, 35.48024
319.1022, 35.46910
319.5843, 35.89097
320.0664, 36.29500
320.5485, 36.18737
321.0306, 35.51764
321.5128, 35.33397
321.9949, 36.08175
322.4770, 36.92357
322.9591, 37.31941
323.4412, 37.30523
323.9233, 37.24368
324.4055, 37.42493
324.8876, 37.75060
325.3697, 37.55260
325.8518, 36.17918
326.3339, 35.06820
326.8160, 34.88616
327.2982, 35.35799
327.7803, 35.87471
328.2624, 36.15394
328.7445, 36.31755
329.2266, 36.72451
329.7087, 37.64962
330.1909, 38.29570
330.6730, 38.44500
331.1551, 38.25675
331.6372, 37.90762
332.1193, 37.44764
332.6014, 36.88440
333.0836, 36.16093
333.5657, 35.06423
334.0478, 34.53289
334.5299, 35.06818
335.0120, 35.87430
335.4941, 36.41309
335.9763, 36.57744
336.4584, 36.35169
336.9405, 35.63554
337.4226, 34.36038
337.9047, 33.50033
338.3868, 33.05179
338.8690, 32.95310
339.3511, 33.35462
339.8332, 34.10883
340.3153, 34.81792
340.7974, 35.23005
341.2795, 35.38822
341.7617, 35.55204
342.2438, 35.77956
342.7259, 35.94460
343.2080, 36.21920
343.6901, 36.36657
344.1722, 35.85936
344.6544, 34.46013
345.1365, 32.75177
345.6186, 31.95498
346.1007, 32.81058
346.5828, 33.53431
347.0649, 34.14040
347.5471, 34.59495
348.0292, 34.83183
348.5113, 34.85298
348.9934, 34.76929
349.4755, 34.73009
349.9576, 34.81063
350.4398, 34.58181
350.9219, 33.68914
351.4040, 32.85649
351.8861, 32.50399
352.3682, 32.56498
352.8503, 32.72802
353.3325, 32.76005
353.8146, 32.67370
354.2967, 32.67389
354.7788, 32.84969
355.2609, 33.00925
355.7430, 33.09594
356.2252, 33.14622
356.7073, 33.26347
357.1894, 33.50010
357.6715, 33.71925
358.1536, 33.52974
358.6357, 32.15131
359.1179, 31.59456
359.5999, 32.63464
360.0821, 34.00964
360.5642, 34.70130
361.0463, 34.51259
361.5284, 33.90759
362.0105, 33.44582
362.4926, 33.16991
362.9748, 32.87488
363.4569, 32.51399
363.9390, 32.17938
364.4211, 31.74653
364.9032, 31.35522
365.3853, 31.40534
365.8675, 32.33017
366.3496, 33.96281
366.8317, 34.66582
367.3138, 33.56621
367.7959, 32.59546
368.2780, 32.26637
368.7602, 32.26706
369.2423, 32.19304
369.7244, 31.86848
370.2065, 31.42769
370.6886, 31.14035
371.1707, 31.07009
371.6529, 30.99754
372.1350, 30.75291
372.6171, 30.59250
373.0992, 30.77053
373.5813, 31.28126
374.0634, 31.81163
374.5456, 32.07513
375.0277, 32.06963
375.5098, 31.86050
375.9919, 31.54677
376.4740, 30.87542
376.9561, 29.14872
377.4383, 26.98186
377.9204, 25.82473
378.4025, 26.89607
378.8846, 29.31759
379.3667, 30.55540
379.8488, 30.16227
380.3310, 29.73422
380.8131, 30.21466
381.2952, 30.85991
381.7773, 30.77689
382.2594, 29.60754
382.7415, 28.29664
383.2237, 27.94438
383.7058, 28.54333
384.1879, 29.13573
384.6700, 29.46598
385.1521, 29.75077
385.6342, 30.24539
386.1164, 30.92594
386.5985, 31.48807
387.0806, 31.74545
387.5627, 31.76065
388.0448, 31.66934
388.5269, 31.47066
389.0091, 31.20491
389.4912, 30.92847
389.9733, 30.60464
390.4554, 30.11505
390.9375, 29.14050
391.4196, 28.26256
391.9018, 28.17941
392.3839, 28.79627
392.8660, 29.19876
393.3481, 28.82026
393.8302, 28.16195
394.3123, 28.29660
394.7945, 29.53454
395.2766, 30.48729
395.7587, 30.48104
396.2408, 29.86780
396.7229, 29.14170
397.2050, 28.37707
397.6872, 27.77132
398.1693, 27.57562
398.6514, 27.83340
399.1335, 28.09899
399.6156, 28.39582
400.0977, 28.66314
400.5798, 28.78537
401.0620, 28.81468
401.5441, 29.02447
402.0262, 29.65928
402.5083, 30.54968
402.9904, 30.79939
403.4725, 29.75110
403.9547, 28.97759
404.4368, 29.20990
404.9189, 29.71342
405.4010, 29.28991
405.8831, 27.62661
406.3652, 25.86261
406.8474, 25.79518
407.3295, 28.42608
407.8116, 29.84044
408.2937, 29.18902
408.7758, 28.22677
409.2579, 28.00424
409.7401, 28.38589
410.2222, 28.54374
410.7043, 27.77700
411.1864, 26.28380
411.6685, 25.80186
412.1506, 27.63515
412.6328, 28.90536
413.1149, 28.71716
413.5970, 27.97307
414.0791, 27.75848
414.5612, 28.42651
415.0433, 29.35773
415.5255, 29.50690
416.0076, 28.55097
416.4897, 27.93269
416.9718, 28.11262
417.4539, 28.33333
417.9360, 28.14548
418.4182, 27.65531
418.9003, 27.33623
419.3824, 27.68851
419.8645, 28.46896
420.3466, 28.45411
420.8287, 27.06603
421.3109, 26.09749
421.7930, 26.74339
422.2751, 27.97291
422.7572, 28.64037
423.2393, 28.39518
423.7214, 27.72712
424.2036, 26.90732
424.6857, 25.96632
425.1678, 25.71820
425.6499, 26.73792
426.1320, 28.02234
426.6141, 28.60753
427.0963, 28.57294
427.5784, 28.52817
428.0605, 28.91683
428.5426, 29.37433
429.0247, 29.22522
429.5068, 28.39691
429.9890, 27.60692
430.4711, 27.32661
430.9532, 27.43084
431.4353, 27.42555
431.9174, 27.12046
432.3995, 26.98648
432.8817, 27.76471
433.3638, 28.83687
433.8459, 28.55016
434.3280, 26.21511
434.8101, 23.56508
435.2922, 23.21245
435.7744, 25.99911
436.2565, 27.68558
436.7386, 27.40884
437.2207, 26.56878
437.7028, 25.96025
438.1849, 25.66473
438.6671, 25.57540
439.1492, 25.62384
439.6313, 25.81466
440.1134, 26.17790
440.5955, 27.01182
441.0776, 27.65075
441.5598, 28.04032
442.0418, 28.19074
442.5240, 28.03703
443.0061, 27.59565
443.4882, 27.05654
443.9703, 26.63479
444.4524, 26.29300
444.9345, 26.24373
445.4167, 26.83189
445.8988, 27.37528
446.3809, 27.63032
446.8630, 27.65816
447.3451, 27.60122
447.8272, 27.52480
448.3094, 27.44707
448.7915, 27.41891
449.2736, 27.45773
449.7557, 27.49594
450.2378, 27.36661
450.7199, 27.33258
451.2021, 27.79333
451.6842, 28.72824
452.1663, 29.35466
452.6484, 28.68493
453.1305, 27.10111
453.6126, 26.42356
454.0948, 27.09539
454.5769, 27.88381
455.0590, 27.83779
455.5411, 27.34629
456.0232, 27.10003
456.5053, 27.48042
456.9875, 27.83012
457.4696, 27.41213
457.9517, 26.42254
458.4338, 25.73761
458.9159, 25.63154
459.3980, 25.98398
459.8802, 26.80344
460.3623, 28.16708
460.8444, 29.16546
461.3265, 29.63345
461.8086, 29.66623
462.2907, 29.10996
462.7729, 28.09359
463.2550, 27.26446
463.7371, 27.08290
464.2192, 27.43883
464.7013, 27.69570
465.1834, 27.58790
465.6656, 27.72436
466.1477, 28.60517
466.6298, 29.56770
467.1119, 29.81147
467.5940, 29.19454
468.0761, 28.25933
468.5583, 27.63090
469.0404, 27.33113
469.5225, 27.17269
470.0046, 27.39875
470.4867, 27.51404
470.9688, 27.16453
471.4510, 26.64589
471.9331, 26.44641
472.4152, 26.80628
472.8973, 27.53150
473.3794, 28.38504
473.8615, 29.52012
474.3437, 30.11847
474.8258, 29.46758
475.3079, 28.67321
475.7900, 28.48816
476.2721, 28.84295
476.7542, 29.12475
477.2364, 28.82759
477.7185, 28.22232
478.2006, 27.96912
478.6827, 28.13430
479.1648, 28.25851
479.6469, 27.93230
480.1291, 27.50858
480.6112, 27.67979
481.0933, 28.74366
481.5754, 29.64643
482.0575, 29.78756
482.5396, 29.42104
483.0217, 28.95662
483.5038, 28.46683
483.9860, 28.03694
484.4681, 27.76278
484.9502, 27.65326
485.4323, 27.49993
485.9144, 27.21878
486.3965, 26.98551
486.8787, 27.05341
487.3608, 27.18754
487.8429, 26.76167
488.3250, 25.52643
488.8071, 24.25520
489.2892, 24.41847
489.7714, 26.90708
490.2535, 28.66070
490.7356, 29.68125
491.2177, 30.09856
491.6998, 29.63146
492.1819, 28.60985
492.6641, 27.73362
493.1462, 27.45757
493.6283, 27.59999
494.1104, 27.65715
494.5925, 27.64563
495.0746, 27.50304
495.5568, 26.90712
496.0389, 26.39125
496.5210, 26.49201
497.0031, 27.18082
497.4852, 27.73649
497.9673, 27.47004
498.4495, 26.69635
498.9316, 26.34746
499.4137, 26.55351
499.8958, 26.70617
500.3779, 26.32093
500.8600, 25.69556
501.3422, 25.42882
501.8243, 25.58115
502.3064, 25.28456
502.7885, 26.26431
503.2706, 26.83725
503.7527, 27.02515
504.2349, 25.68070
504.7170, 26.31045
505.1991, 26.14625
505.6812, 25.94761
506.1633, 26.84957
506.6454, 25.71781
507.1276, 26.59835
507.6097, 26.67285
508.0918, 27.11336
508.5739, 26.75505
509.0560, 26.64088
509.5381, 27.32185
510.0203, 27.55948
510.5024, 27.10153
510.9845, 27.55359
511.4666, 26.37425
511.9487, 26.62278
512.4308, 27.48624
512.9130, 27.05848
513.3951, 27.51523
513.8772, 27.63238
514.3593, 26.21321
514.8414, 27.46045
515.3235, 27.55173
515.8057, 26.45613
516.2878, 27.60601
516.7699, 26.66981
517.2520, 26.47554
517.7341, 26.83912
518.2162, 26.61713
518.6984, 27.31327
519.1805, 27.54412
519.6626, 27.72969
520.1447, 27.37269
520.6268, 26.89461
521.1089, 26.42202
521.5911, 26.03404
522.0732, 25.97586
522.5553, 26.38448
523.0374, 26.65651
523.5195, 26.53797
524.0016, 26.34898
524.4838, 26.48648
524.9659, 26.87849
525.4480, 26.98904
525.9301, 26.35089
526.4122, 25.22358
526.8943, 24.99130
527.3765, 26.87176
527.8586, 27.89853
528.3407, 27.15998
528.8228, 25.98158
529.3049, 25.42497
529.7870, 25.60129
530.2692, 25.97348
530.7513, 26.12200
531.2334, 26.06691
531.7155, 25.85262
532.1976, 25.27057
532.6797, 25.02121
533.1619, 25.78815
533.6440, 26.85111
534.1261, 27.49299
534.6082, 27.58195
535.0903, 27.46441
535.5724, 27.26063
536.0546, 27.03272
536.5367, 26.95363
537.0188, 27.05858
537.5009, 27.08750
537.9830, 26.72225
538.4651, 26.12408
538.9473, 26.15591
539.4294, 27.64436
539.9115, 28.66496
540.3936, 28.28292
540.8757, 27.32966
541.3578, 26.71488
541.8400, 26.66496
542.3221, 27.12123
542.8042, 28.16265
543.2863, 29.81420
543.7684, 30.48817
544.2505, 29.07714
544.7326, 27.98538
545.2147, 27.82106
545.6968, 28.12410
546.1790, 28.39181
546.6611, 28.49244
547.1432, 28.60514
547.6253, 29.03088
548.1074, 29.71686
548.5895, 29.99609
549.0717, 29.70874
549.5538, 29.30355
550.0359, 29.13805
550.5180, 29.00046
551.0001, 28.45472
551.4822, 27.13042
551.9644, 26.13485
552.4465, 26.44301
552.9286, 27.51780
553.4107, 28.32808
553.8928, 28.67715
554.3749, 28.64778
554.8571, 28.26889
555.3392, 27.54530
555.8213, 26.78276
556.3034, 25.75424
556.7855, 24.96625
557.2676, 24.57051
557.7498, 24.47063
558.2319, 24.66639
558.7140, 25.10124
559.1961, 25.48849
559.6782, 25.48391
560.1603, 25.08227
560.6425, 24.79132
561.1246, 24.67892
561.6067, 24.58601
562.0888, 24.31357
562.5709, 24.10217
563.0530, 24.37387
563.5352, 25.25313
564.0173, 25.94093
564.4994, 25.46395
564.9815, 24.23486
565.4636, 23.67758
565.9457, 24.02115
566.4279, 24.52687
566.9100, 24.69449
567.3921, 24.64334
567.8742, 24.83163
568.3563, 25.58085
568.8384, 26.03488
569.3206, 25.60655
569.8027, 24.87426
570.2848, 24.54058
570.7669, 24.70234
571.2490, 25.06845
571.7311, 25.42366
572.2133, 25.74889
572.6954, 25.82131
573.1775, 25.56805
573.6596, 25.13838
574.1417, 24.27375
574.6238, 23.43255
575.1060, 23.07810
575.5881, 23.21726
576.0702, 23.42423
576.5523, 23.22447
577.0344, 22.81869
577.5165, 23.07662
577.9987, 24.19214
578.4808, 25.11871
578.9629, 25.35536
579.4450, 25.18353
579.9271, 24.95569
580.4092, 24.64282
580.8914, 24.52193
581.3735, 25.06164
581.8556, 25.61860
582.3377, 25.22410
582.8198, 24.02707
583.3019, 23.18772
583.7841, 23.41821
584.2662, 24.34805
584.7483, 24.97043
585.2304, 25.30630
585.7125, 25.26054
586.1946, 24.20781
586.6768, 23.34746
587.1589, 23.68292
587.6410, 24.85463
588.1231, 25.78506
588.6052, 25.83337
589.0873, 25.34083
589.5695, 24.97165
590.0516, 24.73026
590.5337, 24.59823
591.0158, 24.72323
591.4979, 24.77378
591.9800, 24.26058
592.4622, 23.39087
592.9443, 23.03925
593.4264, 24.15267
593.9085, 25.26798
594.3906, 24.79675
594.8727, 23.35214
595.3549, 22.80960
595.8370, 23.81979
596.3191, 25.09610
596.8012, 24.95171
597.2833, 23.04873
597.7654, 22.13518
598.2476, 22.81443
598.7297, 23.62624
599.2118, 24.36419
599.6939, 24.87124
600.1760, 24.89771
600.6581, 24.40742
601.1403, 23.78867
601.6224, 23.48271
602.1045, 23.47479
602.5866, 23.43874
603.0687, 23.33654
603.5508, 23.29068
604.0330, 23.47982
604.5151, 23.70966
604.9972, 23.66915
605.4793, 23.23903
605.9614, 22.96498
606.4435, 23.32779
606.9257, 23.90708
607.4078, 23.97481
607.8899, 23.54994
608.3720, 23.42469
608.8541, 24.18925
609.3362, 25.45764
609.8184, 25.99775
610.3005, 25.14969
610.7826, 24.52982
611.2647, 23.94128
611.7468, 23.74101
612.2289, 24.50038
612.7111, 25.84918
613.1932, 26.84797
613.6753, 26.96151
614.1574, 26.44973
614.6395, 25.66437
615.1216, 24.56192
615.6038, 23.70330
616.0859, 23.14445
616.5680, 22.92214
617.0501, 23.23181
617.5322, 23.91989
618.0143, 24.47538
618.4965, 24.82052
618.9786, 24.97927
619.4607, 24.83057
619.9428, 24.53723
620.4249, 24.44896
620.9070, 24.63738
621.3892, 24.80288
621.8713, 24.60036
622.3534, 24.03896
622.8355, 23.85772
623.3176, 24.76716
623.7997, 25.12931
624.2819, 23.86140
624.7640, 22.50486
625.2461, 22.85276
625.7282, 24.86097
626.2103, 26.50410
626.6924, 25.77859
627.1745, 23.74298
627.6566, 23.20725
628.1387, 24.29664
628.6208, 25.10125
629.1030, 24.78115
629.5851, 23.98836
630.0672, 23.77281
630.5493, 24.18596
631.0314, 24.19794
631.5135, 22.97003
631.9957, 21.95157
632.4778, 22.42573
632.9599, 23.74609
633.4420, 24.51567
633.9241, 24.20856
634.4063, 23.36415
634.8884, 22.67631
635.3705, 22.12950
635.8526, 21.84612
636.3347, 21.80158
636.8168, 22.08062
637.2990, 22.93975
637.7811, 23.99075
638.2632, 24.81687
638.7453, 25.33524
639.2274, 25.55024
639.7095, 25.31047
640.1917, 24.82409
640.6738, 24.46845
641.1559, 24.26436
641.6380, 24.00864
642.1201, 23.55011
642.6022, 23.04498
643.0844, 22.85642
643.5665, 23.17559
644.0486, 23.43345
644.5307, 23.75836
645.0128, 23.89921
645.4949, 23.56387
645.9771, 22.96684
646.4592, 22.51689
646.9413, 22.39557
647.4234, 22.47782
647.9055, 22.75064
648.3876, 23.19931
648.8698, 22.93302
649.3519, 21.43975
649.8340, 20.24915
650.3161, 20.64112
650.7982, 21.90334
651.2803, 22.58049
651.7625, 22.32788
652.2446, 22.13052
652.7267, 22.45248
653.2088, 22.97175
653.6909, 23.36854
654.1730, 23.61193
654.6552, 23.78454
655.1373, 23.94192
655.6194, 23.85900
656.1015, 23.92167
656.5836, 23.48402
657.0657, 23.13078
657.5479, 22.74148
658.0300, 22.58634
658.5121, 23.13396
658.9942, 23.94715
659.4763, 24.05418
659.9584, 22.90601
660.4406, 21.74402
660.9227, 21.93732
661.4048, 22.95193
661.8869, 23.26262
662.3690, 22.63191
662.8511, 22.18200
663.3333, 22.80927
663.8154, 24.17849
664.2975, 24.87733
664.7796, 24.37079
665.2617, 23.93258
665.7438, 23.63233
666.2260, 23.36936
666.7081, 22.96348
667.1902, 22.53925
667.6723, 22.45241
668.1544, 22.93268
668.6365, 23.62495
669.1187, 23.99643
669.6008, 24.05620
670.0829, 24.02467
670.5650, 23.96674
671.0471, 23.70983
671.5292, 22.84888
672.0114, 21.70494
672.4935, 21.42032
672.9756, 22.52848
673.4577, 23.58977
673.9398, 24.37044
674.4219, 24.77728
674.9041, 24.48953
675.3862, 23.69468
675.8683, 23.07215
676.3504, 23.04801
676.8325, 23.41297
677.3146, 23.72400
677.7968, 24.01885
678.2789, 24.06116
678.7610, 23.66112
679.2431, 23.21151
679.7252, 22.87197
680.2073, 22.66545
680.6895, 22.69429
681.1716, 23.14072
681.6537, 23.42520
682.1358, 22.87759
682.6179, 22.12622
683.1000, 22.29836
683.5822, 23.34643
684.0643, 24.08922
684.5464, 23.71828
685.0285, 22.65497
685.5106, 22.10148
685.9927, 22.24129
686.4749, 22.46204
686.9570, 22.95855
687.4391, 23.31500
687.9212, 23.24324
688.4033, 22.92521
688.8854, 22.71142
689.3676, 22.73470
689.8497, 22.78179
690.3318, 22.67580
690.8139, 22.46335
691.2960, 22.16599
691.7781, 21.79960
692.2603, 21.65954
692.7424, 21.94630
693.2245, 22.54162
693.7066, 23.18126
694.1887, 24.29165
694.6708, 24.54423
695.1530, 22.88305
695.6351, 21.51468
696.1172, 21.72309
696.5993, 22.89653
697.0814, 23.96662
697.5635, 24.56985
698.0457, 24.82231
698.5278, 24.71621
699.0099, 24.35763
699.4920, 24.13127
699.9741, 24.08079
700.4562, 23.84418
700.9384, 23.12229
701.4205, 22.23712
701.9026, 21.87290
702.3847, 22.17897
702.8668, 22.64715
703.3489, 23.83379
703.8311, 24.59818
704.3132, 24.08580
704.7953, 22.87598
705.2774, 21.79129
705.7595, 21.12337
706.2416, 20.86880
706.7238, 21.21550
707.2059, 22.00393
707.6880, 22.48735
708.1701, 22.60495
708.6522, 22.83253
709.1343, 23.51318
709.6164, 24.23247
710.0985, 24.18339
710.5806, 23.17515
711.0627, 22.83034
711.5449, 24.11051
712.0270, 25.14828
712.5091, 24.81729
712.9912, 23.80010
713.4733, 22.99593
713.9554, 22.65726
714.4376, 22.65438
714.9197, 23.00407
715.4018, 23.54315
715.8839, 23.48926
716.3660, 22.70502
716.8481, 22.38477
717.3303, 23.11128
717.8124, 24.15154
718.2945, 24.69752
718.7766, 24.78122
719.2587, 24.80814
719.7408, 24.97631
720.2230, 24.89734
720.7051, 24.17062
721.1872, 23.25581
721.6693, 22.64310
722.1514, 22.42051
722.6335, 22.48310
723.1157, 22.82269
723.5978, 23.26483
724.0799, 23.21601
724.5620, 22.58577
725.0441, 22.47635
725.5262, 23.44112
726.0084, 24.35227
726.4905, 24.11666
726.9726, 23.03527
727.4547, 22.28852
727.9368, 22.00265
728.4189, 21.94671
728.9011, 22.07970
729.3832, 22.39141
729.8653, 23.00779
730.3474, 23.80426
730.8295, 24.45749
731.3116, 24.79860
731.7938, 24.82257
732.2759, 24.39453
732.7580, 23.50499
733.2401, 22.91820
733.7222, 22.80823
734.2043, 22.68904
734.6865, 22.09191
735.1686, 21.38650
735.6507, 21.37712
736.1328, 22.22123
736.6149, 23.20154
737.0970, 24.71176
737.5792, 25.81412
738.0613, 25.54293
738.5434, 24.45151
739.0255, 23.62900
739.5076, 23.45527
739.9897, 23.59654
740.4719, 23.69697
740.9540, 23.76574
741.4361, 23.91968
741.9182, 24.21791
742.4003, 24.26917
742.8824, 23.78155
743.3646, 23.14814
743.8467, 22.92501
744.3288, 23.11388
744.8109, 23.22550
745.2930, 23.12668
745.7751, 23.05347
746.2573, 23.21717
746.7394, 23.39375
747.2215, 23.14567
747.7036, 22.54658
748.1857, 22.28969
748.6678, 23.01707
749.1500, 24.23012
749.6321, 24.85057
750.1142, 24.87868
750.5963, 24.50715
751.0784, 23.59751
751.5605, 22.81199
752.0427, 22.71814
752.5248, 23.21000
753.0069, 23.67713
753.4890, 24.18465
753.9711, 24.56890
754.4532, 24.88370
754.9354, 25.00487
755.4175, 24.63859
755.8996, 24.03604
756.3817, 23.79993
756.8638, 24.20596
757.3459, 24.71423
757.8281, 24.59159
758.3102, 24.02897
758.7923, 23.74730
759.2744, 23.79532
759.7565, 24.09958
760.2386, 24.80074
760.7208, 25.40018
761.2029, 24.89206
761.6850, 22.72956
762.1671, 21.71695
762.6492, 22.68845
763.1313, 23.72146
763.6135, 24.38224
764.0956, 24.69473
764.5777, 24.55376
765.0598, 24.04645
765.5419, 23.72482
766.0240, 24.04282
766.5062, 24.66233
766.9883, 25.23844
767.4704, 25.71789
767.9525, 25.83573
768.4346, 25.52419
768.9167, 24.93723
769.3989, 24.08936
769.8810, 23.14255
770.3631, 23.19134
770.8452, 25.25491
771.3273, 26.45670
771.8094, 26.01608
772.2916, 25.27302
772.7737, 24.68137
773.2558, 24.36363
773.7379, 24.65252
774.2200, 25.90760
774.7021, 26.62389
775.1843, 24.98203
775.6664, 22.70001
776.1485, 22.33524
776.6306, 23.64650
777.1127, 24.90519
777.5948, 25.35029
778.0770, 25.26532
778.5591, 24.99598
779.0412, 24.51942
779.5233, 24.35327
780.0054, 24.62969
780.4875, 24.93846
780.9697, 25.08346
781.4518, 25.25406
781.9339, 25.82697
782.4160, 26.72658
782.8981, 27.02115
783.3802, 25.77000
783.8624, 24.68536
784.3445, 24.75822
784.8266, 25.43637
785.3087, 26.20111
785.7908, 26.85314
786.2729, 27.13329
786.7551, 26.84784
787.2372, 26.18127
787.7193, 25.37842
788.2014, 24.44782
788.6835, 23.92999
789.1656, 23.94836
789.6478, 24.15792
790.1299, 24.37701
790.6120, 24.63183
791.0941, 24.99327
791.5762, 25.50321
792.0583, 25.99152
792.5404, 26.49405
793.0225, 26.92430
793.5046, 27.37997
793.9868, 27.67400
794.4689, 27.44124
794.9510, 26.67332
795.4331, 25.96254
795.9152, 25.83912
796.3973, 25.98732
796.8795, 25.85985
797.3616, 25.52250
797.8437, 25.30020
798.3258, 25.27284
798.8079, 25.37453
799.2900, 25.59647
799.7722, 25.86711
800.2543, 25.72193
800.7364, 24.59653
801.2185, 24.20918
801.7006, 25.69379
802.1827, 26.93774
802.6649, 26.70282
803.1470, 25.60568
803.6291, 24.74753
804.1112, 24.32175
804.5933, 24.27772
805.0754, 24.75284
805.5576, 25.47541
806.0397, 26.42475
806.5218, 27.35950
807.0039, 27.68134
807.4860, 27.21819
807.9681, 26.54646
808.4503, 26.31044
808.9324, 26.41658
809.4145, 26.30448
809.8966, 25.89163
810.3787, 25.80544
810.8608, 26.34127
811.3430, 26.99109
811.8251, 27.30602
812.3072, 27.32647
812.7893, 27.36967
813.2714, 27.53778
813.7535, 27.57608
814.2357, 27.43402
814.7178, 27.16448
815.1999, 26.60826
815.6820, 25.99919
816.1641, 25.80303
816.6462, 26.18554
817.1284, 26.78295
817.6105, 27.56189
818.0926, 28.20087
818.5747, 27.85132
819.0568, 26.66833
819.5389, 25.73190
820.0211, 25.42184
820.5032, 25.42548
820.9853, 25.40013
821.4674, 25.35248
821.9495, 25.38294
822.4316, 25.49151
822.9138, 25.67868
823.3959, 25.94641
823.8780, 26.29350
824.3601, 26.90771
824.8422, 27.58505
825.3243, 27.76743
825.8065, 27.21773
826.2886, 26.52108
826.7707, 25.54256
827.2528, 24.81053
827.7349, 24.95566
828.2170, 25.70284
828.6992, 26.46117
829.1813, 27.00539
829.6634, 27.31623
830.1455, 27.30322
830.6276, 27.05661
831.1097, 26.88260
831.5919, 26.78033
832.0740, 26.58228
832.5561, 26.16707
833.0382, 25.98194
833.5203, 26.56796
834.0024, 27.76986
834.4846, 28.43194
834.9667, 28.50471
835.4488, 28.08518
835.9309, 26.38840
836.4130, 25.04770
836.8951, 25.21054
837.3773, 26.21474
837.8594, 26.80700
838.3415, 26.66772
838.8236, 26.54500
839.3057, 26.90170
839.7878, 27.38799
840.2700, 27.72610
840.7521, 27.91225
841.2342, 28.00039
841.7163, 27.99449
842.1984, 27.79807
842.6805, 27.29539
843.1627, 26.57656
843.6448, 25.77741
844.1269, 24.88239
844.6090, 24.70054
845.0911, 25.59382
845.5732, 26.41272
846.0554, 26.25694
846.5375, 25.51486
847.0196, 25.30950
847.5017, 25.92836
847.9838, 26.43903
848.4659, 26.75344
848.9481, 27.06737
849.4302, 27.69426
849.9123, 28.22630
850.3944, 28.00238
850.8765, 27.03144
851.3586, 26.29362
851.8408, 26.63995
852.3229, 27.05819
852.8050, 26.45051
853.2871, 25.41697
853.7692, 25.05281
854.2513, 25.41988
854.7335, 25.81103
855.2156, 25.77322
855.6977, 25.56964
856.1798, 25.84816
856.6619, 26.57280
857.1440, 24.52645
857.6262, 26.74085
858.1083, 27.98368
858.5904, 28.30714
859.0725, 24.95766
859.5546, 26.35103
860.0367, 25.84368
860.5189, 25.25839
861.0010, 27.31930
861.4831, 24.50403
861.9652, 26.52298
862.4473, 26.61219
862.9294, 27.58460
863.4116, 26.64454
863.8937, 27.45704
864.3758, 26.43603
864.8579, 25.33479
865.3400, 25.89392
865.8221, 26.78543
866.3043, 26.14651
866.7864, 24.56017
867.2685, 23.92908
867.7506, 24.83632
868.2327, 26.11585
868.7148, 26.66741
869.1970, 26.55742
869.6791, 25.67980
870.1612, 24.03628
870.6433, 23.52142
871.1254, 24.76118
871.6075, 26.07406
872.0897, 26.10893
872.5718, 25.30553
873.0539, 25.11930
873.5360, 26.05776
874.0181, 26.44878
874.5002, 25.73439
874.9823, 25.10835
875.4644, 24.98779
875.9465, 25.13659
876.4286, 25.36642
876.9108, 25.63473
877.3929, 25.69444
877.8750, 25.33393
878.3571, 24.89176
878.8392, 24.41453
879.3214, 24.04970
879.8035, 24.07305
880.2856, 24.38495
880.7677, 24.59810
881.2498, 24.51666
881.7319, 24.29475
882.2141, 24.20153
882.6962, 24.11019
883.1783, 23.41260
883.6604, 22.19155
884.1425, 21.66482
884.6246, 22.32246
885.1068, 23.23208
885.5889, 23.33605
886.0710, 22.76760
886.5531, 22.60012
887.0352, 23.01270
887.5173, 23.30899
887.9995, 23.41357
888.4816, 23.36709
888.9637, 23.01921
889.4458, 22.59018
889.9279, 22.59495
890.4100, 23.22835
890.8922, 23.52486
891.3743, 23.06735
891.8564, 22.57276
892.3385, 22.25972
892.8206, 22.15168
893.3027, 22.47061
893.7849, 23.05602
894.2670, 23.13453
894.7491, 22.01574
895.2312, 20.92392
895.7133, 21.21289
896.1954, 22.16111
896.6776, 22.62820
897.1597, 22.59122
897.6418, 22.50325
898.1239, 22.55855
898.6060, 22.60489
899.0881, 22.47046
899.5703, 22.16032
900.0524, 21.62622
900.5345, 20.84864
901.0166, 20.22094
901.4987, 19.79309
901.9808, 19.72425
902.4630, 20.26489
902.9451, 21.17331
903.4272, 21.56914
903.9093, 21.08405
904.3914, 20.95027
904.8735, 21.55661
905.3557, 22.02910
905.8378, 22.04010
906.3199, 21.78425
906.8020, 21.38184
907.2841, 20.86659
907.7662, 20.51932
908.2484, 20.43200
908.7305, 20.49442
909.2126, 20.96236
909.6947, 21.32166
910.1768, 20.82537
910.6589, 19.84765
911.1411, 19.46473
911.6232, 20.09576
912.1053, 20.75798
912.5874, 20.38722
913.0695, 20.78895
913.5516, 19.78518
914.0338, 20.45211
914.5159, 20.44673
914.9980, 19.57002
915.4801, 18.94011
915.9622, 19.49344
916.4443, 20.67624
916.9265, 21.16914
917.4086, 20.97410
917.8907, 20.74053
918.3728, 20.52868
918.8549, 20.09941
919.3370, 19.13096
919.8192, 18.37992
920.3013, 19.09922
920.7834, 21.36019
921.2655, 22.28904
921.7476, 20.99506
922.2297, 19.90833
922.7119, 19.34005
923.1940, 19.09086
923.6761, 19.27394
924.1582, 19.64320
924.6403, 19.62242
925.1224, 18.98909
925.6046, 18.73544
926.0867, 19.59870
926.5688, 20.34429
927.0509, 20.08113
927.5330, 19.48734
928.0151, 19.44208
928.4973, 19.93156
928.9794, 20.31007
929.4615, 20.24769
929.9436, 20.02028
930.4257, 19.96056
930.9078, 19.82994
931.3900, 18.94848
931.8721, 17.67233
932.3542, 17.30298
932.8363, 18.22099
933.3184, 19.38969
933.8005, 19.75701
934.2827, 20.39168
934.7648, 20.80979
935.2469, 20.76668
935.7290, 20.95999
936.2111, 20.42038
936.6932, 19.65209
937.1754, 18.90784
937.6575, 18.24920
938.1396, 17.80484
938.6217, 17.59199
939.1038, 17.29757
939.5859, 16.62703
940.0681, 16.71970
940.5502, 18.37913
941.0323, 20.18945
941.5144, 21.06623
941.9965, 21.10943
942.4786, 20.67871
942.9608, 19.29819
943.4429, 18.44614
943.9250, 18.57540
944.4071, 18.77776
944.8892, 18.72747
945.3713, 18.53106
945.8535, 18.20395
946.3356, 17.81829
946.8177, 17.78173
947.2998, 18.51828
947.7819, 19.18018
948.2640, 19.50881
948.7462, 19.45055
949.2283, 18.75975
949.7104, 17.69255
950.1925, 16.53516
950.6746, 15.44542
951.1567, 15.13106
951.6389, 16.81519
952.1210, 18.97366
952.6031, 19.72445
953.0852, 19.42264
953.5673, 18.54725
954.0494, 17.36954
954.5316, 16.65862
955.0137, 16.83664
955.4958, 17.42461
955.9779, 17.81516
956.4600, 18.01806
956.9421, 17.97495
957.4242, 17.70537
957.9063, 17.83263
958.3884, 18.56113
958.8705, 19.20942
959.3527, 19.21303
959.8348, 18.75788
960.3169, 18.36075
960.7990, 18.01424
961.2811, 17.75912
961.7632, 17.60186
962.2454, 17.49932
962.7275, 17.31845
963.2096, 17.37626
963.6917, 18.26542
964.1738, 19.83317
964.6559, 20.36064
965.1381, 18.91424
965.6202, 17.93436
966.1023, 17.75559
966.5844, 17.74476
967.0665, 17.54292
967.5486, 17.39547
968.0308, 17.74823
968.5129, 18.61651
968.9950, 19.21436
969.4771, 19.28559
969.9592, 19.18545
970.4413, 18.83517
970.9235, 18.53659
971.4056, 18.61803
971.8877, 18.91509
972.3698, 19.05009
972.8519, 18.92157
973.3340, 18.81770
973.8162, 19.04901
974.2983, 19.21747
974.7804, 18.91294
975.2625, 18.38755
975.7446, 17.88974
976.2267, 17.53176
976.7089, 17.55846
977.1910, 18.11038
977.6731, 18.60546
978.1552, 18.28266
978.6373, 17.59581
979.1194, 17.28262
979.6016, 17.30010
980.0837, 17.42966
980.5658, 17.64074
981.0479, 18.21524
981.5300, 19.42402
982.0121, 20.57868
982.4943, 20.12214
982.9764, 18.43786
983.4585, 17.82734
983.9406, 18.32727
984.4227, 18.62328
984.9048, 18.29731
985.3870, 17.73420
985.8691, 17.24169
986.3512, 16.86328
986.8333, 16.76717
987.3154, 16.98644
987.7975, 17.23266
988.2797, 17.50648
988.7618, 17.77149
989.2439, 18.07543
989.7260, 18.21008
990.2081, 17.79857
990.6902, 16.96615
991.1724, 16.96996
991.6545, 18.46486
992.1366, 19.24624
992.6187, 18.69540
993.1008, 18.14867
993.5829, 18.30740
994.0651, 18.74483
994.5472, 18.95038
995.0293, 18.92583
995.5114, 18.55680
995.9935, 17.48777
996.4756, 16.58769
996.9578, 15.74107
997.4399, 15.33175
997.9220, 15.93304
998.4041, 16.94745
998.8862, 17.44248
999.3683, 17.30532
999.8505, 17.07952
1000.333, 16.90485
1000.815, 16.65489
1001.297, 15.97423
1001.779, 15.47880
1002.261, 15.83334
1002.743, 16.72415
1003.225, 17.58283
1003.707, 18.27361
1004.190, 18.46418
1004.672, 17.40679
1005.154, 16.45489
1005.636, 16.62281
1006.118, 17.32296
1006.600, 18.02948
1007.082, 18.57805
1007.564, 18.79681
1008.046, 18.62114
1008.529, 18.30847
1009.011, 17.99522
1009.493, 17.70730
1009.975, 17.49523
1010.457, 17.32031
1010.939, 17.04138
1011.421, 16.71630
1011.903, 16.66385
1012.385, 17.04843
1012.868, 17.47412
1013.350, 17.49830
1013.832, 17.27394
1014.314, 17.04707
1014.796, 16.82387
1015.278, 16.52483
1015.760, 16.19070
1016.242, 16.17603
1016.725, 16.70428
1017.207, 17.45010
1017.689, 18.02396
1018.171, 18.41407
1018.653, 18.47210
1019.135, 18.26163
1019.617, 18.26819
1020.099, 18.58819
1020.581, 18.79674
1021.064, 18.56907
1021.546, 18.25677
1022.028, 18.74811
1022.510, 19.90159
1022.992, 19.90687
1023.474, 18.73342
1023.956, 17.47277
1024.438, 16.33604
1024.921, 15.88424
1025.403, 16.67671
1025.885, 18.05258
1026.367, 18.40339
1026.849, 17.65555
1027.331, 16.97846
1027.813, 16.30063
1028.295, 16.16098
1028.777, 16.84523
1029.260, 17.60794
1029.742, 17.80925
1030.224, 17.69226
1030.706, 18.00863
1031.188, 18.96077
1031.670, 19.23653
1032.152, 18.68067
1032.634, 17.82385
1033.116, 16.45094
1033.599, 15.54623
1034.081, 16.16008
1034.563, 17.73347
1035.045, 18.47117
1035.527, 18.00087
1036.009, 18.04648
1036.491, 19.22294
1036.973, 19.69760
1037.456, 18.41633
1037.938, 16.96255
1038.420, 16.77414
1038.902, 17.44239
1039.384, 17.53940
1039.866, 16.67084
1040.348, 16.34578
1040.830, 17.02985
1041.313, 17.59050
1041.795, 17.51102
1042.277, 17.40747
1042.759, 18.08822
1043.241, 17.68867
1043.723, 17.32503
1044.205, 17.42449
1044.687, 16.34809
1045.169, 16.23550
1045.651, 16.41500
1046.134, 16.77359
1046.616, 17.29014
1047.098, 18.21344
1047.580, 19.25843
1048.062, 19.55419
1048.544, 18.73899
1049.026, 18.18489
1049.508, 18.29812
1049.991, 18.40194
1050.473, 18.16786
1050.955, 17.92390
1051.437, 18.10466
1051.919, 18.48113
1052.401, 18.31238
1052.883, 17.25925
1053.365, 16.73662
1053.848, 17.54402
1054.330, 18.28981
1054.812, 18.62074
1055.294, 18.51250
1055.776, 17.63175
1056.258, 16.37537
1056.740, 15.69966
1057.222, 15.84832
1057.704, 16.06922
1058.187, 16.02925
1058.669, 16.17471
1059.151, 17.24178
1059.633, 18.09518
1060.115, 17.38015
1060.597, 15.75451
1061.079, 14.73219
1061.561, 14.61772
1062.043, 15.08963
1062.526, 16.90002
1063.008, 18.17094
1063.490, 17.74187
1063.972, 16.69750
1064.454, 15.72813
1064.936, 14.99409
1065.418, 14.58195
1065.900, 14.50711
1066.383, 14.82969
1066.865, 16.15334
1067.347, 17.13075
1067.829, 16.76374
1068.311, 16.12167
1068.793, 16.05748
1069.275, 16.45161
1069.757, 17.01021
1070.240, 17.65457
1070.722, 18.12773
1071.204, 18.40878
1071.686, 18.38230
1072.168, 17.80156
1072.650, 17.07556
1073.132, 16.31104
1073.614, 15.74553
1074.096, 15.89583
1074.578, 16.73833
1075.061, 17.24709
1075.543, 16.79192
1076.025, 16.25471
1076.507, 15.89655
1076.989, 15.78337
1077.471, 16.27592
1077.953, 16.88746
1078.435, 16.75688
1078.918, 15.90049
1079.400, 15.26413
1079.882, 15.22450
1080.364, 15.41554
1080.846, 15.99531
1081.328, 16.39342
1081.810, 15.81006
1082.292, 15.02257
1082.774, 15.29323
1083.257, 16.48753
1083.739, 17.21721
1084.221, 16.84492
1084.703, 16.48877
1085.185, 16.80725
1085.667, 17.14718
1086.149, 16.97499
1086.631, 16.65600
1087.114, 16.81946
1087.596, 17.25887
1088.078, 17.00389
1088.560, 15.54662
1089.042, 14.52520
1089.524, 14.74546
1090.006, 15.43161
1090.488, 16.58468
1090.970, 17.62695
1091.453, 17.88044
1091.935, 17.56430
1092.417, 17.41804
1092.899, 17.67167
1093.381, 17.43547
1093.863, 15.53129
1094.345, 14.15695
1094.827, 14.90666
1095.309, 16.09343
1095.792, 16.20813
1096.274, 15.67866
1096.756, 15.48291
1097.238, 15.79363
1097.720, 16.37952
1098.202, 17.79802
1098.684, 18.60609
1099.166, 17.79653
1099.649, 16.75450
1100.131, 16.49426
1100.613, 16.60096
1101.095, 16.30878
1101.577, 15.58850
1102.059, 15.11949
1102.541, 15.08243
1103.023, 15.28095
1103.505, 16.20380
1103.988, 16.73780
1104.470, 15.82459
1104.952, 14.52036
1105.434, 13.98829
1105.916, 14.22203
1106.398, 14.76268
1106.880, 15.82119
1107.362, 16.52007
1107.844, 16.57567
1108.327, 16.44180
1108.809, 16.32435
1109.291, 16.05703
1109.773, 15.21015
1110.255, 14.11784
1110.737, 13.82623
1111.219, 14.67175
1111.701, 15.27668
1112.184, 15.47598
1112.666, 15.52006
1113.148, 15.29412
1113.630, 15.10146
1114.112, 15.23037
1114.594, 15.49091
1115.076, 15.42935
1115.558, 15.76996
1116.041, 16.27750
1116.523, 16.36453
1117.005, 17.28965
1117.487, 17.73536
1117.969, 17.73429
1118.451, 16.96792
1118.933, 16.08018
1119.415, 16.03274
1119.897, 16.70431
1120.380, 16.66356
1120.862, 15.24374
1121.344, 14.83515
1121.826, 16.09646
1122.308, 17.13710
1122.790, 17.32238
1123.272, 16.95615
1123.754, 16.05398
1124.236, 15.01701
1124.719, 15.39422
1125.201, 17.70098
1125.683, 18.61895
1126.165, 17.79402
1126.647, 16.87221
1127.129, 16.12907
1127.611, 15.82109
1128.093, 16.26196
1128.576, 16.92950
1129.058, 16.75125
1129.540, 16.97468
1130.022, 16.93350
1130.504, 16.46651
1130.986, 16.53788
1131.468, 15.50825
1131.950, 15.06247
1132.432, 16.10507
1132.915, 17.47353
1133.397, 17.79347
1133.879, 17.24871
1134.361, 16.18718
1134.843, 14.72532
1135.325, 14.55922
1135.807, 15.72612
1136.289, 16.65682
1136.771, 16.84472
1137.254, 16.69056
1137.736, 16.48676
1138.218, 16.28031
1138.700, 16.21238
1139.182, 16.20186
1139.664, 15.81962
1140.146, 15.22883
1140.628, 15.30805
1141.111, 16.08829
1141.593, 16.61280
1142.075, 16.37857
1142.557, 15.77830
1143.039, 15.08505
1143.521, 14.45646
1144.003, 13.94767
1144.485, 13.80187
1144.968, 14.92506
1145.450, 16.86652
1145.932, 18.17134
1146.414, 18.34770
1146.896, 17.52147
1147.378, 15.14621
1147.860, 13.12954
1148.342, 13.78144
1148.824, 15.41450
1149.307, 16.27180
1149.789, 16.51044
1150.271, 16.65193
1150.753, 16.76123
1151.235, 16.60363
1151.717, 16.04421
1152.199, 15.39697
1152.681, 14.71666
1153.163, 14.15368
1153.646, 13.73287
1154.128, 13.54313
1154.610, 13.75348
1155.092, 14.24277
1155.574, 14.78497
1156.056, 15.34376
1156.538, 15.72726
1157.020, 15.68793
1157.503, 15.74284
1157.985, 16.07982
1158.467, 16.51051
1158.949, 17.03848
1159.431, 17.52047
1159.913, 17.78956
1160.395, 17.84593
1160.877, 17.72839
1161.359, 17.15509
1161.842, 16.99075
1162.324, 17.71121
1162.806, 18.11481
1163.288, 17.66290
1163.770, 17.08765
1164.252, 17.03717
1164.734, 16.29694
1165.216, 16.60420
1165.698, 15.26299
1166.181, 14.52861
1166.663, 14.39093
1167.145, 15.05802
1167.627, 16.91629
1168.109, 18.28998
1168.591, 18.39170
1169.073, 17.57108
1169.555, 16.00473
1170.037, 14.15762
1170.520, 13.98410
1171.002, 15.43217
1171.484, 16.34938
1171.966, 16.65064
1172.448, 17.11745
1172.930, 17.94813
1173.412, 18.40204
1173.894, 17.96028
1174.377, 17.09883
1174.859, 16.33854
1175.341, 15.79514
1175.823, 15.94510
1176.305, 16.55129
1176.787, 16.95525
1177.269, 17.07833
1177.751, 17.00890
1178.234, 16.79264
1178.716, 16.49821
1179.198, 16.09307
1179.680, 15.82309
1180.162, 16.07261
1180.644, 16.52110
1181.126, 16.95385
1181.608, 17.18392
1182.090, 16.65388
1182.573, 15.61534
1183.055, 15.36542
1183.537, 16.56808
1184.019, 17.25165
1184.501, 15.56082
1184.983, 14.10250
1185.465, 14.59639
1185.947, 15.69633
1186.429, 16.49069
1186.912, 16.90051
1187.394, 16.83926
1187.876, 16.33892
1188.358, 16.08484
1188.840, 16.33563
1189.322, 16.59853
1189.804, 17.10365
1190.286, 17.23411
1190.769, 16.29117
1191.251, 15.43699
1191.733, 15.93109
1192.215, 15.44450
1192.697, 15.37392
1193.179, 15.85715
1193.661, 15.38385
1194.143, 16.04755
1194.625, 16.37222
1195.108, 16.05458
1195.590, 15.77536
1196.072, 15.90399
1196.554, 15.98806
1197.036, 15.41863
1197.518, 14.56525
1198.000, 14.66170
1198.482, 15.60160
1198.964, 16.60872
1199.447, 17.56665
1199.929, 17.74138
1200.411, 17.05022
1200.893, 16.42613
1201.375, 16.41239
1201.857, 16.54115
1202.339, 16.21603
1202.821, 15.73451
1203.304, 15.59360
1203.786, 15.64159
1204.268, 15.48485
1204.750, 15.30439
1205.232, 15.82247
1205.714, 17.03189
1206.196, 17.80598
1206.678, 17.54218
1207.161, 16.82087
1207.643, 15.51972
1208.125, 14.43783
1208.607, 14.17052
1209.089, 14.37199
1209.571, 14.89596
1210.053, 15.49935
1210.535, 15.61489
1211.017, 15.11450
1211.500, 15.12577
1211.982, 16.23176
1212.464, 17.21523
1212.946, 18.13248
1213.428, 18.60113
1213.910, 18.25360
1214.392, 17.66462
1214.874, 17.39992
1215.356, 17.30391
1215.839, 16.83431
1216.321, 16.69680
1216.803, 16.62047
1217.285, 16.22684
1217.767, 16.51700
1218.249, 16.28178
1218.731, 16.11175
1219.213, 16.28672
1219.696, 16.69614
1220.178, 17.31030
1220.660, 17.84910
1221.142, 17.29014
1221.624, 16.18518
1222.106, 16.84357
1222.588, 18.64164
1223.070, 18.85550
1223.552, 17.30867
1224.035, 16.04158
1224.517, 16.00802
1224.999, 16.29844
1225.481, 16.27573
1225.963, 16.08497
1226.445, 15.64818
1226.927, 15.29898
1227.409, 15.55500
1227.891, 16.07017
1228.374, 16.15089
1228.856, 15.84164
1229.338, 15.91751
1229.820, 16.74427
1230.302, 17.38999
1230.784, 17.81530
1231.266, 17.78872
1231.748, 16.70525
1232.231, 15.74580
1232.713, 15.90123
1233.195, 16.36765
1233.677, 15.81910
1234.159, 16.21421
1234.641, 16.40516
1235.123, 16.12008
1235.605, 16.77686
1236.088, 16.08502
1236.570, 15.71824
1237.052, 16.14268
1237.534, 16.61199
1238.016, 16.65108
1238.498, 16.45951
1238.980, 16.21605
1239.462, 16.06718
1239.944, 16.74053
1240.427, 16.20841
1240.909, 17.37507
1241.391, 16.00360
1241.873, 15.40923
1242.355, 15.88725
1242.837, 16.36512
1243.319, 16.29301
1243.801, 16.00327
1244.283, 16.39447
1244.766, 15.62130
1245.248, 16.18529
1245.730, 16.36620
1246.212, 15.01673
1246.694, 15.64343
1247.176, 15.47818
1247.658, 15.28045
1248.140, 16.18530
1248.622, 15.05841
1249.105, 15.94587
1249.587, 16.02919
1250.069, 16.48050
1250.551, 16.13495
1251.033, 16.03552
1251.515, 16.73322
1251.997, 16.98953
1252.479, 16.55225
1252.962, 17.02705
1253.444, 15.87232
1253.926, 16.14745
1254.408, 17.03947
1254.890, 16.64227
1255.372, 17.13153
1255.854, 17.28318
1256.336, 15.90048
1256.818, 17.18617
1257.301, 17.31796
1257.783, 16.26475
1258.265, 17.45901
1258.747, 16.56916
1259.229, 16.42321
1259.711, 16.83710
1260.193, 16.66737
1260.675, 17.41777
1261.157, 17.28174
1261.640, 17.06662
1262.122, 17.19701
1262.604, 16.34804
1263.086, 17.31601
1263.568, 17.04285
1264.050, 18.38920
1264.532, 18.97728
1265.014, 17.97891
1265.497, 16.74381
1265.979, 16.97560
1266.461, 16.74236
1266.943, 16.91471
1267.425, 17.82414
1267.907, 18.02872
1268.389, 19.34218
1268.871, 20.29175
1269.354, 20.62200
1269.836, 20.16732
1270.318, 18.83618
1270.800, 17.67950
1271.282, 17.81843
1271.764, 18.41909
1272.246, 18.07842
1272.728, 17.30718
1273.210, 16.88339
1273.693, 16.78724
1274.175, 16.90509
1274.657, 17.23265
1275.139, 18.00917
1275.621, 19.24761
1276.103, 19.83197
1276.585, 18.93864
1277.067, 17.91964
1277.549, 17.04793
1278.032, 16.36312
1278.514, 15.48498
1278.996, 15.22205
1279.478, 16.82954
1279.960, 19.10940
1280.442, 19.60235
1280.924, 18.38254
1281.406, 17.87530
1281.889, 18.15922
1282.371, 18.68430
1282.853, 19.44705
1283.335, 19.53947
1283.817, 18.71948
1284.299, 18.52156
1284.781, 19.97750
1285.263, 21.69392
1285.745, 22.24438
1286.228, 21.62519
##END=



