##NAMES=Blixite
##RRUFFID=R070364
##IDEAL CHEMISTRY=Pb^2+^_8_O_5_(OH)_2_Cl_4_
##LOCALITY=Upper Bolivia Stope, 185 m level, Nya Schaktet Shaft, Langban, Filipstad, Varmland, Sweden
##OWNER=RRUFF
##SOURCE=Michael Scott
##DESCRIPTION=Pale gray-yellow massive with vitreous luster, associated with black hausmannite
##STATUS=The identification of this mineral has been confirmed only by single crystal X-ray diffraction.
##URL=rruff.info/R070364
115.2340, 737.1103
115.7161, 821.4383
116.1982, 912.2726
116.6804, 1012.104
117.1625, 1119.275
117.6446, 1232.606
118.1267, 1366.521
118.6088, 1522.972
119.0909, 1705.943
119.5731, 1922.737
120.0552, 2174.594
120.5373, 2461.370
121.0194, 2783.503
121.5015, 3142.300
121.9836, 3535.097
122.4658, 3986.540
122.9479, 4460.206
123.4300, 4916.479
123.9121, 5336.679
124.3942, 5745.572
124.8763, 6200.029
125.3585, 6728.842
125.8406, 7264.751
126.3227, 7767.232
126.8048, 8274.803
127.2869, 8833.728
127.7690, 9462.974
128.2512, 10161.56
128.7333, 10901.86
129.2154, 11667.66
129.6975, 12506.08
130.1796, 13453.81
130.6617, 14468.29
131.1439, 15500.60
131.6260, 16530.81
132.1081, 17545.32
132.5902, 18435.11
133.0723, 19154.56
133.5544, 19784.62
134.0366, 20261.47
134.5187, 20659.56
135.0008, 21088.44
135.4829, 21613.26
135.9650, 22234.56
136.4471, 22996.20
136.9293, 24144.06
137.4114, 25166.99
137.8935, 26067.59
138.3756, 26734.44
138.8577, 26966.69
139.3398, 26603.61
139.8220, 25635.96
140.3041, 24341.29
140.7862, 22513.97
141.2683, 20637.69
141.7504, 18845.59
142.2325, 17178.27
142.7147, 15700.22
143.1968, 14457.95
143.6789, 13473.11
144.1610, 12642.82
144.6431, 11989.34
145.1252, 11452.48
145.6074, 11023.66
146.0895, 10691.83
146.5716, 10414.60
147.0537, 10166.28
147.5358, 9949.361
148.0179, 9738.434
148.5001, 9538.284
148.9822, 9340.706
149.4643, 9138.147
149.9464, 8929.303
150.4285, 8722.219
150.9106, 8522.891
151.3928, 8331.151
151.8749, 8135.868
152.3570, 7932.129
152.8391, 7727.357
153.3212, 7522.400
153.8033, 7317.360
154.2855, 7125.407
154.7676, 6960.782
155.2497, 6818.815
155.7318, 6681.404
156.2139, 6536.900
156.6960, 6400.025
157.1782, 6288.198
157.6603, 6203.472
158.1424, 6136.208
158.6245, 6085.592
159.1066, 6047.880
159.5887, 6016.271
160.0709, 5991.365
160.5530, 5970.891
161.0351, 5949.935
161.5172, 5926.216
161.9993, 5910.652
162.4814, 5915.667
162.9636, 5934.228
163.4457, 5955.600
163.9278, 5982.379
164.4099, 6007.939
164.8920, 6018.028
165.3741, 6008.153
165.8563, 5995.197
166.3384, 5989.743
166.8205, 5988.502
167.3026, 5985.884
167.7847, 5976.564
168.2668, 5965.391
168.7490, 5964.174
169.2311, 5977.186
169.7132, 5990.607
170.1953, 5999.299
170.6774, 6003.387
171.1595, 6002.303
171.6417, 5994.574
172.1238, 5982.001
172.6059, 5969.226
173.0880, 5957.169
173.5701, 5942.819
174.0522, 5921.853
174.5344, 5898.441
175.0165, 5877.954
175.4986, 5859.596
175.9807, 5847.733
176.4628, 5858.059
176.9449, 5907.325
177.4271, 5947.830
177.9092, 5956.138
178.3913, 5947.215
178.8734, 5940.501
179.3555, 5944.831
179.8376, 5958.056
180.3197, 5975.237
180.8019, 6002.182
181.2840, 6022.272
181.7661, 6024.219
182.2482, 6019.308
182.7303, 6021.894
183.2124, 6039.886
183.6946, 6068.234
184.1767, 6092.174
184.6588, 6107.151
185.1409, 6125.547
185.6230, 6145.388
186.1051, 6171.363
186.5873, 6214.184
187.0694, 6282.979
187.5515, 6359.612
188.0336, 6394.186
188.5157, 6360.624
188.9978, 6327.092
189.4800, 6303.167
189.9621, 6289.116
190.4442, 6284.557
190.9263, 6289.348
191.4084, 6304.441
191.8905, 6334.665
192.3727, 6395.451
192.8548, 6443.769
193.3369, 6469.374
193.8190, 6482.936
194.3011, 6493.212
194.7832, 6503.577
195.2654, 6514.833
195.7475, 6528.757
196.2296, 6546.849
196.7117, 6565.180
197.1938, 6583.065
197.6759, 6601.022
198.1581, 6621.515
198.6402, 6645.141
199.1223, 6666.374
199.6044, 6673.676
200.0865, 6658.160
200.5686, 6645.957
201.0508, 6639.561
201.5329, 6636.547
202.0150, 6638.276
202.4971, 6644.172
202.9792, 6647.334
203.4613, 6634.838
203.9435, 6596.243
204.4256, 6565.453
204.9077, 6550.836
205.3898, 6538.547
205.8719, 6519.662
206.3540, 6492.245
206.8362, 6459.769
207.3183, 6425.530
207.8004, 6386.806
208.2825, 6354.312
208.7646, 6328.492
209.2467, 6307.597
209.7289, 6295.589
210.2110, 6290.292
210.6931, 6281.142
211.1752, 6252.439
211.6573, 6194.116
212.1395, 6154.329
212.6216, 6144.575
213.1037, 6142.183
213.5858, 6137.324
214.0679, 6129.493
214.5500, 6123.725
215.0322, 6127.188
215.5143, 6143.432
215.9964, 6144.690
216.4785, 6113.570
216.9606, 6083.799
217.4427, 6065.854
217.9249, 6060.165
218.4070, 6063.380
218.8891, 6073.588
219.3712, 6090.960
219.8533, 6109.131
220.3354, 6129.468
220.8176, 6149.321
221.2997, 6170.242
221.7818, 6190.094
222.2639, 6203.696
222.7460, 6205.422
223.2281, 6197.624
223.7103, 6205.646
224.1924, 6250.129
224.6745, 6288.819
225.1566, 6310.768
225.6387, 6321.943
226.1208, 6331.396
226.6030, 6344.017
227.0851, 6359.396
227.5672, 6375.216
228.0493, 6383.888
228.5314, 6404.560
229.0135, 6449.357
229.4957, 6503.652
229.9778, 6549.273
230.4599, 6577.693
230.9420, 6597.854
231.4241, 6635.215
231.9062, 6715.683
232.3884, 6766.749
232.8705, 6755.603
233.3526, 6728.483
233.8347, 6726.071
234.3168, 6761.625
234.7989, 6818.595
235.2811, 6868.083
235.7632, 6903.588
236.2453, 6947.724
236.7274, 7003.731
237.2095, 7067.122
237.6916, 7135.822
238.1738, 7209.168
238.6559, 7287.511
239.1380, 7373.246
239.6201, 7469.608
240.1022, 7561.907
240.5843, 7646.537
241.0665, 7729.470
241.5486, 7811.974
242.0307, 7895.302
242.5128, 7981.610
242.9949, 8071.487
243.4770, 8164.461
243.9592, 8268.851
244.4413, 8390.184
244.9234, 8520.113
245.4055, 8657.959
245.8876, 8802.404
246.3697, 8949.754
246.8519, 9097.303
247.3340, 9246.438
247.8161, 9401.118
248.2982, 9564.368
248.7803, 9730.541
249.2624, 9900.490
249.7446, 10071.99
250.2267, 10242.21
250.7088, 10414.05
251.1909, 10580.47
251.6730, 10717.44
252.1551, 10805.52
252.6373, 10904.71
253.1194, 11051.02
253.6015, 11210.16
254.0836, 11345.81
254.5657, 11444.39
255.0478, 11516.72
255.5300, 11576.25
256.0121, 11618.61
256.4942, 11664.11
256.9763, 11740.93
257.4584, 11809.80
257.9406, 11839.01
258.4227, 11821.18
258.9048, 11779.47
259.3869, 11728.88
259.8690, 11668.22
260.3511, 11626.34
260.8333, 11626.02
261.3154, 11630.98
261.7975, 11616.22
262.2796, 11581.06
262.7617, 11536.68
263.2438, 11483.49
263.7260, 11424.83
264.2081, 11380.79
264.6902, 11355.06
265.1723, 11342.91
265.6544, 11340.14
266.1365, 11346.29
266.6187, 11361.07
267.1008, 11381.51
267.5829, 11410.97
268.0650, 11458.43
268.5471, 11527.00
269.0292, 11603.73
269.5114, 11677.44
269.9935, 11753.14
270.4756, 11841.73
270.9577, 11941.65
271.4398, 12059.16
271.9219, 12206.25
272.4041, 12383.94
272.8862, 12568.42
273.3683, 12750.56
273.8504, 12931.21
274.3325, 13108.35
274.8146, 13271.18
275.2968, 13450.77
275.7789, 13679.37
276.2610, 13945.42
276.7431, 14202.03
277.2252, 14428.73
277.7073, 14644.49
278.1895, 14878.62
278.6716, 15127.59
279.1537, 15399.45
279.6358, 15707.59
280.1179, 16037.93
280.6000, 16368.18
281.0822, 16696.06
281.5643, 17013.16
282.0464, 17308.66
282.5285, 17579.44
283.0106, 17848.75
283.4927, 18130.81
283.9749, 18404.76
284.4570, 18654.54
284.9391, 18878.59
285.4212, 19084.73
285.9033, 19285.26
286.3854, 19475.60
286.8676, 19596.30
287.3497, 19609.81
287.8318, 19597.46
288.3139, 19615.63
288.7960, 19641.87
289.2781, 19614.65
289.7603, 19500.32
290.2424, 19306.62
290.7245, 19063.89
291.2066, 18751.45
291.6887, 18419.50
292.1708, 18063.91
292.6530, 17696.77
293.1351, 17334.60
293.6172, 16983.01
294.0993, 16631.31
294.5814, 16262.08
295.0635, 15857.63
295.5457, 15467.12
296.0278, 15084.16
296.5099, 14720.71
296.9920, 14387.94
297.4741, 14085.32
297.9562, 13808.98
298.4384, 13555.12
298.9205, 13325.95
299.4026, 13101.65
299.8847, 12876.19
300.3668, 12661.54
300.8489, 12456.64
301.3310, 12265.16
301.8131, 12096.03
302.2953, 11956.98
302.7774, 11842.50
303.2595, 11723.88
303.7416, 11593.02
304.2237, 11470.54
304.7058, 11355.81
305.1880, 11252.64
305.6701, 11168.34
306.1522, 11106.11
306.6343, 11053.40
307.1164, 10986.73
307.5985, 10899.00
308.0807, 10824.85
308.5628, 10781.59
309.0449, 10746.47
309.5270, 10704.62
310.0091, 10655.50
310.4912, 10613.63
310.9734, 10596.16
311.4555, 10600.43
311.9376, 10596.43
312.4197, 10573.91
312.9018, 10555.14
313.3839, 10556.84
313.8661, 10572.82
314.3482, 10586.87
314.8303, 10585.17
315.3124, 10579.95
315.7945, 10596.41
316.2766, 10638.47
316.7588, 10679.37
317.2409, 10707.81
317.7230, 10724.20
318.2051, 10729.68
318.6872, 10725.21
319.1693, 10708.22
319.6515, 10669.77
320.1336, 10614.89
320.6157, 10565.03
321.0978, 10527.34
321.5799, 10498.48
322.0620, 10477.24
322.5442, 10467.53
323.0263, 10443.71
323.5084, 10386.70
323.9905, 10316.43
324.4726, 10259.02
324.9547, 10218.61
325.4369, 10184.60
325.9190, 10149.72
326.4011, 10114.17
326.8832, 10062.41
327.3653, 9985.956
327.8474, 9901.619
328.3296, 9819.835
328.8117, 9738.098
329.2938, 9647.526
329.7759, 9542.001
330.2580, 9424.241
330.7401, 9309.943
331.2223, 9205.682
331.7044, 9096.010
332.1865, 8976.987
332.6686, 8852.489
333.1507, 8725.292
333.6328, 8596.897
334.1150, 8469.103
334.5971, 8343.909
335.0792, 8222.937
335.5613, 8101.603
336.0434, 7983.676
336.5255, 7862.438
337.0077, 7733.057
337.4898, 7597.484
337.9719, 7460.724
338.4540, 7326.292
338.9361, 7194.665
339.4182, 7070.628
339.9004, 6961.290
340.3825, 6850.391
340.8646, 6727.969
341.3467, 6602.740
341.8288, 6485.751
342.3109, 6380.714
342.7931, 6285.049
343.2752, 6196.513
343.7573, 6115.838
344.2394, 6036.190
344.7215, 5955.979
345.2036, 5875.937
345.6858, 5798.390
346.1679, 5722.968
346.6500, 5642.064
347.1321, 5539.954
347.6142, 5428.893
348.0963, 5345.147
348.5785, 5297.691
349.0606, 5260.457
349.5427, 5216.584
350.0248, 5166.932
350.5069, 5113.343
350.9890, 5051.534
351.4712, 4989.266
351.9533, 4932.019
352.4354, 4879.459
352.9175, 4829.229
353.3996, 4779.459
353.8817, 4732.235
354.3639, 4694.480
354.8460, 4671.478
355.3281, 4644.971
355.8102, 4612.759
356.2923, 4574.152
356.7744, 4522.583
357.2566, 4458.082
357.7387, 4400.496
358.2208, 4374.926
358.7029, 4390.920
359.1850, 4385.008
359.6671, 4340.106
360.1493, 4293.801
360.6314, 4266.504
361.1135, 4250.898
361.5956, 4227.293
362.0777, 4182.887
362.5598, 4125.526
363.0420, 4083.653
363.5241, 4063.724
364.0062, 4050.296
364.4883, 4050.795
364.9704, 4050.495
365.4525, 4035.246
365.9347, 4002.926
366.4168, 3964.722
366.8989, 3930.054
367.3810, 3898.108
367.8631, 3880.003
368.3452, 3885.852
368.8274, 3894.560
369.3095, 3898.268
369.7916, 3896.390
370.2737, 3887.854
370.7558, 3870.169
371.2379, 3847.179
371.7201, 3822.666
372.2022, 3795.595
372.6843, 3777.756
373.1664, 3779.840
373.6485, 3791.015
374.1306, 3793.925
374.6128, 3785.746
375.0949, 3777.679
375.5770, 3776.717
376.0591, 3779.788
376.5412, 3781.013
377.0233, 3779.209
377.5055, 3775.231
377.9876, 3768.382
378.4697, 3758.183
378.9518, 3755.413
379.4339, 3766.504
379.9160, 3779.404
380.3982, 3785.753
380.8803, 3787.798
381.3624, 3793.614
381.8445, 3808.223
382.3266, 3827.285
382.8087, 3837.718
383.2909, 3828.748
383.7730, 3824.854
384.2551, 3827.068
384.7372, 3834.129
385.2193, 3847.689
385.7014, 3866.436
386.1836, 3883.870
386.6657, 3892.380
387.1478, 3891.323
387.6299, 3892.991
388.1120, 3897.151
388.5941, 3904.749
389.0763, 3917.267
389.5584, 3932.975
390.0405, 3948.822
390.5226, 3963.278
391.0047, 3978.479
391.4868, 4000.332
391.9690, 4030.171
392.4511, 4052.915
392.9332, 4061.415
393.4153, 4063.635
393.8974, 4068.025
394.3795, 4074.653
394.8617, 4077.669
395.3438, 4070.678
395.8259, 4059.463
396.3080, 4055.744
396.7901, 4061.127
397.2722, 4063.130
397.7544, 4052.707
398.2365, 4031.197
398.7186, 4008.692
399.2007, 3987.082
399.6828, 3962.682
400.1649, 3927.972
400.6471, 3890.984
401.1292, 3868.291
401.6113, 3865.329
402.0934, 3866.675
402.5755, 3848.413
403.0576, 3800.931
403.5398, 3762.994
404.0219, 3743.001
404.5040, 3723.021
404.9861, 3691.798
405.4682, 3652.627
405.9503, 3616.263
406.4325, 3590.164
406.9146, 3570.367
407.3967, 3543.031
407.8788, 3505.168
408.3609, 3465.743
408.8430, 3419.041
409.3252, 3376.200
409.8073, 3349.585
410.2894, 3339.920
410.7715, 3330.774
411.2536, 3306.503
411.7357, 3270.084
412.2179, 3237.146
412.7000, 3208.750
413.1821, 3183.975
413.6642, 3163.818
414.1463, 3146.781
414.6284, 3131.002
415.1106, 3118.750
415.5927, 3104.327
416.0748, 3081.255
416.5569, 3052.310
417.0390, 3024.525
417.5211, 2999.015
418.0033, 2980.850
418.4854, 2980.482
418.9675, 3007.364
419.4496, 3019.193
419.9317, 3004.235
420.4138, 2982.181
420.8960, 2964.650
421.3781, 2951.820
421.8602, 2939.880
422.3423, 2926.420
422.8244, 2911.607
423.3065, 2895.812
423.7887, 2873.954
424.2708, 2859.435
424.7529, 2861.888
425.2350, 2865.979
425.7171, 2859.436
426.1992, 2840.507
426.6814, 2815.432
427.1635, 2785.966
427.6456, 2753.132
428.1277, 2733.218
428.6098, 2732.003
429.0919, 2732.758
429.5741, 2729.533
430.0562, 2722.013
430.5383, 2707.998
431.0204, 2683.313
431.5025, 2659.965
431.9846, 2650.302
432.4668, 2650.653
432.9489, 2648.367
433.4310, 2640.549
433.9131, 2627.996
434.3952, 2609.588
434.8773, 2584.364
435.3595, 2565.530
435.8416, 2557.080
436.3237, 2552.338
436.8058, 2550.517
437.2879, 2549.046
437.7701, 2541.801
438.2522, 2525.321
438.7343, 2503.313
439.2164, 2485.254
439.6985, 2473.167
440.1806, 2461.699
440.6628, 2449.177
441.1449, 2438.276
441.6270, 2433.661
442.1091, 2433.028
442.5912, 2427.444
443.0733, 2407.536
443.5555, 2378.515
444.0376, 2362.336
444.5197, 2364.633
445.0018, 2363.942
445.4839, 2347.587
445.9660, 2326.415
446.4482, 2311.686
446.9303, 2305.739
447.4124, 2298.963
447.8945, 2284.097
448.3766, 2264.491
448.8587, 2246.547
449.3409, 2230.933
449.8230, 2218.813
450.3051, 2213.339
450.7872, 2212.884
451.2693, 2202.613
451.7514, 2172.386
452.2336, 2144.944
452.7157, 2128.072
453.1978, 2118.389
453.6799, 2114.486
454.1620, 2114.931
454.6441, 2111.196
455.1263, 2090.159
455.6084, 2046.780
456.0905, 2014.861
456.5726, 2005.009
457.0547, 1996.553
457.5368, 1985.076
458.0190, 1970.503
458.5011, 1952.741
458.9832, 1931.163
459.4653, 1909.122
459.9474, 1892.527
460.4295, 1881.573
460.9117, 1866.560
461.3938, 1842.984
461.8759, 1818.465
462.3580, 1796.674
462.8401, 1778.463
463.3222, 1770.072
463.8044, 1782.411
464.2865, 1797.992
464.7686, 1803.675
465.2507, 1799.474
465.7328, 1785.409
466.2149, 1760.255
466.6971, 1729.596
467.1792, 1704.412
467.6613, 1685.673
468.1434, 1671.116
468.6255, 1662.413
469.1076, 1656.315
469.5898, 1652.342
470.0719, 1649.334
470.5540, 1644.988
471.0361, 1637.619
471.5182, 1628.496
472.0003, 1621.647
472.4825, 1618.882
472.9646, 1613.553
473.4467, 1598.753
473.9288, 1584.973
474.4109, 1580.591
474.8930, 1585.123
475.3752, 1589.613
475.8573, 1591.150
476.3394, 1588.522
476.8215, 1576.822
477.3036, 1555.892
477.7857, 1538.649
478.2679, 1532.516
478.7500, 1533.374
479.2321, 1531.447
479.7142, 1526.471
480.1963, 1520.066
480.6784, 1510.427
481.1606, 1500.904
481.6427, 1495.535
482.1248, 1493.799
482.6069, 1491.089
483.0890, 1483.423
483.5711, 1472.446
484.0533, 1467.405
484.5354, 1472.398
485.0175, 1476.785
485.4996, 1479.708
485.9817, 1481.046
486.4638, 1480.385
486.9460, 1477.841
487.4281, 1474.393
487.9102, 1470.733
488.3923, 1466.759
488.8744, 1462.066
489.3565, 1456.573
489.8387, 1450.875
490.3208, 1445.402
490.8029, 1439.836
491.2850, 1433.599
491.7671, 1426.565
492.2492, 1419.228
492.7314, 1409.818
493.2135, 1401.336
493.6956, 1398.301
494.1777, 1400.485
494.6598, 1402.882
495.1419, 1401.494
495.6241, 1397.184
496.1062, 1395.743
496.5883, 1403.179
497.0704, 1404.837
497.5525, 1391.587
498.0346, 1377.541
498.5168, 1377.119
498.9989, 1390.078
499.4810, 1402.067
499.9631, 1400.496
500.4452, 1388.523
500.9273, 1377.207
501.4095, 1365.974
501.8916, 1357.950
502.3737, 1356.322
502.8558, 1357.692
503.3379, 1356.577
503.8200, 1352.364
504.3022, 1347.874
504.7843, 1343.336
505.2664, 1339.556
505.7485, 1337.716
506.2306, 1337.760
506.7127, 1338.776
507.1949, 1340.282
507.6770, 1342.100
508.1591, 1343.512
508.6412, 1346.113
509.1233, 1345.778
509.6054, 1340.342
510.0876, 1333.559
510.5697, 1327.768
511.0518, 1323.285
511.5339, 1319.432
512.0161, 1314.982
512.4982, 1311.281
512.9803, 1313.025
513.4624, 1321.286
513.9445, 1328.660
514.4266, 1334.071
514.9088, 1335.884
515.3909, 1331.107
515.8730, 1319.100
516.3551, 1309.013
516.8372, 1304.776
517.3193, 1302.781
517.8015, 1299.445
518.2836, 1295.138
518.7657, 1292.098
519.2478, 1291.512
519.7299, 1292.973
520.2120, 1295.688
520.6942, 1301.106
521.1763, 1304.998
521.6584, 1308.267
522.1405, 1309.389
522.6226, 1307.175
523.1047, 1302.122
523.5869, 1295.489
524.0690, 1287.692
524.5511, 1279.141
525.0332, 1269.227
525.5153, 1257.987
525.9974, 1252.116
526.4796, 1256.379
526.9617, 1261.282
527.4438, 1252.194
527.9259, 1231.525
528.4080, 1223.574
528.8901, 1245.578
529.3723, 1267.524
529.8544, 1268.443
530.3365, 1257.103
530.8186, 1251.816
531.3007, 1258.719
531.7828, 1269.530
532.2650, 1272.684
532.7471, 1266.830
533.2292, 1261.782
533.7113, 1257.864
534.1934, 1254.413
534.6755, 1248.654
535.1577, 1244.219
535.6398, 1247.696
536.1219, 1261.865
536.6040, 1275.570
537.0861, 1276.364
537.5682, 1268.262
538.0504, 1265.053
538.5325, 1269.054
539.0146, 1272.265
539.4967, 1267.960
539.9788, 1258.262
540.4609, 1253.893
540.9431, 1260.699
541.4252, 1264.169
541.9073, 1260.504
542.3894, 1252.786
542.8715, 1240.719
543.3536, 1226.524
543.8358, 1218.151
544.3179, 1223.241
544.8000, 1237.951
545.2821, 1244.613
545.7642, 1239.392
546.2463, 1236.659
546.7285, 1243.493
547.2106, 1251.555
547.6926, 1254.855
548.1747, 1253.270
548.6569, 1249.190
549.1390, 1240.928
549.6211, 1232.604
550.1032, 1228.409
550.5853, 1228.158
551.0674, 1232.016
551.5496, 1240.940
552.0317, 1249.403
552.5138, 1247.686
552.9959, 1230.726
553.4780, 1220.739
553.9601, 1221.814
554.4423, 1224.373
554.9244, 1223.909
555.4065, 1222.591
555.8886, 1225.725
556.3707, 1235.486
556.8528, 1243.730
557.3350, 1237.408
557.8171, 1218.955
558.2992, 1209.035
558.7813, 1211.365
559.2634, 1216.618
559.7455, 1220.942
560.2277, 1223.115
560.7098, 1219.483
561.1919, 1202.924
561.6740, 1192.980
562.1561, 1202.132
562.6382, 1217.036
563.1204, 1223.595
563.6025, 1220.838
564.0846, 1215.616
564.5667, 1212.868
565.0488, 1211.584
565.5309, 1207.241
566.0131, 1197.544
566.4952, 1190.589
566.9773, 1188.318
567.4594, 1188.892
567.9415, 1193.460
568.4236, 1200.549
568.9058, 1204.134
569.3879, 1199.592
569.8700, 1192.327
570.3521, 1186.411
570.8342, 1182.219
571.3163, 1182.186
571.7985, 1187.482
572.2806, 1192.732
572.7627, 1190.979
573.2448, 1181.152
573.7269, 1174.406
574.2090, 1174.047
574.6912, 1172.572
575.1733, 1163.521
575.6554, 1154.789
576.1375, 1159.458
576.6196, 1178.646
577.1017, 1193.171
577.5839, 1176.939
578.0660, 1142.222
578.5481, 1133.921
579.0302, 1155.693
579.5123, 1176.996
579.9944, 1183.874
580.4766, 1182.261
580.9587, 1183.512
581.4408, 1188.940
581.9229, 1191.399
582.4050, 1188.428
582.8871, 1183.526
583.3693, 1179.432
583.8514, 1175.226
584.3335, 1167.138
584.8156, 1153.421
585.2977, 1139.809
585.7798, 1136.813
586.2620, 1145.647
586.7441, 1150.782
587.2262, 1149.766
587.7083, 1147.880
588.1904, 1147.386
588.6725, 1148.203
589.1547, 1150.782
589.6368, 1156.512
590.1189, 1160.482
590.6010, 1159.943
591.0831, 1156.529
591.5652, 1150.611
592.0474, 1143.301
592.5295, 1139.402
593.0116, 1142.673
593.4937, 1150.000
593.9758, 1151.373
594.4579, 1143.527
594.9401, 1137.476
595.4222, 1133.043
595.9043, 1131.704
596.3864, 1136.922
596.8685, 1145.838
597.3506, 1151.109
597.8328, 1148.285
598.3149, 1144.369
598.7970, 1146.454
599.2791, 1152.325
599.7612, 1156.493
600.2433, 1157.918
600.7255, 1157.292
601.2076, 1154.666
601.6897, 1150.548
602.1718, 1149.144
602.6539, 1155.276
603.1360, 1157.460
603.6182, 1150.273
604.1003, 1142.497
604.5824, 1142.147
605.0645, 1147.846
605.5466, 1151.184
606.0287, 1145.247
606.5109, 1137.192
606.9930, 1139.680
607.4751, 1151.114
607.9572, 1158.292
608.4393, 1157.351
608.9214, 1153.772
609.4036, 1152.677
609.8857, 1154.087
610.3678, 1156.202
610.8499, 1161.248
611.3320, 1164.120
611.8141, 1161.783
612.2963, 1157.877
612.7784, 1156.021
613.2605, 1156.582
613.7426, 1157.803
614.2247, 1158.713
614.7068, 1159.050
615.1890, 1157.305
615.6711, 1153.270
616.1532, 1152.052
616.6353, 1155.805
617.1174, 1161.739
617.5995, 1168.288
618.0817, 1175.476
618.5638, 1176.311
619.0459, 1161.892
619.5280, 1151.054
620.0101, 1153.818
620.4922, 1162.895
620.9744, 1170.381
621.4565, 1174.003
621.9386, 1173.541
622.4207, 1167.199
622.9028, 1157.291
623.3849, 1153.851
623.8671, 1158.177
624.3492, 1161.401
624.8313, 1160.721
625.3134, 1157.972
625.7955, 1154.191
626.2776, 1149.461
626.7598, 1147.898
627.2419, 1153.272
627.7240, 1158.487
628.2061, 1159.358
628.6882, 1158.043
629.1703, 1157.836
629.6525, 1159.464
630.1346, 1161.390
630.6167, 1161.817
631.0988, 1161.293
631.5809, 1164.214
632.0630, 1173.032
632.5452, 1175.040
633.0273, 1159.774
633.5094, 1142.465
633.9915, 1141.935
634.4736, 1157.166
634.9557, 1169.211
635.4379, 1174.006
635.9200, 1174.990
636.4021, 1171.438
636.8842, 1166.304
637.3663, 1164.588
637.8484, 1167.133
638.3306, 1169.899
638.8127, 1168.321
639.2948, 1163.558
639.7769, 1163.896
640.2590, 1172.094
640.7411, 1175.266
641.2233, 1165.744
641.7054, 1153.513
642.1875, 1148.586
642.6696, 1150.522
643.1517, 1154.598
643.6339, 1160.900
644.1160, 1167.977
644.5981, 1177.181
645.0802, 1185.804
645.5623, 1190.016
646.0444, 1188.914
646.5266, 1183.015
647.0087, 1171.243
647.4908, 1156.013
647.9729, 1148.824
648.4550, 1150.490
648.9371, 1157.616
649.4193, 1172.999
649.9014, 1189.629
650.3835, 1201.668
650.8656, 1209.310
651.3477, 1213.599
651.8298, 1213.662
652.3120, 1211.628
652.7941, 1205.435
653.2762, 1199.229
653.7583, 1198.887
654.2404, 1204.969
654.7225, 1213.983
655.2047, 1223.851
655.6868, 1233.489
656.1689, 1238.310
656.6510, 1237.218
657.1331, 1238.208
657.6152, 1243.861
658.0974, 1250.706
658.5795, 1257.262
659.0616, 1262.786
659.5437, 1263.226
660.0258, 1252.182
660.5079, 1243.525
660.9901, 1243.979
661.4722, 1247.859
661.9543, 1250.456
662.4364, 1250.527
662.9185, 1247.496
663.4006, 1240.837
663.8828, 1231.196
664.3649, 1219.222
664.8470, 1204.813
665.3291, 1190.884
665.8112, 1176.347
666.2933, 1166.176
666.7755, 1167.758
667.2576, 1176.896
667.7397, 1175.056
668.2218, 1152.024
668.7039, 1134.736
669.1860, 1130.463
669.6682, 1132.111
670.1503, 1137.499
670.6324, 1143.696
671.1145, 1144.433
671.5966, 1135.985
672.0787, 1125.553
672.5609, 1125.642
673.0430, 1134.005
673.5251, 1132.669
674.0072, 1117.961
674.4893, 1105.429
674.9714, 1105.297
675.4536, 1112.794
675.9357, 1115.474
676.4178, 1110.288
676.8999, 1106.944
677.3820, 1106.662
677.8641, 1107.273
678.3463, 1109.452
678.8284, 1111.152
679.3105, 1108.322
679.7926, 1099.691
680.2747, 1091.144
680.7568, 1089.293
681.2390, 1091.413
681.7211, 1089.874
682.2032, 1084.755
682.6853, 1084.389
683.1674, 1093.847
683.6495, 1104.729
684.1317, 1102.675
684.6138, 1083.366
685.0959, 1074.091
685.5780, 1085.775
686.0601, 1094.357
686.5422, 1091.801
687.0244, 1084.721
687.5065, 1078.913
687.9886, 1075.545
688.4707, 1075.482
688.9528, 1083.853
689.4349, 1092.233
689.9171, 1089.482
690.3992, 1078.736
690.8813, 1068.035
691.3634, 1059.734
691.8455, 1056.159
692.3276, 1060.586
692.8098, 1071.745
693.2919, 1078.213
693.7740, 1078.231
694.2561, 1077.449
694.7382, 1077.294
695.2203, 1076.239
695.7025, 1071.970
696.1846, 1065.718
696.6667, 1062.096
697.1488, 1062.761
697.6309, 1065.497
698.1130, 1072.362
698.5952, 1078.797
699.0773, 1075.854
699.5594, 1065.669
700.0415, 1062.488
700.5236, 1076.399
701.0057, 1095.259
701.4879, 1088.508
701.9700, 1053.924
702.4521, 1043.459
702.9342, 1072.025
703.4163, 1098.100
703.8984, 1094.257
704.3806, 1072.323
704.8627, 1060.811
705.3448, 1062.490
705.8269, 1065.705
706.3090, 1071.268
706.7911, 1075.554
707.2733, 1076.354
707.7554, 1074.395
708.2375, 1070.540
708.7196, 1065.186
709.2017, 1059.985
709.6838, 1056.579
710.1660, 1054.490
710.6481, 1052.594
711.1302, 1050.874
711.6123, 1049.722
712.0944, 1049.666
712.5765, 1048.222
713.0587, 1040.760
713.5408, 1026.458
714.0229, 1023.949
714.5050, 1048.418
714.9871, 1063.894
715.4692, 1057.118
715.9514, 1045.436
716.4335, 1043.609
716.9156, 1050.424
717.3977, 1054.553
717.8798, 1048.717
718.3619, 1042.618
718.8441, 1045.363
719.3262, 1052.555
719.8083, 1057.379
720.2904, 1058.686
720.7725, 1057.176
721.2546, 1053.066
721.7368, 1047.480
722.2189, 1043.403
722.7010, 1041.293
723.1831, 1037.075
723.6652, 1028.352
724.1473, 1021.637
724.6295, 1021.308
725.1116, 1025.243
725.5937, 1029.172
726.0758, 1033.412
726.5579, 1036.402
727.0400, 1039.427
727.5222, 1039.555
728.0043, 1032.116
728.4864, 1021.690
728.9685, 1015.374
729.4506, 1015.073
729.9327, 1017.922
730.4149, 1022.966
730.8970, 1028.672
731.3791, 1032.002
731.8612, 1032.903
732.3433, 1029.812
732.8254, 1021.549
733.3076, 1013.927
733.7897, 1013.230
734.2718, 1018.880
734.7539, 1023.384
735.2360, 1028.365
735.7181, 1029.404
736.2003, 1021.351
736.6824, 1013.686
737.1645, 1014.530
737.6466, 1020.401
738.1287, 1020.736
738.6108, 1009.775
739.0930, 1000.155
739.5751, 998.8026
740.0572, 1002.695
740.5393, 1010.813
741.0214, 1021.003
741.5035, 1028.178
741.9857, 1029.894
742.4678, 1028.264
742.9499, 1026.274
743.4320, 1023.791
743.9141, 1017.870
744.3962, 1007.248
744.8784, 1000.358
745.3605, 1002.116
745.8426, 1006.535
746.3247, 1004.989
746.8068, 996.4468
747.2889, 991.6277
747.7711, 992.2421
748.2532, 994.0776
748.7353, 996.0872
749.2174, 998.9455
749.6995, 1005.412
750.1816, 1013.737
750.6638, 1016.815
751.1459, 1009.277
751.6280, 999.1588
752.1101, 994.3077
752.5922, 991.9868
753.0743, 985.6678
753.5565, 975.6700
754.0386, 969.6308
754.5207, 972.3649
755.0028, 979.2673
755.4849, 980.9185
755.9670, 976.4865
756.4492, 974.5148
756.9313, 975.2285
757.4134, 978.5088
757.8955, 987.1251
758.3776, 996.2177
758.8597, 996.9475
759.3419, 988.2693
759.8240, 983.6417
760.3061, 988.6963
760.7882, 992.5093
761.2703, 992.6464
761.7524, 988.4086
762.2346, 974.6040
762.7167, 954.5303
763.1988, 943.8055
763.6809, 955.7927
764.1630, 972.8690
764.6451, 973.5425
765.1273, 963.6477
765.6094, 956.2604
766.0915, 953.6202
766.5736, 957.1242
767.0557, 968.6661
767.5378, 982.1377
768.0200, 982.4806
768.5021, 966.3372
768.9842, 957.5477
769.4663, 958.3383
769.9484, 962.7273
770.4305, 972.1299
770.9127, 981.0397
771.3948, 980.2104
771.8769, 968.7696
772.3590, 960.2058
772.8411, 957.3067
773.3232, 956.0648
773.8054, 955.4424
774.2875, 955.3694
774.7696, 956.2607
775.2517, 957.7986
775.7338, 958.4362
776.2159, 956.3204
776.6981, 955.1054
777.1802, 963.1763
777.6623, 974.2413
778.1444, 970.9551
778.6265, 953.2262
779.1086, 936.8250
779.5908, 930.4647
780.0729, 931.5942
780.5550, 936.5359
781.0371, 945.7798
781.5192, 954.2281
782.0013, 962.9100
782.4835, 968.0204
782.9656, 967.0109
783.4477, 962.7456
783.9298, 958.4431
784.4119, 954.1023
784.8940, 949.9304
785.3762, 946.2609
785.8583, 942.3582
786.3404, 936.3209
786.8225, 931.3212
787.3046, 930.2211
787.7867, 932.6516
788.2689, 936.9661
788.7510, 943.4849
789.2331, 948.3910
789.7152, 946.9448
790.1973, 942.6174
790.6794, 941.3232
791.1616, 942.6667
791.6437, 942.5152
792.1258, 939.0783
792.6079, 935.0143
793.0900, 935.2870
793.5721, 938.7604
794.0543, 931.3589
794.5364, 909.9022
795.0185, 898.3358
795.5006, 906.3836
795.9827, 920.4385
796.4648, 927.8657
796.9470, 929.2497
797.4291, 930.6358
797.9112, 936.2470
798.3933, 935.6512
798.8754, 920.8562
799.3575, 907.2075
799.8397, 905.1661
800.3218, 910.1411
800.8039, 912.0686
801.2860, 907.8669
801.7681, 906.3349
802.2502, 916.3263
802.7324, 926.9971
803.2145, 927.3547
803.6966, 921.3233
804.1787, 916.0121
804.6608, 913.7746
805.1429, 915.6528
805.6251, 924.5786
806.1072, 935.3996
806.5893, 934.3633
807.0714, 923.6429
807.5535, 920.9816
808.0356, 929.8613
808.5178, 939.1036
808.9999, 941.4360
809.4820, 938.8702
809.9641, 936.0708
810.4462, 932.3436
810.9283, 931.0558
811.4105, 933.9850
811.8926, 936.4470
812.3747, 935.9752
812.8568, 934.5677
813.3389, 934.6550
813.8210, 936.2499
814.3032, 937.2828
814.7853, 937.7723
815.2674, 937.2464
815.7495, 932.7005
816.2316, 929.2850
816.7137, 934.5522
817.1959, 945.1752
817.6780, 950.1534
818.1601, 944.2305
818.6422, 934.8000
819.1243, 923.4995
819.6064, 915.2966
820.0886, 921.2284
820.5707, 937.6822
821.0528, 951.1555
821.5349, 956.8069
822.0170, 956.9462
822.4991, 953.4728
822.9813, 947.0275
823.4634, 939.7932
823.9455, 931.5980
824.4276, 924.6659
824.9097, 918.8134
825.3918, 917.3926
825.8740, 924.9371
826.3561, 937.3371
826.8382, 939.9313
827.3203, 924.5178
827.8024, 918.4338
828.2845, 934.5029
828.7667, 944.1014
829.2488, 928.5237
829.7309, 906.0661
830.2130, 900.0056
830.6951, 911.6035
831.1772, 920.7631
831.6594, 921.6619
832.1415, 920.4592
832.6236, 920.3531
833.1057, 919.0685
833.5878, 911.4301
834.0699, 900.3433
834.5521, 895.3979
835.0342, 901.3670
835.5163, 911.5496
835.9984, 923.7646
836.4805, 934.0148
836.9626, 932.3261
837.4448, 922.2846
837.9269, 919.1842
838.4090, 927.8041
838.8911, 937.8157
839.3732, 938.5201
839.8553, 931.7433
840.3375, 921.3999
840.8196, 907.2227
841.3017, 905.5596
841.7838, 921.8464
842.2659, 938.3568
842.7480, 943.1288
843.2302, 939.8765
843.7123, 937.8587
844.1944, 937.3891
844.6765, 937.0788
845.1586, 936.4467
845.6407, 936.6931
846.1229, 940.1223
846.6050, 943.2929
847.0871, 941.4521
847.5692, 935.2195
848.0513, 932.7018
848.5334, 940.1628
849.0156, 944.4563
849.4977, 938.2401
849.9798, 930.9200
850.4619, 930.0352
850.9440, 933.8271
851.4261, 937.6193
851.9083, 940.0773
852.3904, 941.1877
852.8725, 940.6476
853.3546, 939.0257
853.8367, 936.6141
854.3188, 933.6806
854.8010, 930.3246
855.2831, 926.8068
855.7652, 924.1519
856.2473, 923.0354
856.7294, 923.4585
857.2115, 926.2576
857.6937, 930.6953
858.1758, 934.3340
858.6579, 936.7795
859.1400, 934.0967
859.6221, 923.7797
860.1042, 912.3136
860.5864, 909.3946
861.0685, 914.6646
861.5506, 917.4135
862.0327, 916.7985
862.5148, 917.0298
862.9969, 919.3997
863.4791, 922.2336
863.9612, 925.1320
864.4433, 927.2151
864.9254, 924.8005
865.4075, 911.5033
865.8896, 907.1055
866.3718, 923.9993
866.8539, 934.6066
867.3360, 923.5542
867.8181, 904.9070
868.3002, 893.6221
868.7823, 890.6461
869.2645, 890.9965
869.7466, 895.5964
870.2287, 900.4739
870.7108, 903.8226
871.1929, 907.0424
871.6750, 912.8712
872.1572, 919.3114
872.6393, 921.1653
873.1214, 916.5403
873.6035, 911.3143
874.0856, 909.3727
874.5677, 909.3330
875.0499, 910.4207
875.5320, 911.9465
876.0141, 911.7841
876.4962, 910.1805
876.9783, 911.2756
877.4604, 918.6245
877.9426, 926.9888
878.4247, 926.6384
878.9068, 920.0649
879.3889, 916.3668
879.8710, 916.0996
880.3531, 917.9945
880.8353, 921.7526
881.3174, 923.9398
881.7995, 919.4626
882.2816, 910.1644
882.7637, 908.6172
883.2458, 916.0647
883.7280, 921.9651
884.2101, 924.3101
884.6922, 926.1688
885.1743, 930.5301
885.6564, 934.3577
886.1385, 929.6813
886.6207, 912.1818
887.1028, 906.3859
887.5849, 923.3002
888.0670, 934.0623
888.5491, 924.5389
889.0313, 911.7133
889.5134, 911.1978
889.9955, 920.2460
890.4776, 926.2294
890.9597, 927.4047
891.4418, 927.1153
891.9240, 921.9893
892.4061, 919.6670
892.8882, 928.8746
893.3703, 940.8138
893.8524, 942.1857
894.3345, 932.0364
894.8167, 923.0563
895.2988, 918.3226
895.7809, 918.4678
896.2630, 929.1201
896.7451, 940.7877
897.2272, 943.6443
897.7094, 938.7263
898.1915, 929.7924
898.6736, 918.1227
899.1557, 910.2141
899.6378, 913.2705
900.1199, 921.4182
900.6021, 930.1212
901.0842, 937.4298
901.5663, 938.0022
902.0484, 932.3641
902.5305, 928.6389
903.0126, 932.3813
903.4948, 937.4019
903.9769, 931.5110
904.4590, 919.9525
904.9411, 922.1774
905.4232, 936.6149
905.9053, 944.8661
906.3875, 940.9718
906.8696, 933.3045
907.3517, 929.2347
907.8338, 928.7188
908.3159, 933.1664
908.7980, 942.6413
909.2802, 946.1646
909.7623, 941.5789
910.2444, 939.0675
910.7265, 944.0854
911.2086, 951.9724
911.6907, 955.9442
912.1729, 956.0601
912.6550, 957.1622
913.1371, 958.5829
913.6192, 964.0317
914.1013, 979.0258
914.5834, 988.5759
915.0656, 979.2964
915.5477, 960.0091
916.0298, 951.3856
916.5119, 957.0228
916.9940, 959.7352
917.4761, 953.7351
917.9583, 953.0176
918.4404, 969.7736
918.9225, 985.3017
919.4046, 979.6632
919.8867, 960.0120
920.3688, 953.9725
920.8510, 971.6991
921.3331, 984.9614
921.8152, 984.7933
922.2973, 985.0525
922.7794, 992.9119
923.2615, 1004.198
923.7437, 1015.219
924.2258, 1024.946
924.7079, 1030.347
925.1900, 1026.587
925.6721, 1024.910
926.1542, 1031.235
926.6364, 1040.164
927.1185, 1046.743
927.6006, 1053.027
928.0827, 1064.067
928.5648, 1080.467
929.0469, 1095.916
929.5291, 1106.652
930.0112, 1115.427
930.4933, 1122.458
930.9754, 1130.014
931.4575, 1140.265
931.9396, 1153.770
932.4218, 1172.475
932.9039, 1197.005
933.3860, 1218.960
933.8681, 1229.135
934.3502, 1234.223
934.8323, 1238.776
935.3145, 1246.215
935.7966, 1266.907
936.2787, 1298.668
936.7608, 1325.914
937.2429, 1340.199
937.7250, 1348.696
938.2072, 1355.827
938.6893, 1365.500
939.1714, 1392.701
939.6535, 1431.159
940.1356, 1452.990
940.6177, 1453.689
941.0999, 1455.590
941.5820, 1475.174
942.0641, 1501.114
942.5462, 1511.850
943.0283, 1510.503
943.5104, 1511.577
943.9926, 1515.986
944.4747, 1530.174
944.9568, 1556.474
945.4389, 1578.152
945.9210, 1578.091
946.4031, 1566.990
946.8853, 1578.935
947.3674, 1613.749
947.8495, 1630.115
948.3316, 1623.901
948.8137, 1615.754
949.2958, 1612.506
949.7780, 1616.904
950.2601, 1635.310
950.7422, 1661.770
951.2243, 1659.738
951.7064, 1621.877
952.1885, 1606.912
952.6707, 1628.889
953.1528, 1640.708
953.6349, 1616.972
954.1170, 1579.644
954.5991, 1557.853
955.0812, 1550.979
955.5634, 1542.936
956.0455, 1533.997
956.5276, 1523.408
957.0097, 1512.343
957.4918, 1496.383
957.9739, 1470.656
958.4561, 1441.245
958.9382, 1417.976
959.4203, 1401.077
959.9024, 1386.496
960.3845, 1379.135
960.8666, 1363.914
961.3488, 1333.047
961.8309, 1301.619
962.3130, 1281.171
962.7951, 1265.211
963.2772, 1239.010
963.7593, 1198.424
964.2415, 1169.854
964.7236, 1163.146
965.2057, 1154.136
965.6878, 1137.751
966.1699, 1118.800
966.6520, 1098.566
967.1342, 1078.319
967.6163, 1061.171
968.0984, 1047.788
968.5805, 1035.130
969.0626, 1024.246
969.5447, 1012.384
970.0269, 994.4805
970.5090, 979.3108
970.9911, 979.5228
971.4732, 986.9503
971.9553, 977.6182
972.4374, 941.1765
972.9196, 917.2859
973.4017, 924.4009
973.8838, 928.0195
974.3659, 909.8172
974.8480, 888.2374
975.3301, 880.0421
975.8123, 882.5684
976.2944, 885.3122
976.7765, 887.4472
977.2586, 886.9750
977.7407, 880.7070
978.2228, 875.0739
978.7050, 875.3598
979.1871, 875.7209
979.6692, 868.2749
980.1513, 855.5963
980.6334, 848.4960
981.1155, 851.9310
981.5977, 852.7274
982.0798, 842.6329
982.5619, 834.0433
983.0440, 836.8969
983.5261, 841.9117
984.0082, 836.0572
984.4904, 822.3785
984.9725, 816.9950
985.4546, 828.2073
985.9367, 835.7252
986.4188, 829.3147
986.9009, 820.4753
987.3831, 815.4286
987.8652, 812.0455
988.3473, 807.2081
988.8294, 801.2282
989.3115, 796.6783
989.7936, 793.9872
990.2758, 793.8126
990.7579, 800.0609
991.2400, 804.9532
991.7221, 803.7428
992.2042, 798.1200
992.6863, 787.4821
993.1685, 774.3741
993.6506, 768.0824
994.1327, 774.4167
994.6148, 779.8358
995.0969, 777.4572
995.5790, 773.0616
996.0612, 769.2129
996.5433, 766.5691
997.0254, 766.6284
997.5075, 768.5355
997.9896, 768.4787
998.4717, 764.8068
998.9539, 760.1130
999.4360, 754.3494
999.9181, 749.2793
1000.400, 745.3381
1000.882, 743.3806
1001.364, 745.9607
1001.847, 751.7202
1002.329, 754.2799
1002.811, 749.7082
1003.293, 747.2235
1003.775, 754.7578
1004.257, 761.9615
1004.739, 760.7623
1005.221, 755.6130
1005.703, 751.0361
1006.186, 748.3240
1006.668, 749.4224
1007.150, 756.9006
1007.632, 761.7110
1008.114, 759.0015
1008.596, 753.0836
1009.078, 741.7699
1009.560, 732.2401
1010.043, 735.7650
1010.525, 749.2622
1011.007, 757.9365
1011.489, 756.5739
1011.971, 752.7889
1012.453, 750.6844
1012.935, 746.2067
1013.417, 730.4315
1013.899, 715.6666
1014.382, 719.7448
1014.864, 737.6786
1015.346, 748.3972
1015.828, 745.0336
1016.310, 738.9974
1016.792, 732.8544
1017.274, 727.2866
1017.756, 720.8093
1018.239, 716.5401
1018.721, 720.7808
1019.203, 729.7534
1019.685, 730.9496
1020.167, 719.2236
1020.649, 711.3633
1021.131, 716.8820
1021.613, 722.4122
1022.095, 721.3618
1022.578, 717.8691
1023.060, 714.8420
1023.542, 712.9146
1024.024, 712.9412
1024.506, 715.4326
1024.988, 717.5455
1025.470, 719.1361
1025.952, 719.4426
1026.435, 714.7929
1026.917, 711.8469
1027.399, 720.2248
1027.881, 733.1409
1028.363, 734.8890
1028.845, 721.9993
1029.327, 710.6775
1029.809, 700.5333
1030.292, 696.9084
1030.774, 705.5375
1031.256, 716.8050
1031.738, 725.6097
1032.220, 731.9423
1032.702, 736.4280
1033.184, 739.1565
1033.666, 739.3685
1034.148, 728.9326
1034.630, 727.7636
1035.113, 753.3480
1035.595, 773.4849
1036.077, 766.9182
1036.559, 745.7701
1037.041, 724.6349
1037.523, 703.4309
1038.005, 695.1852
1038.487, 710.7938
1038.970, 721.7155
1039.452, 721.1299
1039.934, 722.5720
1040.416, 736.2331
1040.898, 751.1422
1041.380, 751.4685
1041.862, 739.2831
1042.344, 738.5427
1042.826, 759.7961
1043.309, 768.5905
1043.791, 755.6827
1044.273, 745.2101
1044.755, 745.2203
1045.237, 752.5255
1045.719, 765.5636
1046.201, 782.7389
1046.683, 796.4224
1047.166, 804.9803
1047.648, 816.2466
1048.130, 831.5550
1048.612, 845.7938
1049.094, 857.3970
1049.576, 868.1664
1050.058, 881.4617
1050.540, 892.4859
1051.022, 886.6924
1051.505, 862.0685
1051.987, 840.2221
1052.469, 821.0712
1052.951, 806.5013
1053.433, 797.5143
1053.915, 790.1025
1054.397, 781.4829
1054.879, 772.7914
1055.361, 766.0615
1055.844, 761.1825
1056.326, 757.1964
1056.808, 754.0634
1057.290, 748.9994
1057.772, 741.5215
1058.254, 732.1505
1058.736, 720.9366
1059.218, 710.6164
1059.701, 704.6121
1060.183, 702.6652
1060.665, 705.0010
1061.147, 710.7951
1061.629, 716.7068
1062.111, 721.7485
1062.593, 721.3335
1063.075, 713.8918
1063.557, 704.7812
1064.040, 698.6766
1064.522, 695.2371
1065.004, 696.3248
1065.486, 698.7630
1065.968, 692.5508
1066.450, 680.2928
1066.932, 673.0256
1067.414, 673.4529
1067.896, 676.6553
1068.379, 679.0026
1068.861, 683.8469
1069.343, 700.7407
1069.825, 718.1024
1070.307, 717.2460
1070.789, 705.1940
1071.271, 696.1233
1071.753, 692.3088
1072.236, 688.9537
1072.718, 683.2933
1073.200, 682.1843
1073.682, 698.7240
1074.164, 713.1627
1074.646, 703.5029
1075.128, 686.1180
1075.610, 680.3293
1076.093, 685.3630
1076.575, 693.7474
1077.057, 703.7195
1077.539, 710.3050
1078.021, 710.3447
1078.503, 707.8095
1078.985, 701.8623
1079.467, 696.6307
1079.949, 696.8284
1080.432, 699.1522
1080.914, 696.7251
1081.396, 689.2643
1081.878, 686.4312
1082.360, 691.5355
1082.842, 698.9473
1083.324, 712.2670
1083.806, 722.3912
1084.288, 722.3820
1084.771, 719.2134
1085.253, 721.3557
1085.735, 727.1672
1086.217, 728.1012
1086.699, 720.9690
1087.181, 717.7762
1087.663, 722.4216
1088.145, 722.8545
1088.628, 714.1234
1089.110, 703.7053
1089.592, 696.4791
1090.074, 692.0015
1090.556, 690.0189
1091.038, 690.8018
1091.520, 684.6513
1092.002, 668.9792
1092.484, 665.5068
1092.967, 680.1670
1093.449, 690.2513
1093.931, 683.6866
1094.413, 670.2582
1094.895, 661.6472
1095.377, 657.3378
1095.859, 656.3356
1096.341, 658.2173
1096.823, 660.4654
1097.306, 662.5437
1097.788, 661.8629
1098.270, 657.6742
1098.752, 650.9351
1099.234, 641.1857
1099.716, 634.5771
1100.198, 646.2914
1100.680, 664.9276
1101.163, 663.7247
1101.645, 650.3611
1102.127, 647.1968
1102.609, 655.9183
1103.091, 663.4363
1103.573, 663.5300
1104.055, 662.7738
1104.537, 668.1328
1105.020, 673.4226
1105.502, 671.9655
1105.984, 667.8725
1106.466, 667.4395
1106.948, 668.2842
1107.430, 663.0372
1107.912, 650.5927
1108.394, 640.2675
1108.876, 632.9241
1109.359, 632.8082
1109.841, 649.1033
1110.323, 664.5820
1110.805, 669.7104
1111.287, 667.2996
1111.769, 658.3845
1112.251, 645.1675
1112.733, 636.6437
1113.215, 632.6555
1113.698, 636.0781
1114.180, 654.3281
1114.662, 668.1623
1115.144, 672.5239
1115.626, 672.3434
1116.108, 669.2479
1116.590, 665.5372
1117.072, 666.1282
1117.555, 671.0588
1118.037, 670.8526
1118.519, 664.1125
1119.001, 660.2374
1119.483, 660.5966
1119.965, 662.3528
1120.447, 664.6039
1120.929, 665.6964
1121.411, 663.5585
1121.894, 659.8975
1122.376, 659.9708
1122.858, 662.6377
1123.340, 660.7255
1123.822, 655.2862
1124.304, 654.2480
1124.786, 658.7902
1125.268, 662.8573
1125.750, 662.9886
1126.233, 661.6468
1126.715, 661.7479
1127.197, 661.8695
1127.679, 658.7958
1128.161, 655.1409
1128.643, 655.7922
1129.125, 659.5137
1129.607, 662.0924
1130.090, 662.4160
1130.572, 661.6952
1131.054, 658.9342
1131.536, 658.1498
1132.018, 662.9122
1132.500, 668.7125
1132.982, 675.4749
1133.464, 679.3417
1133.947, 674.1588
1134.429, 662.0283
1134.911, 651.5385
1135.393, 641.9274
1135.875, 640.1337
1136.357, 653.0799
1136.839, 664.7513
1137.321, 674.7166
1137.803, 679.1351
1138.286, 672.4572
1138.768, 663.1819
1139.250, 665.1171
1139.732, 676.3604
1140.214, 677.9467
1140.696, 668.2047
1141.178, 662.0455
1141.660, 660.7960
1142.142, 658.3731
1142.625, 652.6809
1143.107, 648.4348
1143.589, 649.5193
1144.071, 653.0677
1144.553, 654.0876
1145.035, 653.5084
1145.517, 654.6878
1145.999, 656.6269
1146.482, 655.9625
1146.964, 652.7115
1147.446, 648.4934
1147.928, 644.1182
1148.410, 641.3956
1148.892, 641.0238
1149.374, 643.9438
1149.856, 655.4191
1150.339, 666.3986
1150.821, 667.3195
1151.303, 661.8991
1151.785, 652.9646
1152.267, 643.7971
1152.749, 645.3915
1153.231, 666.0272
1153.713, 674.8365
1154.195, 651.8851
1154.677, 634.1849
1155.160, 636.4348
1155.642, 643.3506
1156.124, 647.2603
1156.606, 648.5457
1157.088, 647.4074
1157.570, 644.0192
1158.052, 639.6162
1158.534, 632.2569
1159.017, 634.0405
1159.499, 647.4654
1159.981, 658.7777
1160.463, 663.9256
1160.945, 665.9332
1161.427, 667.0815
1161.909, 666.0505
1162.391, 657.6067
1162.874, 646.2993
1163.356, 649.7973
1163.838, 663.2383
1164.320, 672.9221
1164.802, 676.5840
1165.284, 672.3045
1165.766, 660.5346
1166.248, 649.9250
1166.730, 645.8881
1167.213, 645.7662
1167.695, 649.3590
1168.177, 653.8215
1168.659, 656.2568
1169.141, 658.2828
1169.623, 664.0983
1170.105, 671.1526
1170.587, 671.2742
1171.069, 662.2164
1171.552, 653.1300
1172.034, 641.4120
1172.516, 636.2620
1172.998, 644.6398
1173.480, 651.6439
1173.962, 650.0510
1174.444, 645.5643
1174.926, 643.7150
1175.409, 644.1042
1175.891, 646.2391
1176.373, 650.6166
1176.855, 647.8325
1177.337, 637.5803
1177.819, 633.9180
1178.301, 639.4141
1178.783, 651.0726
1179.266, 667.4944
1179.748, 677.5175
1180.230, 665.9543
1180.712, 647.0987
1181.194, 644.7073
1181.676, 650.8565
1182.158, 653.7887
1182.640, 653.5583
1183.122, 651.5406
1183.604, 648.7582
1184.087, 647.1176
1184.569, 647.1674
1185.051, 649.5880
1185.533, 659.3624
1186.015, 665.1884
1186.497, 657.8364
1186.979, 649.6699
1187.461, 649.2003
1187.944, 653.2604
1188.426, 657.8073
1188.908, 662.4727
1189.390, 665.4704
1189.872, 667.7479
1190.354, 663.6743
1190.836, 650.1458
1191.318, 644.9310
1191.801, 653.0281
1192.283, 662.8757
1192.765, 668.4411
1193.247, 667.7936
1193.729, 655.3763
1194.211, 639.8432
1194.693, 647.4216
1195.175, 667.1509
1195.657, 667.1697
1196.140, 653.3091
1196.622, 649.0883
1197.104, 656.8550
1197.586, 661.6967
1198.068, 656.7847
1198.550, 651.0740
1199.032, 648.6391
1199.514, 649.0053
1199.996, 654.8469
1200.479, 660.3304
1200.961, 658.2051
1201.443, 654.4446
1201.925, 661.1405
1202.407, 675.9988
1202.889, 678.0639
1203.371, 660.8924
1203.853, 651.7325
1204.336, 653.1217
1204.818, 654.3080
1205.300, 653.0104
1205.782, 651.7079
1206.264, 651.4797
1206.746, 653.7694
1207.228, 661.6793
1207.710, 670.6531
1208.193, 667.6710
1208.675, 656.9268
1209.157, 649.8984
1209.639, 646.2076
1210.121, 641.8821
1210.603, 637.3751
1211.085, 638.4584
1211.567, 647.5445
1212.049, 655.9960
1212.531, 659.5338
1213.014, 659.6540
1213.496, 653.7245
1213.978, 648.4515
1214.460, 648.6835
1214.942, 652.1226
1215.424, 657.7495
1215.906, 663.6985
1216.388, 662.7793
1216.871, 652.2958
1217.353, 652.9492
1217.835, 668.8336
1218.317, 679.0344
1218.799, 680.9444
1219.281, 672.8680
1219.763, 653.0371
1220.245, 636.8222
1220.728, 638.6430
1221.210, 650.5135
1221.692, 661.3235
1222.174, 670.0807
1222.656, 674.4340
1223.138, 675.2721
1223.620, 673.9460
1224.102, 670.9748
1224.584, 665.4427
1225.067, 657.8272
1225.549, 655.6677
1226.031, 666.7820
1226.513, 674.7581
1226.995, 672.1760
1227.477, 667.8351
1227.959, 664.0309
1228.441, 661.5954
1228.923, 661.5601
1229.406, 662.7186
1229.888, 663.0305
1230.370, 662.5698
1230.852, 661.9374
1231.334, 661.0801
1231.816, 661.7000
1232.298, 663.8082
1232.780, 665.1107
1233.263, 665.1448
1233.745, 666.6646
1234.227, 671.4156
1234.709, 673.1268
1235.191, 661.8366
1235.673, 648.1558
1236.155, 642.6808
1236.637, 642.1907
1237.120, 643.8064
1237.602, 647.4612
1238.084, 654.5773
1238.566, 664.1848
1239.048, 672.7216
1239.530, 680.5483
1240.012, 682.9432
1240.494, 676.8032
1240.976, 671.1066
1241.458, 666.6093
1241.941, 663.3599
1242.423, 661.4459
1242.905, 660.5380
##END=



