##NAMES=Blodite
##RRUFFID=R050341
##IDEAL CHEMISTRY=Na_2_Mg(S^6+^O_4_)_2_&#183;4H_2_O
##LOCALITY=Soda Lake, San Luis Obispo County, California, USA
##OWNER=RRUFF
##SOURCE=George Rossman
##DESCRIPTION=Gray to colorless equant crystal
##STATUS=The identification of this mineral has been confirmed by X-ray diffraction and chemical analysis
##URL=rruff.info/R050341
##MEASURED CHEMISTRY=Na_2.00_Mg_1.00_(S_1.00_O_4_)_2_Â·4H_2_O
96.69257, 22.90978
97.17468, 23.56457
97.65680, 25.24146
98.13892, 27.92452
98.62103, 30.50320
99.10315, 32.50397
99.58527, 34.09502
100.0674, 36.34243
100.5495, 39.30244
101.0316, 42.75467
101.5137, 46.37380
101.9958, 50.14068
102.4780, 54.22054
102.9601, 58.59766
103.4422, 63.23195
103.9243, 68.39827
104.4064, 74.12978
104.8885, 80.39694
105.3707, 87.39667
105.8528, 95.67232
106.3349, 103.8368
106.8170, 111.3766
107.2991, 118.4718
107.7813, 124.5922
108.2634, 129.5086
108.7455, 133.4420
109.2276, 136.9673
109.7097, 139.3895
110.1918, 141.9413
110.6740, 145.1382
111.1561, 148.6192
111.6382, 153.1655
112.1203, 159.2278
112.6024, 166.6349
113.0845, 174.0149
113.5667, 179.9559
114.0488, 186.4256
114.5309, 194.8302
115.0130, 207.2214
115.4951, 219.8648
115.9772, 231.3126
116.4594, 241.7027
116.9415, 253.1909
117.4236, 267.5287
117.9057, 283.0839
118.3878, 298.0455
118.8699, 310.0074
119.3521, 322.6639
119.8342, 339.2321
120.3163, 360.3260
120.7984, 380.6162
121.2805, 396.6980
121.7626, 409.7870
122.2448, 421.9620
122.7269, 434.9986
123.2090, 447.2037
123.6911, 456.9140
124.1732, 463.8637
124.6553, 468.6969
125.1375, 472.4726
125.6196, 474.7529
126.1017, 474.1525
126.5838, 468.3980
127.0659, 459.4126
127.5480, 450.4595
128.0302, 441.7659
128.5123, 433.6324
128.9944, 426.4192
129.4765, 420.1224
129.9586, 414.7030
130.4407, 410.8604
130.9229, 408.0886
131.4050, 404.0607
131.8871, 397.7462
132.3692, 390.5589
132.8513, 386.3158
133.3334, 384.6568
133.8156, 381.5101
134.2977, 374.6695
134.7798, 365.5759
135.2619, 356.6365
135.7440, 348.0510
136.2261, 340.1009
136.7083, 333.7325
137.1904, 329.2711
137.6725, 325.2617
138.1546, 319.8667
138.6367, 312.6627
139.1188, 306.3695
139.6010, 301.8688
140.0831, 299.1761
140.5652, 295.7432
141.0473, 291.0802
141.5294, 286.2918
142.0115, 282.9825
142.4937, 281.6763
142.9758, 280.4528
143.4579, 278.3734
143.9400, 274.7878
144.4221, 273.6356
144.9042, 276.0409
145.3864, 280.1774
145.8685, 282.8306
146.3506, 282.9499
146.8327, 283.0496
147.3148, 283.9173
147.7969, 285.6823
148.2791, 287.9323
148.7612, 291.4639
149.2433, 295.4060
149.7254, 297.7666
150.2075, 297.0811
150.6896, 296.0984
151.1718, 295.8550
151.6539, 297.4833
152.1360, 298.2076
152.6181, 298.1289
153.1002, 297.1513
153.5823, 294.9741
154.0645, 289.8793
154.5466, 284.7946
155.0287, 281.1010
155.5108, 280.4111
155.9929, 279.2633
156.4750, 276.4677
156.9572, 272.5755
157.4393, 269.9184
157.9214, 270.2590
158.4035, 271.1841
158.8856, 271.1902
159.3677, 268.9552
159.8499, 266.7647
160.3320, 265.0451
160.8141, 263.8218
161.2962, 263.3004
161.7783, 264.6125
162.2604, 266.1747
162.7426, 266.6813
163.2247, 264.4104
163.7068, 262.1790
164.1889, 261.5469
164.6710, 262.3994
165.1531, 262.8893
165.6353, 261.5695
166.1174, 259.5948
166.5995, 258.2086
167.0816, 258.4593
167.5637, 258.9862
168.0458, 258.9694
168.5280, 258.3925
169.0101, 257.5368
169.4922, 256.1974
169.9743, 254.7667
170.4564, 253.8045
170.9385, 254.1002
171.4207, 254.6260
171.9028, 254.4936
172.3849, 253.6587
172.8670, 252.4552
173.3491, 250.8478
173.8312, 249.0565
174.3134, 247.4955
174.7955, 246.6122
175.2776, 245.9624
175.7597, 244.8566
176.2418, 243.1669
176.7239, 241.7666
177.2061, 241.9471
177.6882, 243.1232
178.1703, 243.7030
178.6524, 242.4663
179.1345, 240.2560
179.6166, 238.4676
180.0988, 237.1831
180.5809, 236.2005
181.0630, 235.4663
181.5451, 234.8894
182.0272, 234.1371
182.5093, 232.4219
182.9915, 230.4157
183.4736, 230.1788
183.9557, 232.2554
184.4378, 234.5980
184.9199, 233.7953
185.4020, 230.3357
185.8842, 227.5907
186.3663, 228.0856
186.8484, 230.9407
187.3305, 232.8736
187.8126, 233.4877
188.2947, 233.5803
188.7769, 234.5179
189.2590, 236.2563
189.7411, 237.8513
190.2232, 238.4258
190.7053, 238.2310
191.1874, 238.9388
191.6696, 240.7984
192.1517, 243.4050
192.6338, 246.3748
193.1159, 249.7467
193.5980, 252.5008
194.0801, 254.0680
194.5623, 254.4722
195.0444, 253.8015
195.5265, 251.6796
196.0086, 249.0251
196.4907, 248.1950
196.9728, 249.4622
197.4550, 250.2547
197.9371, 248.4989
198.4192, 244.1382
198.9013, 240.9737
199.3834, 239.6546
199.8655, 239.3849
200.3477, 238.0974
200.8298, 235.5683
201.3119, 233.0426
201.7940, 231.2452
202.2761, 230.2199
202.7582, 229.4068
203.2404, 228.6864
203.7225, 228.2013
204.2046, 228.5698
204.6867, 230.1019
205.1688, 231.4341
205.6509, 231.3248
206.1331, 229.3520
206.6152, 228.8117
207.0973, 230.3664
207.5794, 233.3318
208.0615, 235.5583
208.5436, 236.8027
209.0257, 237.9583
209.5079, 239.5198
209.9900, 241.4899
210.4721, 243.9107
210.9542, 247.1582
211.4363, 250.7296
211.9184, 252.7194
212.4006, 252.4956
212.8827, 252.0561
213.3648, 252.7184
213.8469, 254.8823
214.3290, 256.7328
214.8111, 258.2929
215.2933, 259.4020
215.7754, 259.3438
216.2575, 257.5276
216.7396, 255.6518
217.2217, 254.8029
217.7038, 255.3679
218.1860, 255.8058
218.6681, 256.1226
219.1502, 256.2250
219.6323, 255.6950
220.1144, 254.3023
220.5965, 252.6854
221.0787, 251.2283
221.5608, 250.0526
222.0429, 248.7369
222.5250, 247.3103
223.0071, 245.7265
223.4892, 243.6938
223.9714, 240.4608
224.4535, 237.9352
224.9356, 237.5254
225.4177, 241.0270
225.8998, 242.2148
226.3819, 240.0879
226.8641, 235.5239
227.3462, 231.5845
227.8283, 228.4780
228.3104, 225.6768
228.7925, 222.9267
229.2746, 220.0262
229.7568, 217.5948
230.2389, 215.9150
230.7210, 214.6536
231.2031, 212.7956
231.6852, 210.1507
232.1673, 207.1958
232.6495, 204.0843
233.1316, 200.4385
233.6137, 197.5121
234.0958, 195.6003
234.5779, 194.4032
235.0600, 193.1404
235.5422, 191.8407
236.0243, 190.4135
236.5064, 188.7471
236.9885, 186.4944
237.4706, 184.8039
237.9527, 183.9478
238.4349, 183.6016
238.9170, 182.8698
239.3991, 181.0983
239.8812, 179.9200
240.3633, 180.1979
240.8454, 182.8675
241.3276, 184.6745
241.8097, 185.4464
242.2918, 185.3958
242.7739, 184.8844
243.2560, 183.5146
243.7381, 182.2973
244.2203, 181.5929
244.7024, 181.4367
245.1845, 181.7309
245.6666, 182.7018
246.1487, 184.0143
246.6308, 185.0755
247.1130, 185.9361
247.5951, 186.4445
248.0772, 186.2594
248.5593, 184.7233
249.0414, 185.0250
249.5235, 188.1735
250.0057, 192.5202
250.4878, 195.3350
250.9699, 195.8553
251.4520, 196.2042
251.9341, 197.1083
252.4162, 198.7848
252.8984, 199.9028
253.3805, 200.1044
253.8626, 200.0276
254.3447, 200.6961
254.8268, 202.6535
255.3089, 204.2722
255.7911, 205.0777
256.2732, 205.0250
256.7553, 204.5435
257.2374, 203.3748
257.7195, 202.0294
258.2017, 201.1975
258.6838, 201.1924
259.1659, 200.9737
259.6480, 200.2714
260.1301, 199.0808
260.6122, 197.6740
261.0944, 195.8278
261.5765, 194.0368
262.0586, 192.9491
262.5407, 192.9784
263.0228, 192.5942
263.5049, 191.5357
263.9871, 189.7939
264.4692, 187.2604
264.9513, 183.5307
265.4334, 179.6242
265.9155, 176.4119
266.3976, 174.0844
266.8798, 171.9986
267.3619, 170.0655
267.8440, 168.2828
268.3261, 166.7574
268.8082, 165.4708
269.2903, 164.4823
269.7725, 163.9751
270.2546, 164.1214
270.7367, 163.9957
271.2188, 163.5025
271.7009, 162.6395
272.1830, 161.2693
272.6652, 159.2334
273.1473, 157.1501
273.6294, 155.1914
274.1115, 153.1997
274.5936, 152.5271
275.0757, 153.7058
275.5579, 155.9969
276.0400, 157.2608
276.5221, 157.3666
277.0042, 156.9683
277.4863, 155.8885
277.9684, 153.9341
278.4506, 154.4023
278.9327, 158.4831
279.4148, 163.8745
279.8969, 165.2119
280.3790, 161.9467
280.8611, 158.5008
281.3433, 157.1563
281.8254, 157.9003
282.3075, 159.0009
282.7896, 160.5114
283.2717, 162.1415
283.7538, 163.3564
284.2360, 164.1372
284.7181, 165.0132
285.2002, 166.2111
285.6823, 167.7124
286.1644, 169.4307
286.6465, 171.4121
287.1287, 173.3805
287.6108, 175.0499
288.0929, 176.4152
288.5750, 177.3689
289.0571, 177.5831
289.5392, 177.3458
290.0214, 177.8954
290.5035, 179.2964
290.9856, 180.9139
291.4677, 182.0912
291.9498, 182.8925
292.4319, 183.6768
292.9141, 184.5653
293.3962, 185.5109
293.8783, 186.3392
294.3604, 187.0446
294.8425, 187.8908
295.3246, 189.4261
295.8068, 191.3602
296.2889, 192.6704
296.7710, 193.0254
297.2531, 192.7712
297.7352, 192.4097
298.2173, 191.9393
298.6995, 191.3220
299.1816, 190.5607
299.6637, 189.6297
300.1458, 188.4220
300.6279, 186.7708
301.1100, 185.1313
301.5922, 184.1854
302.0743, 183.7944
302.5564, 183.4070
303.0385, 183.0451
303.5206, 182.3681
304.0027, 180.6569
304.4849, 177.6050
304.9670, 174.4607
305.4491, 172.5667
305.9312, 171.5419
306.4133, 170.4721
306.8954, 168.4595
307.3776, 166.4163
307.8597, 165.5457
308.3418, 166.0257
308.8239, 166.3873
309.3060, 165.1650
309.7881, 163.1623
310.2703, 161.6855
310.7524, 161.9818
311.2345, 162.4516
311.7166, 161.7440
312.1987, 159.8868
312.6808, 158.2356
313.1630, 157.6084
313.6451, 157.5536
314.1272, 157.5802
314.6093, 157.4147
315.0914, 157.3956
315.5735, 157.9104
316.0557, 158.8164
316.5378, 159.3620
317.0199, 159.0212
317.5020, 158.3185
317.9841, 157.5998
318.4662, 156.7949
318.9484, 156.2287
319.4305, 156.1304
319.9126, 156.3656
320.3947, 156.5815
320.8768, 156.7094
321.3589, 156.7679
321.8411, 156.6859
322.3232, 156.2074
322.8053, 156.2038
323.2874, 157.3390
323.7695, 158.9594
324.2516, 160.0300
324.7338, 159.8480
325.2159, 159.5940
325.6980, 159.4776
326.1801, 159.3736
326.6622, 160.0443
327.1443, 162.4704
327.6265, 165.2954
328.1086, 167.1579
328.5907, 167.2529
329.0728, 167.2423
329.5549, 167.2763
330.0370, 167.3549
330.5192, 167.6566
331.0013, 167.8876
331.4834, 168.5901
331.9655, 170.2787
332.4476, 174.2669
332.9297, 176.9300
333.4118, 177.2957
333.8940, 176.0219
334.3761, 176.0836
334.8582, 178.1694
335.3403, 180.4839
335.8224, 182.0469
336.3045, 182.4578
336.7867, 183.3674
337.2688, 185.0549
337.7509, 187.0723
338.2330, 188.4455
338.7151, 188.9012
339.1972, 189.5379
339.6794, 190.7739
340.1615, 192.6102
340.6436, 194.9133
341.1257, 197.8479
341.6078, 200.8482
342.0899, 202.9745
342.5721, 204.0918
343.0542, 205.7496
343.5363, 208.6049
344.0184, 212.3264
344.5005, 215.4924
344.9826, 218.0177
345.4648, 220.4321
345.9469, 223.1090
346.4290, 226.0743
346.9111, 229.3173
347.3932, 233.0634
347.8753, 236.8059
348.3575, 239.3982
348.8396, 240.8944
349.3217, 242.0626
349.8038, 243.7194
350.2859, 245.3972
350.7680, 245.8262
351.2502, 244.6919
351.7323, 242.9283
352.2144, 241.8532
352.6965, 241.0817
353.1786, 239.4802
353.6607, 235.8155
354.1429, 231.3197
354.6250, 227.2905
355.1071, 223.7772
355.5892, 221.0893
356.0713, 220.5234
356.5534, 220.7178
357.0356, 219.6405
357.5177, 215.2828
357.9998, 210.4523
358.4819, 207.0993
358.9640, 205.0747
359.4461, 203.6622
359.9283, 203.0571
360.4104, 202.5951
360.8925, 201.6466
361.3746, 199.5890
361.8567, 197.8586
362.3388, 197.5128
362.8210, 197.9351
363.3031, 197.7196
363.7852, 195.3994
364.2673, 193.1634
364.7494, 192.2475
365.2315, 193.2921
365.7137, 193.7614
366.1958, 192.2057
366.6779, 190.1479
367.1600, 189.3653
367.6421, 191.7950
368.1242, 193.7168
368.6064, 194.1236
369.0885, 192.9140
369.5706, 192.1395
370.0527, 192.0364
370.5348, 192.1819
371.0169, 192.2809
371.4991, 192.0373
371.9812, 192.2797
372.4633, 193.3551
372.9454, 194.9505
373.4275, 195.8747
373.9096, 195.7147
374.3918, 195.6241
374.8739, 196.2138
375.3560, 197.7268
375.8381, 198.8505
376.3202, 199.5271
376.8023, 199.8736
377.2845, 199.9109
377.7666, 199.5103
378.2487, 199.5200
378.7308, 200.3841
379.2129, 201.9407
379.6950, 202.9513
380.1772, 203.3342
380.6593, 203.6296
381.1414, 204.2512
381.6235, 205.1984
382.1056, 206.6792
382.5877, 209.0866
383.0699, 211.5506
383.5520, 212.0475
384.0341, 210.7682
384.5162, 209.6075
384.9983, 210.1404
385.4804, 211.6067
385.9626, 212.2187
386.4447, 211.6556
386.9268, 211.0163
387.4089, 211.2052
387.8910, 212.1667
388.3731, 213.7754
388.8553, 216.6472
389.3374, 219.7180
389.8195, 221.9638
390.3016, 223.3685
390.7837, 224.3836
391.2658, 224.9180
391.7480, 225.3426
392.2301, 226.0465
392.7122, 227.2175
393.1943, 228.5766
393.6764, 230.2538
394.1585, 232.0556
394.6407, 233.3982
395.1228, 232.8748
395.6049, 232.8073
396.0870, 234.8199
396.5691, 240.1945
397.0512, 244.0064
397.5334, 244.1071
398.0155, 242.5346
398.4976, 241.8405
398.9797, 242.6800
399.4618, 243.9803
399.9439, 245.6987
400.4261, 247.8280
400.9082, 249.8148
401.3903, 251.8880
401.8724, 253.5935
402.3545, 254.3730
402.8366, 252.7145
403.3188, 253.6172
403.8009, 258.6362
404.2830, 265.8203
404.7651, 269.9673
405.2472, 270.0607
405.7293, 269.9119
406.2115, 271.1469
406.6936, 273.8035
407.1757, 276.0937
407.6578, 277.9493
408.1399, 279.6432
408.6220, 281.4543
409.1042, 283.3851
409.5863, 285.5149
410.0684, 287.9003
410.5505, 290.4670
411.0326, 293.1862
411.5147, 296.0667
411.9969, 298.9945
412.4790, 301.8378
412.9611, 304.7103
413.4432, 307.8784
413.9253, 311.4652
414.4074, 315.1411
414.8896, 318.5107
415.3717, 321.7046
415.8538, 325.0091
416.3359, 328.7413
416.8180, 332.5038
417.3001, 335.7420
417.7823, 338.5101
418.2644, 341.4448
418.7465, 344.8706
419.2286, 348.7336
419.7107, 352.9998
420.1928, 358.4799
420.6750, 363.3154
421.1571, 366.0008
421.6392, 367.4566
422.1213, 370.0079
422.6034, 375.4486
423.0855, 381.0861
423.5677, 385.7840
424.0498, 389.0866
424.5319, 392.6704
425.0140, 396.7749
425.4961, 401.2094
425.9782, 405.8054
426.4604, 410.7536
426.9425, 415.6017
427.4246, 420.2665
427.9067, 424.8031
428.3888, 429.1444
428.8709, 432.7844
429.3531, 437.1015
429.8352, 443.1828
430.3173, 451.3755
430.7994, 459.0746
431.2815, 466.0263
431.7636, 472.7305
432.2458, 479.7117
432.7279, 486.9416
433.2100, 494.8344
433.6921, 503.6564
434.1742, 513.2639
434.6563, 522.9362
435.1385, 532.7905
435.6206, 542.7645
436.1027, 552.8512
436.5848, 563.0432
437.0669, 573.0459
437.5490, 582.3729
438.0312, 592.6678
438.5133, 607.1041
438.9954, 624.3254
439.4775, 640.5525
439.9596, 652.6932
440.4417, 663.7201
440.9239, 676.0917
441.4060, 689.9583
441.8881, 704.9233
442.3702, 720.1744
442.8523, 736.5053
443.3344, 754.8411
443.8166, 776.8700
444.2987, 799.2180
444.7808, 819.9242
445.2629, 840.0306
445.7450, 862.7919
446.2271, 889.3737
446.7093, 917.7147
447.1914, 946.9344
447.6735, 976.8099
448.1556, 1008.519
448.6377, 1042.893
449.1198, 1078.219
449.6020, 1112.920
450.0841, 1146.010
450.5662, 1179.183
451.0483, 1213.287
451.5304, 1247.747
452.0125, 1279.544
452.4947, 1309.438
452.9768, 1335.153
453.4589, 1356.449
453.9410, 1373.480
454.4231, 1382.580
454.9052, 1383.607
455.3874, 1377.465
455.8695, 1363.982
456.3516, 1343.615
456.8337, 1320.425
457.3158, 1295.219
457.7979, 1268.062
458.2801, 1238.677
458.7622, 1207.304
459.2443, 1174.391
459.7264, 1138.614
460.2085, 1102.408
460.6906, 1069.747
461.1728, 1041.710
461.6549, 1015.096
462.1370, 988.2584
462.6191, 961.6842
463.1012, 936.6999
463.5833, 913.3361
464.0655, 892.0215
464.5476, 873.6769
465.0297, 858.1159
465.5118, 843.0563
465.9939, 828.1810
466.4760, 813.7441
466.9582, 800.0309
467.4403, 787.4999
467.9224, 774.6241
468.4045, 761.2335
468.8866, 747.6026
469.3687, 734.0339
469.8509, 721.7413
470.3330, 707.6471
470.8151, 690.4237
471.2972, 670.4913
471.7793, 652.4552
472.2614, 636.7062
472.7436, 621.3217
473.2257, 605.2134
473.7078, 588.3175
474.1899, 570.0173
474.6720, 549.9340
475.1541, 529.0443
475.6363, 508.0993
476.1184, 487.3266
476.6005, 468.2306
477.0826, 451.7707
477.5647, 437.1627
478.0468, 423.1465
478.5290, 409.6660
479.0111, 396.2133
479.4932, 381.9205
479.9753, 367.6738
480.4574, 354.4964
480.9395, 342.6031
481.4217, 331.5943
481.9038, 321.3753
482.3859, 312.0274
482.8680, 303.8165
483.3501, 297.9358
483.8322, 292.1272
484.3144, 285.3886
484.7965, 277.8374
485.2786, 270.6728
485.7607, 263.6401
486.2428, 257.4744
486.7249, 252.6096
487.2071, 249.8821
487.6892, 246.7575
488.1713, 242.9572
488.6534, 238.9639
489.1355, 235.4557
489.6176, 232.5860
490.0998, 229.6944
490.5819, 226.4843
491.0640, 223.0912
491.5461, 220.3065
492.0282, 218.1596
492.5103, 216.3025
492.9925, 214.4662
493.4746, 212.6960
493.9567, 211.3974
494.4388, 210.6120
494.9209, 210.1054
495.4030, 209.7564
495.8852, 209.4704
496.3673, 209.0253
496.8494, 208.6228
497.3315, 207.7448
497.8136, 205.3187
498.2957, 201.7773
498.7779, 199.0112
499.2600, 198.6333
499.7421, 198.9184
500.2242, 198.6272
500.7063, 197.4470
501.1884, 196.4052
501.6706, 195.5743
502.1527, 195.1455
502.6348, 195.3327
503.1169, 198.0870
503.5990, 199.1225
504.0811, 196.9135
504.5633, 192.5559
505.0454, 190.1447
505.5275, 190.5902
506.0096, 191.4894
506.4917, 191.8721
506.9738, 191.6660
507.4560, 191.9676
507.9381, 192.9768
508.4202, 193.9521
508.9023, 194.0472
509.3844, 193.3085
509.8665, 192.4525
510.3487, 191.4326
510.8308, 190.6859
511.3129, 191.2324
511.7950, 192.8212
512.2772, 194.2783
512.7593, 195.0651
513.2414, 195.3358
513.7235, 195.1931
514.2056, 194.6557
514.6877, 193.9833
515.1699, 193.0539
515.6520, 192.2131
516.1341, 191.7980
516.6162, 192.0125
517.0983, 192.3968
517.5804, 192.7944
518.0626, 193.2635
518.5447, 193.9008
519.0268, 195.3398
519.5089, 196.2696
519.9910, 196.0487
520.4731, 194.7977
520.9553, 194.5106
521.4374, 195.7374
521.9195, 197.1108
522.4016, 197.8029
522.8837, 197.6129
523.3658, 197.8316
523.8480, 198.5961
524.3301, 199.5108
524.8122, 199.9944
525.2943, 200.0764
525.7764, 200.2232
526.2585, 200.5408
526.7407, 201.0197
527.2228, 201.8831
527.7049, 203.0145
528.1870, 203.7108
528.6691, 203.0508
529.1512, 201.9864
529.6334, 201.5823
530.1155, 201.9147
530.5976, 202.7000
531.0797, 204.3153
531.5618, 206.0428
532.0439, 207.1095
532.5261, 206.5302
533.0082, 206.4292
533.4903, 207.6303
533.9724, 209.6466
534.4545, 211.4786
534.9366, 213.5699
535.4188, 214.8347
535.9009, 214.8110
536.3830, 213.5329
536.8651, 212.2747
537.3472, 210.7044
537.8293, 209.8129
538.3115, 210.5735
538.7936, 213.1414
539.2757, 215.1644
539.7578, 216.5374
540.2399, 217.3038
540.7220, 217.1923
541.2042, 216.3905
541.6863, 216.0020
542.1684, 216.5630
542.6505, 217.4644
543.1326, 217.8304
543.6147, 217.7691
544.0969, 217.7040
544.5790, 217.5237
545.0611, 217.6784
545.5432, 218.9124
546.0253, 221.3570
546.5074, 223.0708
546.9896, 222.2017
547.4717, 220.8268
547.9538, 220.6478
548.4359, 223.3756
548.9180, 225.3578
549.4001, 225.7314
549.8823, 225.3851
550.3644, 225.8949
550.8465, 227.9914
551.3286, 229.5656
551.8107, 229.9528
552.2928, 229.3369
552.7750, 229.0326
553.2571, 229.0592
553.7392, 229.2900
554.2213, 229.5799
554.7034, 229.9769
555.1855, 230.9396
555.6677, 232.5720
556.1498, 234.1466
556.6319, 234.7885
557.1140, 234.8040
557.5961, 234.7727
558.0782, 234.7128
558.5604, 234.9063
559.0425, 235.5672
559.5246, 236.6508
560.0067, 238.0639
560.4888, 240.1801
560.9709, 242.2323
561.4531, 243.9449
561.9352, 245.3102
562.4173, 246.1865
562.8994, 246.1606
563.3815, 245.9547
563.8636, 245.8066
564.3458, 245.3000
564.8279, 246.0845
565.3100, 248.6160
565.7921, 251.8762
566.2742, 254.7645
566.7563, 257.3643
567.2385, 258.8246
567.7206, 258.5592
568.2027, 257.5433
568.6848, 258.0051
569.1669, 259.7787
569.6490, 261.5915
570.1312, 262.5665
570.6133, 263.2776
571.0954, 264.7348
571.5775, 266.9091
572.0596, 268.7662
572.5417, 269.4215
573.0239, 269.6208
573.5060, 270.0475
573.9881, 271.0267
574.4702, 271.6850
574.9523, 271.3154
575.4344, 270.6535
575.9166, 270.6351
576.3987, 271.8882
576.8808, 273.0311
577.3629, 273.8163
577.8450, 274.4040
578.3271, 275.3685
578.8092, 276.8221
579.2913, 278.3098
579.7734, 279.7224
580.2556, 281.0077
580.7377, 281.8272
581.2198, 282.1393
581.7019, 282.3440
582.1840, 282.4956
582.6661, 282.8091
583.1483, 284.1057
583.6304, 286.7052
584.1125, 288.9968
584.5946, 289.2921
585.0767, 288.4346
585.5588, 287.6470
586.0410, 287.0118
586.5231, 286.9159
587.0052, 287.7604
587.4873, 289.2991
587.9694, 290.8424
588.4515, 292.5404
588.9337, 293.9541
589.4158, 294.8799
589.8979, 295.3159
590.3800, 295.8011
590.8621, 296.0574
591.3442, 296.8538
591.8264, 298.8711
592.3085, 302.2127
592.7906, 305.1228
593.2727, 307.4747
593.7548, 309.6516
594.2369, 311.4387
594.7191, 313.3268
595.2012, 317.4370
595.6833, 325.1822
596.1654, 333.5862
596.6475, 338.5147
597.1296, 341.5270
597.6118, 346.3510
598.0939, 355.6417
598.5760, 366.3340
599.0581, 376.6237
599.5402, 386.5149
600.0223, 398.0039
600.5045, 413.1406
600.9866, 428.5682
601.4687, 442.5149
601.9508, 454.0474
602.4329, 468.4243
602.9150, 486.8139
603.3972, 506.3021
603.8793, 523.5348
604.3614, 538.0637
604.8435, 556.1234
605.3256, 578.6151
605.8077, 604.0645
606.2899, 629.4371
606.7720, 655.3687
607.2541, 683.7905
607.7362, 715.3549
608.2183, 749.8405
608.7004, 786.3135
609.1826, 825.2186
609.6647, 866.7738
610.1468, 910.8557
610.6289, 958.6346
611.1110, 1010.466
611.5931, 1067.048
612.0753, 1126.183
612.5574, 1191.036
613.0395, 1256.277
613.5216, 1319.163
614.0037, 1381.562
614.4858, 1439.135
614.9680, 1494.526
615.4501, 1541.541
615.9322, 1572.891
616.4143, 1588.359
616.8964, 1592.032
617.3785, 1585.386
617.8607, 1565.653
618.3428, 1525.349
618.8249, 1466.899
619.3070, 1400.390
619.7891, 1324.958
620.2712, 1247.723
620.7534, 1174.748
621.2355, 1105.557
621.7176, 1041.029
622.1997, 980.3337
622.6818, 925.3470
623.1639, 877.0913
623.6461, 836.1373
624.1282, 798.6083
624.6103, 764.3253
625.0924, 733.0245
625.5745, 704.6180
626.0566, 678.6559
626.5388, 656.3098
627.0209, 638.5763
627.5030, 623.1624
627.9851, 607.0224
628.4672, 590.3556
628.9493, 574.6863
629.4315, 560.5465
629.9136, 547.2218
630.3957, 534.0350
630.8778, 520.9077
631.3599, 507.7650
631.8420, 493.9919
632.3242, 480.6695
632.8063, 468.8524
633.2884, 458.3970
633.7705, 447.8679
634.2526, 436.6351
634.7347, 425.3532
635.2169, 413.8943
635.6990, 402.0615
636.1811, 392.0295
636.6632, 384.7444
637.1453, 378.0290
637.6274, 370.3885
638.1096, 361.5845
638.5917, 352.9634
639.0738, 344.4200
639.5559, 336.3358
640.0380, 328.9899
640.5201, 322.3661
641.0023, 316.6032
641.4844, 311.7691
641.9665, 307.5891
642.4486, 304.1246
642.9307, 300.9526
643.4128, 297.2140
643.8950, 291.6647
644.3771, 286.2844
644.8592, 281.8898
645.3413, 278.4444
645.8234, 275.3976
646.3055, 273.3085
646.7877, 271.0073
647.2698, 268.0053
647.7519, 264.2338
648.2340, 261.0350
648.7161, 258.3992
649.1982, 256.3674
649.6804, 255.5053
650.1625, 255.5739
650.6446, 253.9172
651.1267, 250.1852
651.6088, 246.5094
652.0909, 245.7671
652.5731, 246.5149
653.0552, 246.0119
653.5373, 242.9854
654.0194, 240.1159
654.5015, 239.7550
654.9836, 240.3842
655.4658, 239.7697
655.9479, 235.4073
656.4300, 231.9922
656.9121, 231.0151
657.3942, 231.6071
657.8763, 231.4763
658.3585, 230.5110
658.8406, 229.0188
659.3227, 226.7723
659.8048, 224.0758
660.2869, 222.8675
660.7690, 223.1976
661.2512, 223.5445
661.7333, 222.8819
662.2154, 221.5686
662.6975, 220.0566
663.1796, 218.3879
663.6617, 217.2253
664.1439, 218.0179
664.6260, 218.9314
665.1081, 218.0205
665.5902, 214.1964
666.0723, 211.3078
666.5544, 211.4985
667.0366, 212.3436
667.5187, 211.5444
668.0008, 207.9998
668.4829, 205.1176
668.9650, 203.2500
669.4471, 201.9651
669.9293, 200.5742
670.4114, 199.0750
670.8935, 197.7561
671.3756, 196.7636
671.8577, 195.8773
672.3398, 194.7306
672.8220, 193.3564
673.3041, 191.8939
673.7862, 190.1523
674.2683, 188.5626
674.7504, 187.6125
675.2325, 187.1527
675.7147, 186.4616
676.1968, 185.0407
676.6789, 183.5780
677.1610, 182.3842
677.6431, 181.4574
678.1252, 180.6307
678.6074, 180.0395
679.0895, 179.3095
679.5716, 178.0777
680.0537, 176.3348
680.5358, 175.1754
681.0179, 174.7021
681.5001, 174.2157
681.9822, 172.8407
682.4643, 170.9860
682.9464, 169.4933
683.4285, 168.5020
683.9106, 167.8684
684.3928, 167.9764
684.8749, 168.1811
685.3570, 167.7065
685.8391, 165.6084
686.3212, 163.7367
686.8033, 162.5183
687.2855, 161.6360
687.7676, 160.5504
688.2497, 158.9982
688.7318, 157.9769
689.2139, 158.0193
689.6960, 158.4364
690.1782, 156.9426
690.6603, 153.6642
691.1424, 151.0571
691.6245, 150.7349
692.1066, 151.4201
692.5887, 151.2078
693.0709, 150.2453
693.5530, 149.1536
694.0351, 148.3591
694.5172, 147.4780
694.9993, 145.8559
695.4814, 143.4206
695.9636, 142.4285
696.4457, 145.0957
696.9278, 147.4258
697.4099, 147.3257
697.8920, 144.2604
698.3741, 142.4586
698.8563, 142.2107
699.3384, 142.3326
699.8205, 141.6692
700.3026, 140.4386
700.7847, 139.7561
701.2668, 139.8177
701.7490, 139.8221
702.2311, 138.6263
702.7132, 137.0310
703.1953, 136.2939
703.6774, 137.4756
704.1595, 137.9660
704.6417, 135.8824
705.1238, 132.8266
705.6059, 131.0918
706.0880, 131.7454
706.5701, 132.1153
707.0522, 131.9019
707.5344, 131.3107
708.0165, 130.7639
708.4986, 130.2726
708.9807, 129.6366
709.4628, 128.6082
709.9449, 127.6337
710.4271, 127.7080
710.9092, 128.6103
711.3913, 129.5255
711.8734, 130.5428
712.3555, 130.9764
712.8376, 129.7944
713.3198, 127.4040
713.8019, 125.8507
714.2840, 126.4333
714.7661, 127.2098
715.2482, 127.4851
715.7303, 127.2739
716.2125, 127.1212
716.6946, 127.1706
717.1767, 126.8839
717.6588, 125.5205
718.1409, 123.3554
718.6230, 122.9786
719.1052, 124.4343
719.5873, 125.6920
720.0694, 124.4569
720.5515, 122.3944
721.0336, 121.8626
721.5157, 123.3365
721.9979, 124.5704
722.4800, 124.6004
722.9621, 123.9118
723.4442, 122.8009
723.9263, 120.7855
724.4084, 119.5214
724.8906, 119.2871
725.3727, 119.4613
725.8548, 119.4357
726.3369, 119.1944
726.8190, 118.9754
727.3011, 118.8012
727.7833, 118.6794
728.2654, 118.7492
728.7475, 118.8753
729.2296, 118.6807
729.7117, 117.8474
730.1938, 117.1192
730.6760, 117.2318
731.1581, 117.7233
731.6402, 117.8826
732.1223, 117.1620
732.6044, 116.5667
733.0865, 116.2299
733.5687, 116.1103
734.0508, 116.2483
734.5329, 116.8416
735.0150, 116.8059
735.4971, 115.6426
735.9792, 113.9250
736.4614, 112.8144
736.9435, 112.2842
737.4256, 112.1973
737.9077, 112.9133
738.3898, 113.7116
738.8719, 113.8673
739.3541, 113.5277
739.8362, 113.2077
740.3183, 113.1025
740.8004, 113.0360
741.2825, 112.8834
741.7646, 112.6754
742.2468, 112.8332
742.7289, 113.7378
743.2110, 114.0293
743.6931, 112.7445
744.1752, 110.2691
744.6573, 108.8331
745.1395, 108.4299
745.6216, 108.4187
746.1037, 108.3123
746.5858, 108.3738
747.0679, 109.2645
747.5500, 110.9443
748.0322, 111.8932
748.5143, 110.4103
748.9964, 108.7796
749.4785, 108.6215
749.9606, 110.5246
750.4427, 111.1423
750.9249, 109.7461
751.4070, 108.3130
751.8891, 108.5886
752.3712, 110.5269
752.8533, 110.8287
753.3354, 109.2547
753.8176, 107.5334
754.2997, 107.5568
754.7818, 108.3961
755.2639, 108.5176
755.7460, 107.5572
756.2281, 106.7343
756.7103, 106.7293
757.1924, 107.1293
757.6745, 107.6124
758.1566, 108.3242
758.6387, 108.7224
759.1208, 108.6343
759.6030, 108.4453
760.0851, 108.6645
760.5672, 109.3198
761.0493, 109.4471
761.5314, 108.8562
762.0135, 108.0746
762.4957, 107.6139
762.9778, 107.4412
763.4599, 107.5657
763.9420, 108.1954
764.4241, 108.5993
764.9063, 107.9785
765.3884, 107.0649
765.8705, 106.7694
766.3526, 108.2949
766.8347, 108.8007
767.3168, 107.5871
767.7990, 105.8375
768.2811, 105.4609
768.7632, 106.5328
769.2453, 107.4637
769.7274, 107.9854
770.2095, 108.1015
770.6917, 107.4745
771.1738, 106.4687
771.6559, 105.9140
772.1380, 106.5514
772.6201, 107.0870
773.1022, 106.5145
773.5844, 105.4414
774.0665, 104.9614
774.5486, 105.7608
775.0307, 106.3469
775.5128, 106.4518
775.9949, 106.3001
776.4771, 106.4156
776.9592, 106.8121
777.4413, 107.0974
777.9234, 107.0851
778.4055, 107.0235
778.8876, 107.4426
779.3698, 108.1271
779.8519, 108.5235
780.3340, 108.0482
780.8161, 107.5690
781.2982, 107.5046
781.7803, 107.7413
782.2625, 107.9714
782.7446, 108.1539
783.2267, 108.3518
783.7088, 108.6020
784.1909, 108.8610
784.6730, 109.0824
785.1552, 109.2649
785.6373, 109.0574
786.1194, 107.9616
786.6015, 106.8096
787.0836, 107.2086
787.5657, 108.6006
788.0479, 109.4378
788.5300, 108.3191
789.0121, 107.1721
789.4942, 106.9612
789.9763, 107.4425
790.4584, 107.5518
790.9406, 106.9670
791.4227, 106.5948
791.9048, 106.6883
792.3869, 107.1647
792.8690, 107.9612
793.3511, 109.0377
793.8333, 109.6539
794.3154, 108.9559
794.7975, 108.0492
795.2796, 108.5488
795.7617, 110.0240
796.2438, 111.0730
796.7260, 110.4951
797.2081, 110.0558
797.6902, 110.8992
798.1723, 112.5107
798.6544, 112.6801
799.1365, 110.6938
799.6187, 109.1958
800.1008, 109.2488
800.5829, 110.2677
801.0650, 110.4872
801.5471, 110.0123
802.0292, 109.5256
802.5114, 109.3328
802.9935, 109.3394
803.4756, 109.5059
803.9577, 109.8054
804.4398, 110.1516
804.9219, 110.6904
805.4041, 111.0746
805.8862, 111.1293
806.3683, 110.9541
806.8504, 111.0261
807.3325, 111.4424
807.8146, 111.5939
808.2968, 111.0429
808.7789, 110.2578
809.2610, 110.4195
809.7431, 111.3257
810.2252, 112.1503
810.7073, 112.5475
811.1895, 112.6443
811.6716, 112.3358
812.1537, 111.7666
812.6358, 111.4521
813.1179, 111.5573
813.6000, 111.8165
814.0822, 112.2531
814.5643, 112.7812
815.0464, 113.0152
815.5285, 112.9467
816.0106, 113.0057
816.4927, 113.3630
816.9749, 113.9522
817.4570, 115.0208
817.9391, 116.2646
818.4212, 116.8381
818.9033, 115.3419
819.3854, 114.1490
819.8676, 114.5456
820.3497, 116.0591
820.8318, 116.9895
821.3139, 117.0631
821.7960, 117.1610
822.2781, 117.4672
822.7603, 117.9584
823.2424, 118.7086
823.7245, 119.6607
824.2066, 120.4231
824.6887, 120.7936
825.1708, 120.9753
825.6530, 121.0998
826.1351, 121.1882
826.6172, 121.2826
827.0993, 121.7933
827.5814, 121.7848
828.0635, 120.5258
828.5457, 118.8996
829.0278, 119.0010
829.5099, 121.1753
829.9920, 122.6725
830.4741, 122.5528
830.9562, 121.9701
831.4384, 122.9375
831.9205, 124.9389
832.4026, 126.6781
832.8847, 127.8374
833.3668, 128.4260
833.8489, 127.9742
834.3311, 127.0776
834.8132, 126.7870
835.2953, 127.4749
835.7774, 128.1460
836.2595, 128.7305
836.7416, 129.2088
837.2238, 129.5612
837.7059, 129.7865
838.1880, 129.8320
838.6701, 129.6615
839.1522, 129.3915
839.6343, 129.1268
840.1165, 128.8432
840.5986, 128.4604
841.0807, 127.3763
841.5628, 127.1856
842.0449, 129.0153
842.5270, 131.3215
843.0092, 132.5485
843.4913, 132.5167
843.9734, 132.4056
844.4555, 132.3154
844.9376, 132.1734
845.4197, 131.7795
845.9019, 131.2919
846.3840, 130.9457
846.8661, 130.6963
847.3482, 131.0347
847.8303, 133.1086
848.3124, 135.3708
848.7946, 136.3675
849.2767, 135.5792
849.7588, 134.5384
850.2409, 132.9680
850.7230, 131.6680
851.2051, 131.4943
851.6873, 132.2825
852.1694, 133.0658
852.6515, 133.7973
853.1336, 134.1936
853.6157, 133.8057
854.0978, 133.1120
854.5800, 132.5360
855.0621, 132.1286
855.5442, 131.8502
856.0263, 131.7068
856.5084, 131.6853
856.9905, 131.8198
857.4727, 132.1113
857.9548, 132.3457
858.4369, 132.5342
858.9190, 132.5654
859.4011, 132.1060
859.8832, 131.5633
860.3654, 131.8051
860.8475, 132.7227
861.3296, 133.2559
861.8117, 132.3725
862.2938, 131.5078
862.7759, 131.5209
863.2581, 132.2646
863.7402, 132.6230
864.2223, 132.5559
864.7044, 132.2061
865.1865, 131.5317
865.6686, 130.6825
866.1508, 129.9827
866.6329, 129.4455
867.1150, 129.1576
867.5971, 129.1650
868.0792, 129.4317
868.5613, 130.2837
869.0435, 131.4030
869.5256, 131.7206
870.0077, 130.5548
870.4898, 129.7637
870.9719, 129.8658
871.4540, 130.3476
871.9362, 129.9165
872.4183, 128.7137
872.9004, 127.9076
873.3825, 128.0632
873.8646, 128.3088
874.3467, 127.7336
874.8289, 126.7109
875.3110, 125.8104
875.7931, 125.2072
876.2752, 124.7495
876.7573, 124.5740
877.2394, 124.3927
877.7216, 123.6474
878.2037, 122.2615
878.6858, 121.8825
879.1679, 122.8310
879.6500, 124.1589
880.1321, 125.1367
880.6143, 125.7179
881.0964, 125.7402
881.5785, 125.0470
882.0606, 124.4058
882.5427, 124.1496
883.0248, 123.9920
883.5070, 123.7530
883.9891, 123.4337
884.4712, 122.9832
884.9533, 122.3698
885.4354, 121.8027
885.9175, 121.5158
886.3997, 121.3705
886.8818, 121.0259
887.3639, 120.4934
887.8460, 120.1132
888.3281, 120.1905
888.8102, 120.3657
889.2924, 120.4391
889.7745, 120.4139
890.2566, 120.3996
890.7387, 120.2870
891.2208, 120.5398
891.7029, 121.4966
892.1851, 122.8564
892.6672, 124.0713
893.1493, 125.0597
893.6314, 125.4525
894.1135, 124.4561
894.5956, 123.4305
895.0778, 123.1120
895.5599, 123.3523
896.0420, 123.7967
896.5241, 124.6417
897.0062, 125.1763
897.4883, 125.1445
897.9705, 124.9474
898.4526, 125.5772
898.9347, 126.7615
899.4168, 127.0569
899.8989, 125.7117
900.3810, 124.6030
900.8632, 125.6163
901.3453, 127.5116
901.8274, 128.9080
902.3095, 129.5454
902.7916, 129.4844
903.2737, 128.3179
903.7559, 127.0671
904.2380, 126.6735
904.7201, 127.0631
905.2022, 127.7192
905.6843, 128.6144
906.1664, 129.2182
906.6486, 128.5618
907.1307, 127.7697
907.6128, 128.0336
908.0949, 129.5347
908.5770, 130.6895
909.0591, 131.2534
909.5413, 131.4840
910.0234, 131.4571
910.5055, 131.1836
910.9876, 130.5725
911.4697, 129.6557
911.9518, 129.0212
912.4340, 128.9842
912.9161, 129.3980
913.3982, 130.4553
913.8803, 131.8566
914.3624, 132.7617
914.8445, 132.5783
915.3267, 132.3044
915.8088, 132.0339
916.2909, 131.8278
916.7730, 131.7877
917.2551, 131.9152
917.7372, 132.2791
918.2194, 132.9364
918.7015, 133.7031
919.1836, 134.3114
919.6657, 134.9311
920.1478, 135.9063
920.6299, 137.9945
921.1121, 138.8619
921.5942, 137.2659
922.0763, 135.4228
922.5584, 135.1324
923.0405, 136.4453
923.5226, 138.0206
924.0048, 139.8670
924.4869, 141.1460
924.9690, 140.5571
925.4511, 139.4272
925.9332, 139.4037
926.4153, 140.5261
926.8975, 141.3581
927.3796, 140.9492
927.8617, 140.8236
928.3438, 141.6703
928.8259, 143.2095
929.3080, 143.7685
929.7902, 143.3754
930.2723, 143.5630
930.7544, 145.4980
931.2365, 147.7682
931.7186, 148.5806
932.2007, 148.4995
932.6829, 148.6813
933.1650, 149.5615
933.6471, 150.6581
934.1292, 152.1556
934.6113, 153.5903
935.0934, 154.2243
935.5756, 154.0701
936.0577, 153.6781
936.5398, 153.0222
937.0219, 152.8396
937.5040, 154.4391
937.9861, 156.6191
938.4683, 157.8177
938.9504, 157.4899
939.4325, 157.7852
939.9146, 159.4980
940.3967, 161.3069
940.8788, 162.6164
941.3610, 163.4264
941.8431, 163.4846
942.3252, 162.8398
942.8073, 162.8856
943.2894, 165.3916
943.7715, 168.2640
944.2537, 169.3391
944.7358, 169.0921
945.2179, 169.4246
945.7000, 170.8321
946.1821, 172.8810
946.6642, 176.1092
947.1464, 179.4229
947.6285, 179.9128
948.1106, 178.0439
948.5927, 177.3803
949.0748, 179.0030
949.5569, 181.4357
950.0391, 184.0159
950.5212, 186.3602
951.0033, 187.9328
951.4854, 188.1309
951.9675, 188.7331
952.4496, 189.6638
952.9318, 191.1715
953.4139, 193.6935
953.8960, 197.0252
954.3781, 200.1035
954.8602, 202.8678
955.3423, 205.1718
955.8245, 206.1501
956.3066, 207.2912
956.7887, 209.8085
957.2708, 213.5886
957.7529, 217.0941
958.2350, 219.9373
958.7172, 223.4367
959.1993, 228.3509
959.6814, 233.6615
960.1635, 236.8422
960.6456, 238.4848
961.1277, 240.2949
961.6099, 242.3325
962.0920, 245.7285
962.5741, 252.2547
963.0562, 259.8942
963.5383, 266.1612
964.0204, 270.2616
964.5026, 275.0676
964.9847, 280.4244
965.4668, 286.9233
965.9489, 295.7764
966.4310, 305.9041
966.9131, 315.1486
967.3953, 323.4357
967.8774, 332.7062
968.3595, 344.1452
968.8416, 356.4731
969.3237, 368.4736
969.8058, 380.6829
970.2880, 395.7719
970.7701, 413.9711
971.2522, 434.2274
971.7343, 456.6822
972.2164, 480.5182
972.6985, 504.0628
973.1807, 528.6842
973.6628, 556.5822
974.1449, 588.0106
974.6270, 624.2332
975.1091, 664.7794
975.5912, 711.1805
976.0734, 764.0366
976.5555, 822.9554
977.0376, 894.3797
977.5197, 977.7230
978.0018, 1073.972
978.4839, 1188.068
978.9661, 1313.650
979.4482, 1445.991
979.9303, 1584.580
980.4124, 1727.320
980.8945, 1878.822
981.3766, 2028.899
981.8588, 2172.577
982.3409, 2316.181
982.8230, 2474.539
983.3051, 2648.210
983.7872, 2839.039
984.2693, 3042.630
984.7515, 3273.442
985.2336, 3528.754
985.7157, 3822.865
986.1978, 4176.370
986.6799, 4579.039
987.1620, 5057.019
987.6442, 5609.774
988.1263, 6241.740
988.6084, 6967.423
989.0905, 7769.863
989.5726, 8620.030
990.0547, 9508.978
990.5369, 10333.10
991.0190, 11216.35
991.5011, 11839.07
991.9832, 12066.57
992.4653, 11916.39
992.9474, 11340.92
993.4296, 10312.97
993.9117, 9140.811
994.3938, 7858.683
994.8759, 6601.000
995.3580, 5503.280
995.8401, 4574.425
996.3223, 3795.473
996.8044, 3184.144
997.2865, 2683.203
997.7686, 2296.375
998.2507, 1983.597
998.7328, 1722.241
999.2150, 1513.364
999.6971, 1337.607
1000.179, 1197.056
1000.661, 1078.404
1001.143, 978.9979
1001.626, 893.5829
1002.108, 818.0956
1002.590, 752.8160
1003.072, 696.0834
1003.554, 650.0341
1004.036, 608.2919
1004.518, 570.2985
1005.000, 535.5836
1005.482, 504.5173
1005.965, 476.4841
1006.447, 450.6133
1006.929, 426.6028
1007.411, 405.1026
1007.893, 386.6125
1008.375, 370.5042
1008.857, 356.3683
1009.339, 344.2339
1009.822, 331.7915
1010.304, 318.9860
1010.786, 306.8952
1011.268, 296.5691
1011.750, 287.4247
1012.232, 278.7033
1012.714, 270.5177
1013.196, 263.0921
1013.678, 256.9992
1014.161, 251.0194
1014.643, 245.0705
1015.125, 239.1925
1015.607, 233.2991
1016.089, 227.5212
1016.571, 222.6573
1017.053, 218.9240
1017.535, 215.3011
1018.018, 210.5895
1018.500, 206.0074
1018.982, 202.5030
1019.464, 200.1554
1019.946, 198.3961
1020.428, 197.5615
1020.910, 196.0192
1021.392, 192.6597
1021.874, 188.6055
1022.357, 186.1662
1022.839, 184.7879
1023.321, 183.2069
1023.803, 180.8976
1024.285, 178.4071
1024.767, 175.5522
1025.249, 172.8212
1025.731, 170.6667
1026.214, 169.0778
1026.696, 168.2162
1027.178, 168.1119
1027.660, 167.8873
1028.142, 166.6880
1028.624, 165.1960
1029.106, 163.8626
1029.588, 162.7596
1030.070, 162.1040
1030.553, 162.1396
1031.035, 162.0160
1031.517, 161.4959
1031.999, 160.7694
1032.481, 160.0709
1032.963, 159.4433
1033.445, 158.9877
1033.927, 158.7263
1034.410, 158.6280
1034.892, 158.7561
1035.374, 158.9880
1035.856, 159.3158
1036.338, 159.7527
1036.820, 159.6233
1037.302, 158.9195
1037.784, 158.2093
1038.266, 157.6940
1038.749, 157.4650
1039.231, 157.9119
1039.713, 158.6998
1040.195, 158.9888
1040.677, 158.0762
1041.159, 157.6382
1041.641, 157.8324
1042.123, 158.4999
1042.605, 159.5805
1043.088, 160.9647
1043.570, 162.2509
1044.052, 163.3980
1044.534, 164.8123
1045.016, 167.3656
1045.498, 169.5617
1045.980, 170.3294
1046.462, 170.0893
1046.945, 170.8439
1047.427, 172.6366
1047.909, 174.3073
1048.391, 175.2631
1048.873, 176.4056
1049.355, 178.6185
1049.837, 181.6666
1050.319, 185.3288
1050.802, 190.1084
1051.284, 194.1796
1051.766, 197.3017
1052.248, 200.1098
1052.730, 202.6806
1053.212, 205.3084
1053.694, 208.8507
1054.176, 213.2876
1054.658, 218.5125
1055.141, 225.5012
1055.623, 232.0558
1056.105, 236.8075
1056.587, 241.0541
1057.069, 247.0620
1057.551, 254.9166
1058.033, 260.9756
1058.515, 264.5323
1058.997, 268.7708
1059.480, 277.7667
1059.962, 288.0164
1060.444, 296.0198
1060.926, 301.3882
1061.408, 307.9286
1061.890, 316.0895
1062.372, 324.6118
1062.854, 333.1927
1063.337, 341.5987
1063.819, 349.5016
1064.301, 356.7093
1064.783, 362.6201
1065.265, 366.6241
1065.747, 370.4235
1066.229, 374.9317
1066.711, 379.0580
1067.193, 382.3232
1067.676, 384.6714
1068.158, 385.4676
1068.640, 384.7221
1069.122, 382.6774
1069.604, 378.1872
1070.086, 373.7283
1070.568, 371.8213
1071.050, 370.8683
1071.532, 367.2840
1072.015, 360.1302
1072.497, 353.4840
1072.979, 347.8597
1073.461, 342.0106
1073.943, 334.5258
1074.425, 326.0333
1074.907, 316.8464
1075.389, 307.1674
1075.871, 298.6324
1076.354, 292.6264
1076.836, 286.5841
1077.318, 280.0330
1077.800, 272.9090
1078.282, 263.8564
1078.764, 253.7897
1079.246, 246.2345
1079.728, 242.6474
1080.211, 239.4204
1080.693, 234.7401
1081.175, 229.4711
1081.657, 224.2925
1082.139, 219.1898
1082.621, 214.3189
1083.103, 209.6348
1083.585, 205.6921
1084.068, 203.4069
1084.550, 201.3151
1085.032, 197.8419
1085.514, 193.6232
1085.996, 189.8593
1086.478, 186.5305
1086.960, 184.0940
1087.442, 182.7586
1087.924, 181.7036
1088.406, 180.1684
1088.889, 178.3806
1089.371, 176.6669
1089.853, 175.0590
1090.335, 173.6244
1090.817, 172.7474
1091.299, 171.5125
1091.781, 169.3110
1092.263, 167.0639
1092.746, 167.0375
1093.228, 168.6113
1093.710, 168.5193
1094.192, 166.0122
1094.674, 163.7196
1095.156, 163.2963
1095.638, 163.7265
1096.120, 164.4802
1096.603, 165.4783
1097.085, 166.3536
1097.567, 167.0872
1098.049, 168.1999
1098.531, 170.0979
1099.013, 171.9957
1099.495, 173.0940
1099.977, 173.7045
1100.459, 174.1372
1100.942, 174.0675
1101.424, 175.1606
1101.906, 177.7829
1102.388, 180.3900
1102.870, 181.5784
1103.352, 182.3210
1103.834, 184.6908
1104.316, 188.2281
1104.798, 191.5686
1105.281, 193.8800
1105.763, 196.5356
1106.245, 199.7835
1106.727, 203.2885
1107.209, 206.5926
1107.691, 209.7856
1108.173, 213.2207
1108.655, 216.8912
1109.138, 220.0343
1109.620, 221.7710
1110.102, 223.4124
1110.584, 225.7088
1111.066, 228.2966
1111.548, 230.3111
1112.030, 231.7874
1112.512, 234.1086
1112.995, 237.7945
1113.477, 240.6178
1113.959, 239.8419
1114.441, 237.9762
1114.923, 237.3161
1115.405, 237.9091
1115.887, 237.5152
1116.369, 236.1067
1116.851, 233.7648
1117.333, 230.3197
1117.816, 226.3701
1118.298, 222.0668
1118.780, 218.0489
1119.262, 215.5179
1119.744, 215.8395
1120.226, 214.0224
1120.708, 209.2768
1121.190, 203.9944
1121.673, 199.2964
1122.155, 195.1884
1122.637, 191.8282
1123.119, 188.9370
1123.601, 185.7448
1124.083, 181.5086
1124.565, 177.5866
1125.047, 174.3256
1125.530, 171.2327
1126.012, 167.4451
1126.494, 163.3122
1126.976, 161.2516
1127.458, 161.0526
1127.940, 160.3383
1128.422, 157.2295
1128.904, 153.8750
1129.386, 150.6938
1129.869, 148.1547
1130.351, 147.4619
1130.833, 148.5680
1131.315, 148.7272
1131.797, 147.6002
1132.279, 145.8513
1132.761, 143.4858
1133.243, 141.1634
1133.725, 139.5431
1134.208, 138.4489
1134.690, 136.6761
1135.172, 133.9947
1135.654, 132.4618
1136.136, 132.7567
1136.618, 133.5562
1137.100, 133.3503
1137.582, 132.8760
1138.065, 133.0986
1138.547, 134.3008
1139.029, 134.5636
1139.511, 133.5901
1139.993, 132.6494
1140.475, 132.3565
1140.957, 132.1854
1141.439, 131.3200
1141.922, 129.9694
1142.404, 128.3471
1142.886, 125.9815
1143.368, 124.9834
1143.850, 126.0086
1144.332, 127.2383
1144.814, 127.6124
1145.296, 127.3431
1145.778, 126.6627
1146.260, 125.8040
1146.743, 125.4285
1147.225, 126.5545
1147.707, 127.0847
1148.189, 126.2922
1148.671, 125.4204
1149.153, 125.7386
1149.635, 126.9510
1150.117, 127.6278
1150.600, 127.7950
1151.082, 127.8937
1151.564, 128.1978
1152.046, 128.4161
1152.528, 128.2369
1153.010, 128.0813
1153.492, 128.6240
1153.974, 129.7897
1154.457, 130.8432
1154.939, 131.7040
1155.421, 132.1899
1155.903, 131.5205
1156.385, 131.0896
1156.867, 132.0878
1157.349, 133.8429
1157.831, 134.7900
1158.313, 134.9140
1158.796, 135.4549
1159.278, 136.6685
1159.760, 137.9281
1160.242, 138.3861
1160.724, 138.9295
1161.206, 140.5225
1161.688, 142.9899
1162.170, 144.6941
1162.652, 145.5382
1163.135, 146.7295
1163.617, 148.6252
1164.099, 150.9268
1164.581, 153.7838
1165.063, 156.6145
1165.545, 158.4117
1166.027, 158.8789
1166.509, 161.6415
1166.992, 167.2046
1167.474, 172.2250
1167.956, 174.9916
1168.438, 177.2201
1168.920, 181.0228
1169.402, 185.8342
1169.884, 190.9969
1170.366, 196.5552
1170.849, 201.7750
1171.331, 206.6123
1171.813, 211.3388
1172.295, 216.4380
1172.777, 221.2920
1173.259, 224.6479
1173.741, 227.0911
1174.223, 229.7010
1174.705, 233.0129
1175.188, 235.9553
1175.670, 238.1106
1176.152, 241.0071
1176.634, 246.1854
1177.116, 252.7307
1177.598, 259.0091
1178.080, 265.2468
1178.562, 272.2133
1179.044, 280.1811
1179.527, 289.0294
1180.009, 298.8462
1180.491, 309.4999
1180.973, 320.9319
1181.455, 333.2755
1181.937, 347.4169
1182.419, 362.7239
1182.901, 376.4637
1183.384, 385.2879
1183.866, 395.6689
1184.348, 409.3396
1184.830, 423.6776
1185.312, 436.0131
1185.794, 446.2750
1186.276, 454.0282
1186.758, 459.3948
1187.240, 463.2924
1187.723, 466.8655
1188.205, 467.7861
1188.687, 465.7888
1189.169, 460.6294
1189.651, 451.8946
1190.133, 439.6351
1190.615, 423.5864
1191.097, 403.6391
1191.579, 383.2390
1192.062, 363.5232
1192.544, 343.7422
1193.026, 323.1252
1193.508, 302.8626
1193.990, 285.8576
1194.472, 271.4003
1194.954, 257.2135
1195.436, 242.6487
1195.919, 229.3453
1196.401, 217.7687
1196.883, 207.9546
1197.365, 200.2604
1197.847, 194.0197
1198.329, 187.1326
1198.811, 179.9732
1199.293, 173.9977
1199.776, 169.7079
1200.258, 165.7681
1200.740, 161.5681
1201.222, 157.5736
1201.704, 154.1666
1202.186, 151.1064
1202.668, 147.1712
1203.150, 142.7865
1203.632, 139.7090
1204.115, 138.8949
1204.597, 138.2895
1205.079, 137.0281
1205.561, 135.6413
1206.043, 134.5555
1206.525, 133.6111
1207.007, 131.7083
1207.489, 129.1577
1207.971, 127.3267
1208.454, 127.1551
1208.936, 126.9989
1209.418, 126.1998
1209.900, 125.1254
1210.382, 123.7995
1210.864, 122.3638
1211.346, 122.2004
1211.828, 123.0047
1212.311, 123.2819
1212.793, 121.8314
1213.275, 120.5536
1213.757, 120.3231
1214.239, 120.3564
1214.721, 120.2099
1215.203, 119.8564
1215.685, 118.8323
1216.167, 117.3010
1216.650, 116.1104
1217.132, 115.7108
1217.614, 115.7066
1218.096, 116.3840
1218.578, 116.9720
1219.060, 116.5099
1219.542, 115.2657
1220.024, 115.3852
1220.506, 116.6011
1220.989, 117.2257
1221.471, 115.5099
1221.953, 114.3144
1222.435, 114.7728
1222.917, 115.6814
1223.399, 115.9175
1223.881, 115.5405
1224.363, 114.5472
1224.846, 113.1098
1225.328, 112.2516
1225.810, 112.9963
1226.292, 113.7020
1226.774, 113.9560
1227.256, 114.0090
1227.738, 114.0914
1228.220, 114.2240
1228.703, 114.6494
1229.185, 115.2818
1229.667, 115.4774
1230.149, 114.3686
1230.631, 113.5681
1231.113, 113.4675
1231.595, 113.7381
1232.077, 114.0519
1232.559, 114.3760
1233.042, 114.7582
1233.524, 115.1309
1234.006, 114.9700
1234.488, 113.4317
1234.970, 112.1715
1235.452, 111.4277
1235.934, 111.2255
1236.416, 111.9358
1236.898, 113.1136
1237.381, 113.9158
1237.863, 114.2323
1238.345, 113.8345
1238.827, 111.4115
1239.309, 110.2838
1239.791, 111.3597
1240.273, 113.1345
1240.755, 113.6334
1241.238, 113.3829
1241.720, 113.3943
1242.202, 113.7107
1242.684, 113.5912
1243.166, 112.3298
1243.648, 111.9215
1244.130, 113.0282
1244.612, 114.3188
1245.094, 113.8211
1245.577, 112.4908
1246.059, 111.7074
1246.541, 111.5680
1247.023, 111.6532
1247.505, 112.0843
1247.987, 112.2219
1248.469, 111.9488
1248.951, 111.2835
1249.433, 109.6007
1249.916, 107.9842
1250.398, 108.0156
1250.880, 109.7047
1251.362, 110.6940
1251.844, 110.7941
1252.326, 110.7058
1252.808, 110.5936
1253.290, 110.2745
1253.773, 109.3095
1254.255, 108.2202
1254.737, 107.3101
1255.219, 106.7263
1255.701, 107.3562
1256.183, 109.4481
1256.665, 110.4960
1257.147, 109.8112
1257.630, 108.6305
1258.112, 107.6095
1258.594, 106.9914
1259.076, 107.2175
1259.558, 108.0523
1260.040, 108.7167
1260.522, 109.1998
1261.004, 108.7712
1261.486, 107.1194
1261.969, 105.5821
1262.451, 104.9266
1262.933, 105.0202
1263.415, 106.1896
1263.897, 107.8750
1264.379, 107.9313
1264.861, 106.6482
1265.343, 106.3449
1265.825, 107.6796
1266.308, 108.6955
1266.790, 107.9438
1267.272, 106.8874
1267.754, 106.2058
1268.236, 105.7929
1268.718, 105.3469
1269.200, 104.9188
1269.682, 104.6622
1270.165, 104.5876
1270.647, 104.8528
1271.129, 106.2734
1271.611, 107.0201
1272.093, 106.2403
1272.575, 104.8222
1273.057, 104.4734
1273.539, 104.8865
##END=



