##NAMES=Blodite
##RRUFFID=R050317
##IDEAL CHEMISTRY=Na_2_Mg(S^6+^O_4_)_2_&#183;4H_2_O
##LOCALITY=Stassfurt, Germany
##OWNER=RRUFF
##SOURCE=American Museum of Natural History
##DESCRIPTION=Colorless fragment
##STATUS=The identification of this mineral has been confirmed by X-ray diffraction and chemical analysis
##URL=rruff.info/R050317
##MEASURED CHEMISTRY=Na_2.00_Mg_1.00_(S_1.00_O_4_)_2_Â·4H_2_O
116.4594, 170.8223
116.9415, 178.9599
117.4236, 189.4285
117.9057, 201.3125
118.3878, 213.5773
118.8699, 227.5194
119.3521, 240.6501
119.8342, 251.1161
120.3163, 258.5425
120.7984, 266.1947
121.2805, 276.7387
121.7626, 288.8138
122.2448, 300.0931
122.7269, 309.9059
123.2090, 318.1931
123.6911, 325.0843
124.1732, 330.7580
124.6553, 334.3417
125.1375, 334.2932
125.6196, 331.2826
126.1017, 327.4313
126.5838, 324.3929
127.0659, 321.2827
127.5480, 316.4174
128.0302, 309.3041
128.5123, 300.8436
128.9944, 291.7882
129.4765, 282.2256
129.9586, 272.9746
130.4407, 264.4282
130.9229, 256.6297
131.4050, 249.7448
131.8871, 244.0565
132.3692, 239.2492
132.8513, 234.8647
133.3334, 230.5681
133.8156, 225.4444
134.2977, 219.5674
134.7798, 213.7332
135.2619, 208.4079
135.7440, 203.6154
136.2261, 199.4338
136.7083, 195.9136
137.1904, 193.0929
137.6725, 190.7392
138.1546, 188.6870
138.6367, 187.0023
139.1188, 185.1833
139.6010, 182.8805
140.0831, 180.0951
140.5652, 178.4296
141.0473, 178.3962
141.5294, 178.7256
142.0115, 177.5823
142.4937, 174.1271
142.9758, 171.1359
143.4579, 169.3358
143.9400, 168.7976
144.4221, 169.1418
144.9042, 170.8276
145.3864, 173.1117
145.8685, 174.5836
146.3506, 174.1273
146.8327, 174.3811
147.3148, 176.3997
147.7969, 181.4062
148.2791, 185.3702
148.7612, 187.7813
149.2433, 189.2056
149.7254, 190.9843
150.2075, 193.8205
150.6896, 196.3940
151.1718, 198.2094
151.6539, 198.9981
152.1360, 199.4577
152.6181, 199.4753
153.1002, 199.1595
153.5823, 198.8330
154.0645, 198.4651
154.5466, 198.1243
155.0287, 197.8489
155.5108, 197.9281
155.9929, 197.7186
156.4750, 197.0080
156.9572, 195.8937
157.4393, 194.7859
157.9214, 193.1331
158.4035, 191.8798
158.8856, 191.6062
159.3677, 193.9618
159.8499, 195.7848
160.3320, 195.7276
160.8141, 194.1290
161.2962, 193.0110
161.7783, 193.6949
162.2604, 194.8875
162.7426, 195.5218
163.2247, 195.0255
163.7068, 194.1367
164.1889, 192.7406
164.6710, 190.9417
165.1531, 189.9757
165.6353, 191.1209
166.1174, 193.1875
166.5995, 194.8947
167.0816, 195.7932
167.5637, 196.1806
168.0458, 196.0379
168.5280, 195.3738
169.0101, 194.8201
169.4922, 194.5213
169.9743, 194.6304
170.4564, 195.3698
170.9385, 197.8200
171.4207, 200.3494
171.9028, 201.3625
172.3849, 200.7467
172.8670, 199.7368
173.3491, 198.8957
173.8312, 198.3424
174.3134, 198.3074
174.7955, 199.0535
175.2776, 200.3012
175.7597, 201.8101
176.2418, 203.6109
176.7239, 205.4343
177.2061, 207.1782
177.6882, 208.8066
178.1703, 210.1884
178.6524, 211.1512
179.1345, 211.8739
179.6166, 212.7741
180.0988, 213.9767
180.5809, 214.8671
181.0630, 214.5597
181.5451, 213.2710
182.0272, 211.8826
182.5093, 210.7179
182.9915, 209.7794
183.4736, 209.1128
183.9557, 208.7324
184.4378, 208.5492
184.9199, 208.2278
185.4020, 207.8648
185.8842, 208.1242
186.3663, 209.8512
186.8484, 212.5947
187.3305, 214.5242
187.8126, 215.3289
188.2947, 215.8055
188.7769, 217.4778
189.2590, 220.2767
189.7411, 222.7320
190.2232, 223.6671
190.7053, 223.3689
191.1874, 223.6459
191.6696, 224.6019
192.1517, 226.2716
192.6338, 229.2739
193.1159, 233.6868
193.5980, 237.3914
194.0801, 238.9871
194.5623, 238.5823
195.0444, 237.5762
195.5265, 235.9105
196.0086, 233.9567
196.4907, 232.7170
196.9728, 232.3237
197.4550, 231.5295
197.9371, 229.3387
198.4192, 225.7248
198.9013, 222.5147
199.3834, 220.0822
199.8655, 217.9321
200.3477, 214.4500
200.8298, 209.2429
201.3119, 204.5302
201.7940, 201.9894
202.2761, 201.8770
202.7582, 200.9519
203.2404, 198.6431
203.7225, 195.5656
204.2046, 193.3586
204.6867, 192.0670
205.1688, 191.4858
205.6509, 191.7542
206.1331, 193.0859
206.6152, 193.8098
207.0973, 193.5622
207.5794, 192.7326
208.0615, 192.5816
208.5436, 193.3111
209.0258, 194.1873
209.5079, 194.6670
209.9900, 194.5721
210.4721, 194.9196
210.9542, 195.8792
211.4363, 197.3027
211.9185, 198.7923
212.4006, 200.5323
212.8827, 201.9431
213.3648, 202.5449
213.8469, 202.0935
214.3290, 201.7965
214.8112, 201.8982
215.2933, 202.1835
215.7754, 201.8814
216.2575, 200.9052
216.7396, 199.4970
217.2217, 197.7932
217.7038, 195.7970
218.1860, 193.4883
218.6681, 190.7636
219.1502, 187.7560
219.6323, 184.9923
220.1144, 182.5906
220.5965, 180.2753
221.0787, 177.8825
221.5608, 175.2952
222.0429, 172.9668
222.5250, 170.9461
223.0071, 169.2069
223.4892, 167.7327
223.9714, 166.5326
224.4535, 165.5648
224.9356, 164.8394
225.4177, 164.5260
225.8998, 164.0644
226.3819, 163.4435
226.8641, 162.6521
227.3462, 161.6407
227.8283, 160.2665
228.3104, 158.8904
228.7925, 157.5993
229.2746, 155.9315
229.7568, 155.4857
230.2389, 157.0439
230.7210, 159.7419
231.2031, 160.6631
231.6852, 158.8126
232.1673, 156.6605
232.6495, 155.3817
233.1316, 155.1819
233.6137, 155.4310
234.0958, 156.3223
234.5779, 157.6104
235.0600, 158.5880
235.5422, 159.1393
236.0243, 159.5650
236.5064, 159.9355
236.9885, 159.9748
237.4706, 160.6361
237.9527, 162.3759
238.4349, 164.6065
238.9170, 165.7618
239.3991, 165.1735
239.8812, 164.5066
240.3633, 164.4120
240.8454, 164.9174
241.3276, 165.9883
241.8097, 168.0199
242.2918, 170.4560
242.7739, 171.9721
243.2560, 171.8899
243.7381, 171.9391
244.2203, 172.8521
244.7024, 175.0714
245.1845, 176.8817
245.6666, 178.0352
246.1487, 178.8957
246.6308, 180.2462
247.1130, 182.5078
247.5951, 184.5661
248.0772, 185.8305
248.5593, 185.8036
249.0414, 186.9124
249.5235, 189.8230
250.0057, 193.4451
250.4878, 195.9496
250.9699, 196.6611
251.4520, 197.4705
251.9341, 199.1113
252.4162, 201.9205
252.8984, 203.8493
253.3805, 204.3779
253.8626, 204.4339
254.3447, 205.5523
254.8268, 208.7221
255.3089, 210.9521
255.7911, 211.0921
256.2732, 208.8173
256.7553, 207.3207
257.2374, 207.1039
257.7195, 207.1676
258.2017, 206.2554
258.6838, 204.0413
259.1659, 201.5614
259.6480, 198.9218
260.1301, 196.1241
260.6122, 193.8156
261.0944, 192.3627
261.5765, 190.9337
262.0586, 188.5303
262.5407, 184.7527
263.0228, 181.1636
263.5049, 178.3281
263.9871, 176.1616
264.4692, 172.9505
264.9513, 168.0296
265.4334, 163.0842
265.9155, 159.8342
266.3976, 159.0294
266.8798, 157.5206
267.3619, 154.4555
267.8440, 150.0996
268.3261, 146.9305
268.8082, 145.3078
269.2903, 144.1218
269.7725, 142.4927
270.2546, 140.3259
270.7367, 138.2408
271.2188, 136.3230
271.7009, 134.5705
272.1830, 132.8817
272.6652, 131.1812
273.1473, 129.7859
273.6294, 129.0985
274.1115, 129.3246
274.5936, 128.9100
275.0757, 127.4683
275.5579, 125.4466
276.0400, 124.2123
276.5221, 123.8976
277.0042, 123.8310
277.4863, 123.5446
277.9684, 122.9899
278.4506, 123.0378
278.9327, 124.0843
279.4148, 125.3381
279.8969, 124.6787
280.3790, 121.7543
280.8611, 119.3963
281.3433, 119.5663
281.8254, 122.2408
282.3075, 123.7083
282.7896, 123.6567
283.2717, 122.8504
283.7538, 122.3678
284.2360, 122.2100
284.7181, 122.3473
285.2002, 123.0002
285.6823, 124.0636
286.1644, 124.5066
286.6465, 124.2360
287.1287, 123.6701
287.6108, 123.1762
288.0929, 122.7700
288.5750, 122.7777
289.0571, 123.5251
289.5392, 124.7915
290.0214, 125.6516
290.5035, 126.0669
290.9856, 126.3722
291.4677, 127.0500
291.9498, 127.9988
292.4319, 128.5497
292.9141, 128.3443
293.3962, 127.7038
293.8783, 127.4024
294.3604, 127.4473
294.8425, 127.5083
295.3246, 127.3655
295.8068, 127.0183
296.2889, 126.4038
296.7710, 125.2854
297.2531, 124.1504
297.7352, 124.0373
298.2173, 124.8308
298.6995, 125.5418
299.1816, 125.4530
299.6637, 124.7604
300.1458, 123.8116
300.6279, 122.5537
301.1100, 121.2933
301.5922, 120.4315
302.0743, 119.9129
302.5564, 119.5196
303.0385, 119.2998
303.5206, 119.0634
304.0027, 118.3975
304.4849, 117.1149
304.9670, 115.9783
305.4491, 116.1864
305.9312, 117.1558
306.4133, 117.4871
306.8954, 115.7332
307.3776, 113.4049
307.8597, 112.1840
308.3418, 112.2565
308.8239, 112.4086
309.3060, 111.6483
309.7881, 110.3858
310.2703, 109.2933
310.7524, 108.5768
311.2345, 108.1633
311.7166, 108.1473
312.1987, 108.5085
312.6808, 108.7857
313.1630, 108.3788
313.6451, 107.8786
314.1272, 107.9242
314.6093, 109.4515
315.0914, 110.8820
315.5735, 111.3895
316.0557, 111.0911
316.5378, 110.6112
317.0199, 109.6656
317.5020, 108.9606
317.9841, 109.1116
318.4662, 111.2135
318.9484, 112.7441
319.4305, 112.2183
319.9126, 110.4266
320.3947, 109.4455
320.8768, 110.6419
321.3589, 112.2210
321.8411, 113.2559
322.3232, 113.3170
322.8053, 113.5748
323.2874, 114.6059
323.7695, 115.9037
324.2516, 116.6666
324.7338, 115.9505
325.2159, 115.4369
325.6980, 115.6632
326.1801, 116.7707
326.6622, 118.1055
327.1443, 120.2772
327.6265, 122.3821
328.1086, 123.4989
328.5907, 121.7491
329.0728, 121.1023
329.5549, 122.5633
330.0370, 126.1674
330.5192, 129.2053
331.0013, 131.6514
331.4834, 133.5805
331.9655, 134.9744
332.4476, 135.0458
332.9297, 135.9712
333.4119, 138.2587
333.8940, 141.5693
334.3761, 144.3777
334.8582, 146.3759
335.3403, 148.2628
335.8224, 150.3690
336.3046, 152.7486
336.7867, 155.2172
337.2688, 157.8548
337.7509, 160.5291
338.2330, 162.9782
338.7151, 165.0647
339.1973, 167.3026
339.6794, 169.9120
340.1615, 172.8775
340.6436, 176.1048
341.1257, 179.6211
341.6078, 183.2736
342.0899, 186.8009
342.5721, 190.1114
343.0542, 193.7649
343.5363, 197.9507
344.0184, 202.5672
344.5005, 207.4357
344.9826, 212.5822
345.4648, 217.5127
345.9469, 221.5273
346.4290, 224.7952
346.9111, 228.2305
347.3932, 232.0976
347.8753, 236.1398
348.3575, 239.9391
348.8396, 243.4574
349.3217, 246.4780
349.8038, 248.9101
350.2859, 250.6954
350.7680, 251.8148
351.2502, 252.3716
351.7323, 251.8400
352.2144, 249.4876
352.6965, 245.5146
353.1786, 240.5902
353.6607, 234.6839
354.1429, 228.1866
354.6250, 221.4330
355.1071, 214.4303
355.5892, 207.5744
356.0713, 200.9598
356.5534, 194.7365
357.0356, 189.1268
357.5177, 184.3645
357.9998, 180.0917
358.4819, 176.4406
358.9640, 173.2659
359.4461, 169.8429
359.9283, 165.4684
360.4104, 160.8531
360.8925, 156.5705
361.3746, 152.7279
361.8567, 149.2648
362.3388, 145.8787
362.8210, 142.8610
363.3031, 140.7905
363.7852, 140.8973
364.2673, 141.1540
364.7494, 140.5705
365.2315, 138.8262
365.7137, 137.0342
366.1958, 135.1903
366.6779, 133.5059
367.1600, 132.2130
367.6421, 131.5626
368.1242, 131.0740
368.6064, 130.8088
369.0885, 130.7907
369.5706, 130.3102
370.0527, 128.7804
370.5348, 127.2414
371.0169, 126.3929
371.4991, 126.8629
371.9812, 126.9381
372.4633, 126.1324
372.9454, 124.8658
373.4275, 124.7490
373.9096, 126.5073
374.3918, 128.1514
374.8739, 128.5945
375.3560, 127.4226
375.8381, 127.0362
376.3202, 127.7560
376.8023, 128.8481
377.2845, 129.1727
377.7666, 128.6257
378.2487, 127.8494
378.7308, 127.0123
379.2129, 126.1145
379.6950, 125.1899
380.1772, 124.1962
380.6593, 123.3488
381.1414, 122.7652
381.6235, 122.4645
382.1056, 122.6095
382.5877, 123.2958
383.0699, 124.3626
383.5520, 125.8200
384.0341, 127.5938
384.5162, 128.7947
384.9983, 128.3177
385.4804, 126.9423
385.9626, 126.4583
386.4447, 127.1614
386.9268, 128.1117
387.4089, 128.3692
387.8910, 128.1422
388.3731, 127.8934
388.8553, 127.7695
389.3374, 127.7550
389.8195, 127.8048
390.3016, 127.9245
390.7837, 128.2306
391.2658, 129.2591
391.7480, 130.3146
392.2301, 130.5937
392.7122, 129.0248
393.1943, 127.8199
393.6764, 128.3695
394.1585, 130.1637
394.6407, 131.7358
395.1228, 132.8109
395.6049, 133.3719
396.0870, 133.1783
396.5691, 131.7288
397.0512, 131.0969
397.5334, 132.4001
398.0155, 134.5042
398.4976, 135.9719
398.9797, 136.3849
399.4618, 136.4521
399.9439, 135.9630
400.4261, 134.9230
400.9082, 134.8846
401.3903, 136.5499
401.8724, 138.5459
402.3545, 140.0145
402.8366, 140.7480
403.3188, 141.3503
403.8009, 141.7531
404.2830, 142.0876
404.7651, 142.7083
405.2472, 143.6790
405.7293, 144.7393
406.2115, 145.8154
406.6936, 146.9015
407.1757, 147.9130
407.6578, 148.8482
408.1399, 149.7225
408.6220, 150.5177
409.1042, 151.2385
409.5863, 152.0780
410.0684, 153.1091
410.5505, 154.2726
411.0326, 155.5945
411.5147, 157.0674
411.9969, 158.3120
412.4790, 158.7752
412.9611, 158.8412
413.4432, 159.4547
413.9253, 160.8093
414.4074, 162.4803
414.8896, 164.2031
415.3717, 165.9023
415.8538, 167.3864
416.3359, 168.3401
416.8180, 169.1692
417.3001, 170.2038
417.7823, 171.4627
418.2644, 172.8195
418.7465, 174.2015
419.2286, 175.6746
419.7107, 177.2820
420.1928, 179.0361
420.6750, 180.9489
421.1571, 183.2493
421.6392, 185.7394
422.1213, 187.8464
422.6034, 189.1417
423.0855, 190.2562
423.5677, 191.3737
424.0498, 192.3888
424.5319, 193.8239
425.0140, 196.1434
425.4961, 198.7191
425.9782, 200.9097
426.4604, 202.2938
426.9425, 203.9025
427.4246, 205.7681
427.9067, 207.9532
428.3888, 210.8337
428.8709, 214.7094
429.3531, 218.7381
429.8352, 222.6578
430.3173, 226.5564
430.7994, 229.3574
431.2815, 230.4932
431.7636, 231.3777
432.2458, 234.5385
432.7279, 240.1074
433.2100, 245.6687
433.6921, 250.1977
434.1742, 254.1051
434.6563, 258.9148
435.1385, 264.7136
435.6206, 270.5745
436.1027, 275.3601
436.5848, 279.5887
437.0669, 284.6390
437.5490, 290.7778
438.0312, 297.8389
438.5133, 306.3062
438.9954, 315.7015
439.4775, 324.6916
439.9596, 331.9479
440.4417, 338.9102
440.9239, 346.9017
441.4060, 356.0033
441.8881, 365.5018
442.3702, 374.4885
442.8523, 383.7932
443.3344, 394.3001
443.8166, 406.8449
444.2987, 419.9052
444.7808, 432.7676
445.2629, 445.7534
445.7450, 459.9270
446.2271, 475.6155
446.7093, 492.0801
447.1914, 509.0859
447.6735, 526.7856
448.1556, 544.6112
448.6377, 562.3495
449.1198, 580.1779
449.6020, 598.3153
450.0841, 616.2917
450.5662, 634.9003
451.0483, 654.8796
451.5304, 675.6209
452.0125, 694.4532
452.4947, 712.2469
452.9768, 725.9389
453.4589, 733.7286
453.9410, 735.5599
454.4231, 733.6628
454.9052, 727.7542
455.3874, 719.2236
455.8695, 710.1493
456.3516, 700.1744
456.8337, 686.9437
457.3158, 668.1172
457.7979, 646.7285
458.2801, 628.3990
458.7622, 612.7847
459.2443, 596.7546
459.7264, 577.6723
460.2085, 557.2488
460.6906, 537.8150
461.1728, 519.6940
461.6549, 502.8012
462.1370, 487.3362
462.6191, 473.2784
463.1012, 460.9701
463.5833, 452.0991
464.0655, 443.5069
464.5476, 433.6799
465.0297, 422.8169
465.5118, 412.4041
465.9939, 403.4560
466.4760, 394.8163
466.9582, 385.8177
467.4403, 375.2961
467.9224, 366.2543
468.4045, 359.1664
468.8866, 353.4219
469.3687, 348.2628
469.8509, 344.8800
470.3330, 339.9952
470.8151, 332.2326
471.2972, 322.0106
471.7793, 313.9932
472.2614, 308.8135
472.7436, 303.9074
473.2257, 297.4275
473.7078, 289.3195
474.1899, 281.0572
474.6720, 272.5874
475.1541, 264.2945
475.6363, 256.8363
476.1184, 250.1203
476.6005, 243.5662
477.0826, 236.9339
477.5647, 230.3386
478.0468, 223.7737
478.5290, 217.2626
479.0111, 211.0176
479.4932, 204.8726
479.9753, 199.2130
480.4574, 194.6880
480.9395, 191.7517
481.4217, 188.7862
481.9038, 184.4245
482.3859, 179.5389
482.8680, 175.4676
483.3501, 173.5446
483.8322, 171.6392
484.3144, 168.8436
484.7965, 165.2332
485.2786, 161.8817
485.7607, 158.8658
486.2428, 156.2543
486.7249, 154.0904
487.2071, 152.5722
487.6892, 151.1240
488.1713, 149.7005
488.6534, 148.3831
489.1355, 147.3069
489.6176, 146.5746
490.0998, 145.7671
490.5819, 144.7335
491.0640, 143.5374
491.5461, 142.6053
492.0282, 141.9926
492.5103, 141.2196
492.9925, 139.4569
493.4746, 137.0833
493.9567, 136.5651
494.4388, 138.3834
494.9209, 140.3559
495.4030, 139.4674
495.8852, 136.7589
496.3673, 134.8713
496.8494, 135.5479
497.3315, 136.7501
497.8136, 136.1421
498.2957, 134.2228
498.7779, 133.0745
499.2600, 134.9165
499.7421, 137.1271
500.2242, 137.6761
500.7063, 135.8963
501.1884, 134.4011
501.6706, 134.1918
502.1527, 134.5642
502.6348, 134.8158
503.1169, 134.7123
503.5990, 134.6687
504.0811, 134.8677
504.5633, 135.1764
505.0454, 135.0166
505.5275, 133.9370
506.0096, 133.1811
506.4917, 133.4133
506.9738, 134.7663
507.4560, 135.4505
507.9381, 135.3308
508.4202, 134.9054
508.9023, 134.5514
509.3844, 134.2834
509.8665, 134.4321
510.3487, 135.1955
510.8308, 136.1512
511.3129, 136.5128
511.7950, 136.4021
512.2772, 136.3836
512.7593, 136.8944
513.2414, 137.5871
513.7235, 138.0568
514.2056, 138.2987
514.6877, 138.4529
515.1699, 138.5926
515.6520, 138.6927
516.1341, 138.6983
516.6162, 138.4423
517.0983, 138.3943
517.5804, 138.6235
518.0626, 139.1716
518.5447, 140.1073
519.0268, 142.7116
519.5089, 144.3202
519.9910, 143.8123
520.4731, 141.3827
520.9553, 140.0978
521.4374, 140.1862
521.9195, 141.0915
522.4016, 142.8864
522.8837, 146.0223
523.3658, 147.3820
523.8480, 146.4730
524.3301, 144.7847
524.8122, 144.4123
525.2943, 145.2666
525.7764, 145.8276
526.2585, 145.4848
526.7407, 144.8528
527.2228, 144.9819
527.7049, 145.8282
528.1870, 147.1090
528.6691, 149.2567
529.1512, 151.4471
529.6334, 152.6604
530.1155, 152.8166
530.5976, 152.5906
531.0797, 151.9444
531.5618, 151.3239
532.0439, 151.1992
532.5261, 152.1162
533.0082, 152.9124
533.4903, 153.1187
533.9724, 153.0210
534.4545, 153.2433
534.9366, 154.3412
535.4188, 155.1726
535.9009, 155.2366
536.3830, 154.5704
536.8651, 154.9025
537.3472, 156.6996
537.8293, 158.5778
538.3115, 159.5695
538.7936, 159.6113
539.2757, 159.5917
539.7578, 159.4581
540.2399, 159.5385
540.7220, 160.5690
541.2042, 162.3308
541.6863, 163.6063
542.1684, 163.7953
542.6505, 163.5937
543.1326, 164.0001
543.6147, 164.8885
544.0969, 165.7968
544.5790, 166.4014
545.0611, 166.9272
545.5432, 167.6162
546.0253, 168.5002
546.5074, 169.2022
546.9896, 169.1910
547.4717, 169.1345
547.9538, 169.5810
548.4359, 171.1264
548.9180, 172.4918
549.4001, 173.4172
549.8823, 174.1627
550.3644, 175.1845
550.8465, 176.6903
551.3286, 178.0915
551.8107, 179.1549
552.2928, 179.9736
552.7750, 181.2802
553.2571, 183.1970
553.7392, 185.0357
554.2213, 186.2540
554.7034, 186.9602
555.1855, 187.9639
555.6677, 189.3689
556.1498, 190.5721
556.6319, 190.3806
557.1140, 189.5615
557.5961, 189.7623
558.0782, 191.8192
558.5604, 194.4252
559.0425, 196.7926
559.5246, 198.8914
560.0067, 200.6354
560.4888, 202.3253
560.9709, 203.3278
561.4531, 202.7193
561.9352, 200.5055
562.4173, 199.7028
562.8994, 201.7754
563.3815, 204.5139
563.8636, 206.8479
564.3458, 208.5197
564.8279, 210.4842
565.3100, 212.9511
565.7921, 215.4759
566.2742, 217.3793
566.7563, 218.5970
567.2385, 219.9888
567.7206, 221.8704
568.2027, 223.8516
568.6848, 224.7452
569.1669, 224.7311
569.6490, 225.0663
570.1312, 226.8869
570.6133, 229.2620
571.0954, 230.5236
571.5775, 230.7577
572.0596, 231.5350
572.5417, 234.8709
573.0239, 238.6273
573.5060, 240.6885
573.9881, 239.9095
574.4702, 239.6358
574.9523, 241.2587
575.4344, 243.7988
575.9166, 245.9988
576.3987, 247.6379
576.8808, 249.1272
577.3629, 250.3273
577.8450, 251.4366
578.3271, 253.2601
578.8093, 256.1350
579.2914, 258.6821
579.7735, 260.0833
580.2556, 260.5394
580.7377, 261.9442
581.2198, 264.3754
581.7020, 266.8091
582.1841, 268.3100
582.6662, 269.1683
583.1483, 270.1465
583.6304, 271.3738
584.1125, 272.4650
584.5947, 272.6171
585.0768, 272.5360
585.5589, 273.2651
586.0410, 275.7809
586.5231, 278.4865
587.0052, 280.6338
587.4873, 282.4644
587.9694, 284.5767
588.4515, 287.8948
588.9337, 290.6846
589.4158, 292.0661
589.8979, 292.0254
590.3800, 293.3687
590.8621, 296.5370
591.3442, 300.3185
591.8264, 304.1018
592.3085, 307.9359
592.7906, 311.0707
593.2727, 313.3403
593.7548, 315.4272
594.2369, 317.8796
594.7191, 320.8135
595.2012, 324.6673
595.6833, 329.7407
596.1654, 335.4285
596.6475, 341.5958
597.1296, 347.8427
597.6118, 353.3884
598.0939, 356.1956
598.5760, 359.6989
599.0581, 366.2503
599.5402, 375.4979
600.0223, 384.7193
600.5045, 393.3354
600.9866, 401.7605
601.4687, 410.1700
601.9508, 418.4260
602.4329, 427.3176
602.9150, 436.8668
603.3972, 446.9443
603.8793, 457.1985
604.3614, 467.5543
604.8435, 479.5619
605.3256, 493.6407
605.8077, 508.6064
606.2899, 522.1696
606.7720, 534.7460
607.2541, 547.6881
607.7362, 561.0772
608.2183, 575.5230
608.7004, 591.9027
609.1826, 609.9467
609.6647, 628.1261
610.1468, 645.3209
610.6289, 663.0422
611.1110, 682.6104
611.5931, 704.4355
612.0753, 724.6729
612.5574, 741.2060
613.0395, 757.2427
613.5216, 774.7635
614.0037, 795.3231
614.4858, 813.9686
614.9680, 831.0574
615.4501, 845.7501
615.9322, 857.4463
616.4143, 866.2051
616.8964, 870.2921
617.3785, 869.0521
617.8607, 863.4695
618.3428, 854.7264
618.8249, 842.9926
619.3070, 828.9771
619.7891, 814.1089
620.2712, 796.3553
620.7534, 771.8818
621.2355, 741.9257
621.7176, 713.2094
622.1997, 689.4203
622.6818, 667.4362
623.1639, 645.0016
623.6461, 621.5612
624.1282, 600.4026
624.6103, 582.0685
625.0924, 565.8438
625.5745, 551.4301
626.0566, 538.8890
626.5388, 527.5956
627.0209, 517.7746
627.5030, 508.9662
627.9851, 500.9582
628.4672, 493.7446
628.9493, 485.8033
629.4315, 476.4110
629.9136, 466.7677
630.3957, 459.1093
630.8778, 452.8699
631.3599, 446.4552
631.8420, 439.3080
632.3242, 431.5250
632.8063, 423.0400
633.2884, 413.9817
633.7705, 404.6096
634.2526, 394.3407
634.7347, 384.3832
635.2169, 375.2602
635.6990, 367.1773
636.1811, 359.2374
636.6632, 351.3312
637.1453, 343.6710
637.6274, 336.7323
638.1096, 330.7092
638.5917, 323.3685
639.0738, 314.1256
639.5559, 304.7796
640.0380, 297.2767
640.5201, 291.4690
641.0023, 287.0965
641.4844, 284.6580
641.9665, 282.3480
642.4486, 277.9671
642.9307, 272.1702
643.4128, 266.4629
643.8950, 260.7525
644.3771, 255.9284
644.8592, 252.4516
645.3413, 250.2418
645.8234, 248.6416
646.3055, 248.8600
646.7877, 248.3200
647.2698, 245.6877
647.7519, 240.8011
648.2340, 238.3781
648.7161, 239.2115
649.1982, 240.3331
649.6804, 239.5868
650.1625, 237.1264
650.6446, 234.0721
651.1267, 230.3405
651.6088, 227.2288
652.0909, 226.6482
652.5731, 227.5433
653.0552, 228.0413
653.5373, 227.5817
654.0194, 226.9110
654.5015, 226.4837
654.9836, 226.1406
655.4658, 225.6449
655.9479, 224.7614
656.4300, 223.9318
656.9121, 223.5546
657.3942, 223.2757
657.8763, 221.9261
658.3585, 218.6458
658.8406, 216.3652
659.3227, 216.5258
659.8048, 218.4082
660.2869, 217.9528
660.7690, 215.0667
661.2512, 212.2041
661.7333, 211.0910
662.2154, 211.0620
662.6975, 211.0288
663.1796, 210.9364
663.6617, 210.5937
664.1439, 209.9852
664.6260, 208.9985
665.1081, 207.3723
665.5902, 204.7652
666.0723, 202.6436
666.5544, 201.9176
667.0366, 201.5274
667.5187, 200.4491
668.0008, 198.0935
668.4829, 196.3625
668.9650, 195.7121
669.4471, 195.3422
669.9293, 193.8612
670.4114, 191.2575
670.8935, 188.6440
671.3756, 186.2076
671.8577, 184.0736
672.3398, 182.7492
672.8220, 181.9315
673.3041, 180.6195
673.7862, 177.7594
674.2683, 174.6926
674.7504, 172.2789
675.2325, 170.4770
675.7147, 169.0532
676.1968, 168.1456
676.6789, 167.3817
677.1610, 166.7660
677.6431, 166.3269
678.1252, 165.2251
678.6074, 163.1848
679.0895, 161.0147
679.5716, 159.3626
680.0537, 158.2152
680.5358, 156.2800
681.0179, 153.3941
681.5001, 150.8337
681.9822, 150.3817
682.4643, 151.1091
682.9464, 151.1322
683.4285, 150.0380
683.9106, 148.5352
684.3928, 146.8370
684.8749, 145.1230
685.3570, 143.5848
685.8391, 142.3754
686.3212, 141.2007
686.8033, 139.8535
687.2855, 138.5588
687.7676, 137.7153
688.2497, 137.5076
688.7318, 137.2560
689.2139, 136.7732
689.6960, 136.1982
690.1782, 136.1616
690.6603, 136.6068
691.1424, 136.3938
691.6245, 134.4247
692.1066, 131.8429
692.5887, 130.5000
693.0709, 130.1717
693.5530, 129.8932
694.0351, 129.3471
694.5172, 128.5158
694.9993, 127.0630
695.4814, 124.9465
695.9636, 123.7889
696.4457, 124.7958
696.9278, 125.8687
697.4099, 126.0256
697.8920, 125.1191
698.3741, 124.2284
698.8563, 123.3080
699.3384, 122.5443
699.8205, 122.2510
700.3026, 122.2966
700.7847, 121.9790
701.2668, 121.1786
701.7490, 120.3765
702.2311, 120.2446
702.7132, 120.3232
703.1953, 119.9426
703.6774, 118.7320
704.1595, 117.4700
704.6417, 116.1640
705.1238, 115.0697
705.6059, 114.6094
706.0880, 115.4939
706.5701, 115.7902
707.0522, 115.0047
707.5344, 113.7609
708.0165, 113.5659
708.4986, 114.5233
708.9807, 114.8839
709.4628, 113.9199
709.9449, 112.3206
710.4271, 111.3086
710.9092, 110.7844
711.3913, 110.3432
711.8734, 109.5424
712.3555, 108.9572
712.8376, 109.3338
713.3198, 110.4060
713.8019, 110.8412
714.2840, 109.3126
714.7661, 108.0641
715.2482, 108.2449
715.7303, 109.7717
716.2125, 109.8851
716.6946, 108.0022
717.1767, 106.3046
717.6588, 106.3135
718.1409, 107.7548
718.6230, 108.5657
719.1052, 108.7477
719.5873, 108.5496
720.0694, 108.0008
720.5515, 107.2783
721.0336, 106.5996
721.5157, 106.0014
721.9979, 105.3865
722.4800, 104.6851
722.9621, 103.9557
723.4442, 103.2218
723.9263, 102.3546
724.4084, 101.7917
724.8906, 101.6463
725.3727, 101.6650
725.8548, 101.6034
726.3369, 101.4556
726.8190, 101.3418
727.3011, 101.3252
727.7833, 101.1739
728.2654, 100.2054
728.7475, 98.89101
729.2296, 98.45780
729.7117, 99.69135
730.1938, 100.9578
730.6760, 101.1623
731.1581, 100.6694
731.6402, 100.0477
732.1223, 99.46931
732.6044, 98.70412
733.0865, 97.48160
733.5687, 96.15160
734.0508, 95.46288
734.5329, 95.50470
735.0150, 95.87344
735.4971, 96.62975
735.9792, 97.46220
736.4614, 97.58238
736.9435, 97.09991
737.4256, 96.57831
737.9077, 96.26650
738.3898, 96.06383
738.8719, 95.93983
739.3541, 95.85999
739.8362, 95.70591
740.3183, 95.51405
740.8004, 95.15990
741.2825, 94.44321
741.7646, 93.44026
742.2468, 92.84480
742.7289, 92.81865
743.2110, 92.78855
743.6931, 92.39580
744.1752, 91.76283
744.6573, 91.74133
745.1395, 92.31023
745.6216, 92.73009
746.1037, 92.12370
746.5858, 91.27135
747.0679, 91.36389
747.5500, 92.40034
748.0322, 93.00159
748.5143, 92.14117
748.9964, 90.96568
749.4785, 90.11210
749.9606, 89.63313
750.4427, 89.41830
750.9249, 89.50198
751.4070, 89.78276
751.8891, 90.37783
752.3712, 91.27571
752.8533, 91.27859
753.3354, 90.26157
753.8176, 89.25163
754.2997, 89.50225
754.7818, 90.28426
755.2639, 90.38282
755.7460, 89.50080
756.2281, 88.66908
756.7103, 88.49525
757.1924, 88.57884
757.6745, 88.59460
758.1566, 88.55840
758.6387, 88.30724
759.1208, 87.64135
759.6030, 86.99786
760.0851, 86.83620
760.5672, 87.16526
761.0493, 87.76643
761.5314, 88.72419
762.0135, 89.48104
762.4957, 89.25420
762.9778, 88.37141
763.4599, 87.34343
763.9420, 86.05608
764.4241, 85.28394
764.9063, 85.90592
765.3884, 87.10149
765.8705, 87.86250
766.3526, 87.66408
766.8347, 87.57693
767.3168, 87.68261
767.7990, 87.88557
768.2811, 88.09728
768.7632, 88.32922
769.2453, 88.32295
769.7274, 87.99541
770.2095, 87.49093
770.6917, 86.87914
771.1738, 86.25908
771.6559, 85.85067
772.1380, 85.85393
772.6201, 85.92188
773.1022, 85.66884
773.5844, 85.39714
774.0665, 85.66940
774.5486, 87.21714
775.0307, 88.34776
775.5128, 88.85143
775.9949, 88.82346
776.4771, 88.27546
776.9592, 87.17258
777.4413, 86.49400
777.9234, 86.61961
778.4055, 87.15358
778.8876, 87.68714
779.3698, 88.14261
779.8519, 88.31973
780.3340, 87.78320
780.8161, 87.30243
781.2982, 87.28004
781.7803, 87.58362
782.2625, 87.87198
782.7446, 88.32105
783.2267, 88.40047
783.7088, 87.89436
784.1909, 87.00650
784.6730, 86.22856
785.1552, 85.55791
785.6373, 85.20909
786.1194, 85.32950
786.6015, 85.75163
787.0836, 86.30516
787.5657, 86.96257
788.0479, 87.64786
788.5300, 88.69508
789.0121, 89.36739
789.4942, 88.91900
789.9763, 87.75124
790.4584, 87.52965
790.9406, 89.08996
791.4227, 89.95543
791.9048, 89.11250
792.3869, 87.28312
792.8690, 86.98392
793.3511, 88.10934
793.8333, 89.06690
794.3154, 88.96040
794.7975, 88.41750
795.2796, 88.04103
795.7617, 87.84602
796.2438, 87.89499
796.7260, 88.55244
797.2081, 89.10442
797.6902, 89.18027
798.1723, 88.90829
798.6544, 88.79255
799.1365, 88.88658
799.6187, 89.00241
800.1008, 89.09727
800.5829, 89.15918
801.0650, 89.20235
801.5471, 89.20335
802.0292, 89.00739
802.5114, 88.20283
802.9935, 87.42200
803.4756, 87.34435
803.9577, 87.79615
804.4398, 88.19508
804.9219, 88.46246
805.4041, 88.52827
805.8862, 88.17894
806.3683, 87.61403
806.8504, 87.80981
807.3325, 88.98891
807.8146, 89.81325
808.2968, 89.59276
808.7789, 88.86037
809.2610, 88.86497
809.7431, 89.44464
810.2252, 89.93843
810.7073, 89.96965
811.1895, 89.83302
811.6716, 89.64158
812.1537, 89.42772
812.6358, 89.29582
813.1179, 89.35590
813.6000, 89.34627
814.0822, 89.04923
814.5643, 88.68649
815.0464, 89.25967
815.5285, 90.78857
816.0106, 92.03555
816.4927, 92.51605
816.9749, 92.40530
817.4570, 91.40266
817.9391, 89.98159
818.4212, 89.47828
818.9033, 91.54162
819.3854, 93.56229
819.8676, 94.42941
820.3497, 94.37268
820.8318, 94.26237
821.3139, 94.02268
821.7960, 93.90830
822.2781, 93.99142
822.7603, 94.22853
823.2424, 94.62476
823.7245, 95.12949
824.2066, 95.41786
824.6887, 95.41426
825.1708, 95.07603
825.6530, 93.90837
826.1351, 92.40251
826.6172, 91.67862
827.0993, 92.65823
827.5814, 93.73114
828.0635, 94.79551
828.5457, 95.65892
829.0278, 95.73967
829.5099, 94.83739
829.9920, 94.58412
830.4741, 95.58991
830.9562, 97.01452
831.4384, 97.44585
831.9205, 97.21471
832.4026, 97.20040
832.8847, 98.13042
833.3668, 98.76423
833.8489, 98.03671
834.3311, 96.70723
834.8132, 96.10337
835.2953, 96.58823
835.7774, 97.21578
836.2595, 97.92134
836.7416, 98.68565
837.2238, 99.63310
837.7059, 100.7035
838.1880, 101.1675
838.6701, 100.7120
839.1522, 100.0998
839.6343, 100.0086
840.1165, 100.2914
840.5986, 100.7546
841.0807, 101.4635
841.5628, 102.1596
842.0449, 103.0681
842.5270, 103.7455
843.0092, 103.5352
843.4913, 102.1338
843.9734, 101.7203
844.4555, 102.7005
844.9376, 103.8901
845.4197, 103.5480
845.9019, 102.4289
846.3840, 102.2177
846.8661, 103.4049
847.3482, 104.6582
847.8303, 105.0047
848.3124, 105.2099
848.7946, 106.1349
849.2767, 108.7195
849.7588, 109.4764
850.2409, 107.6712
850.7230, 105.4261
851.2051, 104.5975
851.6873, 105.0160
852.1694, 105.6110
852.6515, 106.3247
853.1336, 107.0424
853.6157, 107.8172
854.0978, 108.4635
854.5800, 108.6518
855.0621, 108.2408
855.5442, 108.3489
856.0263, 109.7069
856.5084, 111.1194
856.9905, 112.1589
857.4727, 112.8277
857.9548, 112.2940
858.4369, 110.4261
858.9190, 108.7843
859.4011, 108.8421
859.8832, 109.6307
860.3654, 109.4308
860.8475, 108.3511
861.3296, 107.7081
861.8117, 108.6554
862.2938, 109.6609
862.7759, 109.8530
863.2581, 109.3612
863.7402, 109.2360
864.2223, 109.5791
864.7044, 109.9636
865.1865, 110.3214
865.6686, 110.5225
866.1508, 109.9575
866.6329, 108.8425
867.1150, 108.1358
867.5971, 108.9894
868.0792, 109.7682
868.5613, 109.2356
869.0435, 107.8282
869.5256, 106.9615
870.0077, 106.9810
870.4898, 107.1056
870.9719, 107.2218
871.4540, 107.3371
871.9362, 107.5425
872.4183, 107.8016
872.9004, 107.7765
873.3825, 107.2097
873.8646, 106.6510
874.3467, 106.8295
874.8289, 107.3092
875.3110, 107.4269
875.7931, 106.7967
876.2752, 106.0415
876.7573, 105.1224
877.2394, 104.2057
877.7216, 103.5326
878.2037, 103.1297
878.6858, 102.4441
879.1679, 101.3146
879.6500, 100.3779
880.1321, 100.5910
880.6143, 101.3250
881.0964, 101.5931
881.5785, 101.0738
882.0606, 100.7569
882.5427, 101.0128
883.0248, 101.5977
883.5070, 102.5194
883.9891, 104.0464
884.4712, 104.0824
884.9533, 102.3741
885.4354, 100.4646
885.9175, 99.36852
886.3997, 99.00423
886.8818, 99.47691
887.3639, 100.7007
887.8460, 101.7349
888.3281, 102.3788
888.8102, 102.3992
889.2924, 101.1442
889.7745, 98.78764
890.2566, 97.94905
890.7387, 99.14021
891.2208, 100.3272
891.7029, 100.6562
892.1851, 100.4127
892.6672, 100.3252
893.1493, 100.3443
893.6314, 100.2576
894.1135, 99.49944
894.5956, 99.06539
895.0778, 99.90742
895.5599, 101.4810
896.0420, 102.3396
896.5241, 102.0889
897.0062, 101.8113
897.4883, 101.6458
897.9705, 101.5825
898.4526, 101.5945
898.9347, 101.6924
899.4168, 101.9585
899.8989, 102.4859
900.3810, 102.9713
900.8632, 103.1746
901.3453, 103.2045
901.8274, 103.1961
902.3095, 103.2862
902.7916, 103.0380
903.2737, 102.0515
903.7559, 101.3157
904.2380, 102.0893
904.7201, 104.1377
905.2022, 105.1007
905.6843, 104.8185
906.1664, 104.0457
906.6486, 102.6845
907.1307, 101.6048
907.6128, 101.8386
908.0949, 103.5632
908.5770, 104.9046
909.0591, 105.5788
909.5413, 105.8554
910.0234, 105.6612
910.5055, 105.1447
910.9876, 105.4527
911.4697, 106.5237
911.9518, 107.1830
912.4340, 106.2694
912.9161, 105.0257
913.3982, 104.6418
913.8803, 104.9559
914.3624, 105.5206
914.8445, 106.9983
915.3267, 107.6289
915.8088, 106.6417
916.2909, 105.0081
916.7730, 104.8965
917.2551, 106.2608
917.7372, 106.9642
918.2194, 106.3322
918.7015, 105.5199
919.1836, 105.8707
919.6657, 106.7947
920.1478, 107.4736
920.6299, 107.5588
921.1121, 107.7553
921.5942, 108.3940
922.0763, 108.9371
922.5584, 108.7969
923.0405, 107.9305
923.5226, 107.8434
924.0048, 108.6227
924.4869, 109.3979
924.9690, 109.3546
925.4511, 108.9918
925.9332, 108.8485
926.4153, 108.9549
926.8975, 109.1099
927.3796, 109.0335
927.8617, 109.2792
928.3438, 110.2078
928.8259, 111.6069
929.3080, 112.3533
929.7902, 112.4599
930.2723, 112.4085
930.7544, 112.3094
931.2365, 112.2787
931.7186, 112.4107
932.2007, 112.7196
932.6829, 113.2324
933.1650, 113.9796
933.6471, 114.9447
934.1292, 116.3042
934.6113, 117.6951
935.0934, 118.5265
935.5756, 118.8113
936.0577, 119.1594
936.5398, 119.6573
937.0219, 120.1801
937.5040, 120.5737
937.9861, 120.9320
938.4683, 121.3287
938.9504, 121.7433
939.4325, 122.3764
939.9146, 123.4162
940.3967, 124.4548
940.8788, 125.2853
941.3610, 125.9181
941.8431, 126.5800
942.3252, 127.2689
942.8073, 127.7817
943.2894, 127.6273
943.7715, 127.5262
944.2537, 128.1401
944.7358, 129.3792
945.2179, 130.8730
945.7000, 133.1720
946.1821, 134.8184
946.6642, 135.4709
947.1464, 135.4379
947.6285, 135.1514
948.1106, 134.6885
948.5927, 134.6372
949.0748, 135.1396
949.5569, 136.1086
950.0391, 137.7850
950.5212, 139.7322
951.0033, 141.4450
951.4854, 142.8401
951.9675, 143.9537
952.4496, 144.6428
952.9318, 145.3047
953.4139, 146.1746
953.8960, 147.2686
954.3781, 148.7453
954.8602, 150.5802
955.3423, 152.5493
955.8245, 154.4822
956.3066, 156.5090
956.7887, 158.9918
957.2708, 161.7770
957.7529, 163.5899
958.2350, 163.7893
958.7172, 164.5285
959.1993, 166.5404
959.6814, 169.2516
960.1635, 171.2216
960.6456, 172.8003
961.1277, 175.1691
961.6099, 179.1965
962.0920, 183.1336
962.5741, 185.2906
963.0562, 187.2278
963.5383, 190.8437
964.0204, 197.2651
964.5026, 201.9936
964.9847, 204.4810
965.4668, 206.9781
965.9489, 211.7014
966.4310, 217.8525
966.9131, 223.8692
967.3953, 229.6716
967.8774, 236.2668
968.3595, 244.2932
968.8416, 253.0356
969.3237, 262.0795
969.8058, 271.4755
970.2880, 281.3430
970.7701, 291.6269
971.2522, 303.5110
971.7343, 317.5349
972.2164, 333.3340
972.6985, 350.6432
973.1807, 369.5962
973.6628, 390.1577
974.1449, 412.1555
974.6270, 436.6015
975.1091, 463.5072
975.5912, 493.3486
976.0734, 525.5577
976.5555, 559.8264
977.0376, 603.4060
977.5197, 656.0834
978.0018, 718.6600
978.4839, 794.0246
978.9661, 878.7650
979.4482, 971.3077
979.9303, 1071.161
980.4124, 1172.906
980.8945, 1277.145
981.3766, 1382.996
981.8588, 1491.041
982.3409, 1601.168
982.8230, 1708.567
983.3051, 1816.241
983.7872, 1939.625
984.2693, 2083.273
984.7515, 2246.069
985.2336, 2418.864
985.7157, 2613.993
986.1978, 2848.825
986.6799, 3117.877
987.1620, 3434.921
987.6442, 3799.315
988.1263, 4215.067
988.6084, 4690.252
989.0905, 5216.494
989.5726, 5778.416
990.0547, 6371.296
990.5369, 6936.396
991.0190, 7548.863
991.5011, 8018.142
991.9832, 8288.316
992.4653, 8344.643
992.9474, 8073.265
993.4296, 7455.000
993.9117, 6696.069
994.3938, 5812.548
994.8759, 4916.156
995.3580, 4112.037
995.8401, 3416.759
996.3223, 2832.235
996.8044, 2374.432
997.2865, 2001.036
997.7686, 1716.257
998.2507, 1486.963
998.7328, 1293.707
999.2150, 1137.379
999.6971, 1006.060
1000.179, 901.3318
1000.661, 813.1117
1001.143, 739.4149
1001.626, 676.2011
1002.108, 620.4100
1002.590, 572.2115
1003.072, 530.2166
1003.554, 495.9347
1004.036, 464.9503
1004.518, 437.1009
1005.000, 411.4666
1005.482, 386.6669
1005.965, 363.1552
1006.447, 342.9385
1006.929, 326.8286
1007.411, 312.5732
1007.893, 299.7142
1008.375, 287.6453
1008.857, 275.6428
1009.339, 263.4836
1009.822, 253.4018
1010.304, 245.5438
1010.786, 238.4541
1011.268, 231.1884
1011.750, 224.4150
1012.232, 219.5610
1012.714, 215.9200
1013.196, 211.3929
1013.678, 204.0167
1014.161, 197.5195
1014.643, 192.7470
1015.125, 188.8326
1015.607, 184.4206
1016.089, 179.7164
1016.571, 176.0001
1017.053, 173.5474
1017.535, 171.3229
1018.018, 168.4595
1018.500, 165.5714
1018.982, 163.1761
1019.464, 161.3152
1019.946, 159.3066
1020.428, 157.0728
1020.910, 154.9742
1021.392, 153.1363
1021.874, 151.5531
1022.357, 150.6432
1022.839, 149.9624
1023.321, 148.4388
1023.803, 144.2969
1024.285, 141.2867
1024.767, 141.2177
1025.249, 141.8866
1025.731, 141.2489
1026.214, 139.2915
1026.696, 137.0794
1027.178, 134.6273
1027.660, 132.8483
1028.142, 133.1644
1028.624, 133.8748
1029.106, 133.2982
1029.588, 131.5779
1030.070, 130.5830
1030.553, 130.9805
1031.035, 130.6806
1031.517, 128.8380
1031.999, 126.6226
1032.481, 126.2397
1032.963, 127.1491
1033.445, 128.0923
1033.927, 128.9561
1034.410, 129.1213
1034.892, 127.4720
1035.374, 125.7325
1035.856, 125.2033
1036.338, 125.9174
1036.820, 126.0504
1037.302, 125.5934
1037.784, 124.9414
1038.266, 124.0097
1038.749, 123.2726
1039.231, 123.4193
1039.713, 124.1272
1040.195, 124.6175
1040.677, 124.6352
1041.159, 124.6564
1041.641, 124.8016
1042.123, 124.7986
1042.605, 123.9697
1043.088, 122.7583
1043.570, 122.5770
1044.052, 123.5722
1044.534, 124.6967
1045.016, 125.6665
1045.498, 126.3254
1045.980, 126.3859
1046.462, 126.0700
1046.945, 126.5268
1047.427, 127.7983
1047.909, 128.6827
1048.391, 128.5689
1048.873, 128.4069
1049.355, 129.1603
1049.837, 130.5211
1050.319, 132.0885
1050.802, 133.8263
1051.284, 135.7563
1051.766, 138.0118
1052.248, 140.1021
1052.730, 141.4770
1053.212, 142.4159
1053.694, 143.7782
1054.176, 145.5139
1054.658, 147.3789
1055.141, 148.9953
1055.623, 151.0309
1056.105, 154.0553
1056.587, 157.4672
1057.069, 160.3924
1057.551, 162.8170
1058.033, 165.2684
1058.515, 167.8490
1058.997, 170.1909
1059.480, 171.4326
1059.962, 172.6973
1060.444, 175.2067
1060.926, 179.0613
1061.408, 182.6145
1061.890, 185.6527
1062.372, 188.8374
1062.854, 192.4292
1063.337, 196.1891
1063.819, 199.7513
1064.301, 203.0484
1064.783, 205.9115
1065.265, 208.3454
1065.747, 210.2132
1066.229, 210.9502
1066.711, 211.6327
1067.193, 213.1980
1067.676, 215.5324
1068.158, 216.5099
1068.640, 216.1879
1069.122, 215.4226
1069.604, 214.2917
1070.086, 213.3374
1070.568, 213.3840
1071.050, 213.7414
1071.532, 212.9312
1072.015, 210.7332
1072.497, 207.9612
1072.979, 204.5608
1073.461, 201.0712
1073.943, 198.3398
1074.425, 195.7322
1074.907, 192.0303
1075.389, 187.2430
1075.872, 183.1465
1076.354, 180.6435
1076.836, 178.2934
1077.318, 175.7472
1077.800, 173.1291
1078.282, 170.5491
1078.764, 168.0569
1079.246, 165.8159
1079.729, 163.8678
1080.211, 162.0922
1080.693, 160.6693
1081.175, 159.1684
1081.657, 157.2344
1082.139, 154.8618
1082.621, 152.8245
1083.103, 151.1087
1083.585, 149.6405
1084.068, 148.3144
1084.550, 147.2796
1085.032, 146.7018
1085.514, 146.5183
1085.996, 146.7168
1086.478, 147.9444
1086.960, 147.9119
1087.442, 146.1881
1087.924, 144.3371
1088.406, 144.0032
1088.889, 144.4827
1089.371, 144.2600
1089.853, 143.4707
1090.335, 143.4171
1090.817, 145.2971
1091.299, 147.0943
1091.781, 148.4158
1092.263, 149.3216
1092.746, 149.6973
1093.228, 149.7013
1093.710, 150.0209
1094.192, 150.7509
1094.674, 152.0367
1095.156, 154.5727
1095.638, 157.1625
1096.120, 158.6754
1096.603, 159.3802
1097.085, 161.6698
1097.567, 165.6164
1098.049, 169.1823
1098.531, 171.4046
1099.013, 173.4243
1099.495, 176.4964
1099.977, 180.0928
1100.459, 183.5632
1100.942, 186.6120
1101.424, 189.9434
1101.906, 193.3360
1102.388, 197.7834
1102.870, 204.6634
1103.352, 212.7018
1103.834, 219.8266
1104.316, 226.0958
1104.798, 231.4609
1105.281, 234.8952
1105.763, 238.9337
1106.245, 243.8522
1106.727, 249.4805
1107.209, 255.6320
1107.691, 262.2672
1108.173, 268.9741
1108.655, 275.7592
1109.138, 282.3061
1109.620, 289.0286
1110.102, 294.8956
1110.584, 299.2215
1111.066, 302.5359
1111.548, 305.9916
1112.030, 309.6068
1112.512, 313.0243
1112.995, 316.2515
1113.477, 318.9898
1113.959, 321.0168
1114.441, 322.4238
1114.923, 323.5672
1115.405, 324.3765
1115.887, 322.9365
1116.369, 318.9008
1116.851, 314.5508
1117.333, 310.9479
1117.816, 306.8622
1118.298, 300.1685
1118.780, 292.1353
1119.262, 284.5989
1119.744, 278.1465
1120.226, 271.6462
1120.708, 265.2619
1121.190, 258.3467
1121.673, 249.9500
1122.155, 241.0182
1122.637, 233.6092
1123.119, 227.3573
1123.601, 221.2531
1124.083, 215.0321
1124.565, 208.6767
1125.047, 201.4322
1125.530, 194.9982
1126.012, 191.7016
1126.494, 190.7119
1126.976, 187.0720
1127.458, 180.9423
1127.940, 175.0402
1128.422, 170.8203
1128.904, 167.2625
1129.386, 164.0198
1129.869, 161.0908
1130.351, 158.6084
1130.833, 156.5647
1131.315, 154.5910
1131.797, 152.6464
1132.279, 150.5876
1132.761, 148.3072
1133.243, 145.8656
1133.725, 143.0172
1134.208, 140.0161
1134.690, 138.1091
1135.172, 137.5008
1135.654, 136.2631
1136.136, 133.6938
1136.618, 131.2430
1137.100, 130.7655
1137.582, 131.1145
1138.065, 131.0976
1138.547, 130.5113
1139.029, 129.8655
1139.511, 129.2065
1139.993, 128.3127
1140.475, 126.9737
1140.957, 125.5522
1141.439, 124.4519
1141.922, 123.7245
1142.404, 123.5359
1142.886, 124.3835
1143.368, 124.4512
1143.850, 123.2805
1144.332, 122.0766
1144.814, 121.6281
1145.296, 121.6706
1145.778, 121.5556
1146.260, 121.3417
1146.743, 121.1961
1147.225, 121.0916
1147.707, 121.2423
1148.189, 121.9780
1148.671, 122.5549
1149.153, 122.0123
1149.635, 120.7071
1150.117, 120.4845
1150.600, 121.2562
1151.082, 122.0710
1151.564, 122.3844
1152.046, 122.7264
1152.528, 123.3927
1153.010, 124.1022
1153.492, 124.3694
1153.974, 124.2578
1154.457, 124.4968
1154.939, 125.1468
1155.421, 126.0838
1155.903, 127.4877
1156.385, 128.8900
1156.867, 129.9804
1157.349, 130.8708
1157.831, 131.7253
1158.313, 132.5424
1158.796, 133.6755
1159.278, 135.1989
1159.760, 136.9481
1160.242, 138.6600
1160.724, 140.6410
1161.206, 143.5535
1161.688, 147.1365
1162.170, 148.8845
1162.652, 148.4537
1163.135, 150.1307
1163.617, 155.5894
1164.099, 161.9681
1164.581, 166.5474
1165.063, 170.3491
1165.545, 174.2514
1166.027, 178.2907
1166.509, 183.5240
1166.992, 190.1470
1167.474, 197.0025
1167.956, 203.6979
1168.438, 210.2840
1168.920, 216.4211
1169.402, 222.7640
1169.884, 230.4578
1170.366, 240.1019
1170.849, 249.8728
1171.331, 260.0590
1171.813, 269.4358
1172.295, 277.1760
1172.777, 283.9880
1173.259, 291.1317
1173.741, 298.2816
1174.223, 304.6062
1174.705, 308.9353
1175.188, 314.2177
1175.670, 320.6276
1176.152, 327.7173
1176.634, 334.9348
1177.116, 342.7517
1177.598, 352.2921
1178.080, 363.4933
1178.562, 376.1731
1179.044, 390.6249
1179.527, 406.3182
1180.009, 423.3131
1180.491, 441.6271
1180.973, 461.6125
1181.455, 483.1511
1181.937, 506.5099
1182.419, 530.9540
1182.901, 553.6382
1183.384, 571.5394
1183.866, 590.0372
1184.348, 610.4175
1184.830, 630.9728
1185.312, 650.3549
1185.794, 668.0487
1186.276, 682.5272
1186.758, 693.8708
1187.240, 702.9877
1187.723, 712.8543
1188.205, 716.5269
1188.687, 712.3947
1189.169, 701.5499
1189.651, 685.1285
1190.133, 663.4883
1190.615, 637.5978
1191.097, 607.4639
1191.579, 575.8214
1192.062, 542.3423
1192.544, 508.9933
1193.026, 476.2412
1193.508, 444.2519
1193.990, 412.6745
1194.472, 382.0448
1194.954, 354.9284
1195.436, 331.6507
1195.919, 310.8763
1196.401, 292.2555
1196.883, 275.6752
1197.365, 261.5389
1197.847, 249.0100
1198.329, 235.0119
1198.811, 220.4099
1199.293, 208.5290
1199.776, 200.4416
1200.258, 193.5730
1200.740, 187.2550
1201.222, 181.3439
1201.704, 175.8864
1202.186, 170.7560
1202.668, 165.4716
1203.150, 160.2283
1203.632, 155.7519
1204.115, 152.4027
1204.597, 149.4735
1205.079, 147.3259
1205.561, 144.8032
1206.043, 141.0035
1206.525, 136.3395
1207.007, 133.1551
1207.489, 131.2296
1207.971, 129.4378
1208.454, 127.3052
1208.936, 125.3619
1209.418, 123.8219
1209.900, 122.6156
1210.382, 121.9174
1210.864, 121.5531
1211.346, 120.0014
1211.828, 117.5892
1212.311, 116.0015
1212.793, 116.5851
1213.275, 117.1943
1213.757, 117.5089
1214.239, 117.0658
1214.721, 114.8799
1215.203, 111.4070
1215.685, 110.5201
1216.167, 111.7865
1216.650, 112.8613
1217.132, 112.5751
1217.614, 111.9054
1218.096, 110.9464
1218.578, 109.9543
1219.060, 109.0469
1219.542, 108.2770
1220.024, 108.2522
1220.506, 108.7876
1220.989, 108.7974
1221.471, 107.2363
1221.953, 105.7124
1222.435, 104.4885
1222.917, 103.7074
1223.399, 103.7969
1223.881, 104.5013
1224.363, 104.3195
1224.846, 103.4017
1225.328, 102.9655
1225.810, 104.3198
1226.292, 105.2445
1226.774, 104.9773
1227.256, 104.3945
1227.738, 104.7758
1228.220, 105.6959
1228.703, 105.3754
1229.185, 103.9274
1229.667, 102.7901
1230.149, 103.1230
1230.631, 103.0901
1231.113, 101.9145
1231.595, 100.7767
1232.077, 101.7298
1232.559, 103.8232
1233.042, 104.1244
1233.524, 102.6709
1234.006, 101.4976
1234.488, 101.9223
1234.970, 101.9946
1235.452, 101.1482
1235.934, 100.1761
1236.416, 100.3689
1236.898, 101.1800
1237.381, 101.3558
1237.863, 100.8524
1238.345, 100.3278
1238.827, 99.59630
1239.309, 99.59099
1239.791, 100.7277
1240.273, 102.0911
1240.755, 102.4472
1241.238, 102.1711
1241.720, 102.0230
1242.202, 102.0213
1242.684, 101.4462
1243.166, 99.67274
1243.648, 98.32928
1244.130, 97.71439
1244.612, 97.61544
1245.094, 98.08153
1245.577, 98.69447
1246.059, 98.70641
1246.541, 98.11174
1247.023, 97.87576
1247.505, 98.25209
1247.987, 98.52411
1248.469, 98.59857
1248.951, 98.32085
1249.433, 97.18739
1249.916, 95.80566
1250.398, 94.76803
1250.880, 94.18548
1251.362, 94.27868
1251.844, 95.24353
1252.326, 95.94914
1252.808, 96.10906
1253.290, 96.10477
1253.773, 96.41656
1254.255, 96.72807
1254.737, 96.68891
1255.219, 96.30736
1255.701, 96.00038
1256.183, 95.79626
1256.665, 95.38538
1257.147, 94.66506
1257.630, 93.93057
1258.112, 93.31881
1258.594, 92.92705
1259.076, 92.92355
1259.558, 93.22218
1260.040, 93.55479
1260.522, 93.91686
1261.004, 94.15586
1261.486, 94.25592
1261.969, 94.10334
1262.451, 92.89507
1262.933, 92.14957
1263.415, 93.44572
1263.897, 95.80796
1264.379, 95.58656
1264.861, 93.19345
1265.343, 91.65134
1265.825, 91.65816
1266.308, 92.22414
1266.790, 93.59175
1267.272, 94.41462
1267.754, 93.87679
1268.236, 92.55182
1268.718, 91.67716
1269.200, 91.30668
1269.682, 91.98009
1270.165, 93.99939
1270.647, 95.01191
1271.129, 92.96184
1271.611, 91.01692
1272.093, 90.08605
1272.575, 89.95429
1273.057, 90.30412
1273.539, 91.07030
1274.021, 92.33867
1274.504, 94.24330
1274.986, 95.11325
1275.468, 94.27922
1275.950, 93.26591
1276.432, 92.43913
1276.914, 91.81586
1277.396, 91.66829
1277.878, 91.60402
##END=



