##NAMES=Blodite
##RRUFFID=R050341
##IDEAL CHEMISTRY=Na_2_Mg(S^6+^O_4_)_2_&#183;4H_2_O
##LOCALITY=Soda Lake, San Luis Obispo County, California, USA
##OWNER=RRUFF
##SOURCE=George Rossman
##DESCRIPTION=Gray to colorless equant crystal
##STATUS=The identification of this mineral has been confirmed by X-ray diffraction and chemical analysis
##URL=rruff.info/R050341
##MEASURED CHEMISTRY=Na_2.00_Mg_1.00_(S_1.00_O_4_)_2_Â·4H_2_O
94.93402, 228.4313
95.41614, 232.3165
95.89825, 233.3227
96.38037, 233.2226
96.86249, 232.2474
97.34460, 231.2094
97.82672, 229.6821
98.30884, 229.0065
98.79095, 229.4257
99.27306, 230.5061
99.75518, 231.9708
100.2373, 234.5256
100.7194, 238.1691
101.2015, 241.7136
101.6836, 244.6601
102.1658, 247.7831
102.6479, 251.6472
103.1300, 256.2665
103.6121, 261.3714
104.0942, 267.5508
104.5763, 274.0527
105.0585, 279.4317
105.5406, 282.9797
106.0227, 285.0523
106.5048, 286.7198
106.9869, 288.2814
107.4690, 288.7082
107.9512, 287.2688
108.4333, 284.4175
108.9154, 281.2739
109.3975, 278.6944
109.8796, 276.7171
110.3617, 274.9800
110.8439, 273.4942
111.3260, 272.2034
111.8081, 271.3421
112.2902, 270.8071
112.7723, 270.1115
113.2544, 268.5170
113.7366, 265.1833
114.2187, 262.4851
114.7008, 260.7507
115.1829, 259.4132
115.6650, 257.8368
116.1471, 255.7777
116.6293, 253.7117
117.1114, 252.8381
117.5935, 253.2779
118.0756, 254.3809
118.5577, 256.4529
119.0398, 259.1213
119.5220, 261.4780
120.0041, 262.9644
120.4862, 263.9941
120.9683, 265.6489
121.4504, 268.5788
121.9325, 271.0530
122.4147, 271.4759
122.8968, 269.7119
123.3789, 267.5324
123.8610, 266.1889
124.3431, 264.7305
124.8252, 262.1841
125.3074, 258.2286
125.7895, 253.0475
126.2716, 246.8175
126.7537, 238.8344
127.2358, 231.1010
127.7179, 224.5735
128.2001, 218.5684
128.6822, 212.0425
129.1643, 204.2809
129.6464, 195.3999
130.1285, 187.3123
130.6106, 180.1876
131.0928, 173.7298
131.5749, 168.0751
132.0570, 163.1005
132.5391, 158.5186
133.0212, 154.0948
133.5033, 149.7554
133.9855, 146.1495
134.4676, 143.7047
134.9497, 141.4855
135.4318, 138.7959
135.9139, 135.6461
136.3960, 132.7251
136.8782, 130.8770
137.3603, 130.3250
137.8424, 129.9362
138.3245, 129.8764
138.8066, 129.8646
139.2887, 129.4806
139.7709, 128.5536
140.2530, 127.5710
140.7351, 127.1905
141.2172, 127.3438
141.6993, 127.6069
142.1814, 127.8750
142.6636, 128.1271
143.1457, 128.2356
143.6278, 127.9075
144.1099, 127.7569
144.5920, 128.3506
145.0741, 129.6799
145.5563, 131.1548
146.0384, 132.2180
146.5205, 132.8018
147.0026, 133.5402
147.4847, 134.7673
147.9668, 136.0406
148.4490, 137.0584
148.9311, 137.7721
149.4132, 138.4493
149.8953, 139.4829
150.3774, 140.9632
150.8595, 142.6817
151.3417, 144.8764
151.8238, 147.1048
152.3059, 149.0318
152.7880, 150.5172
153.2701, 151.6547
153.7522, 152.6532
154.2344, 153.2928
154.7165, 154.0272
155.1986, 154.8517
155.6807, 155.7847
156.1628, 156.9134
156.6449, 158.3043
157.1271, 159.8280
157.6092, 160.9249
158.0913, 161.1679
158.5734, 161.5556
159.0555, 162.4063
159.5376, 163.6218
160.0198, 164.9596
160.5019, 166.3185
160.9840, 167.6852
161.4661, 169.0155
161.9482, 170.5267
162.4303, 171.7928
162.9125, 172.4361
163.3946, 172.4778
163.8767, 172.3750
164.3588, 172.2848
164.8409, 172.2529
165.3230, 172.3605
165.8052, 172.6780
166.2873, 173.0896
166.7694, 173.4559
167.2515, 173.7823
167.7336, 174.0470
168.2157, 174.2155
168.6979, 174.3284
169.1800, 174.4259
169.6621, 174.5167
170.1442, 174.6092
170.6263, 174.6840
171.1084, 174.5195
171.5906, 174.7358
172.0727, 175.6282
172.5548, 176.9388
173.0369, 178.3492
173.5190, 179.7128
174.0011, 181.0011
174.4833, 181.9669
174.9654, 182.0677
175.4475, 182.3763
175.9296, 183.1754
176.4117, 184.3471
176.8938, 185.6902
177.3759, 187.0939
177.8581, 188.5698
178.3402, 189.6219
178.8223, 189.8990
179.3044, 190.1487
179.7865, 190.7070
180.2686, 191.4869
180.7508, 192.2079
181.2329, 192.6792
181.7150, 192.8996
182.1971, 192.4254
182.6792, 190.5957
183.1613, 188.7281
183.6435, 187.6702
184.1256, 187.4172
184.6077, 187.2590
185.0898, 186.4260
185.5719, 184.8982
186.0540, 184.2963
186.5362, 185.2114
187.0183, 186.7476
187.5004, 188.2108
187.9825, 189.5431
188.4646, 190.6409
188.9467, 191.0880
189.4289, 191.1155
189.9110, 191.7655
190.3931, 193.6036
190.8752, 196.1019
191.3573, 198.5683
191.8394, 201.0530
192.3216, 203.2164
192.8037, 204.7049
193.2858, 205.6891
193.7679, 206.4914
194.2500, 207.4035
194.7321, 208.2589
195.2143, 208.4723
195.6964, 207.7343
196.1785, 206.7731
196.6606, 206.2262
197.1427, 205.8188
197.6248, 204.9591
198.1070, 203.3396
198.5891, 200.9595
199.0712, 197.7675
199.5533, 193.0848
200.0354, 188.2602
200.5175, 183.7025
200.9997, 179.4310
201.4818, 175.4181
201.9639, 171.6803
202.4460, 168.2191
202.9281, 164.9024
203.4102, 161.9698
203.8924, 158.9930
204.3745, 155.4606
204.8566, 151.7091
205.3387, 148.6569
205.8208, 147.2259
206.3029, 147.6610
206.7851, 147.3794
207.2672, 145.7972
207.7493, 144.1316
208.2314, 142.8454
208.7135, 141.9200
209.1956, 141.0795
209.6778, 140.0423
210.1599, 138.7290
210.6420, 137.9311
211.1241, 138.1041
211.6062, 138.2907
212.0883, 137.8847
212.5705, 136.9550
213.0526, 136.0734
213.5347, 135.8085
214.0168, 136.2657
214.4989, 136.1982
214.9810, 135.4236
215.4632, 134.3222
215.9453, 133.0211
216.4274, 131.5643
216.9095, 130.1451
217.3916, 128.9258
217.8737, 127.9207
218.3559, 126.9906
218.8380, 126.4742
219.3201, 125.8056
219.8022, 124.2680
220.2843, 121.8104
220.7664, 119.4626
221.2486, 118.1815
221.7307, 117.7395
222.2128, 117.1701
222.6949, 116.5431
223.1770, 115.6183
223.6591, 113.8401
224.1413, 111.0266
224.6234, 108.5333
225.1055, 107.6905
225.5876, 107.8587
226.0697, 107.9636
226.5518, 107.7994
227.0340, 107.3851
227.5161, 106.6808
227.9982, 105.6034
228.4803, 104.5210
228.9624, 103.5556
229.4445, 102.7388
229.9267, 102.1504
230.4088, 101.8994
230.8909, 101.8356
231.3730, 101.6597
231.8551, 101.2990
232.3372, 101.0154
232.8194, 100.9548
233.3015, 101.0114
233.7836, 101.0450
234.2657, 100.9589
234.7478, 100.8796
235.2299, 101.1683
235.7121, 102.1575
236.1942, 102.8330
236.6763, 102.7583
237.1584, 102.3291
237.6405, 101.9219
238.1226, 101.6831
238.6048, 101.6054
239.0869, 101.6791
239.5690, 101.9652
240.0511, 102.3118
240.5332, 102.6062
241.0153, 102.9682
241.4975, 103.5940
241.9796, 104.5740
242.4617, 105.6764
242.9438, 106.2552
243.4259, 105.6684
243.9080, 105.5853
244.3902, 106.6284
244.8723, 107.9940
245.3544, 108.8927
245.8365, 109.0254
246.3186, 108.7002
246.8007, 108.6144
247.2829, 108.8781
247.7650, 109.2586
248.2471, 109.6396
248.7292, 110.1708
249.2113, 111.0703
249.6934, 112.3933
250.1756, 113.9055
250.6577, 115.1493
251.1398, 115.8817
251.6219, 116.6634
252.1040, 117.5062
252.5861, 118.3825
253.0683, 119.3513
253.5504, 120.4040
254.0325, 121.3404
254.5146, 121.7890
254.9967, 121.1313
255.4788, 121.1693
255.9610, 122.7990
256.4431, 124.6045
256.9252, 125.2020
257.4073, 124.3092
257.8894, 122.8735
258.3716, 122.2018
258.8537, 122.8287
259.3358, 122.7938
259.8179, 121.4846
260.3000, 119.8812
260.7821, 119.0158
261.2643, 119.0199
261.7464, 118.9732
262.2285, 117.8290
262.7106, 115.2888
263.1927, 112.7890
263.6748, 110.0344
264.1570, 107.5321
264.6391, 105.9109
265.1212, 105.1883
265.6033, 104.5703
266.0854, 103.2216
266.5675, 101.1191
267.0497, 99.69958
267.5318, 99.66679
268.0139, 99.86659
268.4960, 99.31087
268.9781, 97.97321
269.4602, 96.56583
269.9423, 95.62312
270.4244, 95.10203
270.9066, 94.49358
271.3887, 93.61266
271.8708, 92.77214
272.3529, 92.26057
272.8350, 92.05576
273.3171, 91.87317
273.7993, 91.54391
274.2814, 91.10493
274.7635, 90.67619
275.2456, 90.02786
275.7277, 89.65178
276.2098, 90.14559
276.6920, 91.38659
277.1741, 92.36208
277.6562, 92.56136
278.1383, 92.18156
278.6204, 91.68813
279.1025, 90.88045
279.5847, 90.37961
280.0668, 90.83687
280.5489, 92.08060
281.0310, 93.04504
281.5131, 93.18435
281.9952, 93.04593
282.4774, 93.46678
282.9595, 94.54549
283.4416, 95.58649
283.9237, 96.06702
284.4058, 96.12946
284.8879, 96.41362
285.3701, 97.21081
285.8522, 98.08125
286.3343, 98.57310
286.8164, 98.70429
287.2985, 98.70965
287.7806, 98.55257
288.2628, 98.34709
288.7449, 98.50750
289.2270, 99.22896
289.7091, 100.0809
290.1912, 100.7142
290.6733, 101.1753
291.1555, 101.6401
291.6376, 102.2020
292.1197, 102.8202
292.6018, 103.4673
293.0839, 104.2557
293.5660, 104.7804
294.0482, 104.6252
294.5303, 104.0481
295.0124, 103.4802
295.4945, 103.0419
295.9766, 102.7370
296.4587, 102.6199
296.9409, 102.7571
297.4230, 102.8538
297.9051, 102.8541
298.3872, 102.6964
298.8693, 102.2399
299.3514, 101.3500
299.8336, 100.3101
300.3157, 99.51020
300.7978, 98.99092
301.2799, 98.44068
301.7620, 97.82811
302.2441, 97.07256
302.7263, 96.00000
303.2084, 94.52003
303.6905, 93.06610
304.1726, 92.15634
304.6547, 91.82051
305.1368, 91.36104
305.6190, 90.54921
306.1011, 89.59142
306.5832, 88.62425
307.0653, 87.66049
307.5474, 86.71745
308.0295, 85.73085
308.5117, 84.72664
308.9938, 84.00594
309.4759, 83.66933
309.9580, 83.58900
310.4401, 83.79837
310.9222, 84.20210
311.4044, 84.45535
311.8865, 84.31999
312.3686, 83.84911
312.8507, 83.21759
313.3328, 82.23200
313.8149, 81.43711
314.2971, 81.19649
314.7792, 81.31334
315.2613, 81.42980
315.7434, 81.35894
316.2255, 81.20326
316.7076, 81.19787
317.1898, 81.39455
317.6719, 81.59838
318.1540, 81.82373
318.6361, 81.97334
319.1182, 81.84090
319.6003, 81.24555
320.0825, 80.68526
320.5646, 80.94895
321.0467, 82.18161
321.5288, 83.31561
322.0109, 84.03365
322.4930, 84.49532
322.9752, 84.75923
323.4573, 84.82883
323.9394, 84.83545
324.4215, 84.85368
324.9036, 84.88523
325.3857, 85.03983
325.8679, 85.29182
326.3500, 85.74395
326.8321, 86.52272
327.3142, 87.58389
327.7963, 88.65804
328.2784, 89.56245
328.7606, 90.32697
329.2427, 91.10036
329.7248, 91.87967
330.2069, 92.68524
330.6890, 93.51958
331.1711, 94.38520
331.6533, 95.29069
332.1354, 96.20751
332.6175, 97.18302
333.0996, 98.31657
333.5817, 99.63021
334.0638, 101.0513
334.5460, 102.6338
335.0281, 104.2694
335.5102, 105.8465
335.9923, 107.3678
336.4744, 108.7731
336.9565, 109.9021
337.4387, 110.7204
337.9208, 111.7684
338.4029, 113.3254
338.8850, 115.1366
339.3671, 116.9809
339.8492, 118.8566
340.3314, 120.6685
340.8135, 122.1839
341.2956, 123.5101
341.7777, 125.2780
342.2598, 127.7809
342.7419, 130.5072
343.2241, 133.0028
343.7062, 135.3191
344.1883, 137.6628
344.6704, 140.2424
345.1525, 142.9022
345.6346, 145.2144
346.1168, 147.0108
346.5989, 148.9227
347.0810, 151.7106
347.5631, 154.8978
348.0452, 157.6573
348.5273, 159.6928
349.0095, 161.2897
349.4916, 162.7681
349.9737, 164.1261
350.4558, 165.2615
350.9379, 166.4367
351.4200, 167.1000
351.9022, 166.4351
352.3843, 164.1222
352.8664, 161.2682
353.3485, 158.6313
353.8306, 156.0761
354.3127, 153.0376
354.7949, 149.2524
355.2770, 145.0748
355.7591, 140.7910
356.2412, 136.4015
356.7233, 132.2794
357.2054, 128.7094
357.6876, 125.4413
358.1697, 122.0036
358.6518, 118.2867
359.1339, 114.7476
359.6160, 111.8150
360.0981, 109.4284
360.5803, 107.3366
361.0624, 105.7888
361.5445, 104.3257
362.0266, 102.4913
362.5087, 100.3396
362.9908, 98.36870
363.4730, 96.87909
363.9551, 95.76167
364.4372, 94.57563
364.9193, 93.01266
365.4014, 91.88523
365.8835, 92.02948
366.3657, 92.80165
366.8478, 92.76373
367.3299, 91.33031
367.8120, 89.39932
368.2941, 88.40621
368.7762, 88.53432
369.2584, 88.69276
369.7405, 88.82103
370.2226, 88.86658
370.7047, 88.79532
371.1868, 88.59706
371.6689, 88.22325
372.1511, 87.56383
372.6332, 86.60361
373.1153, 85.99831
373.5974, 85.76715
374.0795, 85.82294
374.5616, 86.40955
375.0438, 87.26540
375.5259, 87.71458
376.0080, 87.33451
376.4901, 86.40826
376.9722, 85.94162
377.4543, 86.45475
377.9365, 86.74864
378.4186, 86.51385
378.9007, 86.08452
379.3828, 85.80771
379.8649, 85.78387
380.3470, 85.92583
380.8292, 86.12174
381.3113, 86.39717
381.7934, 86.65425
382.2755, 86.77397
382.7576, 86.97926
383.2397, 87.58022
383.7219, 88.42427
384.2040, 88.99059
384.6861, 88.82566
385.1682, 87.99030
385.6503, 87.45126
386.1324, 87.31367
386.6146, 87.38502
387.0967, 87.76796
387.5788, 88.30181
388.0609, 88.82224
388.5430, 89.25640
389.0251, 89.59090
389.5073, 89.78728
389.9894, 89.77162
390.4715, 89.76665
390.9536, 89.59731
391.4357, 89.57945
391.9178, 90.02717
392.3999, 90.89336
392.8820, 91.80061
393.3642, 92.41264
393.8463, 92.72643
394.3284, 92.81826
394.8105, 92.29537
395.2926, 92.01307
395.7747, 92.42091
396.2569, 93.22484
396.7390, 93.93896
397.2211, 94.31928
397.7032, 94.47594
398.1853, 94.61753
398.6674, 94.70034
399.1496, 94.90589
399.6317, 95.50743
400.1138, 96.11780
400.5959, 96.36911
401.0780, 96.20753
401.5602, 96.03168
402.0423, 96.26679
402.5244, 96.86708
403.0065, 97.29787
403.4886, 97.33181
403.9707, 97.43436
404.4529, 98.02454
404.9350, 98.94319
405.4171, 99.74712
405.8992, 100.1547
406.3813, 100.3821
406.8634, 100.7548
407.3456, 101.2792
407.8277, 101.9150
408.3098, 102.8193
408.7919, 103.7386
409.2740, 104.1887
409.7561, 103.9189
410.2383, 103.7757
410.7204, 104.3861
411.2025, 105.5379
411.6846, 106.6477
412.1667, 107.6054
412.6488, 108.3940
413.1310, 108.8261
413.6131, 108.9078
414.0952, 109.4257
414.5773, 111.1033
415.0594, 112.8794
415.5415, 113.6050
416.0237, 113.3363
416.5058, 113.0766
416.9879, 113.4667
417.4700, 114.4136
417.9521, 115.3962
418.4342, 116.2435
418.9164, 117.3168
419.3985, 118.9908
419.8806, 120.8710
420.3627, 122.3152
420.8448, 123.1256
421.3269, 123.6655
421.8091, 124.4641
422.2912, 125.5915
422.7733, 126.8030
423.2554, 128.0240
423.7375, 129.3788
424.2196, 131.1520
424.7018, 133.1538
425.1839, 134.8075
425.6660, 135.6602
426.1481, 135.8409
426.6302, 136.2484
427.1123, 136.7985
427.5945, 137.7233
428.0766, 138.9524
428.5587, 140.6043
429.0408, 143.0855
429.5229, 146.4225
430.0050, 149.7964
430.4872, 151.9218
430.9693, 152.4052
431.4514, 153.2556
431.9335, 154.5536
432.4156, 156.2351
432.8977, 158.4790
433.3799, 161.1099
433.8620, 163.7478
434.3441, 166.1154
434.8262, 168.3410
435.3083, 170.7428
435.7904, 173.2539
436.2726, 176.1107
436.7547, 179.8644
437.2368, 183.7751
437.7189, 187.0390
438.2010, 189.4599
438.6831, 191.9494
439.1653, 195.4803
439.6474, 199.8221
440.1295, 203.7195
440.6116, 206.7904
441.0937, 209.7386
441.5758, 213.0609
442.0580, 216.7124
442.5401, 220.6678
443.0222, 224.8391
443.5043, 229.3500
443.9864, 234.6765
444.4685, 240.6685
444.9507, 246.1000
445.4328, 250.1465
445.9149, 253.5359
446.3970, 257.8363
446.8791, 262.9373
447.3612, 268.9266
447.8434, 276.5427
448.3255, 284.7365
448.8076, 292.0971
449.2897, 298.4545
449.7718, 304.7867
450.2539, 312.1587
450.7361, 320.6911
451.2182, 327.9467
451.7003, 333.5944
452.1824, 338.5505
452.6645, 343.5488
453.1466, 348.0291
453.6288, 351.1928
454.1109, 352.6976
454.5930, 352.3279
455.0751, 349.5435
455.5572, 343.2937
456.0393, 336.5198
456.5215, 329.2602
457.0036, 321.5453
457.4857, 313.1827
457.9678, 304.3369
458.4499, 295.3369
458.9320, 286.3683
459.4142, 277.4899
459.8963, 268.9421
460.3784, 260.7227
460.8605, 252.9044
461.3426, 245.2626
461.8247, 238.0258
462.3069, 231.3283
462.7890, 225.2054
463.2711, 219.7905
463.7532, 215.5039
464.2353, 212.2395
464.7174, 208.7997
465.1996, 204.7901
465.6817, 201.0208
466.1638, 198.2016
466.6459, 196.0460
467.1280, 193.8544
467.6101, 191.3824
468.0923, 188.7978
468.5744, 186.2892
469.0565, 183.8334
469.5386, 181.4344
470.0207, 179.1832
470.5028, 176.8687
470.9850, 174.0763
471.4671, 170.7279
471.9492, 167.4322
472.4313, 164.2898
472.9134, 161.2901
473.3955, 158.5140
473.8777, 155.9305
474.3598, 153.2224
474.8419, 150.1290
475.3240, 146.6987
475.8061, 143.4792
476.2882, 141.0636
476.7704, 138.0926
477.2525, 133.5190
477.7346, 128.5887
478.2167, 124.9705
478.6988, 123.0256
479.1809, 121.6560
479.6631, 119.3623
480.1452, 115.8581
480.6273, 112.9739
481.1094, 111.1896
481.5915, 109.5539
482.0736, 107.7666
482.5558, 105.9169
483.0379, 104.1448
483.5200, 102.4818
484.0021, 101.0687
484.4842, 100.3463
484.9663, 100.5761
485.4485, 100.2596
485.9306, 98.53588
486.4127, 96.65774
486.8948, 95.51814
487.3769, 95.03046
487.8590, 94.51364
488.3412, 93.48538
488.8233, 92.20076
489.3054, 91.12727
489.7875, 90.27657
490.2696, 89.61982
490.7517, 89.19565
491.2339, 88.94851
491.7160, 88.76410
492.1981, 88.71404
492.6802, 88.52098
493.1623, 87.80878
493.6444, 86.97833
494.1266, 86.80266
494.6087, 87.38857
495.0908, 87.85806
495.5729, 87.33961
496.0550, 85.85168
496.5371, 84.96497
497.0193, 85.17667
497.5014, 85.31506
497.9835, 84.87834
498.4656, 84.20082
498.9477, 83.78514
499.4298, 83.78960
499.9120, 83.97100
500.3941, 83.97107
500.8762, 83.71901
501.3583, 83.56696
501.8404, 83.62022
502.3225, 83.66668
502.8047, 83.60023
503.2868, 83.47722
503.7689, 83.42061
504.2510, 83.50215
504.7331, 83.62766
505.2152, 83.55202
505.6974, 83.19408
506.1795, 83.16475
506.6616, 84.03539
507.1437, 84.83921
507.6258, 84.71964
508.1079, 83.82962
508.5901, 83.07368
509.0722, 82.92921
509.5543, 83.15199
510.0364, 83.47829
510.5185, 83.90016
511.0006, 84.17358
511.4828, 84.15489
511.9649, 83.94044
512.4470, 83.71513
512.9291, 83.45090
513.4112, 83.26373
513.8933, 83.12752
514.3754, 83.11757
514.8575, 83.41799
515.3397, 83.98436
515.8218, 84.45183
516.3039, 84.52393
516.7860, 84.27467
517.2681, 84.24001
517.7502, 84.86425
518.2324, 85.14253
518.7145, 84.58517
519.1966, 83.88197
519.6787, 83.74937
520.1608, 84.26120
520.6429, 84.90407
521.1251, 85.13741
521.6072, 84.97926
522.0893, 85.04190
522.5714, 85.51235
523.0535, 85.90727
523.5356, 85.98265
524.0178, 85.93874
524.4999, 86.04591
524.9820, 86.39159
525.4641, 86.68398
525.9462, 86.44179
526.4283, 85.86504
526.9105, 86.01014
527.3926, 87.28587
527.8747, 88.48608
528.3568, 88.44793
528.8389, 87.54353
529.3210, 87.07973
529.8032, 87.68177
530.2853, 88.18239
530.7674, 87.51139
531.2495, 86.36327
531.7316, 86.27697
532.2137, 87.71339
532.6959, 89.58760
533.1780, 90.58342
533.6601, 90.58337
534.1422, 90.39687
534.6243, 89.66557
535.1064, 89.16393
535.5886, 89.32797
536.0707, 89.86878
536.5528, 90.34810
537.0349, 90.58745
537.5170, 90.69569
537.9991, 90.86057
538.4813, 91.12574
538.9634, 91.21249
539.4455, 90.85741
539.9276, 90.60264
540.4097, 90.64931
540.8918, 90.97899
541.3740, 91.61499
541.8561, 92.75446
542.3382, 93.80149
542.8203, 93.79973
543.3024, 92.88351
543.7845, 92.36825
544.2667, 92.64351
544.7488, 93.27859
545.2309, 93.91499
545.7130, 94.54323
546.1951, 95.01529
546.6772, 95.15965
547.1594, 95.27628
547.6415, 95.63953
548.1236, 96.12966
548.6057, 96.37343
549.0878, 96.20539
549.5699, 95.97621
550.0521, 96.31274
550.5342, 97.55357
551.0163, 98.31403
551.4984, 98.35075
551.9805, 98.23143
552.4626, 97.99790
552.9448, 97.82969
553.4269, 98.06325
553.9090, 98.88277
554.3911, 99.91474
554.8732, 100.4477
555.3553, 100.3828
555.8375, 100.5204
556.3196, 101.1087
556.8017, 101.7551
557.2838, 102.1074
557.7659, 102.3086
558.2480, 102.7916
558.7302, 104.0146
559.2123, 105.2162
559.6944, 105.4036
560.1765, 104.8250
560.6586, 104.5619
561.1407, 104.9251
561.6229, 105.7943
562.1050, 107.2346
562.5871, 109.4209
563.0692, 110.6786
563.5513, 110.2214
564.0334, 109.5991
564.5156, 109.3910
564.9977, 109.6218
565.4798, 110.3430
565.9619, 111.5617
566.4440, 112.9643
566.9261, 114.0474
567.4083, 114.7320
567.8904, 115.4170
568.3725, 116.1725
568.8546, 116.8505
569.3367, 117.3263
569.8188, 117.7095
570.3010, 118.1710
570.7831, 118.7800
571.2652, 119.4761
571.7473, 120.2353
572.2294, 121.0401
572.7115, 121.7916
573.1937, 122.5067
573.6758, 123.0703
574.1579, 123.1896
574.6400, 123.0441
575.1221, 123.3500
575.6042, 124.6981
576.0864, 125.9156
576.5685, 126.2312
577.0506, 126.0843
577.5327, 126.2311
578.0148, 126.8510
578.4969, 127.5946
578.9791, 128.1183
579.4612, 128.4253
579.9433, 128.4408
580.4254, 127.6580
580.9075, 127.1819
581.3896, 127.1660
581.8718, 127.5832
582.3539, 128.6551
582.8360, 130.3215
583.3181, 131.7395
583.8002, 131.7947
584.2823, 130.7295
584.7645, 130.4578
585.2466, 131.3250
585.7287, 132.0035
586.2108, 131.5009
586.6929, 130.5788
587.1750, 130.3914
587.6572, 131.1802
588.1393, 131.9891
588.6214, 132.4446
589.1035, 132.6393
589.5856, 132.5775
590.0677, 132.3110
590.5499, 132.1718
591.0320, 132.3874
591.5141, 132.8732
591.9962, 133.3138
592.4783, 133.6256
592.9604, 134.0092
593.4426, 134.4524
593.9247, 134.9789
594.4068, 135.5355
594.8889, 136.1825
595.3710, 137.1028
595.8531, 138.4410
596.3353, 140.0595
596.8174, 141.5868
597.2995, 142.9253
597.7816, 144.7354
598.2637, 147.4463
598.7458, 150.3788
599.2280, 152.8905
599.7101, 155.0750
600.1922, 157.4778
600.6743, 160.3180
601.1564, 163.3952
601.6385, 166.5797
602.1207, 169.8727
602.6028, 173.2523
603.0849, 176.6801
603.5670, 180.3743
604.0491, 184.6398
604.5313, 189.5635
605.0134, 194.5254
605.4955, 199.5659
605.9776, 204.6078
606.4597, 209.3101
606.9418, 214.1499
607.4240, 219.6271
607.9061, 225.8877
608.3882, 232.8235
608.8703, 240.2490
609.3524, 248.1661
609.8345, 256.7525
610.3167, 265.7797
610.7988, 276.0180
611.2809, 288.6790
611.7630, 302.4196
612.2451, 315.3277
612.7272, 326.9190
613.2094, 339.1225
613.6915, 352.6298
614.1736, 367.3617
614.6557, 384.0554
615.1378, 402.2989
615.6199, 419.2437
616.1021, 433.2056
616.5842, 444.4546
617.0663, 453.5960
617.5484, 461.2253
618.0305, 465.5755
618.5126, 466.2366
618.9948, 464.3338
619.4769, 460.1420
619.9590, 453.9186
620.4411, 445.8608
620.9232, 435.8057
621.4053, 424.8194
621.8875, 414.4097
622.3696, 404.5920
622.8517, 395.0976
623.3338, 385.7469
623.8159, 377.0301
624.2980, 369.5620
624.7802, 363.1202
625.2623, 357.0279
625.7444, 350.6824
626.2265, 345.3920
626.7086, 342.5671
627.1907, 340.7986
627.6729, 338.0038
628.1550, 333.8529
628.6371, 329.4305
629.1192, 325.6618
629.6013, 322.4796
630.0834, 319.5484
630.5656, 317.7856
631.0477, 314.6672
631.5298, 309.3233
632.0119, 303.0926
632.4940, 296.6369
632.9761, 290.1664
633.4583, 283.9759
633.9404, 278.4218
634.4225, 273.0960
634.9046, 267.2778
635.3867, 260.9936
635.8688, 254.9436
636.3510, 249.4597
636.8331, 243.9706
637.3152, 237.5662
637.7973, 230.0545
638.2794, 223.5744
638.7615, 218.4981
639.2437, 214.0414
639.7258, 210.2580
640.2079, 206.7090
640.6900, 202.7594
641.1721, 198.2747
641.6542, 193.7765
642.1364, 189.8148
642.6185, 186.3533
643.1006, 182.9896
643.5827, 179.5856
644.0648, 176.6082
644.5469, 174.6554
645.0291, 172.9446
645.5112, 170.7124
645.9933, 167.9151
646.4754, 165.1948
646.9575, 162.7106
647.4396, 160.5536
647.9218, 158.9590
648.4039, 157.8103
648.8860, 156.6431
649.3681, 155.2667
649.8502, 153.7657
650.3323, 152.2278
650.8145, 150.5851
651.2966, 149.2233
651.7787, 148.1483
652.2608, 147.3358
652.7429, 146.9270
653.2250, 146.7142
653.7072, 146.5671
654.1893, 146.4200
654.6714, 145.9543
655.1535, 144.6396
655.6356, 142.7699
656.1177, 141.3996
656.5999, 140.6269
657.0820, 139.7307
657.5641, 138.1502
658.0462, 136.4669
658.5283, 135.9516
659.0104, 136.8856
659.4926, 137.3051
659.9747, 136.6839
660.4568, 135.7138
660.9389, 134.7155
661.4210, 133.7234
661.9031, 132.6991
662.3853, 131.6283
662.8674, 130.6406
663.3495, 129.9968
663.8316, 129.7380
664.3137, 129.1217
664.7958, 128.0267
665.2780, 126.7931
665.7601, 125.4230
666.2422, 124.0601
666.7243, 122.8554
667.2064, 121.8185
667.6885, 121.0064
668.1707, 120.7515
668.6528, 120.5342
669.1349, 119.7474
669.6170, 118.4321
670.0991, 116.8448
670.5812, 115.0832
671.0634, 113.3673
671.5455, 112.1333
672.0276, 111.6295
672.5097, 110.6905
672.9918, 108.6697
673.4739, 106.9256
673.9561, 106.2290
674.4382, 105.8956
674.9203, 104.9469
675.4024, 103.1462
675.8845, 101.2761
676.3666, 100.0710
676.8488, 99.22821
677.3309, 97.96405
677.8130, 96.25941
678.2951, 94.90935
678.7772, 94.38362
679.2593, 94.22982
679.7415, 93.60009
680.2236, 92.27847
680.7057, 91.13039
681.1878, 90.22861
681.6699, 89.41127
682.1520, 88.53222
682.6342, 87.71051
683.1163, 87.18956
683.5984, 87.01934
684.0805, 86.91132
684.5626, 86.58640
685.0447, 86.05852
685.5269, 85.36715
686.0090, 84.47679
686.4911, 83.60523
686.9732, 82.82036
687.4553, 82.13354
687.9374, 81.61466
688.4196, 81.29810
688.9017, 80.83485
689.3838, 79.91065
689.8659, 79.08907
690.3480, 78.75209
690.8301, 78.74184
691.3123, 78.85965
691.7944, 79.00620
692.2765, 78.94911
692.7586, 78.31460
693.2407, 77.16560
693.7228, 76.46201
694.2050, 76.38644
694.6871, 76.24178
695.1692, 75.62396
695.6513, 74.94353
696.1334, 74.74763
696.6155, 75.03200
697.0977, 75.01642
697.5798, 74.06367
698.0619, 73.11264
698.5440, 72.98641
699.0261, 73.35320
699.5082, 73.53496
699.9904, 73.33122
700.4724, 72.90959
700.9545, 72.40172
701.4366, 71.83098
701.9188, 71.58505
702.4009, 71.90852
702.8830, 72.07079
703.3651, 71.76515
703.8472, 71.32362
704.3293, 70.92133
704.8115, 70.58759
705.2936, 70.39934
705.7757, 70.64037
706.2578, 70.79375
706.7399, 70.27570
707.2220, 69.37170
707.7042, 68.64883
708.1863, 68.25480
708.6684, 68.23405
709.1505, 68.72394
709.6326, 69.58480
710.1147, 69.69817
710.5969, 68.43043
711.0790, 67.57770
711.5611, 67.68797
712.0432, 67.98077
712.5253, 68.00842
713.0074, 67.80035
713.4896, 67.55259
713.9717, 67.32518
714.4538, 67.11132
714.9359, 66.91457
715.4180, 66.72473
715.9001, 66.51071
716.3823, 66.26963
716.8644, 66.04515
717.3465, 65.86766
717.8286, 65.73323
718.3107, 65.62120
718.7928, 65.49408
719.2750, 65.46419
719.7571, 65.80014
720.2392, 65.96318
720.7213, 65.46715
721.2034, 64.65124
721.6855, 64.20090
722.1677, 64.39194
722.6498, 64.70072
723.1319, 64.72443
723.6140, 64.54286
724.0961, 64.31075
724.5782, 64.04033
725.0604, 63.67218
725.5425, 63.13922
726.0246, 62.59622
726.5067, 62.38934
726.9888, 62.72996
727.4709, 62.75998
727.9531, 62.16775
728.4352, 61.62777
728.9173, 61.38210
729.3994, 61.30794
729.8815, 61.24003
730.3636, 61.14314
730.8458, 61.10427
731.3279, 61.38402
731.8100, 61.65834
732.2921, 61.23500
732.7742, 60.23389
733.2563, 59.49601
733.7385, 59.34332
734.2206, 59.45203
734.7027, 59.41857
735.1848, 59.22948
735.6669, 59.10123
736.1490, 59.04790
736.6312, 59.04142
737.1133, 59.13943
737.5954, 59.23677
738.0775, 59.24263
738.5596, 59.15639
739.0417, 59.03043
739.5239, 58.86826
740.0060, 58.70671
740.4881, 58.65984
740.9702, 58.64857
741.4523, 58.32711
741.9344, 57.62750
742.4166, 57.10288
742.8987, 57.28493
743.3808, 57.96907
743.8629, 58.12011
744.3450, 57.41455
744.8271, 56.75718
745.3093, 56.01542
745.7914, 55.50951
746.2735, 55.56588
746.7556, 55.95728
747.2377, 56.22514
747.7198, 56.22056
748.2020, 56.09274
748.6841, 55.88231
749.1662, 55.65569
749.6483, 55.53572
750.1304, 55.52181
750.6125, 55.56084
751.0947, 55.63916
751.5768, 55.67200
752.0589, 55.46125
752.5410, 54.88085
753.0231, 54.67164
753.5052, 55.26118
753.9874, 55.64883
754.4695, 55.27201
754.9516, 54.71077
755.4337, 54.42082
755.9158, 54.48945
756.3979, 55.27119
756.8801, 58.27277
757.3622, 60.93353
757.8443, 60.03991
758.3264, 56.94700
758.8085, 54.99369
759.2906, 55.02584
759.7728, 55.56639
760.2549, 55.16724
760.7370, 54.05242
761.2191, 53.69260
761.7012, 54.46598
762.1833, 54.97224
762.6655, 54.84332
763.1476, 54.51085
763.6297, 54.23610
764.1118, 53.99733
764.5939, 53.71057
765.0760, 53.28849
765.5582, 52.96369
766.0403, 52.86350
766.5224, 52.90961
767.0045, 53.12055
767.4866, 53.40581
767.9688, 53.46118
768.4509, 53.12416
768.9330, 52.67867
769.4151, 52.64346
769.8972, 53.03909
770.3793, 53.24771
770.8615, 53.16582
771.3436, 53.15273
771.8257, 53.44601
772.3078, 53.83323
772.7899, 54.04342
773.2720, 54.08546
773.7542, 53.87752
774.2363, 53.00511
774.7184, 52.32330
775.2005, 52.54178
775.6826, 53.07081
776.1647, 53.03074
776.6469, 52.35098
777.1290, 51.68092
777.6111, 51.49320
778.0932, 51.70052
778.5753, 52.23538
779.0574, 53.07879
779.5396, 53.64642
780.0217, 53.79012
780.5038, 53.78180
780.9859, 53.83146
781.4680, 53.90256
781.9501, 53.82941
782.4323, 53.43225
782.9144, 53.19157
783.3965, 53.25653
783.8786, 53.35572
784.3607, 53.29259
784.8428, 53.16636
785.3250, 53.24313
785.8071, 53.60938
786.2892, 53.81526
786.7713, 53.25125
787.2534, 52.36673
787.7355, 51.98657
788.2177, 52.09964
788.6998, 52.48077
789.1819, 53.08253
789.6640, 53.60377
790.1461, 53.64473
790.6282, 53.20813
791.1104, 52.90566
791.5925, 52.73341
792.0746, 52.70832
792.5567, 52.87171
793.0388, 53.14436
793.5209, 53.21986
794.0031, 53.33882
794.4852, 54.44899
794.9673, 57.84591
795.4494, 60.28600
795.9315, 58.79847
796.4136, 55.72786
796.8958, 53.99590
797.3779, 53.72378
797.8600, 53.83826
798.3421, 53.79306
798.8242, 53.68798
799.3063, 53.74146
799.7885, 53.96811
800.2706, 53.86791
800.7527, 53.32866
801.2348, 52.78110
801.7169, 52.24498
802.1990, 51.91954
802.6812, 52.24070
803.1633, 53.21160
803.6454, 53.84841
804.1275, 53.85802
804.6096, 53.76704
805.0917, 53.73449
805.5739, 53.71721
806.0560, 53.67102
806.5381, 53.58875
807.0202, 53.44144
807.5023, 53.15338
807.9844, 52.97653
808.4666, 53.46133
808.9487, 54.37606
809.4308, 54.73947
809.9129, 54.43031
810.3950, 54.05503
810.8771, 53.94284
811.3593, 54.01839
811.8414, 54.13808
812.3235, 54.32110
812.8056, 54.47768
813.2877, 54.62344
813.7698, 54.72122
814.2520, 54.75717
814.7341, 54.74419
815.2162, 54.69139
815.6983, 54.60105
816.1804, 54.48136
816.6625, 54.27624
817.1447, 54.10380
817.6268, 53.98579
818.1089, 53.98717
818.5910, 54.27116
819.0731, 54.81121
819.5552, 55.38726
820.0374, 55.87171
820.5195, 56.23315
821.0016, 56.41603
821.4837, 56.42063
821.9658, 56.17147
822.4479, 55.53268
822.9301, 55.07465
823.4122, 55.12279
823.8943, 55.48997
824.3764, 55.92717
824.8585, 56.51978
825.3406, 56.72417
825.8228, 56.17149
826.3049, 55.65227
826.7870, 55.27529
827.2691, 55.17061
827.7512, 55.67332
828.2333, 56.63100
828.7155, 57.28600
829.1976, 57.12241
829.6797, 56.69290
830.1618, 56.58529
830.6439, 56.69640
831.1260, 56.85112
831.6082, 56.99819
832.0903, 56.89299
832.5724, 56.34795
833.0545, 55.73431
833.5366, 55.83398
834.0187, 56.77364
834.5009, 57.56057
834.9830, 58.25861
835.4651, 58.66546
835.9472, 58.48579
836.4293, 58.14542
836.9114, 58.09291
837.3936, 58.32235
837.8757, 58.66741
838.3578, 59.42992
838.8399, 59.89515
839.3220, 59.50076
839.8041, 58.89936
840.2863, 58.75886
840.7684, 59.03326
841.2505, 59.28987
841.7326, 59.30540
842.2147, 59.33593
842.6968, 59.83881
843.1790, 60.57529
843.6611, 60.81232
844.1432, 60.53864
844.6253, 60.21646
845.1074, 60.02275
845.5895, 59.95615
846.0717, 60.00712
846.5538, 60.17421
847.0359, 60.57113
847.5180, 61.46819
848.0001, 62.05530
848.4822, 61.93775
848.9644, 61.67963
849.4465, 61.63387
849.9286, 61.76204
850.4107, 61.95806
850.8928, 62.34156
851.3749, 62.47961
851.8571, 61.94835
852.3392, 61.35102
852.8213, 61.17558
853.3034, 61.32809
853.7855, 61.61416
854.2676, 61.94440
854.7498, 62.13212
855.2319, 61.88121
855.7140, 61.42234
856.1961, 61.26054
856.6782, 61.37897
857.1603, 61.71741
857.6425, 62.27831
858.1246, 62.78616
858.6067, 63.00600
859.0888, 62.99559
859.5709, 62.95396
860.0530, 62.81486
860.5352, 62.82899
861.0173, 63.16893
861.4994, 63.44611
861.9815, 63.40825
862.4636, 63.25137
862.9457, 63.25059
863.4279, 63.43676
863.9100, 63.56176
864.3921, 63.53405
864.8742, 63.46333
865.3563, 63.43424
865.8384, 63.37786
866.3206, 63.19123
866.8027, 62.88621
867.2848, 62.56461
867.7669, 62.28673
868.2490, 62.01223
868.7311, 61.56390
869.2133, 61.09677
869.6954, 61.14918
870.1775, 61.71987
870.6596, 62.28400
871.1417, 62.61967
871.6238, 62.72916
872.1060, 62.58279
872.5881, 62.18318
873.0702, 61.87749
873.5523, 61.70921
874.0344, 61.51970
874.5165, 61.20330
874.9987, 60.93538
875.4808, 61.05751
875.9629, 61.34248
876.4450, 61.04214
876.9271, 59.69184
877.4092, 58.66343
877.8914, 58.34704
878.3735, 58.30366
878.8556, 58.40425
879.3377, 58.53311
879.8198, 58.58013
880.3019, 58.51109
880.7841, 58.29124
881.2662, 57.70647
881.7483, 57.13782
882.2304, 57.17944
882.7125, 57.58112
883.1946, 57.73132
883.6768, 57.55325
884.1589, 57.33843
884.6410, 57.27084
885.1231, 57.29829
885.6052, 57.36353
886.0873, 57.47332
886.5695, 57.30434
887.0516, 56.72558
887.5337, 56.43163
888.0158, 56.86207
888.4979, 57.39879
888.9800, 57.19215
889.4622, 56.24570
889.9443, 55.89195
890.4264, 56.73861
890.9085, 57.29622
891.3906, 57.23128
891.8727, 57.03342
892.3549, 56.99682
892.8370, 57.05330
893.3191, 57.02521
893.8012, 56.86298
894.2833, 56.70907
894.7654, 56.52045
895.2476, 56.47548
895.7297, 56.91890
896.2118, 57.53295
896.6939, 57.73059
897.1760, 57.45617
897.6581, 57.13949
898.1403, 57.07922
898.6224, 57.13420
899.1045, 57.10611
899.5866, 56.99230
900.0687, 56.72850
900.5508, 56.31609
901.0330, 56.03123
901.5151, 56.01436
901.9972, 56.11860
902.4793, 56.09664
902.9614, 55.94802
903.4435, 56.20028
903.9257, 57.10575
904.4078, 57.75052
904.8899, 57.86168
905.3720, 57.77102
905.8541, 57.68986
906.3362, 57.60839
906.8184, 57.45999
907.3005, 57.03986
907.7826, 57.05944
908.2647, 58.25475
908.7468, 59.18141
909.2289, 58.98077
909.7111, 58.20380
910.1932, 57.34083
910.6753, 56.58791
911.1574, 56.41265
911.6395, 57.47230
912.1216, 58.54768
912.6038, 58.46574
913.0859, 57.89309
913.5680, 57.86943
914.0501, 58.29102
914.5322, 58.33236
915.0143, 57.63968
915.4965, 56.79342
915.9786, 56.47611
916.4607, 56.57480
916.9428, 56.73818
917.4249, 56.95734
917.9070, 57.10312
918.3892, 57.14434
918.8713, 57.09791
919.3534, 56.95676
919.8355, 56.77407
920.3176, 56.69728
920.7997, 56.69807
921.2819, 56.92896
921.7640, 57.50560
922.2461, 58.10122
922.7282, 58.74244
923.2103, 59.21002
923.6924, 59.11995
924.1746, 58.50907
924.6567, 58.06282
925.1388, 57.68589
925.6209, 57.64943
926.1030, 58.29005
926.5851, 59.01085
927.0673, 59.48652
927.5494, 59.72059
928.0315, 59.69943
928.5136, 59.40710
928.9957, 59.27217
929.4778, 59.77982
929.9600, 60.27380
930.4421, 60.05217
930.9242, 59.54552
931.4063, 59.48193
931.8884, 59.87514
932.3705, 60.21331
932.8527, 60.19453
933.3348, 60.12526
933.8169, 60.44591
934.2990, 61.02102
934.7811, 61.46822
935.2632, 61.79274
935.7454, 62.19389
936.2275, 62.73794
936.7096, 63.22041
937.1917, 63.40937
937.6738, 63.42056
938.1559, 63.76239
938.6381, 64.50269
939.1202, 64.97704
939.6023, 65.05257
940.0844, 65.05885
940.5665, 65.09496
941.0486, 65.25449
941.5308, 65.77625
942.0129, 66.74706
942.4950, 67.11804
942.9771, 66.08912
943.4592, 65.67436
943.9413, 66.76503
944.4235, 67.93172
944.9056, 68.20131
945.3877, 67.91351
945.8698, 67.81761
946.3519, 68.00154
946.8340, 68.39849
947.3162, 69.17625
947.7982, 69.95103
948.2803, 70.37139
948.7625, 70.77785
949.2446, 71.78637
949.7267, 73.20998
950.2088, 74.05412
950.6909, 73.66500
951.1730, 73.31988
951.6552, 74.26773
952.1373, 75.64613
952.6194, 76.35991
953.1015, 76.58458
953.5836, 76.90003
954.0657, 77.48531
954.5479, 78.25847
955.0300, 79.19162
955.5121, 80.20391
955.9942, 81.16074
956.4763, 82.06903
956.9584, 82.90487
957.4406, 83.68851
957.9227, 84.66592
958.4048, 85.96769
958.8869, 87.34143
959.3690, 88.43302
959.8511, 89.28975
960.3333, 90.24328
960.8154, 91.25150
961.2975, 92.71967
961.7796, 94.87163
962.2617, 96.92185
962.7438, 98.19486
963.2260, 99.20739
963.7081, 101.1093
964.1902, 104.1166
964.6723, 106.8645
965.1544, 108.9175
965.6365, 111.4315
966.1187, 115.0801
966.6008, 118.8876
967.0829, 121.9139
967.5650, 124.5166
968.0471, 127.7685
968.5292, 131.7896
969.0114, 136.3130
969.4935, 141.1494
969.9756, 146.6918
970.4577, 153.4239
970.9398, 160.7601
971.4219, 167.7781
971.9041, 174.7346
972.3862, 183.1100
972.8683, 193.4903
973.3504, 205.1086
973.8325, 216.7339
974.3146, 230.2526
974.7968, 247.2660
975.2789, 267.4070
975.7610, 289.4723
976.2431, 313.3982
976.7252, 340.8344
977.2073, 372.3112
977.6895, 408.4952
978.1716, 451.1220
978.6537, 498.3386
979.1358, 549.4249
979.6179, 602.7368
980.1000, 653.8481
980.5822, 701.2368
981.0643, 745.8579
981.5464, 787.1405
982.0285, 827.6848
982.5106, 871.0317
982.9927, 917.9893
983.4749, 973.1226
983.9570, 1036.801
984.4391, 1106.974
984.9212, 1182.091
985.4033, 1265.755
985.8854, 1363.140
986.3676, 1474.103
986.8497, 1591.887
987.3318, 1715.145
987.8139, 1860.327
988.2960, 2029.691
988.7781, 2225.614
989.2603, 2452.103
989.7424, 2705.168
990.2245, 2985.011
990.7066, 3299.845
991.1887, 3582.640
991.6708, 3858.504
992.1530, 4048.888
992.6351, 4157.591
993.1172, 4143.150
993.5993, 3953.355
994.0814, 3620.297
994.5635, 3235.616
995.0457, 2764.384
995.5278, 2341.049
996.0099, 1960.003
996.4920, 1630.739
996.9741, 1361.774
997.4562, 1140.317
997.9384, 962.8513
998.4205, 823.6756
998.9026, 708.4696
999.3847, 620.0077
999.8668, 545.2547
1000.349, 485.2739
1000.831, 434.3719
1001.313, 391.8289
1001.795, 355.5896
1002.277, 323.8520
1002.760, 296.3698
1003.242, 272.6332
1003.724, 253.3095
1004.206, 236.1618
1004.688, 220.2151
1005.170, 205.9074
1005.652, 193.7585
1006.134, 183.2788
1006.616, 173.7760
1007.099, 165.1132
1007.581, 157.4900
1008.063, 151.1580
1008.545, 145.4085
1009.027, 139.6525
1009.509, 134.1723
1009.991, 129.4267
1010.473, 125.1426
1010.956, 120.6961
1011.438, 115.9881
1011.920, 111.6054
1012.402, 107.9157
1012.884, 104.7511
1013.366, 101.9236
1013.848, 99.46328
1014.330, 97.66039
1014.812, 96.26959
1015.295, 94.38705
1015.777, 91.78115
1016.259, 89.25655
1016.741, 87.53273
1017.223, 86.24226
1017.705, 84.67963
1018.187, 82.96933
1018.669, 81.60643
1019.151, 80.59007
1019.634, 79.56503
1020.116, 78.40108
1020.598, 77.36918
1021.080, 76.80583
1021.562, 76.50114
1022.044, 75.81688
1022.526, 74.80006
1023.008, 74.04537
1023.491, 73.61037
1023.973, 72.76738
1024.455, 71.15833
1024.937, 69.54531
1025.419, 68.84317
1025.901, 68.84682
1026.383, 68.63231
1026.865, 68.19216
1027.348, 67.55934
1027.830, 66.64675
1028.312, 66.14806
1028.794, 66.48915
1029.276, 67.00257
1029.758, 66.82761
1030.240, 66.06491
1030.722, 65.51254
1031.204, 65.21236
1031.687, 64.93750
1032.169, 64.64346
1032.651, 64.47212
1033.133, 64.60183
1033.615, 64.67959
1034.097, 64.15795
1034.579, 63.10267
1035.061, 62.57280
1035.543, 62.79324
1036.026, 62.95735
1036.508, 62.96412
1036.990, 62.97056
1037.472, 62.99126
1037.954, 63.11665
1038.436, 63.56956
1038.918, 64.32341
1039.400, 64.58054
1039.883, 63.99865
1040.365, 63.55136
1040.847, 63.23945
1041.329, 63.14850
1041.811, 63.48033
1042.293, 63.94251
1042.775, 64.09547
1043.257, 63.95336
1043.740, 64.08622
1044.222, 64.90785
1044.704, 65.36507
1045.186, 64.90790
1045.668, 64.65659
1046.150, 65.42777
1046.632, 66.46075
1047.114, 66.55714
1047.596, 65.82436
1048.078, 66.10441
1048.561, 68.81802
1049.043, 70.62461
1049.525, 70.50034
1050.007, 70.11571
1050.489, 69.96975
1050.971, 70.20033
1051.453, 71.17456
1051.935, 72.76057
1052.418, 73.82103
1052.900, 73.60055
1053.382, 73.83748
1053.864, 75.30632
1054.346, 76.81360
1054.828, 77.54009
1055.310, 78.09552
1055.792, 79.30594
1056.275, 81.11246
1056.757, 82.70985
1057.239, 83.63160
1057.721, 84.93871
1058.203, 87.38045
1058.685, 89.75671
1059.167, 91.30560
1059.649, 92.48363
1060.131, 93.70869
1060.614, 95.09622
1061.096, 96.87013
1061.578, 99.15276
1062.060, 101.6250
1062.542, 104.6660
1063.024, 107.2940
1063.506, 108.5291
1063.988, 109.3447
1064.470, 110.9103
1064.953, 113.1253
1065.435, 115.1568
1065.917, 116.8234
1066.399, 118.1926
1066.881, 119.3963
1067.363, 120.1932
1067.845, 120.0158
1068.327, 119.6752
1068.810, 120.3861
1069.292, 121.7230
1069.774, 122.0511
1070.256, 120.7598
1070.738, 119.3995
1071.220, 118.7769
1071.702, 118.1171
1072.184, 117.0067
1072.666, 115.6065
1073.149, 114.0332
1073.631, 112.3529
1074.113, 110.7398
1074.595, 109.2770
1075.077, 107.4702
1075.559, 104.7459
1076.041, 102.0626
1076.523, 99.94521
1077.005, 98.13766
1077.488, 96.53604
1077.970, 94.97472
1078.452, 93.17207
1078.934, 91.06152
1079.416, 88.81878
1079.898, 85.95875
1080.380, 83.68342
1080.862, 82.99910
1081.344, 82.81509
1081.827, 82.36821
1082.309, 81.58821
1082.791, 80.42843
1083.273, 78.92182
1083.755, 77.58480
1084.237, 76.67900
1084.719, 75.91777
1085.201, 75.21783
1085.684, 74.56177
1086.166, 73.95146
1086.648, 73.36777
1087.130, 72.69341
1087.612, 71.97554
1088.094, 71.63355
1088.576, 72.13288
1089.058, 72.41756
1089.541, 71.84590
1090.023, 71.09565
1090.505, 70.46025
1090.987, 70.05392
1091.469, 70.07485
1091.951, 70.44010
1092.433, 70.76682
1092.915, 71.04161
1093.397, 70.96000
1093.880, 69.87538
1094.362, 69.00658
1094.844, 69.22681
1095.326, 69.93053
1095.808, 70.41673
1096.290, 70.75385
1096.772, 71.48570
1097.254, 72.89380
1097.736, 73.90056
1098.219, 73.66589
1098.701, 73.54907
1099.183, 74.14611
1099.665, 75.15070
1100.147, 76.49825
1100.629, 77.95428
1101.111, 79.01664
1101.593, 79.56079
1102.076, 80.38718
1102.558, 82.11911
1103.040, 83.60304
1103.522, 84.30040
1104.004, 84.79509
1104.486, 85.14291
1104.968, 85.73783
1105.450, 87.39423
1105.932, 90.12782
1106.415, 92.31483
1106.897, 93.28222
1107.379, 94.21920
1107.861, 95.13165
1108.343, 96.31583
1108.825, 98.21406
1109.307, 100.2794
1109.789, 101.8249
1110.271, 102.8839
1110.754, 104.0125
1111.236, 105.3782
1111.718, 106.5832
1112.200, 107.7485
1112.682, 108.5539
1113.164, 108.6462
1113.646, 108.5483
1114.128, 108.8422
1114.611, 109.3337
1115.093, 109.3319
1115.575, 108.6811
1116.057, 107.9949
1116.539, 107.6112
1117.021, 106.6645
1117.503, 104.4276
1117.985, 102.2495
1118.468, 101.1629
1118.950, 100.6412
1119.432, 99.74398
1119.914, 98.47373
1120.396, 96.75415
1120.878, 94.22180
1121.360, 92.04131
1121.842, 90.58035
1122.324, 89.05489
1122.807, 86.95280
1123.289, 84.77343
1123.771, 83.16982
1124.253, 82.07255
1124.735, 80.85690
1125.217, 79.42225
1125.699, 78.22581
1126.181, 77.40707
1126.663, 76.39744
1127.146, 74.83403
1127.628, 73.51336
1128.110, 73.32177
1128.592, 73.73116
1129.074, 73.10957
1129.556, 71.33495
1130.038, 69.79934
1130.520, 68.45774
1131.003, 67.79715
1131.485, 68.02221
1131.967, 68.32933
1132.449, 68.23479
1132.931, 67.79169
1133.413, 67.01595
1133.895, 65.97806
1134.377, 65.13116
1134.859, 64.47240
1135.342, 64.09746
1135.824, 64.01726
1136.306, 64.20091
1136.788, 64.64418
1137.270, 65.06374
1137.752, 65.20264
1138.234, 65.00759
1138.716, 64.08113
1139.198, 62.70269
1139.681, 62.12257
1140.163, 62.32234
1140.645, 62.75922
1141.127, 63.25353
1141.609, 63.75431
1142.091, 64.25149
1142.573, 64.55785
1143.055, 64.32407
1143.538, 63.76003
1144.020, 63.15868
1144.502, 62.61987
1144.984, 62.38192
1145.466, 62.44250
1145.948, 62.64417
1146.430, 62.91735
1146.912, 63.24006
1147.395, 63.62977
1147.877, 64.01659
1148.359, 64.25886
1148.841, 64.49347
1149.323, 64.89891
1149.805, 65.46941
1150.287, 66.25417
1150.769, 67.18722
1151.251, 67.82216
1151.734, 67.78004
1152.216, 67.74861
1152.698, 68.28433
1153.180, 68.90946
1153.662, 69.30158
1154.144, 69.48727
1154.626, 69.36967
1155.108, 69.11809
1155.590, 69.23928
1156.073, 69.91564
1156.555, 70.65137
1157.037, 71.11699
1157.519, 71.81346
1158.001, 73.26883
1158.483, 74.71931
1158.965, 75.38976
1159.447, 75.74706
1159.930, 76.69466
1160.412, 78.29361
1160.894, 79.69259
1161.376, 80.37447
1161.858, 81.51707
1162.340, 83.39175
1162.822, 85.52482
1163.304, 88.08614
1163.786, 90.46279
1164.269, 91.83184
1164.751, 92.61420
1165.233, 94.34316
1165.715, 97.30738
1166.197, 99.89394
1166.679, 101.8581
1167.161, 104.1102
1167.643, 106.7957
1168.125, 109.9419
1168.608, 113.6300
1169.090, 117.6591
1169.572, 121.7523
1170.054, 125.9458
1170.536, 130.4330
1171.018, 135.2619
1171.500, 139.5703
1171.982, 143.2809
1172.465, 146.8883
1172.947, 150.5684
1173.429, 154.2124
1173.911, 157.7498
1174.393, 161.1160
1174.875, 164.1601
1175.357, 166.9662
1175.839, 169.5293
1176.322, 172.1770
1176.804, 176.6412
1177.286, 182.8539
1177.768, 188.2856
1178.250, 191.8521
1178.732, 195.8705
1179.214, 202.9206
1179.696, 211.1821
1180.178, 218.0710
1180.661, 224.7262
1181.143, 232.8120
1181.625, 242.1748
1182.107, 252.2293
1182.589, 262.6608
1183.071, 272.9337
1183.553, 282.7010
1184.035, 292.4469
1184.517, 303.0498
1185.000, 313.0125
1185.482, 321.0206
1185.964, 328.0532
1186.446, 335.8087
1186.928, 343.2391
1187.410, 347.7568
1187.892, 348.8882
1188.374, 348.6564
1188.857, 348.1693
1189.339, 345.3836
1189.821, 339.7281
1190.303, 331.8675
1190.785, 322.0999
1191.267, 310.1918
1191.749, 295.1444
1192.231, 277.8186
1192.714, 261.3004
1193.196, 245.5773
1193.678, 230.6056
1194.160, 216.3270
1194.642, 202.9468
1195.124, 190.4882
1195.606, 178.9855
1196.088, 168.4348
1196.570, 159.0970
1197.052, 151.4579
1197.535, 145.2653
1198.017, 139.1739
1198.499, 133.1983
1198.981, 127.9584
1199.463, 123.4608
1199.945, 119.2697
1200.427, 115.2392
1200.909, 111.9088
1201.392, 109.6845
1201.874, 107.8142
1202.356, 105.0353
1202.838, 101.9146
1203.320, 99.72291
1203.802, 98.15676
1204.284, 96.45263
1204.766, 94.67625
1205.249, 93.50228
1205.731, 93.06393
1206.213, 92.58709
1206.695, 91.45093
1207.177, 90.45979
1207.659, 90.49538
1208.141, 90.67538
1208.623, 90.32018
1209.105, 89.57590
1209.588, 88.53224
1210.070, 87.33906
1210.552, 86.24491
1211.034, 85.27499
1211.516, 84.69678
1211.998, 84.97807
1212.480, 85.05302
1212.962, 84.20880
1213.444, 83.63028
1213.927, 84.58984
1214.409, 85.59251
1214.891, 84.72770
1215.373, 82.53056
1215.855, 81.46040
1216.337, 81.86983
1216.819, 81.78726
1217.301, 80.90757
1217.784, 80.83720
1218.266, 82.09731
1218.748, 83.30966
1219.230, 83.74577
1219.712, 83.62404
1220.194, 83.16750
1220.676, 82.47934
1221.158, 81.62714
1221.641, 80.81749
1222.123, 81.56872
1222.605, 83.53358
1223.087, 84.42432
1223.569, 83.84196
1224.051, 83.22072
1224.533, 83.36313
1225.015, 83.67913
1225.497, 83.66319
1225.979, 83.40843
1226.462, 82.68352
1226.944, 82.04659
1227.426, 82.52154
1227.908, 83.55312
1228.390, 83.84892
1228.872, 83.30795
1229.354, 82.96648
1229.836, 83.33254
1230.319, 83.47235
1230.801, 82.53391
1231.283, 82.00321
1231.765, 83.04182
1232.247, 84.21045
1232.729, 84.18067
1233.211, 83.60454
1233.693, 83.81792
1234.176, 84.77504
1234.658, 85.05316
1235.140, 84.28709
1235.622, 83.96961
1236.104, 84.25254
1236.586, 84.71053
1237.068, 85.29357
1237.550, 85.65425
1238.032, 85.49890
1238.515, 85.15096
1238.997, 85.20259
1239.479, 85.49013
1239.961, 85.14858
1240.443, 84.43040
1240.925, 84.63546
1241.407, 85.65872
1241.889, 86.43506
1242.371, 86.67992
1242.854, 86.80960
1243.336, 87.06307
1243.818, 87.39925
1244.300, 87.99939
1244.782, 88.43491
1245.264, 88.13306
1245.746, 87.54836
1246.228, 87.17506
1246.711, 86.98941
1247.193, 86.81850
1247.675, 86.64406
1248.157, 86.60033
1248.639, 86.77888
1249.121, 86.97101
1249.603, 87.23732
1250.085, 87.37657
1250.568, 87.28879
1251.050, 87.09143
1251.532, 86.74133
1252.014, 86.45659
1252.496, 86.66521
1252.978, 87.29660
1253.460, 87.56818
1253.942, 87.46346
1254.424, 87.07543
1254.906, 86.38952
1255.389, 86.13042
1255.871, 86.49291
1256.353, 87.07300
1256.835, 87.62838
1257.317, 88.06040
1257.799, 88.26659
1258.281, 88.24715
1258.763, 87.80584
1259.246, 87.25745
1259.728, 87.26630
1260.210, 87.62148
1260.692, 87.70473
1261.174, 87.46031
1261.656, 87.28734
1262.138, 87.33383
1262.620, 87.51138
1263.103, 87.86848
1263.585, 88.22711
1264.067, 88.53944
1264.549, 88.79073
1265.031, 88.98940
1265.513, 89.10937
1265.995, 88.98048
1266.477, 88.72948
1266.959, 89.10591
1267.442, 90.46997
##END=



