##NAMES=Bobdownsite
##RRUFFID=R050109
##IDEAL CHEMISTRY=Ca_9_Mg(PO_4_)_6_(PO_3_F)
##LOCALITY=Big Fish River, Yukon Territory, Canada
##OWNER=RRUFF
##SOURCE=Rock Currier
##DESCRIPTION=Colorless hexagonal tabular crystals, type sample
##STATUS=The identification of this mineral is confirmed by single-crystal X-ray diffraction and chemical analysis.
##URL=rruff.info/R050109
##MEASURED CHEMISTRY=(Ca_8.76_Na_0.24_)_Σ=9_(Mg_0.72_Fe^3+^_0.13_Al_0.11_Fe^2+^_0.04_)_Σ=1_(P_1.00_O_4_)_6_(P_1.00_O_3_F_1.00_); Fe^2+^ and Fe^3+^ by charge balance
128.4501, 4202.425
128.9322, 4312.247
129.4144, 4418.859
129.8965, 4516.971
130.3786, 4606.866
130.8607, 4721.046
131.3428, 4867.933
131.8249, 4997.521
132.3071, 5061.346
132.7892, 5074.030
133.2713, 5113.282
133.7534, 5202.055
134.2355, 5314.443
134.7176, 5381.661
135.1998, 5402.047
135.6819, 5395.623
136.1640, 5373.223
136.6461, 5334.153
137.1282, 5298.935
137.6103, 5274.911
138.0925, 5261.074
138.5746, 5242.551
139.0567, 5221.426
139.5388, 5192.206
140.0209, 5139.445
140.5030, 5049.912
140.9852, 4978.245
141.4673, 4950.261
141.9494, 4981.442
142.4315, 4996.896
142.9136, 4985.797
143.3957, 4962.378
143.8779, 4971.123
144.3600, 5031.436
144.8421, 5094.602
145.3242, 5130.250
145.8063, 5118.709
146.2884, 5117.926
146.7705, 5138.565
147.2527, 5179.622
147.7348, 5207.913
148.2169, 5223.559
148.6990, 5226.773
149.1811, 5217.257
149.6632, 5183.263
150.1454, 5149.763
150.6275, 5121.586
151.1096, 5100.127
151.5917, 5078.096
152.0738, 5047.969
152.5559, 5018.386
153.0381, 5002.769
153.5202, 5012.291
154.0023, 5026.643
154.4844, 5039.144
154.9665, 5046.239
155.4486, 5056.325
155.9308, 5078.190
156.4129, 5105.252
156.8950, 5117.318
157.3771, 5105.317
157.8592, 5080.984
158.3413, 5051.083
158.8235, 4999.938
159.3056, 4960.252
159.7877, 4954.602
160.2698, 4978.947
160.7519, 4978.750
161.2340, 4913.283
161.7162, 4824.481
162.1983, 4753.155
162.6804, 4728.126
163.1625, 4709.993
163.6446, 4684.524
164.1267, 4651.396
164.6089, 4605.177
165.0910, 4537.417
165.5731, 4455.577
166.0552, 4371.694
166.5373, 4285.892
167.0194, 4202.885
167.5016, 4124.589
167.9837, 4050.113
168.4658, 3985.500
168.9479, 3934.434
169.4300, 3896.347
169.9121, 3869.518
170.3943, 3862.534
170.8764, 3862.951
171.3585, 3857.219
171.8406, 3836.709
172.3227, 3815.079
172.8048, 3805.391
173.2870, 3806.441
173.7691, 3807.828
174.2512, 3797.632
174.7333, 3783.414
175.2154, 3777.492
175.6975, 3803.994
176.1797, 3831.999
176.6618, 3821.905
177.1439, 3772.037
177.6260, 3708.888
178.1081, 3658.313
178.5902, 3613.366
179.0724, 3556.271
179.5545, 3462.697
180.0366, 3354.458
180.5187, 3272.284
181.0008, 3221.939
181.4829, 3181.942
181.9651, 3121.703
182.4472, 3045.496
182.9293, 2978.859
183.4114, 2938.071
183.8935, 2918.250
184.3756, 2907.055
184.8578, 2906.593
185.3399, 2908.269
185.8220, 2896.777
186.3041, 2872.469
186.7862, 2845.747
187.2683, 2822.732
187.7504, 2803.509
188.2326, 2787.218
188.7147, 2773.719
189.1968, 2763.353
189.6789, 2757.326
190.1610, 2755.793
190.6431, 2757.232
191.1253, 2766.084
191.6074, 2780.734
192.0895, 2780.927
192.5716, 2752.611
193.0537, 2703.495
193.5358, 2668.701
194.0180, 2649.625
194.5001, 2640.892
194.9822, 2639.591
195.4643, 2646.152
195.9464, 2648.313
196.4285, 2639.062
196.9107, 2619.199
197.3928, 2602.246
197.8749, 2590.438
198.3570, 2578.267
198.8391, 2552.237
199.3212, 2509.672
199.8034, 2471.927
200.2855, 2452.257
200.7676, 2451.981
201.2497, 2450.210
201.7318, 2445.082
202.2139, 2437.712
202.6961, 2431.314
203.1782, 2426.133
203.6603, 2420.682
204.1424, 2412.635
204.6245, 2400.849
205.1066, 2394.163
205.5888, 2394.612
206.0709, 2400.984
206.5530, 2408.071
207.0351, 2416.855
207.5172, 2424.236
207.9993, 2426.373
208.4815, 2421.460
208.9636, 2419.198
209.4457, 2421.306
209.9278, 2427.772
210.4099, 2439.149
210.8920, 2458.452
211.3742, 2477.962
211.8563, 2488.739
212.3384, 2488.472
212.8205, 2486.146
213.3026, 2481.949
213.7847, 2474.840
214.2669, 2479.402
214.7490, 2501.104
215.2311, 2528.777
215.7132, 2544.918
216.1953, 2546.124
216.6774, 2543.441
217.1596, 2539.210
217.6417, 2531.521
218.1238, 2530.948
218.6059, 2539.848
219.0880, 2554.515
219.5701, 2567.942
220.0523, 2581.151
220.5344, 2591.354
221.0165, 2596.117
221.4986, 2591.512
221.9807, 2592.587
222.4628, 2601.529
222.9450, 2615.941
223.4271, 2627.878
223.9092, 2634.469
224.3913, 2642.757
224.8734, 2658.509
225.3555, 2689.531
225.8377, 2708.504
226.3198, 2709.112
226.8019, 2694.994
227.2840, 2688.344
227.7661, 2692.260
228.2482, 2699.728
228.7303, 2705.995
229.2125, 2710.677
229.6946, 2714.840
230.1767, 2718.018
230.6588, 2720.415
231.1409, 2725.313
231.6230, 2734.664
232.1052, 2744.460
232.5873, 2749.651
233.0694, 2742.636
233.5515, 2746.306
234.0336, 2770.397
234.5157, 2817.005
234.9979, 2844.307
235.4800, 2843.212
235.9621, 2831.060
236.4442, 2827.051
236.9263, 2834.882
237.4084, 2844.357
237.8906, 2853.410
238.3727, 2861.842
238.8548, 2871.604
239.3369, 2886.680
239.8190, 2900.288
240.3011, 2900.887
240.7833, 2873.815
241.2654, 2857.764
241.7475, 2867.709
242.2296, 2914.379
242.7117, 2944.647
243.1938, 2950.734
243.6760, 2944.465
244.1581, 2946.922
244.6402, 2962.405
245.1223, 2979.895
245.6044, 2996.003
246.0865, 3011.734
246.5687, 3022.691
247.0508, 3024.632
247.5329, 3023.286
248.0150, 3031.762
248.4971, 3053.765
248.9792, 3080.143
249.4614, 3107.512
249.9435, 3139.105
250.4256, 3164.145
250.9077, 3178.621
251.3898, 3187.317
251.8719, 3205.087
252.3541, 3238.362
252.8362, 3271.340
253.3183, 3295.822
253.8004, 3308.286
254.2825, 3321.911
254.7646, 3339.506
255.2468, 3358.591
255.7289, 3367.945
256.2110, 3360.448
256.6931, 3354.186
257.1752, 3362.061
257.6573, 3394.663
258.1395, 3413.660
258.6216, 3411.499
259.1037, 3392.829
259.5858, 3382.058
260.0679, 3381.112
260.5500, 3384.711
261.0322, 3390.100
261.5143, 3398.826
261.9964, 3405.039
262.4785, 3409.228
262.9606, 3410.581
263.4427, 3401.798
263.9249, 3375.178
264.4070, 3350.903
264.8891, 3346.777
265.3712, 3371.402
265.8533, 3390.308
266.3354, 3398.932
266.8176, 3397.778
267.2997, 3388.419
267.7818, 3364.465
268.2639, 3344.130
268.7460, 3347.189
269.2281, 3381.900
269.7103, 3409.075
270.1924, 3419.708
270.6745, 3415.602
271.1566, 3414.900
271.6387, 3418.881
272.1208, 3423.688
272.6030, 3422.298
273.0851, 3410.504
273.5672, 3412.791
274.0493, 3438.547
274.5314, 3485.045
275.0135, 3523.799
275.4957, 3553.115
275.9778, 3578.493
276.4599, 3604.768
276.9420, 3631.945
277.4241, 3659.706
277.9063, 3686.079
278.3884, 3712.245
278.8705, 3747.112
279.3526, 3792.110
279.8347, 3841.762
280.3168, 3892.641
280.7990, 3945.466
281.2811, 3990.272
281.7632, 4015.271
282.2453, 4026.965
282.7274, 4084.661
283.2095, 4204.791
283.6917, 4314.085
284.1738, 4311.503
284.6559, 4195.646
285.1380, 4085.757
285.6201, 4025.184
286.1022, 4003.905
286.5844, 3965.763
287.0665, 3908.489
287.5486, 3844.117
288.0307, 3785.578
288.5128, 3732.603
288.9949, 3681.306
289.4771, 3633.319
289.9591, 3586.316
290.4413, 3525.145
290.9234, 3447.829
291.4055, 3370.896
291.8876, 3314.989
292.3697, 3277.896
292.8518, 3243.778
293.3340, 3208.264
293.8161, 3171.187
294.2982, 3134.901
294.7803, 3099.812
295.2624, 3059.999
295.7445, 3002.249
296.2267, 2931.290
296.7088, 2868.938
297.1909, 2830.399
297.6730, 2804.574
298.1551, 2765.941
298.6372, 2713.093
299.1194, 2661.861
299.6015, 2634.083
300.0836, 2622.198
300.5657, 2604.809
301.0478, 2570.002
301.5299, 2525.361
302.0121, 2483.011
302.4942, 2442.963
302.9763, 2400.530
303.4584, 2344.404
303.9405, 2282.326
304.4226, 2229.661
304.9048, 2198.594
305.3869, 2177.854
305.8690, 2159.016
306.3511, 2141.865
306.8332, 2117.646
307.3153, 2072.322
307.7975, 2015.796
308.2796, 1965.861
308.7617, 1932.299
309.2438, 1906.179
309.7259, 1879.449
310.2080, 1851.514
310.6902, 1828.472
311.1723, 1822.019
311.6544, 1821.119
312.1365, 1810.873
312.6186, 1775.285
313.1007, 1736.192
313.5829, 1707.589
314.0650, 1690.187
314.5471, 1676.630
315.0292, 1666.592
315.5113, 1657.138
315.9934, 1644.873
316.4756, 1623.905
316.9577, 1603.875
317.4398, 1590.349
317.9219, 1583.413
318.4040, 1575.731
318.8861, 1561.950
319.3683, 1547.152
319.8504, 1536.171
320.3325, 1530.583
320.8146, 1528.752
321.2967, 1533.164
321.7788, 1543.549
322.2610, 1548.489
322.7431, 1538.624
323.2252, 1525.658
323.7073, 1518.915
324.1894, 1530.550
324.6715, 1537.533
325.1537, 1531.629
325.6358, 1513.284
326.1179, 1501.651
326.6000, 1505.890
327.0821, 1513.141
327.5642, 1514.606
328.0464, 1499.703
328.5285, 1490.280
329.0106, 1491.263
329.4927, 1501.682
329.9748, 1508.257
330.4569, 1511.131
330.9391, 1510.142
331.4212, 1505.005
331.9033, 1493.926
332.3854, 1481.344
332.8675, 1464.067
333.3496, 1444.282
333.8318, 1437.236
334.3139, 1450.480
334.7960, 1466.946
335.2781, 1476.100
335.7602, 1474.766
336.2423, 1474.038
336.7245, 1475.857
337.2066, 1478.741
337.6887, 1476.440
338.1708, 1466.889
338.6529, 1456.659
339.1350, 1448.514
339.6172, 1441.867
340.0993, 1441.260
340.5814, 1448.783
341.0635, 1461.198
341.5456, 1471.967
342.0277, 1481.866
342.5099, 1486.159
342.9920, 1476.828
343.4741, 1453.806
343.9562, 1447.579
344.4383, 1464.760
344.9204, 1491.374
345.4026, 1496.459
345.8847, 1470.531
346.3668, 1487.556
346.8489, 1498.096
347.3310, 1502.499
347.8131, 1482.385
348.2953, 1493.930
348.7774, 1492.787
349.2595, 1491.124
349.7416, 1507.125
350.2237, 1490.577
350.7058, 1506.297
351.1880, 1510.548
351.6701, 1524.092
352.1522, 1541.156
352.6343, 1553.994
353.1164, 1548.568
353.5985, 1531.773
354.0807, 1521.572
354.5628, 1532.528
355.0449, 1550.799
355.5270, 1560.089
356.0091, 1559.602
356.4912, 1557.416
356.9734, 1558.572
357.4555, 1562.162
357.9376, 1566.727
358.4197, 1574.193
358.9018, 1580.582
359.3839, 1581.613
359.8661, 1577.433
360.3482, 1575.267
360.8303, 1579.391
361.3124, 1587.171
361.7945, 1595.969
362.2766, 1611.159
362.7588, 1621.160
363.2409, 1616.142
363.7230, 1598.453
364.2051, 1589.428
364.6872, 1602.403
365.1693, 1622.349
365.6515, 1638.887
366.1336, 1647.787
366.6157, 1655.506
367.0978, 1661.049
367.5799, 1665.482
368.0620, 1673.919
368.5442, 1694.574
369.0263, 1713.674
369.5084, 1724.392
369.9905, 1712.859
370.4726, 1712.155
370.9547, 1727.219
371.4369, 1752.965
371.9190, 1775.113
372.4011, 1789.516
372.8832, 1805.463
373.3653, 1827.814
373.8474, 1862.157
374.3295, 1887.342
374.8116, 1899.907
375.2938, 1906.301
375.7759, 1917.912
376.2580, 1935.296
376.7401, 1956.428
377.2222, 1980.183
377.7043, 2006.776
378.1865, 2037.732
378.6686, 2074.054
379.1507, 2113.408
379.6328, 2151.843
380.1149, 2189.056
380.5970, 2233.168
381.0792, 2292.727
381.5613, 2361.915
382.0434, 2411.245
382.5255, 2436.860
383.0076, 2464.651
383.4897, 2524.501
383.9719, 2609.972
384.4540, 2693.972
384.9361, 2764.433
385.4182, 2831.499
385.9003, 2903.160
386.3824, 2981.464
386.8646, 3082.606
387.3467, 3250.385
387.8288, 3444.611
388.3109, 3589.396
388.7930, 3647.735
389.2751, 3682.241
389.7573, 3738.349
390.2394, 3816.536
390.7215, 3917.718
391.2036, 4055.833
391.6857, 4211.224
392.1678, 4367.444
392.6500, 4521.109
393.1321, 4675.598
393.6142, 4834.580
394.0963, 4993.678
394.5784, 5147.470
395.0605, 5284.795
395.5427, 5422.618
396.0248, 5570.070
396.5069, 5727.921
396.9890, 5892.452
397.4711, 6055.757
397.9532, 6226.832
398.4354, 6419.492
398.9175, 6659.308
399.3996, 6896.734
399.8817, 7115.614
400.3638, 7312.474
400.8459, 7526.933
401.3281, 7774.366
401.8102, 8029.375
402.2923, 8268.833
402.7744, 8494.700
403.2565, 8704.658
403.7386, 8898.738
404.2208, 9076.817
404.7029, 9236.909
405.1850, 9376.440
405.6671, 9504.095
406.1492, 9634.728
406.6313, 9781.136
407.1135, 9856.931
407.5956, 9846.381
408.0777, 9768.822
408.5598, 9663.527
409.0419, 9530.794
409.5240, 9377.421
410.0062, 9205.303
410.4883, 9014.722
410.9704, 8814.182
411.4525, 8599.908
411.9346, 8386.767
412.4167, 8190.937
412.8989, 8013.300
413.3810, 7849.348
413.8631, 7703.379
414.3452, 7569.618
414.8273, 7434.778
415.3094, 7297.676
415.7916, 7172.944
416.2737, 7080.695
416.7558, 7006.259
417.2379, 6924.355
417.7200, 6812.374
418.2021, 6703.111
418.6843, 6623.891
419.1664, 6570.744
419.6485, 6513.668
420.1306, 6429.450
420.6127, 6340.633
421.0948, 6266.081
421.5770, 6213.708
422.0591, 6169.042
422.5412, 6127.538
423.0233, 6089.889
423.5054, 6057.649
423.9875, 6031.065
424.4697, 6009.415
424.9518, 5991.701
425.4339, 5976.329
425.9160, 5968.465
426.3981, 5966.912
426.8802, 5973.050
427.3624, 5989.563
427.8445, 6023.851
428.3266, 6057.321
428.8087, 6086.556
429.2908, 6111.609
429.7729, 6129.770
430.2551, 6138.522
430.7372, 6144.523
431.2193, 6156.924
431.7014, 6179.017
432.1835, 6187.135
432.6656, 6175.306
433.1478, 6147.621
433.6299, 6113.750
434.1120, 6073.447
434.5941, 6034.589
435.0762, 6004.641
435.5583, 5981.191
436.0405, 5953.364
436.5226, 5919.839
437.0047, 5881.148
437.4868, 5841.881
437.9689, 5799.404
438.4510, 5744.624
438.9332, 5658.842
439.4153, 5564.649
439.8974, 5491.514
440.3795, 5442.396
440.8616, 5397.346
441.3438, 5341.987
441.8259, 5282.153
442.3080, 5224.896
442.7901, 5172.810
443.2722, 5123.871
443.7543, 5075.815
444.2365, 5029.454
444.7186, 4988.787
445.2007, 4953.851
445.6828, 4925.911
446.1649, 4906.038
446.6470, 4912.503
447.1292, 4902.873
447.6113, 4862.661
448.0934, 4802.917
448.5755, 4753.787
449.0576, 4726.700
449.5397, 4697.554
450.0219, 4657.349
450.5040, 4601.580
450.9861, 4552.783
451.4682, 4513.539
451.9503, 4477.878
452.4324, 4437.324
452.9146, 4389.205
453.3967, 4346.786
453.8788, 4315.951
454.3609, 4293.892
454.8430, 4269.775
455.3251, 4243.715
455.8072, 4213.643
456.2893, 4174.015
456.7715, 4127.314
457.2536, 4089.559
457.7357, 4065.967
458.2178, 4047.636
458.6999, 4025.786
459.1820, 3999.333
459.6642, 3962.450
460.1463, 3903.365
460.6284, 3835.892
461.1105, 3778.123
461.5926, 3732.644
462.0747, 3690.040
462.5569, 3647.036
463.0390, 3601.982
463.5211, 3553.260
464.0032, 3496.550
464.4853, 3439.384
464.9674, 3383.714
465.4496, 3330.565
465.9317, 3282.443
466.4138, 3240.252
466.8959, 3203.877
467.3780, 3172.843
467.8601, 3157.036
468.3423, 3134.651
468.8244, 3103.393
469.3065, 3065.245
469.7886, 3026.119
470.2707, 2982.937
470.7528, 2943.260
471.2350, 2910.137
471.7171, 2884.275
472.1992, 2860.384
472.6813, 2839.119
473.1634, 2818.716
473.6455, 2796.332
474.1277, 2771.531
474.6098, 2750.467
475.0919, 2735.375
475.5740, 2724.665
476.0561, 2712.876
476.5382, 2700.082
477.0204, 2691.573
477.5025, 2696.474
477.9846, 2708.122
478.4667, 2711.554
478.9488, 2703.080
479.4309, 2690.412
479.9131, 2677.354
480.3952, 2665.777
480.8773, 2659.938
481.3594, 2663.607
481.8415, 2672.517
482.3236, 2685.672
482.8058, 2703.060
483.2879, 2718.084
483.7700, 2734.333
484.2521, 2743.823
484.7342, 2739.425
485.2163, 2714.048
485.6985, 2680.828
486.1806, 2640.526
486.6627, 2593.448
487.1448, 2540.527
487.6269, 2468.633
488.1090, 2406.760
488.5912, 2371.774
489.0733, 2379.610
489.5554, 2357.648
490.0375, 2294.215
490.5196, 2215.066
491.0017, 2158.997
491.4839, 2128.990
491.9660, 2099.375
492.4481, 2063.432
492.9302, 2021.524
493.4123, 1973.768
493.8944, 1919.045
494.3766, 1870.074
494.8587, 1839.424
495.3408, 1822.090
495.8229, 1804.097
496.3050, 1782.521
496.7871, 1760.612
497.2693, 1741.133
497.7514, 1723.656
498.2335, 1707.664
498.7156, 1698.089
499.1977, 1686.023
499.6798, 1660.648
500.1620, 1620.356
500.6441, 1588.096
501.1262, 1579.603
501.6083, 1580.274
502.0904, 1577.165
502.5725, 1558.434
503.0547, 1546.457
503.5368, 1551.282
504.0189, 1567.036
504.5010, 1569.724
504.9831, 1551.175
505.4652, 1529.946
505.9474, 1512.492
506.4295, 1498.417
506.9116, 1491.103
507.3937, 1493.759
507.8758, 1498.188
508.3579, 1491.298
508.8401, 1471.489
509.3222, 1459.810
509.8043, 1465.571
510.2864, 1480.593
510.7685, 1478.545
511.2506, 1459.959
511.7328, 1444.587
512.2148, 1451.553
512.6970, 1470.696
513.1791, 1482.407
513.6612, 1482.831
514.1433, 1480.366
514.6254, 1482.128
515.1075, 1486.101
515.5897, 1488.653
516.0718, 1486.588
516.5539, 1484.200
517.0360, 1484.435
517.5181, 1487.193
518.0002, 1488.409
518.4824, 1482.318
518.9645, 1477.431
519.4466, 1479.194
519.9287, 1494.373
520.4108, 1508.094
520.8929, 1522.839
521.3751, 1535.071
521.8572, 1535.312
522.3393, 1513.898
522.8214, 1501.837
523.3035, 1513.658
523.7856, 1547.870
524.2678, 1563.655
524.7499, 1556.759
525.2320, 1547.471
525.7141, 1554.537
526.1962, 1576.261
526.6783, 1603.028
527.1605, 1635.543
527.6426, 1666.902
528.1247, 1682.779
528.6068, 1687.260
529.0889, 1696.753
529.5710, 1723.080
530.0532, 1756.749
530.5353, 1790.425
531.0174, 1823.846
531.4995, 1854.158
531.9816, 1873.104
532.4637, 1891.667
532.9459, 1920.718
533.4280, 1966.004
533.9101, 2018.197
534.3922, 2079.081
534.8743, 2146.191
535.3564, 2209.234
535.8386, 2265.162
536.3207, 2321.234
536.8028, 2380.595
537.2849, 2444.189
537.7670, 2503.147
538.2491, 2554.650
538.7313, 2607.436
539.2134, 2671.479
539.6955, 2746.857
540.1776, 2828.721
540.6597, 2917.684
541.1418, 3010.713
541.6240, 3098.237
542.1061, 3182.380
542.5882, 3274.998
543.0703, 3396.726
543.5524, 3526.301
544.0345, 3627.833
544.5167, 3697.280
544.9988, 3765.466
545.4809, 3860.724
545.9630, 3964.089
546.4451, 4054.767
546.9272, 4126.672
547.4094, 4183.094
547.8915, 4223.829
548.3736, 4249.413
548.8557, 4263.250
549.3378, 4244.103
549.8199, 4233.745
550.3021, 4252.227
550.7842, 4311.515
551.2663, 4344.220
551.7484, 4346.745
552.2305, 4327.250
552.7126, 4289.360
553.1948, 4229.667
553.6769, 4174.608
554.1590, 4130.136
554.6411, 4091.492
555.1232, 4039.033
555.6053, 3974.393
556.0875, 3932.865
556.5696, 3950.617
557.0517, 3999.675
557.5338, 4030.855
558.0159, 4041.368
558.4980, 4046.365
558.9802, 4057.929
559.4623, 4070.780
559.9444, 4078.453
560.4265, 4085.366
560.9086, 4079.115
561.3907, 4052.751
561.8729, 4009.258
562.3550, 3957.329
562.8371, 3902.537
563.3192, 3834.559
563.8013, 3749.022
564.2834, 3642.839
564.7656, 3537.271
565.2477, 3429.863
565.7298, 3325.927
566.2119, 3229.104
566.6940, 3139.646
567.1761, 3053.784
567.6583, 2970.102
568.1404, 2889.764
568.6225, 2811.957
569.1046, 2736.345
569.5867, 2662.927
570.0688, 2590.263
570.5510, 2519.872
571.0331, 2450.054
571.5152, 2382.338
571.9973, 2323.898
572.4794, 2287.248
572.9615, 2259.948
573.4437, 2229.947
573.9258, 2194.084
574.4079, 2155.487
574.8900, 2107.295
575.3721, 2057.983
575.8542, 2024.187
576.3364, 2017.639
576.8185, 2016.126
577.3006, 2013.919
577.7827, 2011.280
578.2648, 2017.779
578.7469, 2037.783
579.2291, 2058.959
579.7112, 2070.678
580.1933, 2071.783
580.6754, 2083.112
581.1575, 2107.485
581.6396, 2137.855
582.1218, 2162.159
582.6039, 2183.035
583.0860, 2213.091
583.5681, 2260.039
584.0502, 2315.400
584.5323, 2369.058
585.0145, 2421.823
585.4966, 2477.301
585.9787, 2541.926
586.4608, 2607.640
586.9429, 2667.166
587.4250, 2716.192
587.9072, 2771.667
588.3893, 2842.976
588.8714, 2920.380
589.3535, 2994.663
589.8356, 3076.793
590.3177, 3138.511
590.7999, 3172.688
591.2820, 3185.694
591.7641, 3197.579
592.2462, 3209.713
592.7283, 3215.643
593.2104, 3209.565
593.6926, 3193.664
594.1747, 3183.199
594.6568, 3178.159
595.1389, 3178.455
595.6210, 3183.945
596.1031, 3194.613
596.5853, 3210.930
597.0674, 3234.040
597.5495, 3260.311
598.0316, 3281.759
598.5137, 3304.781
598.9958, 3340.692
599.4780, 3408.896
599.9601, 3476.399
600.4422, 3525.262
600.9243, 3556.352
601.4064, 3605.026
601.8885, 3696.928
602.3707, 3783.448
602.8528, 3840.753
603.3349, 3861.564
603.8170, 3873.946
604.2991, 3876.332
604.7813, 3872.734
605.2634, 3870.118
605.7455, 3868.281
606.2276, 3854.641
606.7097, 3819.722
607.1918, 3779.169
607.6740, 3760.462
608.1561, 3760.451
608.6382, 3763.427
609.1203, 3756.471
609.6024, 3750.805
610.0845, 3756.880
610.5667, 3775.565
611.0488, 3801.819
611.5309, 3836.308
612.0130, 3876.043
612.4951, 3918.457
612.9772, 3959.196
613.4594, 4008.500
613.9415, 4063.016
614.4236, 4128.082
614.9057, 4213.493
615.3878, 4326.604
615.8699, 4443.680
616.3521, 4560.871
616.8342, 4677.089
617.3163, 4776.622
617.7984, 4857.990
618.2805, 4949.557
618.7626, 5090.201
619.2448, 5252.167
619.7269, 5369.561
620.2090, 5434.414
620.6911, 5484.707
621.1732, 5558.716
621.6553, 5634.404
622.1375, 5683.272
622.6196, 5678.674
623.1017, 5669.030
623.5838, 5669.736
624.0659, 5677.125
624.5480, 5681.716
625.0302, 5677.661
625.5123, 5676.576
625.9944, 5681.511
626.4765, 5692.262
626.9586, 5706.027
627.4407, 5724.290
627.9229, 5741.085
628.4050, 5758.541
628.8871, 5774.344
629.3692, 5759.359
629.8513, 5707.221
630.3334, 5641.366
630.8156, 5593.623
631.2977, 5550.882
631.7798, 5484.405
632.2619, 5380.738
632.7440, 5254.987
633.2261, 5120.312
633.7083, 4971.188
634.1904, 4797.583
634.6725, 4586.173
635.1546, 4356.207
635.6367, 4108.185
636.1188, 3837.988
636.6010, 3583.294
637.0831, 3338.922
637.5652, 3113.152
638.0473, 2915.523
638.5294, 2749.423
639.0115, 2589.860
639.4937, 2432.079
639.9758, 2288.431
640.4579, 2176.189
640.9400, 2091.630
641.4221, 2019.567
641.9042, 1959.975
642.3864, 1904.413
642.8685, 1839.015
643.3506, 1768.927
643.8327, 1712.940
644.3148, 1690.366
644.7969, 1675.255
645.2791, 1652.515
645.7612, 1620.825
646.2433, 1591.519
646.7254, 1563.956
647.2075, 1541.395
647.6896, 1527.400
648.1718, 1528.043
648.6539, 1519.192
649.1360, 1496.234
649.6181, 1470.197
650.1002, 1458.243
650.5823, 1459.550
651.0645, 1456.424
651.5466, 1442.230
652.0287, 1423.816
652.5108, 1411.313
652.9929, 1403.839
653.4750, 1398.714
653.9572, 1397.163
654.4393, 1395.260
654.9214, 1389.722
655.4035, 1380.476
655.8856, 1370.958
656.3677, 1359.393
656.8499, 1349.951
657.3320, 1345.607
657.8141, 1347.591
658.2962, 1351.975
658.7783, 1361.917
659.2604, 1370.536
659.7426, 1367.660
660.2246, 1352.096
660.7067, 1338.750
661.1888, 1330.088
661.6710, 1325.829
662.1531, 1327.384
662.6352, 1333.417
663.1173, 1338.248
663.5994, 1336.300
664.0815, 1333.750
664.5637, 1338.576
665.0458, 1349.563
665.5279, 1355.764
666.0100, 1349.637
666.4921, 1339.681
666.9742, 1329.591
667.4564, 1317.319
667.9385, 1312.761
668.4206, 1320.011
668.9027, 1330.891
669.3848, 1338.633
669.8669, 1343.498
670.3491, 1342.614
670.8312, 1333.665
671.3133, 1322.750
671.7954, 1321.933
672.2775, 1329.101
672.7596, 1333.155
673.2418, 1325.389
673.7239, 1316.494
674.2060, 1320.848
674.6881, 1334.794
675.1702, 1343.942
675.6523, 1336.226
676.1345, 1326.506
676.6166, 1322.775
677.0987, 1326.367
677.5808, 1330.146
678.0629, 1336.014
678.5450, 1339.628
679.0272, 1337.130
679.5093, 1326.522
679.9914, 1319.417
680.4735, 1316.292
680.9556, 1316.849
681.4377, 1323.425
681.9199, 1334.223
682.4020, 1340.051
682.8841, 1336.653
683.3662, 1330.509
683.8483, 1328.607
684.3304, 1329.450
684.8126, 1329.295
685.2947, 1324.622
685.7768, 1320.380
686.2589, 1318.229
686.7410, 1318.280
687.2231, 1321.516
687.7053, 1332.850
688.1874, 1341.205
688.6695, 1340.143
689.1516, 1328.230
689.6337, 1323.564
690.1158, 1327.241
690.5980, 1334.092
691.0801, 1340.526
691.5622, 1346.301
692.0443, 1349.378
692.5264, 1348.695
693.0085, 1348.549
693.4907, 1354.650
693.9728, 1363.667
694.4549, 1370.340
694.9370, 1373.226
695.4191, 1372.946
695.9012, 1366.000
696.3834, 1355.754
696.8655, 1352.516
697.3476, 1361.527
697.8297, 1370.160
698.3118, 1375.768
698.7939, 1378.300
699.2761, 1375.485
699.7582, 1366.048
700.2403, 1359.968
700.7224, 1368.009
701.2045, 1383.736
701.6866, 1387.353
702.1688, 1377.853
702.6509, 1369.909
703.1330, 1380.647
703.6151, 1395.966
704.0972, 1400.344
704.5793, 1385.813
705.0615, 1372.029
705.5436, 1363.608
706.0257, 1359.213
706.5078, 1357.180
706.9899, 1358.674
707.4720, 1360.272
707.9542, 1362.047
708.4363, 1363.298
708.9184, 1361.686
709.4005, 1357.225
709.8826, 1353.916
710.3647, 1353.023
710.8469, 1354.486
711.3290, 1358.527
711.8111, 1364.933
712.2932, 1372.635
712.7753, 1384.327
713.2574, 1394.525
713.7396, 1398.104
714.2217, 1394.135
714.7038, 1393.128
715.1859, 1403.812
715.6680, 1412.226
716.1501, 1409.288
716.6323, 1388.625
717.1144, 1381.297
717.5965, 1390.705
718.0786, 1405.218
718.5607, 1414.555
719.0428, 1418.421
719.5250, 1413.708
720.0071, 1397.067
720.4892, 1380.297
720.9713, 1377.515
721.4534, 1383.610
721.9355, 1389.438
722.4177, 1389.135
722.8998, 1390.649
723.3819, 1400.028
723.8640, 1413.903
724.3461, 1420.766
724.8282, 1415.027
725.3104, 1410.666
725.7925, 1412.989
726.2746, 1420.229
726.7567, 1418.347
727.2388, 1406.322
727.7209, 1395.625
728.2031, 1395.505
728.6852, 1401.295
729.1673, 1400.640
729.6494, 1393.398
730.1315, 1390.270
730.6136, 1405.108
731.0958, 1423.521
731.5779, 1432.141
732.0600, 1424.684
732.5421, 1420.299
733.0242, 1429.182
733.5063, 1438.126
733.9885, 1434.235
734.4706, 1410.293
734.9527, 1399.353
735.4348, 1408.195
735.9169, 1423.318
736.3990, 1421.078
736.8812, 1404.878
737.3633, 1393.907
737.8454, 1394.630
738.3275, 1402.211
738.8096, 1418.494
739.2917, 1437.620
739.7739, 1445.732
740.2560, 1426.926
740.7381, 1406.501
741.2202, 1391.161
741.7023, 1381.954
742.1844, 1383.525
742.6666, 1403.657
743.1487, 1420.433
743.6308, 1423.863
744.1129, 1415.521
744.5950, 1412.164
745.0771, 1414.043
745.5593, 1416.540
746.0414, 1416.539
746.5235, 1414.687
747.0056, 1410.412
747.4877, 1403.340
747.9698, 1400.556
748.4520, 1415.440
748.9341, 1430.752
749.4162, 1430.475
749.8983, 1397.333
750.3804, 1379.567
750.8625, 1384.690
751.3447, 1399.849
751.8268, 1413.976
752.3089, 1427.955
752.7910, 1430.774
753.2731, 1417.261
753.7552, 1400.904
754.2374, 1405.381
754.7195, 1424.057
755.2016, 1438.083
755.6837, 1438.585
756.1658, 1434.537
756.6479, 1431.086
757.1301, 1427.811
757.6122, 1423.899
758.0943, 1417.864
758.5764, 1412.422
759.0585, 1406.383
759.5406, 1401.217
760.0228, 1406.152
760.5049, 1424.763
760.9870, 1439.382
761.4691, 1440.533
761.9512, 1431.834
762.4333, 1422.302
762.9155, 1412.434
763.3976, 1406.977
763.8797, 1415.246
764.3618, 1425.524
764.8439, 1423.087
765.3260, 1405.495
765.8082, 1399.712
766.2903, 1429.389
766.7724, 1460.235
767.2545, 1471.996
767.7366, 1459.521
768.2188, 1445.744
768.7009, 1428.290
769.1830, 1415.254
769.6651, 1417.609
770.1472, 1432.011
770.6293, 1441.505
771.1115, 1442.910
771.5936, 1444.052
772.0757, 1458.176
772.5578, 1474.745
773.0399, 1478.269
773.5220, 1451.311
774.0042, 1431.613
774.4863, 1433.064
774.9684, 1445.942
775.4505, 1456.509
775.9326, 1465.414
776.4147, 1469.918
776.8969, 1468.490
777.3790, 1463.664
777.8611, 1460.607
778.3432, 1459.042
778.8253, 1457.018
779.3074, 1451.139
779.7896, 1447.194
780.2717, 1453.826
780.7538, 1467.781
781.2359, 1479.373
781.7180, 1485.624
782.2001, 1488.395
782.6823, 1486.031
783.1644, 1480.008
783.6465, 1478.962
784.1286, 1485.767
784.6107, 1490.133
785.0928, 1485.399
785.5750, 1474.585
786.0571, 1473.152
786.5392, 1480.634
787.0213, 1487.920
787.5034, 1487.765
787.9855, 1484.697
788.4677, 1482.191
788.9498, 1480.545
789.4319, 1482.932
789.9140, 1496.662
790.3961, 1509.678
790.8782, 1514.591
791.3604, 1509.532
791.8425, 1505.689
792.3246, 1503.278
792.8067, 1501.769
793.2888, 1500.862
793.7709, 1500.514
794.2531, 1500.376
794.7352, 1500.320
795.2173, 1501.227
795.6994, 1506.158
796.1815, 1511.406
796.6636, 1511.975
797.1458, 1503.693
797.6279, 1497.994
798.1100, 1499.492
798.5921, 1503.774
799.0742, 1506.511
799.5563, 1506.938
800.0385, 1509.026
800.5206, 1514.398
801.0027, 1518.861
801.4848, 1513.950
801.9669, 1502.560
802.4490, 1495.047
802.9312, 1494.684
803.4133, 1498.406
803.8954, 1508.785
804.3775, 1520.292
804.8596, 1524.199
805.3417, 1507.496
805.8239, 1496.187
806.3060, 1497.564
806.7881, 1505.285
807.2702, 1505.538
807.7523, 1496.836
808.2344, 1488.893
808.7166, 1482.122
809.1987, 1480.420
809.6808, 1497.747
810.1629, 1527.936
810.6450, 1549.580
811.1271, 1548.371
811.6093, 1538.746
812.0914, 1523.752
812.5735, 1506.409
813.0556, 1498.157
813.5377, 1510.705
814.0198, 1518.980
814.5020, 1514.114
814.9841, 1500.077
815.4662, 1496.610
815.9483, 1504.195
816.4304, 1513.691
816.9125, 1522.566
817.3947, 1529.280
817.8768, 1529.936
818.3589, 1525.483
818.8410, 1521.103
819.3231, 1518.962
819.8052, 1518.032
820.2874, 1518.497
820.7695, 1520.349
821.2516, 1519.900
821.7337, 1515.056
822.2158, 1511.734
822.6979, 1512.493
823.1801, 1517.185
823.6622, 1526.017
824.1443, 1538.982
824.6263, 1550.669
825.1085, 1557.107
825.5906, 1560.349
826.0727, 1562.261
826.5548, 1563.032
827.0369, 1563.150
827.5190, 1562.826
828.0012, 1561.804
828.4833, 1558.480
828.9654, 1551.455
829.4475, 1555.605
829.9296, 1574.574
830.4117, 1592.805
830.8939, 1596.914
831.3760, 1590.709
831.8581, 1584.305
832.3402, 1578.294
832.8223, 1576.789
833.3044, 1588.339
833.7866, 1602.154
834.2687, 1609.220
834.7508, 1606.999
835.2329, 1602.331
835.7150, 1592.783
836.1971, 1584.635
836.6793, 1582.061
837.1614, 1585.196
837.6435, 1595.042
838.1256, 1613.450
838.6077, 1626.060
839.0898, 1609.933
839.5720, 1581.821
840.0541, 1570.347
840.5362, 1583.167
841.0183, 1595.361
841.5004, 1588.557
841.9825, 1580.166
842.4647, 1586.706
842.9468, 1620.336
843.4289, 1636.426
843.9110, 1630.209
844.3931, 1616.282
844.8752, 1608.503
845.3574, 1606.077
845.8395, 1603.661
846.3216, 1599.918
846.8037, 1601.079
847.2858, 1619.430
847.7679, 1642.402
848.2501, 1654.884
848.7322, 1648.111
849.2143, 1644.289
849.6964, 1647.403
850.1785, 1653.494
850.6606, 1659.489
851.1428, 1665.496
851.6249, 1670.049
852.1070, 1672.583
852.5891, 1675.493
853.0712, 1682.637
853.5533, 1691.800
854.0355, 1699.206
854.5176, 1704.403
854.9997, 1706.464
855.4818, 1703.333
855.9639, 1697.693
856.4460, 1692.222
856.9282, 1686.425
857.4103, 1682.023
857.8924, 1678.354
858.3745, 1677.510
858.8566, 1683.912
859.3387, 1695.797
859.8209, 1705.053
860.3030, 1710.317
860.7851, 1712.804
861.2672, 1710.307
861.7493, 1707.183
862.2314, 1708.483
862.7136, 1717.379
863.1957, 1727.407
863.6778, 1743.426
864.1599, 1755.154
864.6420, 1747.361
865.1241, 1717.809
865.6063, 1707.927
866.0884, 1724.694
866.5705, 1749.698
867.0526, 1767.460
867.5347, 1777.953
868.0168, 1780.329
868.4990, 1771.879
868.9811, 1762.827
869.4632, 1754.561
869.9453, 1749.089
870.4274, 1748.087
870.9095, 1752.360
871.3917, 1759.538
871.8738, 1770.582
872.3559, 1781.570
872.8380, 1786.442
873.3201, 1787.654
873.8022, 1793.605
874.2844, 1806.694
874.7665, 1818.645
875.2486, 1823.234
875.7307, 1823.803
876.2128, 1823.402
876.6949, 1820.662
877.1771, 1820.409
877.6592, 1822.228
878.1413, 1827.075
878.6234, 1837.357
879.1055, 1852.506
879.5876, 1864.630
880.0698, 1872.880
880.5519, 1880.109
881.0340, 1888.581
881.5161, 1897.737
881.9982, 1908.022
882.4803, 1921.858
882.9625, 1928.566
883.4446, 1916.437
883.9267, 1905.514
884.4088, 1912.460
884.8909, 1941.229
885.3730, 1949.578
885.8552, 1931.724
886.3373, 1924.800
886.8194, 1974.154
887.3015, 2052.864
887.7836, 2126.507
888.2657, 2192.802
888.7479, 2229.836
889.2300, 2211.226
889.7121, 2171.729
890.1942, 2129.477
890.6763, 2080.060
891.1584, 2061.731
891.6406, 2080.582
892.1227, 2107.653
892.6048, 2119.906
893.0869, 2122.845
893.5690, 2130.586
894.0511, 2144.017
894.5333, 2160.099
895.0154, 2181.146
895.4975, 2201.196
895.9796, 2216.315
896.4617, 2225.751
896.9438, 2231.760
897.4260, 2228.457
897.9081, 2234.440
898.3902, 2267.501
898.8723, 2319.758
899.3544, 2350.524
899.8365, 2361.000
900.3187, 2370.393
900.8008, 2394.823
901.2829, 2420.771
901.7650, 2433.644
902.2471, 2433.904
902.7292, 2445.449
903.2114, 2472.923
903.6935, 2507.861
904.1756, 2549.351
904.6577, 2595.678
905.1398, 2633.279
905.6219, 2662.801
906.1041, 2696.929
906.5862, 2742.670
907.0683, 2796.641
907.5504, 2852.368
908.0325, 2912.883
908.5146, 2988.659
908.9968, 3096.800
909.4789, 3203.221
909.9610, 3294.798
910.4431, 3381.408
910.9252, 3502.560
911.4073, 3658.606
911.8895, 3818.480
912.3716, 3963.190
912.8537, 4114.691
913.3358, 4304.039
913.8179, 4519.263
914.3000, 4731.087
914.7822, 4888.314
915.2643, 5092.741
915.7464, 5400.527
916.2285, 5754.004
916.7106, 6033.865
917.1927, 6226.518
917.6749, 6458.384
918.1570, 6760.406
918.6391, 7106.360
919.1212, 7479.610
919.6033, 7866.664
920.0854, 8243.022
920.5676, 8609.733
921.0497, 8950.897
921.5318, 9261.417
922.0139, 9545.399
922.4960, 9820.495
922.9781, 10102.80
923.4603, 10297.23
923.9424, 10394.14
924.4245, 10405.13
924.9066, 10338.82
925.3887, 10198.54
925.8708, 9988.339
926.3530, 9706.038
926.8351, 9362.782
927.3172, 8934.466
927.7993, 8459.145
928.2814, 7975.035
928.7635, 7471.173
929.2457, 6982.771
929.7278, 6510.102
930.2099, 6069.578
930.6920, 5676.871
931.1741, 5329.159
931.6563, 5009.524
932.1384, 4718.565
932.6205, 4470.251
933.1026, 4279.537
933.5847, 4125.012
934.0668, 3995.739
934.5490, 3891.224
935.0311, 3799.272
935.5132, 3718.249
935.9953, 3658.495
936.4774, 3634.460
936.9595, 3632.784
937.4417, 3617.452
937.9238, 3594.039
938.4059, 3590.448
938.8880, 3633.160
939.3701, 3687.752
939.8522, 3735.765
940.3344, 3780.744
940.8165, 3838.642
941.2986, 3909.586
941.7807, 3992.189
942.2628, 4088.468
942.7449, 4194.915
943.2271, 4298.381
943.7092, 4405.043
944.1913, 4532.709
944.6734, 4677.996
945.1555, 4857.225
945.6376, 5078.554
946.1198, 5338.619
946.6019, 5629.062
947.0840, 5939.223
947.5661, 6301.966
948.0482, 6719.790
948.5303, 7195.429
949.0125, 7735.341
949.4946, 8335.480
949.9767, 8986.938
950.4588, 9689.916
950.9409, 10440.50
951.4230, 11227.43
951.9052, 12086.52
952.3873, 13045.61
952.8694, 14105.72
953.3515, 15260.43
953.8336, 16499.87
954.3157, 17837.64
954.7979, 19238.63
955.2800, 20744.26
955.7621, 22418.77
956.2442, 24267.29
956.7263, 26282.07
957.2084, 28501.33
957.6906, 30851.29
958.1727, 33332.88
958.6548, 35897.76
959.1369, 38494.01
959.6190, 41134.79
960.1011, 43724.34
960.5833, 46292.07
961.0654, 48722.80
961.5475, 50923.86
962.0296, 52854.89
962.5117, 54450.13
962.9938, 55499.71
963.4760, 56378.63
963.9581, 57199.31
964.4402, 57939.46
964.9223, 58551.72
965.4044, 59035.97
965.8865, 59432.86
966.3687, 59794.96
966.8508, 59993.89
967.3329, 59873.25
967.8150, 59470.98
968.2971, 58849.37
968.7792, 58002.80
969.2614, 56966.17
969.7435, 55729.65
970.2256, 54329.96
970.7077, 52774.85
971.1898, 51076.93
971.6719, 49227.11
972.1541, 47232.42
972.6362, 45090.16
973.1183, 42778.45
973.6004, 40337.67
974.0825, 37765.67
974.5646, 35064.86
975.0468, 32334.27
975.5289, 29466.99
976.0110, 26683.24
976.4931, 24057.57
976.9752, 21571.76
977.4573, 19351.33
977.9395, 17385.79
978.4216, 15667.70
978.9037, 14215.58
979.3858, 12967.42
979.8679, 11870.74
980.3500, 10928.55
980.8322, 10167.64
981.3143, 9621.438
981.7964, 9192.925
982.2785, 8877.340
982.7606, 8654.586
983.2427, 8491.222
983.7249, 8385.146
984.2070, 8327.316
984.6891, 8325.454
985.1712, 8350.188
985.6533, 8384.606
986.1354, 8432.575
986.6176, 8501.638
987.0997, 8607.148
987.5818, 8699.282
988.0639, 8780.165
988.5460, 8841.262
989.0281, 8866.564
989.5102, 8867.709
989.9923, 8884.291
990.4744, 8919.920
990.9565, 8919.896
991.4387, 8838.310
991.9208, 8725.522
992.4029, 8603.375
992.8850, 8473.846
993.3671, 8361.317
993.8492, 8270.416
994.3314, 8167.140
994.8135, 8030.664
995.2956, 7872.905
995.7777, 7716.334
996.2598, 7557.398
996.7419, 7383.597
997.2241, 7173.893
997.7062, 6968.272
998.1883, 6780.688
998.6704, 6601.843
999.1525, 6414.435
999.6346, 6221.304
1000.117, 6035.118
1000.599, 5859.050
1001.081, 5686.560
1001.563, 5498.253
1002.045, 5313.383
1002.527, 5154.606
1003.009, 5034.874
1003.492, 4914.855
1003.974, 4784.450
1004.456, 4660.183
1004.938, 4550.818
1005.420, 4456.813
1005.902, 4376.304
1006.384, 4309.340
1006.866, 4251.602
1007.349, 4207.708
1007.831, 4165.500
1008.313, 4108.148
1008.795, 4042.210
1009.277, 4008.322
1009.759, 4016.730
1010.241, 4029.809
1010.723, 4038.446
1011.205, 4043.981
1011.688, 4043.639
1012.170, 4042.506
1012.652, 4054.296
1013.134, 4095.045
1013.616, 4130.112
1014.098, 4140.666
1014.580, 4143.613
1015.062, 4157.159
1015.544, 4183.446
1016.027, 4203.670
1016.509, 4216.785
1016.991, 4225.677
1017.473, 4229.770
1017.955, 4233.005
1018.437, 4237.529
1018.919, 4243.523
1019.401, 4262.286
1019.884, 4308.966
1020.366, 4350.207
1020.848, 4372.052
1021.330, 4380.042
1021.812, 4397.201
1022.294, 4421.645
1022.776, 4441.048
1023.258, 4439.535
1023.740, 4443.193
1024.223, 4478.897
1024.705, 4529.193
1025.187, 4560.949
1025.669, 4566.113
1026.151, 4571.795
1026.633, 4582.125
1027.115, 4588.456
1027.597, 4574.371
1028.080, 4549.940
1028.562, 4536.152
1029.044, 4536.312
1029.526, 4542.630
1030.008, 4565.219
1030.490, 4579.517
1030.972, 4569.198
1031.454, 4536.455
1031.937, 4519.070
1032.419, 4517.336
1032.901, 4519.391
1033.383, 4529.644
1033.865, 4531.094
1034.347, 4497.941
1034.829, 4442.714
1035.311, 4397.745
1035.793, 4378.035
1036.276, 4355.397
1036.758, 4329.475
1037.240, 4296.065
1037.722, 4245.444
1038.204, 4182.187
1038.686, 4122.893
1039.168, 4069.380
1039.650, 4023.528
1040.132, 3991.760
1040.615, 3963.355
1041.097, 3928.080
1041.579, 3885.448
1042.061, 3852.086
1042.543, 3829.302
1043.025, 3807.795
1043.507, 3782.824
1043.989, 3755.808
1044.472, 3720.013
1044.954, 3682.783
1045.436, 3665.589
1045.918, 3703.643
1046.400, 3722.620
1046.882, 3703.147
1047.364, 3668.849
1047.846, 3659.595
1048.328, 3671.064
1048.811, 3679.602
1049.293, 3680.987
1049.775, 3680.455
1050.257, 3681.255
1050.739, 3682.252
1051.221, 3680.441
1051.703, 3674.392
1052.185, 3681.851
1052.667, 3705.570
1053.150, 3729.967
1053.632, 3748.084
1054.114, 3759.699
1054.596, 3759.563
1055.078, 3752.127
1055.560, 3751.363
1056.042, 3765.846
1056.524, 3783.419
1057.007, 3802.506
1057.489, 3822.482
1057.971, 3843.872
1058.453, 3866.003
1058.935, 3882.114
1059.417, 3890.425
1059.899, 3897.015
1060.381, 3898.789
1060.864, 3906.378
1061.346, 3934.308
1061.828, 3986.507
1062.310, 4017.497
1062.792, 4023.124
1063.274, 4025.014
1063.756, 4032.959
1064.238, 4045.273
1064.720, 4066.069
1065.203, 4088.767
1065.685, 4095.239
1066.167, 4048.919
1066.649, 4027.200
1067.131, 4051.873
1067.613, 4094.867
1068.095, 4115.163
1068.577, 4117.033
1069.059, 4136.788
1069.542, 4180.649
1070.024, 4221.900
1070.506, 4227.178
1070.988, 4233.092
1071.470, 4269.417
1071.952, 4336.752
1072.434, 4416.191
1072.916, 4510.459
1073.398, 4600.365
1073.881, 4673.652
1074.363, 4739.421
1074.845, 4803.136
1075.327, 4869.985
1075.809, 4949.284
1076.291, 5059.075
1076.773, 5160.979
1077.255, 5249.822
1077.738, 5332.844
1078.220, 5416.050
1078.702, 5501.180
1079.184, 5597.348
1079.666, 5705.812
1080.148, 5808.906
1080.630, 5879.281
1081.112, 5955.014
1081.594, 6062.086
1082.077, 6196.586
1082.559, 6349.996
1083.041, 6527.905
1083.523, 6686.141
1084.005, 6804.361
1084.487, 6910.094
1084.969, 7036.670
1085.451, 7172.998
1085.933, 7299.844
1086.416, 7409.672
1086.898, 7517.386
1087.380, 7631.174
1087.862, 7727.857
1088.344, 7792.985
1088.826, 7825.297
1089.308, 7813.926
1089.790, 7763.188
1090.273, 7706.019
1090.755, 7666.293
1091.237, 7615.003
1091.719, 7533.358
1092.201, 7435.870
1092.683, 7358.888
1093.165, 7302.086
1093.647, 7211.649
1094.130, 7068.554
1094.612, 6922.408
1095.094, 6824.987
1095.576, 6743.380
1096.058, 6641.891
1096.540, 6509.580
1097.022, 6400.367
1097.504, 6319.612
1097.986, 6245.313
1098.469, 6162.515
1098.951, 6079.895
1099.433, 6018.259
1099.915, 5971.209
1100.397, 5920.387
1100.879, 5869.978
1101.361, 5797.258
1101.843, 5686.308
1102.325, 5569.332
1102.808, 5491.125
1103.290, 5444.292
1103.772, 5391.428
1104.254, 5328.861
1104.736, 5260.711
1105.218, 5180.557
1105.700, 5104.343
1106.182, 5041.691
1106.665, 4990.842
1107.147, 4946.422
1107.629, 4909.443
1108.111, 4856.118
1108.593, 4776.384
1109.075, 4682.058
1109.557, 4576.770
1110.039, 4468.822
1110.521, 4374.052
1111.004, 4302.360
1111.486, 4218.363
1111.968, 4116.237
1112.450, 4017.375
1112.932, 3939.408
1113.414, 3874.969
1113.896, 3815.258
1114.378, 3758.754
1114.860, 3696.294
1115.343, 3614.821
1115.825, 3541.089
1116.307, 3482.240
1116.789, 3430.799
1117.271, 3372.161
1117.753, 3308.630
1118.235, 3252.175
1118.717, 3203.906
1119.200, 3162.920
1119.682, 3138.697
1120.164, 3112.127
1120.646, 3067.730
1121.128, 3007.606
1121.610, 2962.374
1122.092, 2932.451
1122.574, 2909.622
1123.057, 2893.372
1123.539, 2878.429
1124.021, 2862.829
1124.503, 2844.331
1124.985, 2818.431
1125.467, 2782.042
1125.949, 2744.759
1126.431, 2703.729
1126.913, 2674.261
1127.396, 2682.836
1127.878, 2703.931
1128.360, 2696.961
1128.842, 2664.338
1129.324, 2631.826
1129.806, 2599.869
1130.288, 2579.538
1130.770, 2575.370
1131.252, 2580.264
1131.735, 2586.509
1132.217, 2591.299
1132.699, 2584.101
1133.181, 2560.440
1133.663, 2540.879
1134.145, 2539.252
1134.627, 2539.628
1135.109, 2533.602
1135.592, 2522.178
1136.074, 2509.247
1136.556, 2496.056
1137.038, 2492.160
1137.520, 2515.059
1138.002, 2530.158
1138.484, 2504.790
1138.966, 2465.221
1139.448, 2446.037
1139.931, 2450.799
1140.413, 2460.840
1140.895, 2476.637
1141.377, 2486.926
1141.859, 2480.109
1142.341, 2465.837
1142.823, 2448.858
1143.305, 2431.781
1143.787, 2425.969
1144.270, 2437.501
1144.752, 2441.914
1145.234, 2433.321
1145.716, 2419.855
1146.198, 2410.751
1146.680, 2404.864
1147.162, 2398.237
1147.644, 2388.590
1148.127, 2392.708
1148.609, 2407.510
1149.091, 2448.100
1149.573, 2545.341
1150.055, 2652.174
1150.537, 2623.292
1151.019, 2499.147
1151.501, 2391.675
1151.984, 2336.763
1152.466, 2308.370
1152.948, 2315.353
1153.430, 2328.625
1153.912, 2323.905
1154.394, 2303.642
1154.876, 2294.397
1155.358, 2294.846
1155.840, 2289.584
1156.323, 2260.823
1156.805, 2233.614
1157.287, 2222.285
1157.769, 2219.503
1158.251, 2214.103
1158.733, 2206.153
1159.215, 2200.301
1159.697, 2197.338
1160.179, 2194.974
1160.662, 2190.407
1161.144, 2186.472
1161.626, 2187.407
1162.108, 2192.025
1162.590, 2189.604
1163.072, 2179.579
1163.554, 2166.991
1164.036, 2152.201
1164.519, 2138.361
1165.001, 2129.828
1165.483, 2124.094
1165.965, 2117.718
1166.447, 2108.747
1166.929, 2106.724
1167.411, 2114.867
1167.893, 2116.496
1168.375, 2090.851
1168.858, 2059.828
1169.340, 2065.877
1169.822, 2093.811
1170.304, 2107.785
1170.786, 2086.173
1171.268, 2069.081
1171.750, 2057.671
1172.232, 2052.832
1172.714, 2061.238
1173.197, 2074.580
1173.679, 2072.815
1174.161, 2057.193
1174.643, 2047.490
1175.125, 2064.173
1175.607, 2067.181
1176.089, 2041.138
1176.571, 2007.406
1177.054, 2008.536
1177.536, 2032.068
1178.018, 2043.022
1178.500, 2033.521
1178.982, 2024.822
1179.464, 2026.367
1179.946, 2030.354
1180.428, 2033.387
1180.911, 2036.336
1181.393, 2046.182
1181.875, 2059.680
1182.357, 2061.279
1182.839, 2038.038
1183.321, 2018.287
1183.803, 2018.007
1184.285, 2024.596
1184.767, 2028.827
1185.250, 2030.872
1185.732, 2037.156
1186.214, 2046.958
1186.696, 2053.445
1187.178, 2047.918
1187.660, 2043.116
1188.142, 2048.776
1188.624, 2057.493
1189.106, 2057.242
1189.589, 2047.213
1190.071, 2048.987
1190.553, 2064.500
1191.035, 2074.736
1191.517, 2052.997
1191.999, 2032.420
1192.481, 2043.900
1192.963, 2075.180
1193.446, 2084.575
1193.928, 2069.944
1194.410, 2060.629
1194.892, 2063.301
1195.374, 2066.150
1195.856, 2055.099
1196.338, 2041.388
1196.820, 2036.547
1197.302, 2040.708
1197.785, 2040.568
1198.267, 2035.510
1198.749, 2031.149
1199.231, 2028.473
1199.713, 2029.374
1200.195, 2039.904
1200.677, 2053.118
1201.159, 2060.481
1201.641, 2061.078
1202.124, 2054.562
1202.606, 2039.469
1203.088, 2027.091
1203.570, 2026.435
1204.052, 2029.629
1204.534, 2025.357
1205.016, 2018.387
1205.498, 2018.886
1205.981, 2030.641
1206.463, 2043.315
1206.945, 2057.158
1207.427, 2069.175
1207.909, 2078.129
1208.391, 2082.755
1208.873, 2077.062
1209.355, 2064.718
1209.838, 2062.836
1210.320, 2082.671
1210.802, 2085.594
1211.284, 2062.991
1211.766, 2035.666
1212.248, 2025.008
1212.730, 2025.368
1213.212, 2031.638
1213.694, 2042.799
1214.177, 2049.671
1214.659, 2050.488
1215.141, 2049.553
1215.623, 2046.656
1216.105, 2045.560
1216.587, 2057.372
1217.069, 2072.113
1217.551, 2072.530
1218.033, 2052.405
1218.516, 2043.474
1218.998, 2052.574
1219.480, 2060.087
1219.962, 2056.016
1220.444, 2048.275
1220.926, 2053.291
1221.408, 2064.218
1221.890, 2067.808
1222.373, 2053.865
1222.855, 2052.741
1223.337, 2071.549
1223.819, 2087.511
1224.301, 2084.703
1224.783, 2070.866
1225.265, 2056.891
1225.747, 2043.941
1226.229, 2034.758
1226.712, 2031.962
1227.194, 2030.070
1227.676, 2027.751
1228.158, 2029.454
1228.640, 2043.154
1229.122, 2061.297
1229.604, 2073.202
1230.086, 2077.829
1230.568, 2072.307
1231.051, 2047.465
1231.533, 2026.222
1232.015, 2009.626
1232.497, 2000.386
1232.979, 2007.340
1233.461, 2020.986
1233.943, 2024.886
1234.425, 2018.802
1234.908, 2015.615
1235.390, 2019.283
1235.872, 2022.435
1236.354, 2024.223
1236.836, 2023.401
1237.318, 2012.956
1237.800, 2001.093
1238.282, 2004.788
1238.764, 2027.592
1239.247, 2035.590
1239.729, 2019.448
1240.211, 2005.275
1240.693, 2001.348
1241.175, 2003.962
1241.657, 2008.107
1242.139, 2014.284
1242.621, 2025.406
1243.104, 2045.438
1243.586, 2051.027
1244.068, 2036.208
1244.550, 2023.603
1245.032, 2025.325
1245.514, 2033.321
1245.996, 2036.631
1246.478, 2036.329
1246.960, 2034.183
1247.443, 2031.525
1247.925, 2021.962
1248.407, 2001.991
1248.889, 1988.867
1249.371, 2001.631
1249.853, 2021.365
1250.335, 2018.548
1250.817, 2003.379
1251.299, 1997.796
1251.782, 2009.883
1252.264, 2020.263
1252.746, 2029.543
1253.228, 2031.902
1253.710, 2015.871
1254.192, 1996.202
1254.674, 1990.046
1255.156, 1993.820
1255.639, 1995.816
1256.121, 1994.667
1256.603, 1993.913
1257.085, 1994.105
1257.567, 1993.163
1258.049, 1986.086
1258.531, 1995.789
1259.013, 2001.372
1259.495, 2003.055
1259.978, 1989.161
1260.460, 1995.382
1260.942, 1993.541
1261.424, 1991.370
1261.906, 2000.422
1262.388, 1988.793
1262.870, 1997.667
1263.352, 1998.357
1263.834, 1972.489
1264.317, 1990.270
1264.799, 1996.942
1265.281, 2011.292
1265.763, 1978.899
1266.245, 1990.968
1266.727, 1977.830
1267.209, 1959.229
1267.691, 1949.539
1268.174, 1948.415
1268.656, 1957.040
1269.138, 1974.647
1269.620, 1986.630
1270.102, 1988.029
1270.584, 1986.086
1271.066, 1988.613
1271.548, 1986.670
1272.031, 1971.273
1272.513, 1946.214
1272.995, 1938.151
1273.477, 1944.471
1273.959, 1947.835
1274.441, 1941.495
1274.923, 1932.389
1275.405, 1915.426
1275.887, 1905.082
1276.370, 1906.792
1276.852, 1922.945
1277.334, 1980.206
1277.816, 2067.113
1278.298, 2137.098
1278.780, 2184.090
1279.262, 2185.598
1279.744, 2106.836
1280.226, 2021.996
1280.709, 1985.525
1281.191, 1984.981
1281.673, 1973.485
1282.155, 1954.866
1282.637, 1941.835
1283.119, 1941.800
1283.601, 1944.787
1284.083, 1950.465
1284.566, 1956.894
1285.048, 1965.894
1285.530, 1972.947
1286.012, 1965.117
1286.494, 1946.745
1286.976, 1932.936
1287.458, 1931.041
1287.940, 1927.172
1288.422, 1918.759
1288.905, 1914.188
1289.387, 1926.828
1289.869, 1944.243
1290.351, 1951.618
1290.833, 1949.140
1291.315, 1938.450
1291.797, 1913.354
1292.279, 1904.865
1292.761, 1918.368
1293.244, 1935.298
1293.726, 1939.883
##END=



