##NAMES=Bobdownsite
##RRUFFID=R100215
##IDEAL CHEMISTRY=Ca_9_Mg(PO_4_)_6_(PO_3_F)
##LOCALITY=Tip Top mine, Custer County, South Dakota, USA
##OWNER=RRUFF
##SOURCE=Tom Loomis, Dakota Matrix Minerals 
##DESCRIPTION=Crust of colorless crystals on quartz
##STATUS=The identification of this mineral is confirmed by single-crystal X-ray diffraction and chemical analysis.
##URL=rruff.info/R100215
##MEASURED CHEMISTRY=Ca_9.00_(Mg_0.89_Na_0.07_Sr_0.01_)_Σ=0.97_(P_1.00_O_4_)_6_(P_0.88_O_3_(F_0.74_(OH)_0.26_)_Σ=1.00_)
169.6203, 525.2040
170.1024, 523.8339
170.5845, 526.1483
171.0666, 530.1774
171.5487, 532.7078
172.0309, 533.8771
172.5130, 535.5627
172.9951, 539.4684
173.4772, 544.6627
173.9593, 549.7150
174.4414, 554.2664
174.9236, 558.2862
175.4057, 561.5515
175.8878, 564.0918
176.3699, 566.2947
176.8520, 568.3141
177.3341, 570.2479
177.8163, 572.3286
178.2984, 574.8049
178.7805, 577.4001
179.2626, 579.7616
179.7447, 581.8484
180.2268, 583.6249
180.7090, 585.1202
181.1911, 586.2782
181.6732, 586.8824
182.1553, 586.4485
182.6374, 585.4485
183.1195, 584.7593
183.6017, 584.3476
184.0838, 584.4944
184.5659, 585.8171
185.0480, 588.1035
185.5301, 590.3644
186.0123, 591.7816
186.4944, 592.7577
186.9765, 594.7719
187.4586, 598.1339
187.9407, 601.6080
188.4228, 603.1803
188.9050, 603.0221
189.3871, 603.0313
189.8692, 603.3754
190.3513, 604.4084
190.8334, 609.0588
191.3155, 618.5746
191.7977, 628.7662
192.2798, 631.9525
192.7619, 628.1688
193.2440, 624.5814
193.7261, 625.3110
194.2082, 629.9656
194.6904, 634.1543
195.1725, 637.8641
195.6546, 640.6816
196.1367, 641.0540
196.6188, 638.7626
197.1009, 636.9982
197.5831, 637.8350
198.0652, 641.2615
198.5473, 644.1630
199.0294, 646.3715
199.5115, 647.9651
199.9937, 649.3936
200.4758, 650.8390
200.9579, 650.9095
201.4400, 647.9726
201.9221, 641.6660
202.4042, 637.3223
202.8864, 635.2861
203.3685, 635.2881
203.8506, 637.5714
204.3327, 642.9827
204.8148, 647.1633
205.2969, 646.9354
205.7791, 641.4424
206.2612, 637.9874
206.7433, 637.6393
207.2254, 639.0637
207.7075, 638.5718
208.1896, 635.4007
208.6718, 632.5368
209.1539, 631.8644
209.6360, 633.9507
210.1181, 635.4299
210.6002, 636.2061
211.0823, 636.2453
211.5645, 635.3221
212.0466, 633.1901
212.5287, 630.7050
213.0108, 628.0523
213.4929, 624.8009
213.9750, 623.1426
214.4572, 623.7331
214.9393, 625.7769
215.4214, 626.9491
215.9035, 627.0450
216.3856, 626.6804
216.8678, 625.9456
217.3499, 624.3289
217.8320, 624.1240
218.3141, 626.3137
218.7962, 629.7070
219.2783, 630.2820
219.7605, 626.7142
220.2426, 622.6928
220.7247, 620.1560
221.2068, 619.4698
221.6889, 619.3007
222.1710, 620.0438
222.6532, 621.1686
223.1353, 620.7789
223.6174, 617.8379
224.0995, 615.1289
224.5816, 614.0876
225.0637, 615.2130
225.5459, 616.8776
226.0280, 619.7252
226.5101, 622.9417
226.9922, 623.6495
227.4743, 620.1485
227.9564, 616.8287
228.4386, 616.1180
228.9207, 619.9412
229.4028, 621.6077
229.8849, 620.0873
230.3670, 616.5729
230.8492, 614.3561
231.3313, 613.8253
231.8134, 614.0245
232.2955, 614.5677
232.7776, 615.4984
233.2597, 616.7396
233.7419, 618.6893
234.2240, 620.8592
234.7061, 621.7503
235.1882, 620.3328
235.6703, 619.2286
236.1524, 619.7405
236.6346, 623.1093
237.1167, 625.1980
237.5988, 625.4260
238.0809, 624.5995
238.5630, 624.7233
239.0451, 626.7398
239.5273, 628.2656
240.0094, 628.0880
240.4915, 624.9958
240.9736, 623.3378
241.4557, 623.4483
241.9378, 624.8053
242.4200, 626.5097
242.9021, 629.3690
243.3842, 631.3141
243.8663, 631.2460
244.3484, 627.9728
244.8306, 626.3348
245.3127, 627.1262
245.7948, 629.1433
246.2769, 630.0275
246.7590, 628.6999
247.2411, 628.0826
247.7233, 629.5665
248.2054, 634.2265
248.6875, 636.8920
249.1696, 636.6615
249.6517, 635.0360
250.1338, 634.4094
250.6160, 635.0823
251.0981, 636.2380
251.5802, 637.7598
252.0623, 639.8287
252.5444, 641.3538
253.0265, 642.0676
253.5087, 642.4538
253.9908, 643.2167
254.4729, 644.6100
254.9550, 645.8831
255.4371, 646.8038
255.9192, 647.3190
256.4014, 647.8746
256.8835, 648.5473
257.3656, 649.1838
257.8477, 649.5111
258.3298, 649.1625
258.8120, 649.3497
259.2941, 650.5663
259.7762, 652.9088
260.2583, 654.6410
260.7404, 655.5859
261.2225, 656.1412
261.7047, 656.5732
262.1868, 656.4645
262.6689, 657.3925
263.1510, 660.2802
263.6331, 664.9957
264.1152, 667.4807
264.5974, 666.8615
265.0795, 665.3259
265.5616, 664.9288
266.0437, 665.8873
266.5258, 667.3367
267.0079, 669.4604
267.4901, 672.0898
267.9722, 673.4569
268.4543, 673.4054
268.9364, 672.4733
269.4185, 670.7706
269.9006, 667.8958
270.3828, 666.0658
270.8649, 665.7541
271.3470, 666.7175
271.8291, 667.9170
272.3112, 669.4941
272.7933, 670.9282
273.2755, 671.6673
273.7576, 671.5336
274.2397, 671.8500
274.7218, 672.8387
275.2039, 674.3127
275.6860, 675.6717
276.1682, 676.8411
276.6503, 678.2239
277.1324, 680.3621
277.6145, 683.3678
278.0966, 685.4555
278.5787, 686.2884
279.0609, 686.4124
279.5430, 686.9820
280.0251, 688.0513
280.5072, 689.3504
280.9893, 691.0449
281.4715, 693.1241
281.9536, 694.1321
282.4357, 693.7748
282.9178, 692.7764
283.3999, 692.6328
283.8820, 693.4216
284.3642, 693.4397
284.8463, 691.3768
285.3284, 687.4438
285.8105, 684.3854
286.2926, 682.2333
286.7747, 680.7708
287.2569, 680.2348
287.7390, 680.5492
288.2211, 679.8908
288.7032, 676.8923
289.1853, 672.2169
289.6674, 668.9426
290.1496, 667.2133
290.6317, 665.8621
291.1138, 663.4631
291.5959, 660.1810
292.0780, 657.1995
292.5602, 654.8947
293.0423, 653.1462
293.5244, 651.8649
294.0065, 651.0909
294.4886, 650.1044
294.9707, 647.9847
295.4529, 645.0303
295.9350, 642.3582
296.4171, 640.2508
296.8992, 638.5535
297.3813, 636.9861
297.8634, 635.5698
298.3456, 634.4836
298.8277, 634.7811
299.3098, 635.4815
299.7919, 634.0640
300.2740, 629.1309
300.7561, 623.4668
301.2383, 621.0181
301.7204, 621.2336
302.2025, 621.7888
302.6846, 621.0455
303.1667, 619.7565
303.6488, 619.2186
304.1310, 619.9140
304.6131, 620.4951
305.0952, 619.0773
305.5773, 616.3824
306.0594, 614.3703
306.5415, 614.7080
307.0237, 615.9225
307.5058, 616.5310
307.9879, 616.3754
308.4700, 615.6964
308.9521, 614.1926
309.4343, 612.3343
309.9164, 610.9149
310.3985, 610.3790
310.8806, 610.3271
311.3627, 610.6034
311.8448, 611.2050
312.3270, 611.6906
312.8091, 611.9695
313.2912, 611.9313
313.7733, 611.4462
314.2554, 609.7506
314.7375, 608.2183
315.2197, 607.7220
315.7018, 608.1496
316.1839, 608.5521
316.6660, 608.6796
317.1481, 608.5095
317.6302, 607.9705
318.1124, 606.0774
318.5945, 605.0129
319.0766, 606.1782
319.5587, 608.9176
320.0408, 610.9708
320.5229, 611.5482
321.0051, 611.3010
321.4872, 610.4852
321.9693, 608.6772
322.4514, 607.1940
322.9335, 605.9437
323.4156, 605.2218
323.8978, 605.5974
324.3799, 609.1141
324.8620, 612.0546
325.3441, 612.8885
325.8262, 610.7379
326.3083, 608.8941
326.7905, 607.4760
327.2726, 606.5340
327.7547, 606.1452
328.2368, 606.9570
328.7189, 607.6378
329.2010, 607.6807
329.6832, 606.9376
330.1653, 607.2579
330.6474, 610.2291
331.1295, 613.1204
331.6116, 613.5771
332.0938, 609.2374
332.5759, 606.2148
333.0580, 605.4863
333.5401, 606.8030
334.0222, 608.5324
334.5043, 611.5215
334.9865, 613.7762
335.4686, 613.7059
335.9507, 609.6766
336.4328, 607.9326
336.9149, 609.6868
337.3970, 613.4970
337.8792, 615.3650
338.3613, 614.7648
338.8434, 613.8063
339.3255, 613.5026
339.8076, 614.0067
340.2898, 613.9435
340.7719, 613.1426
341.2540, 612.0866
341.7361, 611.3026
342.2182, 610.7576
342.7003, 611.0169
343.1825, 612.8788
343.6646, 615.8951
344.1467, 616.5400
344.6288, 614.4312
345.1109, 611.9026
345.5930, 611.4609
346.0752, 612.9122
346.5573, 614.1951
347.0394, 614.6052
347.5215, 614.7181
348.0036, 616.0193
348.4857, 618.4746
348.9679, 621.0067
349.4500, 623.2430
349.9321, 624.9696
350.4142, 625.2136
350.8963, 623.2505
351.3784, 621.2685
351.8606, 622.8723
352.3427, 627.1514
352.8248, 630.7770
353.3069, 631.0139
353.7890, 629.7820
354.2711, 629.8451
354.7533, 631.5419
355.2354, 633.3619
355.7175, 634.0817
356.1996, 634.0219
356.6817, 633.7399
357.1638, 633.1584
357.6460, 632.6669
358.1281, 632.7845
358.6102, 633.4388
359.0923, 633.7180
359.5744, 632.7112
360.0565, 631.2489
360.5387, 630.1174
361.0208, 629.3839
361.5029, 629.2094
361.9850, 630.3405
362.4671, 632.2209
362.9492, 633.1153
363.4314, 631.0047
363.9135, 628.7783
364.3956, 628.1643
364.8777, 630.1632
365.3598, 631.9532
365.8419, 632.7615
366.3241, 633.0483
366.8062, 633.4951
367.2883, 634.7790
367.7704, 635.6686
368.2526, 635.6433
368.7347, 634.4578
369.2168, 633.7119
369.6989, 633.1143
370.1810, 633.1472
370.6631, 634.2942
371.1453, 637.9673
371.6274, 640.6332
372.1095, 641.5320
372.5916, 640.9703
373.0737, 640.9201
373.5558, 641.3405
374.0380, 642.3258
374.5201, 644.0472
375.0022, 646.7551
375.4843, 649.3805
375.9664, 652.1146
376.4485, 654.5497
376.9307, 655.6256
377.4128, 654.9033
377.8949, 654.6484
378.3770, 655.9613
378.8591, 658.7407
379.3412, 661.2245
379.8234, 663.4195
380.3055, 665.2195
380.7876, 666.0728
381.2697, 666.0818
381.7518, 666.9617
382.2339, 669.4225
382.7161, 672.8361
383.1982, 675.7978
383.6803, 678.3011
384.1624, 680.8325
384.6445, 683.4477
385.1266, 686.3507
385.6088, 690.1548
386.0909, 695.0818
386.5730, 700.4778
387.0551, 705.4341
387.5372, 710.1444
388.0193, 715.2685
388.5015, 721.1260
388.9836, 727.5291
389.4657, 734.4226
389.9478, 741.8154
390.4299, 749.2005
390.9120, 755.7770
391.3942, 762.3016
391.8763, 769.6210
392.3584, 778.6953
392.8405, 788.0049
393.3226, 796.5443
393.8047, 804.5659
394.2869, 813.2208
394.7690, 823.2922
395.2511, 833.9117
395.7332, 844.5224
396.2154, 854.8312
396.6975, 865.5255
397.1796, 876.8263
397.6617, 888.7112
398.1438, 901.0321
398.6259, 912.9678
399.1081, 926.2159
399.5902, 941.6846
400.0723, 959.7960
400.5544, 977.1554
401.0365, 992.4596
401.5186, 1008.028
402.0008, 1025.749
402.4829, 1047.471
402.9650, 1068.005
403.4471, 1086.622
403.9292, 1103.681
404.4113, 1120.314
404.8935, 1136.810
405.3756, 1152.447
405.8577, 1167.145
406.3398, 1180.949
406.8219, 1193.074
407.3040, 1204.375
407.7862, 1212.422
408.2683, 1213.041
408.7504, 1206.095
409.2325, 1196.961
409.7146, 1187.025
410.1967, 1176.467
410.6789, 1165.311
411.1610, 1153.583
411.6431, 1140.867
412.1252, 1126.645
412.6073, 1111.219
413.0894, 1095.215
413.5716, 1078.593
414.0537, 1062.559
414.5358, 1048.870
415.0179, 1037.243
415.5000, 1026.300
415.9821, 1015.008
416.4643, 1004.293
416.9464, 995.5273
417.4285, 988.9597
417.9106, 982.4114
418.3927, 974.2640
418.8748, 965.3674
419.3570, 956.8856
419.8391, 948.6873
420.3212, 941.3861
420.8033, 935.4401
421.2854, 930.6733
421.7675, 926.1013
422.2497, 921.6673
422.7318, 917.1866
423.2139, 912.5175
423.6960, 907.2661
424.1781, 902.7186
424.6602, 898.9042
425.1424, 895.9453
425.6245, 894.1135
426.1066, 894.7571
426.5887, 894.7978
427.0709, 893.0402
427.5530, 889.4813
428.0351, 888.0769
428.5172, 889.7645
428.9993, 892.2857
429.4814, 894.1612
429.9636, 895.4044
430.4457, 895.8913
430.9278, 895.5307
431.4099, 894.4803
431.8920, 892.9352
432.3741, 890.8054
432.8563, 888.7662
433.3384, 887.2148
433.8205, 886.0486
434.3026, 884.7924
434.7847, 883.5042
435.2668, 881.6472
435.7490, 878.6648
436.2311, 874.6408
436.7132, 869.8225
437.1953, 863.7440
437.6774, 857.6398
438.1595, 853.2137
438.6417, 850.2028
439.1238, 847.5156
439.6059, 844.5380
440.0880, 841.5336
440.5701, 838.7950
441.0522, 836.3651
441.5344, 834.0733
442.0165, 832.0417
442.4986, 830.0135
442.9807, 827.6821
443.4628, 824.3237
443.9449, 821.2504
444.4271, 819.2697
444.9092, 818.1504
445.3913, 816.5482
445.8734, 813.0081
446.3555, 809.7937
446.8376, 808.0270
447.3198, 808.0641
447.8019, 809.0700
448.2840, 812.3638
448.7661, 816.0271
449.2482, 817.2096
449.7303, 814.0248
450.2125, 811.5505
450.6946, 810.9415
451.1767, 812.0916
451.6588, 813.4483
452.1409, 815.1737
452.6230, 816.7669
453.1052, 817.7404
453.5873, 818.0358
454.0694, 818.6168
454.5515, 819.5818
455.0337, 820.8004
455.5158, 821.9096
455.9979, 822.9543
456.4800, 824.4875
456.9621, 826.8606
457.4442, 829.8657
457.9264, 832.9150
458.4085, 836.0153
458.8906, 839.7451
459.3727, 844.8131
459.8548, 850.7472
460.3369, 856.5936
460.8191, 861.9648
461.3012, 867.8344
461.7833, 875.5549
462.2654, 884.3605
462.7475, 892.6180
463.2296, 900.7672
463.7118, 907.3363
464.1939, 911.5566
464.6760, 913.4130
465.1581, 913.2139
465.6402, 910.8547
466.1223, 906.5818
466.6045, 900.5750
467.0866, 892.6174
467.5687, 883.2125
468.0508, 871.3378
468.5329, 858.0792
469.0150, 845.5999
469.4972, 833.7865
469.9793, 823.1712
470.4614, 814.2922
470.9435, 807.2558
471.4256, 799.7258
471.9077, 791.1496
472.3899, 783.2092
472.8720, 777.6422
473.3541, 774.5675
473.8362, 771.7641
474.3183, 768.8548
474.8004, 766.1285
475.2826, 764.3734
475.7647, 763.5142
476.2468, 762.5080
476.7289, 760.8021
477.2110, 758.5609
477.6931, 755.9776
478.1753, 753.0443
478.6574, 750.4088
479.1395, 748.4711
479.6216, 747.2063
480.1037, 746.7380
480.5858, 747.7005
481.0680, 748.3342
481.5501, 746.5731
482.0322, 743.6321
482.5143, 742.0615
482.9964, 744.2106
483.4786, 746.8050
483.9607, 748.6166
484.4428, 749.5666
484.9249, 749.2883
485.4070, 747.1116
485.8892, 744.0659
486.3713, 740.8055
486.8534, 736.1671
487.3355, 733.1776
487.8176, 732.8724
488.2997, 733.9352
488.7819, 733.5175
489.2640, 731.1296
489.7461, 728.3090
490.2282, 725.4565
490.7103, 722.5500
491.1924, 719.6918
491.6746, 716.8197
492.1567, 714.1452
492.6388, 711.9550
493.1209, 710.1708
493.6030, 708.4969
494.0851, 706.9877
494.5673, 705.2213
495.0494, 702.3845
495.5315, 698.7136
496.0136, 695.1732
496.4957, 691.5380
496.9778, 688.6494
497.4600, 687.8665
497.9421, 688.9861
498.4242, 689.9274
498.9063, 689.4467
499.3884, 688.2495
499.8705, 686.9177
500.3527, 685.5816
500.8348, 684.0970
501.3169, 681.9443
501.7990, 679.7680
502.2811, 678.4700
502.7632, 679.2348
503.2454, 679.8234
503.7275, 679.5696
504.2096, 678.5859
504.6917, 678.1205
505.1738, 678.6339
505.6559, 679.0637
506.1381, 678.7338
506.6202, 677.3050
507.1023, 676.6343
507.5844, 677.0060
508.0665, 677.6404
508.5486, 677.3555
509.0308, 676.1222
509.5129, 675.1116
509.9950, 674.5869
510.4771, 674.4808
510.9592, 674.9470
511.4413, 675.8777
511.9235, 676.3748
512.4056, 675.3101
512.8877, 673.6478
513.3698, 672.7869
513.8519, 672.8430
514.3340, 673.4459
514.8162, 674.7670
515.2983, 676.3189
515.7804, 677.5453
516.2625, 678.6205
516.7446, 678.9258
517.2267, 677.4250
517.7089, 674.9577
518.1910, 673.5901
518.6731, 675.0783
519.1552, 676.5227
519.6373, 676.8518
520.1194, 675.9666
520.6016, 675.0165
521.0837, 673.4023
521.5658, 672.3891
522.0479, 673.1613
522.5300, 676.4363
523.0121, 678.7990
523.4943, 679.8767
523.9764, 680.1302
524.4585, 680.1304
524.9406, 679.8591
525.4227, 680.1458
525.9048, 681.8068
526.3870, 683.9769
526.8691, 684.0476
527.3513, 682.1751
527.8334, 680.6854
528.3155, 681.4509
528.7976, 683.5671
529.2797, 685.9423
529.7618, 688.5734
530.2440, 690.6962
530.7261, 691.3951
531.2082, 691.3643
531.6903, 691.4797
532.1724, 691.4435
532.6545, 692.2077
533.1367, 695.0348
533.6188, 699.0910
534.1009, 701.5117
534.5830, 699.2618
535.0651, 697.8269
535.5472, 699.3245
536.0294, 704.3143
536.5115, 708.3486
536.9936, 711.2547
537.4757, 713.4567
537.9578, 714.9700
538.4399, 715.5131
538.9221, 717.3787
539.4042, 721.1194
539.8863, 725.7609
540.3684, 729.7575
540.8505, 733.1268
541.3326, 736.0569
541.8148, 738.2345
542.2969, 740.2421
542.7790, 743.2484
543.2611, 747.1580
543.7432, 751.2855
544.2253, 755.6162
544.7075, 759.6932
545.1896, 762.9811
545.6717, 765.3282
546.1538, 767.3472
546.6359, 769.0866
547.1180, 770.7667
547.6002, 772.5981
548.0823, 774.3405
548.5644, 776.5745
549.0465, 779.9384
549.5286, 783.9045
550.0107, 786.9012
550.4929, 788.2618
550.9750, 789.6506
551.4571, 791.7092
551.9392, 794.4483
552.4213, 796.5815
552.9034, 798.1370
553.3856, 799.0371
553.8677, 799.2944
554.3498, 798.8854
554.8319, 797.3073
555.3140, 794.2849
555.7961, 790.9144
556.2783, 788.7926
556.7604, 787.5232
557.2425, 785.9587
557.7246, 783.0174
558.2067, 780.2956
558.6888, 779.9317
559.1710, 781.2512
559.6531, 781.9582
560.1352, 780.0461
560.6173, 777.8969
561.0994, 777.3298
561.5815, 778.8126
562.0637, 778.9558
562.5458, 776.0370
563.0279, 772.2187
563.5100, 769.0476
563.9921, 766.8015
564.4742, 764.7527
564.9564, 763.1642
565.4385, 761.5365
565.9206, 758.7336
566.4027, 754.3679
566.8848, 750.9005
567.3669, 749.3550
567.8491, 749.0547
568.3312, 748.0199
568.8133, 746.2670
569.2954, 744.0301
569.7775, 740.9278
570.2596, 737.6106
570.7418, 735.6605
571.2239, 735.2039
571.7060, 734.4749
572.1881, 731.4030
572.6702, 727.6589
573.1523, 725.2134
573.6345, 725.6750
574.1166, 725.5023
574.5987, 722.3143
575.0808, 717.8681
575.5629, 715.0323
576.0450, 716.8353
576.5272, 717.4185
577.0093, 714.7422
577.4914, 709.5891
577.9735, 707.2571
578.4556, 708.7891
578.9377, 711.0504
579.4199, 712.8608
579.9020, 714.2155
580.3841, 714.1740
580.8662, 712.5787
581.3483, 710.5019
581.8304, 708.6346
582.3126, 707.1381
582.7947, 706.6201
583.2768, 707.2857
583.7589, 708.6691
584.2410, 710.5135
584.7231, 712.6849
585.2053, 714.9208
585.6874, 717.5799
586.1696, 719.8138
586.6517, 721.1019
587.1338, 721.5338
587.6159, 721.5709
588.0980, 720.2238
588.5801, 719.4648
589.0623, 720.5006
589.5444, 723.7477
590.0265, 725.8618
590.5086, 726.3889
590.9907, 726.3730
591.4728, 726.5000
591.9550, 726.7255
592.4371, 727.5821
592.9192, 729.3148
593.4013, 731.2279
593.8834, 732.2916
594.3655, 732.6058
594.8477, 732.6910
595.3298, 732.5332
595.8119, 732.4769
596.2940, 732.9570
596.7761, 733.9250
597.2582, 735.2307
597.7404, 737.2352
598.2225, 739.1904
598.7046, 740.3624
599.1867, 740.7136
599.6688, 741.4753
600.1509, 743.4276
600.6331, 745.5952
601.1152, 747.3503
601.5973, 748.5272
602.0794, 749.6104
602.5615, 750.3313
603.0436, 751.2070
603.5258, 753.1086
604.0079, 756.4452
604.4900, 758.4912
604.9721, 758.4674
605.4542, 757.4417
605.9363, 757.3387
606.4185, 758.1381
606.9006, 759.6194
607.3827, 762.1790
607.8648, 765.0418
608.3469, 767.0100
608.8290, 768.1940
609.3112, 769.0958
609.7933, 769.5492
610.2754, 770.1677
610.7575, 771.3964
611.2396, 773.2680
611.7217, 775.6736
612.2039, 778.6881
612.6860, 782.1127
613.1681, 785.8890
613.6502, 790.7269
614.1323, 794.5333
614.6144, 796.8598
615.0966, 798.4661
615.5787, 800.2304
616.0608, 801.9635
616.5429, 805.2195
617.0250, 810.8212
617.5071, 817.6389
617.9893, 823.0293
618.4714, 827.1417
618.9535, 830.8788
619.4356, 834.3043
619.9177, 837.9547
620.3998, 842.8268
620.8820, 848.7868
621.3641, 854.5228
621.8462, 859.0641
622.3283, 863.3502
622.8104, 868.1326
623.2925, 873.7742
623.7747, 878.8997
624.2568, 883.2010
624.7389, 886.8900
625.2210, 890.0833
625.7031, 892.4711
626.1852, 895.0759
626.6674, 898.1308
627.1495, 901.1740
627.6316, 903.2999
628.1137, 904.4691
628.5958, 905.8019
629.0779, 908.0013
629.5601, 910.1276
630.0422, 910.0753
630.5243, 908.1800
631.0064, 905.9915
631.4885, 904.7225
631.9706, 903.3372
632.4528, 901.5367
632.9349, 899.1253
633.4170, 894.1671
633.8991, 884.1246
634.3812, 872.5636
634.8633, 861.3412
635.3455, 850.7185
635.8276, 840.6666
636.3097, 832.1015
636.7918, 823.2511
637.2739, 812.0432
637.7560, 797.3128
638.2382, 785.3751
638.7203, 777.1879
639.2024, 771.2280
639.6845, 765.5770
640.1666, 760.1381
640.6487, 754.2881
641.1309, 747.1805
641.6130, 740.3565
642.0951, 736.2499
642.5772, 734.2823
643.0594, 733.0277
643.5415, 732.4053
644.0236, 731.7152
644.5057, 730.2397
644.9879, 728.1161
645.4700, 726.7255
645.9521, 728.0303
646.4342, 728.6221
646.9163, 726.7225
647.3984, 721.7654
647.8806, 718.2093
648.3627, 716.3951
648.8448, 715.3288
649.3269, 714.2809
649.8090, 713.2620
650.2911, 712.2958
650.7733, 711.3368
651.2554, 710.6127
651.7375, 710.3603
652.2196, 710.5443
652.7017, 711.1235
653.1838, 712.2698
653.6660, 713.4207
654.1481, 714.1743
654.6302, 714.6070
655.1123, 714.8682
655.5944, 714.8005
656.0765, 714.7510
656.5587, 714.8522
657.0408, 715.0501
657.5229, 715.0860
658.0050, 714.6439
658.4871, 714.5847
658.9692, 715.4850
659.4514, 717.1674
659.9335, 717.4037
660.4156, 716.0060
660.8977, 714.7123
661.3798, 715.2073
661.8619, 716.7382
662.3441, 717.1953
662.8262, 716.4425
663.3083, 715.4252
663.7904, 714.6303
664.2725, 714.1168
664.7546, 713.9656
665.2368, 714.2496
665.7189, 714.7754
666.2010, 716.4872
666.6831, 717.9835
667.1652, 717.5320
667.6473, 713.3108
668.1295, 710.1018
668.6116, 708.1489
669.0937, 707.4263
669.5758, 708.1942
670.0579, 710.6208
670.5400, 712.9617
671.0222, 714.8546
671.5043, 716.1722
671.9864, 716.3810
672.4685, 715.6790
672.9506, 715.0836
673.4327, 715.3068
673.9149, 715.7662
674.3970, 716.1019
674.8791, 716.2538
675.3612, 715.9478
675.8433, 713.8475
676.3254, 712.2921
676.8076, 712.8217
677.2897, 715.9484
677.7718, 718.3799
678.2539, 720.0148
678.7360, 721.0980
679.2181, 721.6151
679.7003, 721.4750
680.1824, 721.9127
680.6645, 723.0872
681.1466, 724.3402
681.6287, 725.3714
682.1108, 725.9044
682.5930, 724.6584
683.0751, 720.6179
683.5572, 717.3694
684.0393, 719.1757
684.5214, 723.2997
685.0035, 725.8343
685.4857, 724.0232
685.9678, 722.2094
686.4499, 721.3578
686.9320, 721.2493
687.4141, 721.3574
687.8962, 721.6901
688.3784, 722.2598
688.8605, 723.2190
689.3426, 724.3661
689.8247, 725.0510
690.3068, 725.2854
690.7889, 725.0349
691.2711, 723.8125
691.7532, 722.3165
692.2353, 722.1816
692.7174, 723.2173
693.1995, 724.2068
693.6816, 724.2161
694.1638, 724.0406
694.6459, 724.5322
695.1280, 725.8085
695.6101, 726.2082
696.0922, 723.8347
696.5743, 721.7526
697.0565, 721.8243
697.5386, 724.8699
698.0207, 726.5917
698.5028, 726.6374
698.9849, 726.1295
699.4670, 726.2469
699.9492, 726.8738
700.4313, 726.5731
700.9135, 725.0070
701.3956, 723.4636
701.8777, 723.3466
702.3598, 724.1974
702.8419, 725.3183
703.3240, 726.7716
703.8062, 727.8959
704.2883, 727.9626
704.7704, 727.5777
705.2525, 727.6298
705.7346, 728.7070
706.2167, 729.6736
706.6989, 730.4202
707.1810, 731.0062
707.6631, 731.7447
708.1452, 732.8215
708.6273, 732.8253
709.1094, 730.7731
709.5916, 727.9559
710.0737, 727.6816
710.5558, 729.5119
711.0379, 731.1434
711.5200, 730.7694
712.0021, 730.0706
712.4843, 730.7211
712.9664, 732.4714
713.4485, 733.9348
713.9306, 734.6750
714.4127, 734.9059
714.8948, 734.6313
715.3770, 733.8604
715.8591, 732.7766
716.3412, 731.0451
716.8233, 729.6656
717.3054, 729.3298
717.7875, 729.9977
718.2697, 730.7149
718.7518, 731.5164
719.2339, 732.0571
719.7160, 732.0630
720.1981, 731.6185
720.6802, 730.5959
721.1624, 728.8972
721.6445, 727.7512
722.1266, 728.4011
722.6087, 729.6318
723.0908, 730.4351
723.5729, 730.6591
724.0551, 730.3436
724.5372, 728.9432
725.0193, 727.5252
725.5014, 727.1840
725.9835, 728.0248
726.4656, 729.5029
726.9478, 731.8651
727.4299, 734.0787
727.9120, 734.2322
728.3941, 732.9679
728.8762, 732.3655
729.3583, 733.2405
729.8405, 734.4254
730.3226, 734.9795
730.8047, 735.1773
731.2868, 735.4559
731.7689, 736.7878
732.2510, 737.2323
732.7332, 735.2827
733.2153, 732.3885
733.6974, 731.6232
734.1795, 733.9189
734.6616, 735.8191
735.1437, 736.4054
735.6259, 736.1034
736.1080, 735.8983
736.5901, 735.7805
737.0722, 735.6713
737.5543, 735.3294
738.0364, 735.1234
738.5186, 735.7510
739.0007, 736.9377
739.4828, 737.7347
739.9649, 737.4163
740.4470, 736.9193
740.9291, 736.7571
741.4113, 736.8898
741.8934, 736.4969
742.3755, 735.2543
742.8576, 734.0582
743.3397, 733.0735
743.8218, 732.3987
744.3040, 733.2804
744.7861, 735.7673
745.2682, 737.7293
745.7503, 736.8908
746.2324, 734.9348
746.7145, 734.8583
747.1967, 736.6252
747.6788, 738.0771
748.1609, 737.7287
748.6430, 736.8779
749.1251, 736.2317
749.6072, 735.7933
750.0894, 736.0706
750.5715, 737.7208
751.0536, 739.2315
751.5357, 739.6238
752.0178, 738.8320
752.4999, 737.3978
752.9821, 735.0739
753.4642, 733.7000
753.9463, 736.2638
754.4284, 740.7512
754.9105, 742.7996
755.3926, 741.6516
755.8748, 740.3270
756.3569, 741.1563
756.8390, 742.4532
757.3211, 742.5622
757.8032, 740.1168
758.2853, 738.9859
758.7675, 740.0070
759.2496, 741.7380
759.7318, 742.9699
760.2139, 743.6641
760.6960, 744.0334
761.1781, 744.0146
761.6602, 743.9771
762.1423, 744.4689
762.6245, 745.2924
763.1066, 746.0548
763.5887, 746.8115
764.0708, 747.0282
764.5529, 745.6324
765.0350, 743.7701
765.5172, 742.7975
765.9993, 743.8491
766.4814, 744.6608
766.9635, 744.7922
767.4456, 744.8347
767.9277, 745.6614
768.4099, 747.4290
768.8920, 748.9888
769.3741, 750.2587
769.8562, 750.9918
770.3383, 750.4495
770.8204, 749.0872
771.3026, 748.1274
771.7847, 747.9633
772.2668, 748.2930
772.7489, 749.7234
773.2310, 751.3205
773.7131, 751.6024
774.1953, 748.6605
774.6774, 746.4648
775.1595, 745.4013
775.6416, 745.3400
776.1237, 746.4282
776.6058, 748.9540
777.0880, 750.3069
777.5701, 749.5652
778.0522, 747.8777
778.5343, 746.8958
779.0164, 746.5402
779.4985, 746.6123
779.9807, 747.2700
780.4628, 748.0161
780.9449, 748.4080
781.4270, 748.6735
781.9091, 749.3055
782.3912, 750.5585
782.8734, 752.0134
783.3555, 753.7886
783.8376, 755.6613
784.3197, 757.0385
784.8018, 757.9130
785.2839, 758.5680
785.7661, 759.0703
786.2482, 759.4408
786.7303, 760.2250
787.2124, 760.9435
787.6945, 760.2540
788.1766, 754.8320
788.6588, 750.5589
789.1409, 751.7994
789.6230, 756.5121
790.1051, 758.7842
790.5872, 756.0439
791.0693, 753.9558
791.5515, 753.7049
792.0336, 754.8004
792.5157, 755.9598
792.9978, 757.1865
793.4799, 758.4576
793.9620, 760.0872
794.4442, 761.3985
794.9263, 760.8067
795.4084, 759.0406
795.8905, 758.1237
796.3726, 759.9785
796.8547, 761.7958
797.3369, 762.2858
797.8190, 761.7605
798.3011, 761.4041
798.7832, 760.9575
799.2653, 761.3258
799.7474, 763.2230
800.2296, 765.7019
800.7117, 765.5809
801.1938, 763.1405
801.6759, 761.4896
802.1580, 762.4615
802.6401, 764.3093
803.1223, 765.5925
803.6044, 766.1664
804.0865, 765.6371
804.5686, 761.5366
805.0507, 758.9022
805.5328, 760.6933
806.0150, 765.0575
806.4971, 767.0332
806.9792, 765.7376
807.4613, 764.9296
807.9434, 765.7656
808.4255, 767.5750
808.9077, 769.4783
809.3898, 771.1710
809.8719, 771.2410
810.3540, 767.4312
810.8361, 763.4728
811.3182, 762.3750
811.8004, 763.3752
812.2825, 764.6414
812.7646, 765.9739
813.2467, 767.2211
813.7288, 768.4735
814.2109, 769.5907
814.6931, 770.3255
815.1752, 770.7532
815.6573, 770.0875
816.1394, 767.6385
816.6215, 764.7556
817.1037, 763.5786
817.5858, 763.8098
818.0679, 764.6341
818.5500, 766.2328
819.0322, 767.7640
819.5143, 768.2540
819.9964, 768.4341
820.4785, 770.0184
820.9606, 774.7726
821.4427, 777.6163
821.9249, 777.3640
822.4070, 775.2275
822.8891, 773.2927
823.3712, 771.6112
823.8533, 770.8232
824.3354, 771.3056
824.8176, 772.3382
825.2997, 773.4523
825.7818, 774.4822
826.2639, 775.1146
826.7460, 775.6201
827.2281, 775.2933
827.7103, 772.9092
828.1924, 770.1024
828.6745, 769.1181
829.1566, 770.4037
829.6387, 771.7959
830.1208, 773.0561
830.6030, 774.0983
831.0851, 774.6858
831.5672, 774.9150
832.0493, 775.0175
832.5314, 774.9402
833.0135, 775.0320
833.4957, 775.7847
833.9778, 776.7311
834.4599, 777.3361
834.9420, 777.4807
835.4241, 777.2202
835.9063, 776.2335
836.3884, 775.2568
836.8705, 775.3275
837.3526, 776.4157
837.8347, 777.1589
838.3168, 777.3666
838.7990, 777.4037
839.2811, 777.4213
839.7632, 777.6027
840.2453, 778.3365
840.7274, 779.9946
841.2095, 781.1531
841.6917, 780.7343
842.1738, 780.0313
842.6559, 780.0770
843.1380, 781.1328
843.6201, 782.0054
844.1022, 782.6865
844.5844, 783.2134
845.0665, 783.7755
845.5486, 784.2047
846.0307, 783.7010
846.5128, 782.1691
846.9949, 781.2650
847.4771, 783.2271
847.9592, 785.4581
848.4413, 785.5145
848.9234, 782.3751
849.4055, 781.5301
849.8876, 784.4758
850.3698, 787.5258
850.8519, 788.3135
851.3340, 787.0607
851.8161, 786.6000
852.2982, 786.9210
852.7803, 787.5040
853.2625, 788.2133
853.7446, 788.8168
854.2267, 788.8470
854.7088, 788.3840
855.1909, 788.4689
855.6730, 790.4869
856.1552, 792.0100
856.6373, 791.9750
857.1194, 790.5959
857.6015, 789.3856
858.0836, 788.2491
858.5657, 788.0388
859.0479, 789.7707
859.5300, 792.2670
860.0121, 793.1010
860.4942, 792.6661
860.9763, 792.3138
861.4584, 792.6591
861.9406, 793.3104
862.4227, 794.3476
862.9048, 795.5615
863.3869, 796.2531
863.8690, 796.2715
864.3511, 796.0583
864.8333, 795.4759
865.3154, 795.0061
865.7975, 795.9607
866.2796, 798.0043
866.7617, 799.6544
867.2438, 800.0709
867.7260, 800.4869
868.2081, 802.5736
868.6902, 805.0571
869.1723, 805.9991
869.6544, 802.5816
870.1365, 801.1300
870.6187, 802.8434
871.1008, 805.6547
871.5829, 806.5345
872.0650, 805.6097
872.5471, 805.4357
873.0292, 806.4813
873.5114, 807.9274
873.9935, 809.0564
874.4756, 810.0330
874.9577, 811.1692
875.4399, 812.8128
875.9220, 813.7230
876.4041, 812.7016
876.8862, 811.5845
877.3683, 811.6025
877.8505, 812.9493
878.3326, 813.9979
878.8147, 814.6690
879.2968, 815.5263
879.7789, 817.8953
880.2610, 820.4013
880.7432, 820.4266
881.2253, 817.9026
881.7074, 815.4919
882.1895, 813.9185
882.6716, 813.2957
883.1537, 814.0889
883.6359, 816.1686
884.1180, 817.4978
884.6001, 818.0038
885.0822, 818.0989
885.5643, 817.5925
886.0464, 817.0439
886.5286, 818.3085
887.0107, 820.8864
887.4928, 822.7164
887.9749, 821.7161
888.4570, 820.6478
888.9391, 821.3248
889.4213, 823.0590
889.9034, 823.4916
890.3855, 821.8353
890.8676, 820.5766
891.3497, 820.1123
891.8318, 820.4330
892.3140, 821.9890
892.7961, 824.3927
893.2782, 826.1293
893.7603, 826.6833
894.2424, 826.5599
894.7245, 825.1741
895.2067, 823.7358
895.6888, 823.7480
896.1709, 826.8043
896.6530, 829.1562
897.1351, 830.6337
897.6172, 831.6440
898.0994, 832.3619
898.5815, 832.8887
899.0636, 834.0131
899.5457, 835.8150
900.0278, 837.8698
900.5099, 840.0889
900.9921, 842.2423
901.4742, 844.1702
901.9563, 845.8383
902.4384, 847.2118
902.9205, 847.8266
903.4026, 848.8091
903.8848, 851.0028
904.3669, 854.1308
904.8490, 855.6254
905.3311, 855.5568
905.8132, 856.0555
906.2953, 858.6516
906.7775, 862.2683
907.2596, 866.0077
907.7417, 869.8728
908.2238, 874.0303
908.7059, 879.0133
909.1880, 883.5834
909.6702, 887.0739
910.1523, 890.2557
910.6344, 895.1058
911.1165, 901.5971
911.5986, 908.3411
912.0807, 915.1023
912.5629, 921.6306
913.0450, 926.8232
913.5271, 931.8470
914.0092, 938.5568
914.4913, 947.6669
914.9734, 958.0125
915.4556, 970.6171
915.9377, 983.2095
916.4198, 993.1986
916.9019, 1000.309
917.3840, 1009.981
917.8661, 1022.721
918.3483, 1036.241
918.8304, 1048.393
919.3125, 1060.340
919.7946, 1073.643
920.2767, 1088.361
920.7589, 1103.424
921.2410, 1120.252
921.7231, 1135.494
922.2052, 1148.083
922.6873, 1158.057
923.1694, 1165.849
923.6516, 1171.399
924.1337, 1174.466
924.6158, 1175.092
925.0979, 1172.968
925.5800, 1167.551
926.0621, 1159.095
926.5443, 1148.144
927.0264, 1134.049
927.5085, 1118.369
927.9906, 1100.900
928.4727, 1082.342
928.9548, 1063.796
929.4370, 1045.319
929.9191, 1027.173
930.4012, 1009.316
930.8833, 993.0036
931.3654, 980.3162
931.8475, 969.8775
932.3297, 959.2010
932.8118, 946.9803
933.2939, 937.9623
933.7761, 935.7366
934.2582, 934.5197
934.7403, 930.6222
935.2224, 923.8835
935.7045, 920.1904
936.1866, 919.5798
936.6688, 920.0816
937.1509, 920.7033
937.6330, 921.4186
938.1151, 921.8126
938.5972, 922.1590
939.0793, 923.7448
939.5615, 928.2275
940.0436, 932.5127
940.5257, 935.3671
941.0078, 937.7617
941.4899, 942.5093
941.9720, 949.5156
942.4542, 956.0120
942.9363, 960.9069
943.4184, 965.8995
943.9005, 972.8377
944.3826, 981.0045
944.8647, 989.5257
945.3469, 997.2408
945.8290, 1007.043
946.3111, 1018.953
946.7932, 1033.016
947.2753, 1049.852
947.7574, 1069.495
948.2396, 1087.388
948.7217, 1103.432
949.2038, 1121.744
949.6859, 1146.067
950.1680, 1173.727
950.6501, 1202.896
951.1323, 1233.377
951.6144, 1264.295
952.0965, 1293.378
952.5786, 1325.964
953.0607, 1363.882
953.5428, 1403.790
954.0250, 1447.406
954.5071, 1495.620
954.9892, 1545.575
955.4713, 1600.300
955.9534, 1659.615
956.4355, 1722.365
956.9177, 1789.703
957.3998, 1864.484
957.8819, 1948.088
958.3640, 2036.699
958.8461, 2129.661
959.3282, 2229.661
959.8104, 2340.994
960.2925, 2460.282
960.7746, 2574.532
961.2567, 2683.048
961.7388, 2782.605
962.2209, 2879.849
962.7031, 2961.831
963.1852, 3016.011
963.6673, 3042.833
964.1494, 3061.375
964.6315, 3070.062
965.1136, 3074.971
965.5958, 3077.250
966.0779, 3078.353
966.5600, 3079.537
967.0421, 3082.056
967.5242, 3089.511
968.0063, 3108.974
968.4885, 3125.879
968.9706, 3134.844
969.4527, 3138.246
969.9348, 3139.710
970.4169, 3140.217
970.8990, 3134.957
971.3812, 3124.487
971.8633, 3103.937
972.3454, 3070.632
972.8275, 3023.468
973.3096, 2960.631
973.7917, 2882.073
974.2739, 2786.503
974.7560, 2669.586
975.2381, 2538.749
975.7202, 2391.772
976.2023, 2233.200
976.6844, 2081.490
977.1666, 1935.514
977.6487, 1798.649
978.1308, 1671.159
978.6129, 1557.678
979.0950, 1464.113
979.5771, 1387.106
980.0593, 1320.393
980.5414, 1263.494
981.0235, 1216.520
981.5056, 1180.054
981.9877, 1151.466
982.4698, 1128.166
982.9520, 1109.980
983.4341, 1096.341
983.9162, 1087.174
984.3983, 1080.707
984.8804, 1076.297
985.3625, 1073.560
985.8447, 1072.640
986.3268, 1073.471
986.8089, 1074.445
987.2910, 1075.741
987.7731, 1076.695
988.2552, 1077.136
988.7374, 1077.079
989.2195, 1075.700
989.7016, 1073.882
990.1837, 1074.260
990.6658, 1079.837
991.1479, 1083.524
991.6301, 1080.442
992.1122, 1075.289
992.5944, 1072.966
993.0765, 1074.498
993.5586, 1073.105
994.0407, 1068.439
994.5228, 1063.078
995.0049, 1058.914
995.4871, 1055.445
995.9692, 1052.379
996.4513, 1049.482
996.9334, 1045.590
997.4155, 1038.761
997.8976, 1032.965
998.3798, 1029.834
998.8619, 1027.844
999.3440, 1022.930
999.8261, 1015.373
1000.308, 1008.262
1000.790, 1002.723
1001.272, 996.7319
1001.755, 987.0448
1002.237, 976.7755
1002.719, 969.6534
1003.201, 967.4618
1003.683, 963.8488
1004.165, 958.2285
1004.647, 952.5909
1005.129, 948.2100
1005.612, 944.7532
1006.094, 940.7952
1006.576, 936.6621
1007.058, 933.6863
1007.540, 933.9025
1008.022, 933.9869
1008.504, 931.7977
1008.986, 928.8791
1009.468, 928.1788
1009.951, 930.1017
1010.433, 930.8587
1010.915, 929.7314
1011.397, 927.9645
1011.879, 926.4111
1012.361, 925.3398
1012.843, 925.1172
1013.325, 925.8334
1013.807, 927.1710
1014.290, 930.3430
1014.772, 932.1769
1015.254, 930.7612
1015.736, 927.0477
1016.218, 924.4298
1016.700, 922.9749
1017.182, 923.1310
1017.664, 926.3369
1018.147, 929.6015
1018.629, 930.7775
1019.111, 930.9051
1019.593, 931.6649
1020.075, 933.5378
1020.557, 934.8768
1021.039, 935.6880
1021.521, 935.6821
1022.003, 933.9440
1022.486, 931.4603
1022.968, 930.0800
1023.450, 929.8216
1023.932, 929.6202
1024.414, 928.8017
1024.896, 928.3311
1025.378, 928.8199
1025.860, 929.7167
1026.343, 929.1364
1026.825, 927.2291
1027.307, 926.0152
1027.789, 926.1465
1028.271, 926.7879
1028.753, 927.6169
1029.235, 928.3139
1029.717, 928.5394
1030.199, 928.2673
1030.682, 927.2402
1031.164, 925.0685
1031.646, 923.2081
1032.128, 922.7888
1032.610, 923.2446
1033.092, 923.3289
1033.574, 923.0295
1034.056, 922.2963
1034.539, 919.7913
1035.021, 918.4827
1035.503, 920.4374
1035.985, 923.3337
1036.467, 923.9413
1036.949, 922.1863
1037.431, 920.9874
1037.913, 920.7587
1038.396, 920.1501
1038.878, 917.2048
1039.360, 913.8375
1039.842, 911.7635
1040.324, 911.1752
1040.806, 911.2889
1041.288, 912.7347
1041.770, 913.0908
1042.252, 911.0236
1042.734, 908.1873
1043.217, 908.4338
1043.699, 910.6667
1044.181, 911.9076
1044.663, 910.7267
1045.145, 909.7381
1045.627, 910.0173
1046.109, 910.8556
1046.591, 911.9948
1047.074, 913.4982
1047.556, 913.4803
1048.038, 911.9381
1048.520, 909.9925
1049.002, 907.4540
1049.484, 905.6849
1049.966, 906.7174
1050.448, 909.4612
1050.931, 910.7408
1051.413, 909.4742
1051.895, 908.3817
1052.377, 907.5318
1052.859, 907.4898
1053.341, 909.7985
1053.823, 913.2253
1054.305, 914.8550
1054.787, 914.3467
1055.270, 913.7560
1055.752, 912.6735
1056.234, 913.3304
1056.716, 917.5649
1057.198, 923.9166
1057.680, 926.0302
1058.162, 924.2092
1058.644, 923.3197
1059.126, 925.2157
1059.609, 927.7885
1060.091, 929.2042
1060.573, 930.2006
1061.055, 931.6165
1061.537, 933.6644
1062.019, 935.4993
1062.501, 936.9348
1062.983, 938.9032
1063.466, 943.0564
1063.948, 947.5931
1064.430, 948.3389
1064.912, 946.5646
1065.394, 946.0631
1065.876, 949.1807
1066.358, 952.6196
1066.840, 956.4015
1067.323, 959.5626
1067.805, 959.8658
1068.287, 958.0732
1068.769, 960.1599
1069.251, 966.5773
1069.733, 973.4062
1070.215, 978.5226
1070.697, 982.5029
1071.179, 985.0684
1071.661, 986.6605
1072.144, 989.1263
1072.626, 992.7318
1073.108, 995.0540
1073.590, 995.0887
1074.072, 994.7402
1074.554, 996.3700
1075.036, 999.0992
1075.518, 1002.019
1076.001, 1005.297
1076.483, 1007.102
1076.965, 1006.767
1077.447, 1006.171
1077.929, 1006.021
1078.411, 1006.464
1078.893, 1008.213
1079.375, 1010.943
1079.858, 1013.617
1080.340, 1016.129
1080.822, 1018.053
1081.304, 1018.270
1081.786, 1018.522
1082.268, 1020.752
1082.750, 1024.992
1083.232, 1027.116
1083.714, 1027.080
1084.197, 1028.242
1084.679, 1034.606
1085.161, 1041.642
1085.643, 1045.747
1086.125, 1047.655
1086.607, 1050.344
1087.089, 1053.952
1087.571, 1058.230
1088.054, 1063.300
1088.536, 1068.470
1089.018, 1072.713
1089.500, 1076.653
1089.982, 1081.602
1090.464, 1087.741
1090.946, 1091.953
1091.428, 1092.702
1091.911, 1092.985
1092.393, 1093.714
1092.875, 1094.533
1093.357, 1094.804
1093.839, 1094.449
1094.321, 1093.292
1094.803, 1091.391
1095.285, 1088.325
1095.767, 1082.755
1096.250, 1077.012
1096.732, 1072.744
1097.214, 1069.897
1097.696, 1066.722
1098.178, 1063.199
1098.660, 1059.099
1099.142, 1053.194
1099.624, 1047.937
1100.106, 1046.371
1100.589, 1046.217
1101.071, 1043.806
1101.553, 1038.432
1102.035, 1032.549
1102.517, 1026.052
1102.999, 1019.774
1103.481, 1014.452
1103.963, 1009.787
1104.446, 1005.854
1104.928, 1002.375
1105.410, 998.1713
1105.892, 991.9309
1106.374, 986.7869
1106.856, 983.2064
1107.338, 980.7115
1107.820, 979.4567
1108.302, 978.5629
1108.785, 975.3115
1109.267, 969.4225
1109.749, 964.3602
1110.231, 962.7297
1110.713, 960.8444
1111.195, 957.0175
1111.677, 952.1889
1112.159, 949.0409
1112.641, 947.3314
1113.124, 945.5148
1113.606, 943.1445
1114.088, 940.8239
1114.570, 938.9888
1115.052, 937.3625
1115.534, 935.9851
1116.016, 934.8100
1116.498, 931.9105
1116.981, 927.1719
1117.463, 923.5480
1117.945, 922.7175
1118.427, 922.9139
1118.909, 922.4659
1119.391, 921.8760
1119.873, 922.0237
1120.355, 923.7706
1120.838, 923.6009
1121.320, 921.0928
1121.802, 918.4389
1122.284, 917.5078
1122.766, 917.1594
1123.248, 915.2571
1123.730, 912.4742
1124.212, 910.6225
1124.694, 911.1023
1125.177, 911.3026
1125.659, 910.9362
1126.141, 910.4924
1126.623, 910.8307
1127.105, 911.4207
1127.587, 910.6500
1128.069, 908.6047
1128.551, 906.5867
1129.033, 904.6100
1129.516, 903.4968
1129.998, 903.6351
1130.480, 904.4590
1130.962, 905.0577
1131.444, 905.4823
1131.926, 906.2376
1132.408, 907.4315
1132.890, 908.0175
1133.373, 907.0099
1133.855, 905.5156
1134.337, 903.9730
1134.819, 902.5237
1135.301, 901.7229
1135.783, 901.5629
1136.265, 901.4401
1136.747, 901.2900
1137.229, 900.7812
1137.712, 898.9324
1138.194, 897.1084
1138.676, 896.8414
1139.158, 898.1230
1139.640, 898.4898
1140.122, 897.8573
1140.604, 897.0479
1141.086, 896.1544
1141.569, 895.6585
1142.051, 896.4139
1142.533, 897.7356
1143.015, 898.7413
1143.497, 899.3075
1143.979, 899.3378
1144.461, 898.6013
1144.943, 898.2385
1145.426, 899.3465
1145.908, 900.9056
1146.390, 901.3469
1146.872, 900.9446
1147.354, 900.2793
1147.836, 898.6440
1148.318, 898.3435
1148.800, 900.1070
1149.282, 901.6132
1149.765, 900.4079
1150.247, 897.7098
1150.729, 896.0205
1151.211, 895.3210
1151.693, 895.1896
1152.175, 896.0306
1152.657, 896.7095
1153.139, 897.1606
1153.621, 897.2379
1154.104, 896.4708
1154.586, 895.2049
1155.068, 894.5534
1155.550, 894.5729
1156.032, 895.0491
1156.514, 896.5471
1156.996, 897.6107
1157.478, 897.6111
1157.961, 898.2802
1158.443, 897.3024
1158.925, 897.9611
1159.407, 897.7938
1159.889, 896.5819
1160.371, 895.9141
1160.853, 897.7574
1161.335, 899.3131
1161.818, 898.9479
1162.300, 897.3068
1162.782, 895.9443
1163.264, 894.9191
1163.746, 895.2359
1164.228, 897.4319
1164.710, 898.9904
1165.192, 897.0120
1165.674, 894.6492
1166.156, 894.7558
1166.639, 896.7243
1167.121, 895.8727
1167.603, 892.2414
1168.085, 890.6525
1168.567, 893.5118
1169.049, 896.2529
1169.531, 893.8635
1170.013, 890.1542
1170.496, 889.1007
1170.978, 890.8139
1171.460, 892.3358
1171.942, 893.6812
1172.424, 894.5863
1172.906, 894.9796
1173.388, 894.7695
1173.870, 892.9250
1174.353, 890.8860
1174.835, 890.7973
1175.317, 893.1276
1175.799, 895.2416
1176.281, 897.2691
1176.763, 898.2020
1177.245, 896.8675
1177.727, 894.8350
1178.209, 893.6572
1178.692, 893.1140
1179.174, 892.8687
1179.656, 893.0358
1180.138, 892.9409
1180.620, 892.4791
1181.102, 892.2526
1181.584, 893.0092
1182.066, 893.9993
1182.548, 893.9538
1183.031, 894.9958
1183.513, 893.8375
1183.995, 896.2207
1184.477, 897.5737
1184.959, 897.6758
1185.441, 897.1815
1185.923, 896.3187
1186.405, 895.4579
1186.888, 895.1342
1187.370, 895.2746
1187.852, 895.6046
1188.334, 896.3666
1188.816, 896.3973
1189.298, 895.0859
1189.780, 894.7021
1190.262, 899.5623
1190.745, 905.7226
1191.227, 906.4612
1191.709, 902.4986
1192.191, 899.6416
1192.673, 899.9799
1193.155, 899.6142
1193.637, 897.8232
1194.119, 895.7145
1194.601, 894.0007
1195.084, 893.1443
1195.566, 894.3449
1196.048, 897.4667
1196.530, 900.1960
1197.012, 902.5732
1197.494, 903.4963
1197.976, 902.4337
1198.458, 900.5889
1198.941, 898.9941
1199.423, 898.0847
1199.905, 899.1987
1200.387, 902.3785
1200.869, 904.2742
1201.351, 903.9201
1201.833, 902.8481
1202.315, 901.1552
1202.797, 899.4669
1203.280, 899.1046
1203.762, 899.3563
1204.244, 898.5188
1204.726, 896.2289
1205.208, 896.1972
1205.690, 900.8837
1206.172, 903.8731
1206.654, 902.5764
1207.136, 899.8867
1207.619, 901.5825
1208.101, 905.2495
1208.583, 906.2391
1209.065, 903.2086
1209.547, 901.9288
1210.029, 904.1914
1210.511, 905.9037
1210.993, 905.1382
1211.476, 903.7823
1211.958, 906.2925
1212.440, 910.3954
1212.922, 911.6663
1213.404, 908.5684
1213.886, 906.3107
1214.368, 905.7078
1214.850, 905.4160
1215.333, 904.7888
1215.815, 904.3052
1216.297, 905.0474
1216.779, 906.5123
1217.261, 907.7994
1217.743, 908.6952
1218.225, 909.6693
1218.707, 911.2283
1219.189, 911.5546
1219.672, 909.0772
1220.154, 905.7902
1220.636, 905.7613
1221.118, 907.4632
1221.600, 908.0745
1222.082, 906.2833
1222.564, 905.5254
1223.046, 906.0758
1223.528, 907.2761
1224.011, 909.0104
1224.493, 910.9205
1224.975, 912.8593
1225.457, 914.3784
1225.939, 914.6024
1226.421, 912.5433
1226.903, 911.4332
1227.385, 911.6296
1227.868, 911.5317
1228.350, 909.5922
1228.832, 907.5736
1229.314, 909.1085
1229.796, 912.1749
1230.278, 913.1163
1230.760, 909.7818
1231.242, 908.8049
1231.724, 910.6817
1232.207, 912.5283
1232.689, 912.7059
1233.171, 911.8373
1233.653, 909.9549
1234.135, 907.8818
1234.617, 907.1965
1235.099, 908.9756
1235.581, 908.7426
1236.063, 906.1116
1236.546, 904.2727
1237.028, 906.2462
1237.510, 908.9404
1237.992, 908.5372
1238.474, 906.8443
1238.956, 907.0593
1239.438, 910.0558
1239.920, 911.9017
1240.403, 912.5500
1240.885, 912.2465
1241.367, 909.7911
1241.849, 907.8162
1242.331, 909.2747
1242.813, 912.3948
1243.295, 914.5604
1243.777, 915.6473
1244.260, 915.9395
1244.742, 915.4366
1245.224, 914.7780
1245.706, 913.7590
1246.188, 913.3798
1246.670, 915.4684
1247.152, 917.9310
1247.634, 917.7574
1248.116, 914.6834
1248.599, 912.8120
1249.081, 912.1594
1249.563, 912.3854
1250.045, 913.7987
1250.527, 915.4584
1251.009, 917.5226
1251.491, 919.0616
1251.973, 918.8339
1252.455, 916.9366
1252.938, 915.9782
1253.420, 915.8545
1253.902, 915.5508
1254.384, 913.6955
1254.866, 912.6378
1255.348, 914.0067
1255.830, 915.7513
1256.313, 915.9107
1256.795, 914.8039
1257.277, 914.1109
1257.759, 913.9418
1258.241, 914.6952
1258.723, 917.6973
1259.205, 920.0306
1259.687, 921.1677
1260.169, 921.4852
1260.651, 921.0089
1261.134, 920.0194
1261.616, 919.3480
1262.098, 918.9727
1262.580, 918.7795
1263.062, 918.5407
1263.544, 918.9297
1264.026, 920.5148
1264.508, 921.5092
1264.991, 919.3527
1265.473, 916.1637
1265.955, 916.2396
1266.437, 918.6946
1266.919, 921.1257
1267.401, 923.7820
1267.883, 924.4927
1268.365, 922.7265
1268.848, 921.0399
1269.330, 921.9335
1269.812, 923.6314
1270.294, 923.1980
1270.776, 925.2980
1271.258, 923.0487
1271.740, 928.1570
1272.222, 931.1139
1272.704, 931.7930
1273.187, 930.4330
1273.669, 924.3124
1274.151, 919.0646
1274.633, 921.6505
1275.115, 927.5034
1275.597, 929.1000
1276.079, 925.5164
1276.561, 923.1859
1277.043, 922.1349
1277.526, 921.5251
1278.008, 920.6651
1278.490, 920.3568
1278.972, 921.8811
1279.454, 923.6353
1279.936, 923.7841
1280.418, 922.4076
1280.900, 922.0988
1281.383, 922.6639
1281.865, 922.8720
1282.347, 921.1683
1282.829, 920.3425
1283.311, 921.8212
1283.793, 923.8624
1284.275, 925.3271
1284.757, 926.2545
1285.240, 926.7395
1285.722, 926.8544
1286.204, 926.8227
1286.686, 926.7175
1287.168, 926.4703
1287.650, 925.9271
1288.132, 925.6415
1288.614, 926.1066
1289.096, 927.0281
1289.578, 927.9697
1290.061, 928.8492
1290.543, 929.4966
1291.025, 929.8495
1291.507, 929.9812
1291.989, 929.9602
1292.471, 929.2644
1292.953, 926.8972
1293.435, 924.5797
1293.918, 924.4516
1294.400, 925.6703
1294.882, 927.3358
1295.364, 929.5803
1295.846, 929.9684
1296.328, 928.4902
1296.810, 926.8522
1297.292, 925.2775
1297.775, 924.6970
1298.257, 927.5826
1298.739, 930.5233
1299.221, 929.9972
1299.703, 926.4759
1300.185, 924.8926
1300.667, 925.0110
1301.149, 925.3456
1301.631, 925.2596
1302.114, 925.1609
1302.596, 926.2293
##END=



