##NAMES=Bobdownsite
##RRUFFID=R070653
##IDEAL CHEMISTRY=Ca_9_Mg(PO_4_)_6_(PO_3_F)
##LOCALITY=Tip Top mine, Custer County, South Dakota, USA
##OWNER=RRUFF
##SOURCE=Rock Currier
##DESCRIPTION=Colorless rhombohedral crystals embedded in a fine-grained matrix
##STATUS=The identification of this mineral is confirmed by single-crystal X-ray diffraction and chemical analysis.
##URL=rruff.info/R070653
##MEASURED CHEMISTRY=(Ca_8.97_Na_0.03_)_Σ=9_(Mg_0.97_Al_0.03_)_Σ=1_(P_1.00_O_3_(F_0.83_(OH)_0.17_)_Σ=1_)(P_1.00_O_4_)_6_; OH estimated by difference
186.0645, 116253.7
186.5466, 116271.7
187.0287, 116273.6
187.5108, 116242.5
187.9930, 116194.9
188.4751, 116150.3
188.9572, 116120.1
189.4393, 116103.0
189.9214, 116092.5
190.4035, 116105.7
190.8857, 116107.6
191.3678, 116076.2
191.8499, 116031.0
192.3320, 116012.1
192.8141, 116049.6
193.2962, 116129.6
193.7784, 116139.3
194.2605, 116019.9
194.7426, 115910.5
195.2247, 115855.9
195.7068, 115848.7
196.1889, 115866.0
196.6711, 115901.1
197.1532, 115946.6
197.6353, 115968.2
198.1174, 115956.8
198.5995, 115931.8
199.0816, 115897.0
199.5638, 115854.1
200.0459, 115816.4
200.5280, 115790.0
201.0101, 115776.3
201.4922, 115774.4
201.9743, 115798.0
202.4565, 115820.3
202.9386, 115819.1
203.4207, 115794.4
203.9028, 115757.2
204.3849, 115694.2
204.8670, 115630.3
205.3492, 115605.9
205.8313, 115648.1
206.3134, 115707.3
206.7955, 115719.2
207.2776, 115675.3
207.7597, 115624.4
208.2419, 115584.6
208.7240, 115550.1
209.2061, 115514.7
209.6882, 115473.5
210.1703, 115435.6
210.6524, 115420.3
211.1346, 115437.9
211.6167, 115450.1
212.0988, 115443.4
212.5809, 115426.2
213.0630, 115404.5
213.5451, 115379.2
214.0273, 115354.8
214.5094, 115343.5
214.9915, 115357.3
215.4736, 115362.0
215.9557, 115357.8
216.4378, 115340.7
216.9200, 115299.0
217.4021, 115226.8
217.8842, 115143.5
218.3663, 115108.5
218.8484, 115185.0
219.3305, 115219.1
219.8127, 115167.9
220.2948, 115079.9
220.7769, 115007.7
221.2590, 114975.3
221.7411, 114966.3
222.2232, 114931.0
222.7054, 114813.4
223.1875, 114737.6
223.6696, 114739.2
224.1517, 114776.2
224.6338, 114800.9
225.1159, 114792.1
225.5980, 114760.9
226.0802, 114739.3
226.5623, 114759.3
227.0444, 114750.4
227.5265, 114673.7
228.0086, 114574.8
228.4907, 114515.2
228.9729, 114522.0
229.4550, 114572.5
229.9371, 114610.8
230.4192, 114646.1
230.9013, 114656.7
231.3834, 114622.1
231.8656, 114564.1
232.3477, 114512.8
232.8298, 114478.7
233.3119, 114459.3
233.7940, 114452.9
234.2761, 114466.2
234.7583, 114472.0
235.2404, 114460.6
235.7225, 114437.0
236.2046, 114409.4
236.6867, 114379.7
237.1688, 114347.6
237.6510, 114309.8
238.1331, 114263.6
238.6152, 114224.3
239.0973, 114207.1
239.5794, 114199.4
240.0615, 114167.6
240.5437, 114091.5
241.0258, 114012.0
241.5079, 113992.5
241.9900, 114032.4
242.4721, 114063.0
242.9542, 114051.3
243.4364, 114009.6
243.9185, 113966.8
244.4006, 113926.4
244.8827, 113891.4
245.3648, 113867.4
245.8469, 113853.3
246.3290, 113837.2
246.8112, 113816.8
247.2933, 113790.8
247.7754, 113752.2
248.2575, 113693.7
248.7396, 113633.1
249.2217, 113581.3
249.7039, 113537.5
250.1860, 113501.1
250.6681, 113475.4
251.1502, 113457.3
251.6323, 113437.4
252.1144, 113418.8
252.5966, 113390.9
253.0787, 113336.5
253.5608, 113268.7
254.0429, 113216.8
254.5250, 113209.8
255.0071, 113232.9
255.4893, 113225.2
255.9714, 113168.4
256.4535, 113109.9
256.9356, 113068.4
257.4177, 113040.3
257.8998, 113019.7
258.3820, 113004.7
258.8641, 112994.4
259.3462, 112987.9
259.8283, 112996.6
260.3104, 112988.9
260.7925, 112946.6
261.2747, 112886.7
261.7568, 112830.5
262.2389, 112788.3
262.7210, 112756.7
263.2031, 112726.6
263.6852, 112699.5
264.1674, 112671.3
264.6495, 112651.5
265.1316, 112626.9
265.6137, 112576.3
266.0958, 112488.8
266.5779, 112388.8
267.0601, 112337.6
267.5422, 112365.8
268.0243, 112391.5
268.5064, 112414.9
268.9885, 112425.0
269.4706, 112407.4
269.9528, 112357.9
270.4349, 112291.1
270.9170, 112234.7
271.3991, 112193.8
271.8812, 112154.2
272.3633, 112110.2
272.8455, 112069.8
273.3276, 112042.1
273.8097, 112028.0
274.2918, 112017.8
274.7739, 111993.6
275.2560, 111934.8
275.7382, 111907.4
276.2202, 111944.6
276.7024, 111981.3
277.1845, 111968.4
277.6666, 111903.8
278.1487, 111826.5
278.6308, 111786.2
279.1129, 111801.7
279.5951, 111787.6
280.0772, 111705.8
280.5593, 111631.5
281.0414, 111623.8
281.5235, 111669.5
282.0056, 111702.3
282.4878, 111653.9
282.9699, 111508.2
283.4520, 111395.6
283.9341, 111339.6
284.4162, 111289.0
284.8983, 111222.5
285.3805, 111144.2
285.8626, 111069.2
286.3447, 111009.2
286.8268, 110964.6
287.3089, 110927.6
287.7910, 110904.3
288.2732, 110882.3
288.7553, 110862.4
289.2374, 110841.2
289.7195, 110813.5
290.2016, 110775.5
290.6837, 110728.7
291.1659, 110679.3
291.6480, 110617.8
292.1301, 110563.9
292.6122, 110525.1
293.0943, 110494.1
293.5764, 110459.9
294.0586, 110417.1
294.5407, 110370.3
295.0228, 110331.6
295.5049, 110316.7
295.9870, 110291.0
296.4691, 110245.8
296.9513, 110193.0
297.4334, 110144.6
297.9155, 110104.6
298.3976, 110071.4
298.8797, 110042.8
299.3618, 110031.5
299.8440, 109999.2
300.3261, 109921.8
300.8082, 109839.0
301.2903, 109785.1
301.7724, 109765.1
302.2545, 109757.6
302.7367, 109736.3
303.2188, 109694.0
303.7009, 109664.4
304.1830, 109664.3
304.6651, 109660.9
305.1472, 109629.3
305.6294, 109571.7
306.1115, 109509.6
306.5936, 109462.0
307.0757, 109429.4
307.5578, 109390.9
308.0399, 109340.0
308.5221, 109290.9
309.0042, 109253.1
309.4863, 109222.7
309.9684, 109189.5
310.4505, 109148.3
310.9326, 109098.7
311.4148, 109036.4
311.8969, 108928.1
312.3790, 108848.0
312.8611, 108837.1
313.3432, 108862.3
313.8253, 108868.4
314.3075, 108829.8
314.7896, 108763.4
315.2717, 108712.1
315.7538, 108697.3
316.2359, 108667.5
316.7180, 108597.6
317.2001, 108520.5
317.6823, 108479.1
318.1644, 108484.4
318.6465, 108504.0
319.1286, 108487.3
319.6107, 108408.2
320.0928, 108354.3
320.5750, 108337.5
321.0571, 108334.9
321.5392, 108334.0
322.0213, 108330.4
322.5034, 108320.1
322.9855, 108300.2
323.4677, 108270.3
323.9498, 108219.8
324.4319, 108116.3
324.9140, 108024.1
325.3961, 107988.5
325.8782, 107994.9
326.3604, 107993.9
326.8425, 107950.6
327.3246, 107869.2
327.8067, 107792.0
328.2888, 107716.5
328.7709, 107649.4
329.2531, 107609.8
329.7352, 107578.1
330.2173, 107516.8
330.6994, 107406.7
331.1815, 107271.8
331.6636, 107175.6
332.1458, 107150.4
332.6279, 107128.0
333.1100, 107115.2
333.5921, 107100.5
334.0742, 107066.1
334.5563, 107009.1
335.0385, 106950.4
335.5206, 106922.5
336.0027, 106945.1
336.4848, 106947.0
336.9669, 106911.8
337.4490, 106870.4
337.9312, 106844.7
338.4133, 106834.1
338.8954, 106823.3
339.3775, 106798.9
339.8596, 106760.1
340.3417, 106711.7
340.8239, 106636.5
341.3060, 106570.1
341.7881, 106531.3
342.2702, 106510.2
342.7523, 106487.6
343.2344, 106452.1
343.7166, 106404.1
344.1987, 106347.4
344.6808, 106271.1
345.1629, 106197.3
345.6450, 106114.2
346.1271, 106040.7
346.6093, 106008.1
347.0914, 106025.9
347.5735, 106061.0
348.0556, 106050.1
348.5377, 105971.4
349.0198, 105883.7
349.5020, 105772.1
349.9841, 105665.2
350.4662, 105589.4
350.9483, 105544.1
351.4304, 105503.5
351.9125, 105437.5
352.3947, 105339.1
352.8768, 105264.8
353.3589, 105229.1
353.8410, 105202.8
354.3231, 105177.5
354.8052, 105153.5
355.2874, 105136.8
355.7695, 105134.8
356.2516, 105140.0
356.7337, 105107.8
357.2158, 105002.8
357.6979, 104906.4
358.1800, 104834.4
358.6621, 104777.8
359.1443, 104730.6
359.6264, 104690.3
360.1085, 104649.7
360.5906, 104590.4
361.0727, 104494.8
361.5548, 104428.2
362.0370, 104431.1
362.5191, 104437.7
363.0012, 104405.2
363.4833, 104331.2
363.9654, 104244.9
364.4475, 104172.0
364.9297, 104112.7
365.4118, 104062.1
365.8939, 104026.9
366.3760, 103992.6
366.8581, 103946.1
367.3402, 103895.9
367.8224, 103861.3
368.3045, 103862.6
368.7866, 103880.5
369.2687, 103853.7
369.7508, 103760.4
370.2329, 103670.8
370.7151, 103612.0
371.1972, 103567.5
371.6793, 103523.2
372.1614, 103476.7
372.6435, 103425.1
373.1256, 103363.0
373.6078, 103290.2
374.0899, 103218.2
374.5720, 103135.2
375.0541, 103068.6
375.5362, 103054.9
376.0183, 103086.4
376.5005, 103095.7
376.9826, 103015.8
377.4647, 102874.3
377.9468, 102774.1
378.4289, 102730.8
378.9110, 102707.1
379.3932, 102687.3
379.8753, 102667.4
380.3574, 102639.9
380.8395, 102602.8
381.3216, 102556.2
381.8037, 102493.4
382.2859, 102413.6
382.7680, 102348.4
383.2501, 102323.2
383.7322, 102314.1
384.2143, 102283.1
384.6964, 102227.6
385.1786, 102160.5
385.6607, 102084.9
386.1428, 102004.5
386.6249, 101924.6
387.1070, 101844.0
387.5891, 101774.6
388.0713, 101741.2
388.5534, 101740.2
389.0355, 101724.1
389.5176, 101666.6
389.9997, 101600.4
390.4818, 101561.2
390.9640, 101549.4
391.4461, 101539.8
391.9282, 101513.4
392.4103, 101475.0
392.8924, 101449.9
393.3745, 101446.4
393.8567, 101444.9
394.3388, 101434.6
394.8209, 101420.3
395.3030, 101411.7
395.7851, 101411.7
396.2672, 101418.3
396.7494, 101429.8
397.2315, 101451.4
397.7136, 101462.6
398.1957, 101467.5
398.6778, 101457.6
399.1599, 101420.4
399.6420, 101357.9
400.1241, 101288.7
400.6063, 101228.4
401.0884, 101177.2
401.5705, 101130.9
402.0526, 101102.8
402.5347, 101065.8
403.0168, 101001.2
403.4990, 100925.3
403.9811, 100868.6
404.4632, 100847.0
404.9453, 100841.0
405.4274, 100800.7
405.9095, 100699.6
406.3917, 100610.3
406.8738, 100546.0
407.3559, 100485.9
407.8380, 100407.5
408.3201, 100312.9
408.8022, 100228.4
409.2844, 100183.9
409.7665, 100183.1
410.2486, 100161.8
410.7307, 100101.0
411.2128, 100037.4
411.6949, 99975.36
412.1771, 99917.88
412.6592, 99869.77
413.1413, 99834.64
413.6234, 99805.30
414.1055, 99765.89
414.5876, 99712.67
415.0698, 99660.18
415.5519, 99625.11
416.0340, 99583.61
416.5161, 99508.98
416.9982, 99401.11
417.4803, 99302.34
417.9625, 99251.12
418.4446, 99242.30
418.9267, 99239.74
419.4088, 99246.30
419.8909, 99249.81
420.3730, 99249.94
420.8552, 99241.39
421.3373, 99210.09
421.8194, 99139.62
422.3015, 99056.36
422.7836, 98994.43
423.2657, 98953.55
423.7479, 98907.20
424.2300, 98845.27
424.7121, 98771.58
425.1942, 98690.61
425.6763, 98600.16
426.1584, 98515.72
426.6406, 98437.29
427.1227, 98371.30
427.6048, 98332.21
428.0869, 98323.27
428.5690, 98329.51
429.0511, 98346.40
429.5333, 98371.85
430.0154, 98362.09
430.4975, 98294.15
430.9796, 98212.32
431.4617, 98135.20
431.9438, 98063.73
432.4260, 97995.20
432.9081, 97927.36
433.3902, 97866.29
433.8723, 97828.70
434.3544, 97842.43
434.8365, 97832.07
435.3187, 97774.98
435.8008, 97705.52
436.2829, 97656.69
436.7650, 97628.82
437.2471, 97595.14
437.7292, 97529.17
438.2114, 97429.59
438.6935, 97339.77
439.1756, 97260.50
439.6577, 97191.01
440.1398, 97126.48
440.6219, 97074.34
441.1040, 97054.97
441.5862, 97077.02
442.0683, 97106.88
442.5504, 97078.23
443.0325, 96969.77
443.5146, 96869.73
443.9967, 96779.20
444.4789, 96705.33
444.9610, 96658.06
445.4431, 96633.47
445.9252, 96617.42
446.4073, 96608.98
446.8894, 96599.88
447.3716, 96550.56
447.8537, 96437.86
448.3358, 96341.76
448.8179, 96315.86
449.3000, 96315.77
449.7821, 96291.23
450.2643, 96226.58
450.7464, 96160.58
451.2285, 96134.92
451.7106, 96139.52
452.1927, 96123.34
452.6748, 96069.82
453.1570, 96006.70
453.6391, 95965.39
454.1212, 95940.38
454.6033, 95905.79
455.0854, 95848.45
455.5675, 95784.63
456.0497, 95723.55
456.5318, 95667.45
457.0139, 95627.27
457.4960, 95613.94
457.9781, 95613.99
458.4602, 95590.43
458.9424, 95544.64
459.4245, 95479.34
459.9066, 95369.93
460.3887, 95255.67
460.8708, 95184.73
461.3529, 95159.93
461.8351, 95139.45
462.3172, 95081.63
462.7993, 94984.99
463.2814, 94906.68
463.7635, 94869.39
464.2456, 94822.71
464.7278, 94741.17
465.2099, 94646.00
465.6920, 94568.30
466.1741, 94519.38
466.6562, 94484.81
467.1383, 94441.92
467.6205, 94390.26
468.1026, 94329.80
468.5847, 94255.37
469.0668, 94176.74
469.5489, 94094.51
470.0310, 94011.73
470.5132, 93935.96
470.9953, 93873.60
471.4774, 93819.98
471.9595, 93761.64
472.4416, 93696.35
472.9237, 93636.73
473.4059, 93602.50
473.8880, 93567.09
474.3701, 93500.77
474.8522, 93399.67
475.3343, 93299.60
475.8164, 93221.09
476.2986, 93161.48
476.7807, 93118.52
477.2628, 93095.88
477.7449, 93068.02
478.2270, 93008.30
478.7091, 92926.05
479.1913, 92863.22
479.6734, 92834.83
480.1555, 92811.26
480.6376, 92775.16
481.1197, 92732.80
481.6018, 92703.55
482.0839, 92695.31
482.5660, 92680.38
483.0482, 92614.89
483.5303, 92475.13
484.0124, 92372.07
484.4945, 92328.05
484.9766, 92297.38
485.4587, 92266.60
485.9409, 92228.58
486.4230, 92168.99
486.9051, 92077.63
487.3872, 91971.36
487.8693, 91902.43
488.3514, 91901.36
488.8336, 91879.63
489.3157, 91829.19
489.7978, 91761.37
490.2799, 91675.59
490.7620, 91577.73
491.2441, 91485.89
491.7263, 91420.50
492.2084, 91373.42
492.6905, 91299.81
493.1726, 91184.22
493.6547, 91080.92
494.1368, 91020.57
494.6190, 90980.84
495.1011, 90940.48
495.5832, 90895.36
496.0653, 90854.05
496.5474, 90835.16
497.0295, 90825.64
497.5117, 90780.55
497.9938, 90685.96
498.4759, 90584.31
498.9580, 90510.06
499.4401, 90457.75
499.9222, 90398.36
500.4044, 90319.55
500.8865, 90243.36
501.3686, 90177.17
501.8507, 90121.83
502.3328, 90081.05
502.8149, 90056.81
503.2971, 90038.69
503.7792, 90014.12
504.2613, 89986.83
504.7434, 89936.16
505.2255, 89846.63
505.7076, 89752.70
506.1898, 89664.87
506.6719, 89586.30
507.1540, 89522.79
507.6361, 89477.98
508.1182, 89442.89
508.6003, 89393.67
509.0825, 89317.21
509.5646, 89262.09
510.0467, 89262.00
510.5288, 89259.38
511.0109, 89221.73
511.4930, 89152.38
511.9752, 89071.45
512.4573, 88979.48
512.9394, 88891.63
513.4215, 88853.33
513.9036, 88874.87
514.3857, 88878.48
514.8679, 88825.54
515.3500, 88744.98
515.8321, 88675.45
516.3142, 88618.86
516.7963, 88561.85
517.2784, 88487.73
517.7606, 88414.59
518.2427, 88377.51
518.7248, 88376.89
519.2069, 88365.32
519.6890, 88309.30
520.1711, 88217.37
520.6533, 88133.47
521.1354, 88054.09
521.6175, 87985.11
522.0996, 87941.86
522.5817, 87901.41
523.0638, 87832.70
523.5460, 87736.20
524.0281, 87644.89
524.5102, 87591.27
524.9923, 87574.63
525.4744, 87566.30
525.9565, 87600.54
526.4387, 87596.19
526.9208, 87504.92
527.4029, 87385.89
527.8850, 87302.98
528.3671, 87271.61
528.8492, 87256.42
529.3314, 87225.98
529.8135, 87180.88
530.2956, 87122.20
530.7777, 87045.45
531.2598, 86965.51
531.7419, 86886.98
532.2241, 86812.81
532.7062, 86747.86
533.1883, 86695.73
533.6704, 86647.98
534.1525, 86600.66
534.6346, 86552.98
535.1168, 86499.61
535.5989, 86438.15
536.0810, 86382.40
536.5631, 86349.55
537.0452, 86340.70
537.5273, 86317.01
538.0095, 86262.82
538.4916, 86212.30
538.9737, 86181.05
539.4558, 86160.21
539.9379, 86137.67
540.4200, 86109.16
540.9022, 86074.84
541.3843, 86035.62
541.8664, 85992.30
542.3485, 85940.58
542.8306, 85861.55
543.3127, 85796.19
543.7948, 85772.46
544.2769, 85766.60
544.7590, 85742.13
545.2411, 85684.77
545.7233, 85612.21
546.2054, 85538.73
546.6875, 85465.36
547.1696, 85416.76
547.6517, 85404.86
548.1339, 85401.73
548.6160, 85385.66
549.0981, 85359.44
549.5802, 85329.91
550.0623, 85296.27
550.5444, 85261.40
551.0266, 85229.35
551.5087, 85196.99
551.9908, 85157.58
552.4729, 85109.16
552.9550, 85051.70
553.4371, 84981.43
553.9193, 84891.30
554.4014, 84834.70
554.8835, 84851.80
555.3656, 84854.16
555.8477, 84800.02
556.3298, 84714.28
556.8120, 84635.27
557.2941, 84576.77
557.7762, 84527.94
558.2583, 84472.52
558.7404, 84409.46
559.2225, 84351.22
559.7047, 84305.59
560.1868, 84254.62
560.6689, 84181.48
561.1510, 84099.45
561.6331, 84031.56
562.1152, 83988.06
562.5974, 83950.56
563.0795, 83905.09
563.5616, 83851.70
564.0437, 83790.06
564.5258, 83718.80
565.0079, 83643.45
565.4901, 83564.80
565.9722, 83484.86
566.4543, 83424.22
566.9364, 83399.77
567.4185, 83376.04
567.9006, 83340.42
568.3828, 83297.70
568.8649, 83258.89
569.3470, 83225.53
569.8291, 83180.37
570.3112, 83099.42
570.7933, 82978.90
571.2755, 82887.61
571.7576, 82848.23
572.2397, 82810.18
572.7218, 82757.23
573.2039, 82700.45
573.6860, 82651.21
574.1682, 82611.99
574.6503, 82581.84
575.1324, 82564.94
575.6145, 82556.92
576.0966, 82540.77
576.5787, 82516.30
577.0609, 82478.67
577.5430, 82416.74
578.0251, 82341.98
578.5072, 82282.77
578.9893, 82245.20
579.4714, 82210.75
579.9536, 82180.70
580.4357, 82145.89
580.9178, 82093.24
581.3999, 82022.64
581.8820, 81941.33
582.3641, 81851.17
582.8463, 81758.49
583.3284, 81698.33
583.8105, 81692.30
584.2926, 81690.08
584.7747, 81715.23
585.2568, 81722.76
585.7390, 81662.25
586.2211, 81544.98
586.7032, 81435.36
587.1853, 81383.27
587.6674, 81368.83
588.1495, 81337.70
588.6317, 81286.27
589.1138, 81240.85
589.5959, 81209.20
590.0780, 81187.98
590.5601, 81180.77
591.0422, 81187.02
591.5244, 81170.53
592.0065, 81104.55
592.4886, 81023.04
592.9707, 80947.61
593.4528, 80882.53
593.9349, 80840.86
594.4171, 80830.35
594.8992, 80830.50
595.3813, 80801.84
595.8634, 80719.54
596.3455, 80682.42
596.8276, 80744.27
597.3098, 80787.88
597.7919, 80752.98
598.2740, 80668.70
598.7561, 80586.27
599.2382, 80526.16
599.7203, 80478.61
600.2025, 80431.43
600.6846, 80384.71
601.1667, 80342.38
601.6488, 80309.34
602.1309, 80273.15
602.6130, 80223.23
603.0952, 80164.91
603.5773, 80109.11
604.0594, 80058.11
604.5415, 80008.90
605.0236, 79965.47
605.5057, 79920.75
605.9879, 79856.71
606.4700, 79773.54
606.9521, 79701.51
607.4342, 79669.03
607.9163, 79668.78
608.3984, 79645.68
608.8806, 79569.02
609.3627, 79510.14
609.8448, 79485.86
610.3269, 79471.82
610.8090, 79452.95
611.2911, 79425.80
611.7733, 79389.79
612.2554, 79341.98
612.7375, 79287.27
613.2196, 79235.40
613.7017, 79185.81
614.1838, 79144.88
614.6660, 79122.41
615.1481, 79100.14
615.6302, 79052.94
616.1123, 78983.05
616.5944, 78917.84
617.0765, 78874.18
617.5587, 78826.92
618.0408, 78744.71
618.5229, 78647.80
619.0050, 78586.10
619.4871, 78576.25
619.9692, 78581.55
620.4514, 78550.30
620.9335, 78474.70
621.4156, 78419.73
621.8977, 78412.95
622.3798, 78393.92
622.8619, 78340.25
623.3441, 78269.97
623.8262, 78203.16
624.3083, 78145.02
624.7904, 78090.00
625.2725, 78033.34
625.7546, 77983.12
626.2367, 77927.13
626.7188, 77885.83
627.2009, 77842.45
627.6830, 77796.44
628.1652, 77741.26
628.6473, 77654.05
629.1294, 77520.11
629.6115, 77408.38
630.0936, 77334.27
630.5757, 77280.54
631.0579, 77244.34
631.5400, 77217.05
632.0221, 77179.82
632.5042, 77122.97
632.9863, 77058.39
633.4684, 77011.79
633.9506, 76989.70
634.4327, 76950.27
634.9148, 76873.80
635.3969, 76802.09
635.8790, 76761.05
636.3611, 76736.58
636.8433, 76704.27
637.3254, 76657.45
637.8075, 76604.27
638.2896, 76547.49
638.7717, 76489.63
639.2538, 76436.95
639.7360, 76390.19
640.2181, 76339.41
640.7002, 76277.62
641.1823, 76206.65
641.6644, 76132.85
642.1465, 76044.35
642.6287, 75971.20
643.1108, 75928.41
643.5929, 75889.23
644.0750, 75830.93
644.5571, 75760.62
645.0392, 75702.30
645.5214, 75671.25
646.0035, 75653.87
646.4856, 75629.90
646.9677, 75599.37
647.4498, 75558.66
647.9319, 75502.84
648.4141, 75445.41
648.8962, 75399.72
649.3783, 75361.31
649.8604, 75315.39
650.3425, 75249.77
650.8246, 75190.39
651.3068, 75155.38
651.7889, 75127.45
652.2710, 75086.27
652.7531, 75028.99
653.2352, 74960.37
653.7173, 74880.38
654.1995, 74798.06
654.6816, 74756.07
655.1637, 74779.22
655.6458, 74783.34
656.1279, 74739.92
656.6100, 74686.41
657.0922, 74640.27
657.5743, 74601.89
658.0564, 74569.58
658.5385, 74551.89
659.0206, 74526.93
659.5027, 74468.11
659.9849, 74385.39
660.4670, 74306.58
660.9491, 74238.36
661.4312, 74169.90
661.9133, 74088.71
662.3954, 73996.80
662.8776, 73923.52
663.3597, 73891.40
663.8418, 73849.20
664.3239, 73774.59
664.8060, 73701.48
665.2881, 73660.53
665.7703, 73649.20
666.2524, 73645.50
666.7345, 73643.18
667.2166, 73628.84
667.6987, 73566.71
668.1808, 73458.55
668.6630, 73368.51
669.1451, 73315.08
669.6272, 73275.95
670.1093, 73233.95
670.5914, 73188.20
671.0735, 73137.17
671.5557, 73066.36
672.0378, 73006.89
672.5199, 72980.64
673.0020, 72963.83
673.4841, 72927.72
673.9662, 72871.13
674.4484, 72815.48
674.9305, 72779.11
675.4126, 72752.91
675.8947, 72702.59
676.3768, 72620.94
676.8589, 72548.61
677.3411, 72496.09
677.8232, 72453.19
678.3053, 72414.42
678.7874, 72378.80
679.2695, 72342.51
679.7516, 72316.20
680.2338, 72275.03
680.7159, 72184.34
681.1980, 72077.08
681.6801, 72006.50
682.1622, 71980.23
682.6443, 71971.64
683.1265, 71961.91
683.6086, 71947.70
684.0907, 71911.27
684.5728, 71837.19
685.0549, 71773.41
685.5370, 71728.23
686.0192, 71692.83
686.5013, 71668.11
686.9834, 71648.98
687.4655, 71623.41
687.9476, 71588.96
688.4297, 71542.64
688.9119, 71468.14
689.3940, 71382.33
689.8761, 71331.59
690.3582, 71323.08
690.8403, 71315.65
691.3224, 71277.47
691.8046, 71214.76
692.2867, 71154.90
692.7688, 71108.75
693.2509, 71049.17
693.7330, 70957.30
694.2151, 70870.63
694.6973, 70815.52
695.1794, 70783.70
695.6615, 70752.86
696.1436, 70714.74
696.6257, 70669.80
697.1078, 70610.10
697.5900, 70543.11
698.0721, 70495.26
698.5542, 70470.73
699.0363, 70459.13
699.5184, 70459.48
700.0005, 70462.61
700.4827, 70436.79
700.9648, 70357.33
701.4469, 70287.80
701.9290, 70224.21
702.4111, 70174.86
702.8932, 70158.59
703.3754, 70157.91
703.8575, 70134.50
704.3396, 70071.34
704.8217, 70001.59
705.3038, 69977.61
705.7859, 69985.11
706.2681, 69944.41
706.7502, 69840.91
707.2323, 69750.05
707.7144, 69715.50
708.1965, 69718.50
708.6786, 69721.22
709.1607, 69737.69
709.6428, 69712.98
710.1249, 69601.87
710.6071, 69489.67
711.0892, 69434.81
711.5713, 69409.75
712.0534, 69355.73
712.5355, 69254.77
713.0176, 69159.52
713.4998, 69145.94
713.9819, 69193.87
714.4640, 69190.17
714.9461, 69128.63
715.4282, 69044.97
715.9103, 68934.91
716.3925, 68832.61
716.8746, 68801.38
717.3567, 68850.59
717.8388, 68878.98
718.3209, 68883.61
718.8030, 68859.38
719.2852, 68783.79
719.7673, 68686.55
720.2494, 68603.07
720.7315, 68543.04
721.2136, 68500.67
721.6957, 68477.67
722.1779, 68464.53
722.6600, 68423.83
723.1421, 68350.96
723.6242, 68287.05
724.1063, 68247.53
724.5884, 68215.48
725.0706, 68174.13
725.5527, 68123.91
726.0348, 68074.40
726.5169, 68025.71
726.9990, 67978.53
727.4811, 67934.63
727.9633, 67891.57
728.4454, 67843.64
728.9275, 67793.54
729.4096, 67756.55
729.8917, 67748.48
730.3738, 67746.32
730.8560, 67690.73
731.3381, 67579.72
731.8202, 67495.01
732.3023, 67457.73
732.7844, 67428.97
733.2665, 67381.82
733.7487, 67320.05
734.2308, 67258.37
734.7129, 67190.17
735.1950, 67135.23
735.6771, 67115.54
736.1592, 67095.26
736.6414, 67031.59
737.1235, 66944.54
737.6056, 66894.95
738.0877, 66911.07
738.5698, 66936.71
739.0519, 66880.75
739.5341, 66755.22
740.0162, 66671.82
740.4983, 66642.08
740.9804, 66627.55
741.4625, 66617.72
741.9446, 66604.99
742.4268, 66573.30
742.9089, 66518.95
743.3910, 66465.78
743.8731, 66421.77
744.3552, 66372.45
744.8373, 66301.11
745.3195, 66224.49
745.8016, 66161.89
746.2837, 66120.05
746.7658, 66102.72
747.2479, 66129.19
747.7300, 66175.01
748.2122, 66167.84
748.6943, 66107.11
749.1764, 66042.30
749.6585, 65987.41
750.1406, 65932.75
750.6227, 65862.38
751.1049, 65778.09
751.5870, 65724.14
752.0691, 65741.99
752.5512, 65731.85
753.0333, 65647.80
753.5154, 65550.45
753.9976, 65489.95
754.4797, 65462.89
754.9618, 65438.44
755.4439, 65400.12
755.9260, 65375.21
756.4081, 65332.44
756.8903, 65315.83
757.3724, 65292.86
757.8545, 65261.60
758.3366, 65218.68
758.8187, 65158.23
759.3008, 65089.85
759.7830, 65037.60
760.2651, 65009.66
760.7472, 64979.32
761.2293, 64954.50
761.7114, 64919.59
762.1935, 64857.64
762.6757, 64787.33
763.1578, 64737.34
763.6399, 64713.39
764.1220, 64685.49
764.6041, 64620.66
765.0862, 64545.65
765.5684, 64506.71
766.0505, 64496.51
766.5326, 64476.86
767.0147, 64435.01
767.4968, 64384.74
767.9789, 64339.81
768.4611, 64299.93
768.9432, 64273.23
769.4253, 64269.82
769.9074, 64261.03
770.3895, 64240.96
770.8716, 64214.94
771.3538, 64189.07
771.8359, 64160.36
772.3180, 64117.54
772.8001, 64048.09
773.2822, 63982.19
773.7643, 63941.70
774.2465, 63917.45
774.7286, 63903.90
775.2107, 63895.41
775.6928, 63872.00
776.1749, 63821.74
776.6570, 63758.18
777.1392, 63709.45
777.6213, 63679.63
778.1034, 63634.38
778.5855, 63560.95
779.0676, 63497.13
779.5497, 63472.55
780.0319, 63458.89
780.5140, 63412.98
780.9961, 63329.98
781.4782, 63271.99
781.9603, 63281.51
782.4424, 63290.17
782.9246, 63252.86
783.4067, 63191.34
783.8888, 63134.08
784.3709, 63089.37
784.8530, 63060.04
785.3351, 63053.02
785.8173, 63055.24
786.2994, 63031.81
786.7815, 62982.65
787.2636, 62939.76
787.7457, 62912.19
788.2278, 62880.70
788.7100, 62827.75
789.1921, 62760.55
789.6742, 62708.51
790.1563, 62680.07
790.6384, 62651.51
791.1205, 62621.34
791.6026, 62592.04
792.0847, 62566.11
792.5668, 62542.20
793.0490, 62518.42
793.5311, 62494.44
794.0132, 62467.85
794.4953, 62436.26
794.9774, 62400.98
795.4595, 62363.98
795.9417, 62325.11
796.4238, 62283.04
796.9059, 62236.25
797.3880, 62195.36
797.8701, 62174.77
798.3522, 62171.48
798.8344, 62145.10
799.3165, 62072.93
799.7986, 62019.03
800.2807, 62017.05
800.7628, 62013.79
801.2449, 61972.74
801.7271, 61905.26
802.2092, 61843.56
802.6913, 61791.84
803.1734, 61755.59
803.6555, 61743.51
804.1376, 61745.63
804.6198, 61759.14
805.1019, 61777.57
805.5840, 61789.76
806.0661, 61790.82
806.5482, 61773.58
807.0303, 61721.80
807.5125, 61640.40
807.9946, 61572.70
808.4767, 61520.30
808.9588, 61472.62
809.4409, 61425.63
809.9230, 61383.26
810.4052, 61353.30
810.8873, 61335.53
811.3694, 61304.90
811.8515, 61260.01
812.3336, 61203.87
812.8157, 61115.71
813.2979, 61033.61
813.7800, 60985.04
814.2621, 60969.59
814.7442, 60984.47
815.2263, 61036.14
815.7084, 61077.11
816.1906, 61048.18
816.6727, 60979.30
817.1548, 60929.59
817.6369, 60901.97
818.1190, 60883.34
818.6011, 60868.78
819.0833, 60850.94
819.5654, 60818.44
820.0475, 60770.48
820.5296, 60721.78
821.0117, 60666.95
821.4938, 60620.98
821.9760, 60588.80
822.4581, 60566.37
822.9402, 60558.49
823.4223, 60559.44
823.9044, 60542.87
824.3865, 60498.93
824.8687, 60444.70
825.3508, 60369.65
825.8329, 60300.38
826.3150, 60269.98
826.7971, 60268.87
827.2792, 60266.64
827.7614, 60250.04
828.2435, 60222.91
828.7256, 60189.30
829.2077, 60149.13
829.6898, 60101.25
830.1719, 60045.88
830.6541, 59984.04
831.1362, 59913.98
831.6183, 59845.54
832.1004, 59790.14
832.5825, 59747.82
833.0646, 59707.43
833.5468, 59672.30
834.0289, 59634.21
834.5110, 59590.12
834.9931, 59545.50
835.4752, 59501.95
835.9573, 59460.83
836.4395, 59423.03
836.9216, 59386.45
837.4037, 59361.84
837.8858, 59366.82
838.3679, 59377.56
838.8500, 59371.38
839.3322, 59349.31
839.8143, 59316.73
840.2964, 59276.37
840.7785, 59233.97
841.2606, 59195.96
841.7427, 59161.11
842.2249, 59124.01
842.7070, 59084.16
843.1891, 59051.96
843.6712, 59031.93
844.1533, 59013.00
844.6354, 58985.16
845.1176, 58961.00
845.5997, 58935.27
846.0818, 58902.30
846.5639, 58877.49
847.0460, 58841.44
847.5281, 58803.94
848.0103, 58770.84
848.4924, 58738.75
848.9745, 58701.00
849.4566, 58656.48
849.9387, 58614.79
850.4208, 58582.74
850.9030, 58554.34
851.3851, 58525.95
851.8672, 58496.59
852.3493, 58464.55
852.8314, 58429.78
853.3135, 58392.16
853.7957, 58351.29
854.2778, 58309.93
854.7599, 58277.96
855.2420, 58254.88
855.7241, 58213.17
856.2062, 58142.82
856.6884, 58091.05
857.1705, 58091.71
857.6526, 58115.19
858.1347, 58107.18
858.6168, 58061.70
859.0989, 58009.63
859.5811, 57931.29
860.0632, 57871.18
860.5453, 57847.55
861.0274, 57839.59
861.5095, 57833.14
861.9916, 57825.35
862.4738, 57813.86
862.9559, 57800.07
863.4380, 57778.20
863.9201, 57741.83
864.4022, 57697.52
864.8843, 57653.05
865.3665, 57608.37
865.8486, 57557.43
866.3307, 57498.36
866.8128, 57448.01
867.2949, 57438.91
867.7770, 57456.38
868.2592, 57427.36
868.7413, 57351.17
869.2234, 57286.34
869.7055, 57250.05
870.1876, 57224.37
870.6697, 57192.93
871.1519, 57157.78
871.6340, 57131.93
872.1161, 57121.29
872.5981, 57107.64
873.0803, 57084.54
873.5624, 57063.58
874.0445, 57057.12
874.5266, 57051.75
875.0087, 57025.11
875.4908, 56973.04
875.9730, 56924.07
876.4551, 56892.20
876.9372, 56861.68
877.4193, 56823.18
877.9014, 56780.15
878.3835, 56735.20
878.8657, 56690.76
879.3478, 56652.46
879.8299, 56625.04
880.3120, 56600.86
880.7941, 56564.29
881.2762, 56522.82
881.7584, 56508.16
882.2405, 56519.54
882.7226, 56511.09
883.2047, 56461.11
883.6868, 56394.67
884.1689, 56344.64
884.6511, 56310.59
885.1332, 56288.13
885.6153, 56288.43
886.0974, 56266.99
886.5795, 56200.79
887.0616, 56127.84
887.5438, 56067.81
888.0259, 56023.30
888.5080, 56004.45
888.9901, 56026.13
889.4722, 56036.91
889.9543, 56022.61
890.4365, 56002.71
890.9186, 55989.27
891.4007, 55975.36
891.8828, 55952.96
892.3649, 55919.95
892.8470, 55875.14
893.3292, 55810.66
893.8113, 55743.51
894.2934, 55691.69
894.7755, 55648.44
895.2576, 55604.52
895.7397, 55558.18
896.2219, 55506.35
896.7040, 55447.63
897.1861, 55389.86
897.6682, 55342.98
898.1503, 55307.40
898.6324, 55288.97
899.1146, 55289.70
899.5967, 55278.29
900.0788, 55243.89
900.5609, 55197.82
901.0430, 55147.72
901.5251, 55095.98
902.0073, 55058.65
902.4894, 55041.83
902.9715, 55025.98
903.4536, 55009.82
903.9357, 54994.57
904.4178, 54979.15
904.9000, 54965.41
905.3821, 54956.20
905.8642, 54951.82
906.3463, 54949.54
906.8284, 54956.66
907.3105, 54956.06
907.7927, 54938.03
908.2748, 54909.55
908.7569, 54869.29
909.2390, 54825.63
909.7211, 54801.41
910.2032, 54809.82
910.6854, 54821.86
911.1675, 54808.15
911.6496, 54782.14
912.1317, 54764.27
912.6138, 54754.20
913.0959, 54747.05
913.5781, 54741.04
914.0602, 54736.24
914.5423, 54735.21
915.0244, 54731.27
915.5065, 54693.91
915.9886, 54622.67
916.4708, 54594.24
916.9529, 54626.27
917.4350, 54657.02
917.9171, 54653.43
918.3992, 54628.17
918.8813, 54601.09
919.3635, 54570.43
919.8456, 54554.70
920.3277, 54579.00
920.8098, 54577.93
921.2919, 54512.14
921.7740, 54439.84
922.2562, 54407.04
922.7383, 54400.45
923.2204, 54378.23
923.7025, 54329.96
924.1846, 54279.93
924.6667, 54238.44
925.1489, 54191.62
925.6310, 54122.16
926.1131, 54046.66
926.5952, 53990.36
927.0773, 53954.51
927.5594, 53916.92
928.0416, 53860.71
928.5237, 53805.43
929.0058, 53776.80
929.4879, 53755.88
929.9700, 53705.92
930.4521, 53633.19
930.9343, 53574.74
931.4164, 53545.97
931.8985, 53526.59
932.3806, 53494.94
932.8627, 53453.63
933.3448, 53411.59
933.8270, 53368.64
934.3091, 53312.96
934.7912, 53241.26
935.2733, 53183.58
935.7554, 53164.10
936.2375, 53166.65
936.7197, 53149.46
937.2018, 53105.86
937.6839, 53084.70
938.1660, 53098.95
938.6481, 53101.52
939.1302, 53065.11
939.6124, 53025.08
940.0945, 53022.13
940.5766, 53050.77
941.0587, 53061.96
941.5408, 53040.05
942.0229, 53024.09
942.5051, 53018.41
942.9872, 53015.36
943.4693, 53010.39
943.9514, 53005.94
944.4335, 53008.40
944.9156, 53017.92
945.3978, 53019.04
945.8799, 52989.83
946.3620, 52971.85
946.8441, 52994.21
947.3262, 53032.91
947.8083, 53063.05
948.2905, 53087.73
948.7726, 53123.80
949.2547, 53177.76
949.7368, 53235.02
950.2189, 53286.54
950.7010, 53332.43
951.1832, 53367.68
951.6653, 53398.78
952.1474, 53440.30
952.6295, 53495.05
953.1116, 53559.94
953.5938, 53633.45
954.0759, 53713.79
954.5580, 53800.09
955.0400, 53890.97
955.5222, 53973.79
956.0043, 54049.33
956.4864, 54148.59
956.9685, 54282.80
957.4506, 54437.61
957.9327, 54601.13
958.4149, 54770.25
958.8970, 54934.06
959.3791, 55106.19
959.8612, 55205.30
960.3433, 55214.81
960.8254, 55179.38
961.3076, 55108.70
961.7897, 55016.23
962.2718, 54917.04
962.7539, 54811.11
963.2360, 54709.61
963.7181, 54593.52
964.2003, 54511.99
964.6824, 54487.15
965.1645, 54477.82
965.6466, 54470.30
966.1287, 54460.37
966.6108, 54441.26
967.0930, 54411.63
967.5751, 54380.24
968.0572, 54349.28
968.5393, 54316.39
969.0214, 54285.70
969.5035, 54248.80
969.9857, 54209.98
970.4678, 54157.08
970.9499, 54060.32
971.4320, 53907.46
971.9141, 53735.42
972.3962, 53572.36
972.8784, 53393.20
973.3605, 53174.06
973.8426, 52925.68
974.3247, 52649.36
974.8068, 52359.98
975.2889, 52099.60
975.7711, 51891.94
976.2532, 51723.43
976.7353, 51592.27
977.2174, 51483.03
977.6995, 51356.79
978.1816, 51224.78
978.6638, 51141.06
979.1459, 51115.72
979.6280, 51098.37
980.1101, 51047.09
980.5922, 51024.41
981.0743, 50991.68
981.5565, 50952.73
982.0386, 50930.41
982.5207, 50884.20
983.0028, 50854.27
983.4849, 50858.11
983.9670, 50865.04
984.4492, 50839.23
984.9313, 50789.93
985.4134, 50761.55
985.8955, 50756.98
986.3776, 50749.33
986.8597, 50732.34
987.3419, 50725.45
987.8240, 50741.72
988.3061, 50765.95
988.7882, 50779.98
989.2703, 50783.51
989.7524, 50756.51
990.2346, 50676.75
990.7167, 50616.10
991.1988, 50595.39
991.6809, 50578.30
992.1630, 50545.79
992.6451, 50503.68
993.1273, 50461.63
993.6094, 50419.95
994.0915, 50378.30
994.5736, 50332.82
995.0557, 50293.15
995.5378, 50263.42
996.0200, 50238.20
996.5021, 50214.89
996.9842, 50193.00
997.4663, 50173.04
997.9484, 50155.59
998.4305, 50134.76
998.9127, 50109.87
999.3948, 50079.88
999.8769, 50045.87
1000.359, 50005.29
1000.841, 49950.01
1001.323, 49887.29
1001.805, 49834.69
1002.287, 49797.45
1002.770, 49770.54
1003.252, 49754.46
1003.734, 49744.71
1004.216, 49744.68
1004.698, 49744.77
1005.180, 49729.21
1005.662, 49701.29
1006.144, 49679.65
1006.627, 49673.44
1007.109, 49665.14
1007.591, 49634.41
1008.073, 49598.39
1008.555, 49583.38
1009.037, 49576.12
1009.519, 49543.25
1010.001, 49486.06
1010.483, 49441.13
1010.966, 49431.14
1011.448, 49430.40
1011.930, 49408.90
1012.412, 49375.23
1012.894, 49341.98
1013.376, 49312.07
1013.858, 49295.85
1014.340, 49293.38
1014.823, 49285.99
1015.305, 49259.94
1015.787, 49226.13
1016.269, 49203.59
1016.751, 49188.61
1017.233, 49165.79
1017.715, 49136.05
1018.197, 49109.59
1018.679, 49089.39
1019.162, 49074.21
1019.644, 49063.55
1020.126, 49055.18
1020.608, 49044.86
1021.090, 49032.45
1021.572, 49015.64
1022.054, 48994.35
1022.536, 48962.78
1023.018, 48916.49
1023.501, 48882.88
1023.983, 48889.21
1024.465, 48921.40
1024.947, 48935.03
1025.429, 48928.17
1025.911, 48923.95
1026.393, 48925.88
1026.875, 48910.93
1027.358, 48865.70
1027.840, 48816.83
1028.322, 48789.22
1028.804, 48780.05
1029.286, 48784.27
1029.768, 48813.23
1030.250, 48803.43
1030.732, 48735.83
1031.214, 48678.80
1031.697, 48659.64
1032.179, 48655.63
1032.661, 48647.72
1033.143, 48634.96
1033.625, 48608.92
1034.107, 48554.16
1034.589, 48528.81
1035.071, 48559.59
1035.553, 48571.95
1036.036, 48525.04
1036.518, 48466.39
1037.000, 48452.57
1037.482, 48401.97
1037.964, 48354.19
1038.446, 48339.01
1038.928, 48267.39
1039.410, 48256.19
1039.893, 48247.54
1040.375, 48224.50
1040.857, 48193.55
1041.339, 48151.83
1041.821, 48105.25
1042.303, 48088.52
1042.785, 48128.61
1043.267, 48146.70
1043.750, 48131.23
1044.232, 48103.51
1044.714, 48052.93
1045.196, 48007.12
1045.678, 47999.57
1046.160, 48021.84
1046.642, 48032.14
1047.124, 48026.57
1047.606, 48008.29
1048.089, 47961.08
1048.571, 47921.31
1049.053, 47910.95
1049.535, 47909.08
1050.017, 47903.22
1050.499, 47887.82
1050.981, 47843.82
1051.463, 47749.87
1051.945, 47678.84
1052.428, 47655.57
1052.910, 47647.85
1053.392, 47657.66
1053.874, 47663.76
1054.356, 47639.52
1054.838, 47593.57
1055.320, 47560.88
1055.802, 47554.45
1056.285, 47540.63
1056.767, 47496.47
1057.249, 47458.57
1057.731, 47447.80
1058.213, 47449.25
1058.695, 47450.49
1059.177, 47449.61
1059.659, 47446.83
1060.141, 47442.67
1060.624, 47433.84
1061.106, 47416.20
1061.588, 47397.04
1062.070, 47377.15
1062.552, 47359.73
1063.034, 47348.37
1063.516, 47342.16
1063.998, 47340.34
1064.480, 47344.68
1064.963, 47337.63
1065.445, 47310.77
1065.927, 47272.53
1066.409, 47209.21
1066.891, 47151.38
1067.373, 47134.02
1067.855, 47145.50
1068.337, 47156.80
1068.820, 47161.66
1069.302, 47150.93
1069.784, 47104.29
1070.266, 47061.36
1070.748, 47050.39
1071.230, 47046.04
1071.712, 47023.41
1072.194, 46988.51
1072.677, 46956.97
1073.159, 46932.40
1073.641, 46912.11
1074.123, 46902.19
1074.605, 46887.09
1075.087, 46854.68
1075.569, 46817.64
1076.051, 46782.17
1076.533, 46752.29
1077.016, 46738.50
1077.498, 46740.20
1077.980, 46728.94
1078.462, 46681.24
1078.944, 46634.80
1079.426, 46614.10
1079.908, 46595.99
1080.390, 46557.00
1080.872, 46510.11
1081.354, 46477.66
1081.837, 46462.09
1082.319, 46449.82
1082.801, 46436.75
1083.283, 46424.01
1083.765, 46412.74
1084.247, 46401.37
1084.729, 46391.06
1085.211, 46378.33
1085.694, 46349.70
1086.176, 46311.86
1086.658, 46302.16
1087.140, 46346.48
1087.622, 46380.53
1088.104, 46378.38
1088.586, 46355.91
1089.068, 46307.22
1089.551, 46255.01
1090.033, 46222.76
1090.515, 46210.50
1090.997, 46213.29
1091.479, 46237.03
1091.961, 46242.10
1092.443, 46199.16
1092.925, 46151.68
1093.407, 46129.52
1093.890, 46108.27
1094.372, 46054.23
1094.854, 45982.94
1095.336, 45938.18
1095.818, 45932.11
1096.300, 45923.51
1096.782, 45898.94
1097.264, 45870.54
1097.746, 45833.46
1098.229, 45803.54
1098.711, 45807.62
1099.193, 45822.17
1099.675, 45795.46
1100.157, 45720.30
1100.639, 45670.14
1101.121, 45688.95
1101.603, 45697.62
1102.086, 45665.80
1102.568, 45626.55
1103.050, 45596.29
1103.532, 45573.52
1104.014, 45557.04
1104.496, 45545.54
1104.978, 45529.64
1105.460, 45495.38
1105.943, 45477.64
1106.425, 45500.56
1106.907, 45518.62
1107.389, 45520.51
1107.871, 45500.79
1108.353, 45431.18
1108.835, 45331.95
1109.317, 45299.88
1109.799, 45390.18
1110.281, 45428.50
1110.764, 45363.70
1111.246, 45297.02
1111.728, 45245.69
1112.210, 45213.24
1112.692, 45216.25
1113.174, 45237.51
1113.656, 45231.49
1114.138, 45190.83
1114.621, 45155.64
1115.103, 45126.26
1115.585, 45102.43
1116.067, 45096.93
1116.549, 45079.04
1117.031, 45013.73
1117.513, 44938.89
1117.995, 44922.13
1118.478, 44964.59
1118.960, 44977.86
1119.442, 44948.68
1119.924, 44921.30
1120.406, 44892.95
1120.888, 44882.64
1121.370, 44908.88
1121.852, 44941.27
1122.334, 44945.71
1122.817, 44925.49
1123.299, 44895.63
1123.781, 44849.48
1124.263, 44822.16
1124.745, 44819.43
1125.227, 44817.09
1125.709, 44808.02
1126.191, 44794.86
1126.673, 44777.78
1127.156, 44761.38
1127.638, 44758.75
1128.120, 44770.31
1128.602, 44779.21
1129.084, 44787.10
1129.566, 44768.62
1130.048, 44715.87
1130.530, 44662.15
1131.013, 44625.65
1131.495, 44605.37
1131.977, 44601.59
1132.459, 44612.02
1132.941, 44632.06
1133.423, 44659.37
1133.905, 44649.31
1134.387, 44599.02
1134.870, 44550.91
1135.352, 44521.72
1135.834, 44503.57
1136.316, 44489.30
1136.798, 44479.64
1137.280, 44477.46
1137.762, 44480.95
1138.244, 44482.08
1138.726, 44482.64
1139.208, 44500.03
1139.691, 44534.09
1140.173, 44550.10
1140.655, 44524.89
1141.137, 44486.09
1141.619, 44467.80
1142.101, 44460.52
1142.583, 44452.13
1143.065, 44439.85
1143.548, 44413.75
1144.030, 44378.00
1144.512, 44350.63
1144.994, 44338.55
1145.476, 44333.44
1145.958, 44334.68
1146.440, 44332.21
1146.922, 44309.21
1147.405, 44281.68
1147.887, 44274.70
1148.369, 44277.79
1148.851, 44264.03
1149.333, 44231.03
1149.815, 44201.41
1150.297, 44183.32
1150.779, 44176.96
1151.261, 44197.01
1151.744, 44212.71
1152.226, 44191.84
1152.708, 44160.59
1153.190, 44153.79
1153.672, 44165.71
1154.154, 44168.59
1154.636, 44155.42
1155.118, 44139.01
1155.600, 44121.68
1156.083, 44103.95
1156.565, 44078.22
1157.047, 44060.11
1157.529, 44069.32
1158.011, 44088.72
1158.493, 44091.61
1158.975, 44076.67
1159.457, 44053.56
1159.940, 44010.25
1160.422, 43979.37
1160.904, 43964.71
1161.386, 43958.91
1161.868, 43967.85
1162.350, 43974.99
1162.832, 43963.65
1163.314, 43939.39
1163.796, 43918.38
1164.279, 43899.02
1164.761, 43893.52
1165.243, 43907.38
1165.725, 43917.04
1166.207, 43921.26
1166.689, 43905.18
1167.171, 43852.49
1167.653, 43798.74
1168.135, 43798.90
1168.618, 43840.51
1169.100, 43852.97
1169.582, 43836.63
1170.064, 43813.32
1170.546, 43785.30
1171.028, 43772.58
1171.510, 43781.86
1171.992, 43793.88
1172.474, 43793.42
1172.957, 43785.41
1173.439, 43780.15
1173.921, 43773.68
1174.403, 43747.25
1174.885, 43740.42
1175.367, 43726.66
1175.849, 43703.86
1176.331, 43699.02
1176.814, 43666.04
1177.296, 43640.68
1177.778, 43662.29
1178.260, 43697.14
1178.742, 43716.39
1179.224, 43716.91
1179.706, 43683.93
1180.188, 43632.99
1180.671, 43595.88
1181.153, 43576.05
1181.635, 43551.29
1182.117, 43506.61
1182.599, 43476.14
1183.081, 43495.32
1183.563, 43514.52
1184.045, 43499.73
1184.527, 43472.65
1185.010, 43449.41
1185.492, 43434.02
1185.974, 43434.04
1186.456, 43451.78
1186.938, 43458.61
1187.420, 43441.03
1187.902, 43425.83
1188.384, 43418.39
1188.866, 43412.66
1189.349, 43406.21
1189.831, 43399.94
1190.313, 43395.57
1190.795, 43391.85
1191.277, 43383.00
1191.759, 43381.40
1192.241, 43380.73
1192.723, 43373.03
1193.206, 43370.32
1193.688, 43370.18
1194.170, 43358.31
1194.652, 43349.80
1195.134, 43340.18
1195.616, 43322.59
1196.098, 43299.39
1196.580, 43280.35
1197.063, 43265.34
1197.545, 43253.18
1198.027, 43242.70
1198.509, 43216.09
1198.991, 43170.96
1199.473, 43143.62
1199.955, 43161.91
1200.437, 43187.31
1200.919, 43165.69
1201.401, 43119.78
1201.884, 43081.71
1202.366, 43053.10
1202.848, 43037.27
1203.330, 43032.04
1203.812, 43031.35
1204.294, 43033.18
1204.776, 43039.63
1205.258, 43057.07
1205.741, 43068.60
1206.223, 43066.23
1206.705, 43050.08
1207.187, 42999.95
1207.669, 42950.60
1208.151, 42959.77
1208.633, 43005.84
1209.115, 43001.80
1209.598, 42918.07
1210.080, 42873.51
1210.562, 42922.51
1211.044, 42957.76
1211.526, 42957.14
1212.008, 42939.56
1212.490, 42907.88
1212.972, 42869.54
1213.454, 42832.74
1213.937, 42797.09
1214.419, 42759.29
1214.901, 42716.54
1215.383, 42687.02
1215.865, 42672.68
1216.347, 42662.54
1216.829, 42655.74
1217.311, 42636.42
1217.793, 42592.75
1218.276, 42553.34
1218.758, 42563.21
1219.240, 42598.14
1219.722, 42584.46
1220.204, 42536.70
1220.686, 42501.48
1221.168, 42482.73
1221.650, 42478.99
1222.133, 42488.42
1222.615, 42507.22
1223.097, 42535.18
1223.579, 42553.12
1224.061, 42537.03
1224.543, 42509.31
1225.025, 42488.84
1225.507, 42471.46
1225.990, 42448.96
1226.472, 42426.11
1226.954, 42414.16
1227.436, 42413.79
1227.918, 42412.59
1228.400, 42406.79
1228.882, 42400.25
1229.364, 42392.76
1229.846, 42386.41
1230.328, 42382.55
1230.811, 42379.99
1231.293, 42377.77
1231.775, 42376.67
1232.257, 42379.91
1232.739, 42387.43
1233.221, 42377.24
1233.703, 42388.84
1234.185, 42337.54
1234.668, 42391.67
1235.150, 42422.26
1235.632, 42401.61
1236.114, 42367.42
1236.596, 42347.97
1237.078, 42337.73
1237.560, 42331.25
1238.042, 42324.60
1238.525, 42302.48
1239.007, 42269.38
1239.489, 42234.98
1239.971, 42203.99
1240.453, 42188.84
1240.935, 42191.18
1241.417, 42193.35
1241.899, 42185.31
1242.381, 42171.58
1242.864, 42144.57
1243.346, 42125.63
1243.828, 42140.61
1244.310, 42166.80
1244.792, 42179.92
1245.274, 42182.04
1245.756, 42186.91
1246.238, 42196.15
1246.720, 42182.72
1247.203, 42111.96
1247.685, 42067.88
1248.167, 42073.68
1248.649, 42080.38
1249.131, 42076.67
1249.613, 42063.03
1250.095, 42035.41
1250.577, 42005.11
1251.059, 41998.21
1251.542, 42010.48
1252.024, 41977.66
1252.506, 41900.28
1252.988, 41878.87
1253.470, 41919.24
1253.952, 41949.44
1254.434, 41947.31
1254.916, 41942.40
1255.399, 41955.81
1255.881, 41969.34
1256.363, 41958.74
1256.845, 41935.27
1257.327, 41905.96
1257.809, 41881.30
1258.291, 41883.20
1258.773, 41900.75
1259.255, 41909.89
1259.738, 41905.21
1260.220, 41890.13
1260.702, 41863.32
1261.184, 41834.42
1261.666, 41792.91
1262.148, 41768.70
1262.630, 41786.04
1263.112, 41812.37
1263.594, 41828.64
1264.077, 41836.29
1264.559, 41836.83
1265.041, 41830.38
1265.523, 41816.46
1266.005, 41811.55
1266.487, 41801.41
1266.969, 41787.32
1267.451, 41783.28
1267.934, 41761.75
1268.416, 41750.47
1268.898, 41765.88
1269.380, 41777.57
1269.862, 41742.80
1270.344, 41692.68
1270.826, 41688.02
1271.308, 41673.22
1271.791, 41705.41
1272.273, 41695.23
1272.755, 41723.80
1273.237, 41778.22
1273.719, 41775.38
1274.201, 41682.32
1274.683, 41614.95
1275.165, 41646.75
1275.647, 41682.82
1276.130, 41692.38
1276.612, 41690.70
1277.094, 41686.07
1277.576, 41675.47
1278.058, 41653.10
1278.540, 41623.12
1279.022, 41595.30
1279.504, 41568.95
1279.986, 41573.59
1280.469, 41615.54
1280.951, 41633.78
1281.433, 41619.80
1281.915, 41611.46
1282.397, 41622.40
1282.879, 41640.24
1283.361, 41656.68
1283.843, 41673.96
1284.326, 41695.66
1284.808, 41718.60
##END=



