##NAMES=Bobdownsite
##RRUFFID=R110026
##IDEAL CHEMISTRY=Ca_9_Mg(PO_4_)_6_(PO_3_F)
##LOCALITY=Tip Top mine, Custer County, South Dakota, USA
##OWNER=RRUFF
##SOURCE=Tom Loomis, Dakota Matrix Minerals
##DESCRIPTION=Crust of pale purple crystals on quartz
##STATUS=The identification of this mineral is confirmed by single-crystal X-ray diffraction and chemical analysis.
##URL=rruff.info/R110026
##MEASURED CHEMISTRY=(Ca_8.67_Na_0.23_)_Σ=8.90_(Mg_0.93_Mn_0.06_)_Σ=0.99_(P_0.93_O_3_(F_0.79_(OH)_0.21_)_Σ=1.00_)(P_1.00_O_4_)_6_
191.3678, 1166.487
191.8499, 1167.555
192.3320, 1167.928
192.8141, 1167.968
193.2962, 1167.744
193.7784, 1167.810
194.2605, 1168.832
194.7426, 1169.379
195.2247, 1168.910
195.7068, 1167.554
196.1889, 1165.760
196.6711, 1163.863
197.1532, 1161.659
197.6353, 1158.429
198.1174, 1153.122
198.5995, 1147.835
199.0816, 1143.871
199.5638, 1141.044
200.0459, 1138.124
200.5280, 1134.097
201.0101, 1129.545
201.4922, 1126.186
201.9743, 1124.746
202.4565, 1123.826
202.9386, 1122.017
203.4207, 1119.277
203.9028, 1117.187
204.3849, 1117.363
204.8670, 1118.491
205.3492, 1118.656
205.8313, 1117.213
206.3134, 1115.087
206.7955, 1113.654
207.2776, 1113.256
207.7597, 1111.959
208.2419, 1107.161
208.7240, 1101.638
209.2061, 1098.309
209.6882, 1098.469
210.1703, 1100.442
210.6524, 1101.318
211.1346, 1100.586
211.6167, 1100.047
212.0988, 1100.560
212.5809, 1101.393
213.0630, 1101.910
213.5451, 1101.877
214.0273, 1101.317
214.5094, 1100.157
214.9915, 1097.746
215.4736, 1095.937
215.9557, 1095.365
216.4378, 1095.340
216.9200, 1095.343
217.4021, 1095.170
217.8842, 1094.619
218.3663, 1092.988
218.8484, 1088.624
219.3305, 1085.630
219.8127, 1085.021
220.2948, 1085.666
220.7769, 1086.566
221.2590, 1087.270
221.7411, 1087.665
222.2232, 1087.412
222.7054, 1085.831
223.1875, 1084.355
223.6696, 1082.781
224.1517, 1081.450
224.6338, 1080.718
225.1159, 1080.738
225.5980, 1081.462
226.0802, 1082.778
226.5623, 1086.396
227.0444, 1088.542
227.5265, 1088.119
228.0086, 1086.300
228.4907, 1084.352
228.9729, 1082.766
229.4550, 1081.701
229.9371, 1081.698
230.4192, 1083.654
230.9013, 1085.204
231.3834, 1085.500
231.8656, 1085.283
232.3477, 1085.709
232.8298, 1087.270
233.3119, 1089.456
233.7940, 1091.121
234.2761, 1091.911
234.7583, 1093.130
235.2404, 1095.127
235.7225, 1097.754
236.2046, 1101.057
236.6867, 1105.370
237.1688, 1109.583
237.6510, 1111.655
238.1331, 1111.578
238.6152, 1110.713
239.0973, 1108.815
239.5794, 1106.481
240.0615, 1105.034
240.5437, 1104.928
241.0258, 1105.609
241.5079, 1106.678
241.9900, 1108.187
242.4721, 1108.952
242.9542, 1107.684
243.4364, 1105.283
243.9185, 1104.077
244.4006, 1104.677
244.8827, 1106.336
245.3648, 1108.344
245.8469, 1110.678
246.3290, 1113.317
246.8112, 1116.336
247.2933, 1119.649
247.7754, 1123.183
248.2575, 1127.270
248.7396, 1130.943
249.2217, 1132.987
249.7039, 1133.904
250.1860, 1135.416
250.6681, 1138.705
251.1502, 1143.363
251.6323, 1148.075
252.1144, 1153.130
252.5966, 1157.567
253.0787, 1160.333
253.5608, 1162.111
254.0429, 1164.500
254.5250, 1168.738
255.0071, 1174.295
255.4893, 1179.089
255.9714, 1182.575
256.4535, 1186.132
256.9356, 1190.273
257.4177, 1194.891
257.8998, 1199.971
258.3820, 1205.876
258.8641, 1212.043
259.3462, 1216.362
259.8283, 1217.902
260.3104, 1218.993
260.7925, 1220.465
261.2747, 1222.035
261.7568, 1223.280
262.2389, 1223.940
262.7210, 1224.249
263.2031, 1224.878
263.6852, 1225.822
264.1674, 1227.153
264.6495, 1228.749
265.1316, 1230.714
265.6137, 1233.299
266.0958, 1236.651
266.5779, 1240.323
267.0601, 1243.139
267.5422, 1244.242
268.0243, 1246.044
268.5064, 1249.385
268.9885, 1253.206
269.4706, 1256.615
269.9528, 1259.295
270.4349, 1261.434
270.9170, 1263.342
271.3991, 1264.788
271.8812, 1266.442
272.3633, 1267.406
272.8455, 1269.122
273.3276, 1272.879
273.8097, 1278.904
274.2918, 1286.234
274.7739, 1293.430
275.2560, 1300.229
275.7382, 1307.499
276.2202, 1315.792
276.7024, 1324.051
277.1845, 1331.579
277.6666, 1338.333
278.1487, 1344.855
278.6308, 1352.142
279.1129, 1361.433
279.5951, 1366.872
280.0772, 1366.883
280.5593, 1365.189
281.0414, 1364.375
281.5235, 1364.013
282.0056, 1361.490
282.4878, 1354.085
282.9699, 1341.043
283.4520, 1328.047
283.9341, 1315.305
284.4162, 1302.364
284.8983, 1289.189
285.3805, 1275.682
285.8626, 1261.535
286.3447, 1246.343
286.8268, 1230.205
287.3089, 1215.413
287.7910, 1202.978
288.2732, 1190.722
288.7553, 1177.624
289.2374, 1164.335
289.7195, 1152.321
290.2016, 1142.503
290.6837, 1134.564
291.1659, 1126.524
291.6480, 1118.249
292.1301, 1110.074
292.6122, 1101.883
293.0943, 1093.861
293.5764, 1086.295
294.0586, 1079.285
294.5407, 1072.722
295.0228, 1066.282
295.5049, 1059.815
295.9870, 1053.672
296.4691, 1047.798
296.9513, 1042.287
297.4334, 1037.543
297.9155, 1033.669
298.3976, 1029.811
298.8797, 1024.527
299.3618, 1016.922
299.8440, 1009.383
300.3261, 1000.971
300.8082, 993.2523
301.2903, 987.7226
301.7724, 984.5686
302.2545, 982.4865
302.7367, 980.0604
303.2188, 977.3792
303.7009, 973.7469
304.1830, 967.9219
304.6651, 962.2151
305.1472, 958.2074
305.6294, 955.8200
306.1115, 953.9100
306.5936, 951.5471
307.0757, 948.6942
307.5578, 945.8044
308.0399, 943.1183
308.5221, 940.1710
309.0042, 936.4113
309.4863, 932.1854
309.9684, 928.4335
310.4505, 925.7939
310.9326, 924.1214
311.4148, 922.5079
311.8969, 920.9429
312.3790, 919.4354
312.8611, 917.9402
313.3432, 916.5188
313.8253, 915.2905
314.3075, 914.3283
314.7896, 913.5168
315.2717, 912.5546
315.7538, 911.5628
316.2359, 910.2426
316.7180, 908.1620
317.2001, 905.9218
317.6823, 904.0717
318.1644, 902.7789
318.6465, 902.1277
319.1286, 902.3658
319.6107, 904.3551
320.0928, 905.0439
320.5750, 903.1713
321.0571, 900.8983
321.5392, 899.9011
322.0213, 900.3346
322.5034, 901.3322
322.9855, 902.1696
323.4677, 902.9450
323.9498, 902.4689
324.4319, 899.3825
324.9140, 896.4912
325.3961, 895.2264
325.8782, 895.3909
326.3604, 896.1232
326.8425, 896.9334
327.3246, 897.7606
327.8067, 897.8593
328.2888, 897.2294
328.7709, 896.0170
329.2531, 893.5765
329.7352, 890.7060
330.2173, 888.7277
330.6994, 888.2951
331.1815, 888.9194
331.6636, 889.2781
332.1458, 889.6335
332.6279, 889.3552
333.1100, 887.6289
333.5921, 885.6553
334.0742, 884.5051
334.5563, 884.5129
335.0385, 885.5065
335.5206, 887.3313
336.0027, 890.5607
336.4848, 893.1480
336.9669, 895.4855
337.4490, 896.9826
337.9312, 896.8291
338.4133, 895.2691
338.8954, 893.5314
339.3775, 892.7761
339.8596, 893.0992
340.3417, 893.1663
340.8239, 893.0139
341.3060, 892.6085
341.7881, 891.5156
342.2702, 890.1709
342.7523, 889.4053
343.2344, 889.7382
343.7166, 891.0324
344.1987, 892.6296
344.6808, 895.9989
345.1629, 897.9194
345.6450, 896.7989
346.1271, 894.5963
346.6093, 893.4588
347.0914, 894.1805
347.5735, 896.0761
348.0556, 897.9957
348.5377, 900.8751
349.0198, 901.9540
349.5020, 900.1002
349.9841, 897.5731
350.4662, 895.6636
350.9483, 894.6506
351.4304, 894.3067
351.9125, 894.4547
352.3947, 895.1609
352.8768, 895.9275
353.3589, 896.8900
353.8410, 897.7747
354.3231, 898.4890
354.8052, 899.0443
355.2874, 899.5193
355.7695, 899.9938
356.2516, 900.3947
356.7337, 900.2408
357.2158, 898.2620
357.6979, 897.5260
358.1800, 900.0332
358.6621, 903.3663
359.1443, 904.4849
359.6264, 902.2438
360.1085, 898.7399
360.5906, 897.9333
361.0727, 901.1080
361.5548, 903.6693
362.0370, 905.1757
362.5191, 905.9630
363.0012, 905.7026
363.4833, 904.6451
363.9654, 903.9706
364.4475, 904.9866
364.9297, 907.7897
365.4118, 910.6484
365.8939, 913.5500
366.3760, 916.5215
366.8581, 919.9755
367.3402, 923.4750
367.8224, 926.0468
368.3045, 926.7233
368.7866, 926.3854
369.2687, 927.7664
369.7508, 931.5501
370.2329, 935.5872
370.7151, 939.6274
371.1972, 943.3308
371.6793, 946.0221
372.1614, 947.3137
372.6435, 948.8821
373.1256, 953.1615
373.6078, 960.3656
374.0899, 967.0500
374.5720, 971.8116
375.0541, 976.4684
375.5362, 982.3333
376.0183, 989.4036
376.5005, 996.8998
376.9826, 1004.666
377.4647, 1012.514
377.9468, 1019.512
378.4289, 1024.837
378.9110, 1031.018
379.3932, 1039.984
379.8753, 1050.934
380.3574, 1062.573
380.8395, 1074.373
381.3216, 1086.821
381.8037, 1100.274
382.2859, 1114.745
382.7680, 1130.656
383.2501, 1148.470
383.7322, 1167.800
384.2143, 1187.938
384.6964, 1208.814
385.1786, 1230.347
385.6607, 1251.826
386.1428, 1273.729
386.6249, 1297.606
387.1070, 1323.884
387.5891, 1351.752
388.0713, 1380.821
388.5534, 1410.954
389.0355, 1441.574
389.5176, 1471.783
389.9997, 1502.928
390.4818, 1536.619
390.9640, 1572.965
391.4461, 1610.055
391.9282, 1646.303
392.4103, 1682.366
392.8924, 1721.404
393.3745, 1762.984
393.8567, 1807.712
394.3388, 1855.370
394.8209, 1906.350
395.3030, 1960.638
395.7851, 2018.705
396.2672, 2080.483
396.7494, 2146.600
397.2315, 2216.520
397.7136, 2292.319
398.1957, 2376.511
398.6778, 2465.667
399.1599, 2558.166
399.6420, 2653.329
400.1241, 2750.217
400.6063, 2848.356
401.0884, 2948.283
401.5705, 3043.419
402.0526, 3136.471
402.5347, 3222.763
403.0168, 3303.762
403.4990, 3376.600
403.9811, 3437.961
404.4632, 3486.214
404.9453, 3518.952
405.4274, 3529.861
405.9095, 3515.953
406.3917, 3482.281
406.8738, 3424.074
407.3559, 3352.551
407.8380, 3272.770
408.3201, 3186.957
408.8022, 3097.307
409.2844, 3004.005
409.7665, 2906.969
410.2486, 2813.282
410.7307, 2721.247
411.2128, 2635.184
411.6949, 2556.173
412.1771, 2483.992
412.6592, 2418.043
413.1413, 2358.159
413.6234, 2303.902
414.1055, 2254.823
414.5876, 2211.486
415.0698, 2170.996
415.5519, 2133.735
416.0340, 2098.583
416.5161, 2065.158
416.9982, 2033.188
417.4803, 2002.777
417.9625, 1973.064
418.4446, 1944.544
418.9267, 1919.989
419.4088, 1900.711
419.8909, 1883.742
420.3730, 1868.337
420.8552, 1853.718
421.3373, 1838.233
421.8194, 1819.680
422.3015, 1801.735
422.7836, 1789.019
423.2657, 1781.521
423.7479, 1775.976
424.2300, 1770.380
424.7121, 1766.979
425.1942, 1769.141
425.6763, 1777.651
426.1584, 1787.299
426.6406, 1796.602
427.1227, 1805.414
427.6048, 1813.603
428.0869, 1821.254
428.5690, 1827.667
429.0511, 1831.821
429.5333, 1833.694
430.0154, 1836.283
430.4975, 1842.344
430.9796, 1846.540
431.4617, 1846.429
431.9438, 1842.075
432.4260, 1833.618
432.9081, 1820.988
433.3902, 1804.987
433.8723, 1787.381
434.3544, 1766.762
434.8365, 1746.858
435.3187, 1729.425
435.8008, 1711.642
436.2829, 1690.723
436.7650, 1666.731
437.2471, 1642.194
437.7292, 1619.484
438.2114, 1598.555
438.6935, 1577.863
439.1756, 1555.625
439.6577, 1535.604
440.1398, 1519.520
440.6219, 1505.964
441.1040, 1493.388
441.5862, 1481.184
442.0683, 1469.225
442.5504, 1457.018
443.0325, 1443.532
443.5146, 1432.919
443.9967, 1427.289
444.4789, 1423.203
444.9610, 1419.075
445.4431, 1414.959
445.9252, 1411.661
446.4073, 1409.915
446.8894, 1409.456
447.3716, 1409.293
447.8537, 1409.425
448.3358, 1409.842
448.8179, 1410.393
449.3000, 1411.278
449.7821, 1412.732
450.2643, 1414.788
450.7464, 1417.460
451.2285, 1421.167
451.7106, 1425.637
452.1927, 1429.220
452.6748, 1431.128
453.1570, 1432.992
453.6391, 1438.179
454.1212, 1445.533
454.6033, 1448.487
455.0854, 1442.405
455.5675, 1433.585
456.0497, 1427.675
456.5318, 1424.355
457.0139, 1420.415
457.4960, 1413.897
457.9781, 1406.129
458.4602, 1401.091
458.9424, 1401.238
459.4245, 1398.597
459.9066, 1390.727
460.3887, 1380.004
460.8708, 1368.066
461.3529, 1355.516
461.8351, 1343.548
462.3172, 1333.337
462.7993, 1325.017
463.2814, 1316.021
463.7635, 1306.724
464.2456, 1296.382
464.7278, 1283.499
465.2099, 1269.790
465.6920, 1257.548
466.1741, 1247.602
466.6562, 1239.287
467.1383, 1231.760
467.6205, 1225.517
468.1026, 1218.294
468.5847, 1208.824
469.0668, 1199.420
469.5489, 1191.267
470.0310, 1184.086
470.5132, 1176.962
470.9953, 1169.170
471.4774, 1161.210
471.9595, 1154.679
472.4416, 1150.195
472.9237, 1144.870
473.4059, 1136.027
473.8880, 1126.942
474.3701, 1120.771
474.8522, 1117.958
475.3343, 1116.105
475.8164, 1113.572
476.2986, 1110.890
476.7807, 1109.224
477.2628, 1108.653
477.7449, 1109.382
478.2270, 1111.737
478.7091, 1115.639
479.1913, 1120.403
479.6734, 1127.743
480.1555, 1133.981
480.6376, 1136.337
481.1197, 1136.298
481.6018, 1137.209
482.0839, 1140.217
482.5660, 1143.695
483.0482, 1145.706
483.5303, 1146.667
484.0124, 1143.693
484.4945, 1134.902
484.9766, 1124.230
485.4587, 1113.304
485.9409, 1102.188
486.4230, 1090.571
486.9051, 1078.239
487.3872, 1065.209
487.8693, 1051.676
488.3514, 1037.579
488.8336, 1022.825
489.3157, 1006.895
489.7978, 990.8518
490.2799, 975.0137
490.7620, 959.6837
491.2441, 945.6645
491.7263, 933.9416
492.2084, 924.0944
492.6905, 914.1270
493.1726, 904.0564
493.6547, 893.8906
494.1368, 882.6832
494.6190, 871.9264
495.1011, 863.6017
495.5832, 858.3316
496.0653, 853.3333
496.5474, 846.4291
497.0295, 838.1691
497.5117, 829.9625
497.9938, 821.7416
498.4759, 814.7107
498.9580, 810.3593
499.4401, 808.1816
499.9222, 805.2843
500.4044, 800.6799
500.8865, 796.1481
501.3686, 792.2799
501.8507, 789.1662
502.3328, 787.4199
502.8149, 787.3353
503.2971, 787.0680
503.7792, 783.7412
504.2613, 775.8038
504.7434, 770.3645
505.2255, 768.5452
505.7076, 767.8263
506.1898, 767.8409
506.6719, 767.9402
507.1540, 767.0195
507.6361, 764.4613
508.1182, 760.9811
508.6003, 758.1837
509.0825, 756.0949
509.5646, 754.6213
510.0467, 754.3457
510.5288, 754.1782
511.0109, 753.4504
511.4930, 752.2716
511.9752, 751.1751
512.4573, 750.3080
512.9394, 749.8611
513.4215, 750.6107
513.9036, 752.8593
514.3857, 754.4285
514.8679, 754.6786
515.3500, 753.6025
515.8321, 750.7881
516.3142, 745.9053
516.7963, 742.2750
517.2784, 742.2705
517.7606, 743.9055
518.2427, 744.2657
518.7248, 743.1544
519.2069, 742.3057
519.6890, 743.0027
520.1711, 744.8514
520.6533, 745.8522
521.1354, 745.5231
521.6175, 745.1450
522.0996, 744.4310
522.5817, 744.0460
523.0638, 745.0110
523.5460, 747.2740
524.0281, 749.5323
524.5102, 750.4101
524.9923, 749.9672
525.4744, 750.5383
525.9565, 752.9767
526.4387, 755.3552
526.9208, 756.7900
527.4029, 758.2361
527.8850, 760.9465
528.3671, 765.1707
528.8492, 769.5567
529.3314, 772.5244
529.8135, 774.2451
530.2956, 776.4362
530.7777, 779.1826
531.2598, 782.4146
531.7419, 786.0295
532.2241, 790.1064
532.7062, 794.9988
533.1883, 801.0869
533.6704, 807.3339
534.1525, 813.3543
534.6346, 818.9889
535.1168, 823.5448
535.5989, 826.7293
536.0810, 830.2596
536.5631, 835.8806
537.0452, 843.7301
537.5273, 851.8186
538.0095, 860.2935
538.4916, 868.8409
538.9737, 876.6036
539.4558, 884.6484
539.9379, 894.9227
540.4200, 907.9197
540.9022, 921.9227
541.3843, 934.3917
541.8664, 944.9387
542.3485, 956.1961
542.8306, 968.8804
543.3127, 981.4609
543.7948, 994.3378
544.2769, 1006.513
544.7590, 1016.382
545.2411, 1023.295
545.7233, 1028.451
546.2054, 1033.064
546.6875, 1037.142
547.1696, 1040.443
547.6517, 1042.504
548.1339, 1044.571
548.6160, 1048.175
549.0981, 1052.668
549.5802, 1056.199
550.0623, 1057.592
550.5444, 1058.792
551.0266, 1061.475
551.5087, 1064.879
551.9908, 1067.344
552.4729, 1068.380
552.9550, 1068.201
553.4371, 1066.891
553.9193, 1064.130
554.4014, 1062.191
554.8835, 1060.448
555.3656, 1060.085
555.8477, 1062.368
556.3298, 1066.031
556.8120, 1069.168
557.2941, 1071.110
557.7762, 1074.439
558.2583, 1075.526
558.7404, 1079.828
559.2225, 1082.865
559.7047, 1085.401
560.1868, 1085.322
560.6689, 1081.553
561.1510, 1074.886
561.6331, 1066.591
562.1152, 1057.033
562.5974, 1046.011
563.0795, 1033.067
563.5616, 1018.464
564.0437, 1002.945
564.5258, 986.3906
565.0079, 969.8217
565.4901, 953.9233
565.9722, 938.8121
566.4543, 924.8973
566.9364, 912.5114
567.4185, 900.9421
567.9006, 889.6650
568.3828, 879.1567
568.8649, 870.4036
569.3470, 863.5509
569.8291, 857.0583
570.3112, 849.2423
570.7933, 839.9962
571.2755, 830.7916
571.7576, 820.7269
572.2397, 811.8666
572.7218, 805.4548
573.2039, 800.0423
573.6860, 793.7084
574.1682, 785.9920
574.6503, 778.7805
575.1324, 773.9273
575.6145, 771.0982
576.0966, 768.9188
576.5787, 767.3908
577.0609, 766.1833
577.5430, 765.2178
578.0251, 764.4203
578.5072, 763.5533
578.9893, 762.3866
579.4714, 761.6605
579.9536, 762.3765
580.4357, 763.3161
580.9178, 762.4920
581.3999, 759.9691
581.8820, 757.9495
582.3641, 758.1569
582.8463, 760.2619
583.3284, 762.3231
583.8105, 764.1177
584.2926, 766.2288
584.7747, 768.4470
585.2568, 771.1801
585.7390, 775.2208
586.2211, 780.2339
586.7032, 784.7557
587.1853, 787.6959
587.6674, 789.4377
588.1495, 791.0466
588.6317, 792.6302
589.1138, 793.3810
589.5959, 792.7205
590.0780, 791.3850
590.5601, 790.2213
591.0422, 789.2225
591.5244, 788.2531
592.0065, 786.8900
592.4886, 785.8364
592.9707, 785.9305
593.4528, 786.9294
593.9349, 787.8514
594.4171, 788.2151
594.8992, 788.6516
595.3813, 790.3124
595.8634, 793.6063
596.3455, 796.9633
596.8276, 799.1932
597.3098, 802.6982
597.7919, 809.1568
598.2740, 817.4238
598.7561, 825.5460
599.2382, 832.7344
599.7203, 841.0451
600.2025, 847.7967
600.6846, 856.9362
601.1667, 865.3674
601.6488, 873.3717
602.1309, 879.6883
602.6130, 882.5677
603.0952, 883.2280
603.5773, 883.8478
604.0594, 884.6215
604.5415, 885.5671
605.0236, 886.8356
605.5057, 888.2374
605.9879, 889.6094
606.4700, 890.8737
606.9521, 891.6208
607.4342, 891.3679
607.9163, 890.3369
608.3984, 890.2079
608.8806, 890.2382
609.3627, 892.3522
609.8448, 897.9459
610.3269, 904.6707
610.8090, 910.6412
611.2911, 915.8691
611.7733, 921.5425
612.2554, 928.3448
612.7375, 936.2717
613.2196, 945.5914
613.7017, 956.4699
614.1838, 967.5323
614.6660, 978.2792
615.1481, 989.2377
615.6302, 1000.875
616.1123, 1013.190
616.5944, 1026.850
617.0765, 1043.379
617.5587, 1059.972
618.0408, 1074.524
618.5229, 1087.704
619.0050, 1101.679
619.4871, 1117.146
619.9692, 1131.767
620.4514, 1142.316
620.9335, 1148.475
621.4156, 1153.216
621.8977, 1155.076
622.3798, 1157.211
622.8619, 1160.798
623.3441, 1164.884
623.8262, 1168.171
624.3083, 1170.369
624.7904, 1172.675
625.2725, 1175.779
625.7546, 1179.787
626.2367, 1185.786
626.7188, 1194.168
627.2009, 1200.604
627.6830, 1202.389
628.1652, 1205.821
628.6473, 1201.386
629.1294, 1204.651
629.6115, 1203.693
630.0936, 1197.543
630.5757, 1186.748
631.0579, 1171.373
631.5400, 1151.666
632.0221, 1127.625
632.5042, 1099.298
632.9863, 1067.909
633.4684, 1035.700
633.9506, 1002.502
634.4327, 968.3893
634.9148, 931.1882
635.3969, 896.1643
635.8790, 865.7913
636.3611, 839.1658
636.8433, 814.6054
637.3254, 791.6014
637.8075, 771.2529
638.2896, 755.2615
638.7717, 742.3947
639.2538, 729.9769
639.7360, 717.7353
640.2181, 707.0487
640.7002, 699.0505
641.1823, 693.2436
641.6644, 687.5316
642.1465, 681.6000
642.6287, 676.2668
643.1108, 671.6115
643.5929, 667.5091
644.0750, 663.9536
644.5571, 660.8695
645.0392, 658.1037
645.5214, 655.6159
646.0035, 653.3110
646.4856, 650.8416
646.9677, 648.2125
647.4498, 646.5674
647.9319, 646.3676
648.4141, 646.6682
648.8962, 647.0029
649.3783, 647.2317
649.8604, 646.8171
650.3425, 645.6161
650.8246, 643.8940
651.3068, 641.2711
651.7889, 638.4320
652.2710, 636.3445
652.7531, 635.0447
653.2352, 633.7658
653.7173, 631.8629
654.1995, 629.5806
654.6816, 627.8896
655.1637, 626.7341
655.6458, 626.3209
656.1279, 628.2005
656.6100, 629.5508
657.0922, 627.9965
657.5743, 624.3962
658.0564, 621.8918
658.5385, 622.3193
659.0206, 623.4147
659.5027, 623.0935
659.9849, 621.7051
660.4670, 620.1041
660.9491, 618.4753
661.4312, 617.0471
661.9133, 615.9842
662.3954, 615.2988
662.8776, 615.1599
663.3597, 616.2550
663.8418, 617.0051
664.3239, 617.2224
664.8060, 617.0740
665.2881, 616.4400
665.7703, 615.5280
666.2524, 615.0601
666.7345, 615.8060
667.2166, 616.7780
667.6987, 615.8341
668.1808, 613.0390
668.6630, 610.7238
669.1451, 609.3297
669.6272, 608.8297
670.1093, 609.5359
670.5914, 611.3310
671.0735, 612.5763
671.5557, 612.8665
672.0378, 613.0602
672.5199, 613.7857
673.0020, 614.3376
673.4841, 613.7419
673.9662, 612.0397
674.4484, 610.1276
674.9305, 608.5955
675.4126, 607.5212
675.8947, 607.3076
676.3768, 608.2211
676.8589, 608.8046
677.3411, 608.4969
677.8232, 608.0870
678.3053, 608.3976
678.7874, 609.1725
679.2695, 609.4516
679.7516, 608.8262
680.2338, 607.8986
680.7159, 606.8337
681.1980, 605.7692
681.6801, 604.7115
682.1622, 603.7659
682.6443, 603.6920
683.1265, 605.3802
683.6086, 608.1174
684.0907, 608.2449
684.5728, 604.1613
685.0549, 600.9627
685.5370, 598.9944
686.0192, 598.4101
686.5013, 600.2965
686.9834, 603.6995
687.4655, 605.9885
687.9476, 605.8644
688.4297, 604.8868
688.9119, 604.1332
689.3940, 603.6278
689.8761, 603.5551
690.3582, 603.9325
690.8403, 604.2809
691.3224, 604.2877
691.8046, 603.9238
692.2867, 603.0057
692.7688, 600.9721
693.2509, 599.2975
693.7330, 598.1166
694.2151, 597.2335
694.6973, 596.4973
695.1794, 595.9637
695.6615, 595.8510
696.1436, 596.3520
696.6257, 596.9542
697.1078, 596.8419
697.5900, 596.3421
698.0721, 596.8695
698.5542, 598.7053
699.0363, 600.1949
699.5184, 600.1202
700.0005, 598.9153
700.4827, 598.1020
700.9648, 597.8989
701.4469, 597.7426
701.9290, 598.0857
702.4111, 598.0390
702.8932, 596.4825
703.3754, 594.2372
703.8575, 592.9997
704.3396, 593.5035
704.8217, 594.7975
705.3038, 596.0217
705.7859, 597.0990
706.2681, 597.6519
706.7502, 597.6329
707.2323, 597.1690
707.7144, 596.1934
708.1965, 594.9240
708.6786, 593.7687
709.1607, 592.4454
709.6428, 592.0380
710.1249, 593.5599
710.6071, 595.0734
711.0892, 595.4444
711.5713, 595.0518
712.0534, 594.6252
712.5355, 594.4155
713.0176, 594.2191
713.4998, 593.8391
713.9819, 593.2815
714.4640, 592.4217
714.9461, 591.1484
715.4282, 590.2891
715.9103, 590.0821
716.3925, 590.6066
716.8746, 592.5612
717.3567, 596.3476
717.8388, 597.9744
718.3209, 594.6669
718.8030, 591.7880
719.2852, 592.3571
719.7673, 594.6689
720.2494, 596.4811
720.7315, 597.1780
721.2136, 597.1921
721.6957, 596.8530
722.1779, 596.1699
722.6600, 595.0743
723.1421, 593.4830
723.6242, 592.1456
724.1063, 591.3468
724.5884, 590.7745
725.0706, 590.2381
725.5527, 589.7028
726.0348, 588.7576
726.5169, 586.7014
726.9990, 585.0682
727.4811, 584.6243
727.9633, 584.7017
728.4454, 584.5309
728.9275, 584.1145
729.4096, 584.0645
729.8917, 584.8915
730.3738, 586.0973
730.8560, 586.6152
731.3381, 586.4296
731.8202, 586.1135
732.3023, 585.8362
732.7844, 585.2197
733.2665, 583.5871
733.7487, 581.4182
734.2308, 580.5146
734.7129, 581.6477
735.1950, 582.5817
735.6771, 582.5444
736.1592, 582.4182
736.6414, 583.0530
737.1235, 584.1769
737.6056, 585.0852
738.0877, 585.4741
738.5698, 585.2468
739.0519, 583.8268
739.5341, 581.4500
740.0162, 580.4129
740.4983, 581.0842
740.9804, 581.9333
741.4625, 582.4404
741.9446, 582.4884
742.4268, 581.6163
742.9089, 579.4844
743.3910, 578.2327
743.8731, 578.6588
744.3552, 579.3230
744.8373, 579.5372
745.3195, 579.5550
745.8016, 579.8110
746.2837, 580.3876
746.7658, 581.0194
747.2479, 581.5758
747.7300, 581.9586
748.2122, 581.8392
748.6943, 581.2133
749.1764, 580.4072
749.6585, 579.4383
750.1406, 578.5156
750.6227, 577.8185
751.1049, 577.3551
751.5870, 577.1245
752.0691, 577.6290
752.5512, 577.6714
753.0333, 576.6084
753.5154, 575.3344
753.9976, 574.5663
754.4797, 574.2782
754.9618, 574.1368
755.4439, 574.0421
755.9260, 573.7611
756.4081, 572.7666
756.8903, 571.2905
757.3724, 570.3046
757.8545, 569.9295
758.3366, 569.9871
758.8187, 570.4816
759.3008, 571.1803
759.7830, 571.4379
760.2651, 570.6222
760.7472, 570.9006
761.2293, 573.9329
761.7114, 576.1386
762.1935, 575.3545
762.6757, 573.2097
763.1578, 571.8268
763.6399, 571.7075
764.1220, 572.2217
764.6041, 573.2734
765.0862, 574.4836
765.5684, 575.0839
766.0505, 575.2591
766.5326, 576.2697
767.0147, 578.6051
767.4968, 580.3185
767.9789, 578.9772
768.4611, 574.7617
768.9432, 572.2763
769.4253, 572.3143
769.9074, 572.7299
770.3895, 573.7959
770.8716, 574.5904
771.3538, 574.2098
771.8359, 573.0070
772.3180, 572.1464
772.8001, 571.9594
773.2822, 572.2740
773.7643, 573.5448
774.2465, 574.9615
774.7286, 575.1443
775.2107, 574.1770
775.6928, 573.2172
776.1749, 572.9102
776.6570, 572.9474
777.1392, 572.6783
777.6213, 572.0087
778.1034, 571.8200
778.5855, 572.6068
779.0676, 572.9122
779.5497, 571.4997
780.0319, 569.6123
780.5140, 568.9447
780.9961, 569.6074
781.4782, 570.1954
781.9603, 570.4914
782.4424, 570.4869
782.9246, 569.9749
783.4067, 569.2454
783.8888, 568.5322
784.3709, 567.9948
784.8530, 568.1114
785.3351, 569.5066
785.8173, 571.4289
786.2994, 571.8149
786.7815, 570.6589
787.2636, 569.7040
787.7457, 569.1045
788.2278, 569.3132
788.7100, 570.9358
789.1921, 573.5892
789.6742, 575.7314
790.1563, 577.2618
790.6384, 578.5178
791.1205, 580.3026
791.6026, 581.0339
792.0847, 578.8807
792.5668, 575.4031
793.0490, 573.3100
793.5311, 573.3830
794.0132, 573.7700
794.4953, 572.7234
794.9774, 572.6306
795.4595, 572.2308
795.9417, 571.1404
796.4238, 570.9666
796.9059, 569.5460
797.3880, 568.0194
797.8701, 567.6706
798.3522, 568.4169
798.8344, 568.9872
799.3165, 569.2048
799.7986, 569.5696
800.2807, 570.4123
800.7628, 571.1833
801.2449, 571.6956
801.7271, 571.8613
802.2092, 571.3771
802.6913, 569.7750
803.1734, 568.5264
803.6555, 568.5623
804.1376, 569.2240
804.6198, 569.9752
805.1019, 570.7033
805.5840, 571.3903
806.0661, 572.0208
806.5482, 572.4070
807.0303, 572.1842
807.5125, 571.4391
807.9946, 570.9422
808.4767, 570.7006
808.9588, 570.6895
809.4409, 570.9614
809.9230, 571.3712
810.4052, 571.8865
810.8873, 572.4941
811.3694, 572.4822
811.8515, 570.6861
812.3336, 569.8520
812.8157, 571.9049
813.2979, 573.9681
813.7800, 572.9101
814.2621, 569.8865
814.7442, 568.6855
815.2263, 571.1883
815.7084, 574.3504
816.1906, 575.0236
816.6727, 574.2714
817.1548, 574.2308
817.6369, 574.9880
818.1190, 575.8796
818.6011, 576.6197
819.0833, 577.2587
819.5654, 577.8325
820.0475, 578.3289
820.5296, 579.2314
821.0117, 581.3781
821.4938, 582.1956
821.9760, 580.0301
822.4581, 577.1270
822.9402, 575.2426
823.4223, 574.2411
823.9044, 573.3839
824.3865, 572.3873
824.8687, 571.7494
825.3508, 571.8171
825.8329, 572.2156
826.3150, 572.6166
826.7971, 573.0189
827.2792, 573.6071
827.7614, 574.4705
828.2435, 575.2673
828.7256, 575.3167
829.2077, 574.9471
829.6898, 575.6401
830.1719, 577.4233
830.6541, 578.8776
831.1362, 579.5397
831.6183, 579.3770
832.1004, 578.1036
832.5825, 575.7549
833.0646, 574.6617
833.5468, 575.6401
834.0289, 576.6371
834.5110, 577.6547
834.9931, 578.3848
835.4752, 578.5043
835.9573, 578.2029
836.4395, 577.9106
836.9216, 577.6422
837.4037, 577.7158
837.8858, 578.8145
838.3679, 579.9454
838.8500, 579.6605
839.3322, 578.5672
839.8143, 578.5068
840.2964, 580.0401
840.7785, 581.7446
841.2606, 581.7663
841.7427, 583.3939
842.2249, 584.8237
842.7070, 585.1814
843.1891, 587.4875
843.6712, 587.8073
844.1533, 587.7006
844.6354, 588.7115
845.1176, 590.3694
845.5997, 590.3221
846.0818, 586.3640
846.5639, 584.2131
847.0460, 585.0093
847.5281, 586.3095
848.0103, 587.0484
848.4924, 587.5259
848.9745, 588.3346
849.4566, 589.5914
849.9387, 590.7549
850.4208, 591.3785
850.9030, 591.9487
851.3851, 592.8896
851.8672, 594.1229
852.3493, 595.6331
852.8314, 597.3108
853.3135, 598.6824
853.7957, 599.3279
854.2778, 599.5776
854.7599, 600.1083
855.2420, 600.9191
855.7241, 601.9861
856.2062, 603.3127
856.6884, 604.8948
857.1705, 606.9033
857.6526, 608.9310
858.1347, 610.3083
858.6168, 611.1154
859.0989, 610.8422
859.5811, 608.3115
860.0632, 606.2454
860.5453, 605.3229
861.0274, 605.0662
861.5095, 605.2713
861.9916, 605.7661
862.4738, 606.0339
862.9559, 605.7078
863.4380, 605.4841
863.9201, 605.9979
864.4022, 606.7431
864.8843, 607.1398
865.3665, 607.1896
865.8486, 607.1310
866.3307, 607.0632
866.8128, 606.8043
867.2949, 606.1979
867.7770, 605.2137
868.2592, 603.3151
868.7413, 600.4784
869.2234, 599.0645
869.7055, 600.0547
870.1876, 601.1856
870.6697, 600.1872
871.1519, 597.5590
871.6340, 596.1632
872.1161, 596.7750
872.5981, 597.1204
873.0803, 596.5306
873.5624, 596.2767
874.0445, 597.4528
874.5266, 599.0223
875.0087, 599.5035
875.4908, 598.6746
875.9730, 597.3594
876.4551, 595.1994
876.9372, 593.3355
877.4193, 592.5073
877.9014, 592.3874
878.3835, 592.5654
878.8657, 592.9647
879.3478, 593.7393
879.8299, 595.0871
880.3120, 596.4395
880.7941, 596.7532
881.2762, 596.4496
881.7584, 596.7635
882.2405, 597.8071
882.7226, 599.6312
883.2047, 602.2794
883.6868, 605.6145
884.1689, 609.6947
884.6511, 614.4484
885.1332, 617.1439
885.6153, 617.1427
886.0974, 616.8541
886.5795, 617.0457
887.0616, 616.6661
887.5438, 613.5726
888.0259, 609.3430
888.5080, 608.9124
888.9901, 614.1124
889.4722, 618.9604
889.9543, 622.5690
890.4365, 625.6862
890.9186, 628.4506
891.4007, 631.0856
891.8828, 633.7920
892.3649, 636.6302
892.8470, 639.5827
893.3292, 642.7825
893.8113, 645.9258
894.2934, 648.1138
894.7755, 650.2919
895.2576, 654.4718
895.7397, 660.4560
896.2219, 666.2604
896.7040, 670.8157
897.1861, 674.8489
897.6682, 679.3916
898.1503, 684.3704
898.6324, 689.4245
899.1146, 694.5751
899.5967, 699.3058
900.0788, 703.4621
900.5609, 707.1458
901.0430, 710.2103
901.5251, 712.9395
902.0073, 717.1653
902.4894, 723.7266
902.9715, 730.0944
903.4536, 735.7855
903.9357, 741.6993
904.4178, 748.1094
904.9000, 755.0002
905.3821, 762.1894
905.8642, 769.6067
906.3463, 778.0125
906.8284, 787.7690
907.3105, 798.2874
907.7927, 809.2938
908.2748, 820.8176
908.7569, 832.1213
909.2390, 843.9922
909.7211, 859.0457
910.2032, 878.6674
910.6854, 900.0284
911.1675, 920.5908
911.6496, 941.2975
912.1317, 963.0726
912.6138, 986.2514
913.0959, 1011.568
913.5781, 1039.347
914.0602, 1070.459
914.5423, 1105.892
915.0244, 1145.420
915.5065, 1188.563
915.9886, 1235.391
916.4708, 1288.345
916.9529, 1348.417
917.4350, 1413.513
917.9171, 1483.672
918.3992, 1557.023
918.8813, 1630.283
919.3635, 1703.849
919.8456, 1779.158
920.3277, 1864.744
920.8098, 1938.125
921.2919, 1994.837
921.7740, 2037.359
922.2562, 2071.216
922.7383, 2091.770
923.2204, 2084.503
923.7025, 2042.918
924.1846, 1986.083
924.6667, 1915.526
925.1489, 1834.281
925.6310, 1740.254
926.1131, 1639.123
926.5952, 1534.963
927.0773, 1430.517
927.5594, 1333.474
928.0416, 1247.231
928.5237, 1172.362
929.0058, 1109.917
929.4879, 1058.124
929.9700, 1014.859
930.4521, 979.0555
930.9343, 949.5440
931.4164, 925.7734
931.8985, 906.7073
932.3806, 891.5140
932.8627, 880.0981
933.3448, 872.5372
933.8270, 868.6870
934.3091, 867.0035
934.7912, 867.2297
935.2733, 868.8789
935.7554, 871.7783
936.2375, 875.4462
936.7197, 878.3965
937.2018, 880.0151
937.6839, 884.4315
938.1660, 891.6044
938.6481, 902.0303
939.1302, 918.5585
939.6124, 935.1921
940.0945, 944.5761
940.5766, 947.8112
941.0587, 955.5499
941.5408, 968.9364
942.0229, 984.8800
942.5051, 1002.186
942.9872, 1023.159
943.4693, 1048.322
943.9514, 1078.150
944.4335, 1112.723
944.9156, 1152.201
945.3978, 1197.780
945.8799, 1248.872
946.3620, 1307.651
946.8441, 1375.121
947.3262, 1450.328
947.8083, 1533.656
948.2905, 1623.444
948.7726, 1717.020
949.2547, 1813.525
949.7368, 1913.758
950.2189, 2016.993
950.7010, 2125.994
951.1832, 2243.293
951.6653, 2370.449
952.1474, 2508.823
952.6295, 2660.295
953.1116, 2830.570
953.5938, 3023.347
954.0759, 3242.781
954.5580, 3493.313
955.0400, 3776.570
955.5222, 4097.818
956.0043, 4459.466
956.4864, 4872.702
956.9685, 5343.075
957.4506, 5865.356
957.9327, 6439.097
958.4149, 7050.842
958.8970, 7640.930
959.3791, 8236.563
959.8612, 8688.739
960.3433, 8996.700
960.8254, 9131.967
961.3076, 9053.787
961.7897, 8824.091
962.2718, 8502.386
962.7539, 8086.787
963.2360, 7709.821
963.7181, 7350.743
964.2003, 7065.469
964.6824, 6869.323
965.1645, 6734.956
965.6466, 6657.199
966.1287, 6627.300
966.6108, 6634.299
967.0930, 6678.391
967.5751, 6745.148
968.0572, 6842.824
968.5393, 6948.591
969.0214, 7073.565
969.5035, 7185.960
969.9857, 7274.353
970.4678, 7322.505
970.9499, 7303.250
971.4320, 7209.686
971.9141, 7034.686
972.3962, 6767.452
972.8784, 6423.503
973.3605, 5995.394
973.8426, 5511.668
974.3247, 4996.622
974.8068, 4468.999
975.2889, 3959.490
975.7711, 3483.208
976.2532, 3052.207
976.7353, 2678.714
977.2174, 2360.799
977.6995, 2096.391
978.1816, 1880.659
978.6638, 1707.718
979.1459, 1573.437
979.6280, 1469.261
980.1101, 1389.849
980.5922, 1330.591
981.0743, 1286.155
981.5565, 1255.275
982.0386, 1230.102
982.5207, 1210.155
983.0028, 1195.887
983.4849, 1187.550
983.9670, 1185.020
984.4492, 1188.421
984.9313, 1197.250
985.4134, 1209.404
985.8955, 1224.964
986.3776, 1244.087
986.8597, 1268.331
987.3419, 1290.585
987.8240, 1307.636
988.3061, 1320.555
988.7882, 1331.032
989.2703, 1336.849
989.7524, 1341.923
990.2346, 1338.388
990.7167, 1332.711
991.1988, 1324.779
991.6809, 1315.639
992.1630, 1305.547
992.6451, 1294.812
993.1273, 1284.868
993.6094, 1276.648
994.0915, 1262.573
994.5736, 1238.323
995.0557, 1213.978
995.5378, 1192.092
996.0200, 1170.145
996.5021, 1146.055
996.9842, 1120.775
997.4663, 1096.515
997.9484, 1073.771
998.4305, 1051.061
998.9127, 1027.948
999.3948, 1005.010
999.8769, 982.3273
1000.359, 960.2858
1000.841, 939.0428
1001.323, 918.8911
1001.805, 900.3594
1002.287, 883.5793
1002.770, 868.9965
1003.252, 857.7261
1003.734, 847.8307
1004.216, 838.1850
1004.698, 828.7643
1005.180, 818.4901
1005.662, 808.3378
1006.144, 801.5936
1006.627, 799.8032
1007.109, 800.4652
1007.591, 802.9529
1008.073, 805.5821
1008.555, 805.9440
1009.037, 805.0701
1009.519, 804.7986
1010.001, 805.6046
1010.483, 807.5362
1010.966, 810.6558
1011.448, 814.6111
1011.930, 819.4575
1012.412, 824.6137
1012.894, 828.7454
1013.376, 832.1790
1013.858, 836.1594
1014.340, 840.9409
1014.823, 845.7636
1015.305, 850.0534
1015.787, 854.3678
1016.269, 860.3751
1016.751, 867.1634
1017.233, 870.9717
1017.715, 871.9127
1018.197, 871.7129
1018.679, 870.9145
1019.162, 870.9633
1019.644, 873.2501
1020.126, 872.9911
1020.608, 873.8199
1021.090, 875.1276
1021.572, 875.1577
1022.054, 877.2535
1022.536, 879.0056
1023.018, 879.5476
1023.501, 880.4796
1023.983, 883.3905
1024.465, 887.5071
1024.947, 890.2272
1025.429, 891.3512
1025.911, 893.3917
1026.393, 896.6334
1026.875, 899.6437
1027.358, 901.7543
1027.840, 904.1205
1028.322, 908.1136
1028.804, 913.0607
1029.286, 916.1669
1029.768, 917.4182
1030.250, 916.8884
1030.732, 914.5049
1031.214, 910.4962
1031.697, 904.6457
1032.179, 897.6904
1032.661, 890.2793
1033.143, 882.4315
1033.625, 874.1556
1034.107, 865.6101
1034.589, 856.2604
1035.071, 846.4540
1035.553, 835.1692
1036.036, 821.5053
1036.518, 806.9394
1037.000, 792.5822
1037.482, 778.6094
1037.964, 765.8923
1038.446, 755.0945
1038.928, 744.3728
1039.410, 732.7394
1039.893, 722.5828
1040.375, 715.2741
1040.857, 709.3329
1041.339, 702.9058
1041.821, 696.4508
1042.303, 692.7469
1042.785, 694.1797
1043.267, 693.7599
1043.750, 689.7908
1044.232, 685.6886
1044.714, 682.1893
1045.196, 679.4619
1045.678, 677.8908
1046.160, 677.2732
1046.642, 676.7781
1047.124, 677.1208
1047.606, 675.7789
1048.089, 671.3160
1048.571, 666.4659
1049.053, 662.0784
1049.535, 658.0049
1050.017, 653.2016
1050.499, 648.4467
1050.981, 646.8369
1051.463, 650.2342
1051.945, 653.0912
1052.428, 653.5110
1052.910, 654.0556
1053.392, 655.9374
1053.874, 658.4645
1054.356, 661.0582
1054.838, 663.6404
1055.320, 666.0533
1055.802, 667.9848
1056.285, 670.7348
1056.767, 674.7974
1057.249, 679.6038
1057.731, 686.2726
1058.213, 692.4273
1058.695, 694.8525
1059.177, 694.7994
1059.659, 696.3486
1060.141, 700.4926
1060.624, 706.0339
1061.106, 713.9257
1061.588, 721.4761
1062.070, 727.5477
1062.552, 732.4698
1063.034, 736.7598
1063.516, 740.1916
1063.998, 741.8688
1064.480, 741.3785
1064.963, 740.8076
1065.445, 741.4383
1065.927, 741.6387
1066.409, 739.5914
1066.891, 737.5030
1067.373, 737.5892
1067.855, 739.4239
1068.337, 741.5402
1068.820, 743.5758
1069.302, 746.1254
1069.784, 748.5319
1070.266, 752.6506
1070.748, 761.0203
1071.230, 770.1890
1071.712, 776.6038
1072.194, 781.4567
1072.677, 787.9523
1073.159, 796.7526
1073.641, 805.5350
1074.123, 813.0163
1074.605, 820.5941
1075.087, 829.3266
1075.569, 838.1422
1076.051, 845.7781
1076.533, 852.9744
1077.016, 861.2375
1077.498, 870.8009
1077.980, 880.4551
1078.462, 889.9831
1078.944, 899.1507
1079.426, 907.1277
1079.908, 915.4651
1080.390, 925.7961
1080.872, 937.2216
1081.354, 948.4396
1081.837, 959.1575
1082.319, 969.3220
1082.801, 978.1754
1083.283, 988.0128
1083.765, 999.8360
1084.247, 1013.059
1084.729, 1027.956
1085.211, 1043.528
1085.694, 1058.658
1086.176, 1073.230
1086.658, 1088.068
1087.140, 1104.651
1087.622, 1118.073
1088.104, 1127.856
1088.586, 1132.209
1089.068, 1128.358
1089.551, 1119.592
1090.033, 1108.413
1090.515, 1095.881
1090.997, 1084.005
1091.479, 1073.429
1091.961, 1062.755
1092.443, 1052.123
1092.925, 1040.453
1093.407, 1026.527
1093.890, 1011.960
1094.372, 997.3479
1094.854, 983.6575
1095.336, 972.7496
1095.818, 965.1920
1096.300, 958.9091
1096.782, 954.2800
1097.264, 949.4562
1097.746, 943.0606
1098.229, 936.7482
1098.711, 932.6537
1099.193, 929.2814
1099.675, 923.4471
1100.157, 914.7083
1100.639, 906.5163
1101.121, 901.3884
1101.603, 894.5605
1102.086, 883.9182
1102.568, 872.0266
1103.050, 860.5307
1103.532, 848.7772
1104.014, 835.3932
1104.496, 820.4893
1104.978, 806.3235
1105.460, 792.6068
1105.943, 780.8277
1106.425, 772.4491
1106.907, 764.5279
1107.389, 756.3009
1107.871, 747.4058
1108.353, 737.5490
1108.835, 726.7483
1109.317, 715.0989
1109.799, 701.9213
1110.281, 689.5868
1110.764, 677.7700
1111.246, 667.5417
1111.728, 660.4464
1112.210, 653.8546
1112.692, 645.1986
1113.174, 635.6053
1113.656, 628.0154
1114.138, 622.8856
1114.621, 617.7959
1115.103, 612.5265
1115.585, 607.7219
1116.067, 604.4396
1116.549, 600.3404
1117.031, 593.3320
1117.513, 585.2538
1117.995, 579.1237
1118.478, 574.9949
1118.960, 570.6324
1119.442, 565.6459
1119.924, 561.4218
1120.406, 558.3935
1120.888, 555.5273
1121.370, 552.6959
1121.852, 549.2252
1122.334, 543.9071
1122.817, 537.3916
1123.299, 533.3688
1123.781, 532.4112
1124.263, 531.7379
1124.745, 531.7573
1125.227, 530.0664
1125.709, 525.3342
1126.191, 520.5651
1126.673, 518.2131
1127.156, 517.6907
1127.638, 517.9991
1128.120, 519.2418
1128.602, 517.6918
1129.084, 513.0079
1129.566, 509.0765
1130.048, 506.7035
1130.530, 505.0486
1131.013, 503.7091
1131.495, 502.3987
1131.977, 500.6084
1132.459, 498.5377
1132.941, 497.1142
1133.423, 496.3251
1133.905, 496.4307
1134.387, 497.3702
1134.870, 497.1356
1135.352, 494.9352
1135.834, 492.6891
1136.316, 492.3177
1136.798, 492.9008
1137.280, 492.3741
1137.762, 491.1465
1138.244, 490.7289
1138.726, 491.0430
1139.208, 491.4174
1139.691, 491.6385
1140.173, 491.5653
1140.655, 491.0987
1141.137, 490.3872
1141.619, 489.3890
1142.101, 488.4277
1142.583, 488.3086
1143.065, 488.6109
1143.548, 488.2627
1144.030, 487.3426
1144.512, 486.7498
1144.994, 486.8205
1145.476, 487.0387
1145.958, 487.4725
1146.440, 487.2440
1146.922, 484.4794
1147.405, 481.2876
1147.887, 480.8055
1148.369, 481.8960
1148.851, 481.7386
1149.333, 479.9519
1149.815, 478.3780
1150.297, 478.0858
1150.779, 477.5981
1151.261, 475.2116
1151.744, 473.2256
1152.226, 474.2114
1152.708, 475.9188
1153.190, 475.5215
1153.672, 473.3372
1154.154, 471.1517
1154.636, 469.2838
1155.118, 467.9156
1155.600, 467.3409
1156.083, 466.9466
1156.565, 467.1523
1157.047, 466.8167
1157.529, 464.4933
1158.011, 461.4342
1158.493, 459.7736
1158.975, 459.5819
1159.457, 459.1464
1159.940, 458.1899
1160.422, 457.2626
1160.904, 456.1472
1161.386, 455.4405
1161.868, 456.1041
1162.350, 456.3162
1162.832, 453.9120
1163.314, 449.9918
1163.796, 448.0654
1164.279, 448.5116
1164.761, 448.9521
1165.243, 449.5613
1165.725, 449.3904
1166.207, 447.8847
1166.689, 447.0018
1167.171, 448.1576
1167.653, 449.6344
1168.135, 448.8427
1168.618, 446.2703
1169.100, 444.4973
1169.582, 443.5313
1170.064, 443.8882
1170.546, 445.5710
1171.028, 446.2430
1171.510, 445.1284
1171.992, 444.2551
1172.474, 445.3630
1172.957, 447.1176
1173.439, 447.1340
1173.921, 445.9409
1174.403, 444.8319
1174.885, 443.9443
1175.367, 443.8603
1175.849, 444.4186
1176.331, 444.2580
1176.814, 442.8351
1177.296, 441.8106
1177.778, 442.5986
1178.260, 444.6137
1178.742, 448.8456
1179.224, 452.6448
1179.706, 451.3291
1180.188, 447.1010
1180.671, 444.9753
1181.153, 445.5260
1181.635, 445.6696
1182.117, 443.8964
1182.599, 442.2188
1183.081, 441.6923
1183.563, 441.6360
1184.045, 441.8307
1184.527, 442.1144
1185.010, 442.6740
1185.492, 443.1170
1185.974, 442.3616
1186.456, 440.1601
1186.938, 438.7982
1187.420, 439.3940
1187.902, 439.7133
1188.384, 438.8070
1188.866, 438.3042
1189.349, 439.0965
1189.831, 440.4474
1190.313, 441.8852
1190.795, 443.1858
1191.277, 443.4489
1191.759, 442.5532
1192.241, 440.9353
1192.723, 438.0192
1193.206, 436.6334
1193.688, 437.8001
1194.170, 438.7035
1194.652, 437.5171
1195.134, 435.9502
1195.616, 436.5706
1196.098, 438.7134
1196.580, 439.6955
1197.063, 439.5416
1197.545, 438.1171
1198.027, 435.6491
1198.509, 434.2844
1198.991, 434.5620
1199.473, 434.9574
1199.955, 434.4028
1200.437, 434.5898
1200.919, 433.7450
1201.401, 434.2416
1201.884, 434.0403
1202.366, 433.7651
1202.848, 435.1485
1203.330, 437.5792
1203.812, 438.8156
1204.294, 438.2271
1204.776, 436.8972
1205.258, 434.9915
1205.741, 433.4320
1206.223, 432.8562
1206.705, 432.8109
1207.187, 433.5722
1207.669, 434.1925
1208.151, 432.9445
1208.633, 430.6122
1209.115, 430.1679
1209.598, 432.6005
1210.080, 434.0077
1210.562, 432.8610
1211.044, 432.0497
1211.526, 432.2968
1212.008, 432.8219
1212.490, 433.5440
1212.972, 434.0778
1213.454, 433.9471
1213.937, 433.2384
1214.419, 432.2437
1214.901, 430.7065
1215.383, 430.3351
1215.865, 431.3815
1216.347, 432.1906
1216.829, 432.4525
1217.311, 431.6212
1217.793, 429.1612
1218.276, 427.2208
1218.758, 429.2167
1219.240, 433.2192
1219.722, 433.3495
1220.204, 430.7982
1220.686, 429.7567
1221.168, 430.2076
1221.650, 430.6873
1222.133, 430.8175
1222.615, 430.8188
1223.097, 430.7551
1223.579, 431.1512
1224.061, 432.6449
1224.543, 434.6515
1225.025, 437.6523
1225.507, 439.9650
1225.990, 439.1360
1226.472, 436.2439
1226.954, 433.4791
1227.436, 431.2779
1227.918, 429.2829
1228.400, 427.2914
1228.882, 425.7362
1229.364, 424.6006
1229.846, 424.0758
1230.328, 424.9085
1230.811, 425.6986
1231.293, 425.1347
1231.775, 423.9959
1232.257, 423.8110
1232.739, 424.5704
1233.221, 424.7052
1233.703, 423.9052
1234.185, 424.0034
1234.668, 425.3757
1235.150, 426.1760
1235.632, 425.7340
1236.114, 425.2025
1236.596, 425.5533
1237.078, 425.9479
1237.560, 424.4532
1238.042, 421.9892
1238.525, 421.8365
1239.007, 423.2919
1239.489, 424.3286
1239.971, 424.6955
1240.453, 424.4465
1240.935, 423.7074
1241.417, 423.1598
1241.899, 423.2978
1242.381, 423.4981
1242.864, 422.9356
1243.346, 422.5889
1243.828, 423.7785
1244.310, 425.2217
1244.792, 425.3452
1245.274, 424.5584
1245.756, 424.0498
1246.238, 423.9909
1246.720, 423.6705
1247.203, 422.5430
1247.685, 421.8456
1248.167, 421.3744
1248.649, 421.9072
1249.131, 424.7879
1249.613, 426.8291
1250.095, 424.9993
1250.577, 421.6537
1251.059, 421.6760
1251.542, 424.6473
1252.024, 425.3582
1252.506, 423.8268
1252.988, 422.1712
1253.470, 420.6466
1253.952, 420.0775
1254.434, 420.6654
1254.916, 421.4662
1255.399, 421.8460
1255.881, 421.9135
1256.363, 421.9018
1256.845, 421.5723
1257.327, 419.8910
1257.809, 418.1267
1258.291, 418.6403
1258.773, 420.5667
1259.255, 421.7600
1259.738, 421.7762
1260.220, 421.1507
1260.702, 419.7719
1261.184, 418.6202
1261.666, 417.7809
1262.148, 417.5345
1262.630, 418.4836
1263.112, 419.5583
1263.594, 420.1902
1264.077, 420.3268
1264.559, 419.7727
1265.041, 418.6246
1265.523, 417.7105
1266.005, 417.0567
1266.487, 416.4586
1266.969, 415.8847
1267.451, 415.7599
1267.934, 416.2128
1268.416, 416.0391
1268.898, 414.5414
1269.380, 412.3061
1269.862, 409.5147
1270.344, 407.2946
1270.826, 408.4604
1271.308, 411.2346
1271.791, 412.5648
1272.273, 412.6085
1272.755, 411.7841
1273.237, 410.5732
1273.719, 410.2321
1274.201, 411.2490
1274.683, 412.0324
1275.165, 411.6844
1275.647, 411.2433
1276.130, 411.0695
1276.612, 410.9510
1277.094, 411.0951
1277.576, 410.9264
1278.058, 409.3702
1278.540, 409.6945
1279.022, 407.0645
1279.504, 409.0287
1279.986, 409.7616
1280.469, 409.0728
1280.951, 408.2361
1281.433, 407.3525
1281.915, 407.5821
1282.397, 409.3618
1282.879, 409.9977
1283.361, 407.1108
1283.843, 403.8129
1284.326, 403.8047
1284.808, 407.0686
##END=



