##NAMES=Bobierrite
##RRUFFID=R060681
##IDEAL CHEMISTRY=Mg_3_(PO_4_)_2_&#183;8H_2_O
##LOCALITY=Kovdor Massif, Kola Peninsula, Murmanskaja Oblast', Northern Region, Russia
##OWNER=RRUFF
##SOURCE=Michael Scott
##DESCRIPTION=Colorless sectile tabular crystals
##STATUS=The identification of this mineral has been confirmed by X-ray diffraction and chemical analysis
##URL=rruff.info/R060681
##MEASURED CHEMISTRY=(Mg_2.94_Fe_0.05_Mn_0.01_)_Σ=3_(P_1.00_O_4_)_2_·8H_2_O; H_2_O estimated by difference
113.809, 762.912
114.291, 778.121
114.773, 795.611
115.256, 818.222
115.738, 846.136
116.220, 871.990
116.702, 889.604
117.184, 904.565
117.666, 923.575
118.148, 948.118
118.630, 978.171
119.113, 1013.850
119.595, 1056.201
120.077, 1101.212
120.559, 1143.161
121.041, 1185.443
121.523, 1236.517
122.005, 1311.402
122.487, 1393.832
122.969, 1464.800
123.451, 1515.972
123.934, 1560.550
124.416, 1604.312
124.898, 1648.607
125.380, 1704.681
125.862, 1785.117
126.344, 1883.275
126.826, 1985.330
127.309, 2081.021
127.791, 2178.453
128.273, 2288.560
128.755, 2410.948
129.237, 2549.535
129.719, 2703.270
130.201, 2874.291
130.683, 3076.360
131.165, 3311.621
131.648, 3580.334
132.130, 3881.268
132.612, 4203.114
133.094, 4578.730
133.576, 5063.438
134.058, 5652.945
134.540, 6348.932
135.022, 7199.969
135.504, 8217.788
135.987, 9200.231
136.469, 10225.720
136.951, 11186.630
137.433, 11590.580
137.915, 11385.700
138.397, 10780.300
138.879, 9892.027
139.361, 8629.180
139.844, 7428.507
140.326, 6376.137
140.808, 5462.867
141.290, 4715.011
141.772, 4149.749
142.254, 3722.428
142.736, 3382.834
143.218, 3147.347
143.700, 2962.880
144.182, 2811.715
144.665, 2700.822
145.147, 2606.983
145.629, 2528.806
146.111, 2467.981
146.593, 2432.372
147.075, 2435.176
147.557, 2449.271
148.040, 2461.563
148.522, 2456.617
149.004, 2470.874
149.486, 2508.350
149.968, 2567.865
150.450, 2638.317
150.932, 2728.093
151.414, 2824.899
151.896, 2919.623
152.378, 2986.026
152.861, 3044.053
153.343, 3063.556
153.825, 3044.839
154.307, 2971.411
154.789, 2893.706
155.271, 2771.907
155.753, 2616.938
156.235, 2445.125
156.718, 2211.338
157.200, 1972.604
157.682, 1896.969
158.164, 1858.500
158.646, 1837.679
159.128, 1830.488
159.610, 1830.032
160.092, 1835.711
160.574, 1846.438
161.057, 1861.481
161.539, 1880.350
162.021, 1904.223
162.503, 1935.018
162.985, 1971.446
163.467, 2009.611
163.949, 2047.364
164.431, 2086.214
164.913, 2127.644
165.396, 2169.296
165.878, 2216.330
166.360, 2270.942
166.842, 2333.165
167.324, 2403.147
167.806, 2478.660
168.288, 2562.843
168.770, 2659.370
169.253, 2774.438
169.735, 2899.929
170.217, 3036.490
170.699, 3184.894
171.181, 3323.499
171.663, 3445.222
172.145, 3544.777
172.627, 3617.401
173.109, 3654.797
173.592, 3666.438
174.074, 3653.351
174.556, 3609.133
175.038, 3571.716
175.520, 3566.291
176.002, 3594.685
176.484, 3661.096
176.966, 3776.165
177.449, 3930.015
177.931, 4101.831
178.413, 4284.123
178.895, 4496.519
179.377, 4744.588
179.859, 5035.562
180.341, 5400.286
180.823, 5851.631
181.305, 6394.937
181.788, 7048.248
182.270, 7885.131
182.752, 8771.887
183.234, 9564.665
183.716, 10265.900
184.198, 10650.190
184.680, 10443.070
185.162, 9733.234
185.645, 8851.325
186.127, 7800.864
186.609, 6677.694
187.091, 5744.570
187.573, 5008.001
188.055, 4427.135
188.537, 4001.028
189.019, 3720.363
189.501, 3501.004
189.984, 3317.732
190.466, 3170.616
190.948, 3072.458
191.430, 3026.427
191.912, 3015.306
192.394, 3023.092
192.876, 3049.496
193.358, 3077.814
193.840, 3092.985
194.323, 3097.844
194.805, 3130.938
195.287, 3197.810
195.769, 3284.527
196.251, 3364.628
196.733, 3436.283
197.215, 3518.814
197.697, 3619.199
198.180, 3737.335
198.662, 3883.778
199.144, 4062.918
199.626, 4266.548
200.108, 4483.393
200.590, 4717.160
201.072, 4947.199
201.554, 5166.845
202.036, 5377.573
202.519, 5559.356
203.001, 5697.398
203.483, 5807.854
203.965, 5949.483
204.447, 6118.906
204.929, 6329.542
205.411, 6585.193
205.893, 6883.545
206.376, 7244.268
206.858, 7673.200
207.340, 8167.810
207.822, 8706.897
208.304, 9283.666
208.786, 9920.238
209.268, 10630.780
209.750, 11410.970
210.232, 12265.580
210.715, 13187.980
211.197, 14178.950
211.679, 15288.660
212.161, 16542.381
212.643, 17889.359
213.125, 19310.850
213.607, 20891.750
214.089, 22338.480
214.572, 23627.141
215.054, 24772.279
215.536, 25503.529
216.018, 25819.039
216.500, 25718.740
216.982, 25153.080
217.464, 23989.189
217.946, 22662.680
218.428, 21285.490
218.911, 19803.020
219.393, 18472.971
219.875, 17305.100
220.357, 16268.870
220.839, 15321.850
221.321, 14462.280
221.803, 13700.290
222.285, 13054.810
222.768, 12580.610
223.250, 12058.530
223.732, 11481.550
224.214, 10858.840
224.696, 10178.160
225.178, 9375.956
225.660, 8627.011
226.142, 8010.185
226.624, 7541.897
227.107, 7151.454
227.589, 6835.219
228.071, 6594.893
228.553, 6449.754
229.035, 6419.289
229.517, 6454.649
229.999, 6534.227
230.481, 6672.738
230.964, 6826.276
231.446, 6998.753
231.928, 7185.823
232.410, 7366.964
232.892, 7569.004
233.374, 7730.486
233.856, 7810.745
234.338, 7795.679
234.820, 7731.409
235.303, 7618.810
235.785, 7459.061
236.267, 7254.133
236.749, 6983.763
237.231, 6692.659
237.713, 6408.304
238.195, 6123.564
238.677, 5860.399
239.160, 5626.360
239.642, 5419.058
240.124, 5209.876
240.606, 4992.568
241.088, 4780.295
241.570, 4582.807
242.052, 4400.483
242.534, 4232.365
243.016, 4080.468
243.499, 3944.406
243.981, 3810.884
244.463, 3670.674
244.945, 3542.339
245.427, 3442.803
245.909, 3382.576
246.391, 3332.668
246.873, 3288.189
247.355, 3248.890
247.838, 3220.448
248.320, 3202.265
248.802, 3195.120
249.284, 3199.933
249.766, 3217.265
250.248, 3245.252
250.730, 3283.384
251.212, 3331.891
251.695, 3392.545
252.177, 3468.590
252.659, 3554.111
253.141, 3645.136
253.623, 3747.455
254.105, 3841.232
254.587, 3913.687
255.069, 3960.704
255.551, 4052.349
256.034, 4203.211
256.516, 4384.233
256.998, 4558.555
257.480, 4705.799
257.962, 4887.583
258.444, 5122.708
258.926, 5411.302
259.408, 5727.854
259.891, 6074.049
260.373, 6441.829
260.855, 6833.409
261.337, 7279.888
261.819, 7671.626
262.301, 7994.219
262.783, 8255.623
263.265, 8372.293
263.747, 8336.912
264.229, 8166.549
264.712, 7860.237
265.194, 7377.955
265.676, 6872.040
266.158, 6380.635
266.640, 5893.282
267.122, 5478.387
267.604, 5143.668
268.086, 4871.387
268.569, 4645.172
269.051, 4463.015
269.533, 4326.780
270.015, 4241.650
270.497, 4207.500
270.979, 4201.910
271.461, 4226.021
271.943, 4276.747
272.426, 4348.172
272.908, 4437.831
273.390, 4557.144
273.872, 4710.110
274.354, 4895.459
274.836, 5110.331
275.318, 5354.245
275.800, 5627.585
276.282, 5924.391
276.765, 6242.461
277.247, 6596.862
277.729, 6988.598
278.211, 7418.204
278.693, 7900.875
279.175, 8433.593
279.657, 9026.245
280.139, 9698.935
280.621, 10455.010
281.104, 11256.130
281.586, 12127.560
282.068, 13047.240
282.550, 13894.350
283.032, 14696.950
283.514, 15339.470
283.996, 15696.050
284.478, 15766.900
284.961, 15545.120
285.443, 14964.380
285.925, 14065.340
286.407, 13091.960
286.889, 12021.730
287.371, 10954.320
287.853, 9977.795
288.335, 9094.893
288.818, 8348.853
289.300, 7792.706
289.782, 7389.591
290.264, 7024.828
290.746, 6695.345
291.228, 6409.841
291.710, 6171.184
292.192, 5983.337
292.674, 5861.367
293.156, 5865.861
293.639, 5931.128
294.121, 5870.598
294.603, 5679.225
295.085, 5436.994
295.567, 5206.922
296.049, 4991.214
296.531, 4789.820
297.013, 4605.597
297.496, 4434.880
297.978, 4267.125
298.460, 4102.861
298.942, 3950.120
299.424, 3822.299
299.906, 3713.208
300.388, 3603.213
300.870, 3479.165
301.353, 3355.296
301.835, 3251.655
302.317, 3169.656
302.799, 3099.595
303.281, 3038.003
303.763, 2983.199
304.245, 2933.430
304.727, 2884.421
305.209, 2842.284
305.692, 2815.625
306.174, 2803.484
306.656, 2795.827
307.138, 2782.396
307.620, 2769.986
308.102, 2768.121
308.584, 2785.186
309.066, 2808.327
309.548, 2823.849
310.031, 2834.162
310.513, 2855.965
310.995, 2899.361
311.477, 2959.417
311.959, 3031.159
312.441, 3113.342
312.923, 3206.556
313.405, 3314.884
313.888, 3436.093
314.370, 3556.567
314.852, 3669.795
315.334, 3782.164
315.816, 3900.066
316.298, 4033.727
316.780, 4160.798
317.262, 4273.625
317.744, 4374.017
318.227, 4461.785
318.709, 4547.513
319.191, 4615.046
319.673, 4654.490
320.155, 4660.994
320.637, 4644.488
321.119, 4603.506
321.601, 4541.022
322.083, 4464.205
322.566, 4385.487
323.048, 4285.128
323.530, 4151.235
324.012, 3963.174
324.494, 3778.533
324.976, 3601.375
325.458, 3432.490
325.940, 3272.798
326.422, 3126.128
326.905, 2987.348
327.387, 2854.728
327.869, 2730.135
328.351, 2610.659
328.833, 2489.777
329.315, 2375.858
329.797, 2282.034
330.280, 2222.072
330.762, 2167.262
331.244, 2108.710
331.726, 2043.070
332.208, 1988.484
332.690, 1949.541
333.172, 1918.742
333.654, 1886.174
334.136, 1850.732
334.618, 1815.174
335.101, 1778.429
335.583, 1739.907
336.065, 1708.733
336.547, 1686.522
337.029, 1669.019
337.511, 1651.895
337.993, 1634.282
338.475, 1619.316
338.958, 1607.710
339.440, 1599.254
339.922, 1593.865
340.404, 1592.489
340.886, 1591.390
341.368, 1586.544
341.850, 1577.604
342.332, 1570.295
342.815, 1566.838
343.297, 1565.353
343.779, 1559.468
344.261, 1548.773
344.743, 1537.121
345.225, 1525.235
345.707, 1513.925
346.189, 1509.772
346.671, 1515.920
347.154, 1526.848
347.636, 1533.124
348.118, 1534.814
348.600, 1534.054
349.082, 1527.721
349.564, 1519.815
350.046, 1522.955
350.528, 1541.186
351.010, 1563.425
351.493, 1574.670
351.975, 1577.576
352.457, 1582.262
352.939, 1596.909
353.421, 1615.744
353.903, 1631.286
354.385, 1642.962
354.867, 1650.923
355.349, 1647.898
355.832, 1641.495
356.314, 1646.724
356.796, 1684.074
357.278, 1726.851
357.760, 1753.164
358.242, 1760.808
358.724, 1764.830
359.207, 1768.959
359.689, 1775.922
360.171, 1789.010
360.653, 1817.431
361.135, 1845.124
361.617, 1864.373
362.099, 1875.362
362.581, 1883.710
363.063, 1892.436
363.546, 1898.876
364.028, 1900.931
364.510, 1891.310
364.992, 1884.509
365.474, 1889.714
365.956, 1903.049
366.438, 1903.181
366.920, 1876.133
367.402, 1843.248
367.885, 1815.233
368.367, 1800.319
368.849, 1779.900
369.331, 1749.480
369.813, 1713.490
370.295, 1683.193
370.777, 1658.525
371.259, 1640.057
371.741, 1629.064
372.224, 1629.545
372.706, 1625.862
373.188, 1616.747
373.670, 1604.312
374.152, 1590.869
374.634, 1574.194
375.116, 1562.677
375.598, 1560.776
376.081, 1568.872
376.563, 1571.102
377.045, 1564.846
377.527, 1557.934
378.009, 1562.535
378.491, 1580.529
378.973, 1588.159
379.455, 1574.571
379.938, 1546.981
380.420, 1536.961
380.902, 1546.226
381.384, 1557.645
381.866, 1551.756
382.348, 1533.123
382.830, 1529.593
383.312, 1551.373
383.794, 1583.516
384.276, 1599.521
384.759, 1601.148
385.241, 1601.177
385.723, 1606.684
386.205, 1616.539
386.687, 1630.178
387.169, 1648.996
387.651, 1665.842
388.134, 1667.354
388.616, 1660.622
389.098, 1662.882
389.580, 1689.754
390.062, 1725.447
390.544, 1756.881
391.026, 1783.577
391.508, 1806.175
391.990, 1826.585
392.473, 1842.749
392.955, 1852.325
393.437, 1841.966
393.919, 1836.122
394.401, 1847.333
394.883, 1874.924
395.365, 1904.671
395.847, 1937.696
396.329, 1968.370
396.812, 1992.435
397.294, 2007.977
397.776, 2018.285
398.258, 2020.164
398.740, 2016.075
399.222, 2015.790
399.704, 2019.727
400.186, 2027.337
400.668, 2039.051
401.151, 2058.445
401.633, 2073.600
402.115, 2079.374
402.597, 2083.493
403.079, 2100.371
403.561, 2135.758
404.043, 2171.983
404.525, 2201.506
405.008, 2223.738
405.490, 2257.335
405.972, 2305.892
406.454, 2358.881
406.936, 2401.389
407.418, 2431.388
407.900, 2477.397
408.382, 2550.813
408.865, 2643.259
409.347, 2726.182
409.829, 2798.097
410.311, 2872.929
410.793, 2959.677
411.275, 3057.967
411.757, 3163.621
412.239, 3277.945
412.721, 3397.158
413.203, 3510.776
413.686, 3622.737
414.168, 3745.060
414.650, 3886.515
415.132, 4041.267
415.614, 4204.225
416.096, 4374.376
416.578, 4545.870
417.060, 4713.512
417.543, 4879.120
418.025, 5039.564
418.507, 5214.286
418.989, 5369.636
419.471, 5484.811
419.953, 5559.975
420.435, 5622.851
420.917, 5698.952
421.400, 5758.176
421.882, 5776.955
422.364, 5735.297
422.846, 5671.687
423.328, 5591.319
423.810, 5493.716
424.292, 5376.877
424.774, 5239.483
425.256, 5082.185
425.739, 4900.924
426.221, 4679.626
426.703, 4476.931
427.185, 4295.501
427.667, 4130.500
428.149, 3978.233
428.631, 3839.240
429.113, 3712.373
429.595, 3598.639
430.078, 3497.389
430.560, 3393.843
431.042, 3285.931
431.524, 3180.607
432.006, 3083.637
432.488, 2994.973
432.970, 2917.965
433.452, 2852.467
433.935, 2799.661
434.417, 2757.390
434.899, 2726.469
435.381, 2703.800
435.863, 2701.694
436.345, 2694.597
436.827, 2682.777
437.309, 2652.088
437.791, 2645.764
438.274, 2629.674
438.756, 2613.186
439.238, 2610.292
439.720, 2591.409
440.202, 2589.094
440.684, 2576.072
441.166, 2552.519
441.648, 2531.465
442.130, 2514.866
442.613, 2506.917
443.095, 2511.646
443.577, 2538.100
444.059, 2566.789
444.541, 2592.108
445.023, 2615.200
445.505, 2639.521
445.987, 2668.698
446.470, 2696.213
446.952, 2718.143
447.434, 2729.526
447.916, 2748.528
448.398, 2773.038
448.880, 2806.472
449.362, 2853.179
449.844, 2914.059
450.327, 2986.629
450.809, 3076.434
451.291, 3179.920
451.773, 3265.737
452.255, 3326.946
452.737, 3388.445
453.219, 3466.336
453.701, 3561.360
454.183, 3677.007
454.665, 3819.315
455.148, 3975.250
455.630, 4122.464
456.112, 4262.672
456.594, 4409.783
457.076, 4568.201
457.558, 4740.473
458.040, 4935.531
458.522, 5153.182
459.005, 5385.958
459.487, 5621.714
459.969, 5865.472
460.451, 6129.880
460.933, 6421.975
461.415, 6731.571
461.897, 7042.962
462.379, 7358.666
462.862, 7691.460
463.344, 8044.870
463.826, 8416.174
464.308, 8803.261
464.790, 9212.467
465.272, 9619.893
465.754, 10026.970
466.236, 10421.270
466.718, 10780.880
467.201, 11125.110
467.683, 11415.260
468.165, 11643.300
468.647, 11808.290
469.129, 11926.320
469.611, 12008.070
470.093, 12027.960
470.575, 11968.120
471.057, 11824.250
471.540, 11610.030
472.022, 11315.210
472.504, 10960.730
472.986, 10599.880
473.468, 10232.130
473.950, 9851.828
474.432, 9448.893
474.914, 9027.241
475.397, 8601.715
475.879, 8170.348
476.361, 7753.641
476.843, 7370.056
477.325, 7016.427
477.807, 6691.750
478.289, 6399.479
478.771, 6126.871
479.254, 5862.103
479.736, 5605.453
480.218, 5358.104
480.700, 5109.835
481.182, 4875.618
481.664, 4674.831
482.146, 4510.790
482.628, 4364.178
483.110, 4233.808
483.592, 4114.218
484.075, 3998.065
484.557, 3883.369
485.039, 3773.165
485.521, 3667.669
486.003, 3566.466
486.485, 3476.597
486.967, 3404.553
487.449, 3336.689
487.932, 3265.406
488.414, 3189.533
488.896, 3114.895
489.378, 3039.181
489.860, 2967.422
490.342, 2906.471
490.824, 2857.443
491.306, 2812.249
491.789, 2768.325
492.271, 2725.886
492.753, 2682.365
493.235, 2636.935
493.717, 2596.628
494.199, 2569.831
494.681, 2552.228
495.163, 2530.733
495.645, 2501.492
496.128, 2470.990
496.610, 2447.917
497.092, 2429.546
497.574, 2409.765
498.056, 2380.770
498.538, 2352.153
499.020, 2331.252
499.502, 2318.486
499.984, 2308.802
500.467, 2302.274
500.949, 2296.674
501.431, 2290.154
501.913, 2281.292
502.395, 2272.635
502.877, 2263.006
503.359, 2253.685
503.841, 2249.154
504.323, 2256.519
504.806, 2259.119
505.288, 2248.291
505.770, 2220.822
506.252, 2206.152
506.734, 2206.493
507.216, 2215.455
507.698, 2191.143
508.181, 2176.123
508.663, 2219.691
509.145, 2249.038
509.627, 2264.925
510.109, 2227.046
510.591, 2258.596
511.073, 2262.325
511.555, 2264.909
512.037, 2306.231
512.519, 2276.172
513.002, 2316.879
513.484, 2329.341
513.966, 2354.728
514.448, 2352.120
514.930, 2357.422
515.412, 2353.527
515.894, 2359.937
516.377, 2376.464
516.859, 2400.714
517.341, 2423.982
517.823, 2445.842
518.305, 2464.702
518.787, 2478.280
519.269, 2482.444
519.751, 2494.489
520.233, 2518.320
520.716, 2547.371
521.198, 2574.194
521.680, 2595.729
522.162, 2624.331
522.644, 2665.398
523.126, 2713.091
523.608, 2744.728
524.090, 2757.618
524.572, 2772.805
525.055, 2806.265
525.537, 2853.188
526.019, 2889.429
526.501, 2912.948
526.983, 2934.659
527.465, 2964.293
527.947, 3000.347
528.429, 3040.245
528.911, 3082.189
529.394, 3128.324
529.876, 3184.506
530.358, 3247.109
530.840, 3306.738
531.322, 3355.276
531.804, 3401.614
532.286, 3449.038
532.768, 3495.621
533.250, 3551.919
533.733, 3622.801
534.215, 3702.701
534.697, 3786.079
535.179, 3881.222
535.661, 3967.741
536.143, 4036.872
536.625, 4098.304
537.107, 4179.739
537.589, 4288.148
538.072, 4399.608
538.554, 4498.374
539.036, 4587.177
539.518, 4706.163
540.000, 4857.937
540.482, 5022.296
540.964, 5172.218
541.446, 5313.848
541.929, 5468.794
542.411, 5641.212
542.893, 5827.130
543.375, 6022.254
543.857, 6228.018
544.339, 6444.209
544.821, 6659.598
545.303, 6891.413
545.786, 7154.930
546.268, 7453.074
546.750, 7754.903
547.232, 8040.309
547.714, 8331.457
548.196, 8644.954
548.678, 8969.371
549.160, 9331.534
549.643, 9740.043
550.125, 10182.850
550.607, 10638.560
551.089, 11116.660
551.571, 11596.250
552.053, 12068.580
552.535, 12534.110
553.017, 13035.770
553.499, 13581.000
553.982, 14130.420
554.464, 14667.020
554.946, 15189.220
555.428, 15695.700
555.910, 16193.030
556.392, 16651.949
556.874, 17054.750
557.356, 17400.039
557.838, 17684.680
558.321, 17946.561
558.803, 18114.740
559.285, 18138.061
559.767, 18024.980
560.249, 17817.670
560.731, 17517.539
561.213, 17138.500
561.695, 16673.381
562.177, 16092.240
562.660, 15513.750
563.142, 14957.930
563.624, 14404.000
564.106, 13826.720
564.588, 13221.020
565.070, 12629.330
565.552, 12049.500
566.034, 11493.360
566.516, 10977.990
566.999, 10502.220
567.481, 10063.990
567.963, 9662.903
568.445, 9299.069
568.927, 8934.919
569.409, 8572.582
569.891, 8249.031
570.373, 8018.410
570.856, 7844.975
571.338, 7676.781
571.820, 7494.263
572.302, 7328.925
572.784, 7196.684
573.266, 7093.308
573.748, 7008.439
574.230, 6928.618
574.713, 6877.981
575.195, 6869.612
575.677, 6903.254
576.159, 6952.779
576.641, 7021.224
577.123, 7100.181
577.605, 7181.966
578.087, 7255.498
578.570, 7379.252
579.052, 7571.189
579.534, 7784.565
580.016, 7953.273
580.498, 8079.431
580.980, 8218.964
581.462, 8392.796
581.944, 8575.727
582.426, 8731.927
582.909, 8861.217
583.391, 8956.444
583.873, 9014.264
584.355, 9034.633
584.837, 9012.262
585.319, 8946.774
585.801, 8858.534
586.283, 8763.874
586.765, 8645.925
587.248, 8487.136
587.730, 8243.357
588.212, 8026.342
588.694, 7897.070
589.176, 7785.899
589.658, 7582.018
590.140, 7227.913
590.622, 6895.543
591.104, 6630.839
591.587, 6419.208
592.069, 6161.081
592.551, 5835.927
593.033, 5591.546
593.515, 5390.559
593.997, 5224.543
594.479, 5050.032
594.961, 4867.481
595.443, 4652.836
595.926, 4479.026
596.408, 4342.687
596.890, 4233.936
597.372, 4118.038
597.854, 4018.595
598.336, 3962.670
598.818, 3932.102
599.300, 3889.594
599.783, 3808.712
600.265, 3729.206
600.747, 3663.294
601.229, 3610.546
601.711, 3567.898
602.193, 3543.158
602.675, 3518.167
603.157, 3479.972
603.640, 3425.532
604.122, 3383.052
604.604, 3354.712
605.086, 3333.424
605.568, 3312.529
606.050, 3291.475
606.532, 3264.794
607.014, 3227.822
607.497, 3190.910
607.979, 3171.199
608.461, 3163.374
608.943, 3151.206
609.425, 3120.698
609.907, 3087.737
610.389, 3061.351
610.871, 3042.153
611.353, 3027.309
611.836, 2979.901
612.318, 2963.444
612.800, 2951.186
613.282, 2953.652
613.764, 2952.545
614.246, 2948.055
614.728, 2930.052
615.210, 2929.498
615.692, 2921.952
616.175, 2914.117
616.657, 2916.020
617.139, 2899.982
617.621, 2901.730
618.103, 2896.378
618.585, 2894.276
619.067, 2885.136
619.549, 2878.172
620.031, 2878.244
620.514, 2866.592
620.996, 2861.885
621.478, 2868.011
621.960, 2880.516
622.442, 2897.133
622.924, 2920.234
623.406, 2939.546
623.888, 2953.382
624.370, 2962.322
624.853, 2965.364
625.335, 2951.972
625.817, 2955.511
626.299, 2986.731
626.781, 3033.102
627.263, 3063.507
627.745, 3077.108
628.227, 3085.573
628.710, 3092.398
629.192, 3098.198
629.674, 3105.139
630.156, 3113.102
630.638, 3119.567
631.120, 3119.048
631.602, 3118.088
632.084, 3126.156
632.567, 3147.091
633.049, 3162.971
633.531, 3166.119
634.013, 3160.143
634.495, 3148.628
634.977, 3115.899
635.459, 3099.326
635.941, 3113.635
636.424, 3140.565
636.906, 3140.667
637.388, 3104.851
637.870, 3070.550
638.352, 3050.044
638.834, 3039.353
639.316, 3021.817
639.798, 2997.334
640.280, 2970.672
640.763, 2943.524
641.245, 2916.421
641.727, 2890.012
642.209, 2864.314
642.691, 2841.562
643.173, 2824.668
643.655, 2810.558
644.137, 2796.594
644.619, 2782.896
645.102, 2767.891
645.584, 2748.802
646.066, 2728.994
646.548, 2712.725
647.030, 2700.787
647.512, 2691.200
647.994, 2684.324
648.476, 2679.280
648.958, 2671.304
649.441, 2659.377
649.923, 2654.135
650.405, 2670.150
650.887, 2695.261
651.369, 2688.199
651.851, 2650.843
652.333, 2622.913
652.815, 2647.712
653.297, 2690.036
653.780, 2708.520
654.262, 2692.217
654.744, 2678.058
655.226, 2675.975
655.708, 2685.738
656.190, 2707.234
656.672, 2757.390
657.154, 2795.896
657.636, 2814.630
658.119, 2824.364
658.601, 2846.843
659.083, 2884.723
659.565, 2921.130
660.047, 2950.949
660.529, 2975.575
661.011, 2997.834
661.494, 3018.042
661.976, 3038.313
662.458, 3056.630
662.940, 3077.874
663.422, 3109.987
663.904, 3153.102
664.386, 3196.325
664.868, 3235.861
665.350, 3272.116
665.833, 3306.318
666.315, 3341.133
666.797, 3367.137
667.279, 3372.491
667.761, 3377.336
668.243, 3404.783
668.725, 3461.929
669.207, 3515.225
669.690, 3561.214
670.172, 3598.592
670.654, 3618.396
671.136, 3623.302
671.618, 3632.629
672.100, 3619.808
672.582, 3617.115
673.064, 3611.966
673.546, 3604.489
674.029, 3587.715
674.511, 3582.946
674.993, 3573.366
675.475, 3563.587
675.957, 3560.509
676.439, 3545.087
676.921, 3541.244
677.403, 3511.262
677.885, 3484.001
678.368, 3458.007
678.850, 3442.223
679.332, 3439.247
679.814, 3440.531
680.296, 3439.538
680.778, 3435.245
681.260, 3419.352
681.742, 3387.308
682.224, 3351.506
682.707, 3325.950
683.189, 3307.808
683.671, 3291.944
684.153, 3279.751
684.635, 3265.781
685.117, 3244.630
685.599, 3219.155
686.081, 3199.446
686.563, 3194.916
687.046, 3187.821
687.528, 3173.027
688.010, 3150.967
688.492, 3128.254
688.974, 3102.858
689.456, 3085.298
689.938, 3089.287
690.420, 3108.810
690.903, 3112.012
691.385, 3097.448
691.867, 3077.002
692.349, 3053.338
692.831, 3033.541
693.313, 3028.673
693.795, 3045.429
694.277, 3062.728
694.760, 3072.074
695.242, 3076.400
695.724, 3079.052
696.206, 3082.164
696.688, 3080.617
697.170, 3069.242
697.652, 3055.945
698.134, 3060.317
698.617, 3086.530
699.099, 3102.552
699.581, 3094.820
700.063, 3074.623
700.545, 3068.161
701.027, 3073.413
701.509, 3079.722
701.991, 3077.956
702.473, 3076.662
702.956, 3084.995
703.438, 3102.388
703.920, 3119.669
704.402, 3139.576
704.884, 3153.096
705.366, 3150.274
705.848, 3124.666
706.330, 3119.646
706.812, 3145.658
707.295, 3176.031
707.777, 3187.741
708.259, 3180.361
708.741, 3179.430
709.223, 3187.741
709.705, 3198.599
710.187, 3205.052
710.669, 3208.002
711.151, 3209.012
711.634, 3207.792
712.116, 3206.242
712.598, 3203.185
713.080, 3201.135
713.562, 3204.199
714.044, 3223.184
714.526, 3235.578
715.008, 3234.524
715.490, 3224.369
715.973, 3217.838
716.455, 3215.597
716.937, 3214.245
717.419, 3212.873
717.901, 3211.388
718.383, 3209.996
718.865, 3208.561
719.347, 3205.698
719.830, 3198.394
720.312, 3190.462
720.794, 3190.756
721.276, 3198.553
721.758, 3193.792
722.240, 3142.112
722.722, 3094.302
723.204, 3087.729
723.687, 3146.212
724.169, 3171.180
724.651, 3147.894
725.133, 3110.843
725.615, 3088.742
726.097, 3082.549
726.579, 3069.789
727.061, 3047.365
727.544, 3023.731
728.026, 3008.223
728.508, 2998.729
728.990, 2990.491
729.472, 2982.929
729.954, 2974.993
730.436, 2966.142
730.918, 2956.563
731.400, 2946.390
731.883, 2941.399
732.365, 2928.348
732.847, 2899.289
733.329, 2862.808
733.811, 2840.222
734.293, 2834.791
734.775, 2830.584
735.257, 2824.022
735.739, 2814.437
736.222, 2796.801
736.704, 2772.824
737.186, 2753.995
737.668, 2753.989
738.150, 2757.227
738.632, 2746.645
739.114, 2723.835
739.596, 2703.860
740.078, 2694.753
740.561, 2687.912
741.043, 2678.441
741.525, 2665.575
742.007, 2658.267
742.489, 2659.522
742.971, 2660.150
743.453, 2652.134
743.935, 2636.323
744.417, 2628.074
744.900, 2628.721
745.382, 2626.838
745.864, 2606.784
746.346, 2579.002
746.828, 2558.908
747.310, 2549.650
747.792, 2545.380
748.274, 2548.428
748.757, 2552.545
749.239, 2551.238
749.721, 2536.024
750.203, 2528.485
750.685, 2532.425
751.167, 2540.614
751.649, 2542.049
752.131, 2536.443
752.614, 2535.875
753.096, 2545.704
753.578, 2555.020
754.060, 2538.054
754.542, 2508.147
755.024, 2497.209
755.506, 2541.216
755.988, 2582.891
756.471, 2585.264
756.953, 2561.986
757.435, 2547.332
757.917, 2551.762
758.399, 2559.149
758.881, 2567.352
759.363, 2576.175
759.845, 2586.676
760.327, 2600.051
760.810, 2606.128
761.292, 2594.456
761.774, 2575.604
762.256, 2575.410
762.738, 2591.068
763.220, 2607.788
763.702, 2617.896
764.184, 2624.922
764.666, 2628.115
765.149, 2627.864
765.631, 2636.795
766.113, 2664.698
766.595, 2694.177
767.077, 2716.903
767.559, 2732.253
768.041, 2757.121
768.523, 2793.590
769.005, 2829.040
769.487, 2852.254
769.970, 2866.910
770.452, 2883.283
770.934, 2902.060
771.416, 2920.895
771.898, 2931.122
772.380, 2945.072
772.862, 2979.215
773.344, 3049.646
773.827, 3095.022
774.309, 3088.112
774.791, 3069.344
775.273, 3066.751
775.755, 3080.938
776.237, 3111.822
776.719, 3163.957
777.201, 3218.681
777.683, 3254.253
778.166, 3275.472
778.648, 3294.312
779.130, 3311.309
779.612, 3333.173
780.094, 3371.909
780.576, 3415.721
781.058, 3449.378
781.541, 3455.793
782.023, 3469.907
782.505, 3496.354
782.987, 3530.362
783.469, 3567.469
783.951, 3609.175
784.433, 3642.288
784.915, 3662.584
785.397, 3676.606
785.880, 3696.833
786.362, 3719.962
786.844, 3735.348
787.326, 3736.322
787.808, 3732.695
788.290, 3730.973
788.772, 3729.459
789.254, 3724.745
789.737, 3715.673
790.219, 3703.612
790.701, 3689.056
791.183, 3671.529
791.665, 3648.047
792.147, 3616.796
792.629, 3592.695
793.111, 3583.993
793.593, 3581.025
794.076, 3566.629
794.558, 3542.690
795.040, 3516.250
795.522, 3488.059
796.004, 3460.644
796.486, 3436.417
796.968, 3414.232
797.450, 3389.738
797.932, 3363.308
798.415, 3333.234
798.897, 3296.351
799.379, 3255.937
799.861, 3230.371
800.343, 3220.793
800.825, 3206.504
801.307, 3170.705
801.789, 3126.932
802.271, 3096.258
802.754, 3076.980
803.236, 3060.002
803.718, 3037.789
804.200, 3019.586
804.682, 3015.181
805.164, 3024.081
805.646, 3014.827
806.128, 2974.493
806.610, 2940.003
807.093, 2931.583
807.575, 2943.799
808.057, 2936.025
808.539, 2908.943
809.021, 2884.483
809.503, 2879.085
809.985, 2883.149
810.468, 2887.790
810.950, 2892.221
811.432, 2893.196
811.914, 2890.708
812.396, 2883.117
812.878, 2865.393
813.360, 2836.803
813.842, 2827.253
814.324, 2844.162
814.807, 2859.046
815.289, 2850.538
815.771, 2825.291
816.253, 2811.503
816.735, 2808.976
817.217, 2809.723
817.699, 2806.475
818.181, 2805.067
818.664, 2813.091
819.146, 2831.899
819.628, 2844.883
820.110, 2843.428
820.592, 2840.612
821.074, 2842.934
821.556, 2850.940
822.038, 2852.640
822.520, 2847.043
823.003, 2841.148
823.485, 2837.153
823.967, 2837.415
824.449, 2849.538
824.931, 2873.396
825.413, 2895.874
825.895, 2904.749
826.377, 2912.413
826.859, 2927.885
827.342, 2953.723
827.824, 2977.258
828.306, 2997.365
828.788, 3016.397
829.270, 3037.467
829.752, 3059.993
830.234, 3073.206
830.716, 3076.621
831.198, 3080.355
831.681, 3088.383
832.163, 3103.462
832.645, 3133.639
833.127, 3180.347
833.609, 3218.596
834.091, 3234.168
834.573, 3243.562
835.055, 3254.620
835.537, 3266.507
836.020, 3289.813
836.502, 3326.957
836.984, 3366.405
837.466, 3401.618
837.948, 3432.629
838.430, 3456.773
838.912, 3474.504
839.394, 3496.207
839.877, 3537.286
840.359, 3579.178
840.841, 3606.093
841.323, 3614.104
841.805, 3626.201
842.287, 3646.414
842.769, 3667.335
843.251, 3684.125
843.734, 3697.035
844.216, 3715.324
844.698, 3739.099
845.180, 3764.416
845.662, 3789.249
846.144, 3813.032
846.626, 3833.905
847.108, 3851.942
847.591, 3871.820
848.073, 3900.799
848.555, 3927.089
849.037, 3944.459
849.519, 3952.716
850.001, 3959.276
850.483, 3964.895
850.965, 3966.273
851.447, 3957.139
851.930, 3942.798
852.412, 3941.304
852.894, 3951.500
853.376, 3959.934
853.858, 3950.895
854.340, 3943.263
854.822, 3957.194
855.304, 3993.105
855.786, 4001.935
856.269, 3961.783
856.751, 3926.167
857.233, 3918.477
857.715, 3934.111
858.197, 3949.442
858.679, 3964.135
859.161, 3973.966
859.643, 3971.788
860.125, 3966.197
860.608, 3966.513
861.090, 3972.009
861.572, 3978.110
862.054, 3980.307
862.536, 3986.149
863.018, 3999.174
863.500, 4018.032
863.982, 4034.932
864.464, 4050.264
864.947, 4061.710
865.429, 4063.221
865.911, 4064.522
866.393, 4088.098
866.875, 4128.856
867.357, 4168.445
867.839, 4207.265
868.321, 4234.009
868.804, 4233.184
869.286, 4214.811
869.768, 4217.937
870.250, 4249.592
870.732, 4286.569
871.214, 4324.847
871.696, 4362.578
872.178, 4394.392
872.661, 4421.361
873.143, 4450.376
873.625, 4480.142
874.107, 4517.777
874.589, 4574.535
875.071, 4642.431
875.553, 4705.972
876.035, 4762.882
876.518, 4812.062
877.000, 4851.803
877.482, 4884.763
877.964, 4910.875
878.446, 4930.848
878.928, 4969.446
879.410, 5034.934
879.892, 5114.078
880.374, 5209.074
880.857, 5302.654
881.339, 5367.081
881.821, 5376.041
882.303, 5383.355
882.785, 5397.237
883.267, 5416.375
883.749, 5440.476
884.231, 5470.741
884.713, 5499.190
885.196, 5525.504
885.678, 5548.544
886.160, 5562.998
886.642, 5574.402
887.124, 5592.932
887.606, 5621.725
888.088, 5653.386
888.570, 5696.214
889.052, 5732.671
889.535, 5745.980
890.017, 5725.404
890.499, 5722.717
890.981, 5742.894
891.463, 5765.591
891.945, 5774.875
892.427, 5772.277
892.909, 5758.505
893.391, 5733.698
893.874, 5709.818
894.356, 5685.787
894.838, 5671.992
895.320, 5682.101
895.802, 5721.261
896.284, 5735.263
896.766, 5714.460
897.248, 5689.241
897.731, 5676.557
898.213, 5673.064
898.695, 5663.311
899.177, 5647.935
899.659, 5629.981
900.141, 5607.699
900.623, 5587.264
901.105, 5576.145
901.588, 5572.677
902.070, 5562.835
902.552, 5533.924
903.034, 5519.183
903.516, 5534.540
903.998, 5566.728
904.480, 5569.566
904.962, 5546.743
905.444, 5534.328
905.927, 5559.624
906.409, 5586.598
906.891, 5575.173
907.373, 5541.910
907.855, 5521.093
908.337, 5520.412
908.819, 5536.580
909.301, 5577.536
909.783, 5627.478
910.266, 5656.703
910.748, 5666.224
911.230, 5675.638
911.712, 5689.045
912.194, 5703.232
912.676, 5708.438
913.158, 5714.876
913.640, 5738.591
914.122, 5796.399
914.605, 5842.458
915.087, 5861.591
915.569, 5874.921
916.051, 5898.707
916.533, 5933.219
917.015, 5974.243
917.497, 6021.723
917.979, 6077.316
918.461, 6154.068
918.944, 6234.464
919.426, 6288.927
919.908, 6312.300
920.390, 6357.507
920.872, 6458.397
921.354, 6568.655
921.836, 6668.722
922.318, 6759.064
922.801, 6850.367
923.283, 6942.322
923.765, 7042.507
924.247, 7163.407
924.729, 7290.949
925.211, 7402.913
925.693, 7504.239
926.175, 7619.888
926.657, 7771.971
927.140, 7924.979
927.622, 8057.679
928.104, 8185.508
928.586, 8357.447
929.068, 8574.088
929.550, 8788.067
930.032, 8983.396
930.515, 9173.950
930.997, 9381.735
931.479, 9600.361
931.961, 9822.810
932.443, 10027.970
932.925, 10257.770
933.407, 10524.690
933.889, 10817.170
934.371, 11113.400
934.854, 11409.650
935.336, 11778.960
935.818, 12243.550
936.300, 12708.600
936.782, 13035.970
937.264, 13319.430
937.746, 13698.630
938.228, 14199.880
938.710, 14730.530
939.193, 15255.080
939.675, 15816.790
940.157, 16426.150
940.639, 17090.260
941.121, 17817.881
941.603, 18607.359
942.085, 19439.740
942.567, 20288.449
943.049, 21175.250
943.532, 22099.029
944.014, 23078.609
944.496, 24144.510
944.978, 25338.980
945.460, 26589.070
945.942, 27847.230
946.424, 29153.680
946.906, 30596.561
947.388, 32184.641
947.871, 33833.078
948.353, 35545.320
948.835, 37275.941
949.317, 38996.730
949.799, 40691.211
950.281, 42336.621
950.763, 44013.859
951.245, 45501.039
951.728, 46835.891
952.210, 47940.672
952.692, 48756.840
953.174, 49283.730
953.656, 49465.238
954.138, 49303.250
954.620, 48715.590
955.102, 47520.840
955.584, 45936.648
956.067, 44162.520
956.549, 42209.840
957.031, 40138.031
957.513, 37864.328
957.995, 35579.180
958.477, 33327.359
958.959, 31139.100
959.442, 29058.051
959.924, 27103.199
960.406, 25299.721
960.888, 23708.100
961.370, 22232.711
961.852, 20796.939
962.334, 19417.520
962.816, 18182.211
963.298, 17145.131
963.781, 16182.970
964.263, 15264.340
964.745, 14434.830
965.227, 13796.040
965.709, 13309.230
966.191, 12802.080
966.673, 12225.540
967.155, 11640.510
967.638, 11042.310
968.120, 10482.340
968.602, 10008.830
969.084, 9650.924
969.566, 9312.264
970.048, 8993.369
970.530, 8706.551
971.012, 8477.915
971.494, 8290.284
971.977, 8092.989
972.459, 7885.803
972.941, 7691.134
973.423, 7526.488
973.905, 7373.278
974.387, 7216.637
974.869, 7062.468
975.351, 6936.955
975.833, 6846.995
976.316, 6761.546
976.798, 6669.962
977.280, 6579.155
977.762, 6501.754
978.244, 6434.939
978.726, 6372.390
979.208, 6312.213
979.690, 6256.639
980.172, 6205.563
980.655, 6160.148
981.137, 6121.265
981.619, 6088.571
982.101, 6068.000
982.583, 6060.365
983.065, 6060.594
983.547, 6068.153
984.029, 6078.781
984.511, 6083.261
984.994, 6081.736
985.476, 6094.119
985.958, 6140.969
986.440, 6185.815
986.922, 6211.898
987.404, 6227.726
987.886, 6274.102
988.369, 6349.536
988.851, 6423.222
989.333, 6485.148
989.815, 6538.718
990.297, 6582.309
990.779, 6620.920
991.261, 6662.785
991.743, 6709.950
992.225, 6759.479
992.708, 6809.088
993.190, 6864.309
993.672, 6931.786
994.154, 7010.550
994.636, 7103.004
995.118, 7210.355
995.600, 7304.341
996.082, 7365.371
996.565, 7407.796
997.047, 7433.509
997.529, 7444.402
998.011, 7472.071
998.493, 7522.823
998.975, 7562.127
999.457, 7573.651
999.939, 7565.574
1000.421, 7556.120
1000.904, 7539.769
1001.386, 7502.846
1001.868, 7426.951
1002.350, 7345.419
1002.832, 7268.683
1003.314, 7188.108
1003.796, 7094.168
1004.278, 6987.436
1004.760, 6862.296
1005.243, 6718.210
1005.725, 6565.789
1006.207, 6413.584
1006.689, 6260.664
1007.171, 6110.521
1007.653, 5961.630
1008.135, 5812.860
1008.617, 5662.459
1009.099, 5514.507
1009.582, 5369.588
1010.064, 5230.750
1010.546, 5112.293
1011.028, 5010.337
1011.510, 4897.719
1011.992, 4743.588
1012.474, 4596.724
1012.956, 4490.621
1013.439, 4408.291
1013.921, 4319.261
1014.403, 4216.185
1014.885, 4129.292
1015.367, 4063.373
1015.849, 4001.517
1016.331, 3921.953
1016.813, 3834.660
1017.295, 3756.963
1017.778, 3690.772
1018.260, 3627.870
1018.742, 3565.135
1019.224, 3506.300
1019.706, 3454.130
1020.188, 3407.113
1020.670, 3338.348
1021.152, 3251.140
1021.634, 3222.773
1022.117, 3221.485
1022.599, 3173.927
1023.081, 3153.767
1023.563, 3126.957
1024.045, 3093.847
1024.527, 3035.603
1025.009, 3009.818
1025.491, 2971.030
1025.974, 2931.628
1026.456, 2910.414
1026.938, 2855.826
1027.420, 2834.324
1027.902, 2797.199
1028.384, 2737.372
1028.866, 2719.640
1029.348, 2703.153
1029.830, 2664.483
1030.313, 2608.730
1030.795, 2552.921
1031.277, 2495.993
1031.759, 2458.002
1032.241, 2451.593
1032.723, 2454.494
1033.205, 2439.116
1033.687, 2413.556
1034.170, 2390.266
1034.652, 2377.016
1035.134, 2355.333
1035.616, 2315.865
1036.098, 2280.717
1036.580, 2271.784
1037.062, 2283.959
1037.544, 2287.156
1038.026, 2281.116
1038.509, 2270.761
1038.991, 2259.649
1039.473, 2244.617
1039.955, 2213.764
1040.437, 2177.598
1040.919, 2176.956
1041.401, 2223.191
1041.883, 2244.336
1042.365, 2218.307
1042.848, 2182.656
1043.330, 2190.650
1043.812, 2220.848
1044.294, 2241.179
1044.776, 2242.143
1045.258, 2244.371
1045.740, 2255.448
1046.222, 2263.223
1046.705, 2256.880
1047.187, 2240.698
1047.669, 2243.437
1048.151, 2263.605
1048.633, 2290.490
1049.115, 2330.937
1049.597, 2363.476
1050.079, 2364.969
1050.562, 2352.109
1051.044, 2360.346
1051.526, 2395.448
1052.008, 2431.024
1052.490, 2464.383
1052.972, 2497.241
1053.454, 2533.445
1053.936, 2569.388
1054.418, 2596.551
1054.901, 2613.404
1055.383, 2640.510
1055.865, 2687.623
1056.347, 2740.195
1056.829, 2794.634
1057.311, 2850.236
1057.793, 2899.063
1058.275, 2945.020
1058.757, 3010.690
1059.240, 3113.401
1059.722, 3220.118
1060.204, 3302.529
1060.686, 3382.476
1061.168, 3487.353
1061.650, 3623.341
1062.132, 3760.773
1062.614, 3898.518
1063.097, 4045.637
1063.579, 4200.748
1064.061, 4371.313
1064.543, 4570.581
1065.025, 4795.606
1065.507, 5023.641
1065.989, 5223.594
1066.471, 5468.810
1066.953, 5780.167
1067.436, 6129.400
1067.918, 6467.308
1068.400, 6804.198
1068.882, 7170.828
1069.364, 7577.386
1069.846, 8011.785
1070.328, 8503.280
1070.810, 8989.981
1071.292, 9431.116
1071.775, 9829.658
1072.257, 10174.750
1072.739, 10469.850
1073.221, 10692.610
1073.703, 10864.580
1074.185, 10924.230
1074.667, 10790.390
1075.149, 10503.930
1075.632, 10134.720
1076.114, 9664.816
1076.596, 9167.611
1077.078, 8632.681
1077.560, 8089.236
1078.042, 7554.632
1078.524, 7034.411
1079.006, 6539.698
1079.488, 6068.464
1079.971, 5633.775
1080.453, 5227.055
1080.935, 4878.460
1081.417, 4608.938
1081.899, 4396.312
1082.381, 4179.239
1082.863, 3958.166
1083.345, 3768.529
1083.828, 3623.345
1084.310, 3490.027
1084.792, 3329.494
1085.274, 3175.482
1085.756, 3067.365
1086.238, 3012.525
1086.720, 2942.581
1087.202, 2853.717
1087.684, 2768.388
1088.167, 2697.950
1088.649, 2638.243
1089.131, 2587.523
1089.613, 2542.454
1090.095, 2496.214
1090.577, 2437.694
1091.059, 2392.346
1091.541, 2365.720
1092.023, 2346.316
1092.506, 2321.448
1092.988, 2293.930
1093.470, 2274.565
1093.952, 2263.445
1094.434, 2253.932
1094.916, 2237.821
1095.398, 2227.366
1095.880, 2231.647
1096.363, 2244.394
1096.845, 2249.367
1097.327, 2246.569
1097.809, 2254.098
1098.291, 2279.696
1098.773, 2298.887
1099.255, 2274.681
1099.737, 2242.451
1100.219, 2241.254
1100.702, 2279.251
1101.184, 2304.812
1101.666, 2319.092
1102.148, 2315.059
1102.630, 2279.438
1103.112, 2234.780
1103.594, 2222.280
1104.076, 2230.099
1104.558, 2235.312
1105.041, 2234.119
1105.523, 2224.867
1106.005, 2210.851
1106.487, 2184.509
1106.969, 2128.325
1107.451, 2053.645
1107.933, 2014.931
1108.415, 2008.680
1108.898, 2003.392
1109.380, 1976.807
1109.862, 1954.391
1110.344, 1951.203
1110.826, 1955.667
1111.308, 1947.177
1111.790, 1926.072
1112.272, 1903.112
1112.755, 1879.359
1113.237, 1859.712
1113.719, 1850.220
1114.201, 1845.297
1114.683, 1841.449
1115.165, 1838.207
1115.647, 1833.373
1116.129, 1826.549
1116.611, 1820.489
1117.094, 1817.871
1117.576, 1812.745
1118.058, 1792.060
1118.540, 1765.819
1119.022, 1748.933
1119.504, 1748.318
1119.986, 1747.258
1120.468, 1745.329
1120.950, 1742.476
1121.433, 1738.924
1121.915, 1734.344
1122.397, 1724.863
1122.879, 1713.467
1123.361, 1709.617
1123.843, 1729.553
1124.325, 1740.086
1124.807, 1730.427
1125.290, 1715.137
1125.772, 1710.603
1126.254, 1714.966
1126.736, 1716.760
1127.218, 1715.375
1127.700, 1713.622
1128.182, 1695.727
1128.664, 1712.564
1129.146, 1720.969
1129.629, 1721.392
1130.111, 1689.949
1130.593, 1699.661
1131.075, 1692.880
1131.557, 1685.422
1132.039, 1700.927
1132.521, 1674.118
1133.003, 1687.006
1133.485, 1703.971
1133.968, 1694.820
1134.450, 1687.512
1134.932, 1682.816
1135.414, 1674.843
1135.896, 1658.276
1136.378, 1643.400
1136.860, 1645.921
1137.342, 1658.300
1137.825, 1670.239
1138.307, 1679.375
1138.789, 1689.759
1139.271, 1704.623
1139.753, 1711.226
1140.235, 1693.955
1140.717, 1667.230
1141.199, 1662.567
1141.682, 1673.027
1142.164, 1679.565
1142.646, 1671.835
1143.128, 1664.166
1143.610, 1656.459
1144.092, 1652.229
1144.574, 1656.884
1145.056, 1667.844
1145.538, 1678.279
1146.021, 1687.332
1146.503, 1691.225
1146.985, 1684.558
1147.467, 1676.797
1147.949, 1671.967
1148.431, 1667.494
1148.913, 1656.079
1149.395, 1639.866
1149.877, 1633.627
1150.360, 1639.786
1150.842, 1652.480
1151.324, 1631.734
1151.806, 1661.613
1152.288, 1679.203
1152.770, 1685.165
1153.252, 1644.671
1153.734, 1664.165
1154.217, 1659.622
1154.699, 1654.090
1155.181, 1682.027
1155.663, 1648.290
1156.145, 1672.414
1156.627, 1672.157
1157.109, 1698.622
1157.591, 1704.779
1158.073, 1688.852
1158.556, 1671.837
1159.038, 1660.774
1159.520, 1657.445
1160.002, 1669.444
1160.484, 1688.238
1160.966, 1701.403
1161.448, 1708.756
1161.930, 1705.246
1162.412, 1688.547
1162.895, 1671.158
1163.377, 1657.292
1163.859, 1651.136
1164.341, 1667.397
1164.823, 1695.801
1165.305, 1708.569
1165.787, 1685.377
1166.269, 1673.609
1166.752, 1678.537
1167.234, 1687.663
1167.716, 1688.414
1168.198, 1684.681
1168.680, 1682.259
1169.162, 1681.662
1169.644, 1683.691
1170.126, 1690.482
1170.609, 1697.577
1171.091, 1705.617
1171.573, 1710.943
1172.055, 1707.119
1172.537, 1696.646
1173.019, 1681.877
1173.501, 1663.269
1173.983, 1655.419
1174.465, 1676.486
1174.948, 1693.480
1175.430, 1696.497
1175.912, 1690.283
1176.394, 1681.126
1176.876, 1671.924
1177.358, 1674.129
1177.840, 1694.183
1178.322, 1704.276
1178.804, 1678.127
1179.287, 1655.601
1179.769, 1658.573
1180.251, 1678.183
1180.733, 1675.641
1181.215, 1656.470
1181.697, 1645.702
1182.179, 1656.604
1182.661, 1665.663
1183.144, 1655.540
1183.626, 1645.444
1184.108, 1649.899
1184.590, 1667.011
1185.072, 1678.276
1185.554, 1684.068
1186.036, 1687.199
1186.518, 1695.196
1187.000, 1692.572
1187.483, 1658.022
1187.965, 1618.745
1188.447, 1602.522
1188.929, 1609.497
1189.411, 1621.335
1189.893, 1637.258
1190.375, 1649.361
1190.857, 1650.680
1191.339, 1648.756
1191.822, 1648.208
1192.304, 1646.848
1192.786, 1641.155
1193.268, 1630.974
1193.750, 1617.548
1194.232, 1600.875
1194.714, 1591.659
1195.196, 1605.644
1195.679, 1622.227
1196.161, 1627.584
1196.643, 1625.499
1197.125, 1625.132
1197.607, 1626.628
1198.089, 1627.762
1198.571, 1628.521
1199.053, 1625.504
1199.536, 1610.937
1200.018, 1595.980
1200.500, 1588.999
1200.982, 1589.136
1201.464, 1592.989
1201.946, 1600.946
1202.428, 1605.876
1202.910, 1605.543
1203.392, 1605.902
1203.875, 1612.999
1204.357, 1622.594
1204.839, 1632.379
1205.321, 1641.726
1205.803, 1646.904
1206.285, 1647.923
1206.767, 1644.926
1207.249, 1637.943
1207.731, 1627.069
1208.214, 1604.296
1208.696, 1583.276
1209.178, 1579.858
1209.660, 1593.911
1210.142, 1614.188
1210.624, 1642.060
1211.106, 1655.186
1211.588, 1639.844
1212.070, 1617.446
1212.553, 1606.422
1213.035, 1600.996
1213.517, 1592.664
1213.999, 1579.463
1214.481, 1586.442
1214.963, 1614.785
1215.445, 1637.445
1215.927, 1639.857
1216.410, 1632.308
1216.892, 1616.830
1217.374, 1600.898
1217.856, 1596.174
1218.338, 1606.337
1218.820, 1602.609
1219.302, 1584.040
1219.784, 1570.427
1220.266, 1578.759
1220.749, 1592.298
1221.231, 1598.696
1221.713, 1600.661
1222.195, 1601.639
1222.677, 1600.283
1223.159, 1608.268
1223.641, 1626.336
1224.123, 1639.843
1224.605, 1634.350
1225.088, 1624.161
1225.570, 1621.845
1226.052, 1621.801
1226.534, 1611.490
1227.016, 1587.912
1227.498, 1576.588
1227.980, 1579.154
1228.462, 1585.255
1228.945, 1584.967
1229.427, 1587.420
1229.909, 1602.156
1230.391, 1623.889
1230.873, 1643.739
1231.355, 1662.942
1231.837, 1657.177
1232.319, 1623.503
1232.802, 1592.750
1233.284, 1592.775
1233.766, 1599.987
1234.248, 1597.400
1234.730, 1590.285
1235.212, 1591.589
1235.694, 1601.308
1236.176, 1613.885
1236.658, 1629.004
1237.141, 1637.752
1237.623, 1626.736
1238.105, 1613.521
1238.587, 1609.430
1239.069, 1611.522
1239.551, 1611.559
1240.033, 1610.260
1240.515, 1623.424
1240.997, 1655.516
1241.480, 1676.686
1241.962, 1659.003
1242.444, 1631.517
1242.926, 1604.587
1243.408, 1583.554
1243.890, 1588.359
1244.372, 1614.309
1244.854, 1627.720
1245.337, 1621.118
1245.819, 1608.937
1246.301, 1590.203
1246.783, 1579.137
1247.265, 1583.810
1247.747, 1599.080
1248.229, 1612.458
1248.711, 1623.610
1249.193, 1630.287
1249.676, 1631.654
1250.158, 1631.119
1250.640, 1628.841
1251.122, 1626.803
1251.604, 1625.914
1252.086, 1625.880
1252.568, 1627.414
1253.050, 1629.030
1253.532, 1625.426
1254.015, 1614.440
1254.497, 1603.359
1254.979, 1589.096
1255.461, 1583.685
1255.943, 1595.575
1256.425, 1615.654
1256.907, 1621.495
1257.389, 1617.991
1257.872, 1616.813
1258.354, 1622.707
1258.836, 1621.060
1259.318, 1605.798
1259.800, 1591.185
1260.282, 1582.439
1260.764, 1579.421
1261.246, 1583.107
1261.729, 1591.959
1262.211, 1605.688
1262.693, 1630.130
1263.175, 1632.864
1263.657, 1604.518
1264.139, 1579.552
1264.621, 1574.711
1265.103, 1581.884
1265.585, 1596.991
1266.068, 1612.229
1266.550, 1614.257
1267.032, 1595.992
1267.514, 1582.282
1267.996, 1572.880
1268.478, 1569.466
1268.960, 1578.315
1269.442, 1584.565
1269.924, 1556.550
1270.407, 1522.345
1270.889, 1511.438
##END=



