##NAMES=Bobierrite
##RRUFFID=R060681
##IDEAL CHEMISTRY=Mg_3_(PO_4_)_2_&#183;8H_2_O
##LOCALITY=Kovdor Massif, Kola Peninsula, Murmanskaja Oblast', Northern Region, Russia
##OWNER=RRUFF
##SOURCE=Michael Scott
##DESCRIPTION=Colorless sectile tabular crystals
##STATUS=The identification of this mineral has been confirmed by X-ray diffraction and chemical analysis
##URL=rruff.info/R060681
##MEASURED CHEMISTRY=(Mg_2.94_Fe_0.05_Mn_0.01_)_Σ=3_(P_1.00_O_4_)_2_·8H_2_O; H_2_O estimated by difference
120.564, 1517.209
121.046, 1517.123
121.528, 1516.396
122.010, 1516.919
122.492, 1522.983
122.974, 1533.838
123.456, 1552.635
123.939, 1580.551
124.421, 1615.307
124.903, 1650.393
125.385, 1681.905
125.867, 1718.930
126.349, 1793.852
126.831, 1921.696
127.313, 2075.337
127.796, 2258.629
128.278, 2464.914
128.760, 2681.652
129.242, 2897.950
129.724, 3123.950
130.206, 3421.779
130.688, 3809.581
131.170, 4240.955
131.652, 4718.296
132.135, 5232.748
132.617, 5768.976
133.099, 6322.865
133.581, 6890.889
134.063, 7413.334
134.545, 7879.956
135.027, 8323.053
135.509, 8816.255
135.992, 9314.756
136.474, 9676.252
136.956, 9810.769
137.438, 9697.731
137.920, 9378.707
138.402, 8738.639
138.884, 8008.542
139.366, 7277.129
139.848, 6561.558
140.331, 5913.806
140.813, 5376.497
141.295, 4958.509
141.777, 4610.291
142.259, 4330.625
142.741, 4122.292
143.223, 3994.586
143.705, 3948.005
144.188, 3964.164
144.670, 4047.291
145.152, 4188.848
145.634, 4345.199
146.116, 4505.785
146.598, 4680.926
147.080, 4888.984
147.562, 5136.321
148.044, 5387.715
148.527, 5624.620
149.009, 5846.171
149.491, 6039.642
149.973, 6209.438
150.455, 6348.804
150.937, 6455.605
151.419, 6540.750
151.901, 6558.841
152.383, 6465.978
152.866, 6284.348
153.348, 6041.154
153.830, 5720.849
154.312, 5350.341
154.794, 4977.604
155.276, 4593.240
155.758, 4234.974
156.240, 3926.417
156.723, 3660.895
157.205, 3426.705
157.687, 3217.823
158.169, 3036.925
158.651, 2892.412
159.133, 2789.958
159.615, 2720.109
160.097, 2673.132
160.579, 2648.292
161.062, 2645.958
161.544, 2674.458
162.026, 2728.309
162.508, 2780.139
162.990, 2829.798
163.472, 2877.131
163.954, 2920.519
164.436, 2961.455
164.919, 3004.397
165.401, 3056.487
165.883, 3115.398
166.365, 3158.837
166.847, 3173.664
167.329, 3187.559
167.811, 3210.587
168.293, 3242.262
168.775, 3280.634
169.258, 3327.724
169.740, 3382.587
170.222, 3428.621
170.704, 3461.233
171.186, 3489.077
171.668, 3529.207
172.150, 3569.562
172.632, 3581.170
173.115, 3534.122
173.597, 3429.756
174.079, 3336.977
174.561, 3256.922
175.043, 3188.149
175.525, 3126.872
176.007, 3075.857
176.489, 3041.266
176.971, 3024.250
177.454, 3024.765
177.936, 3062.418
178.418, 3165.118
178.900, 3282.113
179.382, 3389.933
179.864, 3498.723
180.346, 3632.884
180.828, 3810.867
181.311, 4032.258
181.793, 4287.429
182.275, 4640.876
182.757, 4968.658
183.239, 5277.167
183.721, 5533.690
184.203, 5678.383
184.685, 5664.493
185.167, 5492.299
185.650, 5219.247
186.132, 4719.325
186.614, 4229.918
187.096, 3786.946
187.578, 3401.893
188.060, 3086.954
188.542, 2852.439
189.024, 2699.084
189.507, 2567.482
189.989, 2454.547
190.471, 2369.909
190.953, 2330.594
191.435, 2322.480
191.917, 2316.998
192.399, 2291.061
192.881, 2246.730
193.363, 2232.472
193.846, 2284.051
194.328, 2331.994
194.810, 2351.437
195.292, 2356.103
195.774, 2373.478
196.256, 2423.402
196.738, 2503.234
197.220, 2577.160
197.702, 2621.011
198.185, 2684.353
198.667, 2779.049
199.149, 2900.619
199.631, 3042.243
200.113, 3202.823
200.595, 3378.273
201.077, 3534.391
201.559, 3654.244
202.042, 3771.349
202.524, 3861.081
203.006, 3956.429
203.488, 4108.155
203.970, 4348.329
204.452, 4660.083
204.934, 4956.539
205.416, 5242.503
205.898, 5502.744
206.380, 5697.418
206.863, 5875.078
207.345, 6091.555
207.827, 6375.230
208.309, 6723.097
208.791, 7123.390
209.273, 7562.396
209.755, 8083.512
210.238, 8698.886
210.720, 9389.653
211.202, 10137.260
211.684, 10929.710
212.166, 11766.810
212.648, 12659.430
213.130, 13687.520
213.612, 14649.720
214.094, 15592.860
214.577, 16433.010
215.059, 17126.439
215.541, 17646.971
216.023, 17955.080
216.505, 17955.971
216.987, 17509.449
217.469, 16942.420
217.951, 16204.180
218.434, 15405.760
218.916, 14620.970
219.398, 13877.410
219.880, 13183.640
220.362, 12554.420
220.844, 11986.070
221.326, 11495.460
221.808, 11116.180
222.290, 10777.590
222.773, 10467.990
223.255, 10166.690
223.737, 9810.955
224.219, 9304.437
224.701, 8581.715
225.183, 7853.698
225.665, 7049.852
226.147, 6290.788
226.629, 5637.009
227.112, 5101.701
227.594, 4669.544
228.076, 4326.488
228.558, 4083.379
229.040, 3897.345
229.522, 3773.386
230.004, 3698.160
230.486, 3682.921
230.969, 3717.441
231.451, 3772.363
231.933, 3821.571
232.415, 3863.616
232.897, 3912.815
233.379, 3989.003
233.861, 4053.537
234.343, 4101.026
234.825, 4126.718
235.307, 4122.817
235.790, 4079.803
236.272, 3999.129
236.754, 3918.755
237.236, 3852.520
237.718, 3769.472
238.200, 3652.718
238.682, 3514.553
239.165, 3374.311
239.647, 3244.015
240.129, 3121.923
240.611, 3001.973
241.093, 2879.010
241.575, 2765.793
242.057, 2667.477
242.539, 2578.813
243.021, 2492.920
243.503, 2405.571
243.986, 2321.640
244.468, 2254.084
244.950, 2207.810
245.432, 2169.367
245.914, 2135.640
246.396, 2107.041
246.878, 2083.836
247.361, 2066.144
247.843, 2053.902
248.325, 2046.994
248.807, 2045.385
249.289, 2049.505
249.771, 2059.724
250.253, 2075.390
250.735, 2096.232
251.217, 2122.166
251.699, 2154.289
252.182, 2199.251
252.664, 2259.942
253.146, 2305.818
253.628, 2316.219
254.110, 2322.093
254.592, 2343.266
255.074, 2379.974
255.556, 2418.169
256.039, 2439.172
256.521, 2445.491
257.003, 2475.045
257.485, 2537.771
257.967, 2618.521
258.449, 2705.415
258.931, 2799.544
259.413, 2905.155
259.896, 3030.922
260.378, 3171.326
260.860, 3308.584
261.342, 3448.601
261.824, 3574.104
262.306, 3688.869
262.788, 3783.719
263.270, 3834.354
263.752, 3824.972
264.234, 3769.653
264.717, 3685.562
265.199, 3568.262
265.681, 3441.983
266.163, 3304.735
266.645, 3170.900
267.127, 3066.177
267.609, 2997.929
268.091, 2956.995
268.574, 2935.098
269.056, 2932.339
269.538, 2951.693
270.020, 2992.199
270.502, 3060.500
270.984, 3160.494
271.466, 3299.777
271.948, 3453.698
272.431, 3593.300
272.913, 3733.383
273.395, 3925.621
273.877, 4195.354
274.359, 4511.595
274.841, 4822.858
275.323, 5118.696
275.805, 5458.554
276.287, 5861.988
276.770, 6321.484
277.252, 6821.249
277.734, 7359.975
278.216, 7941.605
278.698, 8569.041
279.180, 9241.575
279.662, 9985.796
280.144, 10843.360
280.626, 11751.930
281.109, 12693.960
281.591, 13655.580
282.073, 14574.470
282.555, 15424.530
283.037, 16200.410
283.519, 16665.631
284.001, 16857.150
284.483, 16742.789
284.966, 16248.340
285.448, 15431.620
285.930, 14398.220
286.412, 13196.460
286.894, 11859.980
287.376, 10605.900
287.858, 9391.681
288.340, 8301.525
288.823, 7370.793
289.305, 6575.869
289.787, 5892.819
290.269, 5311.861
290.751, 4821.570
291.233, 4395.090
291.715, 4045.484
292.197, 3753.144
292.679, 3543.979
293.161, 3370.718
293.644, 3200.254
294.126, 3024.570
294.608, 2848.831
295.090, 2678.084
295.572, 2506.767
296.054, 2360.842
296.536, 2246.986
297.018, 2150.175
297.501, 2067.604
297.983, 1997.203
298.465, 1937.160
298.947, 1888.562
299.429, 1850.139
299.911, 1805.370
300.393, 1744.260
300.875, 1689.743
301.358, 1649.272
301.840, 1619.170
302.322, 1593.910
302.804, 1571.252
303.286, 1550.964
303.768, 1532.017
304.250, 1513.015
304.732, 1499.197
305.214, 1491.048
305.697, 1489.209
306.179, 1495.771
306.661, 1511.603
307.143, 1532.005
307.625, 1553.568
308.107, 1576.198
308.589, 1596.039
309.071, 1607.822
309.553, 1621.378
310.036, 1642.393
310.518, 1671.198
311.000, 1710.430
311.482, 1766.722
311.964, 1834.098
312.446, 1896.123
312.928, 1947.975
313.410, 2003.765
313.892, 2076.377
314.375, 2162.810
314.857, 2255.347
315.339, 2351.610
315.821, 2453.619
316.303, 2565.664
316.785, 2686.700
317.267, 2809.592
317.750, 2933.477
318.232, 3055.091
318.714, 3165.803
319.196, 3274.766
319.678, 3362.018
320.160, 3415.798
320.642, 3442.958
321.124, 3458.504
321.606, 3468.308
322.089, 3465.939
322.571, 3440.154
323.053, 3392.990
323.535, 3313.823
324.017, 3183.103
324.499, 3031.805
324.981, 2882.697
325.463, 2741.051
325.945, 2602.613
326.428, 2464.356
326.910, 2325.409
327.392, 2193.379
327.874, 2062.422
328.356, 1942.686
328.838, 1843.117
329.320, 1758.470
329.802, 1678.680
330.284, 1597.658
330.767, 1516.431
331.249, 1438.331
331.731, 1352.800
332.213, 1288.231
332.695, 1258.743
333.177, 1244.733
333.659, 1210.101
334.141, 1145.607
334.624, 1120.902
335.106, 1111.652
335.588, 1098.652
336.070, 1082.104
336.552, 1051.374
337.034, 1038.956
337.516, 1019.195
337.998, 999.137
338.480, 989.296
338.963, 967.441
339.445, 954.352
339.927, 940.455
340.409, 922.030
340.891, 909.426
341.373, 916.456
341.855, 933.020
342.337, 940.679
342.819, 929.120
343.302, 912.391
343.784, 904.310
344.266, 904.318
344.748, 906.962
345.230, 911.605
345.712, 916.023
346.194, 915.428
346.677, 907.655
347.159, 901.417
347.641, 897.968
348.123, 898.532
348.605, 906.598
349.087, 923.109
349.569, 941.951
350.051, 956.359
350.533, 965.526
351.016, 972.581
351.498, 972.095
351.980, 974.246
352.462, 990.051
352.944, 1014.816
353.426, 1031.741
353.908, 1027.852
354.390, 1008.457
354.872, 1006.469
355.355, 1039.347
355.837, 1070.814
356.319, 1098.977
356.801, 1123.031
357.283, 1140.969
357.765, 1152.506
358.247, 1161.819
358.729, 1175.909
359.211, 1196.897
359.694, 1215.263
360.176, 1227.570
360.658, 1239.751
361.140, 1254.026
361.622, 1270.661
362.104, 1289.964
362.586, 1317.989
363.069, 1348.982
363.551, 1355.915
364.033, 1329.841
364.515, 1300.467
364.997, 1279.809
365.479, 1265.230
365.961, 1255.333
366.443, 1253.023
366.925, 1248.613
367.408, 1232.736
367.890, 1206.386
368.372, 1174.391
368.854, 1134.370
369.336, 1095.272
369.818, 1072.626
370.300, 1068.102
370.782, 1057.915
371.264, 1030.514
371.747, 996.728
372.229, 966.335
372.711, 941.042
373.193, 924.580
373.675, 922.184
374.157, 933.408
374.639, 934.953
375.121, 922.202
375.603, 906.606
376.086, 885.481
376.568, 865.441
377.050, 858.516
377.532, 870.015
378.014, 891.374
378.496, 905.289
378.978, 909.818
379.460, 909.853
379.943, 901.078
380.425, 892.055
380.907, 888.832
381.389, 891.086
381.871, 894.360
382.353, 895.586
382.835, 894.633
383.317, 888.240
383.799, 866.213
384.282, 855.968
384.764, 879.995
385.246, 916.925
385.728, 935.469
386.210, 920.464
386.692, 898.207
387.174, 901.228
387.656, 928.413
388.138, 954.027
388.621, 971.972
389.103, 984.550
389.585, 992.220
390.067, 994.690
390.549, 1002.992
391.031, 1020.037
391.513, 1045.333
391.996, 1058.181
392.478, 1061.260
392.960, 1060.293
393.442, 1090.813
393.924, 1113.689
394.406, 1129.334
394.888, 1116.088
395.370, 1140.149
395.852, 1149.257
396.335, 1157.753
396.817, 1178.832
397.299, 1177.525
397.781, 1177.862
398.263, 1179.444
398.745, 1185.920
399.227, 1183.484
399.709, 1162.382
400.191, 1142.293
400.674, 1131.347
401.156, 1129.843
401.638, 1136.296
402.120, 1152.469
402.602, 1173.695
403.084, 1180.236
403.566, 1162.192
404.048, 1153.325
404.530, 1170.211
405.013, 1198.681
405.495, 1227.409
405.977, 1254.323
406.459, 1280.708
406.941, 1303.955
407.423, 1326.890
407.905, 1361.337
408.387, 1411.321
408.870, 1466.923
409.352, 1519.505
409.834, 1569.636
410.316, 1621.950
410.798, 1673.440
411.280, 1729.977
411.762, 1795.722
412.244, 1869.949
412.727, 1950.970
413.209, 2038.684
413.691, 2130.532
414.173, 2219.349
414.655, 2293.168
415.137, 2382.829
415.619, 2500.191
416.101, 2625.334
416.583, 2748.824
417.065, 2866.526
417.548, 2973.941
418.030, 3066.023
418.512, 3144.015
418.994, 3218.856
419.476, 3302.202
419.958, 3363.754
420.440, 3394.207
420.922, 3401.579
421.405, 3394.235
421.887, 3374.601
422.369, 3342.396
422.851, 3298.103
423.333, 3241.791
423.815, 3168.380
424.297, 3072.492
424.779, 2966.399
425.262, 2857.094
425.744, 2745.647
426.226, 2637.980
426.708, 2537.547
427.190, 2440.171
427.672, 2339.289
428.154, 2236.662
428.636, 2140.326
429.118, 2053.595
429.601, 1975.939
430.083, 1907.016
430.565, 1850.294
431.047, 1796.576
431.529, 1718.620
432.011, 1661.197
432.493, 1632.625
432.975, 1618.452
433.457, 1600.785
433.940, 1579.811
434.422, 1545.629
434.904, 1528.502
435.386, 1504.537
435.868, 1480.295
436.350, 1465.570
436.832, 1433.308
437.314, 1418.432
437.797, 1396.616
438.279, 1377.972
438.761, 1352.454
439.243, 1328.881
439.725, 1319.403
440.207, 1327.193
440.689, 1335.485
441.171, 1327.394
441.654, 1307.351
442.136, 1290.316
442.618, 1277.390
443.100, 1270.513
443.582, 1273.276
444.064, 1283.716
444.546, 1294.551
445.028, 1301.975
445.510, 1310.932
445.992, 1331.961
446.475, 1378.908
446.957, 1409.881
447.439, 1409.172
447.921, 1405.472
448.403, 1416.229
448.885, 1441.622
449.367, 1474.387
449.849, 1510.318
450.332, 1548.978
450.814, 1590.198
451.296, 1637.274
451.778, 1679.692
452.260, 1706.065
452.742, 1733.309
453.224, 1773.348
453.706, 1828.365
454.189, 1898.600
454.671, 1992.198
455.153, 2101.323
455.635, 2203.925
456.117, 2298.406
456.599, 2385.263
457.081, 2453.642
457.563, 2515.841
458.045, 2612.645
458.528, 2761.401
459.010, 2922.713
459.492, 3086.839
459.974, 3251.224
460.456, 3407.373
460.938, 3553.350
461.420, 3706.770
461.902, 3888.076
462.384, 4101.308
462.867, 4319.196
463.349, 4544.588
463.831, 4770.621
464.313, 5001.345
464.795, 5228.410
465.277, 5443.418
465.759, 5642.525
466.241, 5822.604
466.724, 5977.276
467.206, 6105.705
467.688, 6220.645
468.170, 6329.583
468.652, 6417.709
469.134, 6482.604
469.616, 6521.776
470.098, 6524.359
470.580, 6490.813
471.063, 6415.896
471.545, 6285.540
472.027, 6106.539
472.509, 5897.341
472.991, 5657.002
473.473, 5418.727
473.955, 5254.833
474.437, 5232.366
474.919, 5128.650
475.402, 4888.391
475.884, 4612.319
476.366, 4351.716
476.848, 4111.957
477.330, 3886.986
477.812, 3672.586
478.294, 3471.048
478.776, 3293.481
479.259, 3146.616
479.741, 3008.404
480.223, 2877.220
480.705, 2751.651
481.187, 2628.980
481.669, 2510.699
482.151, 2404.812
482.633, 2321.890
483.116, 2252.512
483.598, 2176.521
484.080, 2093.699
484.562, 2020.994
485.044, 1969.649
485.526, 1932.783
486.008, 1892.264
486.490, 1846.419
486.972, 1801.693
487.454, 1760.494
487.937, 1720.106
488.419, 1674.587
488.901, 1626.046
489.383, 1586.032
489.865, 1565.206
490.347, 1559.436
490.829, 1541.988
491.311, 1502.989
491.794, 1469.150
492.276, 1447.376
492.758, 1430.754
493.240, 1413.222
493.722, 1394.084
494.204, 1378.039
494.686, 1371.812
495.168, 1371.016
495.651, 1364.386
496.133, 1351.376
496.615, 1333.398
497.097, 1308.750
497.579, 1280.802
498.061, 1259.428
498.543, 1248.235
499.025, 1236.089
499.507, 1215.424
499.990, 1194.979
500.472, 1185.083
500.954, 1186.172
501.436, 1191.298
501.918, 1195.115
502.400, 1197.651
502.882, 1199.253
503.364, 1199.999
503.846, 1199.587
504.329, 1196.961
504.811, 1193.938
505.293, 1191.756
505.775, 1190.728
506.257, 1191.309
506.739, 1195.950
507.221, 1202.323
507.703, 1201.562
508.185, 1191.715
508.668, 1187.714
509.150, 1202.276
509.632, 1226.551
510.114, 1235.569
510.596, 1220.214
511.078, 1209.458
511.560, 1212.861
512.042, 1223.073
512.525, 1235.231
513.007, 1247.197
513.489, 1254.626
513.971, 1253.139
514.453, 1244.847
514.935, 1242.532
515.417, 1245.050
515.899, 1256.158
516.381, 1283.662
516.864, 1314.063
517.346, 1337.466
517.828, 1352.572
518.310, 1363.751
518.792, 1370.686
519.274, 1376.596
519.756, 1381.150
520.239, 1383.503
520.721, 1401.476
521.203, 1433.424
521.685, 1461.980
522.167, 1487.323
522.649, 1499.848
523.131, 1528.936
523.613, 1551.379
524.095, 1573.553
524.578, 1601.311
525.060, 1619.045
525.542, 1642.650
526.024, 1668.109
526.506, 1695.810
526.988, 1727.918
527.470, 1768.315
527.952, 1803.082
528.434, 1823.425
528.917, 1842.560
529.399, 1865.562
529.881, 1893.969
530.363, 1932.715
530.845, 1994.727
531.327, 2061.348
531.809, 2106.953
532.291, 2135.104
532.773, 2165.956
533.256, 2207.067
533.738, 2254.914
534.220, 2303.581
534.702, 2351.013
535.184, 2406.358
535.666, 2474.517
536.148, 2545.177
536.630, 2610.651
537.112, 2675.222
537.595, 2747.012
538.077, 2829.668
538.559, 2921.595
539.041, 3024.308
539.523, 3139.614
540.005, 3237.999
540.487, 3301.391
540.969, 3371.198
541.452, 3486.345
541.934, 3631.131
542.416, 3764.815
542.898, 3865.323
543.380, 3973.077
543.862, 4113.541
544.344, 4278.090
544.826, 4451.333
545.308, 4629.278
545.791, 4817.434
546.273, 5020.360
546.755, 5238.122
547.237, 5468.876
547.719, 5717.265
548.201, 5973.849
548.683, 6233.533
549.166, 6501.041
549.648, 6781.103
550.130, 7075.012
550.612, 7385.420
551.094, 7720.393
551.576, 8072.423
552.058, 8429.436
552.540, 8790.840
553.022, 9140.612
553.505, 9465.813
553.987, 9776.526
554.469, 10105.700
554.951, 10484.050
555.433, 10808.590
555.915, 11066.250
556.397, 11264.930
556.879, 11408.460
557.362, 11498.940
557.844, 11541.370
558.326, 11540.090
558.808, 11487.280
559.290, 11362.750
559.772, 11161.960
560.254, 10908.080
560.736, 10588.430
561.218, 10230.600
561.701, 9849.258
562.183, 9449.253
562.665, 9042.146
563.147, 8617.179
563.629, 8202.313
564.111, 7818.880
564.593, 7464.853
565.075, 7143.285
565.557, 6855.249
566.040, 6584.407
566.522, 6307.505
567.004, 6017.179
567.486, 5807.148
567.968, 5827.048
568.450, 5750.912
568.932, 5423.448
569.414, 5013.068
569.896, 4698.434
570.379, 4517.868
570.861, 4407.713
571.343, 4324.657
571.825, 4272.755
572.307, 4268.549
572.789, 4314.438
573.271, 4372.725
573.753, 4423.083
574.235, 4475.215
574.718, 4553.623
575.200, 4662.257
575.682, 4785.693
576.164, 4917.469
576.646, 5069.696
577.128, 5259.230
577.610, 5475.933
578.093, 5695.138
578.575, 5904.640
579.057, 6111.242
579.539, 6316.550
580.021, 6516.721
580.503, 6779.490
580.985, 7173.781
581.467, 7533.833
581.949, 7730.405
582.432, 7791.329
582.914, 7767.896
583.396, 7622.711
583.878, 7452.367
584.360, 7304.253
584.842, 7157.411
585.324, 6984.854
585.806, 6781.261
586.289, 6557.873
586.771, 6323.255
587.253, 6076.216
587.735, 5810.234
588.217, 5514.809
588.699, 5223.053
589.181, 4931.003
589.663, 4652.116
590.145, 4398.380
590.628, 4169.037
591.110, 3951.481
591.592, 3741.503
592.074, 3538.397
592.556, 3332.780
593.038, 3131.532
593.520, 2963.333
594.002, 2838.830
594.484, 2737.470
594.967, 2633.583
595.449, 2525.917
595.931, 2422.063
596.413, 2327.602
596.895, 2231.135
597.377, 2117.123
597.859, 2005.671
598.341, 1910.954
598.823, 1836.921
599.306, 1794.212
599.788, 1786.144
600.270, 1769.671
600.752, 1745.230
601.234, 1689.008
601.716, 1673.834
602.198, 1642.209
602.680, 1609.909
603.162, 1600.516
603.645, 1548.908
604.127, 1539.152
604.609, 1512.691
605.091, 1493.873
605.573, 1458.503
606.055, 1428.248
606.537, 1414.542
607.019, 1391.677
607.502, 1354.401
607.984, 1336.070
608.466, 1283.890
608.948, 1261.416
609.430, 1251.747
609.912, 1215.307
610.394, 1197.278
610.876, 1172.235
611.359, 1127.791
611.841, 1080.042
612.323, 1051.961
612.805, 1033.857
613.287, 1052.294
613.769, 1061.861
614.251, 1063.035
614.733, 1030.675
615.216, 1041.616
615.698, 1035.205
616.180, 1028.082
616.662, 1045.118
617.144, 1017.635
617.626, 1031.919
618.108, 1038.340
618.590, 1034.208
619.072, 1022.424
619.555, 1017.040
620.037, 1022.994
620.519, 1029.804
621.001, 1032.774
621.483, 1035.977
621.965, 1044.259
622.447, 1057.514
622.929, 1072.389
623.411, 1087.119
623.894, 1100.452
624.376, 1107.645
624.858, 1107.327
625.340, 1110.175
625.822, 1120.952
626.304, 1132.059
626.786, 1133.917
627.268, 1129.215
627.750, 1131.094
628.233, 1147.745
628.715, 1163.973
629.197, 1172.581
629.679, 1177.226
630.161, 1180.773
630.643, 1184.872
631.125, 1193.683
631.607, 1211.978
632.089, 1236.751
632.572, 1237.741
633.054, 1225.244
633.536, 1248.724
634.018, 1263.471
634.500, 1269.955
634.982, 1243.423
635.464, 1259.525
635.946, 1258.540
636.429, 1256.855
636.911, 1278.955
637.393, 1257.226
637.875, 1278.949
638.357, 1280.151
638.839, 1269.895
639.321, 1265.171
639.803, 1257.030
640.286, 1246.377
640.768, 1237.509
641.250, 1229.736
641.732, 1226.597
642.214, 1232.167
642.696, 1239.681
643.178, 1244.565
643.660, 1246.456
644.143, 1240.295
644.625, 1213.663
645.107, 1190.885
645.589, 1187.976
646.071, 1196.696
646.553, 1205.094
647.035, 1210.218
647.517, 1215.424
647.999, 1226.408
648.482, 1239.232
648.964, 1227.663
649.446, 1180.942
649.928, 1153.368
650.410, 1166.497
650.892, 1198.094
651.374, 1228.977
651.856, 1258.891
652.338, 1282.862
652.821, 1293.670
653.303, 1305.195
653.785, 1322.995
654.267, 1346.302
654.749, 1379.606
655.231, 1420.353
655.713, 1449.766
656.195, 1445.516
656.677, 1420.008
657.160, 1425.571
657.642, 1468.433
658.124, 1506.587
658.606, 1526.018
659.088, 1540.520
659.570, 1567.438
660.052, 1605.112
660.534, 1632.029
661.016, 1633.648
661.499, 1638.753
661.981, 1658.166
662.463, 1687.510
662.945, 1723.282
663.427, 1763.626
663.909, 1805.060
664.391, 1846.640
664.873, 1885.309
665.356, 1910.969
665.838, 1922.613
666.320, 1938.954
666.802, 1966.260
667.284, 1995.968
667.766, 2022.078
668.248, 2043.989
668.730, 2056.390
669.213, 2051.097
669.695, 2047.027
670.177, 2050.675
670.659, 2056.209
671.141, 2058.649
671.623, 2057.380
672.105, 2053.241
672.587, 2044.972
673.070, 2037.305
673.552, 2040.847
674.034, 2053.949
674.516, 2062.983
674.998, 2065.751
675.480, 2061.301
675.962, 2048.047
676.444, 2026.713
676.926, 2002.740
677.409, 1976.178
677.891, 1946.819
678.373, 1907.396
678.855, 1871.443
679.337, 1850.929
679.819, 1842.187
680.301, 1833.349
680.783, 1820.028
681.265, 1802.213
681.748, 1776.004
682.230, 1745.713
682.712, 1724.002
683.194, 1712.404
683.676, 1702.292
684.158, 1688.212
684.640, 1670.328
685.122, 1648.689
685.604, 1619.146
686.087, 1594.113
686.569, 1574.055
687.051, 1558.595
687.533, 1552.406
688.015, 1549.573
688.497, 1537.335
688.979, 1508.611
689.461, 1485.001
689.943, 1486.947
690.426, 1497.795
690.908, 1493.322
691.390, 1475.288
691.872, 1461.591
692.354, 1461.665
692.836, 1466.855
693.318, 1459.957
693.800, 1438.061
694.283, 1424.112
694.765, 1419.896
695.247, 1420.645
695.729, 1428.788
696.211, 1438.468
696.693, 1440.207
697.175, 1431.695
697.657, 1426.836
698.140, 1434.224
698.622, 1441.836
699.104, 1437.997
699.586, 1429.198
700.068, 1430.064
700.550, 1444.265
701.032, 1458.259
701.514, 1455.221
701.997, 1439.606
702.479, 1432.859
702.961, 1436.177
703.443, 1434.892
703.925, 1420.305
704.407, 1406.420
704.889, 1414.834
705.371, 1449.691
705.853, 1460.538
706.336, 1421.937
706.818, 1392.781
707.300, 1392.036
707.782, 1404.875
708.264, 1421.140
708.746, 1437.130
709.228, 1447.458
709.710, 1447.465
710.192, 1442.159
710.675, 1437.951
711.157, 1433.815
711.639, 1425.098
712.121, 1410.927
712.603, 1397.621
713.085, 1389.969
713.567, 1387.776
714.049, 1390.983
714.531, 1404.158
715.014, 1412.237
715.496, 1409.372
715.978, 1405.504
716.460, 1408.033
716.942, 1413.279
717.424, 1411.807
717.906, 1398.033
718.388, 1386.834
718.870, 1390.322
719.353, 1396.380
719.835, 1392.839
720.317, 1379.974
720.799, 1359.867
721.281, 1333.191
721.763, 1310.915
722.245, 1315.361
722.727, 1344.091
723.210, 1353.552
723.692, 1338.327
724.174, 1322.674
724.656, 1316.791
725.138, 1317.372
725.620, 1321.680
726.102, 1334.514
726.584, 1329.293
727.067, 1286.322
727.549, 1248.243
728.031, 1234.053
728.513, 1230.755
728.995, 1221.101
729.477, 1203.622
729.959, 1192.638
730.441, 1205.635
730.924, 1223.508
731.406, 1217.306
731.888, 1194.169
732.370, 1177.065
732.852, 1171.452
733.334, 1170.120
733.816, 1166.999
734.298, 1162.468
734.780, 1159.616
735.263, 1162.452
735.745, 1154.847
736.227, 1123.210
736.709, 1093.761
737.191, 1088.519
737.673, 1098.188
738.155, 1099.390
738.637, 1085.614
739.119, 1070.798
739.602, 1056.240
740.084, 1045.327
740.566, 1039.620
741.048, 1038.967
741.530, 1037.088
742.012, 1034.047
742.494, 1026.369
742.976, 1024.680
743.458, 1020.590
743.941, 1016.402
744.423, 1015.555
744.905, 1010.780
745.387, 1013.779
745.869, 1021.632
746.351, 1015.322
746.833, 991.971
747.315, 980.756
747.797, 992.818
748.280, 1001.914
748.762, 999.476
749.244, 994.325
749.726, 993.001
750.208, 996.051
750.690, 1002.878
751.172, 1024.878
751.654, 1037.058
752.137, 1010.962
752.619, 971.747
753.101, 957.599
753.583, 968.973
754.065, 978.869
754.547, 969.390
755.029, 952.015
755.511, 951.185
755.994, 965.685
756.476, 966.130
756.958, 945.632
757.440, 933.341
757.922, 949.768
758.404, 980.683
758.886, 994.328
759.368, 982.900
759.851, 976.396
760.333, 973.223
760.815, 976.374
761.297, 993.077
761.779, 1013.227
762.261, 1025.369
762.743, 1027.980
763.225, 1025.988
763.707, 1016.378
764.190, 1008.300
764.672, 1012.483
765.154, 1023.303
765.636, 1028.435
766.118, 1026.462
766.600, 1027.163
767.082, 1039.019
767.564, 1057.524
768.046, 1072.011
768.529, 1082.441
769.011, 1087.128
769.493, 1082.698
769.975, 1083.897
770.457, 1103.184
770.939, 1134.076
771.421, 1157.344
771.903, 1171.787
772.385, 1180.658
772.868, 1173.307
773.350, 1172.356
773.832, 1191.706
774.314, 1221.333
774.796, 1247.476
775.278, 1267.629
775.760, 1286.578
776.242, 1310.118
776.724, 1330.664
777.207, 1337.065
777.689, 1336.322
778.171, 1342.598
778.653, 1358.852
779.135, 1378.842
779.617, 1397.528
780.099, 1415.821
780.581, 1437.828
781.064, 1463.485
781.546, 1481.951
782.028, 1490.176
782.510, 1496.394
782.992, 1505.494
783.474, 1517.604
783.956, 1533.512
784.438, 1557.602
784.920, 1576.372
785.403, 1589.718
785.885, 1597.852
786.367, 1597.564
786.849, 1593.687
787.331, 1592.858
787.813, 1596.194
788.295, 1599.099
788.778, 1601.708
789.260, 1601.131
789.742, 1594.797
790.224, 1583.959
790.706, 1569.479
791.188, 1552.342
791.670, 1536.127
792.152, 1523.941
792.634, 1513.381
793.117, 1499.804
793.599, 1483.632
794.081, 1467.049
794.563, 1450.444
795.045, 1434.075
795.527, 1418.206
796.009, 1402.726
796.491, 1387.703
796.973, 1374.445
797.456, 1357.251
797.938, 1334.338
798.420, 1310.105
798.902, 1283.612
799.384, 1258.276
799.866, 1239.366
800.348, 1227.512
800.830, 1211.399
801.312, 1179.146
801.795, 1153.507
802.277, 1150.838
802.759, 1155.757
803.241, 1150.124
803.723, 1134.242
804.205, 1121.588
804.687, 1122.099
805.169, 1121.992
805.652, 1100.858
806.134, 1069.213
806.616, 1048.900
807.098, 1041.633
807.580, 1041.807
808.062, 1046.919
808.544, 1054.546
809.026, 1062.541
809.508, 1070.905
809.991, 1068.596
810.473, 1052.677
810.955, 1038.791
811.437, 1033.674
811.919, 1030.194
812.401, 1019.797
812.883, 1002.618
813.365, 988.223
813.847, 975.928
814.330, 967.439
814.812, 965.808
815.294, 965.285
815.776, 961.482
816.258, 955.833
816.740, 952.114
817.222, 951.222
817.705, 952.434
818.187, 925.608
818.669, 920.784
819.151, 918.997
819.633, 916.472
820.115, 913.250
820.597, 907.241
821.079, 904.831
821.561, 900.979
822.044, 897.840
822.526, 907.243
823.008, 915.739
823.490, 918.186
823.972, 913.518
824.454, 902.590
824.936, 884.096
825.418, 864.266
825.901, 864.741
826.383, 892.472
826.865, 904.229
827.347, 892.083
827.829, 875.899
828.311, 860.744
828.793, 850.231
829.275, 852.327
829.757, 870.195
830.240, 881.742
830.722, 881.266
831.204, 881.103
831.686, 884.958
832.168, 890.268
832.650, 895.761
833.132, 900.593
833.614, 902.858
834.096, 902.793
834.578, 898.191
835.061, 879.535
835.543, 861.660
836.025, 863.294
836.507, 880.003
836.989, 897.563
837.471, 910.325
837.953, 919.135
838.435, 923.786
838.917, 925.526
839.400, 927.858
839.882, 930.267
840.364, 928.808
840.846, 922.433
841.328, 915.697
841.810, 912.137
842.292, 911.828
842.774, 916.006
843.257, 926.055
843.739, 932.279
844.221, 933.118
844.703, 931.462
845.185, 926.003
845.667, 921.490
846.149, 927.830
846.631, 949.114
847.114, 964.202
847.596, 974.603
848.078, 977.158
848.560, 961.804
849.042, 945.457
849.524, 945.919
850.006, 960.003
850.488, 967.886
850.971, 956.874
851.453, 951.933
851.935, 974.668
852.417, 998.956
852.899, 999.204
853.381, 982.571
853.863, 965.749
854.345, 954.525
854.827, 951.452
855.310, 964.063
855.792, 982.322
856.274, 993.230
856.756, 997.540
857.238, 996.383
857.720, 990.846
858.202, 985.862
858.684, 984.884
859.166, 987.596
859.649, 995.868
860.131, 1008.782
860.613, 1012.070
861.095, 1003.673
861.577, 994.692
862.059, 989.327
862.541, 989.120
863.023, 997.829
863.505, 1016.211
863.988, 1024.626
864.470, 1015.268
864.952, 1015.217
865.434, 1040.909
865.916, 1064.343
866.398, 1055.969
866.880, 1026.041
867.362, 1017.070
867.844, 1042.007
868.327, 1062.314
868.809, 1074.378
869.291, 1081.893
869.773, 1083.499
870.255, 1083.272
870.737, 1085.152
871.219, 1089.970
871.701, 1099.841
872.184, 1123.120
872.666, 1142.921
873.148, 1145.920
873.630, 1142.814
874.112, 1143.820
874.594, 1150.457
875.076, 1164.513
875.558, 1188.561
876.041, 1204.843
876.523, 1180.498
877.005, 1146.971
877.487, 1163.761
877.969, 1215.768
878.451, 1248.982
878.933, 1248.982
879.415, 1240.502
879.898, 1244.240
880.380, 1256.185
880.862, 1269.052
881.344, 1282.113
881.826, 1286.798
882.308, 1281.715
882.790, 1280.515
883.272, 1291.262
883.754, 1306.624
884.237, 1314.200
884.719, 1313.691
885.201, 1315.130
885.683, 1318.529
886.165, 1324.165
886.647, 1333.194
887.129, 1342.601
887.611, 1350.448
888.093, 1356.451
888.576, 1359.081
889.058, 1355.808
889.540, 1353.746
890.022, 1351.564
890.504, 1352.145
890.986, 1359.638
891.468, 1368.663
891.950, 1373.119
892.432, 1372.645
892.915, 1368.504
893.397, 1352.851
893.879, 1344.199
894.361, 1354.001
894.843, 1367.998
895.325, 1375.150
895.807, 1376.845
896.289, 1378.693
896.771, 1382.103
897.254, 1387.067
897.736, 1394.360
898.218, 1402.490
898.700, 1412.010
899.182, 1420.636
899.664, 1424.592
900.146, 1423.751
900.628, 1421.007
901.111, 1417.709
901.593, 1414.271
902.075, 1410.186
902.557, 1406.696
903.039, 1403.633
903.521, 1403.128
904.003, 1415.851
904.485, 1444.601
904.968, 1469.847
905.450, 1467.045
905.932, 1448.336
906.414, 1445.612
906.896, 1456.802
907.378, 1470.322
907.860, 1484.058
908.342, 1498.184
908.825, 1512.944
909.307, 1527.408
909.789, 1538.813
910.271, 1547.106
910.753, 1561.484
911.235, 1582.452
911.717, 1606.237
912.199, 1632.619
912.681, 1659.255
913.164, 1684.890
913.646, 1708.718
914.128, 1725.677
914.610, 1731.189
915.092, 1745.243
915.574, 1773.717
916.056, 1801.141
916.538, 1820.464
917.020, 1835.495
917.503, 1848.205
917.985, 1857.686
918.467, 1884.647
918.949, 1953.950
919.431, 2004.121
919.913, 2007.634
920.395, 2011.657
920.877, 2048.106
921.359, 2102.975
921.842, 2147.382
922.324, 2175.544
922.806, 2209.251
923.288, 2253.120
923.770, 2301.858
924.252, 2350.411
924.734, 2405.379
925.216, 2477.878
925.698, 2562.787
926.181, 2639.366
926.663, 2697.784
927.145, 2759.663
927.627, 2838.441
928.109, 2919.666
928.591, 2982.930
929.073, 3046.559
929.555, 3140.198
930.038, 3265.783
930.520, 3398.112
931.002, 3530.571
931.484, 3654.192
931.966, 3745.466
932.448, 3834.068
932.930, 3954.500
933.412, 4104.004
933.894, 4268.675
934.377, 4443.267
934.859, 4625.184
935.341, 4808.084
935.823, 4999.622
936.305, 5208.547
936.787, 5433.595
937.269, 5674.147
937.752, 5929.983
938.234, 6200.153
938.716, 6482.825
939.198, 6791.388
939.680, 7135.030
940.162, 7515.709
940.644, 7938.008
941.126, 8400.846
941.608, 8902.346
942.091, 9440.337
942.573, 10028.830
943.055, 10676.480
943.537, 11379.670
944.019, 12120.140
944.501, 12901.460
944.983, 13734.740
945.465, 14616.980
945.947, 15574.340
946.430, 16611.189
946.912, 17706.859
947.394, 18852.920
947.876, 20033.990
948.358, 21219.641
948.840, 22405.801
949.322, 23617.439
949.804, 24867.990
950.286, 26019.520
950.769, 27023.061
951.251, 27880.680
951.733, 28606.461
952.215, 29191.061
952.697, 29551.520
953.179, 29693.631
953.661, 29588.211
954.143, 29227.789
954.625, 28623.340
955.108, 27749.430
955.590, 26687.320
956.072, 25568.090
956.554, 24395.029
957.036, 23132.461
957.518, 21728.881
958.000, 20367.381
958.482, 19081.279
958.965, 17854.750
959.447, 16677.381
959.929, 15561.860
960.411, 14534.060
960.893, 13609.400
961.375, 12712.290
961.857, 11795.770
962.339, 10993.550
962.821, 10385.130
963.304, 9847.814
963.786, 9280.439
964.268, 8703.862
964.750, 8187.159
965.232, 7737.449
965.714, 7325.529
966.196, 6945.356
966.679, 6608.622
967.161, 6347.470
967.643, 6107.828
968.125, 5832.341
968.607, 5533.065
969.089, 5279.847
969.571, 5104.445
970.053, 4926.248
970.535, 4725.949
971.018, 4540.096
971.500, 4391.110
971.982, 4259.823
972.464, 4119.043
972.946, 3971.267
973.428, 3848.340
973.910, 3774.260
974.392, 3695.608
974.875, 3599.992
975.357, 3501.581
975.839, 3403.891
976.321, 3310.581
976.803, 3226.701
977.285, 3152.444
977.767, 3085.287
978.249, 3020.962
978.731, 2969.284
979.214, 2940.338
979.696, 2917.225
980.178, 2896.419
980.660, 2870.724
981.142, 2821.542
981.624, 2746.325
982.106, 2698.338
982.588, 2718.292
983.070, 2734.284
983.553, 2716.268
984.035, 2688.600
984.517, 2669.452
984.999, 2655.945
985.481, 2636.959
985.963, 2609.531
986.445, 2594.262
986.927, 2611.496
987.409, 2625.536
987.892, 2614.127
988.374, 2597.893
988.856, 2596.670
989.338, 2605.760
989.820, 2608.543
990.302, 2599.701
990.784, 2600.310
991.266, 2631.583
991.748, 2658.649
992.231, 2655.196
992.713, 2645.101
993.195, 2653.703
993.677, 2676.503
994.159, 2695.587
994.641, 2706.292
995.123, 2712.942
995.606, 2710.755
996.088, 2712.754
996.570, 2734.688
997.052, 2758.625
997.534, 2762.746
998.016, 2751.453
998.498, 2745.235
998.980, 2752.188
999.462, 2752.554
999.945, 2735.615
1000.427, 2711.153
1000.909, 2676.743
1001.391, 2644.030
1001.873, 2635.635
1002.355, 2640.668
1002.837, 2617.426
1003.319, 2545.608
1003.801, 2478.904
1004.284, 2448.516
1004.766, 2424.149
1005.248, 2392.622
1005.730, 2351.652
1006.212, 2293.123
1006.694, 2224.043
1007.176, 2167.914
1007.658, 2135.697
1008.141, 2103.858
1008.623, 2062.515
1009.105, 2017.672
1009.587, 1969.133
1010.069, 1922.176
1010.551, 1882.986
1011.033, 1850.867
1011.515, 1820.438
1011.997, 1790.132
1012.480, 1761.085
1012.962, 1737.753
1013.444, 1711.125
1013.926, 1667.735
1014.408, 1623.501
1014.890, 1601.433
1015.372, 1596.672
1015.854, 1582.361
1016.336, 1546.892
1016.819, 1514.333
1017.301, 1493.674
1017.783, 1479.225
1018.265, 1470.891
1018.747, 1464.740
1019.229, 1458.834
1019.711, 1451.307
1020.193, 1436.846
1020.676, 1411.837
1021.158, 1387.167
1021.640, 1366.682
1022.122, 1347.241
1022.604, 1326.064
1023.086, 1305.807
1023.568, 1291.614
1024.050, 1281.129
1024.532, 1264.342
1025.015, 1235.203
1025.497, 1212.320
1025.979, 1207.954
1026.461, 1202.206
1026.943, 1184.666
1027.425, 1162.446
1027.907, 1143.661
1028.389, 1126.803
1028.872, 1104.111
1029.354, 1071.008
1029.836, 1042.065
1030.318, 1016.008
1030.800, 999.743
1031.282, 1009.664
1031.764, 1018.938
1032.246, 998.876
1032.729, 957.978
1033.211, 925.467
1033.693, 903.410
1034.175, 892.265
1034.657, 897.416
1035.139, 906.705
1035.621, 928.821
1036.103, 942.677
1036.585, 923.990
1037.068, 884.555
1037.550, 858.209
1038.032, 847.929
1038.514, 844.350
1038.996, 851.543
1039.478, 859.631
1039.960, 867.113
1040.442, 874.456
1040.924, 884.025
1041.407, 892.919
1041.889, 891.803
1042.371, 874.907
1042.853, 877.037
1043.335, 911.854
1043.817, 939.454
1044.299, 948.695
1044.781, 951.351
1045.264, 928.552
1045.746, 928.470
1046.228, 937.071
1046.710, 969.437
1047.192, 996.039
1047.674, 1017.174
1048.156, 1016.500
1048.638, 1043.607
1049.120, 1060.214
1049.603, 1083.129
1050.085, 1108.978
1050.567, 1132.121
1051.049, 1152.728
1051.531, 1174.356
1052.013, 1196.375
1052.495, 1221.155
1052.977, 1247.088
1053.459, 1269.737
1053.942, 1313.191
1054.424, 1382.652
1054.906, 1445.785
1055.388, 1502.902
1055.870, 1536.054
1056.352, 1600.170
1056.834, 1651.863
1057.316, 1703.061
1057.799, 1771.632
1058.281, 1819.792
1058.763, 1894.729
1059.245, 1966.694
1059.727, 2041.380
1060.209, 2137.286
1060.691, 2252.761
1061.173, 2369.109
1061.656, 2487.319
1062.138, 2635.951
1062.620, 2823.081
1063.102, 3023.320
1063.584, 3211.528
1064.066, 3404.409
1064.548, 3623.496
1065.030, 3877.407
1065.512, 4198.526
1065.995, 4575.423
1066.477, 4934.510
1066.959, 5271.221
1067.441, 5705.438
1067.923, 6341.070
1068.405, 6994.292
1068.887, 7405.280
1069.369, 7706.970
1069.851, 8102.103
1070.334, 8565.168
1070.816, 9044.276
1071.298, 9508.065
1071.780, 9900.024
1072.262, 10194.280
1072.744, 10382.620
1073.226, 10458.560
1073.708, 10424.900
1074.191, 10260.800
1074.673, 10004.490
1075.155, 9732.326
1075.637, 9414.826
1076.119, 8920.504
1076.601, 8196.021
1077.083, 7460.992
1077.565, 6805.280
1078.047, 6205.903
1078.530, 5644.535
1079.012, 5137.818
1079.494, 4719.708
1079.976, 4365.451
1080.458, 4023.975
1080.940, 3686.810
1081.422, 3382.597
1081.904, 3125.139
1082.386, 2894.362
1082.869, 2688.490
1083.351, 2504.256
1083.833, 2336.707
1084.315, 2189.148
1084.797, 2071.818
1085.279, 1983.465
1085.761, 1894.383
1086.243, 1805.859
1086.725, 1711.698
1087.208, 1597.312
1087.690, 1499.830
1088.172, 1435.554
1088.654, 1390.270
1089.136, 1353.890
1089.618, 1323.656
1090.100, 1287.068
1090.582, 1241.141
1091.065, 1199.914
1091.547, 1163.594
1092.029, 1132.369
1092.511, 1106.870
1092.993, 1083.777
1093.475, 1059.227
1093.957, 1038.831
1094.439, 1037.429
1094.922, 1053.729
1095.404, 1058.115
1095.886, 1050.721
1096.368, 1043.835
1096.850, 1039.694
1097.332, 1038.516
1097.814, 1040.357
1098.296, 1046.234
1098.778, 1059.604
1099.260, 1076.022
1099.743, 1084.409
1100.225, 1085.833
1100.707, 1081.719
1101.189, 1073.812
1101.671, 1068.776
1102.153, 1068.429
1102.635, 1065.477
1103.117, 1052.226
1103.600, 1037.604
1104.082, 1037.039
1104.564, 1038.041
1105.046, 1024.121
1105.528, 997.608
1106.010, 961.394
1106.492, 919.700
1106.974, 884.968
1107.457, 863.331
1107.939, 848.973
1108.421, 843.393
1108.903, 838.397
1109.385, 837.212
1109.867, 826.693
1110.349, 779.654
1110.831, 712.483
1111.313, 675.491
1111.796, 682.277
1112.278, 691.860
1112.760, 710.683
1113.242, 710.595
1113.724, 666.320
1114.206, 619.470
1114.688, 593.638
1115.170, 583.971
1115.652, 586.520
1116.135, 601.086
1116.617, 607.606
1117.099, 602.977
1117.581, 598.748
1118.063, 597.702
1118.545, 590.843
1119.027, 572.021
1119.509, 553.282
1119.992, 547.206
1120.474, 549.696
1120.956, 546.791
1121.438, 538.486
1121.920, 541.232
1122.402, 555.016
1122.884, 555.354
1123.366, 536.890
1123.849, 521.539
1124.331, 523.597
1124.813, 532.200
1125.295, 533.703
1125.777, 529.351
1126.259, 521.981
1126.741, 511.114
1127.223, 497.338
1127.705, 511.601
1128.188, 519.055
1128.670, 520.071
1129.152, 495.357
1129.634, 503.868
1130.116, 499.064
1130.598, 493.714
1131.080, 506.902
1131.562, 485.929
1132.044, 498.823
1132.527, 498.196
1133.009, 494.438
1133.491, 486.781
1133.973, 490.456
1134.455, 491.772
1134.937, 486.307
1135.419, 478.280
1135.901, 464.491
1136.384, 453.355
1136.866, 453.777
1137.348, 461.677
1137.830, 467.001
1138.312, 469.202
1138.794, 474.463
1139.276, 489.623
1139.758, 488.775
1140.240, 462.198
1140.723, 436.888
1141.205, 424.653
1141.687, 421.158
1142.169, 422.804
1142.651, 427.202
1143.133, 423.272
1143.615, 412.049
1144.097, 413.136
1144.579, 426.376
1145.062, 438.339
1145.544, 445.347
1146.026, 447.658
1146.508, 445.041
1146.990, 441.922
1147.472, 442.388
1147.954, 447.308
1148.436, 441.214
1148.919, 449.324
1149.401, 434.865
1149.883, 449.569
1150.365, 457.194
1150.847, 458.121
1151.329, 432.286
1151.811, 441.008
1152.293, 435.881
1152.776, 430.183
1153.258, 443.769
1153.740, 434.680
1154.222, 439.407
1154.704, 438.322
1155.186, 431.302
1155.668, 422.981
1156.150, 407.695
1156.632, 409.066
1157.115, 446.477
1157.597, 467.212
1158.079, 452.349
1158.561, 433.203
1159.043, 427.636
1159.525, 429.918
1160.007, 427.568
1160.489, 424.877
1160.971, 409.799
1161.454, 426.092
1161.936, 434.771
1162.418, 436.245
1162.900, 408.929
1163.382, 418.789
1163.864, 413.750
1164.346, 408.101
1164.828, 423.192
1165.311, 413.888
1165.793, 420.824
1166.275, 426.400
1166.757, 429.327
1167.239, 426.893
1167.721, 421.106
1168.203, 419.367
1168.685, 424.078
1169.167, 427.777
1169.650, 430.190
1170.132, 425.147
1170.614, 395.757
1171.096, 372.373
1171.578, 384.447
1172.060, 410.663
1172.542, 424.108
1173.024, 423.987
1173.506, 418.388
1173.989, 403.310
1174.471, 395.332
1174.953, 395.972
1175.435, 401.312
1175.917, 414.468
1176.399, 421.627
1176.881, 412.872
1177.363, 397.906
1177.846, 391.238
1178.328, 391.057
1178.810, 389.040
1179.292, 385.336
1179.774, 378.660
1180.256, 370.650
1180.738, 374.361
1181.220, 392.010
1181.703, 409.557
1182.185, 418.679
1182.667, 419.022
1183.149, 402.940
1183.631, 384.940
1184.113, 382.095
1184.595, 387.866
1185.077, 394.846
1185.559, 401.553
1186.042, 409.911
1186.524, 419.837
1187.006, 418.778
1187.488, 391.547
1187.970, 370.591
1188.452, 366.013
1188.934, 364.294
1189.416, 356.988
1189.898, 353.326
1190.381, 363.703
1190.863, 382.101
1191.345, 392.999
1191.827, 396.125
1192.309, 396.090
1192.791, 392.817
1193.273, 385.111
1193.755, 372.546
1194.238, 371.653
1194.720, 389.598
1195.202, 404.673
1195.684, 394.636
1196.166, 375.034
1196.648, 371.690
1197.130, 376.210
1197.612, 372.171
1198.094, 364.998
1198.577, 368.726
1199.059, 381.790
1199.541, 386.625
1200.023, 375.871
1200.505, 362.566
1200.987, 376.487
1201.469, 383.799
1201.951, 384.857
1202.433, 360.932
1202.916, 369.265
1203.398, 364.673
1203.880, 359.549
1204.362, 372.426
1204.844, 352.134
1205.326, 364.725
1205.808, 364.190
1206.290, 369.663
1206.773, 362.124
1207.255, 358.606
1207.737, 368.100
1208.219, 370.390
1208.701, 361.356
1209.183, 367.210
1209.665, 346.464
1210.147, 349.060
1210.630, 361.725
1211.112, 353.345
1211.594, 359.437
1212.076, 360.018
1212.558, 335.550
1213.040, 354.644
1213.522, 354.899
1214.004, 341.831
1214.486, 344.399
1214.969, 351.110
1215.451, 363.848
1215.933, 370.987
1216.415, 359.459
1216.897, 342.531
1217.379, 335.670
1217.861, 337.293
1218.343, 340.754
1218.825, 345.969
1219.308, 354.739
1219.790, 367.973
1220.272, 375.983
1220.754, 377.004
1221.236, 370.493
1221.718, 356.059
1222.200, 339.197
1222.682, 322.514
1223.165, 313.345
1223.647, 320.084
1224.129, 301.705
1224.611, 330.366
1225.093, 347.609
1225.575, 354.047
1226.057, 317.316
1226.539, 336.328
1227.021, 333.001
1227.504, 328.764
1227.986, 343.321
1228.468, 338.432
1228.950, 354.543
1229.432, 369.764
1229.914, 377.736
1230.396, 375.706
1230.878, 355.881
1231.360, 329.164
1231.843, 330.369
1232.325, 359.147
1232.807, 366.303
1233.289, 353.494
1233.771, 344.128
1234.253, 341.465
1234.735, 341.808
1235.217, 343.497
1235.700, 345.092
1236.182, 346.971
1236.664, 344.015
1237.146, 324.090
1237.628, 304.230
1238.110, 301.469
1238.592, 307.636
1239.074, 314.694
1239.557, 320.924
1240.039, 327.191
1240.521, 334.250
1241.003, 327.326
1241.485, 288.706
1241.967, 275.750
1242.449, 304.951
1242.931, 317.990
1243.413, 291.475
1243.896, 271.069
1244.378, 291.824
1244.860, 327.059
1245.342, 333.649
1245.824, 321.920
1246.306, 315.552
1246.788, 316.805
1247.270, 297.701
1247.752, 321.328
1248.235, 334.582
1248.717, 338.021
1249.199, 302.248
1249.681, 317.109
1250.163, 311.679
1250.645, 305.416
1251.127, 327.404
1251.609, 297.335
1252.092, 318.875
1252.574, 319.813
1253.056, 330.180
1253.538, 320.130
1254.020, 316.386
1254.502, 333.067
1254.984, 338.438
1255.466, 326.037
1255.948, 337.004
1256.431, 306.221
1256.913, 312.074
1257.395, 315.403
1257.877, 319.003
1258.359, 322.799
1258.841, 317.759
1259.323, 312.373
1259.805, 319.582
1260.287, 324.241
1260.770, 304.349
1261.252, 281.895
1261.734, 285.201
1262.216, 305.260
1262.698, 315.525
1263.180, 313.838
1263.662, 319.812
1264.144, 341.095
1264.627, 343.494
1265.109, 320.029
1265.591, 307.815
1266.073, 317.435
1266.555, 330.914
1267.037, 337.526
1267.519, 336.987
1268.001, 325.512
1268.484, 311.278
1268.966, 307.811
1269.448, 310.365
1269.930, 315.184
1270.412, 318.740
##END=



