##NAMES=Bobjonesite
##RRUFFID=R060530
##IDEAL CHEMISTRY=V^4+^OS^6+^O_4_&#183;3H_2_O
##LOCALITY=Petrified log in the North Mesa 5 mine, Temple Mountain, Emery County, Utah, USA
##OWNER=RRUFF
##SOURCE=Michael Scott
##DESCRIPTION=Blue granular crystals
##STATUS=The identification of this mineral has been confirmed by single-crystal X-ray diffraction.
##URL=rruff.info/R060530
89.78320, 6010.726
90.26532, 5961.524
90.74744, 5959.547
91.22955, 6020.996
91.71167, 6113.785
92.19379, 6197.168
92.67590, 6275.533
93.15802, 6351.882
93.64014, 6422.871
94.12225, 6493.157
94.60437, 6573.688
95.08649, 6671.942
95.56860, 6776.732
96.05072, 6881.247
96.53284, 6994.115
97.01495, 7082.784
97.49707, 7123.583
97.97919, 7117.935
98.46130, 7051.792
98.94342, 6916.354
99.42554, 6715.604
99.90765, 6484.295
100.3898, 6213.782
100.8719, 5928.495
101.3540, 5657.293
101.8361, 5392.854
102.3182, 5156.355
102.8004, 4951.767
103.2825, 4779.971
103.7646, 4637.864
104.2467, 4528.596
104.7288, 4446.351
105.2109, 4379.258
105.6931, 4327.514
106.1752, 4288.442
106.6573, 4260.453
107.1394, 4245.322
107.6215, 4238.142
108.1036, 4242.710
108.5858, 4256.558
109.0679, 4265.966
109.5500, 4266.735
110.0321, 4266.583
110.5142, 4269.614
110.9963, 4276.112
111.4785, 4285.451
111.9606, 4296.647
112.4427, 4309.771
112.9248, 4328.253
113.4069, 4354.965
113.8890, 4385.768
114.3712, 4417.681
114.8533, 4447.179
115.3354, 4480.069
115.8175, 4518.977
116.2996, 4564.928
116.7817, 4611.666
117.2639, 4655.797
117.7460, 4700.160
118.2281, 4748.342
118.7102, 4805.352
119.1923, 4864.070
119.6744, 4919.961
120.1566, 4972.443
120.6387, 5022.850
121.1208, 5075.204
121.6029, 5125.857
122.0850, 5166.901
122.5671, 5197.403
123.0493, 5214.808
123.5314, 5216.279
124.0135, 5200.743
124.4956, 5170.155
124.9777, 5121.266
125.4598, 5056.994
125.9420, 4989.392
126.4241, 4920.675
126.9062, 4854.460
127.3883, 4797.469
127.8704, 4751.404
128.3525, 4714.640
128.8347, 4685.570
129.3168, 4664.019
129.7989, 4648.764
130.2810, 4641.161
130.7631, 4639.664
131.2452, 4637.641
131.7274, 4633.352
132.2095, 4627.567
132.6916, 4622.403
133.1737, 4617.966
133.6558, 4613.482
134.1379, 4608.170
134.6201, 4602.067
135.1022, 4595.224
135.5843, 4587.147
136.0664, 4578.190
136.5485, 4571.351
137.0306, 4566.888
137.5128, 4563.881
137.9949, 4560.789
138.4770, 4557.210
138.9591, 4555.392
139.4412, 4555.955
139.9233, 4558.869
140.4055, 4564.165
140.8876, 4572.792
141.3697, 4582.697
141.8518, 4590.441
142.3339, 4595.058
142.8160, 4599.441
143.2982, 4604.006
143.7803, 4607.353
144.2624, 4615.403
144.7445, 4629.429
145.2266, 4647.848
145.7087, 4666.314
146.1909, 4684.660
146.6730, 4703.732
147.1551, 4724.083
147.6372, 4745.513
148.1193, 4768.451
148.6014, 4794.464
149.0836, 4822.243
149.5657, 4848.219
150.0478, 4870.376
150.5299, 4891.808
151.0120, 4914.007
151.4941, 4940.718
151.9763, 4963.442
152.4584, 4983.662
152.9405, 5000.360
153.4226, 5009.244
153.9047, 5009.951
154.3868, 5002.727
154.8690, 4987.702
155.3511, 4959.928
155.8332, 4929.635
156.3153, 4899.194
156.7974, 4868.196
157.2795, 4833.137
157.7617, 4788.679
158.2438, 4742.394
158.7259, 4699.763
159.2080, 4662.234
159.6901, 4628.421
160.1722, 4598.227
160.6544, 4571.637
161.1365, 4547.946
161.6186, 4526.346
162.1007, 4507.893
162.5828, 4493.033
163.0649, 4483.120
163.5471, 4476.000
164.0292, 4471.107
164.5113, 4468.379
164.9934, 4466.713
165.4755, 4466.195
165.9576, 4466.189
166.4398, 4465.928
166.9219, 4463.544
167.4040, 4461.839
167.8861, 4462.811
168.3682, 4466.616
168.8503, 4471.725
169.3325, 4477.679
169.8146, 4484.295
170.2967, 4491.174
170.7788, 4497.805
171.2609, 4504.977
171.7430, 4513.650
172.2252, 4524.106
172.7073, 4534.680
173.1894, 4543.628
173.6715, 4551.748
174.1536, 4560.482
174.6357, 4570.618
175.1179, 4581.878
175.6000, 4594.230
176.0821, 4607.705
176.5642, 4621.399
177.0463, 4634.091
177.5284, 4646.216
178.0106, 4658.889
178.4927, 4672.956
178.9748, 4687.988
179.4569, 4702.755
179.9390, 4717.100
180.4211, 4731.998
180.9033, 4748.842
181.3854, 4767.579
181.8675, 4787.312
182.3496, 4807.704
182.8317, 4828.720
183.3138, 4851.701
183.7960, 4876.975
184.2781, 4903.040
184.7602, 4927.558
185.2423, 4950.752
185.7244, 4972.655
186.2065, 4992.405
186.6887, 5010.771
187.1708, 5031.626
187.6529, 5056.135
188.1350, 5081.448
188.6171, 5101.690
189.0992, 5117.123
189.5814, 5131.701
190.0635, 5147.618
190.5456, 5164.994
191.0277, 5182.938
191.5098, 5201.364
191.9919, 5220.530
192.4741, 5239.981
192.9562, 5259.541
193.4383, 5281.396
193.9204, 5306.805
194.4025, 5335.704
194.8846, 5367.080
195.3668, 5400.720
195.8489, 5436.852
196.3310, 5476.135
196.8131, 5518.624
197.2952, 5563.522
197.7773, 5611.246
198.2595, 5661.640
198.7416, 5713.021
199.2237, 5764.352
199.7058, 5816.651
200.1879, 5872.931
200.6700, 5934.757
201.1522, 5996.136
201.6343, 6053.127
202.1164, 6105.479
202.5985, 6157.057
203.0806, 6209.184
203.5627, 6259.911
204.0449, 6302.747
204.5270, 6337.866
205.0091, 6364.380
205.4912, 6380.761
205.9733, 6386.087
206.4554, 6386.437
206.9376, 6382.032
207.4197, 6373.260
207.9018, 6360.781
208.3839, 6343.624
208.8660, 6325.241
209.3481, 6307.841
209.8303, 6291.204
210.3124, 6276.600
210.7945, 6264.820
211.2766, 6255.237
211.7587, 6245.301
212.2408, 6236.231
212.7230, 6224.235
213.2051, 6207.132
213.6872, 6185.288
214.1693, 6156.394
214.6514, 6119.393
215.1335, 6074.940
215.6157, 6028.157
216.0978, 5978.478
216.5799, 5926.418
217.0620, 5870.831
217.5441, 5808.985
218.0262, 5750.827
218.5084, 5696.739
218.9905, 5646.354
219.4726, 5600.316
219.9547, 5557.184
220.4368, 5519.663
220.9189, 5490.285
221.4011, 5470.507
221.8832, 5454.892
222.3653, 5443.872
222.8474, 5436.791
223.3295, 5429.726
223.8116, 5421.510
224.2938, 5415.462
224.7759, 5413.469
225.2580, 5415.542
225.7401, 5421.929
226.2222, 5434.476
226.7043, 5451.284
227.1865, 5464.990
227.6686, 5474.084
228.1507, 5481.817
228.6328, 5490.102
229.1149, 5500.104
229.5970, 5507.921
230.0792, 5513.477
230.5613, 5516.711
231.0434, 5516.820
231.5255, 5512.370
232.0076, 5507.124
232.4897, 5503.569
232.9719, 5504.131
233.4540, 5500.924
233.9361, 5491.669
234.4182, 5478.628
234.9003, 5469.490
235.3824, 5465.200
235.8646, 5463.459
236.3467, 5462.969
236.8288, 5462.657
237.3109, 5465.961
237.7930, 5473.919
238.2751, 5485.293
238.7573, 5496.132
239.2394, 5505.488
239.7215, 5515.452
240.2036, 5527.120
240.6857, 5541.309
241.1678, 5555.288
241.6500, 5569.860
242.1321, 5583.869
242.6142, 5594.595
243.0963, 5601.319
243.5784, 5605.686
244.0605, 5608.648
244.5427, 5611.575
245.0248, 5609.592
245.5069, 5601.404
245.9890, 5588.868
246.4711, 5576.004
246.9532, 5562.454
247.4354, 5549.138
247.9175, 5536.575
248.3996, 5524.830
248.8817, 5513.543
249.3638, 5502.169
249.8459, 5491.692
250.3281, 5483.695
250.8102, 5477.695
251.2923, 5475.187
251.7744, 5476.849
252.2565, 5483.099
252.7386, 5491.820
253.2208, 5503.057
253.7029, 5516.743
254.1850, 5533.147
254.6671, 5552.927
255.1492, 5574.049
255.6313, 5595.245
256.1135, 5615.747
256.5956, 5640.810
257.0777, 5672.328
257.5598, 5706.052
258.0419, 5735.949
258.5240, 5759.776
259.0062, 5783.869
259.4883, 5809.810
259.9704, 5837.100
260.4525, 5866.398
260.9346, 5897.194
261.4167, 5930.203
261.8989, 5966.653
262.3810, 6007.290
262.8631, 6048.685
263.3452, 6089.071
263.8273, 6129.097
264.3094, 6173.038
264.7916, 6221.971
265.2737, 6274.416
265.7558, 6329.287
266.2379, 6385.324
266.7200, 6447.153
267.2021, 6516.875
267.6843, 6593.802
268.1664, 6673.834
268.6485, 6756.684
269.1306, 6842.764
269.6127, 6932.146
270.0948, 7025.266
270.5770, 7118.252
271.0591, 7210.932
271.5412, 7301.898
272.0233, 7389.100
272.5054, 7473.425
272.9875, 7547.272
273.4697, 7606.765
273.9518, 7653.518
274.4339, 7677.950
274.9160, 7678.491
275.3981, 7656.440
275.8802, 7613.208
276.3624, 7547.794
276.8445, 7467.636
277.3266, 7374.507
277.8087, 7267.637
278.2908, 7159.311
278.7729, 7049.752
279.2551, 6940.345
279.7372, 6836.451
280.2193, 6737.791
280.7014, 6644.462
281.1835, 6554.631
281.6656, 6468.375
282.1478, 6391.082
282.6299, 6323.467
283.1120, 6263.874
283.5941, 6210.500
284.0762, 6163.274
284.5583, 6119.871
285.0405, 6078.361
285.5226, 6039.053
286.0047, 6004.969
286.4868, 5976.328
286.9689, 5952.196
287.4510, 5931.913
287.9332, 5915.386
288.4153, 5900.959
288.8974, 5887.809
289.3795, 5876.323
289.8616, 5868.857
290.3438, 5865.591
290.8259, 5864.989
291.3080, 5865.134
291.7901, 5866.306
292.2722, 5870.308
292.7543, 5878.117
293.2365, 5888.907
293.7186, 5900.724
294.2007, 5913.454
294.6828, 5927.872
295.1649, 5944.750
295.6470, 5963.796
296.1292, 5984.606
296.6113, 6006.784
297.0934, 6030.689
297.5755, 6058.057
298.0576, 6088.736
298.5397, 6119.462
299.0219, 6146.706
299.5040, 6172.774
299.9861, 6202.622
300.4682, 6238.249
300.9503, 6275.865
301.4324, 6312.013
301.9146, 6346.586
302.3967, 6380.549
302.8788, 6414.178
303.3609, 6447.454
303.8430, 6479.505
304.3251, 6509.933
304.8073, 6540.138
305.2894, 6572.294
305.7715, 6605.314
306.2536, 6637.524
306.7357, 6666.574
307.2178, 6694.706
307.7000, 6722.849
308.1821, 6750.680
308.6642, 6781.500
309.1463, 6819.498
309.6284, 6861.522
310.1105, 6903.314
310.5927, 6940.897
311.0748, 6978.476
311.5569, 7020.322
312.0390, 7066.479
312.5211, 7111.841
313.0032, 7153.506
313.4854, 7193.547
313.9675, 7233.613
314.4496, 7280.174
314.9317, 7321.657
315.4138, 7353.734
315.8959, 7376.494
316.3781, 7391.359
316.8602, 7403.148
317.3423, 7404.852
317.8244, 7391.094
318.3065, 7358.049
318.7886, 7313.369
319.2708, 7257.735
319.7529, 7192.213
320.2350, 7119.521
320.7171, 7039.244
321.1992, 6953.617
321.6813, 6862.752
322.1635, 6762.989
322.6456, 6666.177
323.1277, 6574.891
323.6098, 6487.802
324.0919, 6402.376
324.5740, 6314.946
325.0562, 6233.142
325.5383, 6160.206
326.0204, 6097.935
326.5025, 6037.852
326.9846, 5976.945
327.4667, 5919.250
327.9489, 5868.307
328.4310, 5827.841
328.9131, 5790.039
329.3952, 5753.734
329.8773, 5718.970
330.3594, 5685.911
330.8416, 5654.282
331.3237, 5624.987
331.8058, 5598.785
332.2879, 5575.988
332.7700, 5555.550
333.2521, 5536.920
333.7343, 5520.266
334.2164, 5506.829
334.6985, 5498.401
335.1806, 5490.493
335.6627, 5480.360
336.1448, 5466.649
336.6270, 5455.024
337.1091, 5445.964
337.5912, 5438.926
338.0733, 5433.119
338.5554, 5429.221
339.0375, 5424.604
339.5197, 5417.648
340.0018, 5408.203
340.4839, 5400.663
340.9660, 5395.235
341.4481, 5391.563
341.9302, 5390.253
342.4124, 5391.567
342.8945, 5390.970
343.3766, 5386.213
343.8587, 5378.470
344.3408, 5373.097
344.8229, 5370.328
345.3051, 5368.456
345.7872, 5365.763
346.2693, 5362.484
346.7514, 5360.220
347.2335, 5359.564
347.7156, 5359.853
348.1978, 5359.854
348.6799, 5359.644
349.1620, 5359.648
349.6441, 5361.338
350.1262, 5363.460
350.6083, 5362.208
351.0905, 5356.272
351.5726, 5350.160
352.0547, 5349.532
352.5368, 5353.124
353.0189, 5357.108
353.5010, 5359.208
353.9832, 5360.773
354.4653, 5364.194
354.9474, 5369.696
355.4295, 5373.685
355.9116, 5370.677
356.3937, 5364.850
356.8759, 5362.540
357.3580, 5369.444
357.8401, 5377.757
358.3222, 5381.971
358.8043, 5382.695
359.2864, 5383.294
359.7686, 5385.818
360.2507, 5388.875
360.7328, 5391.050
361.2149, 5390.726
361.6970, 5391.671
362.1791, 5396.771
362.6613, 5404.215
363.1434, 5409.894
363.6255, 5410.876
364.1076, 5410.999
364.5897, 5412.111
365.0718, 5414.796
365.5540, 5416.993
366.0361, 5417.708
366.5182, 5417.966
367.0003, 5419.016
367.4824, 5423.493
367.9645, 5426.314
368.4467, 5425.272
368.9288, 5420.163
369.4109, 5418.093
369.8930, 5422.084
370.3751, 5426.967
370.8572, 5429.138
371.3394, 5425.706
371.8215, 5424.625
372.3036, 5427.562
372.7857, 5433.221
373.2678, 5436.767
373.7499, 5436.572
374.2321, 5437.049
374.7142, 5440.380
375.1963, 5447.213
375.6784, 5454.108
376.1605, 5461.247
376.6426, 5468.038
377.1248, 5473.208
377.6069, 5476.581
378.0890, 5479.603
378.5711, 5482.679
379.0532, 5485.805
379.5353, 5488.433
380.0175, 5490.392
380.4996, 5492.947
380.9817, 5498.228
381.4638, 5505.741
381.9459, 5511.299
382.4280, 5513.511
382.9102, 5513.933
383.3923, 5514.921
383.8744, 5516.496
384.3565, 5519.169
384.8386, 5524.736
385.3207, 5531.359
385.8029, 5534.585
386.2850, 5533.507
386.7671, 5531.644
387.2492, 5532.696
387.7313, 5535.747
388.2134, 5538.694
388.6956, 5540.111
389.1777, 5541.339
389.6598, 5543.970
390.1419, 5547.961
390.6240, 5551.618
391.1061, 5554.201
391.5883, 5555.935
392.0704, 5557.036
392.5525, 5557.333
393.0346, 5557.475
393.5167, 5557.148
393.9988, 5556.857
394.4810, 5557.962
394.9631, 5561.497
395.4452, 5566.107
395.9273, 5571.283
396.4094, 5577.200
396.8915, 5582.875
397.3737, 5587.528
397.8558, 5591.955
398.3379, 5597.143
398.8200, 5604.318
399.3021, 5610.871
399.7842, 5615.634
400.2664, 5618.563
400.7485, 5623.297
401.2306, 5631.522
401.7127, 5639.703
402.1948, 5645.403
402.6769, 5647.048
403.1591, 5649.533
403.6412, 5653.504
404.1233, 5658.263
404.6054, 5662.095
405.0875, 5664.592
405.5696, 5667.321
406.0518, 5671.203
406.5339, 5676.339
407.0160, 5680.616
407.4981, 5683.942
407.9802, 5686.865
408.4623, 5689.905
408.9445, 5693.142
409.4266, 5696.709
409.9087, 5700.670
410.3908, 5705.110
410.8729, 5710.110
411.3550, 5715.746
411.8372, 5721.969
412.3193, 5728.466
412.8014, 5735.611
413.2835, 5744.744
413.7656, 5756.555
414.2477, 5768.366
414.7299, 5776.515
415.2120, 5782.222
415.6941, 5788.287
416.1762, 5795.869
416.6583, 5804.375
417.1404, 5813.614
417.6226, 5823.503
418.1047, 5832.736
418.5868, 5839.410
419.0689, 5845.542
419.5510, 5853.264
420.0331, 5864.311
420.5153, 5875.319
420.9974, 5885.187
421.4795, 5894.069
421.9616, 5901.903
422.4437, 5909.389
422.9258, 5915.508
423.4080, 5919.451
423.8901, 5920.410
424.3722, 5922.619
424.8543, 5928.534
425.3364, 5935.028
425.8185, 5938.888
426.3007, 5937.418
426.7828, 5937.456
427.2649, 5940.490
427.7470, 5945.986
428.2291, 5950.649
428.7112, 5954.331
429.1934, 5957.252
429.6755, 5958.977
430.1576, 5958.690
430.6397, 5961.244
431.1218, 5967.338
431.6039, 5975.236
432.0861, 5982.055
432.5682, 5987.634
433.0503, 5994.619
433.5324, 6004.565
434.0145, 6016.594
434.4966, 6027.799
434.9788, 6038.233
435.4609, 6047.925
435.9430, 6056.075
436.4251, 6063.631
436.9072, 6073.247
437.3893, 6085.876
437.8715, 6099.730
438.3536, 6112.241
438.8357, 6124.221
439.3178, 6137.932
439.7999, 6155.428
440.2820, 6174.594
440.7642, 6193.242
441.2463, 6211.334
441.7284, 6229.731
442.2105, 6249.218
442.6926, 6269.130
443.1747, 6288.843
443.6569, 6308.247
444.1390, 6327.278
444.6211, 6344.161
445.1032, 6360.407
445.5853, 6379.893
446.0674, 6407.007
446.5496, 6434.533
447.0317, 6459.791
447.5138, 6482.195
447.9959, 6504.703
448.4780, 6527.489
448.9601, 6550.687
449.4423, 6574.641
449.9244, 6598.423
450.4065, 6624.833
450.8886, 6655.210
451.3707, 6688.391
451.8528, 6720.574
452.3350, 6751.793
452.8171, 6782.226
453.2992, 6811.834
453.7813, 6840.618
454.2634, 6871.074
454.7455, 6903.288
455.2277, 6937.374
455.7098, 6975.124
456.1919, 7015.628
456.6740, 7055.635
457.1561, 7092.519
457.6382, 7128.647
458.1204, 7168.361
458.6025, 7211.280
459.0846, 7251.729
459.5667, 7285.226
460.0488, 7314.866
460.5309, 7345.104
461.0131, 7376.902
461.4952, 7407.638
461.9773, 7436.414
462.4594, 7462.353
462.9415, 7484.521
463.4236, 7503.068
463.9058, 7516.890
464.3879, 7525.309
464.8700, 7528.314
465.3521, 7527.504
465.8342, 7523.363
466.3163, 7515.344
466.7985, 7502.804
467.2806, 7482.959
467.7627, 7463.533
468.2448, 7443.994
468.7269, 7425.369
469.2090, 7408.945
469.6912, 7395.289
470.1733, 7382.394
470.6554, 7369.427
471.1375, 7356.627
471.6196, 7346.320
472.1017, 7338.377
472.5839, 7333.181
473.0660, 7332.255
473.5481, 7335.679
474.0302, 7335.958
474.5123, 7332.103
474.9944, 7326.352
475.4766, 7322.508
475.9587, 7320.132
476.4408, 7316.015
476.9229, 7309.603
477.4050, 7300.478
477.8871, 7288.014
478.3693, 7272.274
478.8514, 7253.275
479.3335, 7228.982
479.8156, 7202.219
480.2977, 7176.829
480.7798, 7154.192
481.2620, 7130.626
481.7441, 7103.733
482.2262, 7074.521
482.7083, 7044.509
483.1904, 7011.464
483.6725, 6979.997
484.1547, 6952.626
484.6368, 6929.139
485.1189, 6905.309
485.6010, 6879.149
486.0831, 6853.458
486.5652, 6829.737
487.0474, 6807.838
487.5295, 6787.959
488.0116, 6771.366
488.4937, 6756.071
488.9758, 6738.571
489.4579, 6717.186
489.9401, 6698.859
490.4222, 6686.185
490.9043, 6677.690
491.3864, 6665.139
491.8685, 6647.750
492.3506, 6631.380
492.8328, 6621.088
493.3149, 6615.541
493.7970, 6608.227
494.2791, 6598.466
494.7612, 6588.039
495.2433, 6578.261
495.7255, 6569.349
496.2076, 6561.763
496.6897, 6557.111
497.1718, 6552.561
497.6539, 6544.203
498.1360, 6533.337
498.6182, 6524.732
499.1003, 6522.955
499.5824, 6523.005
500.0645, 6521.237
500.5466, 6516.550
501.0287, 6512.864
501.5109, 6512.949
501.9930, 6513.761
502.4751, 6512.258
502.9572, 6504.529
503.4393, 6498.584
503.9214, 6495.898
504.4036, 6495.662
504.8857, 6495.064
505.3678, 6494.066
505.8499, 6492.778
506.3320, 6491.127
506.8141, 6489.088
507.2963, 6487.376
507.7784, 6485.726
508.2605, 6485.167
508.7426, 6487.800
509.2247, 6493.286
509.7068, 6496.260
510.1890, 6495.168
510.6711, 6492.126
511.1532, 6490.659
511.6353, 6490.387
512.1174, 6489.678
512.5995, 6485.913
513.0817, 6482.122
513.5638, 6483.103
514.0459, 6488.672
514.5280, 6493.231
515.0101, 6492.618
515.4922, 6489.700
515.9744, 6486.990
516.4565, 6484.485
516.9386, 6483.417
517.4207, 6485.742
517.9028, 6489.530
518.3849, 6491.575
518.8671, 6489.554
519.3492, 6487.690
519.8313, 6486.748
520.3134, 6486.695
520.7955, 6487.321
521.2776, 6489.218
521.7598, 6490.785
522.2419, 6490.686
522.7240, 6488.213
523.2061, 6487.825
523.6882, 6490.135
524.1703, 6493.300
524.6525, 6495.003
525.1346, 6495.337
525.6167, 6495.268
526.0988, 6495.056
526.5809, 6494.734
527.0630, 6494.647
527.5452, 6494.678
528.0273, 6493.902
528.5094, 6490.860
528.9915, 6487.228
529.4736, 6484.760
529.9557, 6483.569
530.4379, 6483.220
530.9200, 6483.832
531.4021, 6484.854
531.8842, 6485.663
532.3663, 6484.775
532.8484, 6485.373
533.3306, 6490.353
533.8127, 6497.122
534.2948, 6500.086
534.7769, 6494.110
535.2590, 6489.831
535.7411, 6490.862
536.2233, 6496.987
536.7054, 6498.575
537.1875, 6493.435
537.6696, 6488.231
538.1517, 6487.970
538.6339, 6493.236
539.1160, 6496.261
539.5981, 6496.192
540.0802, 6495.233
540.5623, 6496.612
541.0444, 6499.861
541.5266, 6502.326
542.0087, 6502.913
542.4908, 6502.517
542.9729, 6501.467
543.4550, 6500.218
543.9371, 6500.663
544.4193, 6504.626
544.9014, 6510.170
545.3835, 6515.923
545.8656, 6521.752
546.3477, 6527.352
546.8298, 6533.437
547.3120, 6538.787
547.7941, 6542.343
548.2762, 6542.667
548.7583, 6542.887
549.2404, 6543.231
549.7225, 6543.563
550.2047, 6543.655
550.6868, 6543.378
551.1689, 6543.116
551.6510, 6543.130
552.1331, 6543.312
552.6152, 6542.917
553.0974, 6542.079
553.5795, 6540.438
554.0616, 6536.810
554.5437, 6531.962
555.0258, 6530.315
555.5079, 6532.466
555.9901, 6535.977
556.4722, 6538.570
556.9543, 6540.671
557.4364, 6543.081
557.9185, 6546.052
558.4006, 6549.331
558.8828, 6552.321
559.3649, 6555.354
559.8470, 6559.343
560.3291, 6566.128
560.8112, 6572.307
561.2933, 6575.769
561.7755, 6576.310
562.2576, 6577.630
562.7397, 6581.140
563.2218, 6584.615
563.7039, 6587.076
564.1860, 6588.619
564.6682, 6588.761
565.1503, 6586.762
565.6324, 6584.485
566.1145, 6584.577
566.5966, 6587.400
567.0787, 6590.408
567.5609, 6593.356
568.0430, 6596.110
568.5251, 6598.222
569.0072, 6599.787
569.4893, 6600.959
569.9714, 6601.116
570.4536, 6601.283
570.9357, 6603.021
571.4178, 6606.264
571.8999, 6610.057
572.3820, 6613.910
572.8641, 6617.842
573.3463, 6621.642
573.8284, 6624.817
574.3105, 6628.994
574.7926, 6636.173
575.2747, 6643.981
575.7568, 6649.384
576.2390, 6649.964
576.7211, 6651.002
577.2032, 6653.191
577.6853, 6656.248
578.1674, 6659.090
578.6495, 6661.552
579.1317, 6664.376
579.6138, 6667.834
580.0959, 6671.952
580.5780, 6677.251
581.0601, 6683.997
581.5422, 6689.948
582.0244, 6692.112
582.5065, 6692.192
582.9886, 6694.468
583.4707, 6699.779
583.9528, 6706.153
584.4349, 6711.490
584.9171, 6716.845
585.3992, 6723.821
585.8813, 6736.235
586.3634, 6746.802
586.8455, 6750.506
587.3276, 6749.796
587.8098, 6751.302
588.2919, 6757.346
588.7740, 6764.634
589.2561, 6772.827
589.7382, 6781.942
590.2203, 6788.693
590.7025, 6792.204
591.1846, 6794.764
591.6667, 6797.212
592.1488, 6799.398
592.6309, 6804.804
593.1130, 6814.251
593.5952, 6824.622
594.0773, 6831.963
594.5594, 6837.039
595.0415, 6842.351
595.5236, 6848.302
596.0057, 6855.505
596.4879, 6865.642
596.9700, 6877.553
597.4521, 6888.365
597.9342, 6895.786
598.4163, 6902.614
598.8984, 6910.065
599.3806, 6918.218
599.8627, 6927.103
600.3448, 6937.165
600.8269, 6947.510
601.3090, 6957.777
601.7911, 6967.882
602.2733, 6978.239
602.7554, 6989.188
603.2375, 6999.852
603.7196, 7008.883
604.2017, 7016.109
604.6838, 7024.404
605.1660, 7034.211
605.6481, 7045.218
606.1302, 7057.563
606.6123, 7070.821
607.0944, 7082.732
607.5765, 7090.945
608.0587, 7099.006
608.5408, 7112.946
609.0229, 7130.739
609.5050, 7145.711
609.9871, 7151.207
610.4692, 7155.116
610.9514, 7162.642
611.4335, 7174.423
611.9156, 7184.325
612.3977, 7188.425
612.8798, 7192.286
613.3619, 7199.382
613.8441, 7212.524
614.3262, 7222.107
614.8083, 7226.558
615.2904, 7229.785
615.7725, 7237.319
616.2546, 7249.581
616.7368, 7259.681
617.2189, 7265.868
617.7010, 7270.375
618.1831, 7278.031
618.6652, 7287.784
619.1473, 7295.352
619.6295, 7296.883
620.1116, 7296.343
620.5937, 7297.490
621.0758, 7300.073
621.5579, 7302.881
622.0400, 7305.149
622.5222, 7307.501
623.0043, 7309.521
623.4864, 7310.403
623.9685, 7315.465
624.4506, 7330.001
624.9327, 7344.818
625.4149, 7353.570
625.8970, 7353.701
626.3791, 7355.087
626.8612, 7358.029
627.3433, 7362.314
627.8254, 7368.174
628.3076, 7375.510
628.7897, 7382.308
629.2718, 7388.313
629.7539, 7393.183
630.2360, 7394.866
630.7181, 7394.666
631.2003, 7396.672
631.6824, 7405.674
632.1645, 7415.610
632.6466, 7421.409
633.1287, 7423.651
633.6108, 7426.212
634.0930, 7430.169
634.5751, 7435.069
635.0572, 7440.862
635.5393, 7447.795
636.0214, 7454.255
636.5035, 7459.950
636.9857, 7465.476
637.4678, 7471.511
637.9499, 7478.297
638.4320, 7483.399
638.9141, 7486.430
639.3962, 7488.198
639.8784, 7489.378
640.3605, 7490.114
640.8426, 7491.228
641.3247, 7493.480
641.8068, 7495.282
642.2889, 7494.828
642.7711, 7492.665
643.2532, 7489.975
643.7353, 7486.694
644.2174, 7483.667
644.6995, 7481.838
645.1816, 7480.899
645.6638, 7478.695
646.1459, 7473.878
646.6280, 7468.789
647.1101, 7464.460
647.5922, 7461.060
648.0743, 7454.917
648.5565, 7444.784
649.0386, 7434.980
649.5207, 7429.214
650.0028, 7427.030
650.4849, 7425.447
650.9670, 7424.373
651.4492, 7422.786
651.9313, 7419.213
652.4134, 7414.412
652.8955, 7410.181
653.3776, 7407.841
653.8597, 7404.107
654.3419, 7394.976
654.8240, 7383.657
655.3061, 7375.203
655.7882, 7373.021
656.2703, 7371.742
656.7524, 7370.896
657.2346, 7370.272
657.7167, 7368.924
658.1988, 7366.343
658.6809, 7364.399
659.1630, 7363.547
659.6451, 7363.825
660.1273, 7365.245
660.6094, 7367.724
661.0915, 7372.204
661.5736, 7379.854
662.0557, 7389.678
662.5378, 7400.260
663.0200, 7411.438
663.5021, 7421.938
663.9842, 7430.938
664.4663, 7438.755
664.9484, 7444.961
665.4305, 7447.899
665.9127, 7454.125
666.3948, 7468.243
666.8769, 7484.937
667.3590, 7498.735
667.8411, 7507.596
668.3232, 7518.015
668.8054, 7531.443
669.2875, 7545.502
669.7696, 7554.943
670.2517, 7559.627
670.7338, 7566.355
671.2159, 7577.443
671.6981, 7590.979
672.1802, 7604.614
672.6623, 7617.924
673.1444, 7629.957
673.6265, 7640.518
674.1086, 7649.207
674.5908, 7654.801
675.0729, 7657.806
675.5550, 7661.603
676.0371, 7671.211
676.5192, 7678.331
677.0013, 7678.544
677.4835, 7671.164
677.9656, 7665.296
678.4477, 7661.312
678.9298, 7658.115
679.4119, 7655.199
679.8940, 7652.494
680.3762, 7650.188
680.8583, 7648.774
681.3404, 7643.977
681.8225, 7628.329
682.3046, 7606.443
682.7867, 7587.755
683.2689, 7574.959
683.7510, 7563.524
684.2331, 7550.772
684.7152, 7537.528
685.1973, 7525.155
685.6794, 7515.322
686.1616, 7504.729
686.6437, 7491.936
687.1258, 7478.255
687.6079, 7466.016
688.0900, 7455.157
688.5721, 7446.433
689.0543, 7440.849
689.5364, 7437.028
690.0185, 7430.553
690.5006, 7421.477
690.9827, 7412.443
691.4648, 7404.930
691.9470, 7398.040
692.4291, 7389.731
692.9112, 7380.382
693.3933, 7372.185
693.8754, 7367.047
694.3575, 7362.888
694.8397, 7358.322
695.3218, 7353.202
695.8039, 7348.951
696.2860, 7346.634
696.7681, 7344.587
697.2502, 7342.116
697.7324, 7339.376
698.2145, 7335.452
698.6966, 7329.615
699.1787, 7324.767
699.6608, 7324.708
700.1429, 7328.379
700.6251, 7330.412
701.1072, 7329.864
701.5893, 7328.671
702.0714, 7328.717
702.5535, 7329.264
703.0356, 7329.069
703.5178, 7326.314
703.9999, 7325.159
704.4820, 7329.477
704.9641, 7335.653
705.4462, 7337.881
705.9283, 7331.349
706.4105, 7328.361
706.8926, 7332.118
707.3747, 7339.377
707.8568, 7342.255
708.3389, 7340.538
708.8210, 7338.004
709.3032, 7335.407
709.7853, 7333.367
710.2674, 7333.909
710.7495, 7336.397
711.2316, 7338.070
711.7137, 7335.573
712.1959, 7333.210
712.6780, 7334.786
713.1601, 7339.781
713.6422, 7343.869
714.1243, 7343.739
714.6064, 7344.556
715.0886, 7349.211
715.5707, 7357.939
716.0528, 7363.344
716.5349, 7365.181
717.0170, 7364.514
717.4991, 7360.672
717.9813, 7354.385
718.4634, 7351.005
718.9455, 7350.703
719.4276, 7352.865
719.9097, 7359.340
720.3918, 7366.938
720.8740, 7370.649
721.3561, 7369.058
721.8382, 7368.015
722.3203, 7370.829
722.8024, 7375.019
723.2845, 7378.393
723.7667, 7380.091
724.2488, 7381.942
724.7309, 7383.870
725.2130, 7385.953
725.6951, 7387.905
726.1772, 7389.567
726.6594, 7394.276
727.1415, 7403.877
727.6236, 7412.676
728.1057, 7410.813
728.5878, 7401.865
729.0699, 7395.099
729.5521, 7394.180
730.0342, 7395.409
730.5163, 7397.974
730.9984, 7400.711
731.4805, 7401.528
731.9626, 7396.178
732.4448, 7393.529
732.9269, 7396.718
733.4090, 7403.270
733.8911, 7406.261
734.3732, 7405.028
734.8553, 7402.616
735.3375, 7398.737
735.8196, 7395.298
736.3017, 7398.776
736.7838, 7408.053
737.2659, 7416.299
737.7480, 7418.751
738.2302, 7419.204
738.7123, 7421.124
739.1944, 7424.230
739.6765, 7426.927
740.1586, 7427.287
740.6407, 7428.359
741.1229, 7432.620
741.6050, 7439.821
742.0871, 7442.815
742.5692, 7440.003
743.0513, 7436.839
743.5334, 7435.820
744.0156, 7436.912
744.4977, 7440.389
744.9798, 7446.274
745.4619, 7451.709
745.9440, 7452.759
746.4261, 7452.896
746.9083, 7457.639
747.3904, 7467.532
747.8725, 7475.218
748.3546, 7474.714
748.8367, 7472.464
749.3188, 7472.522
749.8010, 7475.244
750.2831, 7480.282
750.7652, 7490.743
751.2473, 7498.556
751.7294, 7494.866
752.2115, 7479.932
752.6937, 7472.241
753.1758, 7473.501
753.6579, 7477.949
754.1400, 7481.409
754.6221, 7483.610
755.1042, 7483.853
755.5864, 7481.711
756.0685, 7479.266
756.5506, 7477.657
757.0327, 7476.409
757.5148, 7475.083
757.9969, 7472.579
758.4791, 7471.726
758.9612, 7472.981
759.4433, 7475.306
759.9254, 7477.595
760.4075, 7479.814
760.8896, 7481.482
761.3718, 7482.444
761.8539, 7482.784
762.3360, 7481.289
762.8181, 7479.393
763.3002, 7480.451
763.7823, 7487.271
764.2645, 7493.951
764.7466, 7497.482
765.2287, 7498.792
765.7108, 7499.340
766.1929, 7498.147
766.6750, 7498.104
767.1572, 7500.072
767.6393, 7502.948
768.1214, 7504.551
768.6035, 7504.792
769.0856, 7505.181
769.5677, 7505.986
770.0499, 7507.235
770.5320, 7509.107
771.0141, 7511.405
771.4962, 7513.714
771.9783, 7516.083
772.4604, 7518.064
772.9426, 7519.822
773.4247, 7520.950
773.9068, 7520.425
774.3889, 7515.993
774.8710, 7512.993
775.3531, 7512.570
775.8353, 7514.115
776.3174, 7516.145
776.7995, 7518.743
777.2816, 7521.044
777.7637, 7522.650
778.2458, 7524.008
778.7280, 7526.528
779.2101, 7529.576
779.6922, 7530.975
780.1743, 7526.479
780.6564, 7523.258
781.1385, 7525.903
781.6207, 7533.186
782.1028, 7539.377
782.5849, 7543.538
783.0670, 7547.382
783.5491, 7551.322
784.0313, 7555.170
784.5134, 7558.641
784.9955, 7561.706
785.4776, 7563.340
785.9597, 7562.114
786.4418, 7559.778
786.9240, 7559.383
787.4061, 7560.378
787.8882, 7560.828
788.3703, 7557.732
788.8524, 7555.808
789.3345, 7559.097
789.8167, 7566.616
790.2988, 7569.583
790.7809, 7564.821
791.2630, 7561.375
791.7451, 7562.486
792.2272, 7567.385
792.7094, 7574.232
793.1915, 7582.791
793.6736, 7587.630
794.1557, 7581.716
794.6378, 7572.698
795.1199, 7570.620
795.6021, 7574.368
796.0842, 7578.453
796.5663, 7580.734
797.0484, 7582.563
797.5305, 7584.024
798.0126, 7585.285
798.4948, 7588.265
798.9769, 7594.241
799.4590, 7598.686
799.9411, 7598.857
800.4232, 7596.267
800.9053, 7597.321
801.3875, 7601.633
801.8696, 7605.132
802.3517, 7602.489
802.8338, 7599.979
803.3159, 7605.178
803.7980, 7616.798
804.2802, 7626.595
804.7623, 7630.992
805.2444, 7633.830
805.7265, 7635.342
806.2086, 7635.955
806.6907, 7640.710
807.1729, 7650.686
807.6550, 7659.798
808.1371, 7665.476
808.6192, 7668.081
809.1013, 7668.025
809.5834, 7665.620
810.0656, 7662.542
810.5477, 7657.927
811.0298, 7654.721
811.5119, 7655.778
811.9940, 7660.657
812.4761, 7665.009
812.9583, 7667.900
813.4404, 7670.784
813.9225, 7674.049
814.4046, 7677.741
814.8867, 7682.413
815.3688, 7688.122
815.8510, 7693.080
816.3331, 7695.792
816.8152, 7697.384
817.2973, 7699.495
817.7794, 7701.998
818.2615, 7704.630
818.7437, 7704.447
819.2258, 7706.884
819.7079, 7717.193
820.1900, 7733.580
820.6721, 7742.843
821.1542, 7742.227
821.6364, 7740.423
822.1185, 7739.969
822.6006, 7740.576
823.0827, 7741.523
823.5648, 7742.782
824.0469, 7743.795
824.5291, 7742.820
825.0112, 7742.798
825.4933, 7748.611
825.9754, 7758.094
826.4575, 7764.250
826.9396, 7760.804
827.4218, 7758.525
827.9039, 7760.113
828.3860, 7764.992
828.8681, 7771.646
829.3502, 7780.554
829.8323, 7788.505
830.3145, 7793.737
830.7966, 7798.155
831.2787, 7807.086
831.7608, 7818.542
832.2429, 7826.164
832.7250, 7820.337
833.2072, 7816.712
833.6893, 7826.722
834.1714, 7845.224
834.6535, 7858.302
835.1356, 7862.472
835.6177, 7865.955
836.0999, 7869.384
836.5820, 7873.779
837.0641, 7881.923
837.5462, 7893.557
838.0283, 7905.781
838.5104, 7918.055
838.9926, 7929.774
839.4747, 7939.835
839.9568, 7948.870
840.4389, 7958.145
840.9210, 7968.049
841.4031, 7978.078
841.8853, 7987.819
842.3674, 7997.562
842.8495, 8007.973
843.3316, 8019.437
843.8137, 8029.273
844.2958, 8036.971
844.7780, 8043.010
845.2601, 8047.649
845.7422, 8051.202
846.2243, 8054.778
846.7064, 8059.381
847.1885, 8062.256
847.6707, 8060.005
848.1528, 8056.053
848.6349, 8054.523
849.1170, 8057.984
849.5991, 8060.245
850.0812, 8061.330
850.5634, 8061.343
851.0455, 8060.403
851.5276, 8058.593
852.0097, 8056.084
852.4918, 8053.012
852.9739, 8048.716
853.4561, 8041.156
853.9382, 8032.782
854.4203, 8026.538
854.9024, 8023.599
855.3845, 8020.331
855.8666, 8016.067
856.3488, 8010.883
856.8309, 8004.356
857.3130, 7995.815
857.7951, 7989.690
858.2772, 7986.120
858.7593, 7983.470
859.2415, 7981.413
859.7236, 7978.841
860.2057, 7973.581
860.6878, 7965.479
861.1699, 7956.709
861.6520, 7948.709
862.1342, 7940.067
862.6163, 7929.272
863.0984, 7916.367
863.5805, 7905.563
864.0626, 7897.756
864.5447, 7890.129
865.0269, 7881.047
865.5090, 7871.047
865.9911, 7861.904
866.4732, 7853.693
866.9553, 7846.115
867.4374, 7839.015
867.9196, 7832.548
868.4017, 7826.597
868.8838, 7821.262
869.3659, 7817.766
869.8480, 7817.296
870.3301, 7816.380
870.8123, 7813.624
871.2944, 7809.646
871.7765, 7806.987
872.2586, 7805.436
872.7407, 7803.247
873.2228, 7799.216
873.7050, 7794.638
874.1871, 7791.107
874.6692, 7788.088
875.1513, 7784.353
875.6334, 7778.869
876.1155, 7773.731
876.5977, 7769.702
877.0798, 7766.145
877.5619, 7761.385
878.0440, 7755.249
878.5261, 7751.387
879.0082, 7750.947
879.4904, 7751.843
879.9725, 7752.866
880.4546, 7752.850
880.9367, 7749.058
881.4188, 7737.435
881.9009, 7729.212
882.3831, 7732.440
882.8652, 7738.376
883.3473, 7737.863
883.8294, 7728.616
884.3115, 7721.925
884.7936, 7718.408
885.2758, 7716.842
885.7579, 7716.521
886.2400, 7717.186
886.7221, 7717.731
887.2042, 7717.964
887.6863, 7720.319
888.1685, 7731.169
888.6506, 7740.828
889.1327, 7740.244
889.6148, 7726.836
890.0969, 7721.631
890.5790, 7727.001
891.0612, 7733.889
891.5433, 7736.607
892.0254, 7736.299
892.5075, 7737.341
892.9896, 7739.545
893.4717, 7742.056
893.9539, 7745.819
894.4360, 7748.393
894.9181, 7747.954
895.4002, 7744.791
895.8823, 7740.834
896.3644, 7735.380
896.8466, 7731.197
897.3287, 7729.371
897.8108, 7729.253
898.2929, 7728.814
898.7750, 7728.330
899.2571, 7729.131
899.7393, 7733.015
900.2214, 7736.506
900.7035, 7735.706
901.1856, 7732.669
901.6677, 7730.857
902.1498, 7732.556
902.6320, 7732.984
903.1141, 7730.951
903.5962, 7728.345
904.0783, 7728.686
904.5604, 7731.500
905.0425, 7730.250
905.5247, 7723.298
906.0068, 7716.559
906.4889, 7715.562
906.9710, 7718.005
907.4531, 7721.861
907.9352, 7727.669
908.4174, 7731.961
908.8995, 7735.174
909.3816, 7735.925
909.8637, 7732.265
910.3458, 7724.185
910.8279, 7719.931
911.3101, 7719.523
911.7922, 7720.393
912.2743, 7720.969
912.7564, 7721.536
913.2385, 7722.632
913.7206, 7724.086
914.2028, 7724.865
914.6849, 7723.677
915.1670, 7722.890
915.6491, 7723.343
916.1312, 7724.788
916.6133, 7726.883
917.0955, 7729.750
917.5776, 7729.786
918.0597, 7723.872
918.5418, 7717.399
919.0239, 7717.726
919.5060, 7722.352
919.9882, 7726.375
920.4703, 7727.955
920.9524, 7728.922
921.4345, 7728.228
921.9166, 7727.924
922.3987, 7731.328
922.8809, 7738.713
923.3630, 7743.522
923.8451, 7744.787
924.3272, 7744.404
924.8093, 7743.940
925.2914, 7743.288
925.7736, 7741.912
926.2557, 7739.398
926.7378, 7738.843
927.2199, 7744.592
927.7020, 7749.439
928.1841, 7749.189
928.6663, 7743.912
929.1484, 7741.072
929.6305, 7740.751
930.1126, 7741.319
930.5947, 7741.321
931.0768, 7741.865
931.5590, 7745.203
932.0411, 7750.549
932.5232, 7754.484
933.0053, 7756.597
933.4874, 7756.042
933.9695, 7751.363
934.4517, 7744.679
934.9338, 7741.124
935.4159, 7740.802
935.8980, 7741.506
936.3801, 7742.657
936.8622, 7744.783
937.3444, 7749.425
937.8265, 7755.139
938.3086, 7759.931
938.7907, 7763.778
939.2728, 7765.359
939.7549, 7761.528
940.2371, 7758.213
940.7192, 7760.841
941.2013, 7769.567
941.6834, 7777.104
942.1655, 7783.139
942.6476, 7787.905
943.1298, 7790.058
943.6119, 7791.879
944.0940, 7796.264
944.5761, 7803.288
945.0582, 7809.671
945.5403, 7816.023
946.0225, 7819.753
946.5046, 7818.988
946.9867, 7815.237
947.4688, 7814.813
947.9509, 7817.559
948.4330, 7820.733
948.9152, 7823.446
949.3973, 7825.718
949.8794, 7826.063
950.3615, 7826.310
950.8436, 7829.725
951.3257, 7841.644
951.8079, 7850.225
952.2900, 7854.128
952.7721, 7855.519
953.2542, 7856.396
953.7363, 7856.930
954.2184, 7858.431
954.7006, 7861.128
955.1827, 7864.216
955.6648, 7867.412
956.1469, 7870.577
956.6290, 7873.579
957.1111, 7876.461
957.5933, 7879.147
958.0754, 7880.925
958.5575, 7884.078
959.0396, 7890.350
959.5217, 7898.546
960.0038, 7903.966
960.4860, 7907.267
960.9681, 7911.896
961.4502, 7921.296
961.9323, 7930.805
962.4144, 7937.112
962.8965, 7941.522
963.3787, 7947.109
963.8608, 7955.518
964.3429, 7960.928
964.8250, 7962.257
965.3071, 7961.296
965.7892, 7957.615
966.2714, 7953.962
966.7535, 7959.361
967.2356, 7976.951
967.7177, 7990.867
968.1998, 7988.625
968.6819, 7982.346
969.1641, 7980.138
969.6462, 7982.267
970.1283, 7986.897
970.6104, 7994.498
971.0925, 8002.200
971.5746, 8007.537
972.0568, 8012.386
972.5389, 8021.311
973.0210, 8032.924
973.5031, 8042.440
973.9852, 8044.079
974.4673, 8047.925
974.9495, 8057.722
975.4316, 8070.990
975.9137, 8083.441
976.3958, 8094.974
976.8779, 8107.952
977.3600, 8122.937
977.8422, 8139.009
978.3243, 8155.858
978.8064, 8173.194
979.2885, 8190.721
979.7706, 8208.814
980.2527, 8224.849
980.7349, 8234.443
981.2170, 8247.306
981.6991, 8268.809
982.1812, 8298.013
982.6633, 8327.729
983.1454, 8357.994
983.6276, 8390.179
984.1097, 8423.216
984.5918, 8460.154
985.0739, 8502.601
985.5560, 8550.440
986.0381, 8603.158
986.5203, 8658.072
987.0024, 8721.670
987.4845, 8793.255
987.9666, 8876.872
988.4487, 8975.350
988.9308, 9090.521
989.4130, 9231.354
989.8951, 9400.248
990.3772, 9587.868
990.8593, 9797.137
991.3414, 10016.73
991.8235, 10241.22
992.3057, 10472.36
992.7878, 10694.37
993.2699, 10907.79
993.7520, 11120.71
994.2341, 11328.14
994.7162, 11545.64
995.1984, 11786.40
995.6805, 12057.97
996.1626, 12373.88
996.6447, 12727.81
997.1268, 13148.36
997.6089, 13647.17
998.0911, 14211.12
998.5732, 14825.07
999.0553, 15490.90
999.5374, 16181.72
1000.020, 16886.69
1000.502, 17578.66
1000.984, 18337.19
1001.466, 18986.58
1001.948, 19406.90
1002.430, 19588.91
1002.912, 19273.93
1003.394, 18331.40
1003.876, 17157.89
1004.359, 15833.92
1004.841, 14447.03
1005.323, 13274.64
1005.805, 12301.65
1006.287, 11513.56
1006.769, 10932.35
1007.251, 10478.57
1007.733, 10142.83
1008.216, 9903.675
1008.698, 9731.459
1009.180, 9631.875
1009.662, 9571.654
1010.144, 9550.306
1010.626, 9562.041
1011.108, 9606.400
1011.590, 9677.650
1012.072, 9768.980
1012.555, 9880.090
1013.037, 10005.32
1013.519, 10150.20
1014.001, 10300.23
1014.483, 10450.83
1014.965, 10604.59
1015.447, 10767.07
1015.929, 10939.26
1016.411, 11124.61
1016.894, 11319.90
1017.376, 11537.89
1017.858, 11778.59
1018.340, 12052.41
1018.822, 12369.62
1019.304, 12732.90
1019.786, 13143.50
1020.268, 13607.78
1020.751, 14102.83
1021.233, 14621.75
1021.715, 15157.75
1022.197, 15707.12
1022.679, 16259.04
1023.161, 16740.02
1023.643, 17207.42
1024.125, 17489.93
1024.607, 17530.22
1025.090, 17338.43
1025.572, 16879.21
1026.054, 16133.49
1026.536, 15304.86
1027.018, 14402.02
1027.500, 13518.78
1027.982, 12726.16
1028.464, 12025.49
1028.947, 11419.22
1029.429, 10917.54
1029.911, 10497.08
1030.393, 10162.24
1030.875, 9878.880
1031.357, 9636.845
1031.839, 9433.146
1032.321, 9265.135
1032.803, 9131.379
1033.286, 9018.881
1033.768, 8932.353
1034.250, 8855.290
1034.732, 8779.558
1035.214, 8708.870
1035.696, 8648.997
1036.178, 8600.133
1036.660, 8558.649
1037.143, 8524.263
1037.625, 8493.522
1038.107, 8461.180
1038.589, 8430.528
1039.071, 8407.105
1039.553, 8390.593
1040.035, 8373.916
1040.517, 8353.369
1041.000, 8335.861
1041.482, 8324.317
1041.964, 8316.507
1042.446, 8308.487
1042.928, 8299.999
1043.410, 8289.313
1043.892, 8274.173
1044.374, 8262.281
1044.856, 8261.446
1045.339, 8264.259
1045.821, 8263.715
1046.303, 8258.933
1046.785, 8256.816
1047.267, 8257.453
1047.749, 8260.114
1048.231, 8264.021
1048.713, 8269.810
1049.195, 8279.154
1049.677, 8291.065
1050.160, 8302.545
1050.642, 8310.190
1051.124, 8320.881
1051.606, 8335.330
1052.088, 8353.019
1052.570, 8373.863
1053.052, 8397.329
1053.534, 8419.392
1054.017, 8439.410
1054.499, 8463.432
1054.981, 8496.623
1055.463, 8533.890
1055.945, 8570.726
1056.427, 8608.253
1056.909, 8653.746
1057.391, 8707.408
1057.874, 8767.795
1058.356, 8835.179
1058.838, 8907.683
1059.320, 8983.316
1059.802, 9062.219
1060.284, 9146.761
1060.766, 9237.934
1061.248, 9334.495
1061.730, 9437.014
1062.213, 9543.285
1062.695, 9651.108
1063.177, 9761.462
1063.659, 9876.357
1064.141, 9997.530
1064.623, 10131.54
1065.105, 10282.89
1065.587, 10446.22
1066.070, 10623.40
1066.552, 10811.50
1067.034, 11006.64
1067.516, 11208.06
1067.998, 11419.22
1068.480, 11641.49
1068.962, 11844.08
1069.444, 12018.19
1069.927, 12144.59
1070.409, 12213.04
1070.891, 12217.19
1071.373, 12144.11
1071.855, 11987.68
1072.337, 11771.49
1072.819, 11489.14
1073.301, 11170.52
1073.783, 10844.67
1074.266, 10523.33
1074.748, 10227.66
1075.230, 9962.442
1075.712, 9727.140
1076.194, 9522.817
1076.676, 9344.271
1077.158, 9188.157
1077.640, 9054.688
1078.122, 8941.079
1078.604, 8846.572
1079.087, 8764.873
1079.569, 8696.163
1080.051, 8635.167
1080.533, 8579.668
1081.015, 8530.887
1081.497, 8489.174
1081.979, 8455.827
1082.461, 8426.479
1082.944, 8401.195
1083.426, 8377.873
1083.908, 8353.764
1084.390, 8331.396
1084.872, 8314.730
1085.354, 8303.464
1085.836, 8292.021
1086.318, 8277.931
1086.801, 8266.496
1087.283, 8259.858
1087.765, 8255.177
1088.247, 8246.735
1088.729, 8236.029
1089.211, 8226.675
1089.693, 8219.045
1090.175, 8214.446
1090.657, 8216.669
1091.140, 8218.802
1091.622, 8216.503
1092.104, 8210.565
1092.586, 8208.355
1093.068, 8209.467
1093.550, 8209.149
1094.032, 8203.545
1094.514, 8198.393
1094.997, 8198.198
1095.479, 8200.858
1095.961, 8203.518
1096.443, 8205.910
1096.925, 8208.597
1097.407, 8211.515
1097.889, 8215.265
1098.371, 8220.427
1098.854, 8226.544
1099.336, 8234.082
1099.818, 8242.202
1100.300, 8247.695
1100.782, 8248.313
1101.264, 8248.544
1101.746, 8248.114
1102.228, 8249.092
1102.710, 8256.589
1103.193, 8267.252
1103.675, 8271.493
1104.157, 8268.237
1104.639, 8267.872
1105.121, 8278.566
1105.603, 8288.961
1106.085, 8293.767
1106.567, 8295.701
1107.049, 8304.003
1107.531, 8317.776
1108.014, 8329.303
1108.496, 8336.574
1108.978, 8341.278
1109.460, 8341.270
1109.942, 8341.583
1110.424, 8347.488
1110.906, 8359.287
1111.388, 8367.077
1111.871, 8370.693
1112.353, 8372.348
1112.835, 8372.715
1113.317, 8372.314
1113.799, 8371.362
1114.281, 8370.236
1114.763, 8369.588
1115.245, 8370.604
1115.728, 8369.955
1116.210, 8367.200
1116.692, 8364.696
1117.174, 8365.229
1117.656, 8367.013
1118.138, 8366.198
1118.620, 8363.448
1119.102, 8361.869
1119.584, 8365.623
1120.067, 8365.437
1120.549, 8357.700
1121.031, 8348.598
1121.513, 8349.376
1121.995, 8355.656
1122.477, 8350.765
1122.959, 8333.292
1123.441, 8317.188
1123.924, 8310.388
1124.406, 8306.067
1124.888, 8301.565
1125.370, 8297.093
1125.852, 8293.940
1126.334, 8291.877
1126.816, 8286.812
1127.298, 8277.115
1127.781, 8268.589
1128.263, 8266.427
1128.745, 8266.753
1129.227, 8267.161
1129.709, 8267.486
1130.191, 8264.213
1130.673, 8256.905
1131.155, 8252.528
1131.637, 8254.420
1132.120, 8259.303
1132.602, 8264.479
1133.084, 8270.052
1133.566, 8276.280
1134.048, 8283.982
1134.530, 8288.660
1135.012, 8289.024
1135.494, 8291.373
1135.976, 8301.730
1136.458, 8315.413
1136.941, 8325.297
1137.423, 8332.305
1137.905, 8338.639
1138.387, 8343.463
1138.869, 8350.213
1139.351, 8359.650
1139.833, 8369.577
1140.315, 8377.608
1140.798, 8384.416
1141.280, 8391.257
1141.762, 8398.317
1142.244, 8406.032
1142.726, 8417.110
1143.208, 8425.238
1143.690, 8427.792
1144.172, 8428.528
1144.655, 8433.922
1145.137, 8442.649
1145.619, 8450.153
1146.101, 8455.917
1146.583, 8459.032
1147.065, 8457.161
1147.547, 8454.767
1148.029, 8454.434
1148.511, 8455.053
1148.994, 8453.105
1149.476, 8448.849
1149.958, 8443.744
1150.440, 8437.395
1150.922, 8433.697
1151.404, 8439.142
1151.886, 8445.026
1152.368, 8444.218
1152.851, 8437.325
1153.333, 8431.294
1153.815, 8426.026
1154.297, 8418.683
1154.779, 8407.051
1155.261, 8395.259
1155.743, 8387.662
1156.225, 8381.869
1156.708, 8375.292
1157.190, 8367.732
1157.672, 8360.081
1158.154, 8352.525
1158.636, 8343.612
1159.118, 8331.552
1159.600, 8319.213
1160.082, 8309.501
1160.564, 8302.068
1161.047, 8296.449
1161.529, 8293.888
1162.011, 8290.144
1162.493, 8284.934
1162.975, 8280.003
1163.457, 8277.538
1163.939, 8275.553
1164.421, 8270.354
1164.903, 8263.174
1165.385, 8258.003
1165.868, 8258.102
1166.350, 8254.826
1166.832, 8245.939
1167.314, 8237.700
1167.796, 8238.996
1168.278, 8244.382
1168.760, 8243.064
1169.242, 8235.857
1169.725, 8231.872
1170.207, 8237.867
1170.689, 8241.487
1171.171, 8240.587
1171.653, 8237.369
1172.135, 8233.546
1172.617, 8230.195
1173.099, 8230.653
1173.582, 8235.166
1174.064, 8237.646
1174.546, 8232.076
1175.028, 8229.277
1175.510, 8233.056
1175.992, 8239.699
1176.474, 8241.641
1176.956, 8240.229
1177.438, 8239.736
1177.921, 8241.252
1178.403, 8240.935
1178.885, 8234.365
1179.367, 8229.016
1179.849, 8228.188
1180.331, 8230.521
1180.813, 8232.865
1181.295, 8234.788
1181.778, 8234.019
1182.260, 8228.824
1182.742, 8225.108
1183.224, 8225.504
1183.706, 8228.403
1184.188, 8233.582
1184.670, 8240.366
1185.152, 8244.440
1185.635, 8246.353
1186.117, 8249.513
1186.599, 8256.562
1187.081, 8262.051
1187.563, 8263.034
1188.045, 8261.339
1188.527, 8257.200
1189.009, 8251.183
1189.491, 8251.015
1189.974, 8256.010
1190.456, 8261.015
1190.938, 8262.283
1191.420, 8264.580
1191.902, 8272.873
1192.384, 8281.452
1192.866, 8284.181
1193.348, 8280.901
1193.830, 8279.895
1194.313, 8281.021
1194.795, 8282.472
1195.277, 8283.724
1195.759, 8284.309
1196.241, 8283.735
1196.723, 8282.442
1197.205, 8280.915
1197.687, 8279.180
1198.169, 8277.603
1198.652, 8276.276
1199.134, 8275.512
1199.616, 8276.718
1200.098, 8277.422
1200.580, 8275.793
1201.062, 8272.905
1201.544, 8270.178
1202.026, 8267.595
1202.509, 8266.375
1202.991, 8266.618
1203.473, 8268.418
1203.955, 8272.887
1204.437, 8277.762
1204.919, 8281.601
1205.401, 8284.634
1205.883, 8287.790
1206.365, 8291.052
1206.848, 8291.476
1207.330, 8288.480
1207.812, 8285.181
1208.294, 8283.502
1208.776, 8282.752
1209.258, 8282.863
1209.740, 8283.517
1210.222, 8283.839
1210.705, 8283.889
1211.187, 8285.157
1211.669, 8288.241
1212.151, 8290.399
1212.633, 8288.579
1213.115, 8285.906
1213.597, 8284.423
1214.079, 8284.155
1214.562, 8285.094
1215.044, 8287.253
1215.526, 8290.504
1216.008, 8295.173
1216.490, 8298.920
1216.972, 8298.069
1217.454, 8297.050
1217.936, 8299.466
1218.418, 8304.529
1218.901, 8308.515
1219.383, 8311.426
1219.865, 8315.152
1220.347, 8320.601
1220.829, 8325.151
1221.311, 8327.471
1221.793, 8327.389
1222.275, 8324.014
1222.757, 8318.168
1223.240, 8315.877
1223.722, 8316.883
1224.204, 8316.701
1224.686, 8313.262
1225.168, 8310.439
1225.650, 8312.320
1226.132, 8314.738
1226.614, 8314.341
1227.096, 8311.569
1227.579, 8309.493
1228.061, 8308.192
1228.543, 8308.325
1229.025, 8310.274
1229.507, 8313.218
1229.989, 8317.015
1230.471, 8321.226
1230.953, 8325.769
1231.436, 8330.365
1231.918, 8332.227
1232.400, 8331.780
1232.882, 8332.461
1233.364, 8337.177
1233.846, 8340.469
1234.328, 8337.466
1234.810, 8334.163
1235.292, 8335.335
1235.775, 8340.333
1236.257, 8343.595
1236.739, 8345.443
1237.221, 8347.404
1237.703, 8349.458
1238.185, 8352.971
1238.667, 8361.020
1239.149, 8368.067
1239.632, 8368.971
1240.114, 8365.169
1240.596, 8366.167
1241.078, 8370.749
1241.560, 8373.878
1242.042, 8371.495
1242.524, 8369.825
1243.006, 8369.839
1243.489, 8371.611
1243.971, 8376.501
1244.453, 8383.187
1244.935, 8385.319
1245.417, 8384.071
1245.899, 8383.772
1246.381, 8385.962
1246.863, 8390.090
1247.345, 8397.285
1247.828, 8403.854
1248.310, 8405.908
1248.792, 8405.115
1249.274, 8405.557
1249.756, 8407.137
1250.238, 8409.212
1250.720, 8413.246
1251.202, 8414.860
1251.684, 8412.765
1252.167, 8410.562
1252.649, 8411.165
1253.131, 8413.847
1253.613, 8417.951
1254.095, 8422.861
1254.577, 8426.860
1255.059, 8429.827
1255.541, 8430.494
1256.023, 8427.853
1256.506, 8425.910
1256.988, 8429.699
1257.470, 8435.383
1257.952, 8437.705
1258.434, 8437.400
1258.916, 8436.847
1259.398, 8436.952
1259.880, 8435.031
1260.363, 8430.386
1260.845, 8427.541
1261.327, 8432.660
1261.809, 8439.564
1262.291, 8442.951
1262.773, 8442.654
1263.255, 8438.330
1263.737, 8428.210
1264.219, 8423.213
1264.702, 8424.239
1265.184, 8427.163
1265.666, 8429.753
1266.148, 8432.043
1266.630, 8433.427
1267.112, 8434.858
1267.594, 8438.729
1268.076, 8445.476
1268.559, 8448.277
1269.041, 8446.749
1269.523, 8445.067
1270.005, 8446.787
1270.487, 8448.446
1270.969, 8446.939
1271.451, 8444.730
1271.933, 8444.978
1272.416, 8447.597
1272.898, 8452.462
1273.380, 8459.306
1273.862, 8465.949
1274.344, 8473.664
1274.826, 8477.294
1275.308, 8472.603
1275.790, 8466.240
1276.272, 8467.439
1276.755, 8474.090
1277.237, 8479.061
1277.719, 8481.751
1278.201, 8481.624
1278.683, 8472.091
1279.165, 8469.826
1279.647, 8481.126
1280.129, 8493.881
1280.611, 8491.692
1281.094, 8482.239
1281.576, 8483.394
1282.058, 8493.395
1282.540, 8498.963
1283.022, 8491.430
1283.504, 8489.717
1283.986, 8496.939
1284.468, 8505.647
1284.950, 8508.397
1285.433, 8508.191
1285.915, 8508.850
1286.397, 8510.033
1286.879, 8509.439
1287.361, 8505.846
1287.843, 8505.040
1288.325, 8507.710
1288.807, 8512.074
1289.290, 8518.972
1289.772, 8524.761
1290.254, 8524.156
1290.736, 8520.575
1291.218, 8522.899
1291.700, 8531.847
1292.182, 8535.916
1292.664, 8534.291
1293.146, 8532.716
1293.629, 8536.709
1294.111, 8540.189
1294.593, 8538.820
1295.075, 8535.364
1295.557, 8533.072
1296.039, 8531.776
1296.521, 8529.486
1297.003, 8526.231
1297.486, 8524.448
1297.968, 8529.526
1298.450, 8531.942
1298.932, 8527.986
1299.414, 8523.518
1299.896, 8526.680
1300.378, 8534.258
1300.860, 8536.327
1301.343, 8534.357
1301.825, 8535.882
##END=



