##NAMES=Bobjonesite
##RRUFFID=R060530
##IDEAL CHEMISTRY=V^4+^OS^6+^O_4_&#183;3H_2_O
##LOCALITY=Petrified log in the North Mesa 5 mine, Temple Mountain, Emery County, Utah, USA
##OWNER=RRUFF
##SOURCE=Michael Scott
##DESCRIPTION=Blue granular crystals
##STATUS=The identification of this mineral has been confirmed by single-crystal X-ray diffraction.
##URL=rruff.info/R060530
93.97052, 610.5843
94.45264, 604.8622
94.93475, 597.7412
95.41687, 590.9503
95.89898, 585.0997
96.38110, 579.8698
96.86321, 575.1104
97.34533, 570.3771
97.82745, 564.4075
98.30956, 558.1588
98.79168, 551.0436
99.27380, 544.6049
99.75591, 539.0637
100.2380, 534.2811
100.7201, 530.1642
101.2023, 526.7206
101.6844, 523.8885
102.1665, 521.1784
102.6486, 518.7459
103.1307, 516.2433
103.6128, 513.1087
104.0950, 509.0909
104.5771, 505.5094
105.0592, 503.2893
105.5413, 501.9021
106.0234, 500.7270
106.5055, 499.4025
106.9877, 498.0298
107.4698, 497.1740
107.9519, 497.6609
108.4340, 497.5483
108.9161, 495.7234
109.3982, 492.6230
109.8804, 489.3451
110.3625, 486.7030
110.8446, 484.6278
111.3267, 483.6323
111.8088, 485.0163
112.2909, 486.3319
112.7731, 486.2510
113.2552, 484.6856
113.7373, 482.5539
114.2194, 481.1721
114.7015, 480.9192
115.1836, 480.8462
115.6658, 481.3586
116.1479, 481.8631
116.6300, 481.6871
117.1121, 480.5649
117.5942, 478.9130
118.0763, 477.7552
118.5584, 477.4259
119.0406, 476.7935
119.5227, 475.1861
120.0048, 472.9663
120.4869, 471.1706
120.9690, 470.4498
121.4511, 470.3058
121.9333, 469.5778
122.4154, 467.8719
122.8975, 466.2446
123.3796, 465.8781
123.8617, 466.9508
124.3438, 467.7289
124.8260, 467.1905
125.3081, 465.9838
125.7902, 464.5467
126.2723, 462.9558
126.7544, 461.3187
127.2365, 459.8717
127.7187, 458.5424
128.2008, 457.5746
128.6829, 457.2295
129.1650, 457.1822
129.6471, 456.9602
130.1292, 456.1950
130.6114, 454.9625
131.0935, 454.3700
131.5756, 455.4221
132.0577, 456.1862
132.5398, 456.1459
133.0219, 455.4048
133.5041, 454.3089
133.9862, 453.1146
134.4683, 451.7631
134.9504, 450.7331
135.4325, 449.9406
135.9146, 449.4530
136.3968, 449.4249
136.8789, 449.8244
137.3610, 450.3755
137.8431, 450.8109
138.3252, 451.1403
138.8073, 451.1715
139.2895, 450.6257
139.7716, 449.8782
140.2537, 449.4198
140.7358, 449.4132
141.2179, 449.4838
141.7000, 449.0956
142.1821, 448.2963
142.6643, 447.5000
143.1464, 446.8683
143.6285, 446.3744
144.1106, 445.9086
144.5927, 445.4145
145.0748, 444.9949
145.5570, 444.6639
146.0391, 444.4266
146.5212, 444.4012
147.0033, 444.8213
147.4854, 445.7573
147.9675, 446.4521
148.4497, 446.7533
148.9318, 446.7608
149.4139, 446.3850
149.8960, 445.6348
150.3781, 444.7812
150.8602, 444.2381
151.3424, 444.1270
151.8245, 444.0776
152.3066, 444.3411
152.7887, 444.4870
153.2708, 444.0308
153.7529, 442.8179
154.2351, 441.2525
154.7172, 440.3557
155.1993, 441.0058
155.6814, 441.3264
156.1635, 441.0475
156.6456, 440.4481
157.1278, 439.9053
157.6099, 439.6200
158.0920, 439.4589
158.5741, 438.8264
159.0562, 436.9480
159.5383, 435.5210
160.0205, 435.2325
160.5026, 435.7289
160.9847, 436.2132
161.4668, 436.2556
161.9489, 435.9059
162.4310, 435.4930
162.9131, 434.8358
163.3953, 434.2877
163.8774, 434.1020
164.3595, 434.2513
164.8416, 434.4661
165.3237, 434.5654
165.8058, 434.6280
166.2880, 434.8394
166.7701, 435.3985
167.2522, 435.9747
167.7343, 436.1603
168.2164, 435.8929
168.6985, 435.5306
169.1807, 435.2801
169.6628, 435.0624
170.1449, 434.7567
170.6270, 434.2314
171.1091, 433.6422
171.5912, 433.3765
172.0734, 433.5970
172.5555, 433.8608
173.0376, 434.0315
173.5197, 434.1230
174.0018, 434.1674
174.4839, 434.2140
174.9661, 434.2276
175.4482, 433.9437
175.9303, 432.6470
176.4124, 431.8949
176.8945, 432.3481
177.3766, 433.6137
177.8588, 435.0424
178.3409, 436.2366
178.8230, 437.2003
179.3051, 437.4835
179.7872, 436.2276
180.2693, 435.1364
180.7515, 434.7423
181.2336, 434.9538
181.7157, 435.4398
182.1978, 435.9567
182.6799, 436.5320
183.1620, 436.8001
183.6441, 436.5539
184.1263, 436.2552
184.6084, 436.0825
185.0905, 436.0597
185.5726, 436.1636
186.0547, 436.3873
186.5368, 436.7519
187.0190, 437.1085
187.5011, 437.5113
187.9832, 437.8696
188.4653, 438.1204
188.9474, 438.2565
189.4296, 438.3022
189.9117, 438.2509
190.3938, 438.1062
190.8759, 437.9865
191.3580, 437.7907
191.8401, 437.6801
192.3223, 437.9166
192.8044, 438.5898
193.2865, 439.2973
193.7686, 439.5087
194.2507, 439.3939
194.7328, 439.5056
195.2150, 440.2244
195.6971, 441.2484
196.1792, 441.9193
196.6613, 442.0010
197.1434, 442.1342
197.6255, 443.0172
198.1077, 444.3586
198.5898, 445.3795
199.0719, 445.4532
199.5540, 444.8212
200.0361, 444.5170
200.5182, 444.6385
201.0004, 445.0271
201.4825, 445.7892
201.9646, 446.7407
202.4467, 447.4146
202.9288, 447.2144
203.4109, 446.2352
203.8930, 446.1571
204.3752, 448.0372
204.8573, 449.7730
205.3394, 450.6540
205.8215, 450.7524
206.3036, 450.3431
206.7857, 449.4699
207.2679, 448.0737
207.7500, 447.3861
208.2321, 448.2843
208.7142, 449.1293
209.1963, 449.2870
209.6784, 448.9159
210.1606, 448.5904
210.6427, 448.8849
211.1248, 449.9311
211.6069, 450.3823
212.0890, 449.6196
212.5711, 448.8950
213.0533, 448.8210
213.5354, 449.2756
214.0175, 449.7195
214.4996, 449.6547
214.9817, 449.0053
215.4638, 448.3327
215.9460, 447.4020
216.4281, 446.6533
216.9102, 446.4421
217.3923, 446.6799
217.8744, 446.9196
218.3565, 446.7393
218.8387, 446.0718
219.3208, 445.5439
219.8029, 445.0761
220.2850, 444.7859
220.7671, 444.8335
221.2492, 445.1825
221.7314, 445.5723
222.2135, 445.8071
222.6956, 445.8622
223.1777, 445.7604
223.6598, 445.3070
224.1419, 444.8400
224.6240, 444.6556
225.1062, 444.7577
225.5883, 444.8763
226.0704, 444.7610
226.5525, 444.4538
227.0346, 444.2981
227.5167, 444.3224
227.9989, 444.5037
228.4810, 444.9201
228.9631, 445.5855
229.4452, 446.1562
229.9273, 446.3512
230.4094, 446.2473
230.8916, 446.0605
231.3737, 445.5828
231.8558, 445.1703
232.3379, 445.3537
232.8200, 446.2273
233.3021, 447.0334
233.7843, 447.2458
234.2664, 447.0798
234.7485, 446.8212
235.2306, 446.5108
235.7127, 446.1621
236.1948, 445.6782
236.6770, 444.9359
237.1591, 444.5694
237.6412, 445.3777
238.1233, 446.6018
238.6054, 447.3833
239.0875, 447.3292
239.5697, 446.9099
240.0518, 446.9063
240.5339, 447.4677
241.0160, 447.9687
241.4981, 448.1827
241.9802, 448.2159
242.4624, 448.0875
242.9445, 447.7467
243.4266, 447.4237
243.9087, 447.6365
244.3908, 448.7272
244.8729, 449.3983
245.3550, 448.8414
245.8372, 447.9742
246.3193, 447.5493
246.8014, 447.8225
247.2835, 448.5770
247.7656, 449.6137
248.2477, 451.3800
248.7299, 452.2865
249.2120, 451.4325
249.6941, 450.0966
250.1762, 449.1627
250.6583, 448.9126
251.1404, 449.1857
251.6226, 449.8617
252.1047, 451.4544
252.5868, 452.2320
253.0689, 451.1671
253.5510, 449.9373
254.0331, 449.9484
254.5153, 451.4681
254.9974, 453.4618
255.4795, 454.2874
255.9616, 453.2099
256.4437, 452.5197
256.9258, 452.3352
257.4080, 452.4193
257.8901, 452.7383
258.3722, 453.2272
258.8543, 453.6846
259.3364, 453.7884
259.8185, 453.2254
260.3007, 453.1219
260.7828, 453.5602
261.2649, 454.2832
261.7470, 455.3087
262.2291, 456.5407
262.7112, 457.6522
263.1934, 458.2394
263.6755, 458.0949
264.1576, 458.1644
264.6397, 458.0870
265.1218, 458.4609
265.6039, 460.0687
266.0861, 462.6372
266.5682, 464.9449
267.0503, 465.6926
267.5324, 464.5052
268.0145, 464.1389
268.4966, 464.8363
268.9788, 465.9409
269.4609, 467.4258
269.9430, 469.1011
270.4251, 470.5277
270.9072, 471.3456
271.3893, 471.5351
271.8715, 471.4543
272.3536, 470.6771
272.8357, 470.1032
273.3178, 470.3480
273.7999, 471.1498
274.2820, 471.7481
274.7642, 471.5969
275.2463, 470.7711
275.7284, 470.2016
276.2105, 470.1324
276.6926, 469.9881
277.1747, 469.6441
277.6568, 469.0785
278.1389, 468.2079
278.6211, 466.9311
279.1032, 465.3968
279.5853, 464.2563
280.0674, 463.6962
280.5495, 463.2159
281.0316, 462.7367
281.5138, 462.2501
281.9959, 461.7367
282.4780, 461.1872
282.9601, 460.6143
283.4422, 460.0370
283.9243, 459.2746
284.4065, 458.8273
284.8886, 459.0425
285.3707, 459.5724
285.8528, 459.9154
286.3349, 459.9055
286.8170, 459.6776
287.2992, 459.4343
287.7813, 459.1731
288.2634, 458.9111
288.7455, 458.6538
289.2276, 458.3967
289.7097, 458.0829
290.1919, 457.6913
290.6740, 457.4062
291.1561, 457.5426
291.6382, 458.1886
292.1203, 458.5334
292.6024, 458.0998
293.0846, 457.5534
293.5667, 457.5885
294.0488, 458.2886
294.5309, 459.2139
295.0130, 460.0227
295.4951, 460.7000
295.9773, 461.2310
296.4594, 461.6621
296.9415, 461.9095
297.4236, 461.7596
297.9057, 461.2565
298.3878, 460.8719
298.8700, 460.9243
299.3521, 461.4058
299.8342, 462.0128
300.3163, 463.2769
300.7984, 464.1801
301.2805, 463.8313
301.7627, 462.4876
302.2448, 461.3429
302.7269, 461.0442
303.2090, 461.3622
303.6911, 461.5176
304.1732, 461.2405
304.6554, 461.2442
305.1375, 462.1327
305.6196, 463.5679
306.1017, 464.6960
306.5838, 465.2173
307.0659, 465.2454
307.5481, 464.8112
308.0302, 463.6717
308.5123, 463.0430
308.9944, 463.7822
309.4765, 465.1934
309.9586, 465.9677
310.4408, 465.6689
310.9229, 465.1304
311.4050, 465.6008
311.8871, 467.1147
312.3692, 468.2928
312.8513, 468.8395
313.3335, 468.9183
313.8156, 468.5350
314.2977, 467.6639
314.7798, 466.9277
315.2619, 467.0583
315.7440, 467.9798
316.2262, 468.4489
316.7083, 467.9176
317.1904, 467.2131
317.6725, 467.1489
318.1546, 467.6928
318.6367, 468.0775
319.1188, 467.8091
319.6010, 466.9284
320.0831, 465.8842
320.5652, 464.3496
321.0473, 462.9742
321.5294, 462.1673
322.0115, 461.8322
322.4937, 461.6455
322.9758, 461.5161
323.4579, 461.3797
323.9400, 461.0653
324.4221, 460.5014
324.9042, 459.9537
325.3864, 459.4540
325.8685, 459.0430
326.3506, 458.8132
326.8327, 458.8118
327.3148, 458.9402
327.7969, 459.1300
328.2791, 459.4686
328.7612, 459.4302
329.2433, 458.5849
329.7254, 457.4663
330.2075, 456.6135
330.6896, 456.1194
331.1718, 456.0154
331.6539, 456.4824
332.1360, 457.5742
332.6181, 458.2178
333.1002, 458.0090
333.5823, 457.6191
334.0645, 457.4536
334.5466, 457.5462
335.0287, 457.8843
335.5108, 458.5204
335.9929, 459.3984
336.4750, 460.0794
336.9572, 460.5090
337.4393, 460.8297
337.9214, 461.1346
338.4035, 461.3774
338.8856, 461.4301
339.3677, 461.2186
339.8499, 460.8140
340.3320, 460.3911
340.8141, 459.9052
341.2962, 459.4803
341.7783, 459.0332
342.2604, 458.6971
342.7426, 458.7363
343.2247, 459.2270
343.7068, 459.8383
344.1889, 460.1075
344.6710, 459.8898
345.1531, 459.7070
345.6353, 459.5348
346.1174, 459.4205
346.5995, 459.3836
347.0816, 459.4347
347.5637, 459.6198
348.0458, 460.0159
348.5280, 460.6433
349.0101, 461.0235
349.4922, 461.0369
349.9743, 460.9727
350.4564, 460.9363
350.9385, 460.9201
351.4207, 460.8868
351.9028, 460.8160
352.3849, 460.7104
352.8670, 460.5749
353.3491, 460.1922
353.8312, 460.0502
354.3134, 460.2969
354.7955, 460.7807
355.2776, 461.4015
355.7597, 462.1129
356.2418, 462.7709
356.7239, 463.1242
357.2061, 462.9778
357.6882, 462.9027
358.1703, 462.8842
358.6524, 462.9370
359.1345, 463.1394
359.6166, 463.4533
360.0987, 463.7019
360.5808, 463.6996
361.0630, 463.4128
361.5451, 463.1797
362.0272, 463.0831
362.5093, 462.9494
362.9914, 462.5862
363.4735, 462.1526
363.9557, 461.9297
364.4378, 462.0815
364.9199, 462.5904
365.4020, 463.4292
365.8841, 465.4019
366.3662, 466.5538
366.8484, 465.9129
367.3305, 464.7669
367.8126, 464.4748
368.2947, 465.4383
368.7768, 466.8886
369.2589, 467.5321
369.7411, 466.8184
370.2232, 466.8135
370.7053, 468.6603
371.1874, 470.2903
371.6695, 470.3779
372.1516, 469.0914
372.6338, 467.6208
373.1159, 466.9757
373.5980, 467.1356
374.0801, 467.4545
374.5622, 468.1353
375.0443, 468.7236
375.5265, 468.9854
376.0086, 469.0810
376.4907, 469.3338
376.9728, 469.9969
377.4549, 470.6798
377.9370, 470.2973
378.4192, 468.2294
378.9013, 466.8683
379.3834, 467.4552
379.8655, 468.6404
380.3476, 469.5215
380.8297, 469.9121
381.3119, 469.9179
381.7940, 469.4494
382.2761, 468.5227
382.7582, 467.9507
383.2403, 467.8619
383.7224, 468.1668
384.2046, 468.8851
384.6867, 469.9198
385.1688, 470.9484
385.6509, 472.0010
386.1330, 472.8837
386.6151, 473.0268
387.0973, 472.2242
387.5794, 471.4120
388.0615, 471.0826
388.5436, 471.0871
389.0257, 471.2828
389.5078, 471.7490
389.9900, 472.2013
390.4721, 472.2771
390.9542, 472.0439
391.4363, 472.0791
391.9184, 472.7039
392.4005, 473.5133
392.8827, 473.9903
393.3648, 474.1474
393.8469, 474.0517
394.3290, 473.3359
394.8111, 472.5122
395.2932, 472.4737
395.7754, 473.3909
396.2575, 474.6739
396.7396, 476.0451
397.2217, 477.4138
397.7038, 478.0744
398.1859, 477.2159
398.6681, 476.3340
399.1501, 476.6099
399.6323, 477.7523
400.1144, 478.6427
400.5965, 478.7079
401.0786, 478.1823
401.5607, 477.7065
402.0428, 477.1968
402.5250, 476.8603
403.0071, 476.6923
403.4892, 476.7309
403.9713, 477.1532
404.4534, 477.9612
404.9355, 478.7444
405.4177, 478.9843
405.8998, 478.5136
406.3819, 478.3197
406.8640, 478.5797
407.3461, 478.9112
407.8282, 479.1494
408.3104, 479.3044
408.7925, 479.4359
409.2746, 479.5762
409.7567, 479.7404
410.2388, 480.0045
410.7209, 480.6277
411.2031, 481.0042
411.6852, 480.7280
412.1673, 480.3811
412.6494, 480.6273
413.1315, 481.5895
413.6136, 482.7304
414.0958, 483.2830
414.5779, 483.0371
415.0600, 483.0605
415.5421, 483.7455
416.0242, 484.3412
416.5063, 484.5228
416.9885, 484.3759
417.4706, 484.1223
417.9527, 483.8371
418.4348, 483.6117
418.9169, 483.8240
419.3990, 484.7427
419.8812, 485.5019
420.3633, 485.5900
420.8454, 485.5349
421.3275, 485.9751
421.8096, 487.0851
422.2917, 488.0269
422.7739, 487.5824
423.2560, 485.8535
423.7381, 485.0361
424.2202, 485.7820
424.7023, 487.0893
425.1844, 488.4103
425.6666, 489.6585
426.1487, 490.5077
426.6308, 490.6263
427.1129, 490.3552
427.5950, 490.0750
428.0771, 489.7680
428.5593, 489.8249
429.0414, 490.7209
429.5235, 491.9878
430.0056, 492.5795
430.4877, 492.2702
430.9698, 491.8025
431.4520, 491.3485
431.9341, 491.0267
432.4162, 491.1415
432.8983, 491.8036
433.3804, 492.6635
433.8625, 493.3491
434.3447, 493.8392
434.8268, 494.2345
435.3089, 494.4375
435.7910, 494.6296
436.2731, 494.9713
436.7552, 495.4141
437.2374, 495.7737
437.7195, 495.9349
438.2016, 495.9482
438.6837, 496.0045
439.1658, 496.0756
439.6479, 496.2294
440.1301, 496.4662
440.6122, 496.7917
441.0943, 497.2458
441.5764, 497.8183
442.0585, 498.4212
442.5406, 498.9501
443.0227, 499.3986
443.5049, 499.8443
443.9870, 500.2163
444.4691, 500.6624
444.9512, 501.3246
445.4333, 502.0709
445.9154, 502.6557
446.3976, 502.9249
446.8797, 503.0845
447.3618, 503.6216
447.8439, 504.6674
448.3260, 505.6951
448.8081, 507.0187
449.2903, 507.9907
449.7724, 507.8251
450.2545, 506.6578
450.7366, 505.7765
451.2187, 506.3506
451.7008, 508.0621
452.1830, 509.6114
452.6651, 511.0193
453.1472, 512.1311
453.6293, 512.7477
454.1114, 513.0298
454.5935, 513.0968
455.0757, 512.7462
455.5578, 512.6256
456.0399, 513.3837
456.5220, 514.8633
457.0041, 516.4728
457.4862, 518.1769
457.9684, 519.6788
458.4505, 520.5261
458.9326, 520.7505
459.4147, 520.7506
459.8968, 520.2178
460.3789, 519.7643
460.8611, 520.1168
461.3432, 521.1492
461.8253, 521.9857
462.3074, 522.0303
462.7895, 521.5349
463.2716, 521.5506
463.7538, 522.7305
464.2359, 523.5342
464.7180, 523.5860
465.2001, 523.2936
465.6822, 522.9922
466.1643, 522.7838
466.6465, 522.7148
467.1286, 522.8755
467.6107, 523.3165
468.0928, 523.4770
468.5749, 522.6858
469.0570, 522.3298
469.5392, 523.1127
470.0213, 524.4783
470.5034, 525.6629
470.9855, 526.3422
471.4676, 526.5557
471.9497, 526.2512
472.4319, 525.2594
472.9140, 524.5051
473.3961, 524.3302
473.8782, 524.2638
474.3603, 523.9998
474.8424, 523.5936
475.3246, 523.3137
475.8067, 523.2988
476.2888, 523.5294
476.7709, 524.0554
477.2530, 524.9444
477.7351, 525.7173
478.2173, 526.3326
478.6994, 526.5667
479.1815, 525.9993
479.6636, 524.3564
480.1457, 522.8596
480.6278, 521.9925
481.1100, 521.7151
481.5920, 522.1682
482.0742, 523.4116
482.5563, 524.5950
483.0384, 524.9276
483.5205, 524.4023
484.0026, 524.0006
484.4847, 523.8276
484.9669, 523.6528
485.4490, 523.3961
485.9311, 523.0678
486.4132, 522.5319
486.8953, 521.7440
487.3774, 521.2039
487.8596, 521.8292
488.3417, 524.3309
488.8238, 526.0636
489.3059, 527.0233
489.7880, 527.3619
490.2701, 526.8126
490.7523, 525.7116
491.2344, 524.6492
491.7165, 523.9263
492.1986, 523.6424
492.6807, 524.3162
493.1628, 526.6559
493.6450, 527.9905
494.1271, 526.7953
494.6092, 525.0927
495.0913, 524.1052
495.5734, 523.9300
496.0555, 524.0945
496.5377, 524.3982
497.0198, 524.7859
497.5019, 525.1374
497.9840, 525.4748
498.4661, 525.6444
498.9482, 525.4054
499.4304, 525.0016
499.9125, 524.9095
500.3946, 525.2484
500.8767, 525.6652
501.3588, 525.9983
501.8409, 526.2907
502.3231, 526.6485
502.8052, 527.0944
503.2873, 527.5056
503.7694, 527.7684
504.2515, 527.8784
504.7336, 527.9120
505.2158, 527.9128
505.6979, 527.8006
506.1800, 527.0244
506.6621, 526.2717
507.1442, 526.8441
507.6263, 529.1470
508.1085, 531.9728
508.5906, 533.4377
509.0727, 533.2070
509.5548, 532.8193
510.0369, 531.8217
510.5190, 531.1185
511.0012, 531.2277
511.4833, 531.8611
511.9654, 532.4930
512.4475, 532.9005
512.9296, 533.0558
513.4117, 532.7482
513.8939, 531.8562
514.3760, 531.4888
514.8581, 532.5157
515.3402, 533.4987
515.8223, 532.9271
516.3044, 531.0745
516.7866, 529.8029
517.2687, 530.3053
517.7508, 531.5729
518.2329, 532.3394
518.7150, 532.6190
519.1971, 532.9459
519.6793, 533.6537
520.1614, 534.4630
520.6435, 534.7018
521.1256, 534.3015
521.6077, 533.6909
522.0898, 532.3727
522.5720, 531.2670
523.0541, 531.4514
523.5362, 532.7667
524.0183, 534.0622
524.5004, 534.4712
524.9825, 534.2195
525.4647, 534.5149
525.9468, 536.1224
526.4289, 537.1748
526.9110, 537.0983
527.3931, 536.7259
527.8752, 536.8027
528.3574, 537.3624
528.8395, 537.8478
529.3216, 537.6754
529.8037, 536.9891
530.2858, 536.6593
530.7679, 536.7369
531.2501, 537.0597
531.7322, 537.7774
532.2143, 538.6019
532.6964, 539.2567
533.1785, 539.6948
533.6606, 539.9916
534.1428, 540.2582
534.6249, 540.4077
535.1070, 540.1087
535.5891, 539.2714
536.0712, 538.6292
536.5533, 538.8177
537.0355, 539.6925
537.5176, 540.2785
537.9997, 540.2490
538.4818, 540.3596
538.9639, 540.9851
539.4460, 541.7960
539.9282, 542.4208
540.4103, 542.7675
540.8924, 542.8941
541.3745, 542.8340
541.8566, 542.5800
542.3387, 542.3768
542.8209, 541.8936
543.3029, 541.8865
543.7850, 542.8165
544.2672, 544.1495
544.7493, 545.4114
545.2314, 546.4484
545.7135, 547.0950
546.1956, 546.8812
546.6777, 545.9230
547.1599, 545.7142
547.6420, 546.7136
548.1241, 547.6563
548.6062, 547.4587
549.0883, 546.7462
549.5704, 546.5391
550.0526, 547.1484
550.5347, 547.9768
551.0168, 548.8346
551.4989, 549.6115
551.9810, 550.0408
552.4631, 550.0621
552.9453, 549.9070
553.4274, 549.7724
553.9095, 549.6570
554.3916, 549.5400
554.8737, 548.9464
555.3558, 548.9089
555.8380, 550.3923
556.3201, 552.2795
556.8022, 553.0748
557.2843, 552.4606
557.7664, 551.3766
558.2485, 550.8286
558.7307, 550.8236
559.2128, 551.2042
559.6949, 552.1875
560.1770, 553.2589
560.6591, 554.5836
561.1412, 555.7429
561.6234, 556.0769
562.1055, 555.3471
562.5876, 554.5843
563.0697, 554.7792
563.5518, 555.6726
564.0339, 556.4272
564.5161, 556.9571
564.9982, 557.2992
565.4803, 557.3969
565.9624, 557.3239
566.4445, 557.4306
566.9266, 558.0834
567.4088, 558.3955
567.8909, 557.5743
568.3730, 556.4776
568.8551, 556.1475
569.3372, 556.7715
569.8193, 558.0513
570.3015, 559.8363
570.7836, 562.0638
571.2657, 563.3992
571.7478, 563.3124
572.2299, 562.9896
572.7120, 562.1038
573.1942, 561.3889
573.6763, 561.7295
574.1584, 563.1481
574.6405, 564.6133
575.1226, 565.0467
575.6047, 564.7563
576.0869, 565.1706
576.5690, 566.5262
577.0511, 567.5726
577.5332, 567.5271
578.0153, 566.9128
578.4974, 566.5350
578.9796, 566.3817
579.4617, 566.5831
579.9438, 567.7076
580.4259, 568.9073
580.9080, 568.9791
581.3901, 568.0204
581.8723, 567.1989
582.3544, 567.2386
582.8365, 567.9884
583.3186, 568.9562
583.8007, 570.8284
584.2828, 571.8475
584.7650, 571.2687
585.2471, 570.4933
585.7292, 570.4511
586.2113, 571.0621
586.6934, 571.7693
587.1755, 572.2589
587.6577, 572.5624
588.1398, 572.6770
588.6219, 572.5490
589.1040, 572.5961
589.5861, 572.9217
590.0682, 573.4606
590.5504, 574.1064
591.0325, 574.8720
591.5146, 575.8645
591.9967, 577.8101
592.4788, 579.4059
592.9609, 579.0832
593.4431, 577.4473
593.9252, 576.2786
594.4073, 576.2181
594.8894, 576.8962
595.3715, 577.8630
595.8536, 579.2260
596.3358, 580.4017
596.8179, 581.6505
597.3000, 582.4583
597.7821, 582.3345
598.2642, 581.7712
598.7463, 581.3828
599.2285, 581.3909
599.7106, 581.7842
600.1927, 582.7921
600.6748, 584.3730
601.1569, 585.2269
601.6390, 585.0164
602.1212, 584.6670
602.6033, 584.5468
603.0854, 584.6714
603.5675, 585.1386
604.0496, 586.0682
604.5317, 587.0179
605.0139, 587.6834
605.4960, 588.2726
605.9781, 589.2100
606.4602, 590.4859
606.9423, 591.5606
607.4244, 592.0346
607.9066, 592.0045
608.3887, 591.8944
608.8708, 591.6181
609.3529, 591.3923
609.8350, 590.8432
610.3171, 590.6573
610.7993, 591.7008
611.2814, 593.6143
611.7635, 595.1318
612.2456, 595.4049
612.7277, 594.8740
613.2098, 594.2943
613.6920, 593.6165
614.1741, 593.4640
614.6562, 594.1846
615.1383, 595.2203
615.6204, 596.1251
616.1025, 596.8944
616.5847, 597.4257
617.0668, 597.4037
617.5489, 597.4265
618.0310, 597.9872
618.5131, 598.8503
618.9952, 599.5389
619.4774, 599.9112
619.9595, 600.1332
620.4416, 600.4267
620.9237, 600.8223
621.4058, 600.8412
621.8879, 599.7566
622.3701, 599.2072
622.8522, 599.9664
623.3343, 601.1721
623.8164, 601.8351
624.2985, 601.8084
624.7806, 601.8978
625.2628, 602.9883
625.7448, 604.6586
626.2269, 605.8279
626.7090, 606.4727
627.1912, 606.5380
627.6733, 605.6127
628.1554, 604.4623
628.6375, 604.8326
629.1196, 607.1862
629.6017, 608.5756
630.0839, 607.6823
630.5660, 606.4818
631.0481, 606.2570
631.5302, 606.8544
632.0123, 607.7065
632.4944, 608.5502
632.9766, 609.3705
633.4587, 610.1707
633.9408, 610.9949
634.4229, 611.5760
634.9050, 611.7987
635.3871, 611.9096
635.8693, 611.8777
636.3514, 611.8605
636.8335, 612.1304
637.3156, 612.7991
637.7977, 613.5394
638.2798, 614.3763
638.7620, 615.0441
639.2441, 614.7274
639.7262, 613.3969
640.2083, 612.5648
640.6904, 613.3711
641.1725, 615.2211
641.6547, 616.1237
642.1368, 615.0428
642.6189, 614.5092
643.1010, 614.7438
643.5831, 615.3210
644.0652, 616.1358
644.5474, 617.0566
645.0295, 617.8759
645.5116, 618.4807
645.9937, 618.9361
646.4758, 619.3704
646.9579, 619.7824
647.4401, 619.9072
647.9222, 619.4777
648.4043, 619.2507
648.8864, 620.1016
649.3685, 621.6292
649.8506, 622.5339
650.3328, 622.3599
650.8149, 622.1176
651.2970, 622.3162
651.7791, 622.6010
652.2612, 622.4401
652.7433, 621.8568
653.2255, 621.3262
653.7076, 621.1586
654.1897, 621.3995
654.6718, 622.3153
655.1539, 624.2849
655.6360, 625.9944
656.1182, 627.4480
656.6003, 628.4084
657.0824, 628.2545
657.5645, 627.4412
658.0466, 627.3721
658.5287, 629.0061
659.0109, 630.8756
659.4930, 631.5719
659.9751, 631.3923
660.4572, 631.0918
660.9393, 630.8230
661.4214, 630.7062
661.9036, 630.8619
662.3857, 631.2728
662.8678, 631.7279
663.3499, 632.3231
663.8320, 632.8478
664.3141, 633.2101
664.7963, 633.5642
665.2784, 634.0868
665.7605, 634.7336
666.2426, 635.2532
666.7247, 635.3851
667.2068, 635.4915
667.6890, 636.4705
668.1711, 638.2814
668.6532, 639.3996
669.1353, 639.3186
669.6174, 638.8589
670.0995, 638.7549
670.5817, 638.9633
671.0638, 639.0248
671.5459, 638.5754
672.0280, 638.4102
672.5101, 638.8360
672.9922, 639.6360
673.4744, 640.5950
673.9565, 641.6762
674.4386, 643.0316
674.9207, 644.9233
675.4028, 646.9411
675.8849, 647.6324
676.3671, 646.7033
676.8492, 645.7038
677.3313, 644.5500
677.8134, 643.8546
678.2955, 644.4099
678.7776, 645.8418
679.2598, 646.7996
679.7419, 646.7930
680.2240, 646.4783
680.7061, 645.8318
681.1882, 645.2850
681.6703, 645.7537
682.1525, 647.2635
682.6346, 648.7194
683.1167, 649.1772
683.5988, 648.8967
684.0809, 649.2449
684.5630, 650.8319
685.0452, 651.7121
685.5273, 650.7340
686.0094, 649.7606
686.4915, 650.0359
686.9736, 651.2215
687.4557, 652.1807
687.9379, 652.4706
688.4200, 652.4197
688.9021, 651.8166
689.3842, 651.1671
689.8663, 652.0315
690.3484, 654.6456
690.8306, 657.0675
691.3127, 657.7411
691.7948, 657.0003
692.2769, 656.5107
692.7590, 656.0416
693.2411, 656.2424
693.7233, 657.7307
694.2054, 659.3204
694.6875, 660.3676
695.1696, 660.9263
695.6517, 661.3122
696.1339, 661.7048
696.6160, 661.8560
697.0981, 661.1210
697.5802, 659.8867
698.0623, 659.6253
698.5444, 660.6025
699.0266, 661.8956
699.5087, 662.9333
699.9908, 663.7381
700.4729, 664.3903
700.9550, 664.8718
701.4371, 665.2003
701.9193, 665.2248
702.4014, 665.2307
702.8835, 665.3809
703.3656, 665.6518
703.8477, 665.8932
704.3298, 666.0091
704.8120, 666.3646
705.2941, 667.6168
705.7762, 669.5484
706.2583, 671.1402
706.7404, 672.3060
707.2225, 673.0392
707.7046, 673.2072
708.1867, 673.0382
708.6688, 673.0998
709.1509, 673.4181
709.6331, 673.8775
710.1152, 674.6657
710.5973, 675.3977
711.0794, 675.6493
711.5615, 675.7275
712.0436, 676.3197
712.5258, 677.6579
713.0079, 678.9695
713.4900, 679.1454
713.9721, 678.4523
714.4542, 678.4985
714.9363, 679.4648
715.4185, 680.2664
715.9006, 680.2258
716.3827, 679.9368
716.8648, 680.4953
717.3469, 682.0608
717.8290, 683.4056
718.3112, 684.4639
718.7933, 685.2395
719.2754, 685.5801
719.7575, 685.7031
720.2396, 685.9683
720.7217, 686.4359
721.2039, 686.7515
721.6860, 686.3455
722.1681, 685.5559
722.6502, 685.8873
723.1323, 687.5025
723.6144, 688.8894
724.0966, 689.4985
724.5787, 689.7971
725.0608, 690.2994
725.5429, 691.0074
726.0250, 691.6841
726.5071, 692.5081
726.9893, 693.0844
727.4714, 692.9708
727.9535, 692.7178
728.4356, 692.9622
728.9177, 693.7504
729.3998, 694.7426
729.8820, 695.7713
730.3641, 696.6894
730.8462, 697.0403
731.3283, 696.7928
731.8104, 696.7946
732.2925, 697.2357
732.7747, 697.8789
733.2568, 698.5289
733.7389, 699.2161
734.2210, 700.0891
734.7031, 701.1675
735.1852, 702.3748
735.6674, 704.2421
736.1495, 705.7914
736.6316, 705.8446
737.1137, 704.8737
737.5958, 704.3611
738.0779, 705.0690
738.5601, 706.2482
739.0422, 706.7293
739.5243, 706.6094
740.0064, 706.9194
740.4885, 707.8760
740.9706, 708.5953
741.4528, 708.3381
741.9349, 707.7116
742.4170, 708.2465
742.8991, 710.5472
743.3812, 711.8508
743.8633, 710.9775
744.3455, 710.0617
744.8276, 710.0686
745.3097, 710.8405
745.7918, 712.2352
746.2739, 714.1204
746.7560, 715.8665
747.2382, 716.9456
747.7203, 717.3937
748.2024, 716.9794
748.6845, 715.6660
749.1666, 715.1915
749.6487, 716.3607
750.1309, 718.0247
750.6130, 718.8050
751.0951, 718.6238
751.5772, 718.9020
752.0593, 719.7683
752.5414, 720.8660
753.0236, 722.5809
753.5057, 724.1483
753.9878, 724.6497
754.4699, 724.2731
754.9520, 724.0993
755.4341, 724.8165
755.9163, 725.8484
756.3984, 726.3262
756.8805, 726.4001
757.3626, 726.8255
757.8447, 727.7595
758.3268, 728.4767
758.8090, 728.3403
759.2911, 727.7345
759.7732, 727.9655
760.2553, 729.8527
760.7374, 731.1191
761.2195, 731.6193
761.7017, 731.7234
762.1838, 731.2142
762.6659, 730.5784
763.1480, 730.5927
763.6301, 731.4916
764.1122, 732.5986
764.5944, 733.5897
765.0765, 734.3800
765.5586, 734.4845
766.0407, 734.1377
766.5228, 734.8840
767.0049, 737.4079
767.4871, 740.0009
767.9692, 740.1977
768.4513, 737.8382
768.9334, 737.0829
769.4155, 738.9326
769.8976, 740.7478
770.3798, 741.7617
770.8619, 742.6686
771.3440, 744.3197
771.8261, 746.4524
772.3082, 747.6199
772.7903, 746.4940
773.2725, 745.3677
773.7546, 745.9968
774.2367, 747.5915
774.7188, 749.1685
775.2009, 750.4659
775.6830, 751.1575
776.1652, 750.9709
776.6473, 750.3455
777.1294, 750.3553
777.6115, 751.1124
778.0936, 751.7452
778.5757, 752.0307
779.0579, 752.5145
779.5400, 753.7659
780.0221, 755.2835
780.5042, 756.1417
780.9863, 756.1464
781.4684, 756.3696
781.9506, 757.4138
782.4327, 758.4098
782.9148, 758.4655
783.3969, 758.2066
783.8790, 758.9520
784.3611, 760.8930
784.8433, 762.6025
785.3254, 762.4211
785.8075, 761.2189
786.2896, 761.8535
786.7717, 764.3535
787.2538, 766.5089
787.7360, 767.8001
788.2181, 768.5029
788.7002, 768.6942
789.1823, 768.4687
789.6644, 768.6237
790.1465, 769.3203
790.6286, 770.1501
791.1107, 771.3517
791.5928, 772.4329
792.0750, 772.8718
792.5571, 772.9857
793.0392, 773.5329
793.5213, 774.8300
794.0034, 776.1826
794.4855, 776.8906
794.9677, 777.2778
795.4498, 778.0408
795.9319, 779.1293
796.4140, 779.8448
796.8961, 779.8668
797.3782, 779.7599
797.8604, 780.3775
798.3425, 781.7734
798.8246, 782.4809
799.3067, 781.8337
799.7888, 781.6953
800.2709, 782.7674
800.7531, 784.3254
801.2352, 786.2599
801.7173, 788.3158
802.1994, 789.3608
802.6815, 788.2502
803.1636, 787.3157
803.6458, 787.8448
804.1279, 789.1682
804.6100, 790.7120
805.0921, 792.2875
805.5742, 793.7466
806.0563, 795.0087
806.5385, 795.9855
807.0206, 796.3660
807.5027, 796.2200
807.9848, 796.6105
808.4669, 797.7728
808.9490, 798.4005
809.4312, 797.5322
809.9133, 796.3585
810.3954, 796.8076
810.8775, 799.2416
811.3596, 800.9496
811.8417, 801.3906
812.3239, 801.8025
812.8060, 802.6534
813.2881, 803.5287
813.7702, 803.5276
814.2523, 803.0540
814.7344, 804.0428
815.2166, 808.2818
815.6987, 812.5839
816.1808, 813.0899
816.6629, 811.2516
817.1450, 810.0385
817.6271, 809.8557
818.1093, 810.4915
818.5914, 811.8955
819.0735, 813.6153
819.5556, 814.7878
820.0377, 815.3509
820.5198, 815.6306
821.0020, 815.1412
821.4841, 815.2883
821.9662, 817.2692
822.4483, 819.6678
822.9304, 820.9124
823.4125, 821.0191
823.8947, 820.9348
824.3768, 820.3193
824.8589, 820.1899
825.3410, 821.3992
825.8231, 823.0715
826.3052, 824.2689
826.7874, 824.9471
827.2695, 825.5236
827.7516, 826.2320
828.2337, 826.9694
828.7158, 827.5842
829.1979, 828.1020
829.6801, 828.5762
830.1622, 829.0062
830.6443, 829.6025
831.1264, 830.4685
831.6085, 831.5511
832.0906, 832.8218
832.5728, 834.3380
833.0549, 835.5304
833.5370, 836.1456
834.0191, 836.7723
834.5012, 837.8692
834.9833, 838.7598
835.4655, 838.6605
835.9476, 837.7833
836.4297, 837.2465
836.9118, 837.2067
837.3939, 837.8674
837.8760, 840.1763
838.3582, 842.7019
838.8403, 843.3156
839.3224, 842.5352
839.8045, 842.7326
840.2866, 845.0345
840.7687, 847.8332
841.2509, 848.8323
841.7330, 848.3369
842.2151, 847.9701
842.6972, 847.7428
843.1793, 847.9342
843.6614, 848.7225
844.1436, 849.7093
844.6257, 850.3055
845.1078, 850.5370
845.5899, 851.7747
846.0720, 855.4119
846.5541, 857.9763
847.0363, 858.4352
847.5184, 858.4520
848.0005, 858.8730
848.4826, 859.6957
848.9647, 860.8801
849.4468, 862.5980
849.9290, 863.8546
850.4111, 863.6218
850.8932, 863.0709
851.3753, 863.4296
851.8574, 864.4628
852.3395, 865.5077
852.8217, 866.3381
853.3038, 867.0417
853.7859, 867.6979
854.2680, 868.2891
854.7501, 868.6503
855.2322, 868.7853
855.7144, 869.2930
856.1965, 870.3917
856.6786, 871.3961
857.1607, 871.6553
857.6428, 871.5250
858.1249, 872.2092
858.6071, 874.3952
859.0892, 875.8840
859.5713, 875.9578
860.0534, 876.1805
860.5355, 877.5368
861.0176, 879.0891
861.4998, 879.3746
861.9819, 878.3434
862.4640, 878.0764
862.9461, 880.3966
863.4282, 882.6942
863.9103, 882.9525
864.3925, 882.2027
864.8746, 881.6740
865.3567, 881.6339
865.8388, 882.1469
866.3209, 883.2943
866.8030, 884.6638
867.2852, 885.6648
867.7673, 886.3273
868.2494, 886.7960
868.7315, 887.0768
869.2136, 887.1195
869.6957, 886.7731
870.1779, 886.6777
870.6600, 887.8815
871.1421, 890.4083
871.6242, 891.5193
872.1063, 889.9024
872.5884, 889.1775
873.0705, 890.4182
873.5526, 892.2724
874.0347, 894.3524
874.5168, 896.3709
874.9990, 897.6933
875.4811, 898.0353
875.9632, 898.2043
876.4453, 898.3040
876.9274, 898.4987
877.4095, 898.9276
877.8917, 899.5332
878.3738, 900.1946
878.8559, 900.8927
879.3380, 901.7396
879.8201, 902.9078
880.3022, 904.1771
880.7844, 905.0616
881.2665, 905.7326
881.7486, 907.0518
882.2307, 909.0861
882.7128, 910.4276
883.1949, 910.0549
883.6771, 908.9893
884.1592, 909.4474
884.6413, 911.6682
885.1234, 913.6399
885.6055, 915.4559
886.0876, 916.7490
886.5698, 917.1306
887.0519, 917.2002
887.5340, 917.6542
888.0161, 918.4559
888.4982, 919.0784
888.9803, 919.6110
889.4625, 919.8168
889.9446, 919.2352
890.4267, 918.7149
890.9088, 918.7076
891.3909, 919.2507
891.8730, 920.4521
892.3552, 922.3834
892.8373, 924.2000
893.3194, 925.1797
893.8015, 925.9460
894.2836, 927.7035
894.7657, 929.6205
895.2479, 929.2714
895.7300, 926.6169
896.2121, 924.8583
896.6942, 926.5633
897.1763, 929.9610
897.6584, 931.4156
898.1406, 931.1322
898.6227, 931.2661
899.1048, 932.0260
899.5869, 932.9003
900.0690, 933.6096
900.5511, 934.4188
901.0333, 935.7438
901.5154, 937.6024
901.9975, 939.6142
902.4796, 942.5510
902.9617, 944.2005
903.4438, 942.7248
903.9260, 941.2448
904.4081, 942.2432
904.8902, 944.8259
905.3723, 946.6384
905.8544, 947.1591
906.3365, 947.6933
906.8187, 948.5244
907.3008, 949.4844
907.7829, 950.6210
908.2650, 951.7305
908.7471, 952.4000
909.2292, 952.6745
909.7114, 953.2894
910.1935, 954.9649
910.6756, 956.6858
911.1577, 957.3455
911.6398, 957.3441
912.1219, 957.2810
912.6041, 957.2911
913.0862, 957.5052
913.5683, 957.9890
914.0504, 958.6837
914.5325, 959.4534
915.0146, 960.3690
915.4968, 961.9405
915.9789, 964.2038
916.4610, 966.5349
916.9431, 968.9788
917.4252, 970.5499
917.9073, 970.1818
918.3895, 968.5314
918.8716, 968.0065
919.3537, 968.9660
919.8358, 970.1537
920.3179, 972.0792
920.8000, 973.4660
921.2822, 973.0748
921.7643, 972.3512
922.2464, 973.1310
922.7285, 975.3392
923.2106, 976.7721
923.6927, 976.2890
924.1749, 976.1201
924.6570, 977.3282
925.1391, 978.6878
925.6212, 978.9241
926.1033, 978.6302
926.5854, 979.2726
927.0676, 981.3085
927.5497, 983.4152
928.0318, 984.9592
928.5139, 985.9486
928.9960, 986.0886
929.4781, 985.8036
929.9603, 985.7477
930.4424, 986.1144
930.9245, 987.1221
931.4066, 989.0017
931.8887, 991.0469
932.3708, 992.0250
932.8530, 992.1871
933.3351, 992.3852
933.8172, 992.7026
934.2993, 993.9478
934.7814, 996.5045
935.2635, 999.0585
935.7457, 1000.108
936.2278, 999.9315
936.7099, 1000.212
937.1920, 1001.067
937.6741, 1001.804
938.1563, 1002.148
938.6384, 1002.815
939.1205, 1004.278
939.6026, 1006.270
940.0847, 1008.564
940.5668, 1011.484
941.0490, 1012.775
941.5311, 1010.578
942.0132, 1009.378
942.4953, 1011.084
942.9774, 1013.115
943.4595, 1013.249
943.9417, 1012.222
944.4238, 1012.174
944.9059, 1013.723
945.3880, 1015.476
945.8701, 1017.266
946.3522, 1018.769
946.8344, 1019.558
947.3165, 1020.036
947.7986, 1020.650
948.2807, 1021.515
948.7628, 1022.721
949.2449, 1024.522
949.7271, 1026.139
950.2092, 1026.677
950.6913, 1026.639
951.1734, 1026.554
951.6555, 1026.634
952.1376, 1027.366
952.6198, 1028.883
953.1019, 1030.752
953.5840, 1032.761
954.0661, 1034.585
954.5482, 1034.994
955.0303, 1034.333
955.5124, 1035.222
955.9945, 1038.023
956.4766, 1040.438
956.9587, 1041.185
957.4409, 1041.185
957.9230, 1041.910
958.4051, 1043.347
958.8872, 1044.520
959.3693, 1045.395
959.8514, 1046.133
960.3336, 1046.668
960.8157, 1047.298
961.2978, 1048.235
961.7799, 1049.431
962.2620, 1050.757
962.7441, 1052.266
963.2263, 1053.758
963.7084, 1055.752
964.1905, 1057.013
964.6726, 1056.564
965.1547, 1055.808
965.6368, 1055.968
966.1190, 1056.895
966.6011, 1057.744
967.0832, 1058.198
967.5653, 1059.004
968.0474, 1060.624
968.5295, 1062.310
969.0117, 1063.594
969.4938, 1064.706
969.9759, 1065.948
970.4580, 1067.364
970.9401, 1068.881
971.4222, 1070.927
971.9044, 1072.317
972.3865, 1071.690
972.8686, 1070.511
973.3507, 1070.106
973.8328, 1070.531
974.3149, 1071.781
974.7971, 1073.741
975.2792, 1075.463
975.7613, 1075.938
976.2434, 1076.047
976.7255, 1076.909
977.2076, 1078.323
977.6898, 1080.046
978.1719, 1081.926
978.6540, 1083.476
979.1361, 1084.473
979.6182, 1085.231
980.1003, 1086.142
980.5825, 1087.137
981.0646, 1087.872
981.5467, 1088.407
982.0288, 1089.227
982.5109, 1090.424
982.9930, 1091.927
983.4752, 1093.708
983.9573, 1095.650
984.4394, 1097.528
984.9215, 1099.339
985.4036, 1101.208
985.8857, 1103.138
986.3679, 1105.084
986.8500, 1106.979
987.3321, 1109.109
987.8142, 1111.789
988.2963, 1114.803
988.7784, 1117.521
989.2606, 1120.028
989.7427, 1121.793
990.2248, 1122.111
990.7069, 1123.056
991.1890, 1125.543
991.6711, 1128.620
992.1533, 1131.336
992.6354, 1133.824
993.1175, 1136.875
993.5996, 1140.545
994.0817, 1144.661
994.5638, 1149.222
995.0460, 1154.266
995.5281, 1160.395
996.0102, 1166.592
996.4923, 1171.485
996.9744, 1175.280
997.4565, 1179.724
997.9387, 1184.931
998.4208, 1191.137
998.9029, 1199.450
999.3850, 1207.654
999.8671, 1215.314
1000.349, 1221.401
1000.831, 1224.796
1001.313, 1225.289
1001.796, 1222.749
1002.278, 1215.627
1002.760, 1207.729
1003.242, 1200.395
1003.724, 1193.886
1004.206, 1188.636
1004.688, 1184.286
1005.170, 1179.705
1005.653, 1174.803
1006.135, 1171.440
1006.617, 1171.437
1007.099, 1172.561
1007.581, 1172.995
1008.063, 1173.065
1008.545, 1172.934
1009.027, 1172.891
1009.509, 1173.697
1009.992, 1175.551
1010.474, 1177.547
1010.956, 1178.986
1011.438, 1179.991
1011.920, 1180.563
1012.402, 1180.901
1012.884, 1181.491
1013.366, 1182.338
1013.849, 1183.070
1014.331, 1183.537
1014.813, 1184.185
1015.295, 1185.631
1015.777, 1187.540
1016.259, 1188.890
1016.741, 1189.915
1017.223, 1191.679
1017.705, 1194.323
1018.188, 1197.615
1018.670, 1201.450
1019.152, 1205.538
1019.634, 1209.492
1020.116, 1213.345
1020.598, 1217.269
1021.080, 1221.262
1021.562, 1225.847
1022.044, 1231.177
1022.527, 1236.076
1023.009, 1239.954
1023.491, 1242.621
1023.973, 1243.757
1024.455, 1243.384
1024.937, 1241.753
1025.419, 1238.779
1025.901, 1235.243
1026.384, 1231.127
1026.866, 1227.048
1027.348, 1223.216
1027.830, 1220.053
1028.312, 1218.610
1028.794, 1219.010
1029.276, 1217.648
1029.758, 1213.714
1030.240, 1210.873
1030.723, 1209.933
1031.205, 1209.934
1031.687, 1210.403
1032.169, 1211.245
1032.651, 1212.320
1033.133, 1213.684
1033.615, 1214.723
1034.097, 1215.149
1034.579, 1215.870
1035.062, 1217.209
1035.544, 1218.624
1036.026, 1219.713
1036.508, 1220.644
1036.990, 1221.871
1037.472, 1223.592
1037.954, 1224.429
1038.436, 1223.478
1038.919, 1223.079
1039.401, 1223.762
1039.883, 1224.975
1040.365, 1226.724
1040.847, 1228.659
1041.329, 1229.992
1041.811, 1230.637
1042.293, 1231.234
1042.776, 1231.496
1043.258, 1232.166
1043.740, 1233.773
1044.222, 1235.454
1044.704, 1236.665
1045.186, 1237.549
1045.668, 1238.215
1046.150, 1238.502
1046.632, 1239.758
1047.115, 1242.992
1047.597, 1246.000
1048.079, 1248.425
1048.561, 1250.256
1049.043, 1251.062
1049.525, 1251.442
1050.007, 1252.641
1050.489, 1254.897
1050.971, 1256.627
1051.454, 1256.562
1051.936, 1257.232
1052.418, 1260.214
1052.900, 1263.387
1053.382, 1265.078
1053.864, 1265.904
1054.346, 1267.114
1054.828, 1268.897
1055.311, 1270.750
1055.793, 1272.462
1056.275, 1274.334
1056.757, 1276.265
1057.239, 1278.600
1057.721, 1282.016
1058.203, 1285.834
1058.685, 1288.834
1059.167, 1290.845
1059.650, 1292.952
1060.132, 1295.666
1060.614, 1298.329
1061.096, 1300.609
1061.578, 1302.840
1062.060, 1304.825
1062.542, 1307.163
1063.024, 1311.176
1063.506, 1316.874
1063.989, 1321.748
1064.471, 1324.521
1064.953, 1326.850
1065.435, 1329.317
1065.917, 1331.692
1066.399, 1333.879
1066.881, 1335.812
1067.363, 1337.678
1067.846, 1339.338
1068.328, 1339.676
1068.810, 1337.644
1069.292, 1335.341
1069.774, 1333.579
1070.256, 1332.040
1070.738, 1330.531
1071.220, 1329.068
1071.703, 1327.438
1072.185, 1325.808
1072.667, 1325.164
1073.149, 1326.535
1073.631, 1327.395
1074.113, 1326.090
1074.595, 1324.346
1075.077, 1323.051
1075.559, 1322.305
1076.042, 1322.388
1076.524, 1323.075
1077.006, 1323.342
1077.488, 1322.610
1077.970, 1322.173
1078.452, 1322.752
1078.934, 1323.705
1079.416, 1324.957
1079.898, 1326.088
1080.380, 1326.304
1080.863, 1325.970
1081.345, 1326.537
1081.827, 1328.657
1082.309, 1330.639
1082.791, 1331.574
1083.273, 1332.314
1083.755, 1333.076
1084.237, 1334.128
1084.720, 1335.801
1085.202, 1337.968
1085.684, 1340.453
1086.166, 1343.307
1086.648, 1345.360
1087.130, 1345.559
1087.612, 1345.520
1088.094, 1345.842
1088.577, 1346.527
1089.059, 1347.810
1089.541, 1349.360
1090.023, 1350.515
1090.505, 1351.151
1090.987, 1351.664
1091.469, 1351.852
1091.951, 1352.449
1092.433, 1354.300
1092.916, 1356.190
1093.398, 1357.126
1093.880, 1357.429
1094.362, 1357.592
1094.844, 1357.742
1095.326, 1358.264
1095.808, 1359.250
1096.290, 1360.673
1096.772, 1363.113
1097.255, 1365.355
1097.737, 1366.373
1098.219, 1366.886
1098.701, 1367.871
1099.183, 1369.360
1099.665, 1370.807
1100.147, 1371.724
1100.629, 1373.326
1101.112, 1377.107
1101.594, 1380.214
1102.076, 1380.492
1102.558, 1379.961
1103.040, 1380.786
1103.522, 1382.761
1104.004, 1384.536
1104.486, 1385.916
1104.969, 1387.097
1105.451, 1387.376
1105.933, 1388.418
1106.415, 1391.654
1106.897, 1395.099
1107.379, 1397.468
1107.861, 1398.731
1108.343, 1398.716
1108.825, 1397.021
1109.307, 1396.339
1109.790, 1396.919
1110.272, 1398.503
1110.754, 1402.454
1111.236, 1405.901
1111.718, 1406.521
1112.200, 1405.835
1112.682, 1406.382
1113.164, 1408.264
1113.647, 1409.891
1114.129, 1411.027
1114.611, 1412.314
1115.093, 1414.052
1115.575, 1415.599
1116.057, 1416.585
1116.539, 1417.340
1117.021, 1418.132
1117.504, 1419.008
1117.986, 1420.359
1118.468, 1422.537
1118.950, 1424.266
1119.432, 1425.037
1119.914, 1426.415
1120.396, 1429.424
1120.878, 1432.318
1121.360, 1433.510
1121.843, 1433.519
1122.325, 1433.878
1122.807, 1434.693
1123.289, 1435.048
1123.771, 1434.378
1124.253, 1435.377
1124.735, 1439.127
1125.217, 1443.195
1125.699, 1446.241
1126.182, 1448.202
1126.664, 1448.609
1127.146, 1447.648
1127.628, 1449.271
1128.110, 1454.002
1128.592, 1456.031
1129.074, 1454.143
1129.556, 1452.969
1130.039, 1454.622
1130.521, 1457.750
1131.003, 1460.963
1131.485, 1464.193
1131.967, 1467.299
1132.449, 1470.252
1132.931, 1472.559
1133.413, 1474.212
1133.896, 1475.268
1134.378, 1475.751
1134.860, 1476.109
1135.342, 1476.672
1135.824, 1477.431
1136.306, 1478.084
1136.788, 1478.957
1137.270, 1481.859
1137.752, 1486.247
1138.234, 1489.199
1138.717, 1490.408
1139.199, 1492.106
1139.681, 1495.454
1140.163, 1498.456
1140.645, 1498.502
1141.127, 1497.098
1141.609, 1496.728
1142.091, 1497.184
1142.574, 1497.839
1143.056, 1498.882
1143.538, 1501.659
1144.020, 1506.262
1144.502, 1509.803
1144.984, 1509.679
1145.466, 1509.043
1145.948, 1511.560
1146.431, 1515.184
1146.913, 1517.560
1147.395, 1518.954
1147.877, 1519.969
1148.359, 1520.858
1148.841, 1522.023
1149.323, 1523.742
1149.805, 1525.094
1150.287, 1524.730
1150.770, 1524.662
1151.252, 1526.747
1151.734, 1529.571
1152.216, 1531.850
1152.698, 1533.472
1153.180, 1534.305
1153.662, 1534.340
1154.144, 1535.352
1154.626, 1539.107
1155.109, 1542.291
1155.591, 1543.523
1156.073, 1544.181
1156.555, 1544.612
1157.037, 1545.319
1157.519, 1547.477
1158.001, 1550.693
1158.483, 1551.923
1158.966, 1549.101
1159.448, 1548.131
1159.930, 1550.371
1160.412, 1553.158
1160.894, 1556.411
1161.376, 1559.268
1161.858, 1560.724
1162.340, 1561.532
1162.822, 1563.441
1163.305, 1566.626
1163.787, 1569.034
1164.269, 1570.433
1164.751, 1571.723
1165.233, 1573.059
1165.715, 1574.108
1166.197, 1574.553
1166.679, 1575.030
1167.161, 1576.219
1167.644, 1578.142
1168.126, 1581.244
1168.608, 1585.601
1169.090, 1588.605
1169.572, 1590.118
1170.054, 1590.739
1170.536, 1590.600
1171.018, 1590.736
1171.500, 1591.870
1171.983, 1593.627
1172.465, 1595.616
1172.947, 1597.653
1173.429, 1599.010
1173.911, 1599.868
1174.393, 1600.846
1174.875, 1602.049
1175.357, 1603.558
1175.840, 1605.379
1176.322, 1607.066
1176.804, 1608.012
1177.286, 1609.206
1177.768, 1612.622
1178.250, 1616.521
1178.732, 1617.897
1179.214, 1617.942
1179.697, 1619.546
1180.179, 1622.707
1180.661, 1625.003
1181.143, 1625.320
1181.625, 1625.609
1182.107, 1627.385
1182.589, 1629.103
1183.071, 1629.333
1183.553, 1629.386
1184.036, 1630.563
1184.518, 1632.512
1185.000, 1634.604
1185.482, 1636.692
1185.964, 1638.136
1186.446, 1638.249
1186.928, 1638.620
1187.410, 1638.920
1187.892, 1640.290
1188.375, 1644.641
1188.857, 1649.035
1189.339, 1650.359
1189.821, 1649.720
1190.303, 1650.267
1190.785, 1652.236
1191.267, 1654.056
1191.749, 1655.875
1192.232, 1656.917
1192.714, 1656.465
1193.196, 1657.006
1193.678, 1659.922
1194.160, 1664.060
1194.642, 1668.234
1195.124, 1672.158
1195.606, 1674.631
1196.089, 1675.682
1196.571, 1676.009
1197.053, 1675.712
1197.535, 1676.418
1198.017, 1678.468
1198.499, 1680.256
1198.981, 1680.746
1199.463, 1681.143
1199.945, 1683.276
1200.427, 1686.254
1200.910, 1688.638
1201.392, 1690.340
1201.874, 1690.495
1202.356, 1689.885
1202.838, 1691.081
1203.320, 1694.532
1203.802, 1697.915
1204.284, 1699.880
1204.767, 1701.384
1205.249, 1703.265
1205.731, 1704.852
1206.213, 1705.196
1206.695, 1705.201
1207.177, 1705.775
1207.659, 1707.029
1208.141, 1709.102
1208.624, 1712.091
1209.106, 1714.543
1209.588, 1715.408
1210.070, 1716.744
1210.552, 1719.580
1211.034, 1722.285
1211.516, 1723.878
1211.998, 1725.083
1212.480, 1726.702
1212.963, 1728.499
1213.445, 1729.466
1213.927, 1729.166
1214.409, 1730.260
1214.891, 1733.183
1215.373, 1735.791
1215.855, 1737.778
1216.337, 1738.871
1216.819, 1738.807
1217.302, 1738.388
1217.784, 1738.488
1218.266, 1739.208
1218.748, 1741.416
1219.230, 1744.553
1219.712, 1745.155
1220.194, 1743.725
1220.676, 1743.963
1221.159, 1746.420
1221.641, 1748.355
1222.123, 1748.255
1222.605, 1748.213
1223.087, 1750.434
1223.569, 1753.697
1224.051, 1756.914
1224.533, 1760.052
1225.016, 1763.159
1225.498, 1766.052
1225.980, 1768.359
1226.462, 1770.048
1226.944, 1771.478
1227.426, 1772.588
1227.908, 1773.868
1228.390, 1775.143
1228.872, 1777.029
1229.354, 1780.745
1229.837, 1784.231
1230.319, 1785.428
1230.801, 1785.537
1231.283, 1786.736
1231.765, 1789.012
1232.247, 1791.383
1232.729, 1793.989
1233.211, 1796.324
1233.694, 1798.387
1234.176, 1800.312
1234.658, 1802.342
1235.140, 1803.189
1235.622, 1801.662
1236.104, 1799.490
1236.586, 1799.633
1237.068, 1801.666
1237.551, 1804.172
1238.033, 1806.937
1238.515, 1809.245
1238.997, 1810.919
1239.479, 1811.219
1239.961, 1810.239
1240.443, 1810.066
1240.925, 1812.029
1241.407, 1815.233
1241.890, 1820.351
1242.372, 1824.699
1242.854, 1824.389
1243.336, 1822.789
1243.818, 1824.262
1244.300, 1827.841
1244.782, 1830.715
1245.264, 1832.423
1245.746, 1833.819
1246.229, 1834.944
1246.711, 1836.094
1247.193, 1836.932
1247.675, 1838.337
1248.157, 1840.954
1248.639, 1843.786
1249.121, 1846.085
1249.603, 1848.182
1250.085, 1850.719
1250.568, 1853.651
1251.050, 1856.532
1251.532, 1859.445
1252.014, 1861.097
1252.496, 1861.336
1252.978, 1861.665
1253.460, 1862.539
1253.942, 1864.736
1254.425, 1868.941
1254.907, 1873.031
1255.389, 1873.130
1255.871, 1871.738
1256.353, 1873.770
1256.835, 1877.686
1257.317, 1880.902
1257.799, 1883.318
1258.281, 1885.444
1258.764, 1887.443
1259.246, 1889.421
1259.728, 1891.406
1260.210, 1893.445
1260.692, 1896.003
1261.174, 1898.048
1261.656, 1898.110
1262.138, 1898.477
1262.620, 1901.311
1263.103, 1905.369
1263.585, 1908.756
1264.067, 1911.465
1264.549, 1913.398
1265.031, 1914.227
1265.513, 1915.236
1265.995, 1916.251
1266.477, 1918.526
1266.960, 1922.705
1267.442, 1925.314
1267.924, 1924.232
1268.406, 1922.412
1268.888, 1923.347
1269.370, 1926.170
1269.852, 1929.502
1270.334, 1932.846
1270.817, 1934.732
1271.299, 1935.597
1271.781, 1936.605
1272.263, 1938.037
1272.745, 1940.065
1273.227, 1942.762
1273.709, 1944.848
1274.191, 1944.479
1274.673, 1944.850
1275.156, 1948.026
1275.638, 1951.950
1276.120, 1955.790
1276.602, 1959.213
1277.084, 1961.904
1277.566, 1963.923
1278.048, 1965.338
1278.530, 1965.975
1279.012, 1967.703
1279.495, 1970.461
1279.977, 1974.564
1280.459, 1980.749
1280.941, 1984.661
1281.423, 1984.456
1281.905, 1983.924
1282.387, 1986.115
1282.869, 1989.590
1283.352, 1992.282
1283.834, 1993.997
1284.316, 1994.160
1284.798, 1992.866
##END=



