##NAMES=Boleite
##RRUFFID=R050022
##IDEAL CHEMISTRY=KAg^1+^_9_Pb^2+^_26_Cu^2+^_24_Cl_62_(OH)_48_
##LOCALITY=Amelia mine, Boleo, Baja California, Mexico
##OWNER=RRUFF
##SOURCE=Eugene Schlepp
##DESCRIPTION=Dark blue colored interpenetrating cubes
##STATUS=The identification of this mineral has been confirmed by X-ray diffraction.
##URL=rruff.info/R050022
130.1796, 828.2997
130.6617, 873.7295
131.1439, 918.5880
131.6260, 962.1155
132.1081, 1004.138
132.5902, 1043.219
133.0723, 1079.297
133.5544, 1112.202
134.0366, 1143.261
134.5187, 1170.876
135.0008, 1191.013
135.4829, 1199.660
135.9650, 1197.827
136.4471, 1208.312
136.9293, 1242.321
137.4114, 1275.847
137.8935, 1299.273
138.3756, 1316.137
138.8577, 1336.043
139.3398, 1366.113
139.8220, 1406.555
140.3041, 1448.205
140.7862, 1486.311
141.2683, 1529.599
141.7504, 1581.397
142.2325, 1641.479
142.7147, 1708.304
143.1968, 1781.921
143.6789, 1862.297
144.1610, 1942.214
144.6431, 2016.256
145.1252, 2094.016
145.6074, 2185.062
146.0895, 2287.432
146.5716, 2388.090
147.0537, 2478.345
147.5358, 2556.486
148.0179, 2622.806
148.5001, 2665.406
148.9822, 2705.122
149.4643, 2762.422
149.9464, 2837.450
150.4285, 2905.699
150.9106, 2946.614
151.3928, 2960.599
151.8749, 2971.295
152.3570, 2981.492
152.8391, 2987.938
153.3212, 2986.311
153.8033, 2976.110
154.2855, 2963.834
154.7676, 2956.123
155.2497, 2950.844
155.7318, 2938.930
156.2139, 2913.988
156.6960, 2884.143
157.1782, 2858.122
157.6603, 2836.499
158.1424, 2817.646
158.6245, 2798.998
159.1066, 2782.151
159.5887, 2772.345
160.0709, 2772.802
160.5530, 2780.377
161.0351, 2792.315
161.5172, 2809.964
161.9993, 2826.465
162.4814, 2840.717
162.9636, 2850.440
163.4457, 2849.161
163.9278, 2823.166
164.4099, 2787.883
164.8920, 2774.865
165.3741, 2792.431
165.8563, 2808.988
166.3384, 2800.200
166.8205, 2777.427
167.3026, 2759.553
167.7847, 2758.150
168.2668, 2765.174
168.7490, 2762.926
169.2311, 2748.994
169.7132, 2730.773
170.1953, 2711.398
170.6774, 2690.860
171.1595, 2668.826
171.6417, 2644.230
172.1238, 2618.421
172.6059, 2594.779
173.0880, 2573.665
173.5701, 2554.148
174.0522, 2536.825
174.5344, 2520.282
175.0165, 2502.661
175.4986, 2482.664
175.9807, 2461.146
176.4628, 2440.209
176.9449, 2420.138
177.4271, 2400.119
177.9092, 2379.055
178.3913, 2358.048
178.8734, 2339.131
179.3555, 2324.140
179.8376, 2310.828
180.3197, 2291.501
180.8019, 2260.912
181.2840, 2233.682
181.7661, 2213.957
182.2482, 2199.670
182.7303, 2188.919
183.2124, 2181.295
183.6946, 2175.760
184.1767, 2169.257
184.6588, 2160.903
185.1409, 2153.213
185.6230, 2146.993
186.1051, 2141.669
186.5873, 2137.576
187.0694, 2135.629
187.5515, 2132.842
188.0336, 2119.607
188.5157, 2085.937
188.9978, 2059.387
189.4800, 2050.171
189.9621, 2048.229
190.4442, 2042.187
190.9263, 2026.672
191.4084, 2007.242
191.8905, 1998.510
192.3727, 2009.911
192.8548, 2015.190
193.3369, 2007.794
193.8190, 1994.282
194.3011, 1980.273
194.7832, 1967.958
195.2654, 1957.058
195.7475, 1947.167
196.2296, 1938.587
196.7117, 1930.397
197.1938, 1923.301
197.6759, 1916.022
198.1581, 1906.665
198.6402, 1894.684
199.1223, 1882.615
199.6044, 1875.654
200.0865, 1877.361
200.5686, 1877.173
201.0508, 1874.715
201.5329, 1870.082
202.0150, 1861.198
202.4971, 1848.114
202.9792, 1836.143
203.4613, 1836.202
203.9435, 1860.474
204.4256, 1868.655
204.9077, 1845.542
205.3898, 1817.638
205.8719, 1805.709
206.3540, 1812.517
206.8362, 1822.737
207.3183, 1812.716
207.8004, 1768.560
208.2825, 1740.089
208.7646, 1736.218
209.2467, 1739.230
209.7289, 1740.701
210.2110, 1738.854
210.6931, 1735.562
211.1752, 1733.704
211.6573, 1735.387
212.1395, 1730.487
212.6216, 1712.354
213.1037, 1693.829
213.5858, 1681.437
214.0679, 1675.002
214.5500, 1670.089
215.0322, 1661.555
215.5143, 1647.852
215.9964, 1641.240
216.4785, 1648.890
216.9606, 1656.844
217.4427, 1659.417
217.9249, 1657.561
218.4070, 1655.755
218.8891, 1658.321
219.3712, 1665.514
219.8533, 1667.755
220.3354, 1664.015
220.8176, 1655.872
221.2997, 1638.115
221.7818, 1616.213
222.2639, 1601.181
222.7460, 1602.323
223.2281, 1617.330
223.7103, 1621.200
224.1924, 1603.792
224.6745, 1585.292
225.1566, 1564.839
225.6387, 1546.860
226.1208, 1538.924
226.6030, 1546.723
227.0851, 1564.880
227.5672, 1570.354
228.0493, 1551.610
228.5314, 1534.966
229.0135, 1525.005
229.4957, 1519.393
229.9778, 1515.540
230.4599, 1512.319
230.9420, 1509.782
231.4241, 1508.734
231.9062, 1513.935
232.3884, 1511.803
232.8705, 1493.436
233.3526, 1472.064
233.8347, 1461.127
234.3168, 1464.714
234.7989, 1472.907
235.2811, 1467.281
235.7632, 1438.975
236.2453, 1417.835
236.7274, 1403.859
237.2095, 1398.313
237.6916, 1406.419
238.1738, 1427.335
238.6559, 1449.837
239.1380, 1460.257
239.6201, 1456.594
240.1022, 1447.883
240.5843, 1426.443
241.0665, 1406.560
241.5486, 1396.157
242.0307, 1394.732
242.5128, 1395.911
242.9949, 1393.719
243.4770, 1387.821
243.9592, 1382.439
244.4413, 1376.116
244.9234, 1371.836
245.4055, 1372.693
245.8876, 1376.755
246.3697, 1379.225
246.8519, 1376.545
247.3340, 1369.131
247.8161, 1360.629
248.2982, 1348.330
248.7803, 1338.740
249.2624, 1334.515
249.7446, 1334.079
250.2267, 1335.112
250.7088, 1336.819
251.1909, 1338.698
251.6730, 1339.592
252.1551, 1340.315
252.6373, 1338.166
253.1194, 1330.502
253.6015, 1320.631
254.0836, 1311.885
254.5657, 1305.400
255.0478, 1300.703
255.5300, 1297.635
256.0121, 1297.026
256.4942, 1294.899
256.9763, 1287.769
257.4584, 1280.030
257.9406, 1274.768
258.4227, 1272.661
258.9048, 1272.405
259.3869, 1273.665
259.8690, 1276.606
260.3511, 1276.897
260.8333, 1270.383
261.3154, 1263.930
261.7975, 1263.672
262.2796, 1269.344
262.7617, 1274.032
263.2438, 1270.947
263.7260, 1261.837
264.2081, 1257.495
264.6902, 1261.798
265.1723, 1266.759
265.6544, 1265.276
266.1365, 1259.309
266.6187, 1255.422
267.1008, 1258.842
267.5829, 1266.051
268.0650, 1270.186
268.5471, 1271.363
269.0292, 1268.564
269.5114, 1253.330
269.9935, 1234.182
270.4756, 1227.326
270.9577, 1246.522
271.4398, 1271.858
271.9219, 1279.408
272.4041, 1268.666
272.8862, 1257.259
273.3683, 1252.621
273.8504, 1253.628
274.3325, 1258.027
274.8146, 1269.133
275.2968, 1277.427
275.7789, 1272.844
276.2610, 1258.967
276.7431, 1251.326
277.2252, 1257.545
277.7073, 1269.572
278.1895, 1272.601
278.6716, 1264.060
279.1537, 1260.089
279.6358, 1270.809
280.1179, 1288.925
280.6000, 1302.432
281.0822, 1308.814
281.5643, 1309.878
282.0464, 1305.858
282.5285, 1296.102
283.0106, 1289.896
283.4927, 1288.586
283.9749, 1291.082
284.4570, 1298.830
284.9391, 1311.140
285.4212, 1320.885
285.9033, 1321.139
286.3854, 1312.124
286.8676, 1308.918
287.3497, 1317.315
287.8318, 1325.341
288.3139, 1327.841
288.7960, 1325.323
289.2781, 1319.303
289.7603, 1310.154
290.2424, 1298.918
290.7245, 1290.203
291.2066, 1288.054
291.6887, 1283.263
292.1708, 1270.854
292.6530, 1256.329
293.1351, 1247.629
293.6172, 1247.418
294.0993, 1250.440
294.5814, 1247.330
295.0635, 1234.090
295.5457, 1221.813
296.0278, 1210.807
296.5099, 1200.532
296.9920, 1190.759
297.4741, 1181.380
297.9562, 1172.489
298.4384, 1164.306
298.9205, 1157.099
299.4026, 1148.578
299.8847, 1135.516
300.3668, 1124.392
300.8489, 1118.525
301.3311, 1116.331
301.8131, 1113.993
302.2953, 1108.655
302.7774, 1101.503
303.2595, 1099.106
303.7416, 1107.501
304.2237, 1111.634
304.7058, 1106.387
305.1880, 1096.681
305.6701, 1087.575
306.1522, 1080.929
306.6343, 1075.598
307.1164, 1069.004
307.5985, 1059.782
308.0807, 1054.530
308.5628, 1059.433
309.0449, 1065.240
309.5270, 1065.923
310.0091, 1061.188
310.4912, 1055.765
310.9734, 1053.372
311.4555, 1053.854
311.9376, 1055.919
312.4197, 1060.880
312.9018, 1065.380
313.3839, 1068.355
313.8661, 1069.447
314.3482, 1067.485
314.8303, 1060.096
315.3124, 1050.137
315.7945, 1042.159
316.2766, 1036.089
316.7588, 1032.546
317.2409, 1033.651
317.7230, 1037.037
318.2051, 1039.031
318.6872, 1039.778
319.1693, 1038.052
319.6515, 1029.323
320.1336, 1016.146
320.6157, 1010.793
321.0978, 1019.573
321.5799, 1034.627
322.0620, 1044.243
322.5442, 1048.602
323.0263, 1049.295
323.5084, 1043.496
323.9905, 1035.667
324.4726, 1032.234
324.9547, 1034.243
325.4369, 1037.015
325.9190, 1035.625
326.4011, 1029.512
326.8832, 1027.008
327.3653, 1029.345
327.8474, 1033.966
328.3296, 1043.136
328.8117, 1053.907
329.2938, 1057.013
329.7759, 1045.772
330.2580, 1024.902
330.7401, 1016.188
331.2223, 1032.741
331.7044, 1045.238
332.1865, 1048.915
332.6686, 1047.901
333.1507, 1046.868
333.6328, 1047.177
334.1150, 1046.673
334.5971, 1041.192
335.0792, 1026.178
335.5613, 1018.893
336.0434, 1027.047
336.5255, 1035.178
337.0077, 1032.705
337.4898, 1022.418
337.9719, 1015.535
338.4540, 1022.359
338.9361, 1040.775
339.4182, 1051.450
339.9004, 1049.590
340.3825, 1046.564
340.8646, 1046.185
341.3467, 1046.585
341.8288, 1044.940
342.3109, 1039.823
342.7931, 1034.046
343.2752, 1032.902
343.7573, 1037.499
344.2394, 1038.663
344.7215, 1031.311
345.2036, 1021.943
345.6858, 1015.265
346.1679, 1011.543
346.6500, 1009.648
347.1321, 1010.118
347.6142, 1011.857
348.0963, 1011.302
348.5785, 1007.245
349.0606, 1003.633
349.5427, 1006.216
350.0248, 1012.077
350.5069, 1012.024
350.9890, 997.5141
351.4712, 981.9910
351.9533, 976.2016
352.4354, 979.1472
352.9175, 986.2309
353.3996, 996.9900
353.8817, 1008.606
354.3639, 1013.049
354.8460, 1008.452
355.3281, 1002.560
355.8102, 992.9545
356.2923, 984.7958
356.7744, 986.7504
357.2566, 999.9827
357.7387, 1014.589
358.2208, 1019.227
358.7029, 1011.718
359.1850, 1005.927
359.6671, 1002.566
360.1493, 999.9474
360.6314, 997.7484
361.1135, 995.6852
361.5956, 992.5817
362.0777, 987.3006
362.5598, 981.9548
363.0420, 985.0860
363.5241, 1006.977
364.0062, 1020.618
364.4883, 1021.637
364.9704, 1014.935
365.4525, 1001.508
365.9347, 982.8403
366.4168, 965.8345
366.8989, 959.5308
367.3810, 964.6019
367.8631, 968.4456
368.3452, 970.3313
368.8274, 971.1718
369.3095, 970.5068
369.7916, 969.2390
370.2737, 969.5706
370.7558, 973.4583
371.2379, 978.7718
371.7201, 982.3015
372.2022, 984.0895
372.6843, 983.4821
373.1664, 978.2410
373.6485, 971.5922
374.1306, 969.0447
374.6128, 972.3404
375.0949, 974.0432
375.5770, 969.5051
376.0591, 960.7903
376.5412, 950.5346
377.0233, 938.6674
377.5055, 930.2086
377.9876, 932.2600
378.4697, 946.2850
378.9518, 952.6512
379.4339, 943.6616
379.9160, 933.6611
380.3982, 932.7205
380.8803, 938.0427
381.3624, 940.2275
381.8445, 933.7589
382.3266, 922.2053
382.8087, 916.3993
383.2909, 925.9686
383.7730, 928.6608
384.2551, 916.9386
384.7372, 902.8539
385.2193, 896.1285
385.7014, 898.2642
386.1836, 904.9490
386.6657, 913.4344
387.1478, 924.2485
387.6299, 925.5931
388.1120, 904.1619
388.5941, 888.6647
389.0763, 893.1146
389.5584, 908.2896
390.0405, 920.1863
390.5226, 923.4524
391.0047, 919.3365
391.4868, 906.7529
391.9690, 884.2081
392.4511, 867.9669
392.9332, 863.9051
393.4153, 866.9056
393.8974, 873.1939
394.3795, 882.5903
394.8617, 890.5389
395.3438, 893.3494
395.8259, 893.7883
396.3080, 897.3790
396.7901, 904.8430
397.2722, 910.6198
397.7544, 910.1557
398.2365, 904.5997
398.7186, 900.9714
399.2007, 898.0394
399.6828, 898.3434
400.1649, 906.5201
400.6471, 917.7434
401.1292, 923.1838
401.6113, 919.9255
402.0934, 913.4162
402.5755, 912.1738
403.0576, 920.1271
403.5398, 921.0506
404.0219, 906.5006
404.5040, 893.7502
404.9861, 896.8168
405.4682, 909.3090
405.9503, 912.4887
406.4325, 892.3742
406.9146, 859.0358
407.3967, 850.7891
407.8788, 884.0384
408.3609, 908.7798
408.8430, 908.2629
409.3252, 900.9664
409.8073, 902.9275
410.2894, 915.9999
410.7715, 927.0801
411.2536, 922.1487
411.7357, 904.6615
412.2179, 892.9227
412.7000, 889.8661
413.1821, 888.4136
413.6642, 883.5978
414.1463, 876.9154
414.6284, 871.3467
415.1106, 867.1733
415.5927, 864.5471
416.0748, 864.2477
416.5569, 865.6602
417.0390, 866.7375
417.5211, 866.6391
418.0033, 866.4880
418.4854, 867.9467
418.9675, 871.3302
419.4496, 875.4838
419.9317, 881.7160
420.4138, 887.5826
420.8960, 892.6192
421.3781, 895.9915
421.8602, 895.3505
422.3423, 888.7149
422.8244, 877.8752
423.3065, 870.4719
423.7887, 866.6946
424.2708, 866.4467
424.7529, 873.5909
425.2350, 881.3082
425.7171, 883.0967
426.1992, 878.5861
426.6814, 873.4604
427.1635, 873.8458
427.6456, 879.1274
428.1277, 881.6725
428.6098, 880.2031
429.0919, 878.4264
429.5741, 877.3425
430.0562, 877.4039
430.5383, 879.9769
431.0204, 886.9626
431.5025, 893.0937
431.9846, 893.6993
432.4668, 889.7729
432.9489, 884.6840
433.4310, 879.1448
433.9131, 873.0219
434.3952, 864.6314
434.8773, 853.2438
435.3595, 849.8296
435.8416, 867.4103
436.3237, 881.9606
436.8058, 874.2195
437.2879, 851.2148
437.7701, 832.7709
438.2522, 829.3359
438.7343, 834.6385
439.2164, 832.3539
439.6985, 814.1646
440.1806, 803.3394
440.6628, 805.2418
441.1449, 809.5791
441.6270, 810.5004
442.1091, 807.6149
442.5912, 802.7145
443.0733, 795.8124
443.5555, 788.4735
444.0376, 787.6249
444.5197, 795.7369
445.0018, 803.4440
445.4839, 808.5509
445.9660, 810.7349
446.4482, 807.9202
446.9303, 798.9392
447.4124, 792.3241
447.8945, 794.8553
448.3766, 803.1597
448.8587, 810.1097
449.3409, 814.6812
449.8230, 819.7123
450.3051, 828.2046
450.7872, 839.4681
451.2693, 846.7833
451.7514, 846.6577
452.2336, 846.9678
452.7157, 852.3452
453.1978, 858.9579
453.6799, 861.2708
454.1620, 857.7505
454.6441, 850.7953
455.1263, 842.7821
455.6084, 832.7579
456.0905, 827.1313
456.5726, 833.5187
457.0547, 836.5900
457.5368, 827.4760
458.0190, 812.9631
458.5011, 804.0551
458.9832, 805.5971
459.4653, 813.3028
459.9474, 823.3976
460.4295, 835.9607
460.9117, 842.7018
461.3938, 840.3019
461.8759, 833.8401
462.3580, 826.0048
462.8401, 817.4777
463.3222, 812.3210
463.8044, 813.8539
464.2865, 817.4484
464.7686, 820.9691
465.2507, 823.4104
465.7328, 820.2131
466.2149, 808.4532
466.6971, 793.3616
467.1792, 785.1637
467.6613, 786.2611
468.1434, 789.9950
468.6255, 799.4943
469.1076, 808.8760
469.5898, 815.3979
470.0719, 818.5724
470.5540, 818.1931
471.0361, 813.9599
471.5182, 806.5920
472.0003, 797.3585
472.4825, 784.5908
472.9646, 774.6918
473.4467, 767.6797
473.9288, 765.2048
474.4109, 771.3367
474.8930, 784.9589
475.3752, 796.5000
475.8573, 797.7497
476.3394, 794.5053
476.8215, 798.3791
477.3036, 809.6946
477.7857, 817.0482
478.2679, 813.3084
478.7500, 803.1830
479.2321, 798.3950
479.7142, 801.5468
480.1963, 802.7114
480.6784, 795.6392
481.1606, 788.7074
481.6427, 790.6255
482.1248, 801.0073
482.6069, 813.5451
483.0890, 824.1459
483.5711, 832.3401
484.0533, 835.3124
484.5354, 828.4412
485.0175, 823.8875
485.4996, 825.5604
485.9817, 828.4174
486.4638, 827.2565
486.9460, 822.1929
487.4281, 819.1153
487.9102, 825.5983
488.3923, 837.4705
488.8744, 840.8741
489.3565, 834.2338
489.8387, 827.5242
490.3208, 824.8785
490.8029, 825.9052
491.2850, 829.9775
491.7671, 839.3665
492.2492, 845.2717
492.7314, 842.3312
493.2135, 835.6566
493.6956, 828.8442
494.1777, 823.3840
494.6598, 823.8864
495.1419, 835.1420
495.6241, 854.5278
496.1062, 865.0894
496.5883, 858.2781
497.0704, 854.2896
497.5525, 858.5573
498.0346, 863.9418
498.5168, 863.2659
498.9989, 856.5756
499.4810, 850.7969
499.9631, 853.2895
500.4452, 861.1993
500.9273, 863.1925
501.4095, 858.0457
501.8916, 852.0835
502.3737, 847.7363
502.8558, 844.3090
503.3379, 840.9752
503.8200, 838.0815
504.3022, 833.7878
504.7843, 823.1089
505.2664, 813.1387
505.7485, 815.2828
506.2306, 828.3743
506.7127, 838.9633
507.1949, 837.8691
507.6770, 827.4481
508.1591, 817.8047
508.6412, 804.6169
509.1233, 798.9828
509.6054, 810.1254
510.0876, 821.9992
510.5697, 821.1074
511.0518, 808.6038
511.5339, 796.0325
512.0161, 791.5206
512.4982, 792.9937
512.9803, 795.5613
513.4624, 799.6163
513.9445, 802.2701
514.4266, 802.3621
514.9088, 800.6107
515.3909, 798.5440
515.8730, 796.3731
516.3551, 791.4533
516.8372, 778.0089
517.3193, 765.1224
517.8015, 762.9424
518.2836, 769.5704
518.7657, 775.5047
519.2478, 775.6678
519.7299, 772.2697
520.2120, 770.1194
520.6942, 766.2255
521.1763, 769.6680
521.6584, 791.7782
522.1405, 809.7917
522.6226, 804.6750
523.1047, 785.3448
523.5869, 776.9863
524.0690, 796.3922
524.5511, 825.2769
525.0332, 830.4364
525.5153, 812.0707
525.9974, 803.2265
526.4796, 815.8896
526.9617, 833.6293
527.4438, 837.6919
527.9259, 829.9260
528.4080, 825.4259
528.8901, 829.2591
529.3723, 833.9695
529.8544, 834.9488
530.3365, 833.6575
530.8186, 832.5604
531.3007, 832.5803
531.7828, 834.6870
532.2650, 840.9512
532.7471, 852.7560
533.2292, 860.2136
533.7113, 860.6778
534.1934, 859.6100
534.6755, 855.5845
535.1577, 852.2203
535.6398, 855.8658
536.1219, 869.1747
536.6040, 881.6699
537.0861, 882.2556
537.5682, 874.1376
538.0504, 866.7966
538.5325, 861.0530
539.0146, 858.5915
539.4967, 861.8816
539.9788, 869.4401
540.4609, 873.7446
540.9431, 872.5995
541.4252, 871.6585
541.9073, 871.0287
542.3894, 871.7678
542.8715, 877.9891
543.3536, 887.8333
543.8358, 891.3879
544.3179, 878.9340
544.8000, 855.6211
545.2821, 844.9718
545.7642, 851.6801
546.2463, 858.2272
546.7285, 860.5786
547.2106, 860.8466
547.6927, 859.2692
548.1748, 856.3442
548.6569, 856.1642
549.1390, 864.9810
549.6211, 874.2876
550.1032, 873.7079
550.5853, 864.9052
551.0674, 855.2695
551.5496, 847.3588
552.0317, 841.6204
552.5138, 839.1735
552.9959, 841.9884
553.4780, 841.3248
553.9601, 833.7362
554.4423, 826.8679
554.9244, 823.6187
555.4065, 823.1634
555.8886, 824.1042
556.3707, 825.9540
556.8528, 828.4215
557.3350, 830.0820
557.8171, 831.5133
558.2992, 839.5195
558.7813, 858.3847
559.2634, 871.8337
559.7455, 864.1691
560.2277, 843.3741
560.7098, 836.0281
561.1919, 852.1645
561.6740, 864.4711
562.1561, 861.4685
562.6382, 852.2250
563.1204, 844.0184
563.6025, 838.9733
564.0846, 839.5511
564.5667, 848.3638
565.0488, 862.7757
565.5309, 872.5972
566.0131, 877.0203
566.4952, 878.8830
566.9773, 877.0908
567.4594, 874.0473
567.9415, 870.1886
568.4236, 866.1193
568.9058, 864.0109
569.3879, 864.8300
569.8700, 867.9555
570.3521, 874.7673
570.8342, 883.5988
571.3163, 887.4794
571.7985, 883.7600
572.2806, 880.1415
572.7627, 887.3775
573.2448, 907.9238
573.7269, 916.0520
574.2090, 896.3243
574.6912, 883.3459
575.1733, 893.7313
575.6554, 911.1578
576.1375, 914.4456
576.6196, 900.1365
577.1017, 886.7321
577.5839, 895.6207
578.0660, 918.7892
578.5481, 928.7134
579.0302, 924.0266
579.5123, 913.5025
579.9944, 895.6713
580.4766, 879.0918
580.9587, 884.4511
581.4408, 918.9127
581.9229, 941.2994
582.4050, 936.3781
582.8871, 926.2737
583.3693, 926.3906
583.8514, 932.9522
584.3335, 934.1595
584.8156, 924.5504
585.2977, 912.1121
585.7798, 911.3654
586.2620, 923.9045
586.7441, 928.5668
587.2262, 918.8978
587.7083, 910.3221
588.1904, 914.9498
588.6725, 925.5591
589.1547, 929.8951
589.6368, 923.8732
590.1189, 918.1286
590.6010, 918.8477
591.0831, 922.1396
591.5652, 923.3937
592.0474, 922.1713
592.5295, 919.6000
593.0116, 916.2768
593.4937, 912.5643
593.9758, 909.4577
594.4579, 906.7571
594.9401, 905.1760
595.4222, 903.6018
595.9043, 904.3312
596.3864, 911.2014
596.8685, 921.2748
597.3506, 926.9307
597.8328, 923.5490
598.3149, 918.3968
598.7970, 917.4306
599.2791, 919.8658
599.7612, 925.8010
600.2433, 935.3044
600.7255, 939.6287
601.2076, 930.0484
601.6897, 908.7689
602.1718, 893.7899
602.6539, 887.5423
603.1360, 884.7338
603.6182, 889.7781
604.1003, 894.2824
604.5824, 890.7101
605.0645, 880.2964
605.5466, 870.0513
606.0287, 862.3376
606.5109, 859.1536
606.9930, 866.8857
607.4751, 883.6768
607.9572, 894.5500
608.4393, 895.5737
608.9214, 890.4902
609.4036, 880.8738
609.8857, 866.7185
610.3678, 861.8331
610.8499, 875.7422
611.3320, 885.9463
611.8141, 883.1274
612.2963, 876.7276
612.7784, 877.1348
613.2605, 884.7534
613.7426, 892.1265
614.2247, 894.0297
614.7068, 891.3667
615.1890, 873.6965
615.6711, 887.4142
616.1532, 895.1929
616.6353, 897.3519
617.1174, 877.0590
617.5995, 885.7580
618.0817, 882.8384
618.5638, 879.4423
619.0459, 892.2217
619.5280, 875.1945
620.0101, 887.7174
620.4922, 888.4445
620.9744, 886.1906
621.4565, 885.0964
621.9386, 884.9366
622.4207, 888.4075
622.9028, 893.7993
623.3849, 893.4713
623.8671, 886.2048
624.3492, 880.4146
624.8313, 879.3023
625.3134, 879.9646
625.7955, 879.8494
626.2776, 878.9880
626.7598, 875.1254
627.2419, 860.2782
627.7240, 850.6564
628.2061, 858.9207
628.6882, 875.8445
629.1703, 888.9395
629.6525, 894.7908
630.1346, 895.6597
630.6167, 893.3483
631.0988, 887.9821
631.5809, 879.3995
632.0630, 866.0714
632.5452, 855.2375
633.0273, 848.0609
633.5094, 845.3594
633.9915, 849.9504
634.4736, 861.3186
634.9557, 869.1104
635.4379, 869.4579
635.9200, 867.5867
636.4021, 866.2191
636.8842, 864.6234
637.3663, 860.6658
637.8484, 854.2759
638.3306, 848.8030
638.8127, 847.9381
639.2948, 850.8433
639.7769, 852.6503
640.2590, 853.5402
640.7411, 852.5704
641.2233, 848.0189
641.7054, 842.8817
642.1875, 840.5911
642.6696, 840.8750
643.1517, 840.4080
643.6339, 833.6516
644.1160, 831.1586
644.5981, 845.8298
645.0802, 865.7092
645.5623, 869.8772
646.0444, 855.5912
646.5266, 840.0256
647.0087, 839.8558
647.4908, 851.3320
647.9729, 856.3335
648.4550, 852.9784
648.9371, 850.5225
649.4193, 851.3437
649.9014, 853.8447
650.3835, 857.6104
650.8656, 862.1771
651.3477, 864.0444
651.8298, 862.2156
652.3120, 858.0509
652.7941, 848.6281
653.2762, 838.9656
653.7583, 836.1951
654.2404, 841.0005
654.7225, 849.0812
655.2047, 857.6904
655.6868, 865.9417
656.1689, 870.5689
656.6510, 871.1787
657.1331, 870.3510
657.6152, 867.5413
658.0974, 864.9891
658.5795, 865.3665
659.0616, 867.9232
659.5437, 869.2958
660.0258, 867.8526
660.5079, 866.8436
660.9901, 868.9915
661.4722, 871.0850
661.9543, 868.4274
662.4364, 861.8727
662.9185, 857.1315
663.4006, 858.4077
663.8828, 862.6342
664.3649, 863.2595
664.8470, 860.1971
665.3291, 855.7429
665.8112, 848.6827
666.2933, 844.1007
666.7755, 847.5820
667.2576, 856.7602
667.7397, 861.0539
668.2218, 856.6639
668.7039, 853.6026
669.1860, 854.6710
669.6682, 857.0466
670.1503, 859.4583
670.6324, 861.1727
671.1145, 860.1990
671.5966, 855.0105
672.0787, 850.7887
672.5609, 858.0381
673.0430, 874.2679
673.5251, 880.5349
674.0072, 873.8268
674.4893, 864.0333
674.9714, 855.4424
675.4536, 848.9374
675.9357, 847.2600
676.4178, 853.5411
676.8999, 857.8126
677.3820, 858.7546
677.8641, 858.7292
678.3463, 857.9348
678.8284, 857.3542
679.3105, 858.9437
679.7926, 863.3155
680.2747, 867.1960
680.7568, 867.5655
681.2390, 865.1283
681.7211, 859.5637
682.2032, 851.3504
682.6853, 849.5906
683.1674, 859.8831
683.6495, 872.9233
684.1317, 873.4095
684.6138, 857.8390
685.0959, 848.2689
685.5780, 849.0685
686.0601, 850.6012
686.5422, 851.7496
687.0244, 851.7957
687.5065, 849.3019
687.9886, 844.4523
688.4707, 840.6495
688.9528, 839.1389
689.4349, 840.1726
689.9171, 845.2665
690.3992, 853.1416
690.8813, 860.7294
691.3634, 867.1125
691.8455, 870.7910
692.3276, 869.6437
692.8098, 864.4907
693.2919, 863.1670
693.7740, 869.2653
694.2561, 871.0900
694.7382, 858.9413
695.2203, 848.7384
695.7025, 853.7480
696.1846, 870.3137
696.6667, 884.3368
697.1488, 895.2050
697.6309, 898.5288
698.1130, 885.5238
698.5952, 867.2615
699.0773, 857.6769
699.5594, 857.3091
700.0415, 859.8920
700.5236, 862.0535
701.0057, 862.2234
701.4879, 854.5980
701.9700, 838.3311
702.4521, 832.9854
702.9342, 844.3733
703.4163, 856.1909
703.8984, 858.0179
704.3806, 854.0338
704.8627, 854.6804
705.3448, 862.1674
705.8269, 867.5976
706.3090, 868.6843
706.7911, 868.4886
707.2733, 868.3024
707.7554, 868.2917
708.2375, 869.8585
708.7196, 873.0677
709.2017, 872.3875
709.6838, 856.1405
710.1660, 833.5759
710.6481, 832.0639
711.1302, 850.5103
711.6123, 863.7776
712.0944, 862.4278
712.5765, 854.7358
713.0587, 850.2189
713.5408, 848.8779
714.0229, 850.8889
714.5050, 864.3005
714.9871, 869.8447
715.4692, 855.5659
715.9514, 839.4633
716.4335, 838.5644
716.9156, 850.2900
717.3977, 857.4666
717.8798, 849.4694
718.3619, 840.0013
718.8441, 841.2401
719.3262, 847.9271
719.8083, 850.6786
720.2904, 848.7556
720.7725, 847.8603
721.2546, 852.1635
721.7368, 858.4952
722.2189, 858.0958
722.7010, 849.3356
723.1831, 845.5803
723.6652, 850.3591
724.1473, 855.2080
724.6295, 855.2425
725.1116, 852.2097
725.5937, 849.6279
726.0758, 847.3710
726.5579, 846.1078
727.0400, 843.6401
727.5222, 844.5383
728.0043, 855.3159
728.4864, 869.8990
728.9685, 878.7267
729.4506, 879.2725
729.9327, 875.7115
730.4149, 869.3381
730.8970, 862.5272
731.3791, 863.1124
731.8612, 869.8203
732.3433, 868.9562
732.8254, 855.3933
733.3076, 840.8246
733.7897, 837.7730
734.2718, 845.1681
734.7539, 848.7506
735.2360, 847.6163
735.7181, 844.0911
736.2003, 834.0261
736.6824, 825.8037
737.1645, 825.6670
737.6466, 831.5156
738.1287, 837.8399
738.6108, 845.4802
739.0930, 847.7452
739.5751, 834.4196
740.0572, 818.0181
740.5393, 813.6035
741.0214, 819.9655
741.5035, 829.3399
741.9857, 838.0771
742.4678, 844.9482
742.9499, 846.6111
743.4320, 843.7321
743.9141, 847.7316
744.3962, 861.2282
744.8784, 866.9648
745.3605, 854.6671
745.8426, 836.9376
746.3247, 831.6180
746.8068, 840.5858
747.2889, 844.3511
747.7711, 839.2762
748.2532, 834.0670
748.7353, 829.3629
749.2174, 826.4123
749.6995, 827.5643
750.1816, 831.6998
750.6638, 833.8989
751.1459, 830.0818
751.6280, 826.8790
752.1101, 834.6901
752.5922, 845.9575
753.0743, 842.6771
753.5565, 825.6069
754.0386, 815.0592
754.5207, 823.7913
755.0028, 839.8002
755.4849, 836.3571
755.9670, 809.7094
756.4492, 801.3733
756.9313, 821.0276
757.4134, 836.1304
757.8955, 828.8894
758.3776, 812.1865
758.8597, 806.7840
759.3419, 814.1103
759.8240, 815.9841
760.3061, 801.5569
760.7882, 792.7047
761.2703, 805.9227
761.7524, 823.4196
762.2346, 822.6721
762.7167, 805.1707
763.1988, 793.1147
763.6809, 801.6386
764.1630, 816.4677
764.6451, 822.3319
765.1273, 821.4423
765.6094, 817.1665
766.0915, 810.8790
766.5736, 809.5067
767.0557, 817.9113
767.5378, 831.1481
768.0200, 839.1337
768.5021, 841.8787
768.9842, 838.3220
769.4663, 824.8591
769.9484, 812.7878
770.4305, 807.6231
770.9127, 806.1048
771.3948, 802.6190
771.8769, 796.5927
772.3590, 795.8494
772.8411, 804.5983
773.3232, 814.8340
773.8054, 829.7187
774.2875, 840.4173
774.7696, 832.1810
775.2517, 809.0286
775.7338, 794.1547
776.2159, 803.7324
776.6981, 819.3685
777.1802, 819.3051
777.6623, 809.8327
778.1444, 805.5153
778.6265, 807.6465
779.1086, 809.6633
779.5908, 807.6066
780.0729, 805.4379
780.5550, 812.5286
781.0371, 830.7823
781.5192, 838.4270
782.0013, 832.7959
782.4835, 823.2200
782.9656, 809.3199
783.4477, 796.8596
783.9298, 794.7289
784.4119, 803.1729
784.8940, 809.1895
785.3762, 810.4059
785.8583, 811.5027
786.3404, 817.4194
786.8225, 820.8210
787.3046, 810.9442
787.7867, 792.5752
788.2689, 782.4301
788.7510, 788.7495
789.2331, 800.8605
789.7152, 812.5717
790.1973, 822.8213
790.6794, 832.3045
791.1616, 839.2029
791.6437, 834.5255
792.1258, 814.3397
792.6079, 791.9520
793.0900, 786.6375
793.5721, 796.2949
794.0543, 798.9960
794.5364, 793.1437
795.0185, 791.1412
795.5006, 798.6707
795.9827, 806.4298
796.4648, 803.8489
796.9470, 792.4151
797.4291, 788.2345
797.9112, 798.1901
798.3933, 805.6304
798.8754, 808.5562
799.3575, 810.0609
799.8397, 812.1527
800.3218, 814.0371
800.8039, 813.9554
801.2860, 811.3624
801.7681, 807.8401
802.2502, 802.8838
802.7324, 798.4879
803.2145, 796.8841
803.6966, 797.0713
804.1787, 797.2986
804.6608, 796.9904
805.1429, 796.0236
805.6251, 794.3090
806.1072, 791.8472
806.5893, 787.3820
807.0714, 781.6162
807.5535, 780.8131
808.0356, 786.3125
808.5178, 792.2391
808.9999, 794.6779
809.4820, 794.9937
809.9641, 796.7874
810.4462, 801.0936
810.9283, 802.9960
811.4105, 801.0585
811.8926, 799.0499
812.3747, 797.8322
812.8568, 797.6699
813.3389, 800.1433
813.8210, 805.1902
814.3032, 805.9837
814.7853, 796.1943
815.2674, 788.7892
815.7495, 788.8612
816.2316, 792.6980
816.7137, 798.5767
817.1959, 804.9971
817.6780, 809.4938
818.1601, 811.1744
818.6422, 810.0351
819.1243, 802.9799
819.6064, 794.8474
820.0886, 793.3466
820.5707, 797.7864
821.0528, 805.5562
821.5349, 815.4107
822.0170, 821.6410
822.4991, 816.1114
822.9813, 802.7630
823.4634, 799.0601
823.9455, 805.4143
824.4276, 813.2270
824.9097, 821.7476
825.3918, 827.3814
825.8740, 827.1299
826.3561, 822.1304
826.8382, 815.9266
827.3203, 806.6006
827.8024, 800.5173
828.2845, 799.3015
828.7667, 799.3962
829.2488, 799.0770
829.7309, 799.6049
830.2130, 804.4030
830.6951, 813.5084
831.1772, 816.2805
831.6594, 802.6584
832.1415, 791.4087
832.6236, 794.9534
833.1057, 801.6390
833.5878, 797.7379
834.0699, 785.6457
834.5521, 777.3507
835.0342, 778.3864
835.5163, 783.3135
835.9984, 789.4421
836.4805, 794.9272
836.9626, 796.3647
837.4448, 794.3100
837.9269, 789.9471
838.4090, 784.0630
838.8911, 782.1499
839.3732, 791.9620
839.8553, 808.7153
840.3375, 813.1383
840.8196, 804.9191
841.3017, 801.6822
841.7838, 807.9531
842.2659, 811.8881
842.7480, 804.0566
843.2302, 790.2089
843.7123, 785.4474
844.1944, 794.1175
844.6765, 797.1490
845.1586, 790.2117
845.6407, 784.0914
846.1229, 781.5510
846.6050, 782.0826
847.0871, 786.9537
847.5692, 795.5289
848.0513, 800.5079
848.5334, 798.3898
849.0156, 795.9908
849.4977, 796.1303
849.9798, 795.7996
850.4619, 790.5425
850.9440, 783.4146
851.4261, 781.8369
851.9083, 788.4048
852.3904, 795.2592
852.8725, 796.5087
853.3546, 796.1262
853.8367, 800.8373
854.3188, 806.4553
854.8010, 802.1196
855.2831, 787.4033
855.7652, 773.7841
856.2473, 769.3148
856.7294, 771.8225
857.2115, 780.5937
857.6937, 793.3320
858.1758, 799.2148
858.6579, 797.3635
859.1400, 793.8058
859.6221, 791.2917
860.1042, 788.6567
860.5864, 784.0119
861.0685, 777.4857
861.5506, 771.3446
862.0327, 764.3678
862.5148, 762.7301
862.9969, 768.6482
863.4791, 778.9899
863.9612, 794.6782
864.4433, 812.0038
864.9254, 816.7164
865.4075, 798.7147
865.8896, 789.2288
866.3718, 795.7350
866.8539, 801.4080
867.3360, 799.0204
867.8181, 793.6332
868.3002, 790.4120
868.7823, 789.7965
869.2645, 791.2151
869.7466, 799.7629
870.2287, 803.5206
870.7108, 793.3209
871.1929, 780.2004
871.6750, 771.4422
872.1572, 768.5483
872.6393, 774.0546
873.1214, 789.2137
873.6035, 803.0161
874.0856, 808.2668
874.5677, 807.4488
875.0499, 799.9098
875.5320, 789.5453
876.0141, 784.0966
876.4962, 784.7833
876.9783, 788.8480
877.4604, 795.4473
877.9426, 800.2495
878.4247, 793.1743
878.9068, 778.3234
879.3889, 771.1558
879.8710, 772.4189
880.3531, 777.9510
880.8353, 786.4103
881.3174, 792.9533
881.7995, 790.7260
882.2816, 781.8674
882.7637, 781.2457
883.2458, 790.5606
883.7280, 794.7596
884.2101, 789.7759
884.6922, 784.9935
885.1743, 787.3243
885.6564, 792.7311
886.1385, 791.5598
886.6207, 780.6486
887.1028, 777.8500
887.5849, 790.2393
888.0670, 799.2748
888.5491, 796.4958
889.0313, 791.6494
889.5134, 794.8202
889.9955, 803.5500
890.4776, 806.4560
890.9597, 799.5854
891.4418, 792.6716
891.9240, 782.4531
892.4061, 777.4545
892.8882, 787.2360
893.3703, 802.2192
893.8524, 809.6031
894.3345, 807.8758
894.8167, 803.4666
895.2988, 793.9730
895.7809, 788.4831
896.2630, 796.4031
896.7451, 807.2672
897.2272, 809.8702
897.7094, 805.7723
898.1915, 801.9535
898.6736, 800.9148
899.1557, 799.6779
899.6378, 794.7560
900.1199, 789.2218
900.6021, 786.0914
901.0842, 785.5472
901.5663, 789.2912
902.0484, 796.4251
902.5305, 800.9228
903.0126, 798.4797
903.4948, 794.9633
903.9769, 801.8825
904.4590, 814.3156
904.9411, 815.0013
905.4232, 804.8380
905.9053, 795.3291
906.3875, 790.2839
906.8696, 790.7878
907.3517, 799.3511
907.8338, 811.8399
908.3159, 813.5925
908.7980, 804.5174
909.2802, 798.5504
909.7623, 797.5306
910.2444, 796.1253
910.7265, 791.1235
911.2086, 786.6578
911.6907, 789.8757
912.1729, 800.5690
912.6550, 801.7841
913.1371, 789.2956
913.6192, 780.9822
914.1013, 781.6233
914.5834, 783.6824
915.0656, 782.1031
915.5477, 778.5670
916.0298, 776.7548
916.5119, 776.4933
916.9940, 778.7831
917.4761, 790.5466
917.9583, 795.0308
918.4404, 777.9971
918.9225, 761.2034
919.4046, 765.3437
919.8867, 784.4025
920.3688, 795.5859
920.8510, 795.8917
921.3331, 791.2637
921.8152, 776.4095
922.2973, 763.8778
922.7794, 758.7673
923.2615, 759.4985
923.7437, 766.4547
924.2258, 778.1027
924.7079, 786.0894
925.1900, 786.8284
925.6721, 785.3643
926.1542, 779.8574
926.6364, 776.5870
927.1185, 781.7844
927.6006, 792.3733
928.0827, 804.9396
928.5648, 817.7892
929.0469, 823.7458
929.5291, 814.6069
930.0112, 801.9985
930.4933, 793.9655
930.9754, 787.8662
931.4575, 777.9913
931.9396, 767.2158
932.4218, 766.4902
932.9039, 779.4774
933.3860, 790.4218
933.8681, 781.9935
934.3502, 766.9382
934.8323, 759.1031
935.3145, 758.1840
935.7966, 767.6430
936.2787, 784.2372
936.7608, 792.5339
937.2429, 783.8455
937.7250, 771.8304
938.2072, 776.6985
938.6893, 789.1969
939.1714, 785.1565
939.6535, 768.9866
940.1356, 759.4050
940.6177, 760.4729
941.0999, 766.3950
941.5820, 773.4724
942.0641, 780.9446
942.5462, 788.8177
943.0283, 796.0627
943.5104, 795.6910
943.9926, 788.1190
944.4747, 783.2877
944.9568, 784.3584
945.4389, 784.3293
945.9210, 776.1230
946.4031, 764.0451
946.8853, 760.8901
947.3674, 766.6100
947.8495, 771.0716
948.3316, 773.5743
948.8137, 776.0551
949.2958, 779.8529
949.7780, 780.5614
950.2601, 772.0873
950.7422, 757.0494
951.2243, 749.1700
951.7064, 748.7474
952.1885, 755.0724
952.6707, 771.0161
953.1528, 782.2490
953.6349, 780.9907
954.1170, 774.0119
954.5991, 770.1091
955.0812, 769.1772
955.5634, 768.7479
956.0455, 769.9395
956.5276, 767.6512
957.0097, 758.3858
957.4918, 751.6226
957.9739, 753.3506
958.4561, 759.6038
958.9382, 763.8309
959.4203, 765.7458
959.9024, 770.2358
960.3845, 780.5987
960.8666, 786.9135
961.3488, 787.0165
961.8309, 783.6005
962.3130, 775.3102
962.7951, 766.1012
963.2772, 764.1078
963.7593, 770.6821
964.2415, 777.3380
964.7236, 790.5656
965.2057, 794.4222
965.6878, 775.1266
966.1699, 756.4728
966.6520, 756.2905
967.1342, 767.2843
967.6163, 772.0273
968.0984, 767.0056
968.5805, 768.2894
969.0626, 786.0997
969.5447, 797.6497
970.0269, 790.1068
970.5090, 780.7344
970.9911, 789.7041
971.4732, 806.3947
971.9553, 798.3911
972.4374, 750.3793
972.9196, 722.0774
973.4017, 734.6384
973.8838, 751.3022
974.3659, 761.8089
974.8480, 768.7772
975.3301, 773.1151
975.8123, 776.2899
976.2944, 783.4511
976.7765, 800.2739
977.2586, 804.7361
977.7407, 776.1644
978.2228, 753.4113
978.7050, 759.7322
979.1871, 775.1935
979.6692, 780.0346
980.1513, 775.6895
980.6334, 774.0892
981.1155, 780.4058
981.5977, 781.2288
982.0798, 762.6541
982.5619, 749.2432
983.0440, 759.9595
983.5261, 777.7042
984.0082, 782.7136
984.4904, 776.6082
984.9725, 773.2142
985.4546, 776.7454
985.9367, 781.4379
986.4188, 788.1363
986.9009, 792.1367
987.3831, 787.4100
987.8652, 780.7142
988.3473, 781.4575
988.8294, 788.1875
989.3115, 791.1895
989.7936, 787.2767
990.2758, 780.2290
990.7579, 766.7923
991.2400, 755.9769
991.7221, 754.2936
992.2042, 758.1136
992.6863, 764.1954
993.1685, 771.2162
993.6506, 777.2439
994.1327, 782.8148
994.6148, 783.7975
995.0969, 773.6461
995.5790, 763.3224
996.0612, 760.3103
996.5433, 761.5654
997.0254, 764.5135
997.5075, 767.6242
997.9896, 766.4150
998.4717, 755.8129
998.9539, 751.5427
999.4360, 769.6408
999.9181, 787.2159
1000.400, 785.7944
1000.882, 775.8718
1001.364, 770.6836
1001.847, 771.1480
1002.329, 772.2831
1002.811, 772.6437
1003.293, 772.6559
1003.775, 771.1151
1004.257, 770.8127
1004.739, 775.9233
1005.221, 781.9409
1005.703, 782.6382
1006.186, 778.5485
1006.668, 774.6375
1007.150, 772.2739
1007.632, 771.2417
1008.114, 771.7648
1008.596, 773.2267
1009.078, 775.0214
1009.560, 777.6723
1010.043, 784.3296
1010.525, 792.6170
1011.007, 792.9779
1011.489, 779.6110
1011.971, 768.9193
1012.453, 769.8893
1012.935, 773.3888
1013.417, 771.5498
1013.899, 770.8948
1014.382, 784.9448
1014.864, 807.1082
1015.346, 811.9592
1015.828, 787.3011
1016.310, 767.9709
1016.792, 769.6541
1017.274, 777.3934
1017.756, 787.8773
1018.239, 796.5225
1018.721, 798.1916
1019.203, 794.2997
1019.685, 789.9328
1020.167, 786.1870
1020.649, 782.3824
1021.131, 774.7272
1021.613, 771.3782
1022.095, 780.1894
1022.578, 791.5107
1023.060, 796.6473
1023.542, 796.8085
1024.024, 797.0262
1024.506, 798.4941
1024.988, 798.1316
1025.470, 792.4272
1025.952, 788.3165
1026.435, 791.9702
1026.917, 794.9447
1027.399, 787.5505
1027.881, 775.0952
1028.363, 769.5516
1028.845, 773.0669
1029.327, 778.2753
1029.809, 786.9244
1030.292, 792.8347
1030.774, 793.0062
1031.256, 791.2890
1031.738, 790.4125
1032.220, 789.4391
1032.702, 785.3410
1033.184, 777.3488
1033.666, 774.5627
1034.148, 781.9050
1034.630, 788.6515
1035.113, 794.9210
1035.595, 798.1748
1036.077, 792.9145
1036.559, 785.9122
1037.041, 790.2921
1037.523, 806.8408
1038.005, 810.2621
1038.487, 784.7690
1038.970, 771.5700
1039.452, 783.9660
1039.934, 794.6349
1040.416, 788.3198
1040.898, 777.0605
1041.380, 775.8235
1041.862, 783.5459
1042.344, 788.4167
1042.826, 789.5163
1043.309, 789.6013
1043.791, 787.8621
1044.273, 786.6502
1044.755, 785.8908
1045.237, 787.7406
1045.719, 797.3839
1046.201, 810.7844
1046.683, 807.3768
1047.166, 777.6132
1047.648, 764.7460
1048.130, 775.2214
1048.612, 784.2297
1049.094, 783.6324
1049.576, 781.3652
1050.058, 784.4106
1050.540, 790.3086
1051.022, 792.0558
1051.505, 789.0474
1051.987, 788.0864
1052.469, 789.5696
1052.951, 790.8837
1053.433, 791.6628
1053.915, 790.0094
1054.397, 783.4028
1054.879, 777.9063
1055.361, 788.1058
1055.844, 811.2195
1056.326, 809.0535
1056.808, 781.7673
1057.290, 775.7488
1057.772, 799.2053
1058.254, 813.8578
1058.736, 798.7347
1059.218, 776.1984
1059.701, 776.4669
1060.183, 792.4982
1060.665, 801.8187
1061.147, 805.1313
1061.629, 805.5527
1062.111, 803.6658
1062.593, 799.4739
1063.075, 793.2122
1063.557, 790.2365
1064.040, 797.4617
1064.522, 807.6238
1065.004, 805.4231
1065.486, 796.3869
1065.968, 795.4086
1066.450, 800.4759
1066.932, 799.2303
1067.414, 789.5856
1067.896, 782.7169
1068.379, 786.9144
1068.861, 794.4526
1069.343, 797.6641
1069.825, 798.0089
1070.307, 796.1918
1070.789, 793.6699
1071.271, 792.5294
1071.753, 793.3532
1072.236, 797.3117
1072.718, 805.8220
1073.200, 811.1227
1073.682, 804.1967
1074.164, 795.3840
1074.646, 791.6336
1075.128, 792.2817
1075.610, 800.8730
1076.093, 811.9142
1076.575, 809.2210
1077.057, 787.8463
1077.539, 775.5977
1078.021, 795.6682
1078.503, 812.8091
1078.985, 806.4606
1079.467, 795.6121
1079.949, 793.7649
1080.432, 798.3674
1080.914, 805.2767
1081.396, 813.5521
1081.878, 817.2212
1082.360, 814.5085
1082.842, 808.2168
1083.324, 791.7043
1083.806, 780.1607
1084.288, 782.6223
1084.771, 791.8859
1085.253, 800.7565
1085.735, 809.5493
1086.217, 821.0690
1086.699, 841.7451
1087.181, 846.7523
1087.663, 823.5787
1088.145, 811.0884
1088.628, 826.3250
1089.110, 841.2282
1089.592, 832.7101
1090.074, 813.0710
1090.556, 810.1876
1091.038, 824.9627
1091.520, 829.8955
1092.002, 823.3694
1092.484, 816.4128
1092.967, 810.1761
1093.449, 808.4698
1093.931, 814.0314
1094.413, 820.4034
1094.895, 818.8813
1095.377, 812.0261
1095.859, 808.7330
1096.341, 808.8413
1096.823, 813.0273
1097.306, 820.3763
1097.788, 820.7241
1098.270, 811.4953
1098.752, 806.5862
1099.234, 818.7996
1099.716, 833.7788
1100.198, 824.4623
1100.680, 804.5912
1101.163, 804.6818
1101.645, 817.6830
1102.127, 823.4399
1102.609, 819.3655
1103.091, 812.4814
1103.573, 805.7778
1104.055, 802.6053
1104.537, 808.3572
1105.020, 816.1175
1105.502, 821.1923
1105.984, 823.2983
1106.466, 821.1521
1106.948, 816.2406
1107.430, 811.3608
1107.912, 807.1751
1108.394, 803.4561
1108.876, 797.9243
1109.359, 796.1542
1109.841, 803.5490
1110.323, 811.5997
1110.805, 816.6968
1111.287, 818.3776
1111.769, 813.0412
1112.251, 803.3961
1112.733, 803.5677
1113.215, 821.3903
1113.698, 832.6089
1114.180, 834.6992
1114.662, 832.9094
1115.144, 825.9580
1115.626, 818.9070
1116.108, 815.6058
1116.590, 813.8394
1117.072, 808.6099
1117.555, 799.8686
1118.037, 799.9481
1118.519, 811.4780
1119.001, 815.9396
1119.483, 809.7737
1119.965, 806.5689
1120.447, 812.7320
1120.929, 818.5094
1121.411, 812.5254
1121.894, 801.9460
1122.376, 808.3661
1122.858, 827.3867
1123.340, 835.9719
1123.822, 834.6121
1124.304, 830.9650
1124.786, 827.3314
1125.268, 825.4742
1125.750, 826.4644
1126.233, 828.4255
1126.715, 830.8532
1127.197, 831.6133
1127.679, 826.4753
1128.161, 818.4088
1128.643, 810.6802
1129.125, 804.6534
1129.607, 802.7985
1130.090, 805.3100
1130.572, 807.5656
1131.054, 806.6167
1131.536, 805.9944
1132.018, 807.5728
1132.500, 810.0634
1132.982, 814.8702
1133.464, 818.4323
1133.947, 815.4244
1134.429, 807.3206
1134.911, 800.9924
1135.393, 797.5005
1135.875, 794.9860
1136.357, 791.4926
1136.839, 791.8724
1137.321, 798.3563
1137.803, 807.1628
1138.286, 818.7700
1138.768, 828.2770
1139.250, 827.4897
1139.732, 817.7300
1140.214, 811.4495
1140.696, 808.9463
1141.178, 808.0950
1141.660, 809.1168
1142.142, 807.0712
1142.625, 800.1602
1143.107, 793.8928
1143.589, 792.7250
1144.071, 793.7921
1144.553, 792.1050
1145.035, 788.5892
1145.517, 784.6663
1145.999, 781.6180
1146.482, 784.4370
1146.964, 792.2536
1147.446, 799.2153
1147.928, 803.0781
1148.410, 805.5637
1148.892, 808.1447
1149.374, 809.5202
1149.856, 806.3199
1150.339, 803.4223
1150.821, 809.5850
1151.303, 817.0067
1151.785, 811.8761
1152.267, 796.0079
1152.749, 783.0468
1153.231, 774.8746
1153.713, 775.5358
1154.195, 795.8173
1154.677, 811.3125
1155.160, 814.2479
1155.642, 810.4484
1156.124, 797.4917
1156.606, 785.2917
1157.088, 791.2467
1157.570, 812.8557
1158.052, 819.3118
1158.534, 806.2004
1159.017, 798.3810
1159.499, 797.8903
1159.981, 797.9283
1160.463, 796.5555
1160.945, 794.8636
1161.427, 793.8292
1161.909, 791.7891
1162.391, 782.1446
1162.874, 770.6031
1163.356, 781.9524
1163.838, 807.0370
1164.320, 815.2327
1164.802, 806.6962
1165.284, 797.1123
1165.766, 791.9705
1166.248, 789.9122
1166.730, 791.5183
1167.213, 792.0341
1167.695, 784.6036
1168.177, 777.3879
1168.659, 778.1524
1169.141, 783.1899
1169.623, 789.0164
1170.105, 794.2865
1170.587, 797.1816
1171.069, 797.3321
1171.552, 795.5363
1172.034, 792.1360
1172.516, 786.2963
1172.998, 770.8444
1173.480, 763.4711
1173.962, 777.0792
1174.444, 794.5983
1174.926, 798.0306
1175.409, 791.1446
1175.891, 786.4505
1176.373, 784.0062
1176.855, 783.9984
1177.337, 786.5767
1177.819, 782.8215
1178.301, 771.3625
1178.783, 765.9728
1179.266, 773.3816
1179.748, 781.9006
1180.230, 779.1636
1180.712, 770.1097
1181.194, 759.0508
1181.676, 749.6849
1182.158, 748.1752
1182.640, 753.7827
1183.122, 767.7323
1183.604, 786.4801
1184.087, 797.6359
1184.569, 796.0193
1185.051, 791.6016
1185.533, 788.6682
1186.015, 784.2689
1186.497, 774.6356
1186.979, 765.7679
1187.461, 760.0671
1187.944, 758.8699
1188.426, 765.2470
1188.908, 777.7426
1189.390, 787.5912
1189.872, 794.6060
1190.354, 800.2260
1190.836, 805.5485
1191.318, 803.3189
1191.801, 790.5492
1192.283, 780.0758
1192.765, 779.4316
1193.247, 782.7355
1193.729, 782.6826
1194.211, 781.0320
1194.693, 783.3731
1195.175, 787.1523
1195.657, 783.6186
1196.140, 775.7537
1196.622, 773.1656
1197.104, 777.2242
1197.586, 784.7875
1198.068, 795.2767
1198.550, 800.5499
1199.032, 791.2668
1199.514, 780.8098
1199.996, 774.7469
1200.479, 772.6157
1200.961, 774.7584
1201.443, 780.0293
1201.925, 790.2597
1202.407, 803.1734
1202.889, 802.8555
1203.371, 781.9191
1203.853, 771.8651
1204.336, 776.2328
1204.818, 780.3087
1205.300, 781.4647
1205.782, 780.2123
1206.264, 776.3291
1206.746, 773.5403
1207.228, 777.1951
1207.710, 783.3830
1208.193, 780.8328
1208.675, 773.2562
1209.157, 772.2447
1209.639, 775.7151
1210.121, 777.1371
1210.603, 774.7682
1211.085, 765.6686
1211.567, 748.3551
1212.049, 739.3099
1212.531, 760.1447
1213.014, 776.2789
1213.496, 762.5052
1213.978, 745.3032
1214.460, 741.3195
1214.942, 745.8580
1215.424, 757.3066
1215.906, 770.8199
1216.388, 769.0810
1216.871, 748.1070
1217.353, 736.5488
1217.835, 735.8170
1218.317, 739.5167
1218.799, 747.8646
1219.281, 752.9646
1219.763, 751.5276
1220.245, 745.5830
1220.728, 735.8838
1221.210, 727.2459
1221.692, 729.5516
1222.174, 738.2874
1222.656, 748.3058
1223.138, 755.3588
1223.620, 745.8705
1224.102, 726.8513
1224.584, 723.1077
1225.067, 739.4058
1225.549, 750.0042
1226.031, 739.1743
1226.513, 730.4191
1226.995, 732.3417
1227.477, 736.9699
1227.959, 745.9092
1228.441, 750.6379
1228.923, 742.1788
1229.406, 728.1672
1229.888, 721.6216
1230.370, 721.9475
1230.852, 723.1693
##END=



