##NAMES=Boleite
##RRUFFID=R050022
##IDEAL CHEMISTRY=KAg^1+^_9_Pb^2+^_26_Cu^2+^_24_Cl_62_(OH)_48_
##LOCALITY=Amelia mine, Boleo, Baja California, Mexico
##OWNER=RRUFF
##SOURCE=Eugene Schlepp
##DESCRIPTION=Dark blue colored interpenetrating cubes
##STATUS=The identification of this mineral has been confirmed by X-ray diffraction.
##URL=rruff.info/R050022
114.9494, 699.2214
115.4315, 756.0041
115.9136, 816.6611
116.3958, 880.2313
116.8779, 948.0362
117.3600, 1021.389
117.8421, 1100.517
118.3242, 1185.493
118.8063, 1278.160
119.2885, 1379.260
119.7706, 1481.153
120.2527, 1572.476
120.7348, 1661.373
121.2169, 1763.172
121.6990, 1885.762
122.1812, 2023.740
122.6633, 2170.783
123.1454, 2325.163
123.6275, 2491.135
124.1096, 2672.182
124.5917, 2868.149
125.0739, 3078.390
125.5560, 3306.282
126.0381, 3547.017
126.5202, 3797.304
127.0023, 4060.534
127.4844, 4328.154
127.9666, 4586.641
128.4487, 4836.054
128.9308, 5082.346
129.4129, 5327.619
129.8950, 5573.543
130.3772, 5815.269
130.8593, 6048.703
131.3414, 6278.571
131.8235, 6522.338
132.3056, 6778.332
132.7877, 7045.284
133.2699, 7318.937
133.7520, 7600.253
134.2341, 7895.464
134.7162, 8207.493
135.1983, 8537.623
135.6804, 8879.848
136.1626, 9234.023
136.6447, 9594.984
137.1268, 9952.701
137.6089, 10304.30
138.0910, 10653.42
138.5731, 10991.21
139.0553, 11317.30
139.5374, 11654.05
140.0195, 12008.23
140.5016, 12372.63
140.9837, 12700.72
141.4658, 12976.63
141.9480, 13246.25
142.4301, 13541.32
142.9122, 13880.92
143.3943, 14202.95
143.8764, 14492.58
144.3585, 14748.57
144.8407, 15038.12
145.3228, 15376.81
145.8049, 15735.39
146.2870, 16084.88
146.7691, 16421.27
147.2512, 16747.84
147.7334, 17055.16
148.2155, 17336.80
148.6976, 17641.65
149.1797, 17987.77
149.6618, 18352.85
150.1439, 18704.10
150.6261, 19022.95
151.1082, 19340.62
151.5903, 19661.08
152.0724, 19980.36
152.5545, 20310.15
153.0366, 20653.44
153.5188, 21006.18
154.0009, 21358.89
154.4830, 21732.97
154.9651, 22093.48
155.4472, 22428.57
155.9293, 22730.01
156.4115, 23014.27
156.8936, 23295.10
157.3757, 23564.68
157.8578, 23800.86
158.3399, 24010.98
158.8221, 24177.27
159.3042, 24290.61
159.7863, 24368.00
160.2684, 24373.08
160.7505, 24281.75
161.2326, 24099.45
161.7148, 23873.35
162.1969, 23646.63
162.6790, 23375.30
163.1611, 23020.57
163.6432, 22533.74
164.1253, 21986.10
164.6075, 21400.48
165.0896, 20777.18
165.5717, 20148.48
166.0538, 19525.90
166.5359, 18909.94
167.0180, 18300.06
167.5002, 17683.54
167.9823, 17075.41
168.4644, 16479.20
168.9465, 15891.37
169.4286, 15341.95
169.9107, 14860.51
170.3929, 14436.30
170.8750, 14034.04
171.3571, 13631.07
171.8392, 13247.92
172.3213, 12912.63
172.8034, 12639.62
173.2856, 12390.01
173.7677, 12132.91
174.2498, 11870.06
174.7319, 11612.31
175.2140, 11356.75
175.6961, 11112.09
176.1783, 10892.97
176.6604, 10705.68
177.1425, 10542.77
177.6246, 10402.53
178.1067, 10283.95
178.5888, 10170.97
179.0710, 10054.40
179.5531, 9936.699
180.0352, 9824.765
180.5173, 9720.339
180.9994, 9623.564
181.4815, 9538.493
181.9637, 9464.221
182.4458, 9395.957
182.9279, 9326.479
183.4100, 9258.290
183.8921, 9199.987
184.3742, 9157.317
184.8564, 9124.521
185.3385, 9091.530
185.8206, 9058.342
186.3027, 9021.560
186.7848, 8968.586
187.2669, 8903.521
187.7491, 8856.016
188.2312, 8845.787
188.7133, 8861.580
189.1954, 8859.883
189.6775, 8838.082
190.1596, 8810.431
190.6418, 8794.241
191.1239, 8789.337
191.6060, 8784.956
192.0881, 8776.659
192.5702, 8764.911
193.0524, 8753.613
193.5345, 8742.729
194.0166, 8732.456
194.4987, 8723.023
194.9808, 8714.380
195.4629, 8707.348
195.9451, 8701.020
196.4272, 8695.407
196.9093, 8699.221
197.3914, 8717.182
197.8735, 8737.573
198.3556, 8733.438
198.8378, 8700.381
199.3199, 8670.866
199.8020, 8664.212
200.2841, 8681.949
200.7662, 8701.582
201.2483, 8724.144
201.7305, 8745.800
202.2126, 8754.646
202.6947, 8747.168
203.1768, 8739.998
203.6589, 8743.320
204.1410, 8758.181
204.6232, 8777.162
205.1053, 8803.272
205.5874, 8831.505
206.0695, 8841.711
206.5516, 8826.813
207.0337, 8812.477
207.5159, 8818.252
207.9980, 8848.721
208.4801, 8876.871
208.9622, 8898.932
209.4443, 8916.166
209.9264, 8936.260
210.4086, 8962.904
210.8907, 8985.043
211.3728, 8993.194
211.8549, 8984.519
212.3370, 8970.618
212.8191, 8947.827
213.3013, 8919.371
213.7834, 8915.577
214.2655, 8951.104
214.7476, 8987.770
215.2297, 8989.329
215.7118, 8941.811
216.1940, 8897.852
216.6761, 8867.284
217.1582, 8849.377
217.6403, 8832.688
218.1224, 8821.695
218.6045, 8806.234
219.0867, 8776.545
219.5688, 8731.380
220.0509, 8674.806
220.5330, 8606.098
221.0151, 8524.044
221.4972, 8446.412
221.9794, 8376.816
222.4615, 8306.876
222.9436, 8224.706
223.4257, 8120.499
223.9078, 8023.700
224.3899, 7946.692
224.8721, 7891.334
225.3542, 7817.134
225.8363, 7716.161
226.3184, 7603.307
226.8005, 7492.923
227.2827, 7382.886
227.7648, 7281.237
228.2469, 7193.743
228.7290, 7124.330
229.2111, 7039.632
229.6932, 6929.737
230.1754, 6813.605
230.6575, 6714.664
231.1396, 6638.577
231.6217, 6571.373
232.1038, 6513.180
232.5859, 6468.602
233.0681, 6406.914
233.5502, 6318.863
234.0323, 6220.690
234.5144, 6134.971
234.9965, 6068.212
235.4786, 6003.966
235.9608, 5936.730
236.4429, 5865.898
236.9250, 5799.699
237.4071, 5743.977
237.8892, 5689.696
238.3713, 5621.811
238.8535, 5533.833
239.3356, 5442.817
239.8177, 5350.688
240.2998, 5251.201
240.7819, 5175.537
241.2640, 5132.779
241.7462, 5107.334
242.2283, 5072.821
242.7104, 5028.425
243.1925, 4976.133
243.6746, 4914.132
244.1567, 4836.300
244.6389, 4769.253
245.1210, 4716.834
245.6031, 4673.004
246.0852, 4627.925
246.5673, 4581.530
247.0494, 4533.972
247.5316, 4484.775
248.0137, 4432.643
248.4958, 4382.680
248.9779, 4333.633
249.4600, 4287.732
249.9421, 4251.780
250.4243, 4232.869
250.9064, 4210.722
251.3885, 4176.263
251.8706, 4123.352
252.3527, 4077.968
252.8348, 4040.812
253.3170, 4010.782
253.7991, 3987.547
254.2812, 3976.298
254.7633, 3962.381
255.2454, 3939.927
255.7275, 3907.275
256.2097, 3872.213
256.6918, 3832.157
257.1739, 3791.861
257.6560, 3761.823
258.1381, 3749.736
258.6202, 3731.816
259.1024, 3696.436
259.5845, 3637.942
260.0666, 3587.799
260.5487, 3550.502
261.0308, 3518.238
261.5129, 3473.314
261.9951, 3410.235
262.4772, 3348.570
262.9593, 3298.058
263.4414, 3261.799
263.9235, 3219.423
264.4056, 3168.210
264.8878, 3112.884
265.3699, 3059.691
265.8520, 3007.220
266.3341, 2959.623
266.8162, 2918.149
267.2983, 2883.521
267.7805, 2853.495
268.2626, 2830.456
268.7447, 2809.635
269.2268, 2780.744
269.7089, 2739.991
270.1910, 2704.950
270.6732, 2684.966
271.1553, 2682.484
271.6374, 2671.972
272.1195, 2652.565
272.6016, 2626.342
273.0837, 2596.376
273.5659, 2561.880
274.0480, 2526.985
274.5301, 2491.429
275.0122, 2455.139
275.4943, 2426.307
275.9764, 2406.569
276.4586, 2391.213
276.9407, 2373.016
277.4228, 2351.776
277.9049, 2331.380
278.3870, 2312.328
278.8691, 2294.817
279.3513, 2285.063
279.8334, 2285.312
280.3155, 2287.542
280.7976, 2278.954
281.2798, 2259.034
281.7619, 2242.063
282.2440, 2234.463
282.7261, 2234.999
283.2082, 2234.503
283.6903, 2232.902
284.1725, 2230.538
284.6546, 2226.147
285.1367, 2219.995
285.6188, 2218.272
286.1009, 2225.982
286.5830, 2240.175
287.0652, 2246.366
287.5473, 2243.143
288.0294, 2240.004
288.5115, 2250.594
288.9936, 2272.932
289.4757, 2289.930
289.9579, 2291.991
290.4400, 2285.649
290.9221, 2290.979
291.4042, 2308.840
291.8863, 2327.625
292.3684, 2330.928
292.8506, 2323.513
293.3327, 2326.501
293.8148, 2351.890
294.2969, 2388.692
294.7790, 2415.653
295.2611, 2432.850
295.7433, 2447.983
296.2254, 2469.289
296.7075, 2494.368
297.1896, 2515.730
297.6717, 2531.416
298.1538, 2542.697
298.6360, 2549.182
299.1181, 2551.411
299.6002, 2555.054
300.0823, 2569.798
300.5644, 2588.503
301.0465, 2597.734
301.5287, 2592.800
302.0108, 2578.473
302.4929, 2558.806
302.9750, 2533.863
303.4571, 2505.152
303.9392, 2471.854
304.4214, 2435.783
304.9035, 2398.953
305.3856, 2364.150
305.8677, 2326.302
306.3498, 2277.744
306.8319, 2221.936
307.3141, 2169.987
307.7962, 2133.905
308.2783, 2103.074
308.7604, 2065.127
309.2425, 2013.803
309.7246, 1965.191
310.2068, 1930.459
310.6889, 1906.479
311.1710, 1884.648
311.6531, 1864.951
312.1352, 1843.251
312.6173, 1815.220
313.0995, 1777.447
313.5816, 1742.284
314.0637, 1715.787
314.5458, 1695.764
315.0279, 1677.816
315.5100, 1661.217
315.9922, 1645.530
316.4743, 1631.203
316.9564, 1619.134
317.4385, 1604.880
317.9206, 1583.441
318.4027, 1559.739
318.8849, 1540.655
319.3670, 1532.033
319.8491, 1524.827
320.3312, 1515.595
320.8133, 1503.594
321.2954, 1492.330
321.7776, 1480.335
322.2597, 1470.133
322.7418, 1464.413
323.2239, 1469.363
323.7060, 1473.040
324.1881, 1473.001
324.6703, 1469.084
325.1524, 1462.339
325.6345, 1450.127
326.1166, 1436.609
326.5987, 1424.930
327.0808, 1409.230
327.5630, 1402.380
328.0451, 1409.823
328.5272, 1430.683
329.0093, 1445.934
329.4914, 1453.022
329.9735, 1456.514
330.4557, 1458.961
330.9378, 1458.635
331.4199, 1460.345
331.9020, 1465.044
332.3841, 1472.166
332.8662, 1479.143
333.3484, 1486.427
333.8305, 1492.777
334.3126, 1496.221
334.7947, 1493.100
335.2768, 1499.540
335.7589, 1521.825
336.2411, 1551.060
336.7232, 1563.167
337.2053, 1552.222
337.6874, 1541.191
338.1695, 1541.505
338.6516, 1554.521
339.1338, 1567.769
339.6159, 1582.111
340.0980, 1594.764
340.5801, 1599.425
341.0622, 1595.270
341.5443, 1591.160
342.0265, 1590.991
342.5086, 1594.305
342.9907, 1596.473
343.4728, 1597.084
343.9549, 1598.087
344.4370, 1604.241
344.9192, 1614.545
345.4013, 1619.222
345.8834, 1611.409
346.3655, 1596.395
346.8476, 1587.792
347.3297, 1585.671
347.8119, 1588.115
348.2940, 1594.016
348.7761, 1603.210
349.2582, 1615.060
349.7403, 1630.111
350.2225, 1647.270
350.7046, 1665.816
351.1867, 1685.669
351.6688, 1704.920
352.1509, 1719.060
352.6331, 1732.569
353.1152, 1753.376
353.5973, 1787.188
354.0794, 1821.252
354.5615, 1841.309
355.0436, 1851.632
355.5258, 1865.233
356.0079, 1892.751
356.4900, 1924.738
356.9721, 1952.720
357.4542, 1974.338
357.9363, 1995.546
358.4185, 2020.409
358.9006, 2047.045
359.3827, 2072.198
359.8648, 2094.467
360.3469, 2115.029
360.8290, 2136.161
361.3112, 2159.214
361.7933, 2174.443
362.2754, 2177.802
362.7575, 2172.295
363.2396, 2161.139
363.7217, 2143.810
364.2039, 2122.278
364.6860, 2098.783
365.1681, 2073.246
365.6502, 2037.885
366.1323, 1980.275
366.6144, 1919.325
367.0966, 1867.911
367.5787, 1835.819
368.0608, 1802.486
368.5429, 1767.459
369.0250, 1730.293
369.5071, 1689.129
369.9893, 1638.062
370.4714, 1590.034
370.9535, 1551.856
371.4356, 1528.848
371.9177, 1504.333
372.3998, 1477.004
372.8820, 1448.520
373.3641, 1422.584
373.8462, 1398.946
374.3283, 1378.719
374.8104, 1364.286
375.2925, 1356.483
375.7747, 1342.347
376.2568, 1320.042
376.7389, 1294.813
377.2210, 1273.617
377.7031, 1256.608
378.1852, 1241.417
378.6674, 1226.682
379.1495, 1213.177
379.6316, 1204.000
380.1137, 1199.438
380.5958, 1197.303
381.0779, 1198.427
381.5601, 1201.258
382.0422, 1197.522
382.5243, 1182.947
383.0064, 1163.971
383.4885, 1151.364
383.9706, 1144.361
384.4528, 1138.205
384.9349, 1130.667
385.4170, 1121.539
385.8991, 1109.353
386.3812, 1092.432
386.8633, 1076.843
387.3455, 1069.522
387.8276, 1067.912
388.3097, 1066.056
388.7918, 1063.572
389.2739, 1057.983
389.7560, 1045.256
390.2382, 1024.305
390.7203, 1005.699
391.2024, 998.9991
391.6845, 996.5192
392.1666, 989.3011
392.6487, 965.7864
393.1309, 945.0916
393.6130, 937.5592
394.0951, 941.9253
394.5772, 942.9895
395.0593, 934.1143
395.5414, 922.4708
396.0236, 912.6089
396.5057, 904.1088
396.9878, 898.6260
397.4699, 898.9003
397.9520, 902.6955
398.4341, 902.9058
398.9163, 895.1411
399.3984, 888.3614
399.8805, 886.4355
400.3626, 892.3294
400.8447, 893.8907
401.3268, 888.0025
401.8090, 880.0847
402.2911, 878.1829
402.7732, 884.6506
403.2553, 891.0975
403.7374, 895.6542
404.2195, 898.3300
404.7017, 899.3489
405.1838, 898.7880
405.6659, 896.3199
406.1480, 889.8994
406.6301, 879.3647
407.1122, 874.0737
407.5944, 877.6272
408.0765, 885.4031
408.5586, 884.6564
409.0407, 875.5817
409.5228, 868.5395
410.0049, 873.4402
410.4871, 885.7657
410.9692, 892.3746
411.4513, 891.1614
411.9334, 887.3980
412.4155, 886.5493
412.8976, 887.9778
413.3798, 889.8318
413.8619, 894.0722
414.3440, 896.7207
414.8261, 890.2990
415.3082, 874.7855
415.7903, 864.5171
416.2725, 876.7241
416.7546, 896.3341
417.2367, 906.4623
417.7188, 896.4966
418.2009, 881.5634
418.6830, 864.8917
419.1652, 847.8773
419.6473, 836.3022
420.1294, 832.5144
420.6115, 834.2153
421.0937, 841.7787
421.5758, 861.9031
422.0579, 873.1533
422.5400, 865.7505
423.0221, 849.3121
423.5042, 839.4645
423.9864, 841.7062
424.4685, 845.0487
424.9506, 846.9625
425.4327, 847.1748
425.9148, 849.3956
426.3969, 855.1699
426.8791, 861.1902
427.3612, 863.7696
427.8433, 860.5575
428.3254, 861.8110
428.8075, 871.2065
429.2896, 885.1616
429.7718, 889.7170
430.2539, 882.8989
430.7360, 877.2098
431.2181, 881.7982
431.7002, 895.7556
432.1823, 905.1558
432.6645, 908.4436
433.1466, 910.0877
433.6287, 916.4484
434.1108, 926.6881
434.5929, 936.7036
435.0750, 943.4272
435.5572, 949.3871
436.0393, 959.7124
436.5214, 974.2191
437.0035, 989.0562
437.4856, 999.7225
437.9677, 1009.151
438.4499, 1021.560
438.9320, 1039.181
439.4141, 1058.049
439.8962, 1075.487
440.3783, 1091.907
440.8604, 1108.895
441.3426, 1122.998
441.8247, 1140.769
442.3068, 1167.561
442.7889, 1206.242
443.2710, 1242.841
443.7531, 1274.462
444.2353, 1301.697
444.7174, 1325.752
445.1995, 1333.543
445.6816, 1352.318
446.1637, 1392.920
446.6458, 1452.286
447.1280, 1501.392
447.6101, 1531.889
448.0922, 1561.487
448.5743, 1599.358
449.0564, 1647.735
449.5385, 1699.968
450.0207, 1757.043
450.5028, 1816.616
450.9849, 1873.889
451.4670, 1927.850
451.9491, 1982.115
452.4312, 2039.515
452.9134, 2098.835
453.3955, 2153.496
453.8776, 2203.632
454.3597, 2247.055
454.8418, 2280.698
455.3239, 2305.344
455.8061, 2323.841
456.2882, 2339.823
456.7703, 2345.631
457.2524, 2326.497
457.7345, 2286.453
458.2166, 2241.223
458.6988, 2200.529
459.1809, 2159.652
459.6630, 2114.629
460.1451, 2064.677
460.6272, 2009.874
461.1093, 1947.479
461.5915, 1881.342
462.0736, 1817.473
462.5557, 1753.748
463.0378, 1696.540
463.5199, 1651.095
464.0020, 1616.245
464.4842, 1581.536
464.9663, 1541.398
465.4484, 1503.792
465.9305, 1473.490
466.4126, 1459.547
466.8947, 1436.257
467.3769, 1396.821
467.8590, 1351.150
468.3411, 1314.430
468.8232, 1287.394
469.3053, 1268.602
469.7874, 1259.030
470.2696, 1258.209
470.7517, 1258.517
471.2338, 1261.122
471.7159, 1261.297
472.1980, 1253.209
472.6801, 1237.064
473.1623, 1223.556
473.6444, 1213.957
474.1265, 1207.874
474.6086, 1205.612
475.0907, 1206.758
475.5728, 1208.639
476.0550, 1208.740
476.5371, 1209.072
477.0192, 1214.784
477.5013, 1226.178
477.9834, 1234.754
478.4655, 1228.443
478.9477, 1217.083
479.4298, 1213.958
479.9119, 1229.249
480.3940, 1245.739
480.8761, 1254.173
481.3582, 1256.651
481.8404, 1259.058
482.3225, 1264.332
482.8046, 1269.124
483.2867, 1271.048
483.7688, 1267.863
484.2509, 1268.923
484.7331, 1283.711
485.2152, 1298.552
485.6973, 1299.840
486.1794, 1275.049
486.6615, 1258.609
487.1436, 1259.274
487.6258, 1272.088
488.1079, 1271.472
488.5900, 1251.799
489.0721, 1234.271
489.5542, 1232.256
490.0363, 1245.871
490.5185, 1257.568
491.0006, 1267.293
491.4827, 1273.464
491.9648, 1271.349
492.4470, 1262.641
492.9291, 1256.936
493.4112, 1260.157
493.8933, 1265.950
494.3754, 1263.597
494.8575, 1254.183
495.3397, 1244.688
495.8218, 1239.935
496.3039, 1237.273
496.7860, 1234.284
497.2681, 1230.929
497.7502, 1225.756
498.2324, 1215.641
498.7145, 1203.882
499.1966, 1194.769
499.6787, 1193.266
500.1608, 1190.975
500.6429, 1185.377
501.1251, 1176.540
501.6072, 1166.616
502.0893, 1156.222
502.5714, 1144.242
503.0535, 1129.778
503.5356, 1110.958
504.0178, 1094.371
504.4999, 1081.090
504.9820, 1069.207
505.4641, 1054.921
505.9462, 1037.319
506.4283, 1022.339
506.9105, 1012.211
507.3926, 1005.999
507.8747, 1002.138
508.3568, 1000.980
508.8389, 994.9838
509.3210, 972.4385
509.8032, 940.6329
510.2853, 920.7612
510.7674, 917.2475
511.2495, 918.0529
511.7316, 911.1188
512.2137, 899.3365
512.6959, 888.7186
513.1780, 884.2018
513.6601, 879.5646
514.1422, 870.3514
514.6243, 857.0740
515.1064, 843.5229
515.5886, 829.3118
516.0707, 816.5478
516.5528, 807.1284
517.0349, 804.0597
517.5170, 798.3430
517.9991, 786.0008
518.4813, 771.8161
518.9634, 762.3118
519.4455, 762.3352
519.9276, 758.4407
520.4097, 745.7502
520.8918, 726.4799
521.3740, 714.6321
521.8561, 712.0555
522.3382, 710.7802
522.8203, 705.6973
523.3024, 697.0547
523.7845, 688.4092
524.2667, 679.9791
524.7488, 671.2314
525.2309, 658.7819
525.7130, 644.6945
526.1951, 636.6722
526.6772, 641.2340
527.1594, 649.3474
527.6415, 651.1103
528.1236, 647.2889
528.6057, 641.2052
529.0878, 633.9417
529.5699, 625.6938
530.0521, 615.7365
530.5342, 602.6931
531.0163, 593.4293
531.4984, 591.5061
531.9805, 593.7935
532.4626, 596.9312
532.9448, 605.2279
533.4269, 608.5145
533.9090, 603.1757
534.3911, 591.7327
534.8732, 584.2166
535.3553, 581.6985
535.8375, 581.0042
536.3196, 581.2020
536.8017, 582.3739
537.2838, 582.8876
537.7659, 582.8660
538.2480, 581.7873
538.7302, 578.9053
539.2123, 574.3490
539.6944, 569.0939
540.1765, 563.1191
540.6586, 556.9611
541.1407, 550.8912
541.6229, 545.0732
542.1050, 539.9940
542.5871, 535.3170
543.0692, 531.8773
543.5513, 530.8358
544.0334, 532.2427
544.5156, 534.2054
544.9977, 537.0215
545.4798, 539.3501
545.9619, 539.9840
546.4440, 536.6546
546.9261, 534.6697
547.4083, 537.3743
547.8904, 541.3311
548.3725, 539.9619
548.8546, 528.4142
549.3367, 519.6010
549.8188, 517.6423
550.3010, 521.7862
550.7831, 522.8904
551.2652, 520.1056
551.7473, 517.1096
552.2294, 516.6393
552.7115, 518.4645
553.1937, 521.2642
553.6758, 525.7136
554.1579, 527.8917
554.6400, 519.7112
555.1221, 504.9449
555.6042, 494.7075
556.0864, 496.0001
556.5685, 500.2999
557.0506, 499.4539
557.5327, 494.6383
558.0148, 490.2164
558.4969, 488.2450
558.9791, 487.3699
559.4612, 487.5002
559.9433, 489.3279
560.4254, 488.4428
560.9075, 480.0060
561.3896, 470.8080
561.8718, 466.8925
562.3539, 472.8504
562.8360, 476.2493
563.3181, 475.4818
563.8002, 471.9230
564.2823, 468.1582
564.7645, 463.6130
565.2466, 461.7954
565.7287, 466.2205
566.2108, 474.6850
566.6929, 474.8634
567.1750, 466.4262
567.6572, 457.1285
568.1393, 454.1177
568.6214, 454.9065
569.1035, 454.5393
569.5856, 451.9527
570.0677, 449.3193
570.5499, 449.6282
571.0320, 450.8152
571.5141, 449.6247
571.9962, 440.4193
572.4783, 433.0331
572.9604, 432.3730
573.4426, 437.3484
573.9247, 442.0945
574.4068, 446.1367
574.8889, 449.3265
575.3710, 451.7480
575.8531, 453.5952
576.3353, 453.2238
576.8174, 449.2475
577.2995, 445.1140
577.7816, 444.6246
578.2637, 448.2375
578.7458, 450.5453
579.2280, 450.5336
579.7101, 449.3142
580.1922, 449.1061
580.6743, 449.6093
581.1564, 449.1291
581.6385, 444.3342
582.1207, 439.4698
582.6028, 441.4696
583.0849, 449.4726
583.5670, 456.8617
584.0491, 459.8154
584.5313, 460.5353
585.0134, 460.8156
585.4955, 461.3120
585.9776, 460.1176
586.4597, 453.7850
586.9418, 446.7620
587.4240, 444.2674
587.9061, 449.5086
588.3882, 454.5922
588.8703, 460.0536
589.3524, 464.4473
589.8345, 462.1859
590.3167, 451.0326
590.7988, 441.8788
591.2809, 440.9264
591.7630, 446.1472
592.2451, 446.7909
592.7272, 442.7021
593.2094, 437.8271
593.6915, 433.4350
594.1736, 430.9995
594.6557, 434.7389
595.1378, 446.8849
595.6199, 458.2177
596.1021, 462.0887
596.5842, 460.6804
597.0663, 457.0894
597.5485, 450.1494
598.0306, 443.5630
598.5127, 436.7202
598.9948, 430.7388
599.4769, 430.4682
599.9590, 442.9583
600.4412, 452.8622
600.9233, 454.2264
601.4054, 446.3542
601.8875, 441.3094
602.3696, 439.8302
602.8517, 439.4625
603.3339, 438.2378
603.8160, 436.2265
604.2981, 434.5266
604.7802, 433.3602
605.2623, 432.2219
605.7444, 429.1794
606.2266, 425.5576
606.7087, 425.1696
607.1908, 432.8172
607.6729, 440.6539
608.1550, 441.2606
608.6371, 436.6946
609.1193, 433.6650
609.6014, 435.4490
610.0835, 438.9190
610.5656, 443.9092
611.0477, 451.1992
611.5298, 453.0134
612.0120, 443.2308
612.4941, 433.8145
612.9762, 433.6589
613.4583, 446.4193
613.9404, 455.1248
614.4225, 458.5505
614.9047, 458.6705
615.3868, 458.1619
615.8689, 456.9729
616.3510, 454.0486
616.8331, 447.3478
617.3152, 441.0273
617.7974, 443.3840
618.2795, 452.2604
618.7616, 459.3695
619.2437, 458.2715
619.7258, 455.0524
620.2079, 454.2140
620.6901, 456.0026
621.1722, 457.8546
621.6543, 458.5314
622.1364, 459.2336
622.6185, 460.8424
623.1006, 464.2548
623.5828, 466.6180
624.0649, 467.1705
624.5470, 467.3722
625.0291, 469.1411
625.5112, 472.8353
625.9933, 476.2198
626.4755, 478.9150
626.9576, 481.0071
627.4397, 482.0642
627.9218, 482.3304
628.4039, 483.6690
628.8860, 489.3902
629.3682, 495.4657
629.8503, 495.0728
630.3324, 489.0862
630.8145, 484.1499
631.2966, 484.9429
631.7787, 487.6555
632.2609, 489.5437
632.7430, 489.8394
633.2251, 490.9618
633.7072, 493.5501
634.1893, 497.0486
634.6714, 501.1375
635.1536, 506.4786
635.6357, 511.0144
636.1178, 514.6781
636.5999, 517.3351
637.0820, 518.4382
637.5641, 517.9239
638.0463, 517.1985
638.5284, 516.5781
639.0105, 516.1440
639.4926, 515.1039
639.9747, 513.9484
640.4568, 515.4662
640.9390, 525.6938
641.4211, 536.5600
641.9032, 538.4920
642.3853, 530.8441
642.8674, 526.9195
643.3495, 537.0864
643.8317, 549.4499
644.3138, 555.6816
644.7959, 550.8711
645.2780, 547.2258
645.7601, 543.8360
646.2422, 542.4016
646.7244, 545.9709
647.2065, 555.9821
647.6886, 563.1016
648.1707, 564.7994
648.6528, 563.9810
649.1349, 566.7755
649.6171, 572.6759
650.0992, 578.1586
650.5813, 581.0005
651.0634, 582.8870
651.5455, 584.2354
652.0276, 585.8074
652.5098, 591.6561
652.9919, 611.6262
653.4740, 630.5933
653.9561, 638.3091
654.4382, 632.0712
654.9203, 624.9396
655.4025, 614.9554
655.8846, 607.4598
656.3667, 606.5192
656.8488, 614.2576
657.3309, 622.6306
657.8130, 632.1392
658.2952, 640.8992
658.7773, 645.0272
659.2594, 645.0856
659.7415, 647.4213
660.2236, 653.9498
660.7057, 663.1227
661.1879, 673.8741
661.6700, 685.5225
662.1521, 696.0367
662.6342, 702.7817
663.1163, 709.5044
663.5984, 718.6265
664.0806, 729.9724
664.5627, 741.6482
665.0448, 758.6307
665.5269, 770.4796
666.0090, 770.4070
666.4911, 755.4857
666.9733, 751.0131
667.4554, 759.8115
667.9375, 773.4655
668.4196, 784.5023
668.9017, 793.2172
669.3839, 809.1498
669.8660, 835.0170
670.3481, 859.0556
670.8302, 863.0960
671.3123, 855.2567
671.7944, 853.1965
672.2766, 864.1432
672.7587, 879.4137
673.2408, 895.2611
673.7229, 911.1571
674.2050, 926.3847
674.6871, 941.9650
675.1693, 955.4636
675.6514, 964.6586
676.1335, 970.8915
676.6156, 980.7407
677.0977, 994.2984
677.5798, 1011.329
678.0620, 1033.425
678.5441, 1059.726
679.0262, 1079.557
679.5083, 1092.863
679.9904, 1103.284
680.4725, 1111.470
680.9547, 1119.440
681.4368, 1129.780
681.9189, 1142.259
682.4010, 1161.391
682.8831, 1197.732
683.3652, 1238.485
683.8474, 1269.823
684.3295, 1278.967
684.8116, 1294.073
685.2937, 1325.797
685.7758, 1362.782
686.2579, 1388.038
686.7401, 1392.762
687.2222, 1410.907
687.7043, 1452.817
688.1864, 1507.348
688.6685, 1547.795
689.1506, 1574.810
689.6328, 1598.643
690.1149, 1621.284
690.5970, 1645.418
691.0791, 1677.597
691.5612, 1716.162
692.0433, 1751.639
692.5255, 1776.440
693.0076, 1799.388
693.4897, 1826.693
693.9718, 1859.345
694.4539, 1889.884
694.9360, 1921.096
695.4182, 1946.353
695.9003, 1961.494
696.3824, 1964.059
696.8645, 1965.812
697.3466, 1966.753
697.8287, 1966.882
698.3109, 1967.242
698.7930, 1967.133
699.2751, 1962.897
699.7572, 1953.976
700.2393, 1940.706
700.7214, 1924.321
701.2036, 1903.650
701.6857, 1876.613
702.1678, 1836.308
702.6499, 1796.706
703.1320, 1762.490
703.6141, 1732.817
704.0963, 1705.683
704.5784, 1684.614
705.0605, 1659.781
705.5426, 1627.555
706.0247, 1589.943
706.5068, 1557.097
706.9890, 1529.378
707.4711, 1501.948
707.9532, 1472.324
708.4353, 1441.261
708.9174, 1410.404
709.3995, 1379.927
709.8817, 1352.820
710.3638, 1333.525
710.8459, 1317.200
711.3280, 1298.909
711.8101, 1277.219
712.2922, 1260.573
712.7744, 1258.025
713.2565, 1256.241
713.7386, 1245.376
714.2207, 1218.641
714.7028, 1201.046
715.1849, 1195.396
715.6671, 1193.726
716.1492, 1185.718
716.6313, 1172.276
717.1134, 1163.794
717.5955, 1162.677
718.0776, 1165.175
718.5598, 1166.956
719.0419, 1169.018
719.5240, 1173.307
720.0061, 1181.514
720.4882, 1190.920
720.9703, 1204.720
721.4525, 1218.585
721.9346, 1222.590
722.4167, 1202.009
722.8988, 1189.126
723.3809, 1191.361
723.8630, 1205.607
724.3452, 1221.170
724.8273, 1238.807
725.3094, 1252.001
725.7915, 1255.991
726.2736, 1253.809
726.7557, 1251.410
727.2379, 1249.230
727.7200, 1250.693
728.2021, 1260.497
728.6842, 1273.088
729.1663, 1285.249
729.6484, 1296.708
730.1306, 1304.251
730.6127, 1304.936
731.0948, 1302.995
731.5769, 1300.698
732.0590, 1297.956
732.5411, 1295.126
733.0233, 1292.189
733.5054, 1289.204
733.9875, 1286.238
734.4696, 1283.266
734.9517, 1279.862
735.4338, 1275.703
735.9160, 1272.648
736.3981, 1275.201
736.8802, 1279.254
737.3623, 1278.573
737.8444, 1269.978
738.3266, 1259.370
738.8087, 1244.758
739.2908, 1230.808
739.7729, 1224.959
740.2551, 1233.654
740.7372, 1238.920
741.2193, 1238.680
741.7014, 1233.970
742.1835, 1225.563
742.6656, 1213.437
743.1478, 1203.075
743.6299, 1195.696
744.1120, 1191.589
744.5941, 1194.685
745.0762, 1201.962
745.5583, 1204.121
746.0405, 1192.266
746.5226, 1177.993
747.0047, 1167.194
747.4868, 1159.533
747.9689, 1152.332
748.4510, 1143.955
748.9332, 1137.768
749.4153, 1135.256
749.8974, 1136.137
750.3795, 1137.940
750.8616, 1141.220
751.3438, 1141.206
751.8259, 1130.253
752.3080, 1114.748
752.7901, 1112.710
753.2722, 1123.706
753.7543, 1131.550
754.2365, 1121.302
754.7186, 1106.296
755.2007, 1097.173
755.6828, 1095.892
756.1649, 1095.694
756.6470, 1099.016
757.1292, 1099.926
757.6113, 1093.596
758.0934, 1077.086
758.5755, 1066.509
759.0576, 1062.087
759.5397, 1062.599
760.0219, 1070.644
760.5040, 1082.738
760.9861, 1087.218
761.4682, 1081.635
761.9503, 1071.749
762.4324, 1057.607
762.9146, 1043.596
763.3967, 1035.030
763.8788, 1036.898
764.3609, 1038.262
764.8430, 1038.239
765.3251, 1036.333
765.8073, 1031.042
766.2894, 1020.648
766.7715, 1014.309
767.2536, 1014.785
767.7357, 1017.079
768.2178, 1010.259
768.7000, 997.2300
769.1821, 990.8911
769.6642, 999.4466
770.1463, 1009.483
770.6284, 1009.066
771.1105, 1001.846
771.5927, 994.8806
772.0748, 990.5430
772.5569, 986.4086
773.0390, 981.2522
773.5211, 976.0334
774.0032, 973.5864
774.4854, 974.6648
774.9675, 975.9826
775.4496, 977.6859
775.9317, 978.0148
776.4138, 968.8974
776.8959, 952.8413
777.3781, 943.0193
777.8602, 953.3670
778.3423, 967.2452
778.8244, 969.6443
779.3065, 963.0795
779.7886, 958.8930
780.2708, 963.0566
780.7529, 967.5721
781.2350, 970.7475
781.7171, 972.3315
782.1992, 969.0070
782.6813, 959.3571
783.1635, 950.4863
783.6456, 944.7473
784.1277, 942.7874
784.6098, 949.4932
785.0919, 963.7637
785.5740, 974.9672
786.0562, 973.3450
786.5383, 967.9406
787.0204, 966.1492
787.5025, 968.4414
787.9846, 970.7896
788.4667, 975.2745
788.9489, 976.4135
789.4310, 969.2318
789.9131, 952.6707
790.3952, 951.6928
790.8773, 969.9315
791.3594, 986.8381
791.8416, 982.4393
792.3237, 965.4037
792.8058, 959.9595
793.2879, 967.0812
793.7700, 974.7546
794.2521, 972.3831
794.7343, 968.5378
795.2164, 971.9045
795.6985, 986.7265
796.1806, 993.5148
796.6627, 985.3901
797.1448, 974.4365
797.6270, 966.9462
798.1091, 962.3671
798.5912, 967.8832
799.0733, 985.4059
799.5554, 1003.213
800.0375, 1009.306
800.5197, 1007.660
801.0018, 1004.786
801.4839, 1001.179
801.9660, 999.8099
802.4481, 1003.439
802.9302, 1009.502
803.4124, 1016.317
803.8945, 1026.117
804.3766, 1030.596
804.8587, 1027.548
805.3408, 1022.085
805.8229, 1017.780
806.3051, 1014.653
806.7872, 1017.067
807.2693, 1026.391
807.7514, 1035.199
808.2335, 1033.976
808.7156, 1027.956
809.1978, 1025.503
809.6799, 1029.712
810.1620, 1032.936
810.6441, 1028.834
811.1262, 1024.070
811.6083, 1025.452
812.0905, 1036.539
812.5726, 1046.148
813.0547, 1054.637
813.5368, 1060.360
814.0189, 1059.445
814.5010, 1053.301
814.9832, 1050.830
815.4653, 1054.215
815.9474, 1057.743
816.4295, 1057.882
816.9116, 1054.335
817.3937, 1045.644
817.8759, 1024.648
818.3580, 1012.160
818.8401, 1020.854
819.3222, 1034.484
819.8043, 1036.682
820.2864, 1023.436
820.7686, 1017.819
821.2507, 1023.041
821.7328, 1032.787
822.2149, 1042.633
822.6970, 1050.262
823.1791, 1048.033
823.6613, 1030.767
824.1434, 1015.122
824.6255, 1014.555
825.1076, 1020.650
825.5897, 1024.080
826.0718, 1024.514
826.5540, 1019.487
827.0361, 1005.193
827.5182, 989.7771
828.0003, 984.4880
828.4824, 989.2036
828.9645, 988.7450
829.4467, 979.7861
829.9288, 969.9266
830.4109, 970.2532
830.8930, 974.6471
831.3751, 972.9735
831.8572, 959.1293
832.3394, 947.1028
832.8215, 943.9445
833.3036, 943.7973
833.7857, 939.8703
834.2678, 930.4611
834.7499, 922.2139
835.2321, 915.3314
835.7142, 910.2477
836.1963, 908.3298
836.6784, 908.7650
837.1605, 909.3672
837.6426, 910.4660
838.1248, 908.2504
838.6069, 896.9833
839.0890, 882.0921
839.5711, 869.4799
840.0532, 859.2142
840.5353, 854.0367
841.0175, 858.7457
841.4996, 863.5235
841.9817, 856.8132
842.4638, 837.9919
842.9459, 822.5298
843.4280, 811.6040
843.9102, 805.5843
844.3923, 810.9958
844.8744, 819.5867
845.3565, 816.3739
845.8386, 794.6529
846.3207, 775.2715
846.8029, 768.9060
847.2850, 767.1732
847.7671, 762.4636
848.2492, 752.4798
848.7313, 745.7198
849.2134, 743.1289
849.6956, 741.4772
850.1777, 737.5681
850.6598, 731.8853
851.1419, 725.4022
851.6240, 717.9286
852.1061, 712.6962
852.5883, 715.1853
853.0704, 719.1373
853.5525, 718.8134
854.0346, 712.4661
854.5167, 704.0842
854.9988, 691.9056
855.4810, 680.4697
855.9631, 673.0436
856.4452, 669.6586
856.9273, 667.9992
857.4094, 668.2636
857.8915, 666.9266
858.3737, 658.8982
858.8558, 648.4807
859.3379, 641.6599
859.8200, 639.4836
860.3021, 636.2762
860.7842, 624.7598
861.2664, 616.4778
861.7485, 620.1411
862.2306, 638.1124
862.7127, 642.6613
863.1948, 631.3024
863.6769, 617.6190
864.1591, 611.4794
864.6412, 610.0927
865.1233, 605.6551
865.6054, 598.3231
866.0875, 593.9180
866.5696, 599.4033
867.0518, 605.9555
867.5339, 607.9610
868.0160, 604.7797
868.4981, 601.0980
868.9802, 596.3518
869.4623, 592.3704
869.9445, 590.6090
870.4266, 590.3107
870.9087, 587.2394
871.3908, 581.7129
871.8729, 577.4833
872.3550, 578.6723
872.8372, 580.5757
873.3193, 578.6956
873.8014, 573.6861
874.2835, 569.8763
874.7656, 567.2916
875.2477, 567.4727
875.7299, 572.4418
876.2120, 580.1468
876.6941, 582.0814
877.1762, 578.2614
877.6583, 574.1539
878.1404, 572.6241
878.6226, 571.5696
879.1047, 568.1078
879.5869, 562.8832
880.0690, 557.4758
880.5511, 552.6878
881.0332, 547.5363
881.5153, 540.2275
881.9974, 532.8506
882.4796, 530.1050
882.9617, 532.8607
883.4438, 535.6573
883.9259, 537.8581
884.4080, 538.1743
884.8901, 532.2076
885.3723, 522.8904
885.8544, 517.4998
886.3365, 522.9285
886.8186, 525.6255
887.3007, 515.4255
887.7828, 500.7283
888.2650, 493.5735
888.7471, 497.4943
889.2292, 500.1468
889.7113, 500.5981
890.1934, 499.3949
890.6755, 496.6889
891.1577, 492.9168
891.6398, 489.2916
892.1219, 486.0385
892.6040, 483.1277
893.0861, 480.3328
893.5682, 478.0349
894.0504, 476.5821
894.5325, 475.9760
895.0146, 476.6964
895.4967, 479.6805
895.9788, 482.2589
896.4609, 482.0598
896.9431, 479.4028
897.4252, 475.8435
897.9073, 471.4445
898.3894, 467.3898
898.8715, 463.6238
899.3536, 461.1760
899.8358, 461.4029
900.3179, 464.6671
900.8000, 467.2080
901.2821, 467.8980
901.7642, 468.9297
902.2463, 472.0411
902.7285, 476.5424
903.2106, 476.2747
903.6927, 471.4786
904.1748, 468.4302
904.6569, 472.1482
905.1390, 478.5945
905.6212, 484.8234
906.1033, 490.3907
906.5854, 494.2036
907.0675, 492.7573
907.5496, 493.4447
908.0317, 499.1458
908.5139, 507.6894
908.9960, 511.7748
909.4781, 511.3598
909.9602, 512.7174
910.4423, 518.5307
910.9244, 526.3074
911.4066, 533.0188
911.8887, 539.4680
912.3708, 547.2473
912.8529, 558.2755
913.3350, 568.9195
913.8171, 579.3027
914.2993, 588.3759
914.7814, 593.3767
915.2635, 593.6668
915.7456, 599.0358
916.2277, 611.6483
916.7098, 626.2221
917.1920, 639.0825
917.6741, 648.8693
918.1562, 652.4461
918.6383, 646.9717
919.1204, 643.2428
919.6025, 646.1921
920.0847, 650.6497
920.5668, 653.6276
921.0489, 655.2732
921.5310, 654.1967
922.0131, 650.3106
922.4952, 644.5763
922.9774, 637.1669
923.4595, 628.7023
923.9416, 619.5816
924.4237, 609.9963
924.9058, 601.5189
925.3879, 598.0738
925.8701, 592.2175
926.3522, 579.2239
926.8343, 560.4885
927.3164, 548.6991
927.7985, 544.6470
928.2806, 539.5600
928.7628, 527.8191
929.2449, 514.3397
929.7270, 507.8637
930.2091, 506.0125
930.6912, 502.1505
931.1733, 489.6913
931.6555, 479.4948
932.1376, 478.8439
932.6197, 480.7661
933.1018, 471.6055
933.5839, 448.8572
934.0660, 434.0795
934.5482, 432.4608
935.0303, 435.5233
935.5124, 432.7785
935.9945, 426.7846
936.4766, 422.2640
936.9587, 421.1806
937.4409, 419.0392
937.9230, 413.2094
938.4051, 406.6106
938.8872, 400.8732
939.3693, 395.3456
939.8514, 395.7273
940.3336, 402.9651
940.8157, 409.0548
941.2978, 406.5370
941.7799, 399.0850
942.2620, 390.7279
942.7441, 382.0288
943.2263, 375.8566
943.7084, 374.9406
944.1905, 375.3809
944.6726, 375.6421
945.1547, 375.8549
945.6368, 377.7100
946.1190, 381.4902
946.6011, 381.9839
947.0832, 373.6565
947.5653, 364.3190
948.0474, 367.1265
948.5295, 376.9259
949.0117, 381.7298
949.4938, 371.2849
949.9759, 363.2568
950.4580, 361.9863
950.9401, 363.9948
951.4222, 363.7307
951.9044, 361.1147
952.3865, 361.2687
952.8686, 365.5378
953.3507, 370.1628
953.8328, 371.5748
954.3149, 370.7493
954.7971, 368.4910
955.2792, 364.2651
955.7613, 361.3914
956.2434, 360.1139
956.7255, 360.6033
957.2076, 364.2667
957.6898, 370.8842
958.1719, 371.0447
958.6540, 364.8526
959.1361, 359.3425
959.6182, 361.9363
960.1003, 365.3669
960.5825, 360.8970
961.0646, 350.2597
961.5467, 345.0480
962.0288, 350.3395
962.5109, 356.9547
962.9930, 363.7130
963.4752, 369.5856
963.9573, 371.6359
964.4394, 370.1678
964.9215, 366.6529
965.4036, 359.6116
965.8857, 354.6732
966.3679, 358.3571
966.8500, 366.0027
967.3321, 371.6717
967.8142, 376.1967
968.2963, 374.4917
968.7784, 363.3373
969.2606, 352.4301
969.7427, 354.0790
970.2248, 364.3391
970.7069, 368.9721
971.1890, 366.9216
971.6711, 362.3811
972.1533, 353.0650
972.6354, 346.3911
973.1175, 350.0698
973.5996, 363.8040
974.0817, 369.8710
974.5638, 366.2423
975.0460, 362.1691
975.5281, 361.9423
976.0102, 363.2527
976.4923, 360.2925
976.9744, 354.6286
977.4565, 350.8648
977.9387, 351.7613
978.4208, 354.0189
978.9029, 359.5748
979.3850, 364.3005
979.8671, 361.2108
980.3492, 348.0734
980.8314, 341.0647
981.3135, 342.9100
981.7956, 346.6348
982.2777, 343.5797
982.7598, 337.9438
983.2419, 336.2488
983.7241, 340.0146
984.2062, 342.8806
984.6883, 341.1747
985.1704, 340.0670
985.6525, 342.8008
986.1346, 348.6425
986.6168, 347.9886
987.0989, 341.1399
987.5810, 337.5186
988.0631, 347.6794
988.5452, 359.2454
989.0273, 358.5067
989.5095, 349.9145
989.9916, 344.9669
990.4737, 349.3232
990.9558, 351.9719
991.4379, 351.0478
991.9200, 348.7270
992.4022, 348.3386
992.8843, 349.5191
993.3664, 350.9428
993.8485, 352.5385
994.3306, 353.1773
994.8127, 352.3382
995.2949, 350.0066
995.7770, 344.8417
996.2591, 335.5791
996.7412, 334.3417
997.2233, 343.6526
997.7054, 351.7988
998.1876, 348.8514
998.6697, 340.8841
999.1518, 342.5334
999.6339, 351.5828
1000.116, 359.1356
1000.598, 361.3701
1001.080, 361.2781
1001.562, 359.8582
1002.044, 356.8512
1002.527, 349.8552
1003.009, 338.1957
1003.491, 334.0272
1003.973, 340.8677
1004.455, 350.3590
1004.937, 355.2663
1005.419, 356.3046
1005.901, 353.3922
1006.384, 344.9937
1006.866, 339.1954
1007.348, 336.1061
1007.830, 336.9410
1008.312, 344.6411
1008.794, 357.1464
1009.276, 361.9836
1009.758, 359.7007
1010.240, 355.1766
1010.723, 349.3222
1011.205, 344.0345
1011.687, 340.8797
1012.169, 339.2088
1012.651, 337.0745
1013.133, 333.9259
1013.615, 331.6395
1014.097, 330.3773
1014.580, 330.3705
1015.062, 333.3307
1015.544, 337.3850
1016.026, 338.6505
1016.508, 335.9658
1016.990, 333.0904
1017.472, 328.7288
1017.954, 327.5468
1018.436, 334.4285
1018.919, 348.5326
1019.401, 350.0016
1019.883, 338.7984
1020.365, 328.8224
1020.847, 329.9895
1021.329, 334.6235
1021.811, 336.4510
1022.293, 335.6435
1022.776, 332.5367
1023.258, 323.5502
1023.740, 318.6056
1024.222, 319.7842
1024.704, 323.4544
1025.186, 325.3098
1025.668, 325.4690
1026.150, 323.9848
1026.632, 320.7656
1027.115, 317.3310
1027.597, 313.4782
1028.079, 310.7054
1028.561, 310.4893
1029.043, 312.6496
1029.525, 314.1576
1030.007, 315.1854
1030.489, 313.7508
1030.972, 306.8019
1031.454, 299.2967
1031.936, 299.2124
1032.418, 303.7080
1032.900, 306.6845
1033.382, 304.1634
1033.864, 302.9966
1034.346, 304.3281
1034.828, 306.6067
1035.311, 309.0990
1035.793, 311.3029
1036.275, 308.4055
1036.757, 299.9691
1037.239, 293.1570
1037.721, 293.4688
1038.203, 296.8329
1038.685, 301.9067
1039.167, 308.0207
1039.650, 310.8836
1040.132, 310.4044
1040.614, 306.5191
1041.096, 297.8387
1041.578, 288.2068
1042.060, 283.4743
1042.542, 282.5327
1043.024, 283.5402
1043.507, 287.8916
1043.989, 290.2734
1044.471, 289.3879
1044.953, 286.7498
1045.435, 282.3478
1045.917, 276.5899
1046.399, 276.0790
1046.881, 280.6348
1047.364, 283.9861
1047.846, 278.9879
1048.328, 274.0178
1048.810, 276.5420
1049.292, 284.3364
1049.774, 286.7714
1050.256, 282.1725
1050.738, 277.9011
1051.220, 275.5249
1051.703, 273.7574
1052.185, 269.4798
1052.667, 265.0367
1053.149, 265.2321
1053.631, 272.3909
1054.113, 277.5487
1054.595, 278.5058
1055.077, 276.5268
1055.559, 270.5951
1056.042, 261.9588
1056.524, 260.2467
1057.006, 264.5735
1057.488, 267.6977
1057.970, 263.0570
1058.452, 258.6788
1058.934, 261.2888
1059.416, 267.0936
1059.899, 268.6505
1060.381, 264.3994
1060.863, 260.9509
1061.345, 258.8373
1061.827, 257.5385
1062.309, 256.4067
1062.791, 255.7628
1063.273, 256.5003
1063.755, 258.6325
1064.238, 259.9443
1064.720, 258.5573
1065.202, 258.0297
1065.684, 259.9288
1066.166, 263.0074
1066.648, 263.3872
1067.130, 261.6457
1067.612, 260.6830
1068.094, 262.2011
1068.577, 262.8073
1069.059, 258.4446
1069.541, 253.5689
1070.023, 252.7558
1070.505, 257.0027
1070.987, 259.9610
1071.469, 261.7142
1071.951, 261.7822
1072.434, 258.1959
1072.916, 253.9496
1073.398, 252.9343
1073.880, 254.3374
1074.362, 255.1332
1074.844, 254.2651
1075.326, 253.3161
1075.808, 252.0546
1076.291, 251.5213
1076.773, 254.7422
1077.255, 259.7415
1077.737, 259.9134
1078.219, 254.0605
1078.701, 249.0946
1079.183, 249.2365
1079.665, 250.5796
1080.147, 251.3959
1080.630, 251.6419
1081.112, 250.9609
1081.594, 249.3759
1082.076, 247.4304
1082.558, 244.5763
1083.040, 242.8859
1083.522, 245.9943
1084.004, 250.5982
1084.486, 252.0460
1084.969, 248.5847
1085.451, 245.5645
1085.933, 242.8113
1086.415, 241.2454
1086.897, 243.0009
1087.379, 245.7083
1087.861, 244.2466
1088.343, 239.7039
1088.826, 237.0129
1089.308, 240.1882
1089.790, 242.3224
1090.272, 241.4658
1090.754, 239.8837
1091.236, 242.0873
1091.718, 246.8839
1092.200, 248.3110
1092.682, 245.2599
1093.165, 242.0338
1093.647, 241.5628
1094.129, 241.5611
1094.611, 240.4180
1095.093, 238.3635
1095.575, 237.2212
1096.057, 237.0202
1096.539, 237.1089
1097.022, 237.5909
1097.504, 237.5818
1097.986, 235.3284
1098.468, 232.3669
1098.950, 231.0224
1099.432, 232.9034
1099.914, 232.4461
1100.396, 228.5540
1100.879, 225.8958
1101.361, 229.8596
1101.843, 236.4619
1102.325, 237.7512
1102.807, 234.7245
1103.289, 231.3949
1103.771, 227.4559
1104.253, 226.1721
1104.735, 229.9207
1105.218, 234.0132
1105.700, 229.6156
1106.182, 219.3405
1106.664, 217.1336
1107.146, 224.6252
1107.628, 231.5735
1108.110, 231.5246
1108.592, 229.3262
1109.074, 227.0033
1109.557, 224.8590
1110.039, 224.4274
1110.521, 225.7412
1111.003, 225.6466
1111.485, 222.7121
1111.967, 219.6700
1112.449, 219.3989
1112.931, 220.3070
1113.414, 220.5543
1113.896, 219.6391
1114.378, 219.7523
1114.860, 220.9600
1115.342, 222.9946
1115.824, 227.2372
1116.306, 230.9189
1116.788, 227.7293
1117.271, 220.7492
1117.753, 216.8128
1118.235, 222.4325
1118.717, 224.3558
1119.199, 220.1284
1119.681, 215.1798
1120.163, 215.0038
1120.645, 218.4091
1121.127, 223.2619
1121.609, 228.9658
1122.092, 231.3907
1122.574, 224.9946
1123.056, 219.1167
1123.538, 217.0233
1124.020, 217.1358
1124.502, 216.0785
1124.984, 214.1534
1125.466, 214.0945
1125.949, 216.5150
1126.431, 219.7187
1126.913, 225.6568
1127.395, 229.1980
1127.877, 224.6540
1128.359, 213.5362
1128.841, 207.8001
1129.323, 207.6980
1129.806, 208.4211
1130.288, 208.5492
1130.770, 208.0856
1131.252, 205.7553
1131.734, 203.4408
1132.216, 203.8765
1132.698, 208.2024
1133.180, 212.4469
1133.662, 217.0114
1134.145, 219.6661
1134.627, 217.6480
1135.109, 213.7599
1135.591, 212.7258
1136.073, 213.4171
1136.555, 213.0045
1137.037, 209.1980
1137.519, 206.4089
1138.001, 204.8770
1138.484, 204.4522
1138.966, 205.4491
1139.448, 207.3289
1139.930, 209.6282
1140.412, 211.9696
1140.894, 211.4480
1141.376, 201.8088
1141.858, 195.8717
1142.341, 198.1310
1142.823, 204.4232
1143.305, 207.2322
1143.787, 207.3053
1144.269, 208.4348
1144.751, 211.4696
1145.233, 213.1082
1145.715, 210.2635
1146.198, 206.6079
1146.680, 203.4653
1147.162, 201.2824
1147.644, 203.4167
1148.126, 209.4320
1148.608, 213.1636
1149.090, 212.0851
1149.572, 209.8869
1150.054, 209.4866
1150.536, 209.1877
1151.019, 207.1946
1151.501, 203.3431
1151.983, 199.3786
1152.465, 195.1702
1152.947, 193.6326
1153.429, 199.6550
1153.911, 205.3136
1154.393, 199.7436
1154.876, 189.5640
1155.358, 187.0356
1155.840, 196.2717
1156.322, 202.4789
1156.804, 205.1914
1157.286, 205.9651
1157.768, 205.0329
1158.250, 203.5971
1158.733, 203.8716
1159.215, 205.0685
1159.697, 203.8038
1160.179, 197.0099
1160.661, 193.6658
1161.143, 195.4291
1161.625, 199.0895
1162.107, 202.1000
1162.589, 203.9514
1163.072, 202.6762
1163.554, 198.4983
1164.036, 196.9667
1164.518, 202.8013
1165.000, 205.4906
1165.482, 201.5368
1165.964, 194.8246
1166.446, 191.7020
1166.928, 191.4812
1167.411, 193.0423
1167.893, 196.4907
1168.375, 199.3984
1168.857, 201.2232
1169.339, 201.9606
1169.821, 201.0813
1170.303, 199.4500
1170.785, 200.4359
1171.268, 202.8909
1171.750, 202.8047
1172.232, 197.7889
1172.714, 193.0535
1173.196, 191.2312
1173.678, 189.7905
1174.160, 186.8929
1174.642, 183.0305
1175.125, 182.1042
1175.607, 183.6493
1176.089, 185.1278
1176.571, 184.0266
1177.053, 184.3558
1177.535, 190.3670
1178.017, 196.7368
1178.499, 198.1594
1178.981, 194.7100
1179.464, 192.0618
1179.946, 190.2711
1180.428, 189.0198
1180.910, 188.3820
1181.392, 187.9259
1181.874, 188.0007
1182.356, 187.7877
1182.838, 185.3684
1183.320, 180.5515
1183.803, 179.4713
1184.285, 182.7139
1184.767, 185.9018
1185.249, 184.8771
1185.731, 183.5058
1186.213, 184.9651
1186.695, 188.1256
1187.177, 189.8660
1187.660, 190.1859
1188.142, 188.5392
1188.624, 184.5139
1189.106, 181.2430
1189.588, 181.6439
1190.070, 183.8266
1190.552, 187.5099
1191.034, 191.9142
1191.516, 191.8362
1191.999, 186.5782
1192.481, 183.9919
1192.963, 186.8913
1193.445, 189.7947
1193.927, 185.9349
1194.409, 180.1859
1194.891, 177.7373
1195.373, 179.0041
1195.855, 179.0747
1196.338, 177.6809
1196.820, 177.4649
1197.302, 179.7384
1197.784, 183.0071
1198.266, 186.8897
1198.748, 190.1347
1199.230, 190.8913
1199.712, 188.6672
1200.195, 186.0719
1200.677, 182.9688
1201.159, 180.4309
1201.641, 178.9244
1202.123, 178.4360
1202.605, 179.0446
1203.087, 180.6439
1203.569, 183.5253
1204.052, 189.9091
1204.534, 189.5234
1205.016, 180.8475
1205.498, 174.4991
1205.980, 181.6477
1206.462, 191.9290
1206.944, 193.4271
1207.426, 188.7628
1207.908, 183.6473
1208.391, 177.7056
1208.873, 174.6932
1209.355, 175.2826
1209.837, 175.8729
1210.319, 171.4965
1210.801, 166.9217
1211.283, 169.0006
1211.765, 175.7416
1212.247, 179.3259
1212.730, 177.5396
1213.212, 178.4335
1213.694, 183.6198
1214.176, 187.7079
1214.658, 183.6617
1215.140, 176.9984
1215.622, 173.8886
1216.104, 174.1638
1216.587, 174.8202
1217.069, 176.2563
1217.551, 175.2469
1218.033, 170.4470
1218.515, 166.6626
1218.997, 171.7133
1219.479, 179.0609
1219.961, 179.9857
1220.443, 174.5913
1220.926, 174.8988
1221.408, 183.5034
1221.890, 188.8514
1222.372, 187.8671
1222.854, 184.1454
1223.336, 180.4179
1223.818, 177.3640
1224.300, 175.8848
1224.782, 176.1873
1225.265, 176.7926
1225.747, 177.4995
1226.229, 179.7876
1226.711, 184.9695
1227.193, 189.5394
1227.675, 188.9812
1228.157, 185.5338
1228.639, 181.1721
1229.122, 175.8900
1229.604, 173.1606
1230.086, 173.0168
1230.568, 175.4951
1231.050, 182.1670
1231.532, 188.1760
1232.014, 186.4117
1232.496, 181.5536
1232.979, 179.3998
1233.461, 180.6419
1233.943, 182.8478
1234.425, 186.3125
1234.907, 187.3976
1235.389, 182.7008
1235.871, 177.6213
1236.353, 178.3177
1236.835, 181.3602
1237.318, 182.1704
1237.800, 180.2953
1238.282, 178.0499
1238.764, 175.3593
1239.246, 174.2556
1239.728, 177.5051
1240.210, 180.7613
1240.692, 179.8913
1241.175, 177.0005
1241.657, 174.8835
1242.139, 173.5916
1242.621, 173.3473
1243.103, 174.1580
1243.585, 174.9844
1244.067, 174.2157
1244.549, 174.3004
1245.031, 179.4645
1245.514, 184.9742
1245.996, 183.9896
1246.478, 175.7868
1246.960, 169.2117
1247.442, 164.4323
1247.924, 161.9190
1248.406, 164.1193
1248.888, 166.3629
1249.370, 164.8927
1249.853, 162.6561
1250.335, 164.0937
1250.817, 169.0035
1251.299, 171.1925
1251.781, 170.5714
1252.263, 170.0543
1252.745, 171.9121
1253.227, 173.7249
1253.710, 174.8116
1254.192, 174.9493
1254.674, 173.2195
1255.156, 170.0311
1255.638, 168.5920
1256.120, 168.9386
1256.602, 169.1191
1257.084, 165.4882
1257.567, 165.1596
1258.049, 171.9560
1258.531, 180.8027
1259.013, 184.8905
1259.495, 185.0186
1259.977, 182.9611
1260.459, 179.2570
1260.941, 177.6563
1261.423, 183.7358
1261.906, 186.4484
1262.388, 181.7780
1262.870, 175.4000
1263.352, 176.7749
1263.834, 182.3974
1264.316, 183.9301
1264.798, 180.9213
1265.280, 178.0762
1265.762, 176.0264
1266.245, 175.7991
1266.727, 178.1992
1267.209, 181.0519
1267.691, 180.5612
1268.173, 178.8865
1268.655, 180.6298
1269.137, 185.7969
1269.619, 186.9044
1270.102, 181.3107
1270.584, 177.1164
1271.066, 176.1543
1271.548, 176.6318
1272.030, 176.4824
1272.512, 176.3938
1272.994, 177.5213
1273.476, 179.7870
1273.958, 180.8741
1274.441, 180.4485
1274.923, 180.3582
1275.405, 181.2220
1275.887, 181.5178
1276.369, 179.0277
1276.851, 175.6965
1277.333, 172.9169
1277.815, 170.9776
1278.297, 171.2703
1278.780, 173.9509
1279.262, 175.1899
1279.744, 173.8044
1280.226, 172.7215
1280.708, 175.3680
1281.190, 178.2283
1281.672, 178.7139
1282.154, 177.3389
1282.637, 175.1248
1283.119, 172.3773
1283.601, 172.4901
1284.083, 176.5963
1284.565, 180.4392
1285.047, 180.9198
1285.529, 181.1041
1286.011, 182.9944
1286.494, 185.3568
1286.976, 184.3688
1287.458, 180.8284
1287.940, 177.0638
1288.422, 173.3625
1288.904, 171.0854
1289.386, 172.2566
1289.868, 172.7261
1290.350, 170.3881
1290.833, 167.6870
1291.315, 170.5728
1291.797, 176.4387
1292.279, 180.0125
1292.761, 180.0489
1293.243, 180.4481
1293.725, 181.9033
1294.207, 183.5509
1294.689, 185.9673
1295.172, 186.4552
1295.654, 177.3289
1296.136, 165.9334
1296.618, 162.7075
1297.100, 170.0482
1297.582, 176.3124
1298.064, 182.0050
1298.546, 182.5488
1299.029, 174.4071
1299.511, 167.4710
1299.993, 176.0778
1300.475, 188.0757
1300.957, 190.2224
1301.439, 184.0275
1301.921, 181.4963
1302.403, 182.5065
1302.885, 183.7877
1303.368, 184.7484
1303.850, 184.4340
1304.332, 179.9561
1304.814, 176.3583
1305.296, 177.1637
1305.778, 180.8914
1306.260, 183.0245
1306.742, 183.4515
1307.224, 181.2043
##END=



