##NAMES=Boltwoodite
##RRUFFID=R060753
##IDEAL CHEMISTRY=(K,Na)U^6+^O_2_(SiO_3_OH)&#183;1.5H_2_O
##LOCALITY=Rossing mine, between Rossing & Arandis, near Swakopmund, Namibia
##OWNER=RRUFF
##SOURCE=Michael Scott
##DESCRIPTION=Radiating tufts of pale yellow-orange bladed crystals
##STATUS=The identification of this mineral has been confirmed by single-crystal X-ray diffraction.
##URL=rruff.info/R060753
138.884, 1409.614
139.366, 1467.465
139.848, 1534.569
140.330, 1603.170
140.812, 1671.048
141.294, 1744.307
141.777, 1826.860
142.259, 1912.992
142.741, 1997.041
143.223, 2075.844
143.705, 2150.189
144.187, 2223.918
144.669, 2299.989
145.151, 2370.317
145.633, 2434.767
146.116, 2492.642
146.598, 2543.881
147.080, 2588.418
147.562, 2625.800
148.044, 2653.332
148.526, 2667.594
149.008, 2674.286
149.490, 2674.813
149.973, 2668.528
150.455, 2653.288
150.937, 2627.106
151.419, 2591.335
151.901, 2558.998
152.383, 2537.857
152.865, 2512.110
153.347, 2469.890
153.829, 2420.963
154.312, 2383.450
154.794, 2370.247
155.276, 2380.050
155.758, 2383.168
156.240, 2373.885
156.722, 2364.395
157.204, 2353.861
157.686, 2345.462
158.169, 2345.409
158.651, 2358.838
159.133, 2385.586
159.615, 2410.662
160.097, 2432.168
160.579, 2454.367
161.061, 2478.668
161.543, 2504.969
162.025, 2532.392
162.508, 2560.312
162.990, 2588.872
163.472, 2619.287
163.954, 2656.490
164.436, 2690.515
164.918, 2719.656
165.400, 2742.444
165.883, 2754.602
166.365, 2749.861
166.847, 2728.778
167.329, 2725.376
167.811, 2760.196
168.293, 2791.443
168.775, 2794.337
169.257, 2772.823
169.739, 2748.827
170.221, 2739.415
170.704, 2743.838
171.186, 2736.123
171.668, 2706.019
172.150, 2674.142
172.632, 2651.936
173.114, 2638.902
173.596, 2628.583
174.078, 2616.186
174.561, 2602.236
175.043, 2592.560
175.525, 2591.946
176.007, 2591.448
176.489, 2583.317
176.971, 2568.679
177.453, 2557.273
177.935, 2557.150
178.417, 2567.229
178.900, 2572.345
179.382, 2565.558
179.864, 2559.484
180.346, 2565.053
180.828, 2581.092
181.310, 2595.035
181.792, 2596.031
182.274, 2587.132
182.757, 2589.385
183.239, 2613.253
183.721, 2640.091
184.203, 2656.399
184.685, 2662.750
185.167, 2667.044
185.649, 2673.107
186.131, 2681.402
186.613, 2692.132
187.096, 2704.164
187.578, 2719.547
188.060, 2741.384
188.542, 2769.205
189.024, 2796.462
189.506, 2818.709
189.988, 2837.496
190.470, 2859.213
190.952, 2886.710
191.435, 2914.656
191.917, 2937.695
192.399, 2956.519
192.881, 2977.427
193.363, 3000.904
193.845, 3030.896
194.327, 3074.572
194.809, 3142.518
195.292, 3212.904
195.774, 3266.385
196.256, 3305.040
196.738, 3350.163
197.220, 3417.939
197.702, 3496.941
198.184, 3557.797
198.666, 3583.253
199.148, 3613.786
199.631, 3682.594
200.113, 3785.458
200.595, 3888.713
201.077, 3975.576
201.559, 4054.806
202.041, 4144.028
202.523, 4244.723
203.005, 4352.376
203.488, 4466.149
203.970, 4584.918
204.452, 4705.430
204.934, 4827.718
205.416, 4949.013
205.898, 5063.803
206.380, 5168.664
206.862, 5276.594
207.344, 5394.935
207.827, 5522.949
208.309, 5657.799
208.791, 5799.768
209.273, 5947.123
209.755, 6099.238
210.237, 6260.302
210.719, 6408.521
211.201, 6519.875
211.684, 6605.492
212.166, 6711.605
212.648, 6864.712
213.130, 7025.072
213.612, 7135.577
214.094, 7190.474
214.576, 7243.315
215.058, 7334.143
215.540, 7442.982
216.023, 7513.100
216.505, 7524.066
216.987, 7504.438
217.469, 7491.252
217.951, 7485.859
218.433, 7467.214
218.915, 7423.655
219.397, 7361.621
219.880, 7292.833
220.362, 7217.611
220.844, 7140.167
221.326, 7069.574
221.808, 7005.217
222.290, 6926.505
222.772, 6816.999
223.254, 6691.817
223.736, 6577.009
224.219, 6479.147
224.701, 6380.979
225.183, 6262.798
225.665, 6126.957
226.147, 5994.369
226.629, 5865.645
227.111, 5743.752
227.593, 5636.668
228.076, 5546.441
228.558, 5453.885
229.040, 5337.044
229.522, 5201.597
230.004, 5081.159
230.486, 4990.771
230.968, 4910.727
231.450, 4822.552
231.932, 4725.370
232.415, 4625.255
232.897, 4522.685
233.379, 4420.678
233.861, 4331.571
234.343, 4265.841
234.825, 4205.249
235.307, 4137.300
235.789, 4062.654
236.271, 3986.974
236.754, 3913.862
237.236, 3842.862
237.718, 3772.557
238.200, 3700.065
238.682, 3630.933
239.164, 3566.914
239.646, 3508.413
240.128, 3457.382
240.611, 3416.758
241.093, 3382.435
241.575, 3341.935
242.057, 3290.343
242.539, 3241.516
243.021, 3199.408
243.503, 3163.667
243.985, 3134.894
244.467, 3114.344
244.950, 3097.869
245.432, 3076.143
245.914, 3046.890
246.396, 3018.789
246.878, 2993.462
247.360, 2970.213
247.842, 2946.950
248.324, 2922.940
248.807, 2901.591
249.289, 2888.397
249.771, 2884.503
250.253, 2885.878
250.735, 2896.161
251.217, 2909.440
251.699, 2919.766
252.181, 2926.172
252.663, 2931.827
253.146, 2940.119
253.628, 2951.490
254.110, 2964.343
254.592, 2978.530
255.074, 2994.197
255.556, 3011.333
256.038, 3029.957
256.520, 3050.502
257.003, 3073.795
257.485, 3100.255
257.967, 3122.336
258.449, 3135.013
258.931, 3149.032
259.413, 3168.345
259.895, 3192.755
260.377, 3221.304
260.859, 3253.914
261.342, 3289.932
261.824, 3322.258
262.306, 3349.863
262.788, 3375.371
263.270, 3392.845
263.752, 3410.059
264.234, 3440.261
264.716, 3490.433
265.198, 3553.145
265.681, 3604.512
266.163, 3629.189
266.645, 3662.478
267.127, 3713.294
267.609, 3770.104
268.091, 3819.197
268.573, 3856.655
269.056, 3892.931
269.538, 3948.116
270.020, 4038.241
270.502, 4113.877
270.984, 4163.212
271.466, 4208.807
271.948, 4268.851
272.430, 4343.906
272.912, 4418.373
273.395, 4473.960
273.877, 4508.443
274.359, 4536.296
274.841, 4562.851
275.323, 4577.627
275.805, 4574.002
276.287, 4553.958
276.769, 4523.855
277.251, 4487.614
277.734, 4445.424
278.216, 4401.298
278.698, 4364.996
279.180, 4312.587
279.662, 4229.555
280.144, 4127.529
280.626, 4025.052
281.108, 3931.200
281.591, 3843.962
282.073, 3757.487
282.555, 3672.365
283.037, 3588.244
283.519, 3503.784
284.001, 3420.705
284.483, 3338.991
284.965, 3256.893
285.447, 3182.793
285.930, 3131.199
286.412, 3105.038
286.894, 3074.687
287.376, 3031.344
287.858, 2980.607
288.340, 2922.710
288.822, 2856.967
289.304, 2800.091
289.786, 2770.291
290.269, 2762.158
290.751, 2746.632
291.233, 2713.605
291.715, 2680.269
292.197, 2664.616
292.679, 2664.225
293.161, 2663.660
293.643, 2655.127
294.125, 2643.013
294.608, 2635.990
295.090, 2635.917
295.572, 2634.040
296.054, 2620.188
296.536, 2597.905
297.018, 2582.651
297.500, 2579.366
297.983, 2581.531
298.465, 2583.203
298.947, 2584.952
299.429, 2592.594
299.911, 2611.511
300.393, 2637.623
300.875, 2655.953
301.357, 2654.584
301.839, 2661.049
302.322, 2691.451
302.804, 2735.854
303.286, 2775.464
303.768, 2803.214
304.250, 2824.364
304.732, 2848.491
305.214, 2873.186
305.696, 2906.215
306.178, 2958.385
306.661, 3013.284
307.143, 3054.012
307.625, 3078.417
308.107, 3098.288
308.589, 3127.909
309.071, 3171.955
309.553, 3203.260
310.035, 3208.458
310.517, 3215.542
311.000, 3240.610
311.482, 3279.436
311.964, 3318.176
312.446, 3346.631
312.928, 3365.885
313.410, 3386.006
313.892, 3410.824
314.374, 3432.088
314.857, 3448.369
315.339, 3460.375
315.821, 3470.310
316.303, 3479.297
316.785, 3483.456
317.267, 3473.909
317.749, 3446.098
318.231, 3415.493
318.714, 3389.801
319.196, 3358.424
319.678, 3312.306
320.160, 3250.620
320.642, 3182.177
321.124, 3112.988
321.606, 3043.366
322.088, 2977.766
322.570, 2916.873
323.052, 2860.785
323.535, 2811.877
324.017, 2767.709
324.499, 2720.365
324.981, 2663.260
325.463, 2600.997
325.945, 2542.594
326.427, 2487.972
326.909, 2438.205
327.392, 2394.952
327.874, 2356.742
328.356, 2321.628
328.838, 2289.936
329.320, 2260.616
329.802, 2231.826
330.284, 2204.155
330.766, 2182.575
331.249, 2171.355
331.731, 2164.102
332.213, 2149.758
332.695, 2127.532
333.177, 2103.601
333.659, 2075.182
334.141, 2047.900
334.623, 2031.441
335.105, 2027.795
335.588, 2026.362
336.070, 2015.419
336.552, 1992.743
337.034, 1976.213
337.516, 1970.121
337.998, 1966.094
338.480, 1959.266
338.962, 1950.316
339.444, 1943.173
339.927, 1941.038
340.409, 1941.939
340.891, 1934.434
341.373, 1907.545
341.855, 1885.007
342.337, 1870.838
342.819, 1861.699
343.301, 1853.730
343.784, 1845.693
344.266, 1838.909
344.748, 1836.590
345.230, 1842.493
345.712, 1842.581
346.194, 1829.476
346.676, 1816.675
347.158, 1811.408
347.641, 1813.299
348.123, 1817.892
348.605, 1823.119
349.087, 1828.368
349.569, 1828.496
350.051, 1822.123
350.533, 1812.619
351.015, 1797.656
351.497, 1781.778
351.979, 1771.952
352.462, 1771.789
352.944, 1776.256
353.426, 1780.002
353.908, 1783.072
354.390, 1783.315
354.872, 1775.830
355.354, 1768.009
355.836, 1778.946
356.319, 1785.330
356.801, 1787.405
357.283, 1772.267
357.765, 1779.356
358.247, 1777.537
358.729, 1775.354
359.211, 1785.571
359.693, 1772.937
360.176, 1782.958
360.658, 1783.935
361.140, 1782.816
361.622, 1791.632
362.104, 1791.205
362.586, 1784.594
363.068, 1782.756
363.550, 1792.159
364.032, 1809.559
364.515, 1824.214
364.997, 1837.486
365.479, 1846.038
365.961, 1841.130
366.443, 1836.008
366.925, 1846.722
367.407, 1875.287
367.889, 1906.992
368.371, 1922.355
368.854, 1916.378
369.336, 1917.764
369.818, 1936.489
370.300, 1953.056
370.782, 1955.048
371.264, 1949.370
371.746, 1951.943
372.228, 1973.940
372.711, 2008.612
373.193, 2037.020
373.675, 2058.575
374.157, 2075.307
374.639, 2084.997
375.121, 2091.672
375.603, 2097.844
376.085, 2103.770
376.568, 2111.330
377.050, 2124.435
377.532, 2141.189
378.014, 2151.517
378.496, 2150.274
378.978, 2149.151
379.460, 2161.742
379.942, 2185.279
380.424, 2207.827
380.906, 2224.660
381.389, 2240.679
381.871, 2261.207
382.353, 2285.565
382.835, 2308.939
383.317, 2328.938
383.799, 2345.681
384.281, 2359.333
384.763, 2359.696
385.246, 2371.007
385.728, 2406.899
386.210, 2451.439
386.692, 2486.238
387.174, 2507.104
387.656, 2522.532
388.138, 2542.885
388.620, 2569.101
389.103, 2596.163
389.585, 2622.395
390.067, 2651.188
390.549, 2689.571
391.031, 2731.179
391.513, 2761.869
391.995, 2771.679
392.477, 2770.114
392.959, 2784.667
393.442, 2823.385
393.924, 2856.876
394.406, 2879.892
394.888, 2893.349
395.370, 2894.803
395.852, 2884.109
396.334, 2870.806
396.816, 2864.736
397.298, 2862.521
397.781, 2849.267
398.263, 2819.664
398.745, 2789.863
399.227, 2778.479
399.709, 2778.513
400.191, 2765.707
400.673, 2727.561
401.155, 2682.976
401.638, 2644.857
402.120, 2611.440
402.602, 2575.802
403.084, 2533.877
403.566, 2490.885
404.048, 2457.530
404.530, 2441.388
405.012, 2420.658
405.495, 2394.388
405.977, 2363.191
406.459, 2323.096
406.941, 2276.865
407.423, 2235.228
407.905, 2208.476
408.387, 2195.836
408.869, 2180.477
409.351, 2160.832
409.833, 2140.101
410.316, 2114.938
410.798, 2090.802
411.280, 2076.711
411.762, 2075.985
412.244, 2075.202
412.726, 2052.451
413.208, 2006.222
413.690, 1970.250
414.173, 1953.111
414.655, 1943.279
415.137, 1934.584
415.619, 1926.007
416.101, 1913.340
416.583, 1893.251
417.065, 1868.991
417.547, 1844.203
418.030, 1819.004
418.512, 1792.965
418.994, 1764.311
419.476, 1736.205
419.958, 1716.811
420.440, 1706.539
420.922, 1702.250
421.404, 1710.420
421.886, 1720.472
422.369, 1720.428
422.851, 1708.522
423.333, 1690.733
423.815, 1671.850
424.297, 1651.479
424.779, 1637.075
425.261, 1636.116
425.743, 1632.609
426.225, 1620.981
426.708, 1604.976
427.190, 1588.599
427.672, 1573.314
428.154, 1561.793
428.636, 1560.384
429.118, 1571.323
429.600, 1576.920
430.082, 1569.013
430.565, 1561.172
431.047, 1565.342
431.529, 1578.133
432.011, 1584.962
432.493, 1575.805
432.975, 1558.360
433.457, 1542.080
433.939, 1527.030
434.422, 1515.519
434.904, 1508.089
435.386, 1505.481
435.868, 1510.891
436.350, 1530.632
436.832, 1542.226
437.314, 1532.413
437.796, 1515.929
438.278, 1508.592
438.760, 1512.492
439.243, 1520.913
439.725, 1528.040
440.207, 1533.873
440.689, 1540.998
441.171, 1555.329
441.653, 1564.000
442.135, 1558.097
442.617, 1547.988
443.100, 1547.314
443.582, 1560.330
444.064, 1576.660
444.546, 1580.738
445.028, 1571.418
445.510, 1569.478
445.992, 1578.745
446.474, 1593.267
446.957, 1610.556
447.439, 1629.672
447.921, 1648.055
448.403, 1664.371
448.885, 1680.029
449.367, 1698.757
449.849, 1719.221
450.331, 1731.002
450.813, 1727.246
451.296, 1719.197
451.778, 1727.427
452.260, 1757.924
452.742, 1782.926
453.224, 1790.406
453.706, 1798.935
454.188, 1826.726
454.670, 1869.526
455.152, 1908.214
455.635, 1929.562
456.117, 1937.917
456.599, 1951.833
457.081, 1975.348
457.563, 1997.721
458.045, 2015.225
458.527, 2032.776
459.009, 2056.997
459.492, 2087.296
459.974, 2113.524
460.456, 2124.410
460.938, 2123.739
461.420, 2128.261
461.902, 2139.470
462.384, 2151.800
462.866, 2165.401
463.349, 2176.914
463.831, 2180.083
464.313, 2172.489
464.795, 2160.472
465.277, 2147.515
465.759, 2132.234
466.241, 2110.093
466.723, 2080.254
467.205, 2051.739
467.688, 2034.573
468.170, 2030.005
468.652, 2018.548
469.134, 1990.739
469.616, 1967.622
470.098, 1959.950
470.580, 1958.892
471.062, 1952.103
471.544, 1935.167
472.027, 1913.538
472.509, 1891.110
472.991, 1866.057
473.473, 1859.601
473.955, 1892.175
474.437, 1919.143
474.919, 1910.725
475.401, 1878.572
475.884, 1849.937
476.366, 1834.461
476.848, 1825.302
477.330, 1814.559
477.812, 1803.939
478.294, 1804.550
478.776, 1823.703
479.258, 1843.151
479.741, 1835.397
480.223, 1790.119
480.705, 1762.808
481.187, 1766.246
481.669, 1776.806
482.151, 1784.157
482.633, 1787.772
483.115, 1789.274
483.597, 1789.507
484.079, 1788.112
484.562, 1784.105
485.044, 1776.784
485.526, 1768.803
486.008, 1753.833
486.490, 1743.925
486.972, 1747.599
487.454, 1762.329
487.936, 1778.943
488.419, 1796.650
488.901, 1810.263
489.383, 1807.837
489.865, 1790.096
490.347, 1777.244
490.829, 1777.643
491.311, 1785.756
491.793, 1794.664
492.276, 1806.287
492.758, 1809.728
493.240, 1796.751
493.722, 1780.225
494.204, 1769.448
494.686, 1764.011
495.168, 1759.098
495.650, 1751.664
496.132, 1743.722
496.615, 1742.544
497.097, 1757.194
497.579, 1759.115
498.061, 1733.315
498.543, 1705.084
499.025, 1689.655
499.507, 1686.396
499.989, 1686.370
500.471, 1687.171
500.954, 1686.020
501.436, 1676.795
501.918, 1659.340
502.400, 1639.372
502.882, 1616.951
503.364, 1595.287
503.846, 1579.551
504.328, 1568.968
504.810, 1565.075
505.293, 1575.204
505.775, 1586.720
506.257, 1588.755
506.739, 1582.505
507.221, 1574.377
507.703, 1567.640
508.185, 1563.720
508.668, 1568.005
509.150, 1587.637
509.632, 1600.312
510.114, 1595.912
510.596, 1591.235
511.078, 1598.966
511.560, 1616.432
512.042, 1630.025
512.524, 1630.606
513.006, 1623.528
513.489, 1613.282
513.971, 1600.096
514.453, 1602.454
514.935, 1634.537
515.417, 1675.354
515.899, 1688.183
516.381, 1666.957
516.864, 1656.737
517.346, 1667.614
517.828, 1687.590
518.310, 1711.241
518.792, 1736.914
519.274, 1763.659
519.756, 1791.052
520.238, 1817.575
520.720, 1839.338
521.203, 1853.921
521.685, 1870.733
522.167, 1890.220
522.649, 1912.544
523.131, 1937.418
523.613, 1965.256
524.095, 1996.858
524.577, 2032.445
525.059, 2072.131
525.542, 2116.895
526.024, 2166.014
526.506, 2217.961
526.988, 2273.163
527.470, 2327.392
527.952, 2372.204
528.434, 2403.069
528.916, 2453.436
529.398, 2539.582
529.881, 2628.116
530.363, 2711.025
530.845, 2783.880
531.327, 2840.289
531.809, 2877.694
532.291, 2904.864
532.773, 2930.693
533.255, 2953.538
533.737, 2993.403
534.220, 3069.244
534.702, 3136.232
535.184, 3173.234
535.666, 3185.024
536.148, 3177.795
536.630, 3146.687
537.112, 3109.151
537.594, 3081.801
538.077, 3056.094
538.559, 3013.751
539.041, 2951.403
539.523, 2876.868
540.005, 2796.886
540.487, 2711.287
540.969, 2626.994
541.451, 2541.524
541.933, 2459.318
542.416, 2379.835
542.898, 2304.647
543.380, 2235.395
543.862, 2172.282
544.344, 2115.908
544.826, 2069.838
545.308, 2031.226
545.791, 1986.706
546.273, 1934.461
546.755, 1885.464
547.237, 1843.673
547.719, 1809.394
548.201, 1783.639
548.683, 1769.372
549.165, 1752.263
549.647, 1722.781
550.130, 1692.870
550.612, 1674.825
551.094, 1667.097
551.576, 1661.061
552.058, 1651.754
552.540, 1639.537
553.022, 1624.895
553.504, 1606.701
553.987, 1589.119
554.469, 1568.798
554.951, 1552.504
555.433, 1546.153
555.915, 1547.191
556.397, 1547.620
556.879, 1544.697
557.361, 1539.009
557.843, 1529.181
558.326, 1516.730
558.808, 1508.540
559.290, 1507.138
559.772, 1506.604
560.254, 1499.790
560.736, 1485.667
561.218, 1474.887
561.700, 1473.065
562.182, 1467.503
562.665, 1449.130
563.147, 1427.339
563.629, 1413.035
564.111, 1409.251
564.593, 1412.307
565.075, 1424.727
565.557, 1442.931
566.039, 1440.442
566.521, 1411.740
567.004, 1381.435
567.486, 1359.225
567.968, 1344.724
568.450, 1336.588
568.932, 1337.013
569.414, 1336.984
569.896, 1329.969
570.378, 1324.288
570.860, 1330.862
571.343, 1346.755
571.825, 1359.036
572.307, 1359.963
572.789, 1353.250
573.271, 1348.720
573.753, 1348.179
574.235, 1343.839
574.718, 1328.626
575.200, 1315.744
575.682, 1315.392
576.164, 1323.418
576.646, 1327.345
577.128, 1318.782
577.610, 1310.693
578.092, 1318.554
578.574, 1335.053
579.057, 1340.110
579.539, 1328.884
580.021, 1314.497
580.503, 1309.788
580.985, 1314.691
581.467, 1320.116
581.949, 1331.174
582.431, 1336.246
582.914, 1327.905
583.396, 1316.394
583.878, 1312.584
584.360, 1317.077
584.842, 1320.276
585.324, 1310.273
585.806, 1295.181
586.288, 1297.561
586.770, 1317.308
587.253, 1325.949
587.735, 1306.970
588.217, 1279.863
588.699, 1278.730
589.181, 1315.909
589.663, 1333.856
590.145, 1317.435
590.627, 1295.880
591.109, 1279.364
591.592, 1269.458
592.074, 1269.406
592.556, 1280.182
593.038, 1290.966
593.520, 1285.027
594.002, 1263.751
594.484, 1248.590
594.966, 1240.362
595.448, 1239.542
595.931, 1253.651
596.413, 1273.146
596.895, 1274.738
597.377, 1247.015
597.859, 1228.654
598.341, 1239.951
598.823, 1259.116
599.305, 1265.922
599.787, 1261.005
600.270, 1255.416
600.752, 1255.922
601.234, 1258.769
601.716, 1253.703
602.198, 1237.825
602.680, 1228.392
603.162, 1231.538
603.644, 1236.468
604.127, 1235.827
604.609, 1231.408
605.091, 1227.892
605.573, 1226.416
606.055, 1225.825
606.537, 1225.052
607.019, 1224.872
607.501, 1227.752
607.984, 1233.418
608.466, 1237.125
608.948, 1234.595
609.430, 1226.958
609.912, 1219.980
610.394, 1211.958
610.876, 1208.230
611.358, 1212.306
611.841, 1218.923
612.323, 1227.143
612.805, 1235.503
613.287, 1238.518
613.769, 1227.001
614.251, 1215.809
614.733, 1222.899
615.215, 1240.890
615.697, 1250.545
616.180, 1246.607
616.662, 1236.873
617.144, 1229.188
617.626, 1223.547
618.108, 1217.382
618.590, 1206.607
619.072, 1201.399
619.554, 1211.039
620.036, 1221.546
620.519, 1217.397
621.001, 1199.017
621.483, 1185.232
621.965, 1191.631
622.447, 1205.373
622.929, 1209.853
623.411, 1206.510
623.893, 1202.500
624.375, 1200.274
624.858, 1198.085
625.340, 1192.813
625.822, 1183.035
626.304, 1181.323
626.786, 1199.435
627.268, 1211.835
627.750, 1205.913
628.232, 1195.530
628.714, 1198.422
629.197, 1216.722
629.679, 1231.715
630.161, 1226.471
630.643, 1211.525
631.125, 1204.424
631.607, 1204.834
632.089, 1207.054
632.571, 1209.332
633.054, 1210.156
633.536, 1206.624
634.018, 1196.854
634.500, 1195.068
634.982, 1195.294
635.464, 1195.031
635.946, 1194.307
636.428, 1191.737
636.911, 1191.550
637.393, 1190.408
637.875, 1189.226
638.357, 1189.375
638.839, 1187.073
639.321, 1187.201
639.803, 1186.181
640.285, 1175.899
640.768, 1176.226
641.250, 1181.736
641.732, 1183.297
642.214, 1179.624
642.696, 1176.599
643.178, 1173.081
643.660, 1171.455
644.142, 1174.098
644.624, 1178.413
645.107, 1181.628
645.589, 1183.015
646.071, 1181.697
646.553, 1172.262
647.035, 1161.463
647.517, 1165.272
647.999, 1182.690
648.481, 1196.878
648.963, 1200.652
649.446, 1195.994
649.928, 1184.822
650.410, 1162.630
650.892, 1150.804
651.374, 1158.063
651.856, 1165.506
652.338, 1165.135
652.820, 1162.428
653.302, 1165.597
653.785, 1176.553
654.267, 1187.286
654.749, 1191.696
655.231, 1192.355
655.713, 1192.968
656.195, 1193.740
656.677, 1195.392
657.159, 1198.724
657.641, 1200.253
658.124, 1192.758
658.606, 1171.298
659.088, 1163.471
659.570, 1185.763
660.052, 1202.571
660.534, 1199.415
661.016, 1188.012
661.498, 1183.441
661.981, 1188.470
662.463, 1190.526
662.945, 1174.100
663.427, 1155.626
663.909, 1160.180
664.391, 1183.158
664.873, 1202.885
665.355, 1210.963
665.838, 1213.013
666.320, 1217.285
666.802, 1224.522
667.284, 1225.941
667.766, 1211.473
668.248, 1206.630
668.730, 1231.562
669.212, 1261.606
669.695, 1268.871
670.177, 1250.851
670.659, 1233.843
671.141, 1230.847
671.623, 1232.189
672.105, 1229.430
672.587, 1223.734
673.069, 1217.938
673.551, 1213.134
674.034, 1210.645
674.516, 1212.284
674.998, 1217.898
675.480, 1224.763
675.962, 1233.739
676.444, 1242.060
676.926, 1251.829
677.408, 1258.060
677.890, 1253.610
678.373, 1239.066
678.855, 1228.406
679.337, 1226.611
679.819, 1227.880
680.301, 1231.328
680.783, 1234.656
681.265, 1233.320
681.747, 1227.199
682.229, 1222.419
682.712, 1225.146
683.194, 1232.877
683.676, 1236.468
684.158, 1235.551
684.640, 1232.833
685.122, 1226.871
685.604, 1222.911
686.086, 1228.641
686.568, 1243.053
687.051, 1249.290
687.533, 1235.615
688.015, 1228.318
688.497, 1241.961
688.979, 1260.111
689.461, 1264.609
689.943, 1256.984
690.425, 1253.201
690.908, 1264.352
691.390, 1281.815
691.872, 1291.786
692.354, 1295.213
692.836, 1298.427
693.318, 1302.556
693.800, 1306.380
694.282, 1308.547
694.765, 1309.750
695.247, 1313.520
695.729, 1324.833
696.211, 1331.031
696.693, 1326.006
697.175, 1321.303
697.657, 1325.229
698.139, 1334.524
698.622, 1340.905
699.104, 1340.483
699.586, 1340.066
700.068, 1346.811
700.550, 1356.805
701.032, 1362.276
701.514, 1363.221
701.996, 1365.555
702.478, 1372.778
702.961, 1381.932
703.443, 1387.204
703.925, 1388.638
704.407, 1385.563
704.889, 1371.480
705.371, 1362.464
705.853, 1367.714
706.335, 1380.927
706.817, 1395.728
707.300, 1412.316
707.782, 1424.399
708.264, 1427.172
708.746, 1427.101
709.228, 1428.446
709.710, 1431.049
710.192, 1433.193
710.674, 1434.577
711.156, 1438.339
711.639, 1450.812
712.121, 1468.822
712.603, 1473.747
713.085, 1463.972
713.567, 1452.852
714.049, 1442.423
714.531, 1436.161
715.013, 1439.103
715.495, 1451.965
715.978, 1464.223
716.460, 1476.714
716.942, 1487.698
717.424, 1494.258
717.906, 1500.891
718.388, 1513.464
718.870, 1530.720
719.352, 1545.424
719.835, 1555.179
720.317, 1557.743
720.799, 1545.829
721.281, 1524.767
721.763, 1507.630
722.245, 1497.133
722.727, 1498.959
723.209, 1519.632
723.692, 1551.540
724.174, 1568.123
724.656, 1563.800
725.138, 1558.865
725.620, 1551.203
726.102, 1547.270
726.584, 1556.571
727.066, 1570.087
727.549, 1569.468
728.031, 1547.671
728.513, 1527.034
728.995, 1509.389
729.477, 1502.353
729.959, 1520.636
730.441, 1553.924
730.923, 1578.447
731.405, 1585.015
731.888, 1584.120
732.370, 1587.046
732.852, 1593.362
733.334, 1603.161
733.816, 1617.507
734.298, 1620.667
734.780, 1601.930
735.262, 1579.803
735.744, 1580.387
736.227, 1607.121
736.709, 1623.161
737.191, 1620.362
737.673, 1617.806
738.155, 1615.659
738.637, 1617.944
739.119, 1630.320
739.601, 1651.192
740.083, 1671.617
740.566, 1690.047
741.048, 1703.145
741.530, 1701.030
742.012, 1693.765
742.494, 1702.573
742.976, 1728.526
743.458, 1757.031
743.940, 1779.907
744.422, 1792.775
744.905, 1775.910
745.387, 1721.364
745.869, 1707.638
746.351, 1755.201
746.833, 1813.065
747.315, 1855.142
747.797, 1887.108
748.279, 1923.643
748.762, 1970.035
749.244, 2003.981
749.726, 2008.528
750.208, 2015.278
750.690, 2044.264
751.172, 2084.091
751.654, 2117.795
752.136, 2141.294
752.619, 2160.719
753.101, 2177.485
753.583, 2194.941
754.065, 2217.952
754.547, 2246.055
755.029, 2278.452
755.511, 2314.858
755.993, 2350.693
756.476, 2380.356
756.958, 2406.336
757.440, 2445.229
757.922, 2502.296
758.404, 2554.476
758.886, 2589.113
759.368, 2629.330
759.850, 2700.413
760.332, 2789.917
760.815, 2864.403
761.297, 2915.562
761.779, 2963.488
762.261, 3006.226
762.743, 3053.511
763.225, 3110.504
763.707, 3178.141
764.189, 3257.398
764.671, 3348.631
765.154, 3448.961
765.636, 3560.272
766.118, 3676.952
766.600, 3785.069
767.082, 3886.342
767.564, 3992.987
768.046, 4109.321
768.528, 4233.887
769.010, 4361.855
769.493, 4494.482
769.975, 4651.898
770.457, 4845.325
770.939, 5036.744
771.421, 5211.510
771.903, 5387.342
772.385, 5581.430
772.867, 5789.591
773.349, 5998.237
773.832, 6193.250
774.314, 6406.493
774.796, 6658.012
775.278, 6920.917
775.760, 7172.104
776.242, 7417.256
776.724, 7676.349
777.206, 7956.594
777.689, 8248.340
778.171, 8544.425
778.653, 8845.138
779.135, 9152.755
779.617, 9469.052
780.099, 9797.586
780.581, 10140.540
781.063, 10501.220
781.545, 10879.990
782.028, 11278.790
782.510, 11714.930
782.992, 12199.780
783.474, 12685.840
783.956, 13150.360
784.438, 13621.690
784.920, 14119.070
785.403, 14645.140
785.885, 15220.680
786.367, 15858.680
786.849, 16528.961
787.331, 17239.480
787.813, 17966.490
788.295, 18698.510
788.777, 19433.109
789.259, 20180.230
789.742, 20939.980
790.224, 21708.961
790.706, 22481.770
791.188, 23263.830
791.670, 24089.010
792.152, 24932.449
792.634, 25697.141
793.116, 26348.010
793.598, 26917.051
794.081, 27453.980
794.563, 27938.650
795.045, 28251.330
795.527, 28391.670
796.009, 28371.131
796.491, 28205.619
796.973, 27847.859
797.455, 27249.131
797.938, 26423.900
798.420, 25454.301
798.902, 24313.340
799.384, 23061.160
799.866, 21612.600
800.348, 20133.410
800.830, 18686.180
801.312, 17288.320
801.794, 15964.620
802.277, 14721.840
802.759, 13569.510
803.241, 12523.530
803.723, 11576.540
804.205, 10723.210
804.687, 9960.861
805.169, 9287.304
805.651, 8698.532
806.133, 8162.113
806.616, 7647.437
807.098, 7169.676
807.580, 6774.685
808.062, 6452.264
808.544, 6137.002
809.026, 5815.001
809.508, 5516.125
809.990, 5263.961
810.472, 5049.116
810.955, 4848.726
811.437, 4661.012
811.919, 4495.899
812.401, 4356.460
812.883, 4236.456
813.365, 4149.948
813.847, 4072.335
814.330, 3963.952
814.812, 3819.216
815.294, 3699.510
815.776, 3623.538
816.258, 3562.892
816.740, 3516.884
817.222, 3473.656
817.704, 3420.251
818.186, 3357.511
818.669, 3295.503
819.151, 3237.227
819.633, 3185.088
820.115, 3140.250
820.597, 3103.289
821.079, 3080.054
821.561, 3066.274
822.043, 3040.702
822.526, 2993.463
823.008, 2946.001
823.490, 2935.518
823.972, 2954.963
824.454, 2947.119
824.936, 2909.828
825.418, 2881.344
825.900, 2876.075
826.382, 2874.969
826.865, 2858.140
827.347, 2827.337
827.829, 2799.291
828.311, 2774.234
828.793, 2751.601
829.275, 2731.183
829.757, 2713.446
830.239, 2698.289
830.721, 2685.975
831.204, 2678.430
831.686, 2679.428
832.168, 2671.735
832.650, 2646.633
833.132, 2616.648
833.614, 2588.004
834.096, 2559.460
834.578, 2528.475
835.060, 2494.858
835.543, 2461.838
836.025, 2433.645
836.507, 2403.810
836.989, 2362.313
837.471, 2315.181
837.953, 2272.699
838.435, 2236.542
838.917, 2206.771
839.400, 2184.125
839.882, 2162.448
840.364, 2131.353
840.846, 2091.915
841.328, 2052.024
841.810, 2011.701
842.292, 1976.413
842.774, 1949.458
843.256, 1924.715
843.739, 1894.692
844.221, 1859.925
844.703, 1827.743
845.185, 1793.538
845.667, 1773.906
846.149, 1787.911
846.631, 1797.418
847.114, 1767.043
847.596, 1713.812
848.078, 1679.303
848.560, 1671.431
849.042, 1665.319
849.524, 1660.262
850.006, 1653.093
850.488, 1643.015
850.970, 1629.440
851.453, 1608.554
851.935, 1581.508
852.417, 1561.413
852.899, 1563.772
853.381, 1565.458
853.863, 1542.779
854.345, 1512.553
854.827, 1500.744
855.309, 1505.369
855.792, 1508.027
856.274, 1499.766
856.756, 1482.264
857.238, 1450.582
857.720, 1412.818
858.202, 1391.107
858.684, 1384.990
859.166, 1387.623
859.648, 1396.940
860.131, 1402.700
860.613, 1393.173
861.095, 1371.904
861.577, 1355.870
862.059, 1345.333
862.541, 1337.740
863.023, 1333.891
863.505, 1329.183
863.987, 1320.263
864.470, 1308.978
864.952, 1298.983
865.434, 1288.498
865.916, 1285.985
866.398, 1302.623
866.880, 1311.941
867.362, 1298.442
867.844, 1280.869
868.327, 1277.150
868.809, 1286.057
869.291, 1294.234
869.773, 1299.053
870.255, 1303.589
870.737, 1309.535
871.219, 1314.664
871.701, 1316.370
872.183, 1316.229
872.666, 1317.082
873.148, 1319.672
873.630, 1324.179
874.112, 1330.172
874.594, 1338.597
875.076, 1352.173
875.558, 1367.992
876.041, 1381.570
876.523, 1391.961
877.005, 1400.232
877.487, 1407.216
877.969, 1411.803
878.451, 1410.250
878.933, 1405.410
879.415, 1406.122
879.897, 1412.168
880.380, 1417.396
880.862, 1419.278
881.344, 1418.327
881.826, 1415.386
882.308, 1410.081
882.790, 1398.826
883.272, 1381.044
883.754, 1367.990
884.237, 1362.808
884.719, 1358.623
885.201, 1351.155
885.683, 1340.430
886.165, 1325.237
886.647, 1302.100
887.129, 1288.436
887.611, 1291.781
888.093, 1289.941
888.576, 1269.354
889.058, 1245.309
889.540, 1237.407
890.022, 1244.923
890.504, 1242.495
890.986, 1215.687
891.468, 1199.966
891.950, 1212.124
892.432, 1223.424
892.915, 1212.116
893.397, 1189.852
893.879, 1179.053
894.361, 1184.296
894.843, 1190.234
895.325, 1193.235
895.807, 1194.137
896.289, 1192.393
896.771, 1189.462
897.254, 1187.318
897.736, 1185.648
898.218, 1181.724
898.700, 1172.768
899.182, 1166.604
899.664, 1169.887
900.146, 1178.787
900.628, 1190.266
901.110, 1203.228
901.593, 1218.499
902.075, 1235.108
902.557, 1243.491
903.039, 1229.950
903.521, 1211.077
904.003, 1216.221
904.485, 1238.161
904.968, 1258.137
905.450, 1273.179
905.932, 1284.398
906.414, 1292.173
906.896, 1297.797
907.378, 1300.642
907.860, 1302.578
908.342, 1319.592
908.824, 1351.241
909.307, 1367.896
909.789, 1360.287
910.271, 1353.496
910.753, 1368.733
911.235, 1399.243
911.717, 1425.341
912.199, 1446.955
912.681, 1464.136
913.164, 1475.885
913.646, 1486.345
914.128, 1496.447
914.610, 1506.896
915.092, 1516.666
915.574, 1526.253
916.056, 1551.510
916.538, 1604.520
917.020, 1648.071
917.503, 1669.155
917.985, 1691.875
918.467, 1734.597
918.949, 1786.583
919.431, 1825.844
919.913, 1848.950
920.395, 1876.759
920.877, 1905.019
921.359, 1944.701
921.842, 2005.259
922.324, 2072.729
922.806, 2135.554
923.288, 2195.439
923.770, 2259.387
924.252, 2325.806
924.734, 2403.170
925.216, 2501.521
925.698, 2602.501
926.181, 2697.497
926.663, 2786.886
927.145, 2869.805
927.627, 2947.946
928.109, 3032.548
928.591, 3129.362
929.073, 3231.656
929.555, 3345.236
930.037, 3454.477
930.520, 3539.451
931.002, 3608.841
931.484, 3686.773
931.966, 3778.673
932.448, 3857.755
932.930, 3901.060
933.412, 3926.492
933.894, 3952.983
934.377, 3973.426
934.859, 3973.861
935.341, 3956.021
935.823, 3930.689
936.305, 3902.672
936.787, 3877.103
937.269, 3867.206
937.751, 3859.034
938.234, 3820.411
938.716, 3762.882
939.198, 3721.586
939.680, 3702.565
940.162, 3688.204
940.644, 3666.314
941.126, 3643.566
941.608, 3629.057
942.091, 3622.945
942.573, 3625.858
943.055, 3637.765
943.537, 3658.571
944.019, 3688.206
944.501, 3725.846
944.983, 3771.555
945.465, 3823.159
945.947, 3872.552
946.430, 3920.976
946.912, 3986.750
947.394, 4072.232
947.876, 4158.267
948.358, 4234.930
948.840, 4317.466
949.322, 4427.434
949.804, 4560.617
950.286, 4688.235
950.769, 4809.684
951.251, 4927.989
951.733, 5041.144
952.215, 5164.093
952.697, 5309.500
953.179, 5458.807
953.661, 5579.593
954.143, 5670.379
954.625, 5750.200
955.108, 5820.446
955.590, 5876.613
956.072, 5924.198
956.554, 5942.609
957.036, 5912.696
957.518, 5846.534
958.000, 5777.550
958.482, 5710.406
958.964, 5621.095
959.447, 5509.889
959.929, 5374.961
960.411, 5203.812
960.893, 5025.390
961.375, 4869.538
961.857, 4729.228
962.339, 4570.389
962.821, 4375.407
963.304, 4201.538
963.786, 4058.003
964.268, 3922.877
964.750, 3786.130
965.232, 3655.391
965.714, 3540.384
966.196, 3439.987
966.678, 3341.973
967.161, 3182.735
967.643, 3124.484
968.125, 3034.078
968.607, 3019.752
969.089, 2986.957
969.571, 2936.690
970.053, 2816.624
970.535, 2786.696
971.018, 2720.627
971.500, 2653.097
971.982, 2635.848
972.464, 2525.934
972.946, 2507.887
973.428, 2453.176
973.910, 2415.227
974.392, 2340.956
974.874, 2277.903
975.357, 2251.205
975.839, 2204.377
976.321, 2125.922
976.803, 2089.040
977.285, 1994.433
977.767, 1956.146
978.249, 1925.168
978.731, 1894.575
979.213, 1863.409
979.696, 1833.079
980.178, 1797.656
980.660, 1771.516
981.142, 1771.706
981.624, 1773.447
982.106, 1754.682
982.588, 1720.063
983.070, 1683.240
983.552, 1644.963
984.035, 1615.357
984.517, 1599.999
984.999, 1591.091
985.481, 1593.231
985.963, 1593.532
986.445, 1577.108
986.927, 1547.765
987.409, 1520.968
987.891, 1501.654
988.374, 1480.381
988.856, 1447.553
989.338, 1418.714
989.820, 1403.026
990.302, 1396.014
990.784, 1398.036
991.266, 1403.891
991.748, 1396.967
992.231, 1367.424
992.713, 1340.148
993.195, 1327.793
993.677, 1318.624
994.159, 1304.415
994.641, 1289.408
995.123, 1278.963
995.605, 1273.459
996.088, 1270.994
996.570, 1272.584
997.052, 1272.788
997.534, 1268.394
998.016, 1262.505
998.498, 1256.003
998.980, 1250.104
999.462, 1245.087
999.945, 1241.861
1000.427, 1243.698
1000.909, 1251.193
1001.391, 1265.242
1001.873, 1294.873
1002.355, 1322.412
1002.837, 1327.704
1003.319, 1326.367
1003.801, 1339.686
1004.284, 1370.445
1004.766, 1412.202
1005.248, 1471.937
1005.730, 1523.423
1006.212, 1548.545
1006.694, 1566.587
1007.176, 1601.475
1007.658, 1633.994
1008.140, 1634.773
1008.623, 1601.571
1009.105, 1553.871
1009.587, 1494.541
1010.069, 1430.423
1010.551, 1352.841
1011.033, 1283.414
1011.515, 1244.649
1011.997, 1221.942
1012.479, 1190.897
1012.962, 1149.895
1013.444, 1118.896
1013.926, 1111.789
1014.408, 1105.104
1014.890, 1085.443
1015.372, 1066.242
1015.854, 1060.152
1016.336, 1059.511
1016.819, 1049.305
1017.301, 1029.662
1017.783, 1020.322
1018.265, 1039.901
1018.747, 1051.504
1019.229, 1032.970
1019.711, 1010.488
1020.193, 1001.271
1020.675, 999.938
1021.158, 997.676
1021.640, 993.380
1022.122, 989.728
1022.604, 990.279
1023.086, 987.175
1023.568, 978.499
1024.050, 964.884
1024.532, 938.864
1025.015, 912.691
1025.497, 905.704
1025.979, 917.609
1026.461, 924.913
1026.943, 915.958
1027.425, 911.447
1027.907, 924.037
1028.389, 933.797
1028.871, 922.554
1029.354, 906.210
1029.836, 908.617
1030.318, 928.974
1030.800, 940.368
1031.282, 930.269
1031.764, 923.662
1032.246, 931.450
1032.728, 935.357
1033.210, 917.885
1033.693, 897.449
1034.175, 900.269
1034.657, 923.983
1035.139, 936.392
1035.621, 927.789
1036.103, 918.953
1036.585, 908.011
1037.067, 901.041
1037.550, 901.453
1038.032, 906.452
1038.514, 915.891
1038.996, 928.349
1039.478, 932.804
1039.960, 922.294
1040.442, 916.172
1040.924, 917.998
1041.406, 918.984
1041.889, 913.816
1042.371, 908.995
1042.853, 912.830
1043.335, 922.688
1043.817, 925.219
1044.299, 918.173
1044.781, 908.578
1045.263, 891.580
1045.745, 882.528
1046.228, 891.654
1046.710, 901.302
1047.192, 892.744
1047.674, 873.198
1048.156, 869.565
1048.638, 887.723
1049.120, 897.416
1049.602, 895.474
1050.085, 895.808
1050.567, 904.420
1051.049, 909.602
1051.531, 898.993
1052.013, 882.237
1052.495, 888.135
1052.977, 920.667
1053.459, 927.046
1053.942, 902.753
1054.424, 882.359
1054.906, 873.840
1055.388, 871.832
1055.870, 873.126
1056.352, 876.698
1056.834, 881.087
1057.316, 886.102
1057.798, 888.858
1058.281, 889.406
1058.763, 892.603
1059.245, 899.444
1059.727, 895.175
1060.209, 869.529
1060.691, 843.704
1061.173, 855.132
1061.655, 890.914
1062.137, 899.945
1062.620, 886.971
1063.102, 874.929
1063.584, 867.654
1064.066, 863.714
1064.548, 862.407
1065.030, 862.990
1065.512, 865.226
1065.994, 868.206
1066.477, 872.742
1066.959, 875.729
1067.441, 865.100
1067.923, 844.691
1068.405, 833.592
1068.887, 838.354
1069.369, 849.103
1069.851, 861.093
1070.333, 869.915
1070.816, 866.894
1071.298, 859.425
1071.780, 860.496
1072.262, 866.127
1072.744, 862.789
1073.226, 848.684
1073.708, 838.269
1074.190, 842.378
1074.672, 847.470
1075.155, 844.304
1075.637, 836.640
1076.119, 821.882
1076.601, 808.451
1077.083, 812.172
1077.565, 831.232
1078.047, 843.876
1078.530, 839.211
1079.012, 835.555
1079.494, 840.784
1079.976, 848.877
1080.458, 858.256
1080.940, 867.163
1081.422, 869.665
1081.904, 870.138
1082.386, 885.050
1082.869, 922.384
1083.351, 956.251
1083.833, 974.665
1084.315, 1000.037
1084.797, 1047.361
1085.279, 1096.441
1085.761, 1146.633
1086.243, 1182.613
1086.725, 1165.786
1087.208, 1086.418
1087.690, 1012.967
1088.172, 938.030
1088.654, 884.139
1089.136, 860.172
1089.618, 848.605
1090.100, 842.890
1090.582, 839.785
1091.065, 833.653
1091.547, 825.139
1092.029, 825.550
1092.511, 838.052
1092.993, 838.058
1093.475, 819.917
1093.957, 809.598
1094.439, 818.864
1094.922, 835.251
1095.404, 846.716
1095.886, 852.983
1096.368, 852.717
1096.850, 846.227
1097.332, 833.836
1097.814, 816.785
1098.296, 808.192
1098.778, 811.226
1099.260, 812.172
1099.743, 799.837
1100.225, 786.924
1100.707, 795.987
1101.189, 816.889
1101.671, 829.435
1102.153, 834.304
1102.635, 833.304
1103.117, 828.436
1103.600, 825.709
1104.082, 828.105
1104.564, 830.091
1105.046, 828.561
1105.528, 822.655
1106.010, 805.634
1106.492, 788.010
1106.974, 782.839
1107.457, 788.789
1107.939, 801.183
1108.421, 818.360
1108.903, 831.904
1109.385, 842.285
1109.867, 842.363
1110.349, 817.445
1110.831, 793.330
1111.313, 788.374
1111.796, 795.318
1112.278, 807.183
1112.760, 821.381
1113.242, 824.209
1113.724, 805.161
1114.206, 790.831
1114.688, 780.273
1115.170, 778.487
1115.652, 791.577
1116.135, 808.838
1116.617, 823.708
1117.099, 834.868
1117.581, 837.906
1118.063, 831.126
1118.545, 828.762
1119.027, 833.727
1119.509, 828.764
1119.992, 807.243
1120.474, 791.696
1120.956, 796.151
1121.438, 809.246
1121.920, 814.113
1122.402, 812.997
1122.884, 818.069
1123.366, 827.654
1123.849, 826.960
1124.331, 815.843
1124.813, 805.445
1125.295, 800.237
1125.777, 804.216
1126.259, 823.425
1126.741, 846.051
1127.223, 855.604
1127.705, 856.157
1128.188, 850.996
1128.670, 843.973
1129.152, 843.446
1129.634, 849.205
1130.116, 852.659
1130.598, 849.311
1131.080, 847.503
1131.562, 855.305
1132.044, 863.593
1132.527, 863.882
1133.009, 863.250
1133.491, 869.281
1133.973, 880.373
1134.455, 894.346
1134.937, 911.356
1135.419, 915.898
1135.901, 888.057
1136.384, 872.952
1136.866, 891.245
1137.348, 908.574
1137.830, 907.809
1138.312, 899.984
1138.794, 897.935
1139.276, 899.523
1139.758, 892.648
1140.240, 873.205
1140.723, 862.346
1141.205, 862.756
1141.687, 859.416
1142.169, 847.071
1142.651, 838.385
1143.133, 842.650
1143.615, 853.652
1144.097, 863.069
1144.579, 869.393
1145.062, 861.261
1145.544, 843.239
1146.026, 839.902
1146.508, 851.710
1146.990, 862.879
1147.472, 867.275
1147.954, 866.602
1148.436, 859.937
1148.919, 853.830
1149.401, 857.039
1149.883, 864.166
1150.365, 871.351
1150.847, 875.733
1151.329, 873.050
1151.811, 863.412
1152.293, 848.555
1152.776, 825.435
1153.258, 813.063
1153.740, 825.727
1154.222, 841.956
1154.704, 859.589
1155.186, 870.040
1155.668, 859.779
1156.150, 840.332
1156.632, 835.429
1157.115, 845.831
1157.597, 855.033
1158.079, 866.119
1158.561, 867.572
1159.043, 855.213
1159.525, 841.162
1160.007, 827.638
1160.489, 822.290
1160.971, 835.206
1161.454, 855.337
1161.936, 849.157
1162.418, 821.332
1162.900, 819.991
1163.382, 842.055
1163.864, 861.981
1164.346, 874.155
1164.828, 876.360
1165.311, 867.654
1165.793, 857.121
1166.275, 853.438
1166.757, 853.404
1167.239, 854.556
1167.721, 855.647
1168.203, 852.078
1168.685, 848.256
1169.167, 857.329
1169.650, 877.392
1170.132, 884.186
1170.614, 862.092
1171.096, 844.761
1171.578, 848.016
1172.060, 853.165
1172.542, 852.732
1173.024, 850.196
1173.506, 847.503
1173.989, 845.497
1174.471, 845.566
1174.953, 847.714
1175.435, 852.428
1175.917, 861.410
1176.399, 867.467
1176.881, 870.743
1177.363, 865.260
1177.846, 846.546
1178.328, 832.071
1178.810, 839.405
1179.292, 856.642
1179.774, 856.867
1180.256, 845.449
1180.738, 842.503
1181.220, 846.003
1181.703, 846.812
1182.185, 844.329
1182.667, 844.678
1183.149, 850.226
1183.631, 853.387
1184.113, 843.147
1184.595, 835.178
1185.077, 849.018
1185.559, 863.564
1186.042, 855.454
1186.524, 837.613
1187.006, 828.843
1187.488, 830.816
1187.970, 839.967
1188.452, 863.128
1188.934, 873.050
1189.416, 860.332
1189.898, 846.304
1190.381, 832.063
1190.863, 823.276
1191.345, 825.651
1191.827, 830.747
1192.309, 825.269
1192.791, 812.199
1193.273, 808.382
1193.755, 813.316
1194.238, 817.735
1194.720, 820.852
1195.202, 821.052
1195.684, 818.303
1196.166, 815.660
1196.648, 814.549
1197.130, 818.945
1197.612, 842.851
1198.094, 865.350
1198.577, 854.445
1199.059, 832.190
1199.541, 828.798
1200.023, 838.527
1200.505, 843.206
1200.987, 839.578
1201.469, 834.757
1201.951, 829.554
1202.433, 825.528
1202.916, 824.849
1203.398, 822.731
1203.880, 815.331
1204.362, 808.979
1204.844, 808.594
1205.326, 812.115
1205.808, 816.453
1206.290, 821.215
1206.773, 817.334
1207.255, 804.635
1207.737, 795.599
1208.219, 791.653
1208.701, 795.452
1209.183, 807.328
1209.665, 817.364
1210.147, 817.554
1210.630, 815.652
1211.112, 824.506
1211.594, 834.077
1212.076, 827.355
1212.558, 815.066
1213.040, 812.994
1213.522, 819.804
1214.004, 828.408
1214.486, 837.088
1214.969, 843.976
1215.451, 847.699
1215.933, 850.866
1216.415, 857.950
1216.897, 858.587
1217.379, 843.037
1217.861, 829.092
1218.343, 833.406
1218.825, 845.666
1219.308, 842.236
1219.790, 824.945
1220.272, 824.820
1220.754, 840.818
1221.236, 847.903
1221.718, 844.193
1222.200, 840.966
1222.682, 841.857
1223.165, 842.508
1223.647, 839.727
1224.129, 835.796
1224.611, 831.606
1225.093, 829.083
1225.575, 833.149
1226.057, 837.901
1226.539, 835.856
1227.021, 828.453
1227.504, 818.526
1227.986, 806.805
1228.468, 802.239
1228.950, 813.675
1229.432, 819.773
1229.914, 817.955
1230.396, 813.853
1230.878, 807.635
1231.360, 803.273
1231.843, 804.035
1232.325, 807.161
1232.807, 807.800
1233.289, 806.690
1233.771, 808.919
1234.253, 812.298
1234.735, 804.417
1235.217, 788.316
1235.700, 780.616
1236.182, 784.337
1236.664, 789.843
1237.146, 793.000
1237.628, 791.332
1238.110, 775.550
1238.592, 763.940
1239.074, 771.716
1239.557, 784.697
1240.039, 793.229
1240.521, 797.172
1241.003, 794.446
1241.485, 787.022
1241.967, 790.261
1242.449, 809.640
1242.931, 818.387
1243.413, 814.151
1243.896, 813.693
1244.378, 821.025
1244.860, 825.175
1245.342, 820.211
1245.824, 811.188
1246.306, 801.214
1246.788, 795.327
1247.270, 806.966
1247.752, 824.456
1248.235, 828.329
1248.717, 824.766
1249.199, 828.450
1249.681, 838.061
1250.163, 840.951
1250.645, 833.242
1251.127, 824.918
1251.609, 816.499
1252.092, 810.763
1252.574, 808.631
1253.056, 808.546
1253.538, 810.686
1254.020, 813.070
1254.502, 813.513
1254.984, 813.864
1255.466, 818.752
1255.948, 827.382
1256.431, 837.683
1256.913, 847.018
1257.395, 839.363
1257.877, 818.839
1258.359, 811.188
1258.841, 821.256
1259.323, 823.554
1259.805, 799.529
1260.287, 781.106
1260.770, 792.559
1261.252, 809.573
1261.734, 826.231
1262.216, 835.000
1262.698, 823.613
1263.180, 804.565
1263.662, 796.802
1264.144, 798.889
1264.627, 800.955
1265.109, 802.409
1265.591, 810.552
1266.073, 825.747
1266.555, 831.406
1267.037, 824.883
1267.519, 820.141
1268.001, 823.736
1268.484, 828.589
1268.966, 829.130
1269.448, 826.422
1269.930, 817.694
1270.412, 810.233
1270.894, 809.966
1271.376, 816.445
1271.858, 834.338
1272.340, 856.570
1272.823, 866.390
##END=



