##NAMES=Boracite
##RRUFFID=R070317
##IDEAL CHEMISTRY=Mg_3_B_7_O_13_Cl
##LOCALITY=Douglashall, Westereglen, Stassfurt District, Saxony-Anhalt, Germany
##OWNER=RRUFF
##SOURCE=James Shigley
##DESCRIPTION=Colorless single crystal tetrahedron with minor cube modifications
##STATUS=The identification of this mineral has been confirmed by single-crystal X-ray diffraction.
##URL=rruff.info/R070317
175.9807, 15313.17
176.4628, 15313.50
176.9449, 15305.68
177.4271, 15304.35
177.9092, 15316.97
178.3913, 15337.88
178.8734, 15359.92
179.3555, 15380.50
179.8376, 15399.40
180.3197, 15414.74
180.8019, 15419.58
181.2840, 15433.93
181.7661, 15475.17
182.2482, 15524.74
182.7303, 15557.38
183.2124, 15557.52
183.6946, 15538.38
184.1767, 15539.88
184.6588, 15579.32
185.1409, 15609.17
185.6230, 15617.46
186.1051, 15610.75
186.5873, 15592.54
187.0694, 15561.40
187.5515, 15528.28
188.0336, 15523.75
188.5157, 15564.47
188.9978, 15606.98
189.4800, 15639.92
189.9621, 15669.85
190.4442, 15707.72
190.9263, 15759.50
191.4084, 15812.65
191.8905, 15832.58
192.3727, 15788.93
192.8548, 15766.37
193.3369, 15792.99
193.8190, 15837.30
194.3011, 15868.16
194.7832, 15873.03
195.2654, 15864.49
195.7475, 15870.12
196.2296, 15899.53
196.7117, 15925.67
197.1938, 15944.73
197.6759, 15959.82
198.1581, 15972.35
198.6402, 15983.02
199.1223, 15993.86
199.6044, 16009.55
200.0865, 16035.64
200.5686, 16055.22
201.0508, 16062.53
201.5329, 16066.73
202.0150, 16077.26
202.4971, 16096.00
202.9792, 16113.76
203.4613, 16112.05
203.9435, 16071.52
204.4256, 16056.13
204.9077, 16092.68
205.3898, 16134.75
205.8719, 16150.69
206.3540, 16134.50
206.8362, 16101.91
207.3183, 16069.63
207.8004, 16027.35
208.2825, 16014.55
208.7646, 16049.49
209.2467, 16095.88
209.7289, 16136.60
210.2110, 16167.71
210.6931, 16192.53
211.1752, 16215.36
211.6573, 16238.06
212.1395, 16250.97
212.6216, 16242.66
213.1037, 16234.92
213.5858, 16239.17
214.0679, 16254.82
214.5500, 16273.78
215.0322, 16287.66
215.5143, 16294.96
215.9964, 16307.22
216.4785, 16324.10
216.9606, 16346.22
217.4427, 16381.99
217.9249, 16424.78
218.4070, 16457.36
218.8891, 16462.54
219.3712, 16439.20
219.8533, 16429.78
220.3354, 16443.54
220.8176, 16463.21
221.2997, 16492.52
221.7818, 16524.26
222.2639, 16545.45
222.7460, 16545.70
223.2281, 16527.14
223.7103, 16512.93
224.1924, 16508.41
224.6745, 16502.60
225.1566, 16487.20
225.6387, 16470.18
226.1208, 16464.03
226.6030, 16476.64
227.0851, 16503.88
227.5672, 16528.91
228.0493, 16555.98
228.5314, 16574.23
229.0135, 16572.53
229.4957, 16565.03
229.9778, 16567.91
230.4599, 16588.55
230.9420, 16621.67
231.4241, 16657.43
231.9062, 16712.95
232.3884, 16738.58
232.8705, 16698.17
233.3526, 16646.00
233.8347, 16634.73
234.3168, 16680.67
234.7989, 16750.78
235.2811, 16789.11
235.7632, 16787.43
236.2453, 16771.68
236.7274, 16726.02
237.2095, 16681.23
237.6916, 16656.10
238.1738, 16654.88
238.6559, 16671.43
239.1380, 16704.69
239.6201, 16765.35
240.1022, 16802.60
240.5843, 16797.02
241.0665, 16782.12
241.5486, 16773.74
242.0307, 16771.98
242.5128, 16766.96
242.9949, 16743.47
243.4770, 16697.99
243.9592, 16676.96
244.4413, 16704.76
244.9234, 16735.46
245.4055, 16749.97
245.8876, 16753.01
246.3697, 16760.81
246.8519, 16791.84
247.3340, 16840.51
247.8161, 16852.53
248.2982, 16795.92
248.7803, 16743.98
249.2624, 16720.32
249.7446, 16717.91
250.2267, 16725.69
250.7088, 16739.68
251.1909, 16757.85
251.6730, 16775.73
252.1551, 16797.87
252.6373, 16809.87
253.1194, 16796.18
253.6015, 16775.62
254.0836, 16770.04
254.5657, 16789.10
255.0478, 16818.92
255.5300, 16835.85
256.0121, 16834.89
256.4942, 16840.01
256.9763, 16864.23
257.4584, 16893.69
257.9406, 16919.10
258.4227, 16938.49
258.9048, 16955.20
259.3869, 16972.44
259.8690, 16990.27
260.3511, 17008.82
260.8333, 17038.49
261.3154, 17058.78
261.7975, 17049.94
262.2796, 17013.33
262.7617, 16976.64
263.2438, 16960.80
263.7260, 16962.50
264.2081, 16961.95
264.6902, 16953.93
265.1723, 16948.73
265.6544, 16957.71
266.1365, 16976.32
266.6187, 16989.12
267.1008, 16985.66
267.5829, 16972.06
268.0650, 16957.33
268.5471, 16937.32
269.0292, 16930.47
269.5114, 16975.38
269.9935, 17040.37
270.4756, 17067.25
270.9577, 17013.99
271.4398, 16938.66
271.9219, 16904.34
272.4041, 16911.74
272.8862, 16938.15
273.3683, 16986.88
273.8504, 17040.91
274.3325, 17069.60
274.8146, 17067.75
275.2968, 17047.28
275.7789, 16999.90
276.2610, 16935.81
276.7431, 16897.43
277.2252, 16902.36
277.7073, 16937.21
278.1895, 16985.80
278.6716, 17054.78
279.1537, 17105.85
279.6358, 17121.90
280.1179, 17111.63
280.6000, 17081.23
281.0822, 17027.78
281.5643, 16980.43
282.0464, 16977.16
282.5285, 17020.99
283.0106, 17070.20
283.4927, 17140.10
283.9749, 17200.88
284.4570, 17217.38
284.9391, 17189.95
285.4212, 17157.11
285.9033, 17150.14
286.3854, 17168.99
286.8676, 17181.02
287.3497, 17191.09
287.8318, 17190.49
288.3139, 17163.21
288.7960, 17120.61
289.2781, 17094.72
289.7603, 17105.90
290.2424, 17142.83
290.7245, 17157.40
291.2066, 17123.27
291.6887, 17100.92
292.1708, 17114.65
292.6530, 17139.64
293.1351, 17137.13
293.6172, 17094.39
294.0993, 17043.03
294.5814, 17042.39
295.0635, 17145.59
295.5457, 17198.28
296.0278, 17164.01
296.5099, 17109.37
296.9920, 17077.90
297.4741, 17075.70
297.9562, 17087.08
298.4384, 17096.92
298.9205, 17105.31
299.4026, 17111.37
299.8847, 17115.04
300.3668, 17116.51
300.8489, 17108.68
301.3311, 17098.76
301.8131, 17103.14
302.2953, 17135.59
302.7774, 17187.78
303.2595, 17215.85
303.7416, 17199.32
304.2237, 17187.87
304.7058, 17183.76
305.1880, 17192.72
305.6701, 17230.09
306.1522, 17302.94
306.6343, 17377.76
307.1164, 17392.55
307.5985, 17328.32
308.0807, 17274.65
308.5628, 17239.24
309.0449, 17225.51
309.5270, 17249.11
310.0091, 17306.93
310.4912, 17362.38
310.9734, 17383.62
311.4555, 17372.99
311.9376, 17353.97
312.4197, 17320.95
312.9018, 17289.98
313.3839, 17265.68
313.8661, 17250.16
314.3482, 17250.31
314.8303, 17278.87
315.3124, 17320.76
315.7945, 17349.44
316.2766, 17363.41
316.7588, 17372.91
317.2409, 17384.82
317.7230, 17394.70
318.2051, 17395.27
318.6872, 17384.78
319.1693, 17366.42
319.6515, 17335.04
320.1336, 17295.39
320.6157, 17270.67
321.0978, 17273.97
321.5799, 17287.47
322.0620, 17281.13
322.5442, 17252.66
323.0263, 17225.44
323.5084, 17198.70
323.9905, 17179.88
324.4726, 17184.70
324.9547, 17215.62
325.4369, 17247.67
325.9190, 17256.71
326.4011, 17239.92
326.8832, 17224.18
327.3653, 17202.56
327.8474, 17188.07
328.3296, 17193.67
328.8117, 17213.40
329.2938, 17227.54
329.7759, 17222.87
330.2580, 17206.70
330.7401, 17212.29
331.2223, 17278.50
331.7044, 17318.34
332.1865, 17297.37
332.6686, 17257.35
333.1507, 17249.44
333.6328, 17287.13
334.1150, 17336.20
334.5971, 17341.47
335.0792, 17274.16
335.5613, 17241.63
336.0434, 17282.24
336.5255, 17319.58
337.0077, 17304.77
337.4898, 17248.78
337.9719, 17197.86
338.4540, 17191.28
338.9361, 17223.08
339.4182, 17239.56
339.9004, 17233.76
340.3825, 17221.63
340.8646, 17207.66
341.3467, 17191.04
341.8288, 17167.16
342.3109, 17131.72
342.7931, 17100.52
343.2752, 17104.26
343.7573, 17149.90
344.2394, 17180.40
344.7215, 17169.18
345.2036, 17148.02
345.6858, 17137.97
346.1679, 17140.60
346.6500, 17157.91
347.1321, 17209.79
347.6142, 17277.08
348.0963, 17298.51
348.5785, 17254.23
349.0606, 17207.30
349.5427, 17212.12
350.0248, 17254.75
350.5069, 17296.27
350.9890, 17338.90
351.4712, 17371.03
351.9533, 17375.30
352.4354, 17357.37
352.9175, 17347.84
353.3996, 17363.29
353.8817, 17393.47
354.3639, 17410.25
354.8460, 17404.03
355.3281, 17407.15
355.8102, 17434.49
356.2923, 17471.44
356.7744, 17497.25
357.2566, 17508.54
357.7387, 17523.30
358.2208, 17565.80
358.7029, 17647.80
359.1850, 17689.58
359.6671, 17655.76
360.1493, 17623.03
360.6314, 17620.54
361.1135, 17646.29
361.5956, 17697.56
362.0777, 17777.58
362.5598, 17865.97
363.0420, 17884.67
363.5241, 17776.07
364.0062, 17688.23
364.4883, 17660.13
364.9704, 17644.45
365.4525, 17597.32
365.9347, 17511.49
366.4168, 17417.41
366.8989, 17345.04
367.3810, 17293.73
367.8631, 17267.67
368.3452, 17284.61
368.8274, 17306.89
369.3095, 17319.19
369.7916, 17321.73
370.2737, 17314.38
370.7558, 17285.88
371.2379, 17256.63
371.7201, 17272.19
372.2022, 17339.15
372.6843, 17385.57
373.1664, 17363.64
373.6485, 17314.05
374.1306, 17298.52
374.6128, 17323.92
375.0949, 17364.99
375.5770, 17430.87
376.0591, 17499.34
376.5412, 17514.87
377.0233, 17460.63
377.5055, 17396.94
377.9876, 17389.98
378.4697, 17447.46
378.9518, 17477.28
379.4339, 17457.21
379.9160, 17428.21
380.3982, 17412.45
380.8803, 17407.87
381.3624, 17408.19
381.8445, 17411.88
382.3266, 17411.58
382.8087, 17384.01
383.2909, 17287.57
383.7730, 17218.49
384.2551, 17193.64
384.7372, 17186.96
385.2193, 17179.79
385.7014, 17167.84
386.1836, 17154.32
386.6657, 17142.38
387.1478, 17132.12
387.6299, 17122.88
388.1120, 17120.48
388.5941, 17111.85
389.0763, 17088.90
389.5584, 17058.13
390.0405, 17027.47
390.5226, 16997.19
391.0047, 16976.86
391.4868, 16986.83
391.9690, 17030.77
392.4511, 17069.12
392.9332, 17084.30
393.4153, 17096.56
393.8974, 17131.12
394.3795, 17187.76
394.8617, 17229.94
395.3438, 17227.77
395.8259, 17203.88
396.3080, 17199.85
396.7901, 17220.60
397.2722, 17234.69
397.7544, 17213.12
398.2365, 17166.27
398.7186, 17149.10
399.2007, 17185.21
399.6828, 17223.87
400.1649, 17243.75
400.6471, 17253.69
401.1292, 17270.99
401.6113, 17301.48
402.0934, 17332.62
402.5755, 17345.48
403.0576, 17332.79
403.5398, 17322.85
404.0219, 17328.12
404.5040, 17324.22
404.9861, 17285.48
405.4682, 17226.62
405.9503, 17186.74
406.4325, 17193.62
406.9146, 17230.76
407.3967, 17239.14
407.8788, 17207.18
408.3609, 17169.38
408.8430, 17109.09
409.3252, 17060.98
409.8073, 17062.85
410.2894, 17117.10
410.7715, 17175.47
411.2536, 17202.62
411.7357, 17200.02
412.2179, 17164.18
412.7000, 17074.03
413.1821, 17001.19
413.6642, 17022.89
414.1463, 17095.76
414.6284, 17133.24
415.1106, 17096.45
415.5927, 17048.25
416.0748, 17035.66
416.5569, 17049.35
417.0390, 17063.38
417.5211, 17071.07
418.0033, 17067.63
418.4854, 17041.84
418.9675, 16981.20
419.4496, 16942.14
419.9317, 16948.67
420.4138, 16959.48
420.8960, 16942.34
421.3781, 16903.49
421.8602, 16870.63
422.3423, 16862.41
422.8244, 16872.15
423.3065, 16871.10
423.7887, 16854.15
424.2708, 16833.58
424.7529, 16804.11
425.2350, 16776.23
425.7171, 16756.79
426.1992, 16747.50
426.6814, 16748.73
427.1635, 16769.66
427.6456, 16807.04
428.1277, 16818.40
428.6098, 16795.39
429.0919, 16762.05
429.5741, 16711.30
430.0562, 16663.31
430.5383, 16654.66
431.0204, 16709.13
431.5025, 16771.57
431.9846, 16802.17
432.4668, 16803.83
432.9489, 16779.23
433.4310, 16720.92
433.9131, 16664.64
434.3952, 16658.01
434.8773, 16707.37
435.3595, 16741.70
435.8416, 16751.26
436.3237, 16750.19
436.8058, 16743.15
437.2879, 16732.64
437.7701, 16722.05
438.2522, 16712.83
438.7343, 16706.35
439.2164, 16707.51
439.6985, 16731.06
440.1806, 16735.11
440.6628, 16701.60
441.1449, 16665.04
441.6270, 16648.70
442.1091, 16651.07
442.5912, 16656.28
443.0733, 16653.58
443.5555, 16643.99
444.0376, 16630.51
444.5197, 16611.48
445.0018, 16593.19
445.4839, 16574.00
445.9660, 16558.88
446.4482, 16553.34
446.9303, 16558.47
447.4124, 16570.06
447.8945, 16593.02
448.3766, 16619.17
448.8587, 16630.53
449.3409, 16624.31
449.8230, 16610.07
450.3051, 16595.66
450.7872, 16579.77
451.2693, 16553.25
451.7514, 16488.38
452.2336, 16445.76
452.7157, 16461.82
453.1978, 16506.26
453.6799, 16538.35
454.1620, 16545.96
454.6441, 16540.97
455.1263, 16539.10
455.6084, 16542.79
456.0905, 16535.79
456.5726, 16510.07
457.0547, 16481.36
457.5368, 16445.31
458.0190, 16411.53
458.5011, 16396.03
458.9832, 16407.25
459.4653, 16430.87
459.9474, 16449.57
460.4295, 16463.33
460.9117, 16468.29
461.3938, 16460.50
461.8759, 16447.83
462.3580, 16435.61
462.8401, 16424.17
463.3222, 16415.69
463.8044, 16409.66
464.2865, 16407.65
464.7686, 16415.48
465.2507, 16429.64
465.7328, 16434.24
466.2149, 16420.32
466.6971, 16400.73
467.1792, 16401.93
467.6613, 16443.51
468.1434, 16464.16
468.6255, 16454.11
469.1076, 16432.16
469.5898, 16395.52
470.0719, 16356.40
470.5540, 16346.68
471.0361, 16391.79
471.5182, 16465.20
472.0003, 16483.42
472.4825, 16418.80
472.9646, 16374.09
473.4467, 16402.48
473.9288, 16435.17
474.4109, 16419.71
474.8930, 16358.66
475.3752, 16304.41
475.8573, 16296.35
476.3394, 16310.48
476.8215, 16303.15
477.3036, 16273.18
477.7857, 16246.62
478.2679, 16234.67
478.7500, 16235.85
479.2321, 16249.63
479.7142, 16285.29
480.1963, 16308.63
480.6784, 16305.38
481.1606, 16292.29
481.6427, 16283.23
482.1248, 16279.63
482.6069, 16277.87
483.0890, 16275.76
483.5711, 16272.55
484.0533, 16263.49
484.5354, 16243.76
485.0175, 16225.95
485.4996, 16208.40
485.9817, 16195.57
486.4638, 16193.72
486.9460, 16202.08
487.4281, 16210.75
487.9102, 16213.95
488.3923, 16211.44
488.8744, 16199.64
489.3565, 16176.18
489.8387, 16157.01
490.3208, 16149.25
490.8029, 16151.89
491.2850, 16163.92
491.7671, 16193.27
492.2492, 16209.29
492.7314, 16187.17
493.2135, 16154.31
493.6956, 16144.44
494.1777, 16158.79
494.6598, 16174.51
495.1419, 16173.80
495.6241, 16159.80
496.1062, 16153.24
496.5883, 16166.77
497.0704, 16169.79
497.5525, 16154.05
498.0346, 16130.80
498.5168, 16103.24
498.9989, 16075.35
499.4810, 16060.33
499.9631, 16082.33
500.4452, 16125.44
500.9273, 16120.30
501.4095, 16052.10
501.8916, 15998.91
502.3737, 16005.79
502.8558, 16041.16
503.3379, 16052.61
503.8200, 16032.68
504.3022, 16016.62
504.7843, 16017.36
505.2664, 16029.07
505.7485, 16053.13
506.2306, 16085.28
506.7127, 16103.49
507.1949, 16092.15
507.6770, 16056.53
508.1591, 16018.72
508.6412, 15953.80
509.1233, 15925.06
509.6054, 15965.02
510.0876, 16017.93
510.5697, 16044.04
511.0518, 16042.29
511.5339, 16033.53
512.0161, 16029.95
512.4982, 16031.92
512.9803, 16044.06
513.4624, 16069.48
513.9445, 16085.56
514.4266, 16081.96
514.9088, 16066.89
515.3909, 16047.85
515.8730, 16023.49
516.3551, 16011.30
516.8372, 16032.61
517.3193, 16056.53
517.8015, 16046.43
518.2836, 16010.27
518.7657, 15988.29
519.2478, 16003.63
519.7299, 16037.91
520.2120, 16046.50
520.6942, 16011.55
521.1763, 15984.54
521.6584, 15959.18
522.1405, 15946.49
522.6226, 15958.33
523.1047, 15987.76
523.5869, 16020.46
524.0690, 16054.80
524.5511, 16075.94
525.0332, 16042.63
525.5153, 15955.46
525.9974, 15915.30
526.4796, 15969.08
526.9617, 16039.42
527.4438, 16028.53
527.9259, 15948.54
528.4080, 15908.76
528.8901, 15967.78
529.3723, 16028.13
529.8544, 16015.80
530.3365, 15966.27
530.8186, 15958.09
531.3007, 16016.88
531.7828, 16091.32
532.2650, 16107.37
532.7471, 16052.71
533.2292, 16016.81
533.7113, 16013.56
534.1934, 16013.84
534.6755, 16013.71
535.1577, 16009.94
535.6398, 15997.81
536.1219, 15975.40
536.6040, 15949.40
537.0861, 15924.82
537.5682, 15901.67
538.0504, 15880.47
538.5325, 15861.63
539.0146, 15842.29
539.4967, 15817.80
539.9788, 15791.54
540.4609, 15780.41
540.9431, 15800.84
541.4252, 15812.01
541.9073, 15791.41
542.3894, 15767.12
542.8715, 15772.02
543.3536, 15804.36
543.8358, 15831.75
544.3179, 15824.57
544.8000, 15795.44
545.2821, 15805.82
545.7642, 15878.24
546.2463, 15928.48
546.7285, 15927.66
547.2106, 15901.22
547.6927, 15857.38
548.1748, 15800.21
548.6569, 15758.85
549.1390, 15755.17
549.6211, 15767.54
550.1032, 15773.56
550.5853, 15774.67
551.0674, 15782.20
551.5496, 15802.53
552.0317, 15821.90
552.5138, 15817.12
552.9959, 15779.45
553.4780, 15746.53
553.9601, 15720.07
554.4423, 15695.62
554.9244, 15674.36
555.4065, 15653.01
555.8886, 15621.17
556.3707, 15574.13
556.8528, 15537.94
557.3350, 15552.70
557.8171, 15611.42
558.2992, 15659.70
558.7813, 15695.59
559.2634, 15710.90
559.7455, 15690.78
560.2277, 15646.32
560.7098, 15615.71
561.1919, 15609.96
561.6740, 15599.15
562.1561, 15561.71
562.6382, 15522.06
563.1204, 15509.54
563.6025, 15523.62
564.0846, 15543.75
564.5667, 15557.46
565.0488, 15561.11
565.5309, 15534.82
566.0131, 15455.08
566.4952, 15404.92
566.9773, 15426.22
567.4594, 15459.68
567.9415, 15470.27
568.4236, 15459.87
568.9058, 15446.24
569.3879, 15432.06
569.8700, 15422.17
570.3521, 15426.87
570.8342, 15440.61
571.3163, 15442.88
571.7985, 15426.64
572.2806, 15405.24
572.7627, 15395.84
573.2448, 15400.80
573.7269, 15394.76
574.2090, 15351.55
574.6912, 15329.01
575.1733, 15366.13
575.6554, 15418.56
576.1375, 15432.41
576.6196, 15397.88
577.1017, 15354.78
577.5839, 15336.96
578.0660, 15339.46
578.5481, 15349.12
579.0302, 15367.28
579.5123, 15378.08
579.9944, 15370.30
580.4766, 15354.39
580.9587, 15352.08
581.4408, 15367.43
581.9229, 15376.66
582.4050, 15378.63
582.8871, 15371.62
583.3693, 15345.09
583.8514, 15309.86
584.3335, 15287.98
584.8156, 15289.76
585.2977, 15305.83
585.7798, 15327.07
586.2620, 15355.67
586.7441, 15359.82
587.2262, 15320.79
587.7083, 15285.59
588.1904, 15288.18
588.6725, 15310.24
589.1547, 15321.65
589.6368, 15313.86
590.1189, 15307.62
590.6010, 15318.18
591.0831, 15333.06
591.5652, 15335.27
592.0474, 15324.68
592.5295, 15311.95
593.0116, 15304.14
593.4937, 15299.21
593.9758, 15288.14
594.4579, 15257.67
594.9401, 15252.77
595.4222, 15307.91
595.9043, 15361.62
596.3864, 15374.88
596.8685, 15362.34
597.3506, 15366.02
597.8328, 15411.88
598.3149, 15458.12
598.7970, 15459.16
599.2791, 15431.82
599.7612, 15418.92
600.2433, 15428.67
600.7255, 15450.11
601.2076, 15474.96
601.6897, 15503.14
602.1718, 15534.32
602.6539, 15579.51
603.1360, 15612.13
603.6182, 15619.16
604.1003, 15621.84
604.5824, 15641.35
605.0645, 15672.94
605.5466, 15691.98
606.0287, 15682.34
606.5109, 15655.41
606.9930, 15626.02
607.4751, 15594.17
607.9572, 15561.94
608.4393, 15531.17
608.9214, 15493.18
609.4036, 15433.34
609.8857, 15351.52
610.3678, 15301.46
610.8499, 15308.92
611.3320, 15312.44
611.8141, 15291.01
612.2963, 15263.14
612.7784, 15251.49
613.2605, 15255.70
613.7426, 15254.56
614.2247, 15228.64
614.7068, 15188.83
615.1890, 15157.55
615.6711, 15134.28
616.1532, 15137.59
616.6353, 15188.94
617.1174, 15239.35
617.5995, 15218.91
618.0817, 15125.80
618.5638, 15087.71
619.0459, 15158.34
619.5280, 15228.25
620.0101, 15253.46
620.4922, 15255.15
620.9744, 15263.31
621.4565, 15282.38
621.9386, 15293.19
622.4207, 15275.79
622.9028, 15237.53
623.3849, 15209.98
623.8671, 15197.07
624.3492, 15169.48
624.8313, 15104.17
625.3134, 15036.59
625.7955, 15018.42
626.2776, 15046.27
626.7598, 15056.54
627.2419, 15023.72
627.7240, 14989.60
628.2061, 14977.60
628.6882, 14976.77
629.1703, 14969.51
629.6525, 14952.32
630.1346, 14935.33
630.6167, 14928.96
631.0988, 14931.23
631.5809, 14929.46
632.0630, 14920.51
632.5452, 14920.15
633.0273, 14936.31
633.5094, 14960.22
633.9915, 14986.42
634.4736, 15014.33
634.9557, 15029.01
635.4379, 15009.66
635.9200, 14994.91
636.4021, 15018.61
636.8842, 15056.64
637.3663, 15064.66
637.8484, 15035.59
638.3306, 15006.29
638.8127, 15013.42
639.2948, 15052.25
639.7769, 15097.39
640.2590, 15154.54
640.7411, 15197.01
641.2233, 15204.85
641.7054, 15206.45
642.1875, 15231.79
642.6696, 15279.19
643.1517, 15328.97
643.6339, 15377.95
644.1160, 15427.43
644.5981, 15483.92
645.0802, 15539.13
645.5623, 15575.25
646.0444, 15591.41
646.5266, 15610.90
647.0087, 15659.41
647.4908, 15726.69
647.9729, 15758.27
648.4550, 15740.96
648.9371, 15740.23
649.4193, 15776.75
649.9014, 15831.30
650.3835, 15888.86
650.8656, 15948.89
651.3477, 16009.37
651.8298, 16091.79
652.3120, 16150.09
652.7941, 16136.54
653.2762, 16099.02
653.7583, 16107.75
654.2404, 16168.42
654.7225, 16229.58
655.2047, 16246.98
655.6868, 16236.86
656.1689, 16261.01
656.6510, 16330.81
657.1331, 16359.94
657.6152, 16304.85
658.0974, 16241.10
658.5795, 16248.21
659.0616, 16308.37
659.5437, 16342.11
660.0258, 16341.53
660.5079, 16314.66
660.9901, 16248.96
661.4722, 16168.01
661.9543, 16095.93
662.4364, 16034.25
662.9185, 15971.43
663.4006, 15900.43
663.8828, 15821.65
664.3649, 15734.58
664.8470, 15639.05
665.3291, 15539.45
665.8112, 15431.51
666.2933, 15330.04
666.7755, 15243.68
667.2576, 15173.40
667.7397, 15120.43
668.2218, 15115.36
668.7039, 15078.31
669.1860, 14951.28
669.6682, 14821.81
670.1503, 14772.02
670.6324, 14780.13
671.1145, 14766.41
671.5966, 14688.42
672.0787, 14593.59
672.5609, 14552.08
673.0430, 14556.14
673.5251, 14549.00
674.0072, 14522.66
674.4893, 14501.25
674.9714, 14502.65
675.4536, 14515.86
675.9357, 14511.56
676.4178, 14477.34
676.8999, 14452.64
677.3820, 14443.52
677.8641, 14438.91
678.3463, 14435.50
678.8284, 14431.88
679.3105, 14429.63
679.7926, 14429.24
680.2747, 14418.27
680.7568, 14370.98
681.2390, 14307.97
681.7211, 14285.48
682.2032, 14303.39
682.6853, 14314.30
683.1674, 14296.28
683.6495, 14266.77
684.1317, 14254.01
684.6138, 14263.71
685.0959, 14260.09
685.5780, 14230.70
686.0601, 14202.70
686.5422, 14177.80
687.0244, 14160.34
687.5065, 14159.46
687.9886, 14174.00
688.4707, 14183.01
688.9528, 14171.37
689.4349, 14150.64
689.9171, 14130.56
690.3992, 14112.40
690.8813, 14100.56
691.3634, 14096.09
691.8455, 14092.59
692.3276, 14081.82
692.8098, 14066.41
693.2919, 14071.33
693.7740, 14106.39
694.2561, 14140.49
694.7382, 14181.67
695.2203, 14207.40
695.7025, 14190.06
696.1846, 14142.51
696.6667, 14114.11
697.1488, 14134.38
697.6309, 14150.20
698.1130, 14129.35
698.5952, 14090.39
699.0773, 14048.20
699.5594, 14009.91
700.0415, 13990.84
700.5236, 14002.04
701.0057, 14028.89
701.4879, 14042.32
701.9700, 14041.94
702.4521, 14036.96
702.9342, 14028.44
703.4163, 14014.06
703.8984, 13986.20
704.3806, 13954.08
704.8627, 13941.55
705.3448, 13958.70
705.8269, 13965.08
706.3090, 13946.15
706.7911, 13923.97
707.2733, 13912.46
707.7554, 13906.59
708.2375, 13894.25
708.7196, 13872.38
709.2017, 13854.99
709.6838, 13861.54
710.1660, 13881.14
710.6481, 13887.93
711.1302, 13881.61
711.6123, 13858.82
712.0944, 13813.57
712.5765, 13772.15
713.0587, 13770.04
713.5408, 13809.66
714.0229, 13836.75
714.5050, 13848.99
714.9871, 13851.04
715.4692, 13830.28
715.9514, 13810.27
716.4335, 13817.45
716.9156, 13845.20
717.3977, 13857.76
717.8798, 13833.40
718.3619, 13799.54
718.8441, 13769.53
719.3262, 13748.11
719.8083, 13751.65
720.2904, 13776.72
720.7725, 13790.90
721.2546, 13771.00
721.7368, 13732.12
722.2189, 13711.37
722.7010, 13711.69
723.1831, 13708.48
723.6652, 13693.46
724.1473, 13688.40
724.6295, 13722.11
725.1116, 13767.30
725.5937, 13764.41
726.0758, 13694.67
726.5579, 13642.17
727.0400, 13634.24
727.5222, 13635.20
728.0043, 13622.07
728.4864, 13603.87
728.9685, 13601.99
729.4506, 13619.97
729.9327, 13631.70
730.4149, 13602.01
730.8970, 13554.03
731.3791, 13546.46
731.8612, 13574.55
732.3433, 13594.52
732.8254, 13594.42
733.3076, 13576.59
733.7897, 13538.04
734.2718, 13482.36
734.7539, 13456.21
735.2360, 13475.95
735.7181, 13498.13
736.2003, 13535.52
736.6824, 13557.62
737.1645, 13533.40
737.6466, 13479.08
738.1287, 13439.52
738.6108, 13428.46
739.0930, 13428.97
739.5751, 13438.61
740.0572, 13449.95
740.5393, 13455.70
741.0214, 13454.97
741.5035, 13445.07
741.9857, 13424.65
742.4678, 13406.66
742.9499, 13416.00
743.4320, 13449.44
743.9141, 13459.55
744.3962, 13441.97
744.8784, 13420.40
745.3605, 13397.70
745.8426, 13385.10
746.3247, 13405.36
746.8068, 13465.86
747.2889, 13487.92
747.7711, 13441.19
748.2532, 13397.86
748.7353, 13377.08
749.2174, 13365.04
749.6995, 13346.34
750.1816, 13323.28
750.6638, 13311.79
751.1459, 13323.61
751.6280, 13341.66
752.1101, 13358.84
752.5922, 13368.05
753.0743, 13345.55
753.5565, 13295.57
754.0386, 13260.50
754.5207, 13266.22
755.0028, 13293.77
755.4849, 13307.18
755.9670, 13305.14
756.4492, 13301.55
756.9313, 13299.13
757.4134, 13288.17
757.8955, 13256.37
758.3776, 13219.60
758.8597, 13201.42
759.3419, 13202.12
759.8240, 13212.67
760.3061, 13252.50
760.7882, 13278.02
761.2703, 13262.43
761.7524, 13231.20
762.2346, 13211.06
762.7167, 13203.99
763.1988, 13196.05
763.6809, 13176.70
764.1630, 13157.75
764.6451, 13158.67
765.1273, 13169.53
765.6094, 13160.66
766.0915, 13130.69
766.5736, 13108.51
767.0557, 13112.52
767.5378, 13132.67
768.0200, 13147.95
768.5021, 13157.60
768.9842, 13167.35
769.4663, 13180.95
769.9484, 13186.59
770.4305, 13176.42
770.9127, 13157.17
771.3948, 13136.75
771.8769, 13114.68
772.3590, 13098.22
772.8411, 13091.63
773.3232, 13086.89
773.8054, 13086.23
774.2875, 13082.35
774.7696, 13059.56
775.2517, 13023.88
775.7338, 13006.92
776.2159, 13034.86
776.6981, 13069.64
777.1802, 13066.09
777.6623, 13037.42
778.1444, 13007.22
778.6265, 12981.25
779.1086, 12975.78
779.5908, 13001.58
780.0729, 13041.58
780.5550, 13067.04
781.0371, 13078.34
781.5192, 13067.60
782.0013, 13026.12
782.4835, 12984.80
782.9656, 12949.36
783.4477, 12925.50
783.9298, 12926.86
784.4119, 12954.29
784.8940, 12967.29
785.3762, 12941.64
785.8583, 12930.57
786.3404, 12967.77
786.8225, 13010.05
787.3046, 13021.33
787.7867, 13003.24
788.2689, 12974.72
788.7510, 12942.27
789.2331, 12906.07
789.7152, 12852.46
790.1973, 12801.90
790.6794, 12794.73
791.1616, 12823.76
791.6437, 12848.12
792.1258, 12850.30
792.6079, 12841.04
793.0900, 12834.71
793.5721, 12830.44
794.0543, 12816.92
794.5364, 12791.30
795.0185, 12774.35
795.5006, 12772.75
795.9827, 12780.83
796.4648, 12798.23
796.9470, 12822.42
797.4291, 12825.96
797.9112, 12801.65
798.3933, 12766.32
798.8754, 12691.49
799.3575, 12634.71
799.8397, 12640.01
800.3218, 12683.99
800.8039, 12725.63
801.2860, 12758.53
801.7681, 12767.44
802.2502, 12724.09
802.7324, 12671.54
803.2145, 12647.87
803.6966, 12644.82
804.1787, 12644.45
804.6608, 12641.59
805.1429, 12638.72
805.6251, 12638.31
806.1072, 12638.77
806.5893, 12634.63
807.0714, 12627.24
807.5535, 12625.64
808.0356, 12631.16
808.5178, 12649.57
808.9999, 12689.58
809.4820, 12735.10
809.9641, 12743.72
810.4462, 12706.23
810.9283, 12663.24
811.4105, 12596.07
811.8926, 12553.85
812.3747, 12575.55
812.8568, 12618.86
813.3389, 12633.07
813.8210, 12617.82
814.3032, 12612.68
814.7853, 12636.60
815.2674, 12654.67
815.7495, 12656.58
816.2316, 12646.29
816.7137, 12621.90
817.1959, 12588.98
817.6780, 12559.21
818.1601, 12535.79
818.6422, 12524.61
819.1243, 12540.06
819.6064, 12565.47
820.0886, 12578.57
820.5707, 12577.72
821.0528, 12560.40
821.5349, 12526.46
822.0170, 12490.93
822.4991, 12468.91
822.9813, 12459.67
823.4634, 12463.19
823.9455, 12480.40
824.4276, 12492.54
824.9097, 12496.54
825.3918, 12489.76
825.8740, 12462.98
826.3561, 12429.34
826.8382, 12437.57
827.3203, 12528.75
827.8024, 12566.27
828.2845, 12503.56
828.7667, 12443.91
829.2488, 12433.03
829.7309, 12439.98
830.2130, 12423.25
830.6951, 12380.71
831.1772, 12357.27
831.6594, 12380.61
832.1415, 12404.40
832.6236, 12410.03
833.1057, 12405.36
833.5878, 12395.52
834.0699, 12383.37
834.5521, 12372.38
835.0342, 12363.23
835.5163, 12360.38
835.9984, 12374.91
836.4805, 12394.67
836.9626, 12397.11
837.4448, 12385.95
837.9269, 12380.24
838.4090, 12386.07
838.8911, 12392.28
839.3732, 12386.91
839.8553, 12372.71
840.3375, 12356.72
840.8196, 12338.70
841.3017, 12334.25
841.7838, 12348.34
842.2659, 12365.72
842.7480, 12376.76
843.2302, 12383.22
843.7123, 12390.26
844.1944, 12401.16
844.6765, 12401.40
845.1586, 12385.78
845.6407, 12367.24
846.1229, 12342.12
846.6050, 12321.59
847.0871, 12323.09
847.5692, 12343.86
848.0513, 12348.86
848.5334, 12317.62
849.0156, 12291.35
849.4977, 12281.31
849.9798, 12280.26
850.4619, 12285.15
850.9440, 12293.78
851.4261, 12306.65
851.9083, 12325.14
852.3904, 12329.23
852.8725, 12296.30
853.3546, 12250.40
853.8367, 12205.61
854.3188, 12170.88
854.8010, 12169.55
855.2831, 12200.29
855.7652, 12227.74
856.2473, 12225.29
856.7294, 12206.77
857.2115, 12192.85
857.6937, 12183.89
858.1758, 12185.00
858.6579, 12195.94
859.1400, 12197.36
859.6221, 12178.84
860.1042, 12157.03
860.5864, 12158.13
861.0685, 12180.75
861.5506, 12184.33
862.0327, 12162.85
862.5148, 12147.28
862.9969, 12150.86
863.4791, 12147.79
863.9612, 12107.31
864.4433, 12046.82
864.9254, 12032.17
865.4075, 12102.09
865.8896, 12136.77
866.3718, 12107.99
866.8539, 12079.39
867.3360, 12075.57
867.8181, 12081.84
868.3002, 12081.29
868.7823, 12073.26
869.2645, 12067.52
869.7466, 12069.75
870.2287, 12070.56
870.7108, 12071.01
871.1929, 12064.66
871.6750, 12037.23
872.1572, 11999.95
872.6393, 11978.00
873.1214, 11979.93
873.6035, 11993.08
874.0856, 12023.32
874.5677, 12047.61
875.0499, 12026.59
875.5320, 11983.55
876.0141, 11970.14
876.4962, 11992.88
876.9783, 12023.55
877.4604, 12046.64
877.9426, 12053.02
878.4247, 12013.58
878.9068, 11944.79
879.3889, 11910.28
879.8710, 11912.52
880.3531, 11924.09
880.8353, 11934.25
881.3174, 11945.81
881.7995, 11963.65
882.2816, 11985.26
882.7637, 11995.90
883.2458, 11996.07
883.7280, 11977.75
884.2101, 11932.25
884.6922, 11892.67
885.1743, 11881.01
885.6564, 11888.98
886.1385, 11900.24
886.6207, 11917.98
887.1028, 11923.82
887.5849, 11906.75
888.0670, 11895.69
888.5491, 11907.58
889.0313, 11920.16
889.5134, 11908.51
889.9955, 11879.83
890.4776, 11867.87
890.9597, 11890.48
891.4418, 11901.53
891.9240, 11880.86
892.4061, 11862.35
892.8882, 11866.03
893.3703, 11881.61
893.8524, 11898.99
894.3345, 11915.06
894.8167, 11916.37
895.2988, 11886.76
895.7809, 11854.17
896.2630, 11827.73
896.7451, 11810.03
897.2272, 11808.65
897.7094, 11817.70
898.1915, 11823.69
898.6736, 11821.81
899.1557, 11814.16
899.6378, 11796.31
900.1199, 11778.41
900.6021, 11774.01
901.0842, 11779.07
901.5663, 11790.36
902.0484, 11803.14
902.5305, 11797.49
903.0126, 11758.11
903.4948, 11712.93
903.9769, 11704.79
904.4590, 11724.08
904.9411, 11747.56
905.4232, 11771.44
905.9053, 11774.13
906.3875, 11748.91
906.8696, 11727.35
907.3517, 11743.57
907.8338, 11780.46
908.3159, 11775.12
908.7980, 11727.08
909.2802, 11711.27
909.7623, 11740.32
910.2444, 11764.49
910.7265, 11759.64
911.2086, 11737.85
911.6907, 11715.10
912.1729, 11691.43
912.6550, 11666.04
913.1371, 11629.31
913.6192, 11624.74
914.1013, 11679.86
914.5834, 11729.73
915.0656, 11723.21
915.5477, 11687.60
916.0298, 11689.96
916.5119, 11750.81
916.9940, 11772.06
917.4761, 11724.06
917.9583, 11678.39
918.4404, 11645.50
918.9225, 11626.12
919.4046, 11624.85
919.8867, 11637.88
920.3688, 11652.97
920.8510, 11679.23
921.3331, 11685.14
921.8152, 11637.18
922.2973, 11601.42
922.7794, 11623.19
923.2615, 11663.95
923.7437, 11675.50
924.2258, 11657.98
924.7079, 11648.79
925.1900, 11676.06
925.6721, 11685.40
926.1542, 11629.52
926.6364, 11570.66
927.1185, 11562.69
927.6006, 11586.30
928.0827, 11603.84
928.5648, 11606.94
929.0469, 11608.77
929.5291, 11621.26
930.0112, 11629.85
930.4933, 11614.94
930.9754, 11595.73
931.4575, 11600.27
931.9396, 11622.21
932.4218, 11637.50
932.9039, 11637.42
933.3860, 11630.18
933.8681, 11618.06
934.3502, 11606.58
934.8323, 11609.78
935.3145, 11616.82
935.7966, 11598.18
936.2787, 11557.45
936.7608, 11533.16
937.2429, 11546.93
937.7250, 11565.98
938.2072, 11537.78
938.6893, 11490.14
939.1714, 11493.55
939.6535, 11536.63
940.1356, 11572.30
940.6177, 11589.39
941.0999, 11593.95
941.5820, 11588.83
942.0641, 11581.55
942.5462, 11589.69
943.0283, 11608.40
943.5104, 11611.09
943.9926, 11597.64
944.4747, 11577.50
944.9568, 11553.12
945.4389, 11544.09
945.9210, 11573.33
946.4031, 11618.66
946.8853, 11607.85
947.3674, 11541.34
947.8495, 11514.43
948.3316, 11535.93
948.8137, 11569.05
949.2958, 11603.86
949.7780, 11622.30
950.2601, 11598.81
950.7422, 11544.97
951.2243, 11527.73
951.7064, 11556.19
952.1885, 11558.33
952.6707, 11518.33
953.1528, 11485.92
953.6349, 11483.64
954.1170, 11503.05
954.5991, 11540.56
955.0812, 11593.09
955.5634, 11590.60
956.0455, 11505.12
956.5276, 11451.98
957.0097, 11454.50
957.4918, 11471.81
957.9739, 11490.03
958.4561, 11500.88
958.9382, 11485.86
959.4203, 11441.11
959.9024, 11427.09
960.3845, 11467.29
960.8666, 11490.60
961.3488, 11474.46
961.8309, 11456.06
962.3130, 11461.13
962.7951, 11477.43
963.2772, 11478.26
963.7593, 11457.03
964.2415, 11455.92
964.7236, 11508.94
965.2057, 11532.55
965.6878, 11483.44
966.1699, 11429.28
966.6520, 11405.74
967.1342, 11410.45
967.6163, 11446.51
968.0984, 11533.38
968.5805, 11572.93
969.0626, 11522.17
969.5447, 11475.12
970.0269, 11454.96
970.5090, 11447.26
970.9911, 11446.22
971.4732, 11447.85
971.9553, 11439.92
972.4374, 11411.99
972.9196, 11408.15
973.4017, 11463.84
973.8838, 11506.96
974.3659, 11509.02
974.8480, 11490.45
975.3301, 11463.60
975.8123, 11432.23
976.2944, 11402.01
976.7765, 11369.25
977.2586, 11353.13
977.7407, 11377.53
978.2228, 11395.71
978.7050, 11374.47
979.1871, 11347.11
979.6692, 11356.05
980.1513, 11389.32
980.6334, 11394.81
981.1155, 11350.58
981.5977, 11312.21
982.0798, 11292.13
982.5619, 11286.64
983.0440, 11308.48
983.5261, 11333.12
984.0082, 11331.79
984.4904, 11308.29
984.9725, 11285.98
985.4546, 11267.88
985.9367, 11260.53
986.4188, 11280.59
986.9009, 11295.84
987.3831, 11281.18
987.8652, 11255.56
988.3473, 11238.10
988.8294, 11231.73
989.3115, 11238.53
989.7936, 11270.22
990.2758, 11282.06
990.7579, 11229.75
991.2400, 11180.00
991.7221, 11186.93
992.2042, 11213.85
992.6863, 11212.46
993.1685, 11183.75
993.6506, 11159.34
994.1327, 11147.98
994.6148, 11147.02
995.0969, 11171.82
995.5790, 11188.86
996.0612, 11159.14
996.5433, 11118.55
997.0254, 11114.62
997.5075, 11146.34
997.9896, 11183.44
998.4717, 11223.87
998.9539, 11243.29
999.4360, 11222.25
999.9181, 11185.12
1000.400, 11131.22
1000.882, 11082.93
1001.364, 11072.35
1001.847, 11094.62
1002.329, 11116.77
1002.811, 11131.49
1003.293, 11132.28
1003.775, 11097.02
1004.257, 11067.46
1004.739, 11078.37
1005.221, 11108.25
1005.703, 11136.49
1006.186, 11156.10
1006.668, 11154.93
1007.150, 11119.77
1007.632, 11094.55
1008.114, 11109.29
1008.596, 11129.52
1009.078, 11135.69
1009.560, 11132.56
1010.043, 11127.42
1010.525, 11120.03
1011.007, 11104.60
1011.489, 11076.02
1011.971, 11051.42
1012.453, 11036.18
1012.935, 11029.24
1013.417, 11034.61
1013.899, 11044.56
1014.382, 11051.89
1014.864, 11055.82
1015.346, 11056.31
1015.828, 11050.93
1016.310, 11052.62
1016.792, 11084.68
1017.274, 11103.41
1017.756, 11059.45
1018.239, 11010.33
1018.721, 11026.76
1019.203, 11089.96
1019.685, 11126.74
1020.167, 11113.65
1020.649, 11107.91
1021.131, 11150.16
1021.613, 11176.51
1022.095, 11138.37
1022.578, 11087.27
1023.060, 11074.15
1023.542, 11087.53
1024.024, 11085.18
1024.506, 11053.68
1024.988, 11044.68
1025.470, 11105.03
1025.952, 11146.28
1026.435, 11113.90
1026.917, 11069.29
1027.399, 11063.52
1027.881, 11083.54
1028.363, 11094.88
1028.845, 11091.67
1029.327, 11092.34
1029.809, 11095.93
1030.292, 11109.72
1030.774, 11149.70
1031.256, 11186.50
1031.738, 11194.56
1032.220, 11187.98
1032.702, 11190.82
1033.184, 11204.71
1033.666, 11229.95
1034.148, 11277.67
1034.630, 11320.36
1035.113, 11366.73
1035.595, 11392.72
1036.077, 11365.70
1036.559, 11320.15
1037.041, 11309.67
1037.523, 11336.14
1038.005, 11355.17
1038.487, 11370.79
1038.970, 11371.49
1039.452, 11341.13
1039.934, 11316.00
1040.416, 11318.25
1040.898, 11328.47
1041.380, 11320.90
1041.862, 11298.10
1042.344, 11289.46
1042.826, 11304.96
1043.309, 11312.05
1043.791, 11301.64
1044.273, 11299.31
1044.755, 11326.99
1045.237, 11347.65
1045.719, 11313.89
1046.201, 11243.48
1046.683, 11223.73
1047.166, 11281.91
1047.648, 11293.20
1048.130, 11237.38
1048.612, 11192.14
1049.094, 11181.81
1049.576, 11187.83
1050.058, 11200.32
1050.540, 11210.02
1051.022, 11184.15
1051.505, 11114.33
1051.987, 11099.11
1052.469, 11149.04
1052.951, 11187.46
1053.433, 11195.31
1053.915, 11197.55
1054.397, 11213.87
1054.879, 11224.51
1055.361, 11182.31
1055.844, 11096.02
1056.326, 11078.71
1056.808, 11129.93
1057.290, 11158.25
1057.772, 11147.84
1058.254, 11138.04
1058.736, 11149.73
1059.218, 11168.24
1059.701, 11174.84
1060.183, 11172.12
1060.665, 11165.76
1061.147, 11157.64
1061.629, 11163.27
1062.111, 11181.04
1062.593, 11184.06
1063.075, 11162.23
1063.557, 11129.34
1064.040, 11094.54
1064.522, 11065.95
1065.004, 11066.28
1065.486, 11082.05
1065.968, 11078.31
1066.450, 11058.55
1066.932, 11041.09
1067.414, 11032.56
1067.896, 11040.46
1068.379, 11075.62
1068.861, 11107.57
1069.343, 11094.55
1069.825, 11062.63
1070.307, 11045.33
1070.789, 11038.93
1071.271, 11033.55
1071.753, 11026.86
1072.236, 11020.49
1072.718, 11016.28
1073.200, 11004.17
1073.682, 10961.00
1074.164, 10923.85
1074.646, 10929.45
1075.128, 10954.90
1075.610, 10979.65
1076.093, 10996.72
1076.575, 10997.66
1077.057, 10979.91
1077.539, 10957.97
1078.021, 10921.92
1078.503, 10904.54
1078.985, 10945.14
1079.467, 10985.94
1079.949, 10972.40
1080.432, 10932.90
1080.914, 10919.18
1081.396, 10935.85
1081.878, 10947.89
1082.360, 10949.52
1082.842, 10945.42
1083.324, 10921.26
1083.806, 10909.49
1084.288, 10947.13
1084.771, 10987.69
1085.253, 10970.85
1085.735, 10910.75
1086.217, 10877.10
1086.699, 10877.59
1087.181, 10884.93
1087.663, 10903.20
1088.145, 10922.07
1088.628, 10950.89
1089.110, 10954.35
1089.592, 10891.08
1090.074, 10803.55
1090.556, 10789.44
1091.038, 10852.46
1091.520, 10880.54
1092.002, 10868.82
1092.484, 10849.04
1092.967, 10823.62
1093.449, 10810.03
1093.931, 10819.00
1094.413, 10832.55
1094.895, 10826.01
1095.377, 10807.31
1095.859, 10810.97
1096.341, 10831.96
1096.823, 10827.21
1097.306, 10796.21
1097.788, 10769.12
1098.270, 10755.78
1098.752, 10749.06
1099.234, 10744.74
1099.716, 10738.13
1100.198, 10713.55
1100.680, 10685.96
1101.163, 10696.45
1101.645, 10727.38
1102.127, 10722.94
1102.609, 10685.34
1103.091, 10673.41
1103.573, 10716.35
1104.055, 10759.34
1104.537, 10751.59
1105.020, 10729.20
1105.502, 10729.40
1105.984, 10731.11
1106.466, 10694.68
1106.948, 10641.97
1107.430, 10633.10
1107.912, 10677.35
1108.394, 10704.04
1108.876, 10662.90
1109.359, 10631.72
1109.841, 10651.62
1110.323, 10676.57
1110.805, 10678.86
1111.287, 10670.00
1111.769, 10663.59
1112.251, 10660.43
1112.733, 10658.68
1113.215, 10658.06
1113.698, 10659.34
1114.180, 10666.83
1114.662, 10669.25
1115.144, 10660.77
1115.626, 10651.43
1116.108, 10649.77
1116.590, 10649.68
1117.072, 10638.72
1117.555, 10616.81
1118.037, 10599.27
1118.519, 10585.52
1119.001, 10580.06
1119.483, 10584.20
1119.965, 10590.78
1120.447, 10596.16
1120.929, 10608.05
1121.411, 10635.80
1121.894, 10672.17
1122.376, 10702.42
1122.858, 10724.25
1123.340, 10721.87
1123.822, 10698.94
1124.304, 10676.52
1124.786, 10659.92
1125.268, 10645.20
1125.750, 10629.77
1126.233, 10621.67
1126.715, 10636.08
1127.197, 10658.06
1127.679, 10669.59
1128.161, 10672.70
1128.643, 10666.50
1129.125, 10656.14
1129.607, 10655.55
1130.090, 10666.75
1130.572, 10671.21
1131.054, 10656.03
1131.536, 10638.22
1132.018, 10621.54
1132.500, 10610.77
1132.982, 10617.97
1133.464, 10626.46
1133.947, 10608.27
1134.429, 10572.70
1134.911, 10564.31
1135.393, 10601.31
1135.875, 10621.08
1136.357, 10607.93
1136.839, 10592.56
1137.321, 10573.36
1137.803, 10563.76
1138.286, 10578.73
1138.768, 10598.50
1139.250, 10591.01
1139.732, 10560.68
1140.214, 10552.30
1140.696, 10570.63
1141.178, 10569.07
1141.660, 10541.20
1142.142, 10537.94
1142.625, 10577.64
1143.107, 10608.58
1143.589, 10588.77
1144.071, 10546.23
1144.553, 10525.23
1145.035, 10522.64
1145.517, 10536.26
1145.999, 10558.88
1146.482, 10565.79
1146.964, 10558.50
1147.446, 10557.74
1147.928, 10571.22
1148.410, 10591.75
1148.892, 10621.95
1149.374, 10643.40
1149.856, 10629.69
1150.339, 10608.56
1150.821, 10610.84
1151.303, 10622.59
1151.785, 10615.40
1152.267, 10593.77
1152.749, 10593.13
1153.231, 10630.85
1153.713, 10654.36
1154.195, 10632.65
1154.677, 10621.81
1155.160, 10644.31
1155.642, 10677.30
1156.124, 10728.56
1156.606, 10763.27
1157.088, 10717.57
1157.570, 10601.88
1158.052, 10542.74
1158.534, 10553.49
1159.017, 10561.71
1159.499, 10564.96
1159.981, 10558.75
1160.463, 10540.69
1160.945, 10521.63
1161.427, 10509.48
1161.909, 10499.74
1162.391, 10482.33
1162.874, 10461.83
1163.356, 10453.50
1163.838, 10455.24
1164.320, 10461.89
1164.802, 10472.04
1165.284, 10483.44
1165.766, 10495.71
1166.248, 10513.72
1166.730, 10547.73
1167.213, 10570.34
1167.695, 10553.39
1168.177, 10520.82
1168.659, 10484.56
1169.141, 10452.47
1169.623, 10433.04
1170.105, 10424.60
1170.587, 10419.57
1171.069, 10415.95
1171.552, 10421.30
1172.034, 10457.68
1172.516, 10470.50
1172.998, 10426.69
1173.480, 10394.71
1173.962, 10414.16
1174.444, 10442.08
1174.926, 10427.14
1175.409, 10389.59
1175.891, 10410.70
1176.373, 10499.27
1176.855, 10510.54
1177.337, 10442.40
1177.819, 10390.92
1178.301, 10374.05
1178.783, 10375.26
1179.266, 10386.49
1179.748, 10400.80
1180.230, 10413.67
1180.712, 10419.81
1181.194, 10401.87
1181.676, 10376.88
1182.158, 10373.09
1182.640, 10386.63
1183.122, 10415.25
1183.604, 10448.96
1184.087, 10453.86
1184.569, 10412.90
1185.051, 10379.55
1185.533, 10390.34
1186.015, 10397.40
1186.497, 10364.81
1186.979, 10338.25
1187.461, 10362.11
1187.944, 10403.38
1188.426, 10413.45
1188.908, 10397.05
1189.390, 10384.01
1189.872, 10373.59
1190.354, 10369.44
1190.836, 10372.37
1191.318, 10379.70
1191.801, 10392.55
1192.283, 10394.95
1192.765, 10375.81
1193.247, 10358.78
1193.729, 10378.12
1194.211, 10414.22
1194.693, 10417.19
1195.175, 10398.81
1195.657, 10386.59
1196.140, 10382.49
1196.622, 10388.82
1197.104, 10402.17
1197.586, 10405.51
1198.068, 10389.67
1198.550, 10380.89
1199.032, 10411.80
1199.514, 10433.48
1199.996, 10402.82
1200.479, 10367.70
1200.961, 10369.92
1201.443, 10389.63
1201.925, 10394.25
1202.407, 10384.93
1202.889, 10385.55
1203.371, 10404.86
1203.853, 10403.81
1204.336, 10371.74
1204.818, 10354.37
1205.300, 10362.12
1205.782, 10380.88
1206.264, 10404.55
1206.746, 10427.68
1207.228, 10447.21
1207.710, 10454.69
1208.193, 10419.73
1208.675, 10358.54
1209.157, 10312.81
1209.639, 10284.65
1210.121, 10275.60
1210.603, 10282.64
1211.085, 10294.47
1211.567, 10306.56
1212.049, 10326.89
1212.531, 10382.98
1213.014, 10417.98
1213.496, 10381.83
1213.978, 10336.25
1214.460, 10315.06
1214.942, 10315.84
1215.424, 10350.22
1215.906, 10400.25
1216.388, 10399.18
1216.871, 10333.73
1217.353, 10301.38
1217.835, 10311.60
1218.317, 10311.44
1218.799, 10289.73
1219.281, 10288.20
1219.763, 10325.74
1220.245, 10369.63
1220.728, 10392.54
1221.210, 10394.33
1221.692, 10355.67
1222.174, 10307.42
1222.656, 10333.51
1223.138, 10390.37
1223.620, 10374.26
1224.102, 10304.27
1224.584, 10269.75
1225.067, 10292.57
1225.549, 10328.11
1226.031, 10376.26
1226.513, 10396.95
1226.995, 10353.17
1227.477, 10309.67
1227.959, 10289.50
1228.441, 10286.12
1228.923, 10296.27
1229.406, 10317.66
1229.888, 10350.47
1230.370, 10391.67
1230.852, 10403.60
1231.334, 10385.26
1231.816, 10357.16
1232.298, 10321.95
1232.780, 10311.71
##END=



