##NAMES=Borcarite
##RRUFFID=R060591
##IDEAL CHEMISTRY=Ca_4_MgB_4_O_6_(CO_3_)_2_(OH)_6_
##LOCALITY=Fuka mine, Bitchu-cho, Takahashi, Kawakami-gun, Okayama Prefecture, Chugoku Region, Japan
##OWNER=RRUFF
##SOURCE=Michael Scott
##DESCRIPTION=Mass of green indistinct crystals
##STATUS=The identification of this mineral is confirmed by single-crystal X-ray diffraction and chemical analysis.
##URL=rruff.info/R060591
##MEASURED CHEMISTRY=Ca_4.00_(Mg_0.96_Fe_0.04_)_Î£=1_B_4_O_6_(CO_3_)_2_(OH)_6_ ; trace amounts of Mg; B, C, H not measured but assumed by stoichiometry.
151.8681, 94.17746
152.3502, 95.58786
152.8323, 97.00596
153.3145, 98.43311
153.7966, 99.87129
154.2787, 101.3145
154.7608, 102.7746
155.2429, 104.2879
155.7250, 105.9012
156.2072, 107.6231
156.6893, 109.2480
157.1714, 110.6343
157.6535, 112.0767
158.1356, 113.6725
158.6177, 115.4366
159.0999, 117.3784
159.5820, 119.5277
160.0641, 121.9372
160.5462, 124.2772
161.0283, 126.4216
161.5104, 128.5724
161.9926, 130.8361
162.4747, 133.2251
162.9568, 135.8021
163.4389, 138.5934
163.9210, 141.6064
164.4031, 144.9319
164.8853, 148.4746
165.3674, 152.3759
165.8495, 156.8313
166.3316, 161.9684
166.8137, 167.4701
167.2958, 173.5582
167.7780, 179.9795
168.2601, 185.4302
168.7422, 189.9280
169.2243, 193.1207
169.7064, 193.4580
170.1885, 190.3502
170.6707, 184.4530
171.1528, 175.9662
171.6349, 165.2959
172.1170, 153.9596
172.5991, 142.7142
173.0812, 131.5095
173.5634, 121.4715
174.0455, 113.1498
174.5276, 105.6910
175.0097, 98.83270
175.4918, 92.55212
175.9739, 86.98640
176.4561, 82.36486
176.9382, 78.78451
177.4203, 75.77708
177.9024, 73.45162
178.3845, 71.53662
178.8666, 69.99232
179.3488, 68.77473
179.8309, 67.77327
180.3130, 66.84822
180.7951, 65.91541
181.2772, 65.30545
181.7593, 65.18177
182.2415, 65.22874
182.7236, 65.18851
183.2057, 65.00973
183.6878, 64.86032
184.1699, 64.99912
184.6520, 65.57491
185.1342, 66.19389
185.6163, 66.75416
186.0984, 67.39510
186.5805, 68.26197
187.0626, 69.39842
187.5447, 70.76022
188.0269, 72.32848
188.5090, 74.14057
188.9911, 75.96277
189.4732, 77.69980
189.9553, 79.41943
190.4374, 81.27082
190.9196, 83.39260
191.4017, 85.48263
191.8838, 87.11455
192.3659, 88.28782
192.8480, 89.31261
193.3301, 90.23351
193.8123, 91.09437
194.2944, 92.05391
194.7765, 93.11619
195.2586, 94.35234
195.7407, 95.80102
196.2228, 97.46008
196.7050, 99.23800
197.1871, 101.0454
197.6692, 102.8885
198.1513, 104.9115
198.6334, 107.1804
199.1155, 109.6326
199.5977, 112.2000
200.0798, 114.8891
200.5619, 117.7466
201.0440, 120.8481
201.5261, 124.2351
202.0082, 127.7210
202.4904, 131.1698
202.9725, 134.8226
203.4546, 138.7830
203.9367, 143.0836
204.4188, 147.7713
204.9009, 152.8685
205.3831, 158.3373
205.8652, 164.3564
206.3473, 170.9076
206.8294, 177.9417
207.3115, 185.7464
207.7936, 194.1917
208.2758, 202.6462
208.7579, 210.4196
209.2400, 218.5462
209.7221, 223.2735
210.2042, 225.1894
210.6863, 224.0332
211.1685, 219.1478
211.6506, 210.6226
212.1327, 199.6039
212.6148, 187.4665
213.0969, 173.2024
213.5790, 160.2039
214.0612, 147.9283
214.5433, 137.1460
215.0254, 128.4946
215.5075, 122.1505
215.9896, 117.4487
216.4717, 113.5624
216.9539, 110.6055
217.4360, 108.4302
217.9181, 107.1254
218.4002, 106.5484
218.8823, 106.6675
219.3644, 107.4800
219.8466, 108.6977
220.3287, 109.8951
220.8108, 110.9699
221.2929, 112.6467
221.7750, 115.3087
222.2571, 118.5186
222.7393, 121.7232
223.2214, 124.7834
223.7035, 127.9526
224.1856, 131.5730
224.6677, 135.5884
225.1498, 139.7822
225.6320, 144.3489
226.1141, 149.0003
226.5962, 153.2281
227.0783, 156.8919
227.5604, 160.3130
228.0425, 164.1029
228.5247, 168.0743
229.0068, 171.2905
229.4889, 173.0891
229.9710, 173.8800
230.4531, 174.5441
230.9352, 175.1270
231.4174, 175.6455
231.8995, 176.1738
232.3816, 176.6679
232.8637, 176.9780
233.3458, 176.8849
233.8279, 176.5374
234.3101, 176.3717
234.7922, 176.2696
235.2743, 176.6202
235.7564, 177.6250
236.2385, 179.1607
236.7206, 181.0150
237.2028, 183.1036
237.6849, 185.4094
238.1670, 187.8798
238.6491, 190.4043
239.1312, 193.3085
239.6133, 196.8903
240.0955, 200.8672
240.5776, 204.7923
241.0597, 208.3085
241.5418, 211.5762
242.0239, 215.3331
242.5060, 220.0884
242.9882, 224.6678
243.4703, 229.0435
243.9524, 232.9977
244.4345, 236.3586
244.9166, 239.1237
245.3987, 241.1116
245.8809, 241.3959
246.3630, 239.4320
246.8451, 236.1918
247.3272, 232.0643
247.8093, 226.8412
248.2914, 220.1196
248.7736, 211.6152
249.2557, 201.6812
249.7378, 191.8220
250.2199, 181.5399
250.7020, 171.9730
251.1841, 163.3265
251.6663, 155.4748
252.1484, 148.2780
252.6305, 141.6199
253.1126, 135.6715
253.5947, 130.8316
254.0768, 127.8532
254.5590, 125.2859
255.0411, 122.8617
255.5232, 120.8542
256.0053, 119.6591
256.4874, 119.4459
256.9695, 119.8868
257.4517, 120.1904
257.9338, 120.0079
258.4159, 120.1169
258.8980, 120.5749
259.3801, 121.3029
259.8622, 122.2184
260.3444, 123.2927
260.8265, 124.5597
261.3086, 126.0931
261.7907, 128.1994
262.2728, 130.1115
262.7549, 131.3633
263.2371, 132.6464
263.7192, 134.6367
264.2013, 137.5179
264.6834, 141.0173
265.1655, 144.7704
265.6476, 148.8471
266.1298, 153.0393
266.6119, 157.4461
267.0940, 161.9314
267.5761, 166.3080
268.0582, 170.5668
268.5403, 174.8827
269.0225, 179.5543
269.5046, 184.7568
269.9867, 189.3580
270.4688, 193.1701
270.9509, 196.4584
271.4330, 199.4138
271.9152, 202.0622
272.3973, 204.4480
272.8794, 206.7778
273.3615, 209.0038
273.8436, 209.8259
274.3257, 209.2507
274.8079, 207.2529
275.2900, 203.7095
275.7721, 198.6328
276.2542, 192.3622
276.7363, 184.9715
277.2184, 176.4418
277.7006, 167.3574
278.1827, 157.1845
278.6648, 146.9447
279.1469, 137.1774
279.6290, 127.9467
280.1111, 119.4599
280.5933, 111.8630
281.0754, 105.2159
281.5575, 99.19685
282.0396, 93.87348
282.5217, 89.09078
283.0038, 84.77913
283.4860, 80.93244
283.9681, 77.47582
284.4502, 74.39884
284.9323, 71.71590
285.4144, 69.36098
285.8965, 67.37366
286.3787, 65.58803
286.8608, 63.86192
287.3429, 62.25427
287.8250, 60.97721
288.3071, 60.17105
288.7892, 59.64753
289.2714, 59.11514
289.7535, 58.56309
290.2356, 58.08004
290.7177, 57.71664
291.1998, 57.45322
291.6819, 57.24747
292.1641, 57.11646
292.6462, 56.98920
293.1283, 56.78286
293.6104, 56.50726
294.0925, 56.21563
294.5746, 55.93345
295.0568, 55.64952
295.5389, 55.33106
296.0210, 54.95922
296.5031, 54.59900
296.9852, 54.31907
297.4673, 54.09604
297.9495, 53.87013
298.4316, 53.65246
298.9137, 53.41036
299.3958, 53.11089
299.8779, 52.76287
300.3600, 52.30465
300.8422, 51.49904
301.3243, 50.58266
301.8064, 50.00836
302.2885, 50.05643
302.7706, 50.30344
303.2527, 50.24939
303.7349, 49.87292
304.2170, 49.49503
304.6991, 49.25061
305.1812, 49.10312
305.6633, 48.99677
306.1454, 48.91689
306.6276, 48.90113
307.1097, 48.98716
307.5918, 49.17235
308.0739, 49.41914
308.5560, 49.71845
309.0381, 50.07765
309.5203, 50.50828
310.0024, 51.01931
310.4845, 51.52916
310.9666, 51.89328
311.4487, 52.17659
311.9308, 52.72068
312.4130, 53.67521
312.8951, 54.79257
313.3772, 55.83550
313.8593, 56.81831
314.3414, 57.80642
314.8235, 58.80703
315.3057, 59.83905
315.7878, 60.98820
316.2699, 62.30375
316.7520, 63.62283
317.2341, 64.89051
317.7162, 66.07203
318.1984, 67.06626
318.6805, 67.78867
319.1626, 68.32066
319.6447, 68.79794
320.1268, 69.23606
320.6089, 69.54279
321.0911, 69.62990
321.5732, 69.55683
322.0553, 69.38116
322.5374, 69.08775
323.0195, 68.73752
323.5016, 68.40002
323.9838, 68.07381
324.4659, 67.68449
324.9480, 67.04461
325.4301, 66.45424
325.9122, 66.32696
326.3943, 66.76515
326.8765, 67.23102
327.3586, 67.28089
327.8407, 66.99647
328.3228, 66.83642
328.8049, 66.94112
329.2870, 67.15569
329.7692, 67.25166
330.2513, 67.24897
330.7334, 67.44372
331.2155, 68.00252
331.6976, 68.85818
332.1797, 69.90508
332.6619, 71.20089
333.1440, 72.49489
333.6261, 73.61954
334.1082, 74.59084
334.5903, 75.40867
335.0724, 76.04983
335.5546, 76.54114
336.0367, 77.00750
336.5188, 77.48330
337.0009, 77.55952
337.4830, 77.02746
337.9651, 75.88190
338.4473, 74.11272
338.9294, 71.45346
339.4115, 68.58810
339.8936, 66.04021
340.3757, 63.77032
340.8578, 61.55128
341.3400, 59.22995
341.8221, 56.98786
342.3042, 55.06073
342.7863, 53.45340
343.2684, 52.03637
343.7505, 50.77743
344.2327, 49.65937
344.7148, 48.65089
345.1969, 47.75720
345.6790, 46.94004
346.1611, 46.20661
346.6432, 45.54043
347.1254, 44.79880
347.6075, 43.93621
348.0896, 42.98354
348.5717, 41.96517
349.0538, 40.87572
349.5359, 39.80004
350.0181, 38.78389
350.5002, 37.83270
350.9823, 36.94369
351.4644, 36.18052
351.9465, 35.43019
352.4286, 34.57157
352.9108, 33.64167
353.3929, 32.80400
353.8750, 32.15348
354.3571, 31.63718
354.8392, 31.12328
355.3214, 30.62361
355.8035, 30.10308
356.2856, 29.49881
356.7677, 28.87602
357.2498, 28.33199
357.7319, 27.88473
358.2141, 27.57609
358.6962, 27.52486
359.1783, 27.79815
359.6604, 27.89791
360.1425, 27.69345
360.6246, 27.33748
361.1068, 26.92036
361.5889, 26.46424
362.0710, 26.06929
362.5531, 25.83788
363.0352, 25.76634
363.5173, 25.60684
363.9995, 25.19531
364.4816, 24.86455
364.9637, 24.85655
365.4458, 25.06251
365.9279, 25.17474
366.4100, 25.01293
366.8922, 24.69748
367.3743, 24.63235
367.8564, 25.11068
368.3385, 25.40743
368.8206, 25.30521
369.3027, 25.02712
369.7849, 24.81367
370.2670, 24.73531
370.7491, 24.73676
371.2312, 24.74391
371.7133, 24.74880
372.1954, 24.78961
372.6776, 24.88965
373.1597, 25.00273
373.6418, 25.13890
374.1239, 25.27185
374.6060, 25.31519
375.0881, 25.17935
375.5703, 24.87472
376.0524, 24.74568
376.5345, 24.95340
377.0166, 25.14680
377.4987, 25.28297
377.9808, 25.34724
378.4630, 25.27286
378.9451, 25.02688
379.4272, 24.75936
379.9093, 24.84766
380.3914, 25.61357
380.8735, 26.20916
381.3557, 26.60090
381.8378, 26.83501
382.3199, 26.87012
382.8020, 26.74531
383.2841, 26.63247
383.7662, 26.72784
384.2484, 27.05773
384.7305, 27.41489
385.2126, 27.80657
385.6947, 28.22224
386.1768, 28.68592
386.6589, 29.17003
387.1411, 29.62067
387.6232, 30.00047
388.1053, 30.33496
388.5874, 30.67637
389.0695, 30.85445
389.5516, 31.38556
390.0338, 32.60098
390.5159, 34.05421
390.9980, 35.32187
391.4801, 36.29086
391.9622, 37.18563
392.4443, 38.29557
392.9265, 39.63979
393.4086, 40.99800
393.8907, 42.39910
394.3728, 43.74903
394.8549, 44.93417
395.3370, 46.00252
395.8192, 47.12862
396.3013, 48.49946
396.7834, 50.01415
397.2655, 51.28954
397.7476, 52.21293
398.2297, 53.18389
398.7119, 54.39844
399.1940, 55.79143
399.6761, 57.31007
400.1582, 58.97192
400.6403, 60.68803
401.1224, 62.28484
401.6046, 63.79541
402.0867, 65.59953
402.5688, 67.95608
403.0509, 70.50166
403.5330, 72.75317
404.0151, 74.70057
404.4973, 76.76503
404.9794, 79.08389
405.4615, 81.65173
405.9436, 84.54739
406.4257, 87.80066
406.9078, 91.07565
407.3900, 94.11476
407.8721, 96.91587
408.3542, 99.58768
408.8363, 102.4344
409.3184, 104.8769
409.8005, 106.6172
410.2827, 107.6440
410.7648, 107.8816
411.2469, 107.2721
411.7290, 105.9156
412.2111, 103.9530
412.6932, 101.3944
413.1754, 98.36231
413.6575, 94.65765
414.1396, 90.61141
414.6217, 86.41235
415.1038, 82.14827
415.5859, 78.05513
416.0681, 74.34573
416.5502, 71.02782
417.0323, 68.16471
417.5144, 65.76251
417.9965, 63.72166
418.4786, 62.00261
418.9608, 60.61845
419.4429, 59.66037
419.9250, 59.19616
420.4071, 59.02026
420.8892, 58.54743
421.3713, 57.37309
421.8535, 56.52414
422.3356, 56.14600
422.8177, 55.99342
423.2998, 55.94474
423.7819, 55.94545
424.2640, 55.92904
424.7462, 55.81956
425.2283, 55.60864
425.7104, 55.41779
426.1925, 55.08563
426.6746, 54.96471
427.1567, 55.21287
427.6389, 55.72244
428.1210, 56.35691
428.6031, 57.07435
429.0852, 57.79166
429.5673, 58.29460
430.0494, 58.48991
430.5316, 58.81074
431.0137, 59.41407
431.4958, 60.14210
431.9779, 60.90745
432.4600, 61.70341
432.9421, 62.55977
433.4243, 63.60765
433.9064, 64.75782
434.3885, 65.61538
434.8706, 66.11074
435.3527, 66.43822
435.8348, 66.83580
436.3170, 67.13849
436.7991, 67.02210
437.2812, 66.35684
437.7633, 65.31810
438.2454, 64.01215
438.7275, 62.44958
439.2097, 60.73252
439.6918, 58.89007
440.1739, 56.92717
440.6560, 54.78900
441.1381, 52.43920
441.6202, 50.24931
442.1024, 48.45368
442.5845, 46.80378
443.0666, 44.97728
443.5487, 42.95962
444.0308, 41.05873
444.5129, 39.51257
444.9951, 38.30127
445.4772, 37.12711
445.9593, 35.95245
446.4414, 34.85879
446.9235, 33.86991
447.4056, 32.97821
447.8878, 32.15049
448.3699, 31.37744
448.8520, 30.72395
449.3341, 30.31383
449.8162, 30.31615
450.2983, 30.07841
450.7805, 29.51823
451.2626, 28.83525
451.7447, 27.98177
452.2268, 27.08497
452.7089, 26.43652
453.1910, 26.26827
453.6732, 26.43172
454.1553, 26.28804
454.6374, 25.60787
455.1195, 25.00286
455.6016, 24.52801
456.0837, 24.18494
456.5659, 24.00972
457.0480, 23.99408
457.5301, 24.04350
458.0122, 24.09811
458.4943, 24.15582
458.9764, 24.08255
459.4586, 23.77521
459.9407, 23.48445
460.4228, 23.37191
460.9049, 23.35871
461.3870, 23.30270
461.8691, 23.14124
462.3513, 22.93906
462.8334, 22.75341
463.3155, 22.58611
463.7976, 22.47867
464.2797, 22.42241
464.7618, 22.46316
465.2440, 22.71515
465.7261, 23.18615
466.2082, 23.52616
466.6903, 23.53234
467.1724, 23.39190
467.6545, 23.30859
468.1367, 23.30114
468.6188, 23.35210
469.1009, 23.45948
469.5830, 23.61369
470.0651, 23.76875
470.5472, 23.92728
471.0294, 24.08186
471.5115, 24.18691
471.9936, 24.30456
472.4757, 24.57043
472.9578, 25.00110
473.4399, 25.39002
473.9221, 25.46182
474.4042, 25.12605
474.8863, 25.00012
475.3684, 25.18612
475.8505, 25.44495
476.3326, 25.69069
476.8148, 25.94839
477.2969, 26.30089
477.7790, 26.79111
478.2611, 27.31464
478.7432, 27.61520
479.2253, 27.57443
479.7075, 27.64424
480.1896, 27.89033
480.6717, 28.24635
481.1538, 28.74719
481.6359, 29.34705
482.1180, 29.89478
482.6002, 30.24606
483.0823, 30.48307
483.5644, 30.85848
484.0465, 31.40584
484.5286, 31.96520
485.0107, 32.52002
485.4929, 33.01787
485.9750, 33.35749
486.4571, 33.48255
486.9392, 33.67599
487.4213, 34.25780
487.9034, 35.01081
488.3856, 35.41523
488.8677, 35.36619
489.3498, 35.17990
489.8319, 35.15014
490.3140, 35.24146
490.7961, 35.08998
491.2783, 34.56067
491.7604, 33.93317
492.2425, 33.29106
492.7246, 32.64611
493.2067, 32.01470
493.6888, 31.40499
494.1710, 30.79902
494.6531, 30.17880
495.1352, 29.54147
495.6173, 28.89832
496.0994, 28.17637
496.5815, 27.51957
497.0637, 27.03883
497.5458, 26.67766
498.0279, 26.29595
498.5100, 25.80642
498.9921, 25.29008
499.4742, 24.95470
499.9564, 24.86560
500.4385, 24.79614
500.9206, 24.76806
501.4027, 24.70648
501.8848, 24.55260
502.3669, 24.31398
502.8491, 24.04847
503.3312, 23.71009
503.8133, 23.39232
504.2954, 23.42102
504.7775, 23.88486
505.2596, 24.26881
505.7418, 24.23204
506.2239, 24.03429
506.7060, 24.06379
507.1881, 24.38984
507.6702, 24.73120
508.1523, 24.99046
508.6345, 25.16020
509.1166, 25.16456
509.5987, 24.99190
510.0808, 24.89999
510.5629, 25.13404
511.0450, 25.65677
511.5272, 26.02203
512.0093, 26.12587
512.4914, 26.22043
512.9735, 26.37033
513.4556, 26.55719
513.9377, 26.77461
514.4199, 27.01268
514.9020, 27.22188
515.3841, 27.30926
515.8662, 27.22345
516.3483, 27.36813
516.8304, 27.95345
517.3126, 28.55318
517.7947, 28.93250
518.2768, 29.28746
518.7589, 30.00165
519.2410, 31.24985
519.7231, 32.54629
520.2053, 33.10176
520.6874, 32.85115
521.1695, 32.79123
521.6516, 33.08664
522.1337, 33.56407
522.6158, 34.10591
523.0980, 34.71542
523.5801, 35.40629
524.0622, 36.18096
524.5443, 37.03846
525.0264, 37.96294
525.5085, 38.96567
525.9907, 40.09786
526.4728, 41.43390
526.9549, 42.79732
527.4370, 43.88432
527.9191, 44.64167
528.4012, 45.54598
528.8834, 46.64054
529.3655, 47.90037
529.8476, 49.36975
530.3297, 50.99669
530.8118, 52.65036
531.2939, 54.26745
531.7761, 55.83340
532.2582, 57.29539
532.7403, 58.49212
533.2224, 59.88466
533.7045, 61.57764
534.1866, 63.34803
534.6688, 65.07629
535.1509, 66.76820
535.6330, 68.48149
536.1151, 70.24449
536.5972, 72.06751
537.0793, 74.06297
537.5615, 76.31156
538.0436, 78.35167
538.5257, 79.82520
539.0078, 81.18999
539.4899, 82.87937
539.9720, 84.89196
540.4542, 86.85385
540.9363, 88.60136
541.4184, 90.17683
541.9005, 91.62819
542.3826, 92.95951
542.8647, 94.18891
543.3469, 95.33180
543.8290, 96.38185
544.3111, 97.35163
544.7932, 98.40223
545.2753, 99.01994
545.7574, 98.93429
546.2396, 98.52949
546.7217, 98.25465
547.2038, 98.02295
547.6859, 97.32796
548.1680, 95.78898
548.6501, 93.54519
549.1323, 91.20716
549.6144, 88.84975
550.0965, 86.26827
550.5786, 83.23691
551.0607, 80.15116
551.5428, 77.31474
552.0250, 74.73111
552.5071, 72.21756
552.9892, 69.68080
553.4713, 67.09571
553.9534, 64.29449
554.4355, 61.21162
554.9177, 58.24433
555.3998, 55.45097
555.8819, 52.93575
556.3640, 50.81260
556.8461, 49.11643
557.3282, 47.55828
557.8104, 46.11889
558.2925, 44.69349
558.7746, 43.10102
559.2567, 41.35862
559.7388, 39.75912
560.2209, 38.47699
560.7031, 37.44159
561.1852, 36.42286
561.6673, 35.26386
562.1494, 34.34092
562.6315, 33.80615
563.1136, 33.39386
563.5958, 32.95787
564.0779, 32.46402
564.5600, 31.91809
565.0421, 31.32483
565.5242, 30.67862
566.0063, 29.91633
566.4885, 28.93050
566.9706, 28.15443
567.4527, 27.87987
567.9348, 27.71730
568.4169, 27.39116
568.8990, 26.91304
569.3812, 26.47464
569.8633, 26.21738
570.3454, 26.04039
570.8275, 25.81524
571.3096, 25.54080
571.7917, 25.19905
572.2739, 24.74111
572.7560, 24.27247
573.2381, 24.01119
573.7202, 24.03732
574.2023, 23.93744
574.6844, 23.53073
575.1666, 23.10952
575.6487, 22.84735
576.1308, 22.74032
576.6129, 22.71807
577.0950, 22.74117
577.5771, 22.86044
578.0593, 23.28091
578.5414, 24.34631
579.0235, 24.76833
579.5056, 23.79931
579.9877, 22.80594
580.4698, 22.40081
580.9520, 22.45387
581.4341, 22.58357
581.9162, 22.64307
582.3983, 22.65725
582.8804, 22.65361
583.3625, 22.63251
583.8447, 22.59596
584.3268, 22.54020
584.8089, 22.47792
585.2910, 22.39762
585.7731, 22.30885
586.2552, 22.31736
586.7374, 22.47723
587.2195, 22.68966
587.7016, 22.99426
588.1837, 23.29270
588.6658, 23.36209
589.1479, 23.15039
589.6301, 22.91445
590.1122, 22.99058
590.5943, 23.42438
591.0764, 23.73225
591.5585, 23.71373
592.0406, 23.80527
592.5228, 24.22869
593.0049, 24.76048
593.4870, 25.13243
593.9691, 25.27820
594.4512, 25.33253
594.9333, 25.38005
595.4155, 25.43748
595.8976, 25.57630
596.3797, 25.80151
596.8618, 26.10665
597.3439, 26.53463
597.8260, 27.02306
598.3082, 27.42145
598.7903, 27.72044
599.2724, 27.95403
599.7545, 28.00206
600.2366, 28.07120
600.7188, 28.46158
601.2009, 29.13447
601.6830, 29.73827
602.1651, 30.02653
602.6472, 30.09393
603.1293, 30.30321
603.6115, 30.82538
604.0936, 31.17034
604.5757, 31.08946
605.0578, 31.02859
605.5399, 31.31349
606.0220, 31.86802
606.5042, 32.38139
606.9863, 32.64884
607.4684, 32.82779
607.9505, 33.18669
608.4326, 33.72188
608.9147, 34.26057
609.3969, 34.77942
609.8790, 35.24827
610.3611, 35.60360
610.8432, 35.85872
611.3253, 36.15831
611.8074, 36.58755
612.2896, 36.99179
612.7717, 37.20340
613.2538, 37.35913
613.7359, 37.73248
614.2180, 38.39128
614.7001, 39.10780
615.1823, 39.61579
615.6644, 39.90562
616.1465, 40.17513
616.6286, 40.27028
617.1107, 40.56720
617.5928, 41.35519
618.0750, 42.26374
618.5571, 42.87688
619.0392, 43.12431
619.5213, 43.34028
620.0034, 43.72438
620.4855, 44.26904
620.9677, 45.05412
621.4498, 46.09363
621.9319, 46.95848
622.4140, 47.41038
622.8961, 47.58837
623.3782, 47.75877
623.8604, 47.88826
624.3425, 48.11333
624.8246, 48.49062
625.3067, 48.92964
625.7888, 49.38979
626.2709, 49.85969
626.7531, 50.34752
627.2352, 50.85583
627.7173, 51.34964
628.1994, 51.75030
628.6815, 52.03918
629.1636, 52.35009
629.6458, 52.78158
630.1279, 53.10884
630.6100, 53.13084
631.0921, 53.00712
631.5742, 53.04389
632.0563, 53.38050
632.5385, 53.69359
633.0206, 53.66414
633.5027, 53.46799
633.9848, 53.49778
634.4669, 53.80459
634.9490, 54.08624
635.4312, 54.11519
635.9133, 53.94643
636.3954, 53.83922
636.8775, 53.85787
637.3596, 53.85487
637.8417, 53.74141
638.3239, 53.67381
638.8060, 53.76023
639.2881, 53.99570
639.7702, 54.35358
640.2523, 54.86615
640.7344, 55.36658
641.2166, 55.44524
641.6987, 55.07601
642.1808, 54.91191
642.6629, 55.18258
643.1450, 55.52140
643.6271, 55.56588
644.1093, 55.39706
644.5914, 55.30335
645.0735, 55.46117
645.5556, 55.54476
646.0377, 55.46421
646.5198, 55.19129
647.0020, 54.67544
647.4841, 53.91459
647.9662, 52.95617
648.4483, 51.84444
648.9304, 50.57594
649.4125, 49.02635
649.8947, 46.91894
650.3768, 45.07482
650.8589, 43.90683
651.3410, 42.82739
651.8231, 41.37513
652.3052, 39.60363
652.7874, 37.92073
653.2695, 36.49699
653.7516, 35.29396
654.2337, 34.30934
654.7158, 33.52201
655.1979, 32.86920
655.6801, 32.35546
656.1622, 31.83032
656.6443, 31.07460
657.1264, 30.06013
657.6085, 29.41132
658.0906, 29.27711
658.5728, 29.26620
659.0549, 29.41848
659.5370, 29.56770
660.0191, 29.49876
660.5012, 29.21636
660.9833, 28.96698
661.4655, 29.00029
661.9476, 29.19290
662.4297, 29.10079
662.9118, 28.66761
663.3939, 28.41099
663.8760, 28.57977
664.3582, 28.88401
664.8403, 28.96331
665.3224, 28.83861
665.8045, 28.76981
666.2866, 28.69194
666.7687, 28.79021
667.2509, 29.29765
667.7330, 30.00778
668.2151, 30.54444
668.6972, 30.83003
669.1793, 31.13130
669.6614, 31.72967
670.1436, 32.61198
670.6257, 33.57357
671.1078, 34.60834
671.5899, 35.74036
672.0720, 37.02560
672.5541, 38.38935
673.0363, 39.87962
673.5184, 41.45605
674.0005, 42.80073
674.4826, 44.01962
674.9647, 44.76522
675.4468, 44.67323
675.9290, 43.82331
676.4111, 42.39996
676.8932, 40.45902
677.3753, 38.14912
677.8574, 35.59326
678.3395, 32.77031
678.8217, 30.25056
679.3038, 28.01357
679.7859, 26.13349
680.2680, 24.67371
680.7501, 23.55518
681.2322, 22.80486
681.7144, 22.37069
682.1965, 21.97913
682.6786, 21.37751
683.1607, 20.76989
683.6428, 20.58406
684.1249, 20.76201
684.6071, 20.78213
685.0892, 20.44848
685.5713, 20.04950
686.0534, 19.92358
686.5355, 20.09184
687.0176, 20.17638
687.4998, 20.22035
687.9819, 20.13614
688.4640, 19.76933
688.9461, 19.34722
689.4282, 19.08857
689.9103, 19.02184
690.3925, 19.05878
690.8746, 19.18489
691.3567, 19.31811
691.8388, 19.19603
692.3209, 18.80280
692.8030, 18.58714
693.2852, 18.73407
693.7673, 18.96807
694.2494, 18.97550
694.7315, 18.77943
695.2136, 18.74270
695.6957, 19.04363
696.1779, 19.30576
696.6600, 19.39614
697.1421, 19.38327
697.6242, 19.32222
698.1063, 19.23545
698.5884, 19.14318
699.0706, 19.04935
699.5527, 18.98075
700.0348, 19.04291
700.5169, 19.26790
700.9990, 19.41168
701.4811, 19.39231
701.9633, 19.32844
702.4454, 19.26707
702.9275, 19.23567
703.4096, 19.34904
703.8917, 19.77829
704.3738, 20.13944
704.8560, 20.23529
705.3381, 20.19976
705.8202, 20.10692
706.3023, 20.02616
706.7844, 20.18044
707.2665, 20.76062
707.7487, 21.54013
708.2308, 21.81448
708.7129, 21.41392
709.1950, 21.32798
709.6771, 21.93831
710.1592, 22.53104
710.6414, 22.60213
711.1235, 22.33506
711.6056, 22.09509
712.0877, 21.90499
712.5698, 21.83483
713.0519, 21.96269
713.5341, 22.20348
714.0162, 22.51776
714.4983, 22.85831
714.9804, 23.07165
715.4625, 23.05879
715.9446, 22.95962
716.4268, 23.06617
716.9089, 23.40042
717.3910, 23.85516
717.8731, 24.55585
718.3552, 25.20540
718.8373, 25.53236
719.3195, 25.77967
719.8016, 26.34873
720.2837, 27.36540
720.7658, 28.30639
721.2479, 28.77284
721.7300, 29.14322
722.2122, 29.91907
722.6943, 30.98791
723.1764, 31.85413
723.6585, 32.29927
724.1406, 32.58694
724.6227, 33.13844
725.1049, 34.00512
725.5870, 34.64849
726.0691, 34.77786
726.5512, 35.15552
727.0333, 36.11961
727.5154, 37.39717
727.9976, 38.80779
728.4797, 40.31989
728.9618, 41.68378
729.4439, 42.58102
729.9260, 43.46162
730.4081, 44.62399
730.8903, 46.10181
731.3724, 48.05192
731.8545, 50.49048
732.3366, 53.00200
732.8187, 55.16895
733.3008, 57.00641
733.7830, 58.80305
734.2651, 60.85127
734.7472, 62.22828
735.2293, 62.69641
735.7114, 62.42039
736.1935, 61.41381
736.6757, 59.73325
737.1578, 57.56806
737.6399, 54.64479
738.1220, 51.68154
738.6041, 48.96246
739.0862, 46.60132
739.5684, 44.87272
740.0505, 43.76905
740.5326, 42.95905
741.0147, 42.19506
741.4968, 41.58126
741.9789, 41.45809
742.4611, 41.92226
742.9432, 42.53633
743.4253, 43.45385
743.9074, 44.26628
744.3895, 44.58217
744.8716, 44.68080
745.3538, 45.09369
745.8359, 45.96810
746.3180, 46.94408
746.8001, 47.83742
747.2822, 48.76321
747.7643, 49.93713
748.2465, 51.25771
748.7286, 52.42064
749.2107, 53.28334
749.6928, 53.93915
750.1749, 54.45910
750.6570, 54.82444
751.1392, 55.54773
751.6213, 56.89927
752.1034, 57.99659
752.5855, 58.48637
753.0676, 58.53539
753.5497, 58.29436
754.0319, 57.75909
754.5140, 57.21104
754.9961, 56.95332
755.4782, 56.45473
755.9603, 55.28602
756.4424, 53.71310
756.9246, 52.14759
757.4067, 50.66794
757.8888, 49.06958
758.3709, 47.09689
758.8530, 44.92688
759.3351, 43.22312
759.8173, 42.05910
760.2994, 40.76115
760.7815, 39.12514
761.2636, 37.45580
761.7457, 35.98673
762.2278, 34.71173
762.7100, 33.55884
763.1921, 32.58131
763.6742, 31.64901
764.1563, 30.68988
764.6384, 29.80530
765.1205, 29.15582
765.6027, 28.64553
766.0848, 28.01426
766.5669, 27.13563
767.0490, 26.15282
767.5311, 25.12460
768.0132, 24.12521
768.4954, 23.66940
768.9775, 23.85533
769.4596, 23.99554
769.9417, 23.76069
770.4238, 23.28986
770.9059, 22.78767
771.3881, 22.19808
771.8702, 21.82790
772.3523, 21.92451
772.8344, 21.93678
773.3165, 21.56698
773.7986, 21.07833
774.2808, 20.74772
774.7629, 20.62370
775.2450, 20.62136
775.7271, 20.74590
776.2092, 20.90183
776.6913, 20.93875
777.1735, 20.88049
777.6556, 20.84180
778.1377, 20.85183
778.6198, 20.78252
779.1019, 20.48434
779.5840, 20.04324
780.0662, 19.92275
780.5483, 20.39165
781.0304, 20.67052
781.5125, 20.60088
781.9946, 20.44719
782.4767, 20.30745
782.9589, 20.18214
783.4410, 20.04126
783.9231, 19.85544
784.4052, 19.76554
784.8873, 19.94077
785.3694, 20.20169
785.8516, 20.31901
786.3337, 20.31801
786.8158, 20.34628
787.2979, 20.46218
787.7800, 20.58100
788.2621, 20.57437
788.7443, 20.44934
789.2264, 20.43093
789.7085, 20.53548
790.1906, 20.70892
790.6727, 21.02305
791.1548, 21.31732
791.6370, 21.39860
792.1191, 21.30007
792.6012, 21.25095
793.0833, 21.28662
793.5654, 21.37434
794.0475, 21.54924
794.5297, 21.73710
795.0118, 21.79397
795.4939, 21.78267
795.9760, 21.97662
796.4581, 22.55619
796.9402, 23.21289
797.4224, 23.42159
797.9045, 23.26208
798.3866, 23.26904
798.8687, 23.49588
799.3508, 23.80935
799.8329, 24.18145
800.3151, 24.53548
800.7972, 24.69073
801.2793, 24.52280
801.7614, 24.65554
802.2435, 25.37059
802.7256, 26.01164
803.2078, 26.31603
803.6899, 26.50012
804.1720, 26.83278
804.6541, 27.30905
805.1362, 27.66923
805.6183, 27.64269
806.1005, 27.59121
806.5826, 27.93456
807.0647, 28.53078
807.5468, 29.09281
808.0289, 29.56222
808.5110, 29.93035
808.9932, 30.18696
809.4753, 30.35591
809.9574, 30.46632
810.4395, 30.45525
810.9216, 30.69921
811.4037, 31.41459
811.8859, 32.05306
812.3680, 32.19964
812.8501, 32.16977
813.3322, 32.45028
813.8143, 33.11390
814.2964, 33.68957
814.7786, 34.06950
815.2607, 34.33517
815.7428, 34.49697
816.2249, 34.59050
816.7070, 34.65794
817.1891, 34.70719
817.6713, 34.71999
818.1534, 34.67660
818.6355, 34.59650
819.1176, 34.53328
819.5997, 34.47602
820.0818, 34.37841
820.5640, 34.25224
821.0461, 33.87811
821.5282, 33.03403
822.0103, 31.90230
822.4924, 31.05874
822.9745, 30.71267
823.4567, 30.17350
823.9388, 29.24188
824.4209, 28.34443
824.9030, 27.63647
825.3851, 27.04205
825.8672, 26.44696
826.3494, 25.83487
826.8315, 25.33304
827.3136, 25.09169
827.7957, 24.89814
828.2778, 24.57908
828.7599, 24.17803
829.2421, 23.75890
829.7242, 23.34672
830.2063, 22.97569
830.6884, 22.66647
831.1705, 22.42532
831.6526, 22.30370
832.1348, 22.30961
832.6169, 22.18168
833.0990, 21.84054
833.5811, 21.52523
834.0632, 21.38758
834.5453, 21.35816
835.0275, 21.27447
835.5096, 21.08313
835.9917, 21.00274
836.4738, 21.21967
836.9559, 21.32881
837.4380, 21.06292
837.9202, 20.68412
838.4023, 20.48575
838.8844, 20.49617
839.3665, 20.55911
839.8486, 20.63133
840.3307, 20.66885
840.8129, 20.58686
841.2950, 20.45016
841.7771, 20.41114
842.2592, 20.47402
842.7413, 20.49982
843.2234, 20.39705
843.7056, 20.23257
844.1877, 20.13158
844.6698, 20.09388
845.1519, 20.13878
845.6340, 20.30453
846.1161, 20.43889
846.5983, 20.42390
847.0804, 20.39654
847.5625, 20.60345
848.0446, 21.07019
848.5267, 21.33315
849.0089, 21.20910
849.4910, 21.09128
849.9731, 21.05795
850.4552, 21.10151
850.9373, 21.26362
851.4194, 21.49401
851.9016, 21.64585
852.3837, 21.63816
852.8658, 21.60151
853.3479, 21.67164
853.8300, 21.78691
854.3121, 21.82103
854.7943, 21.78735
855.2764, 21.79721
855.7585, 21.89876
856.2406, 22.03970
856.7227, 22.16849
857.2048, 22.27808
857.6870, 22.22580
858.1691, 21.90089
858.6512, 21.88680
859.1333, 22.49235
859.6154, 23.18633
860.0975, 23.46098
860.5797, 23.40942
861.0618, 23.57917
861.5439, 24.25939
862.0260, 24.67273
862.5081, 24.44423
862.9902, 24.22533
863.4724, 24.44917
863.9545, 24.92953
864.4366, 25.30480
864.9187, 25.49319
865.4008, 25.75979
865.8829, 26.46784
866.3651, 27.19738
866.8472, 27.30566
867.3293, 27.07988
867.8114, 27.25651
868.2935, 27.96611
868.7756, 28.81175
869.2578, 29.49442
869.7399, 30.09054
870.2220, 30.83020
870.7041, 31.42061
871.1862, 32.37503
871.6683, 32.64740
872.1505, 32.98492
872.6326, 33.57254
873.1147, 34.40440
873.5968, 35.58305
874.0789, 37.29475
874.5610, 38.32324
875.0432, 38.56256
875.5253, 38.28934
876.0074, 37.41404
876.4895, 36.17218
876.9716, 34.61549
877.4537, 32.85345
877.9359, 31.14738
878.4180, 29.52310
878.9001, 28.10574
879.3822, 27.06546
879.8643, 26.19693
880.3464, 25.20348
880.8286, 24.17261
881.3107, 23.41211
881.7928, 23.02385
882.2749, 22.77357
882.7570, 22.39960
883.2391, 22.18729
883.7213, 21.76431
884.2034, 21.75506
884.6855, 21.66735
885.1676, 21.42346
885.6497, 21.18970
886.1318, 21.09037
886.6140, 21.10595
887.0961, 21.18420
887.5782, 21.39571
888.0603, 21.48437
888.5424, 21.36655
889.0245, 21.23895
889.5067, 21.09579
889.9888, 21.03442
890.4709, 21.24826
890.9530, 21.73823
891.4351, 22.03106
891.9172, 21.89524
892.3994, 21.71335
892.8815, 21.56220
893.3636, 21.49700
893.8457, 21.63369
894.3278, 21.89957
894.8099, 22.09962
895.2921, 22.15536
895.7742, 22.09019
896.2563, 21.86968
896.7384, 21.57240
897.2205, 21.26721
897.7026, 21.00592
898.1848, 21.03761
898.6669, 21.42095
899.1490, 21.75344
899.6311, 21.61985
900.1132, 21.15421
900.5953, 20.87411
901.0775, 20.79942
901.5596, 20.67678
902.0417, 20.44856
902.5238, 20.25293
903.0059, 20.19555
903.4880, 20.19676
903.9702, 20.06448
904.4523, 19.69854
904.9344, 19.60619
905.4165, 20.24844
905.8986, 20.56560
906.3807, 19.97192
906.8629, 19.23825
907.3450, 19.10471
907.8271, 19.45125
908.3092, 19.62554
908.7913, 19.40502
909.2734, 19.10902
909.7556, 18.71088
910.2377, 18.44458
910.7198, 18.65943
911.2019, 19.12858
911.6840, 19.36593
912.1661, 19.24393
912.6483, 19.08214
913.1304, 19.20166
913.6125, 19.39433
914.0946, 19.28185
914.5767, 18.95472
915.0588, 18.69043
915.5410, 18.53802
916.0231, 18.44480
916.5052, 18.37400
916.9873, 18.36113
917.4694, 18.55130
917.9515, 18.96443
918.4337, 18.96307
918.9158, 18.44122
919.3979, 17.96578
919.8800, 17.69254
920.3621, 17.62409
920.8442, 17.85266
921.3264, 18.32384
921.8085, 18.44596
922.2906, 17.82302
922.7727, 17.50062
923.2548, 17.77893
923.7369, 18.07591
924.2191, 18.07367
924.7012, 17.93896
925.1833, 17.94312
925.6654, 18.12298
926.1475, 18.27830
926.6296, 18.40313
927.1118, 18.42552
927.5939, 18.26627
928.0760, 18.01633
928.5581, 17.69214
929.0402, 17.37151
929.5223, 17.24411
930.0045, 17.40332
930.4866, 17.69947
930.9687, 18.16682
931.4508, 18.58276
931.9329, 18.43909
932.4150, 17.93590
932.8972, 17.77982
933.3793, 18.13895
933.8614, 18.56464
934.3435, 18.66533
934.8256, 18.56523
935.3077, 18.57156
935.7899, 18.67435
936.2720, 18.70201
936.7541, 18.62311
937.2362, 18.64659
937.7183, 18.90816
938.2004, 19.21781
938.6826, 19.26768
939.1647, 19.04876
939.6468, 18.99521
940.1289, 19.13254
940.6110, 19.38047
941.0931, 19.81726
941.5753, 20.23902
942.0574, 20.53140
942.5395, 20.69494
943.0216, 20.72324
943.5037, 20.54566
943.9858, 20.44882
944.4680, 20.49351
944.9501, 20.57608
945.4322, 20.68043
945.9143, 20.78801
946.3964, 20.86106
946.8785, 20.91711
947.3607, 21.04762
947.8428, 21.34889
948.3249, 21.58842
948.8070, 21.48871
949.2891, 21.39996
949.7712, 21.80999
950.2534, 22.44303
950.7355, 22.67692
951.2176, 22.38136
951.6997, 21.99479
952.1818, 21.78330
952.6639, 21.74310
953.1461, 21.96536
953.6282, 22.33118
954.1103, 22.55019
954.5924, 22.60762
955.0745, 22.67071
955.5566, 22.82407
956.0388, 22.95472
956.5209, 22.89391
957.0030, 22.67845
957.4851, 22.47962
957.9672, 22.29682
958.4493, 22.14110
958.9315, 21.99839
959.4136, 22.04657
959.8957, 22.48263
960.3778, 23.06976
960.8599, 23.13978
961.3420, 22.52567
961.8242, 22.26992
962.3063, 22.51891
962.7884, 22.78065
963.2705, 22.97392
963.7526, 23.00905
964.2347, 22.67742
964.7169, 22.06866
965.1990, 21.84192
965.6811, 22.33932
966.1632, 22.69829
966.6453, 22.82271
967.1274, 22.91737
967.6096, 23.19741
968.0917, 23.42104
968.5738, 23.16557
969.0559, 22.44580
969.5380, 22.00067
970.0201, 22.33911
970.5023, 22.53418
970.9844, 21.96217
971.4665, 21.38560
971.9486, 21.56201
972.4307, 22.17350
972.9128, 22.48550
973.3950, 22.30958
973.8771, 22.08871
974.3592, 22.13649
974.8413, 22.19965
975.3234, 21.97828
975.8055, 21.67132
976.2877, 21.64484
976.7698, 21.83943
977.2519, 21.85908
977.7340, 21.51267
978.2161, 21.12178
978.6982, 21.04834
979.1804, 21.16135
979.6625, 21.25188
980.1446, 21.30820
980.6267, 21.35025
981.1088, 21.36221
981.5909, 21.12875
982.0731, 20.45108
982.5552, 19.74734
983.0373, 19.93806
983.5194, 20.85550
984.0015, 21.24814
984.4836, 21.08001
984.9658, 20.80764
985.4479, 20.56060
985.9300, 20.37550
986.4121, 20.29347
986.8942, 20.28890
987.3763, 20.27610
987.8585, 20.25694
988.3406, 20.21322
988.8227, 20.13535
989.3048, 20.06293
989.7869, 20.01525
990.2690, 19.97855
990.7512, 19.95720
991.2333, 19.94003
991.7154, 19.76729
992.1975, 19.24302
992.6796, 18.98725
993.1617, 19.23113
993.6439, 19.48521
994.1260, 19.49170
994.6081, 19.39240
995.0902, 19.38630
995.5723, 19.47595
996.0544, 19.57717
996.5366, 19.78346
997.0187, 19.86324
997.5008, 19.60920
997.9829, 19.39193
998.4650, 19.53564
998.9471, 19.83007
999.4293, 19.87485
999.9114, 19.60371
1000.393, 19.41450
1000.876, 19.45753
1001.358, 19.55171
1001.840, 19.64630
1002.322, 19.73904
1002.804, 19.86176
1003.286, 19.97536
1003.768, 19.97661
1004.250, 19.82995
1004.733, 19.71093
1005.215, 19.77252
1005.697, 19.83351
1006.179, 19.60875
1006.661, 19.39779
1007.143, 19.69904
1007.625, 20.39046
1008.107, 20.92780
1008.589, 21.07592
1009.072, 21.13040
1009.554, 21.35411
1010.036, 21.60553
1010.518, 21.74014
1011.000, 21.76226
1011.482, 21.61829
1011.964, 21.36533
1012.446, 21.25740
1012.929, 21.43920
1013.411, 21.75447
1013.893, 22.07529
1014.375, 22.36497
1014.857, 22.51575
1015.339, 22.56916
1015.821, 22.67603
1016.303, 22.86697
1016.785, 23.07093
1017.268, 23.23421
1017.750, 23.42051
1018.232, 23.83822
1018.714, 24.37112
1019.196, 24.41409
1019.678, 24.03131
1020.160, 23.94154
1020.642, 24.34376
1021.125, 25.02387
1021.607, 25.86118
1022.089, 26.68825
1022.571, 27.01470
1023.053, 27.56913
1023.535, 28.04088
1024.017, 28.12016
1024.499, 28.74111
1024.981, 28.80228
1025.464, 28.87678
1025.946, 29.50558
1026.428, 30.50578
1026.910, 31.30329
1027.392, 31.87628
1027.874, 32.43716
1028.356, 32.96909
1028.838, 33.62048
1029.321, 34.48043
1029.803, 35.36720
1030.285, 36.10678
1030.767, 36.73359
1031.249, 37.41844
1031.731, 38.22670
1032.213, 38.81635
1032.695, 39.03301
1033.177, 39.41702
1033.660, 40.21444
1034.142, 41.18046
1034.624, 42.10319
1035.106, 42.97223
1035.588, 43.66104
1036.070, 43.98508
1036.552, 44.59185
1037.034, 45.73273
1037.516, 46.75025
1037.999, 47.45552
1038.481, 47.85299
1038.963, 47.75827
1039.445, 47.29327
1039.927, 47.41677
1040.409, 48.69763
1040.891, 49.56138
1041.373, 49.70469
1041.855, 49.80619
1042.338, 50.21054
1042.820, 50.61738
1043.302, 50.67443
1043.784, 50.42970
1044.266, 50.26286
1044.748, 50.24894
1045.230, 50.20588
1045.712, 50.08662
1046.195, 49.98302
1046.677, 50.05409
1047.159, 50.07170
1047.641, 49.73818
1048.123, 49.09925
1048.605, 48.52213
1049.087, 48.13482
1049.569, 47.64289
1050.052, 46.82705
1050.534, 46.10968
1051.016, 45.73304
1051.498, 45.52066
1051.980, 45.26995
1052.462, 44.98732
1052.944, 44.78132
1053.426, 44.51716
1053.908, 44.64245
1054.391, 45.40180
1054.873, 46.40676
1055.355, 47.33639
1055.837, 48.49421
1056.319, 49.99000
1056.801, 52.00958
1057.283, 55.22689
1057.765, 59.79186
1058.248, 65.53578
1058.730, 72.56401
1059.212, 80.61539
1059.694, 90.76287
1060.176, 101.0087
1060.658, 109.3841
1061.140, 115.7725
1061.622, 120.5869
1062.104, 123.0896
1062.587, 126.4028
1063.069, 131.3367
1063.551, 137.7189
1064.033, 145.4416
1064.515, 154.5755
1064.997, 165.3163
1065.479, 177.5445
1065.961, 190.8213
1066.443, 204.7318
1066.926, 220.6109
1067.408, 238.9151
1067.890, 259.4090
1068.372, 280.1239
1068.854, 304.3864
1069.336, 336.4572
1069.818, 375.5027
1070.300, 419.9674
1070.782, 472.7353
1071.265, 515.2351
1071.747, 549.2482
1072.229, 559.3922
1072.711, 530.5738
1073.193, 477.5598
1073.675, 407.5534
1074.157, 329.4034
1074.639, 258.3795
1075.122, 198.1600
1075.604, 149.3351
1076.086, 114.3658
1076.568, 88.17194
1077.050, 70.34133
1077.532, 57.72320
1078.014, 48.36525
1078.496, 41.41350
1078.979, 36.04560
1079.461, 32.07065
1079.943, 28.95148
1080.425, 26.78387
1080.907, 25.03756
1081.389, 23.52216
1081.871, 22.21917
1082.353, 21.16130
1082.835, 20.29591
1083.318, 19.54190
1083.800, 18.88033
1084.282, 18.27646
1084.764, 17.70009
1085.246, 17.19736
1085.728, 16.79710
1086.210, 16.47425
1086.692, 16.24927
1087.175, 16.06747
1087.657, 15.80983
1088.139, 15.46889
1088.621, 15.24766
1089.103, 15.41594
1089.585, 15.45410
1090.067, 15.01607
1090.549, 14.48333
1091.031, 14.03714
1091.514, 13.75300
1091.996, 13.80443
1092.478, 14.14748
1092.960, 14.32209
1093.442, 14.08877
1093.924, 13.82746
1094.406, 13.64843
1094.888, 13.51911
1095.370, 13.47917
1095.853, 13.43625
1096.335, 13.20657
1096.817, 12.84546
1097.299, 12.71132
1097.781, 13.04504
1098.263, 13.23245
1098.745, 12.89564
1099.227, 12.58116
1099.709, 12.72676
1100.192, 12.92528
1100.674, 12.56730
1101.156, 11.86986
1101.638, 11.71046
1102.120, 12.44323
1102.602, 12.99081
1103.084, 12.96750
1103.566, 12.87213
1104.049, 12.90896
1104.531, 12.94914
1105.013, 12.86957
1105.495, 12.70345
1105.977, 12.50051
1106.459, 12.22352
1106.941, 12.20673
1107.423, 12.79997
1107.906, 13.24968
1108.388, 13.29460
1108.870, 13.19721
1109.352, 13.11662
1109.834, 13.01702
1110.316, 12.75034
1110.798, 12.28689
1111.280, 12.16039
1111.762, 12.74478
1112.245, 13.16550
1112.727, 13.14594
1113.209, 13.13727
1113.691, 13.52153
1114.173, 13.93407
1114.655, 13.81914
1115.137, 13.22960
1115.619, 12.89937
1116.102, 13.01817
1116.584, 13.06452
1117.066, 13.05248
1117.548, 12.93015
1118.030, 12.53863
1118.512, 12.18204
1118.994, 12.19317
1119.476, 12.47350
1119.958, 12.62148
1120.441, 12.58074
1120.923, 12.59812
1121.405, 12.76254
1121.887, 12.77006
1122.369, 12.42331
1122.851, 12.12598
1123.333, 12.20715
1123.815, 12.51527
1124.297, 12.73702
1124.780, 12.88049
1125.262, 12.78894
1125.744, 12.33050
1126.226, 12.17801
1126.708, 12.57258
1127.190, 12.83662
1127.672, 12.53518
1128.154, 12.06189
1128.636, 12.01047
1129.119, 12.31754
1129.601, 12.43849
1130.083, 12.35332
1130.565, 12.32204
1131.047, 12.38207
1131.529, 12.35692
1132.011, 12.15247
1132.493, 12.01916
1132.976, 12.24118
1133.458, 12.66390
1133.940, 12.82615
1134.422, 12.75106
1134.904, 13.01924
1135.386, 12.59088
1135.868, 12.91844
1136.350, 13.03474
1136.833, 12.31129
1137.315, 12.66908
1137.797, 12.59160
1138.279, 12.49495
1138.761, 13.00100
1139.243, 12.39254
1139.725, 12.88625
1140.207, 12.93808
1140.689, 13.19014
1141.172, 13.00430
1141.654, 12.95188
1142.136, 13.33479
1142.618, 13.47452
1143.100, 13.23287
1143.582, 13.48949
1144.064, 12.85202
1144.546, 12.99654
1145.029, 13.47771
1145.511, 13.25113
1145.993, 13.50885
1146.475, 13.58022
1146.957, 12.80959
1147.439, 13.49952
1147.921, 13.55583
1148.403, 12.96159
1148.885, 13.59731
1149.368, 13.08982
1149.850, 12.98851
1150.332, 13.19255
1150.814, 13.07546
1151.296, 13.46111
1151.778, 13.35974
1152.260, 13.21361
1152.742, 13.25545
1153.224, 13.12128
1153.707, 13.25730
1154.189, 13.07391
1154.671, 13.22715
1155.153, 13.45563
1155.635, 13.09611
1156.117, 13.35627
1156.599, 12.61394
1157.081, 12.30503
1157.563, 12.48832
1158.046, 12.72841
1158.528, 12.78167
1159.010, 12.71402
1159.492, 12.62708
1159.974, 12.52213
1160.456, 12.34487
1160.938, 11.97046
1161.420, 11.75798
1161.903, 11.74729
1162.385, 11.86799
1162.867, 12.26940
1163.349, 12.59860
1163.831, 12.53792
1164.313, 12.22747
1164.795, 11.98695
1165.277, 11.80204
1165.760, 11.83281
1166.242, 12.20170
1166.724, 12.37135
1167.206, 12.18557
1167.688, 12.04463
1168.170, 12.18491
1168.652, 12.37111
1169.134, 12.26912
1169.616, 11.98000
1170.099, 12.02140
1170.581, 12.39878
1171.063, 12.66014
1171.545, 12.77810
1172.027, 12.83941
1172.509, 12.87114
1172.991, 12.84102
1173.473, 12.71862
1173.956, 12.55571
1174.438, 12.44674
1174.920, 12.36895
1175.402, 12.19368
1175.884, 11.98788
1176.366, 12.07428
1176.848, 12.41686
1177.330, 12.53481
1177.813, 12.23853
1178.295, 12.02716
1178.777, 12.47603
1179.259, 13.04616
1179.741, 12.98159
1180.223, 12.66936
1180.705, 12.66812
1181.187, 12.87522
1181.669, 12.94314
1182.151, 12.85283
1182.634, 12.90870
1183.116, 13.27005
1183.598, 13.71351
1184.080, 14.35074
1184.562, 14.74356
1185.044, 14.28224
1185.526, 13.68967
1186.008, 13.89786
1186.490, 14.54974
1186.973, 14.58467
1187.455, 13.78285
1187.937, 13.27291
1188.419, 13.49392
1188.901, 13.69636
1189.383, 13.73694
1189.865, 13.72465
1190.347, 13.66132
1190.830, 13.61606
1191.312, 13.70481
1191.794, 13.63694
1192.276, 13.60469
1192.758, 13.62856
1193.240, 13.49106
1193.722, 13.52328
1194.204, 13.49162
1194.687, 13.31082
1195.169, 13.15272
1195.651, 13.11419
1196.133, 13.20226
1196.615, 13.47963
1197.097, 13.39375
1197.579, 13.85977
1198.061, 13.47147
1198.543, 13.34519
1199.026, 13.52076
1199.508, 13.65248
1199.990, 13.62240
1200.472, 13.49247
1200.954, 13.28870
1201.436, 13.12670
1201.918, 13.23093
1202.400, 13.47396
1202.883, 13.66263
1203.365, 13.75512
1203.847, 13.57118
1204.329, 13.21342
1204.811, 13.09065
1205.293, 13.34970
1205.775, 13.73355
1206.257, 14.29245
1206.740, 14.59899
1207.222, 14.02035
1207.704, 13.36349
1208.186, 13.47118
1208.668, 13.92831
1209.150, 14.03062
1209.632, 13.79060
1210.114, 13.74701
1210.596, 14.16270
1211.078, 14.29668
1211.561, 13.64667
1212.043, 13.18813
1212.525, 13.36694
1213.007, 13.66660
1213.489, 13.79937
1213.971, 13.81156
1214.453, 13.74911
1214.935, 13.61969
1215.417, 13.58451
1215.900, 13.71444
1216.382, 13.63087
1216.864, 13.22908
1217.346, 13.01177
1217.828, 13.16592
1218.310, 13.38946
1218.792, 13.46035
1219.274, 13.43136
1219.757, 13.40677
1220.239, 13.36839
1220.721, 13.12113
1221.203, 12.76579
1221.685, 12.93629
1222.167, 13.57441
1222.649, 13.91325
1223.131, 13.70421
1223.614, 13.38710
1224.096, 13.29056
1224.578, 13.24249
1225.060, 12.97346
1225.542, 12.71775
1226.024, 12.88343
1226.506, 13.18132
1226.988, 13.06467
1227.470, 12.65398
1227.953, 12.52819
1228.435, 12.86068
1228.917, 13.07143
1229.399, 12.82601
1229.881, 12.58459
1230.363, 12.44543
1230.845, 12.41145
1231.327, 12.58447
1231.810, 12.78842
1232.292, 12.84378
1232.774, 12.75161
1233.256, 12.49403
1233.738, 11.98656
1234.220, 11.66376
1234.702, 11.49867
1235.184, 11.67368
1235.667, 12.36219
1236.149, 12.81881
1236.631, 12.61710
1237.113, 12.19459
1237.595, 12.05925
1238.077, 12.13644
1238.559, 12.22770
1239.041, 12.32684
1239.523, 12.44853
1240.005, 12.55398
1240.488, 12.38428
1240.970, 11.95532
1241.452, 11.68567
1241.934, 11.78156
1242.416, 11.97464
1242.898, 11.93675
1243.380, 11.96834
1243.862, 12.67111
1244.344, 13.34947
1244.827, 13.02536
1245.309, 12.19981
1245.791, 11.78877
1246.273, 11.84772
1246.755, 11.87269
1247.237, 11.69929
1247.719, 11.61635
1248.201, 11.79413
1248.684, 11.92233
1249.166, 11.82310
1249.648, 11.75280
1250.130, 11.90070
1250.612, 12.11375
1251.094, 12.19100
1251.576, 12.14805
1252.058, 12.07071
1252.541, 11.94270
1253.023, 11.91368
1253.505, 11.99793
1253.987, 12.05238
1254.469, 12.04341
1254.951, 12.02291
1255.433, 12.02105
1255.915, 12.01556
1256.397, 11.98637
1256.880, 11.92533
1257.362, 11.76846
1257.844, 11.59473
1258.326, 11.60293
1258.808, 11.71742
1259.290, 11.70229
1259.772, 11.56039
1260.254, 11.53789
1260.737, 11.75696
1261.219, 11.91694
1261.701, 11.70584
1262.183, 11.60280
1262.665, 12.07834
1263.147, 12.49412
1263.629, 12.23280
1264.111, 11.72034
1264.594, 11.64935
1265.076, 11.92258
1265.558, 11.82779
1266.040, 11.80747
1266.522, 11.94403
1267.004, 11.62787
1267.486, 12.02659
1267.968, 11.93050
1268.450, 11.83157
1268.932, 11.99031
1269.415, 12.18967
1269.897, 12.19238
1270.379, 12.04264
1270.861, 11.79056
1271.343, 11.49357
1271.825, 11.30889
1272.307, 11.23947
1272.789, 11.31076
1273.271, 11.48442
1273.754, 11.60949
1274.236, 11.63169
1274.718, 11.66416
1275.200, 11.82751
1275.682, 11.95187
1276.164, 11.86107
1276.646, 11.77907
1277.128, 11.92605
1277.611, 12.12529
1278.093, 12.14500
1278.575, 12.03751
1279.057, 12.02913
1279.539, 12.15605
1280.021, 12.13281
1280.503, 11.85291
1280.985, 11.72441
1281.468, 11.81492
1281.950, 11.99088
1282.432, 12.22716
1282.914, 12.39017
1283.396, 12.35671
1283.878, 12.23694
1284.360, 12.25325
1284.842, 12.33515
1285.324, 12.28669
##END=



