##NAMES=Botryogen
##RRUFFID=R070362
##IDEAL CHEMISTRY=MgFe^3+^(S^6+^O_4_)_2_(OH)&#183;7H_2_O
##LOCALITY=Queténa Mine, Calama, El Loa Province, Antofagasta Region, Chile
##OWNER=RRUFF
##SOURCE=Michael Scott
##DESCRIPTION=Aggregate of orange pseudo-rhombohedral crystals
##STATUS=The identification of this mineral is confirmed by single-crystal X-ray diffraction and chemical analysis.
##URL=rruff.info/R070362
##MEASURED CHEMISTRY=Mg_1.00_(Fe^3+^_0.90_Al_0.10_)_Σ=1_(S_1.00_O_4_)_2_(OH)·7H_2_O; OH estimated by charge balance; H_2_O by difference
131.8235, 1034.818
132.3056, 1075.651
132.7877, 1115.063
133.2699, 1153.961
133.7520, 1192.434
134.2341, 1232.419
134.7162, 1276.719
135.1983, 1325.549
135.6804, 1367.720
136.1626, 1402.241
136.6447, 1430.806
137.1268, 1455.826
137.6089, 1476.667
138.0910, 1495.520
138.5731, 1515.816
139.0553, 1541.518
139.5374, 1549.961
140.0195, 1533.908
140.5016, 1500.487
140.9837, 1478.774
141.4658, 1474.067
141.9480, 1472.396
142.4301, 1463.514
142.9122, 1441.521
143.3943, 1425.154
143.8764, 1418.833
144.3585, 1422.311
144.8407, 1420.315
145.3228, 1408.656
145.8049, 1394.713
146.2870, 1385.205
146.7691, 1379.718
147.2512, 1379.376
147.7334, 1386.226
148.2155, 1402.961
148.6976, 1414.997
149.1797, 1415.888
149.6618, 1413.958
150.1439, 1420.138
150.6261, 1442.796
151.1082, 1465.985
151.5903, 1485.975
152.0724, 1502.728
152.5545, 1515.986
153.0366, 1520.226
153.5188, 1521.065
154.0009, 1529.509
154.4830, 1556.814
154.9651, 1584.930
155.4472, 1605.662
155.9293, 1610.840
156.4115, 1619.040
156.8936, 1635.054
157.3757, 1657.270
157.8578, 1680.258
158.3399, 1702.342
158.8221, 1724.728
159.3042, 1748.412
159.7863, 1773.691
160.2684, 1800.220
160.7505, 1830.816
161.2326, 1864.548
161.7148, 1891.965
162.1969, 1903.123
162.6790, 1908.444
163.1611, 1917.854
163.6432, 1937.865
164.1253, 1960.312
164.6075, 1980.904
165.0896, 1999.488
165.5717, 2018.640
166.0538, 2040.401
166.5359, 2063.549
167.0180, 2086.370
167.5002, 2105.378
167.9823, 2125.708
168.4644, 2151.382
168.9465, 2182.961
169.4286, 2218.036
169.9107, 2258.426
170.3929, 2301.009
170.8750, 2340.270
171.3571, 2368.876
171.8392, 2394.209
172.3213, 2425.122
172.8034, 2464.015
173.2856, 2503.142
173.7677, 2533.039
174.2498, 2556.467
174.7319, 2582.325
175.2140, 2619.811
175.6961, 2662.284
176.1783, 2699.475
176.6604, 2728.603
177.1425, 2752.804
177.6246, 2775.725
178.1067, 2796.930
178.5888, 2815.102
179.0710, 2827.444
179.5531, 2835.778
180.0352, 2843.708
180.5173, 2851.573
180.9994, 2859.887
181.4815, 2869.856
181.9637, 2881.502
182.4458, 2892.729
182.9279, 2899.507
183.4100, 2903.821
183.8921, 2913.241
184.3742, 2930.411
184.8564, 2953.887
185.3385, 2981.416
185.8206, 3013.580
186.3027, 3045.589
186.7848, 3070.742
187.2669, 3090.282
187.7491, 3114.459
188.2312, 3148.106
188.7133, 3189.056
189.1954, 3229.328
189.6775, 3267.903
190.1596, 3309.329
190.6418, 3362.110
191.1239, 3425.742
191.6060, 3488.472
192.0881, 3549.275
192.5702, 3606.924
193.0524, 3647.011
193.5345, 3664.979
194.0166, 3676.995
194.4987, 3709.726
194.9808, 3764.566
195.4629, 3819.271
195.9451, 3863.291
196.4272, 3897.339
196.9093, 3925.947
197.3914, 3946.658
197.8735, 3966.023
198.3556, 4000.595
198.8378, 4053.655
199.3199, 4100.406
199.8020, 4122.526
200.2841, 4117.546
200.7662, 4122.578
201.2483, 4141.712
201.7305, 4170.197
202.2126, 4197.697
202.6947, 4224.854
203.1768, 4248.623
203.6589, 4268.178
204.1410, 4283.913
204.6232, 4290.525
205.1053, 4284.645
205.5874, 4270.588
206.0695, 4264.264
206.5516, 4269.367
207.0337, 4272.497
207.5159, 4262.300
207.9980, 4235.187
208.4801, 4213.375
208.9622, 4202.131
209.4443, 4198.219
209.9264, 4185.059
210.4086, 4159.922
210.8907, 4130.900
211.3728, 4104.456
211.8549, 4081.244
212.3370, 4057.442
212.8191, 4031.478
213.3013, 4004.134
213.7834, 3980.577
214.2655, 3962.551
214.7476, 3945.419
215.2297, 3925.289
215.7118, 3900.917
216.1940, 3876.111
216.6761, 3850.061
217.1582, 3823.013
217.6403, 3803.348
218.1224, 3791.931
218.6045, 3787.006
219.0867, 3789.309
219.5688, 3805.613
220.0509, 3812.140
220.5330, 3797.779
221.0151, 3761.408
221.4972, 3749.566
221.9794, 3769.220
222.4615, 3805.445
222.9436, 3844.758
223.4257, 3892.533
223.9078, 3932.144
224.3899, 3954.813
224.8721, 3958.206
225.3542, 3979.299
225.8363, 4021.674
226.3184, 4078.455
226.8005, 4144.767
227.2827, 4228.721
227.7648, 4305.580
228.2469, 4366.134
228.7290, 4406.671
229.2111, 4458.669
229.6932, 4527.451
230.1754, 4602.748
230.6575, 4671.132
231.1396, 4725.082
231.6217, 4784.996
232.1038, 4860.372
232.5859, 4957.475
233.0681, 5035.841
233.5502, 5090.332
234.0323, 5129.595
234.5144, 5167.001
234.9965, 5206.091
235.4786, 5236.885
235.9608, 5256.978
236.4429, 5266.507
236.9250, 5263.296
237.4071, 5242.556
237.8892, 5212.021
238.3713, 5184.041
238.8535, 5161.487
239.3356, 5136.943
239.8177, 5111.461
240.2998, 5091.293
240.7819, 5043.324
241.2640, 4951.435
241.7462, 4840.360
242.2283, 4754.377
242.7104, 4712.889
243.1925, 4664.422
243.6746, 4588.716
244.1567, 4473.103
244.6389, 4373.163
245.1210, 4296.644
245.6031, 4231.357
246.0852, 4155.858
246.5673, 4063.992
247.0494, 3972.403
247.5316, 3887.237
248.0137, 3810.684
248.4958, 3733.460
248.9779, 3659.122
249.4600, 3582.450
249.9421, 3493.317
250.4243, 3380.237
250.9064, 3274.227
251.3885, 3188.442
251.8706, 3129.911
252.3527, 3066.860
252.8348, 2996.771
253.3170, 2923.898
253.7991, 2856.707
254.2812, 2797.457
254.7633, 2740.882
255.2454, 2684.163
255.7275, 2625.822
256.2097, 2574.836
256.6918, 2532.862
257.1739, 2497.669
257.6560, 2464.209
258.1381, 2430.288
258.6202, 2402.577
259.1024, 2384.381
259.5845, 2378.250
260.0666, 2371.534
260.5487, 2362.967
261.0308, 2354.800
261.5129, 2350.972
261.9951, 2352.317
262.4772, 2356.122
262.9593, 2361.959
263.4414, 2370.691
263.9235, 2377.562
264.4056, 2382.391
264.8878, 2385.595
265.3699, 2387.827
265.8520, 2388.807
266.3341, 2389.745
266.8162, 2393.280
267.2983, 2401.633
267.7805, 2396.698
268.2626, 2373.966
268.7447, 2342.953
269.2268, 2321.402
269.7089, 2312.933
270.1910, 2301.024
270.6732, 2278.219
271.1553, 2243.467
271.6374, 2209.803
272.1195, 2179.586
272.6016, 2146.909
273.0837, 2100.739
273.5659, 2037.699
274.0480, 1977.452
274.5301, 1927.218
275.0122, 1887.505
275.4943, 1850.739
275.9764, 1817.366
276.4586, 1786.105
276.9407, 1754.200
277.4228, 1721.572
277.9049, 1692.356
278.3870, 1669.651
278.8691, 1653.123
279.3513, 1634.619
279.8334, 1613.350
280.3155, 1592.136
280.7976, 1574.131
281.2798, 1559.467
281.7619, 1548.639
282.2440, 1544.437
282.7261, 1545.354
283.2082, 1538.393
283.6903, 1521.860
284.1725, 1503.679
284.6546, 1493.195
285.1367, 1490.340
285.6188, 1491.216
286.1009, 1496.890
286.5830, 1505.430
287.0652, 1508.226
287.5473, 1504.853
288.0294, 1498.126
288.5115, 1489.498
288.9936, 1479.376
289.4757, 1471.449
289.9579, 1467.384
290.4400, 1466.242
290.9221, 1465.268
291.4042, 1464.400
291.8863, 1464.488
292.3684, 1465.441
292.8506, 1467.786
293.3327, 1474.180
293.8148, 1489.162
294.2969, 1506.617
294.7790, 1514.075
295.2611, 1511.528
295.7433, 1505.549
296.2254, 1499.401
296.7075, 1494.052
297.1896, 1492.689
297.6717, 1498.591
298.1538, 1506.826
298.6360, 1509.329
299.1181, 1506.534
299.6002, 1503.321
300.0823, 1503.510
300.5644, 1505.911
301.0465, 1508.070
301.5287, 1508.308
302.0108, 1509.339
302.4929, 1515.574
302.9750, 1526.132
303.4571, 1535.598
303.9392, 1539.594
304.4214, 1540.584
304.9035, 1542.395
305.3856, 1547.660
305.8677, 1551.089
306.3498, 1543.442
306.8319, 1528.640
307.3141, 1520.432
307.7962, 1533.443
308.2783, 1554.046
308.7604, 1568.820
309.2425, 1573.023
309.7246, 1574.909
310.2068, 1579.438
310.6889, 1585.739
311.1710, 1591.600
311.6531, 1594.332
312.1352, 1597.209
312.6173, 1603.666
313.0995, 1616.442
313.5816, 1626.141
314.0637, 1622.791
314.5458, 1613.660
315.0279, 1612.383
315.5100, 1630.736
315.9922, 1653.380
316.4743, 1672.365
316.9564, 1686.116
317.4385, 1698.920
317.9206, 1713.984
318.4027, 1728.538
318.8849, 1738.711
319.3670, 1736.114
319.8491, 1735.425
320.3312, 1743.034
320.8133, 1760.854
321.2954, 1778.359
321.7776, 1793.784
322.2597, 1807.908
322.7418, 1821.562
323.2239, 1832.434
323.7060, 1845.274
324.1881, 1861.248
324.6703, 1880.492
325.1524, 1901.675
325.6345, 1928.142
326.1166, 1954.461
326.5987, 1976.425
327.0808, 1986.110
327.5630, 2000.752
328.0451, 2024.276
328.5272, 2056.188
329.0093, 2085.847
329.4914, 2110.724
329.9735, 2134.957
330.4557, 2161.407
330.9378, 2193.722
331.4199, 2221.659
331.9020, 2241.808
332.3841, 2256.638
332.8662, 2279.208
333.3484, 2314.625
333.8305, 2349.698
334.3126, 2376.443
334.7947, 2390.331
335.2768, 2409.216
335.7589, 2435.131
336.2411, 2465.850
336.7232, 2496.995
337.2053, 2528.739
337.6874, 2559.756
338.1695, 2589.670
338.6516, 2618.138
339.1338, 2646.358
339.6159, 2674.217
340.0980, 2701.659
340.5801, 2727.932
341.0622, 2753.322
341.5443, 2777.748
342.0265, 2799.587
342.5086, 2819.602
342.9907, 2850.385
343.4728, 2894.806
343.9549, 2937.705
344.4370, 2956.460
344.9192, 2953.365
345.4013, 2950.870
345.8834, 2957.031
346.3655, 2969.329
346.8476, 2982.455
347.3297, 2996.482
347.8119, 3008.126
348.2940, 3013.092
348.7761, 3012.928
349.2582, 3012.502
349.7403, 3014.906
350.2225, 3015.945
350.7046, 3008.458
351.1867, 2993.192
351.6688, 2976.411
352.1509, 2962.679
352.6331, 2950.276
353.1152, 2936.696
353.5973, 2921.445
354.0794, 2904.771
354.5615, 2884.338
355.0436, 2862.114
355.5258, 2844.087
356.0079, 2846.843
356.4900, 2847.861
356.9721, 2822.253
357.4542, 2756.445
357.9363, 2697.106
358.4185, 2676.535
358.9006, 2679.498
359.3827, 2679.638
359.8648, 2658.568
360.3469, 2638.463
360.8290, 2634.438
361.3112, 2650.923
361.7933, 2659.893
362.2754, 2647.344
362.7575, 2624.682
363.2396, 2604.211
363.7217, 2582.333
364.2039, 2569.544
364.6860, 2570.846
365.1681, 2586.417
365.6502, 2603.873
366.1323, 2626.001
366.6144, 2647.150
367.0966, 2663.411
367.5787, 2666.307
368.0608, 2674.427
368.5429, 2691.321
369.0250, 2715.189
369.5071, 2736.221
369.9893, 2751.620
370.4714, 2767.337
370.9535, 2785.926
371.4356, 2806.341
371.9177, 2831.652
372.3998, 2862.573
372.8820, 2898.223
373.3641, 2936.902
373.8462, 2979.872
374.3283, 3022.364
374.8104, 3062.318
375.2925, 3100.079
375.7747, 3134.636
376.2568, 3165.230
376.7389, 3194.705
377.2210, 3226.346
377.7031, 3260.211
378.1852, 3295.302
378.6674, 3331.716
379.1495, 3369.136
379.6316, 3410.923
380.1137, 3457.929
380.5958, 3498.403
381.0779, 3518.598
381.5601, 3521.567
382.0422, 3520.441
382.5243, 3516.283
383.0064, 3512.002
383.4885, 3514.413
383.9706, 3522.441
384.4528, 3528.014
384.9349, 3526.908
385.4170, 3519.467
385.8991, 3505.311
386.3812, 3482.875
386.8633, 3458.211
387.3455, 3438.543
387.8276, 3421.108
388.3097, 3399.179
388.7918, 3368.195
389.2739, 3332.306
389.7560, 3294.955
390.2382, 3256.555
390.7203, 3214.857
391.2024, 3165.344
391.6845, 3113.178
392.1666, 3063.661
392.6487, 3019.995
393.1309, 2978.318
393.6130, 2937.926
394.0951, 2898.581
394.5772, 2860.009
395.0593, 2817.855
395.5414, 2779.094
396.0236, 2748.563
396.5057, 2749.924
396.9878, 2732.075
397.4699, 2676.597
397.9520, 2596.681
398.4341, 2534.513
398.9163, 2504.416
399.3984, 2477.303
399.8805, 2442.336
400.3626, 2395.287
400.8447, 2352.961
401.3268, 2316.247
401.8090, 2283.653
402.2911, 2253.105
402.7732, 2226.486
403.2553, 2197.459
403.7374, 2162.139
404.2195, 2121.348
404.7017, 2092.236
405.1838, 2078.594
405.6659, 2066.101
406.1480, 2038.255
406.6301, 1994.571
407.1122, 1961.181
407.5944, 1946.015
408.0765, 1940.404
408.5586, 1922.607
409.0407, 1892.807
409.5228, 1863.808
410.0049, 1846.847
410.4871, 1837.542
410.9692, 1822.055
411.4513, 1797.470
411.9334, 1772.681
412.4155, 1757.170
412.8976, 1749.333
413.3798, 1744.954
413.8619, 1750.273
414.3440, 1753.205
414.8261, 1736.606
415.3082, 1700.224
415.7903, 1666.717
416.2725, 1652.544
416.7546, 1648.588
417.2367, 1644.279
417.7188, 1634.228
418.2009, 1625.645
418.6830, 1622.832
419.1652, 1624.504
419.6473, 1626.057
420.1294, 1625.079
420.6115, 1624.215
421.0937, 1625.146
421.5758, 1629.459
422.0579, 1632.568
422.5400, 1631.580
423.0221, 1629.511
423.5042, 1631.266
423.9864, 1635.668
424.4685, 1645.407
424.9506, 1663.458
425.4327, 1690.635
425.9148, 1712.880
426.3969, 1730.795
426.8791, 1743.108
427.3612, 1745.852
427.8433, 1732.419
428.3254, 1730.755
428.8075, 1747.646
429.2896, 1777.889
429.7718, 1803.120
430.2539, 1822.291
430.7360, 1842.227
431.2181, 1866.582
431.7002, 1895.205
432.1823, 1926.176
432.6645, 1959.661
433.1466, 1994.761
433.6287, 2026.696
434.1108, 2057.369
434.5929, 2097.240
435.0750, 2158.073
435.5572, 2227.229
436.0393, 2279.934
436.5214, 2316.973
437.0035, 2355.164
437.4856, 2405.196
437.9677, 2464.852
438.4499, 2531.667
438.9320, 2608.344
439.4141, 2686.360
439.8962, 2759.522
440.3783, 2828.948
440.8604, 2899.689
441.3426, 2966.039
441.8247, 3039.337
442.3068, 3129.523
442.7889, 3242.492
443.2710, 3348.939
443.7531, 3433.429
444.2353, 3510.148
444.7174, 3596.268
445.1995, 3705.165
445.6816, 3810.295
446.1637, 3906.140
446.6458, 3992.848
447.1280, 4081.976
447.6101, 4182.708
448.0922, 4276.051
448.5743, 4349.495
449.0564, 4396.335
449.5385, 4442.738
450.0207, 4489.286
450.5028, 4535.639
450.9849, 4585.722
451.4670, 4643.811
451.9491, 4681.450
452.4312, 4682.956
452.9134, 4652.442
453.3955, 4620.218
453.8776, 4585.832
454.3597, 4553.674
454.8418, 4534.787
455.3239, 4523.774
455.8061, 4497.756
456.2882, 4446.663
456.7703, 4385.398
457.2524, 4332.604
457.7345, 4287.545
458.2166, 4246.031
458.6988, 4214.521
459.1809, 4181.178
459.6630, 4131.251
460.1451, 4060.757
460.6272, 3988.502
461.1093, 3927.384
461.5915, 3871.393
462.0736, 3814.293
462.5557, 3746.804
463.0378, 3684.813
463.5199, 3642.183
464.0020, 3615.099
464.4842, 3573.201
464.9663, 3498.007
465.4484, 3415.775
465.9305, 3339.353
466.4126, 3265.616
466.8947, 3202.796
467.3769, 3155.803
467.8590, 3117.763
468.3411, 3077.110
468.8232, 3033.277
469.3053, 2987.920
469.7874, 2939.006
470.2696, 2887.224
470.7517, 2846.591
471.2338, 2819.441
471.7159, 2796.525
472.1980, 2768.794
472.6801, 2736.428
473.1623, 2712.232
473.6444, 2699.413
474.1265, 2692.349
474.6086, 2682.239
475.0907, 2669.405
475.5728, 2655.923
476.0550, 2636.977
476.5371, 2620.109
477.0192, 2620.032
477.5013, 2637.351
477.9834, 2658.718
478.4655, 2673.786
478.9477, 2686.808
479.4298, 2702.880
479.9119, 2721.270
480.3940, 2746.162
480.8761, 2782.583
481.3582, 2827.513
481.8404, 2871.900
482.3225, 2907.810
482.8046, 2946.600
483.2867, 2994.384
483.7688, 3053.881
484.2509, 3114.666
484.7331, 3174.076
485.2152, 3235.134
485.6973, 3302.223
486.1794, 3377.899
486.6615, 3455.411
487.1436, 3533.666
487.6258, 3613.382
488.1079, 3700.442
488.5900, 3798.799
489.0721, 3892.137
489.5542, 3967.672
490.0363, 4025.521
490.5185, 4092.954
491.0006, 4171.833
491.4827, 4254.520
491.9648, 4331.918
492.4470, 4404.161
492.9291, 4470.374
493.4112, 4527.705
493.8933, 4579.560
494.3754, 4630.803
494.8575, 4681.000
495.3397, 4724.349
495.8218, 4763.598
496.3039, 4791.492
496.7860, 4800.139
497.2681, 4788.166
497.7502, 4759.083
498.2324, 4706.011
498.7145, 4639.420
499.1966, 4572.506
499.6787, 4517.403
500.1608, 4454.849
500.6429, 4378.485
501.1251, 4288.621
501.6072, 4192.686
502.0893, 4084.456
502.5714, 3975.011
503.0535, 3868.729
503.5356, 3764.724
504.0178, 3667.438
504.4999, 3581.269
504.9820, 3498.615
505.4641, 3404.490
505.9462, 3296.173
506.4283, 3192.067
506.9105, 3097.869
507.3926, 3012.573
507.8747, 2932.558
508.3568, 2857.545
508.8389, 2788.032
509.3210, 2723.449
509.8032, 2663.542
510.2853, 2606.580
510.7674, 2552.093
511.2495, 2501.646
511.7316, 2460.545
512.2137, 2424.315
512.6959, 2384.552
513.1780, 2328.746
513.6601, 2275.257
514.1422, 2237.019
514.6243, 2212.628
515.1064, 2191.583
515.5886, 2172.653
516.0707, 2153.706
516.5528, 2132.756
517.0349, 2104.433
517.5170, 2084.431
517.9991, 2079.529
518.4813, 2081.831
518.9634, 2082.176
519.4455, 2082.834
519.9276, 2077.266
520.4097, 2061.469
520.8918, 2037.843
521.3740, 2019.920
521.8561, 2007.700
522.3382, 2001.191
522.8203, 2002.545
523.3024, 2011.187
523.7845, 2017.535
524.2667, 2021.062
524.7488, 2022.384
525.2309, 2021.873
525.7130, 2019.781
526.1951, 2016.572
526.6772, 2007.933
527.1594, 2002.496
527.6415, 2015.441
528.1236, 2042.372
528.6057, 2064.291
529.0878, 2063.152
529.5699, 2057.382
530.0521, 2061.031
530.5342, 2077.558
531.0163, 2096.100
531.4984, 2119.687
531.9805, 2140.924
532.4626, 2152.091
532.9448, 2136.802
533.4269, 2129.736
533.9090, 2135.130
534.3911, 2151.590
534.8732, 2173.991
535.3553, 2204.908
535.8375, 2237.635
536.3196, 2270.388
536.8017, 2303.928
537.2838, 2328.708
537.7659, 2342.721
538.2480, 2355.367
538.7302, 2374.198
539.2123, 2399.829
539.6944, 2437.211
540.1765, 2492.202
540.6586, 2550.621
541.1407, 2590.472
541.6229, 2616.819
542.1050, 2648.464
542.5871, 2698.861
543.0692, 2756.923
543.5513, 2810.807
544.0334, 2859.560
544.5156, 2915.430
544.9977, 2993.980
545.4798, 3076.356
545.9619, 3145.745
546.4440, 3177.917
546.9261, 3228.488
547.4083, 3316.753
547.8904, 3426.352
548.3725, 3526.039
548.8546, 3609.722
549.3367, 3694.364
549.8188, 3782.649
550.3010, 3874.902
550.7831, 3976.507
551.2652, 4089.896
551.7473, 4204.977
552.2294, 4312.137
552.7115, 4412.840
553.1937, 4517.734
553.6758, 4628.202
554.1579, 4740.621
554.6400, 4850.728
555.1221, 4959.621
555.6042, 5068.415
556.0864, 5180.481
556.5685, 5291.421
557.0506, 5401.997
557.5327, 5508.829
558.0148, 5597.328
558.4969, 5651.817
558.9791, 5692.435
559.4612, 5729.733
559.9433, 5764.520
560.4254, 5797.167
560.9075, 5842.016
561.3896, 5876.184
561.8718, 5881.018
562.3539, 5849.205
562.8360, 5800.122
563.3181, 5735.600
563.8002, 5655.041
564.2823, 5551.228
564.7645, 5419.903
565.2466, 5288.714
565.7287, 5174.540
566.2108, 5070.629
566.6929, 4943.847
567.1750, 4794.681
567.6572, 4634.577
568.1393, 4469.157
568.6214, 4302.714
569.1035, 4150.547
569.5856, 4015.461
570.0677, 3886.992
570.5499, 3753.028
571.0320, 3619.061
571.5141, 3492.869
571.9962, 3378.274
572.4783, 3270.996
572.9604, 3171.381
573.4426, 3079.258
573.9247, 2991.141
574.4068, 2903.909
574.8889, 2824.064
575.3710, 2755.378
575.8531, 2700.510
576.3353, 2647.247
576.8174, 2596.319
577.2995, 2546.671
577.7816, 2495.906
578.2637, 2443.777
578.7458, 2395.451
579.2280, 2351.148
579.7101, 2311.929
580.1922, 2282.795
580.6743, 2261.875
581.1564, 2238.591
581.6385, 2202.576
582.1207, 2164.297
582.6028, 2138.067
583.0849, 2123.248
583.5670, 2112.965
584.0491, 2102.394
584.5313, 2095.303
585.0134, 2097.113
585.4955, 2114.111
585.9776, 2121.911
586.4597, 2103.199
586.9418, 2076.718
587.4240, 2064.306
587.9061, 2078.853
588.3882, 2087.732
588.8703, 2083.736
589.3524, 2072.861
589.8345, 2074.049
590.3167, 2090.413
590.7988, 2106.995
591.2809, 2117.088
591.7630, 2121.893
592.2451, 2126.107
592.7272, 2129.639
593.2094, 2134.811
593.6915, 2141.518
594.1736, 2151.652
594.6557, 2171.971
595.1378, 2206.641
595.6199, 2236.543
596.1021, 2240.394
596.5842, 2232.124
597.0663, 2231.606
597.5485, 2251.103
598.0306, 2273.458
598.5127, 2297.551
598.9948, 2321.147
599.4769, 2334.889
599.9590, 2325.685
600.4412, 2322.269
600.9233, 2337.148
601.4054, 2372.362
601.8875, 2392.354
602.3696, 2391.052
602.8517, 2389.103
603.3339, 2407.623
603.8160, 2444.607
604.2981, 2471.490
604.7802, 2484.010
605.2623, 2488.911
605.7444, 2491.107
606.2266, 2492.277
606.7087, 2497.126
607.1908, 2514.474
607.6729, 2528.890
608.1550, 2526.735
608.6371, 2511.317
609.1193, 2493.319
609.6014, 2470.448
610.0835, 2451.713
610.5656, 2445.153
611.0477, 2454.039
611.5298, 2451.798
612.0120, 2429.600
612.4941, 2404.155
612.9762, 2388.009
613.4583, 2386.451
613.9404, 2374.054
614.4225, 2346.494
614.9047, 2313.812
615.3868, 2290.693
615.8689, 2276.223
616.3510, 2260.953
616.8331, 2242.136
617.3152, 2221.133
617.7974, 2201.928
618.2795, 2182.889
618.7616, 2156.815
619.2437, 2113.733
619.7258, 2066.780
620.2079, 2024.378
620.6901, 1987.251
621.1722, 1953.508
621.6543, 1926.876
622.1364, 1900.223
622.6185, 1869.139
623.1006, 1831.691
623.5828, 1792.698
624.0649, 1749.213
624.5470, 1706.890
625.0291, 1672.991
625.5112, 1648.711
625.9933, 1627.112
626.4755, 1608.888
626.9576, 1590.428
627.4397, 1562.776
627.9218, 1527.061
628.4039, 1491.887
628.8860, 1460.433
629.3682, 1432.402
629.8503, 1408.009
630.3324, 1387.044
630.8145, 1368.769
631.2966, 1355.740
631.7787, 1343.396
632.2609, 1327.805
632.7430, 1306.875
633.2251, 1288.983
633.7072, 1278.054
634.1893, 1269.624
634.6714, 1259.904
635.1536, 1247.860
635.6357, 1236.612
636.1178, 1226.030
636.5999, 1216.844
637.0820, 1211.202
637.5641, 1209.297
638.0463, 1207.026
638.5284, 1203.920
639.0105, 1198.859
639.4926, 1186.044
639.9747, 1167.434
640.4568, 1154.654
640.9390, 1161.847
641.4211, 1173.330
641.9032, 1172.699
642.3853, 1158.835
642.8674, 1147.718
643.3495, 1146.739
643.8317, 1150.084
644.3138, 1154.149
644.7959, 1161.205
645.2780, 1163.462
645.7601, 1158.129
646.2422, 1150.456
646.7244, 1146.505
647.2065, 1146.804
647.6886, 1148.305
648.1707, 1150.561
648.6528, 1153.631
649.1349, 1158.777
649.6171, 1165.454
650.0992, 1170.009
650.5813, 1171.427
651.0634, 1169.365
651.5455, 1160.402
652.0276, 1146.221
652.5098, 1136.314
652.9919, 1138.550
653.4740, 1144.434
653.9561, 1149.194
654.4382, 1152.331
654.9203, 1154.412
655.4025, 1153.320
655.8846, 1152.980
656.3667, 1157.061
656.8488, 1169.596
657.3309, 1173.830
657.8130, 1167.545
658.2952, 1155.921
658.7773, 1143.482
659.2594, 1130.742
659.7415, 1126.310
660.2236, 1136.332
660.7057, 1149.140
661.1879, 1146.030
661.6700, 1131.735
662.1521, 1119.456
662.6342, 1116.317
663.1163, 1116.617
663.5984, 1116.861
664.0806, 1117.231
664.5627, 1120.020
665.0448, 1130.893
665.5269, 1139.542
666.0090, 1141.268
666.4911, 1135.188
666.9733, 1128.140
667.4554, 1118.754
667.9375, 1111.119
668.4196, 1108.060
668.9017, 1109.610
669.3839, 1118.285
669.8660, 1136.056
670.3481, 1152.514
670.8302, 1151.519
671.3123, 1140.342
671.7944, 1135.305
672.2766, 1146.077
672.7587, 1156.810
673.2408, 1154.911
673.7229, 1145.828
674.2050, 1140.207
674.6871, 1146.058
675.1693, 1150.209
675.6514, 1147.826
676.1335, 1140.409
676.6156, 1136.155
677.0977, 1136.987
677.5798, 1136.552
678.0620, 1130.901
678.5441, 1120.908
679.0262, 1116.609
679.5083, 1118.326
679.9904, 1119.883
680.4725, 1116.325
680.9547, 1109.263
681.4368, 1100.242
681.9189, 1089.020
682.4010, 1080.636
682.8831, 1084.165
683.3652, 1089.567
683.8474, 1086.135
684.3295, 1061.782
684.8116, 1043.944
685.2937, 1040.761
685.7758, 1044.327
686.2579, 1044.759
686.7401, 1040.830
687.2222, 1037.495
687.7043, 1036.838
688.1864, 1036.155
688.6685, 1026.640
689.1506, 1009.007
689.6328, 994.8463
690.1149, 990.7396
690.5970, 992.0922
691.0791, 993.6764
691.5612, 995.0619
692.0433, 994.0872
692.5255, 988.5421
693.0076, 981.1011
693.4897, 972.5491
693.9718, 962.7027
694.4539, 955.3622
694.9360, 951.7538
695.4182, 950.1252
695.9003, 950.1641
696.3824, 952.9344
696.8645, 952.4877
697.3466, 948.0558
697.8287, 942.4225
698.3109, 938.1782
698.7930, 935.2629
699.2751, 934.0261
699.7572, 935.3668
700.2393, 935.3500
700.7214, 926.7518
701.2036, 914.6225
701.6857, 907.4254
702.1678, 911.4254
702.6499, 917.0696
703.1320, 923.0789
703.6141, 928.0741
704.0963, 928.3541
704.5784, 920.0886
705.0605, 912.9243
705.5426, 908.9404
706.0247, 907.6131
706.5068, 907.0029
706.9890, 907.2339
707.4711, 907.1248
707.9532, 906.4167
708.4353, 904.8423
708.9174, 900.6149
709.3995, 894.1224
709.8817, 889.3786
710.3638, 890.6019
710.8459, 893.8889
711.3280, 896.1012
711.8101, 896.9064
712.2922, 896.6620
712.7744, 893.0834
713.2565, 890.2889
713.7386, 891.5786
714.2207, 900.8842
714.7028, 903.3699
715.1849, 896.4290
715.6671, 887.2323
716.1492, 885.1488
716.6313, 889.2962
717.1134, 888.0139
717.5955, 878.0858
718.0776, 866.2523
718.5598, 858.5660
719.0419, 855.3649
719.5240, 857.5399
720.0061, 871.5576
720.4882, 883.5093
720.9703, 887.1201
721.4525, 884.0696
721.9346, 878.1232
722.4167, 863.6141
722.8988, 854.4400
723.3809, 855.2164
723.8630, 863.0491
724.3452, 866.2983
724.8273, 864.5280
725.3094, 861.2390
725.7915, 857.1014
726.2736, 852.9695
726.7557, 851.8597
727.2379, 853.3366
727.7200, 853.9744
728.2021, 849.7166
728.6842, 844.9902
729.1663, 844.2615
729.6484, 848.0518
730.1306, 849.9541
730.6127, 848.1960
731.0948, 843.8831
731.5769, 837.0778
732.0590, 826.2898
732.5411, 819.2312
733.0233, 816.6804
733.5054, 816.1132
733.9875, 815.1746
734.4696, 814.0662
734.9517, 814.3149
735.4338, 816.1224
735.9160, 819.0692
736.3981, 824.7318
736.8802, 830.6290
737.3623, 832.6749
737.8444, 827.1946
738.3266, 822.7749
738.8087, 824.7418
739.2908, 829.0102
739.7729, 829.5970
740.2551, 825.2025
740.7372, 818.9258
741.2193, 809.8171
741.7014, 800.0983
742.1835, 794.6648
742.6656, 793.5821
743.1478, 793.8541
743.6299, 795.0059
744.1120, 796.3635
744.5941, 795.7393
745.0762, 794.2529
745.5583, 795.3694
746.0405, 805.3233
746.5226, 814.1341
747.0047, 815.4546
747.4868, 810.3463
747.9689, 805.3648
748.4510, 800.0209
748.9332, 796.7573
749.4153, 797.8803
749.8974, 802.5623
750.3795, 799.3276
750.8616, 786.8690
751.3438, 776.7094
751.8259, 780.0846
752.3080, 790.3184
752.7901, 789.3271
753.2722, 777.3997
753.7543, 767.9792
754.2365, 774.1599
754.7186, 783.7007
755.2007, 786.5656
755.6828, 780.5763
756.1649, 774.2338
756.6470, 767.4059
757.1292, 761.9185
757.6113, 758.5031
758.0934, 756.6404
758.5755, 760.4142
759.0576, 771.5665
759.5397, 782.6442
760.0219, 786.1378
760.5040, 783.2262
760.9861, 775.5035
761.4682, 761.6636
761.9503, 752.1128
762.4324, 761.0730
762.9146, 776.4034
763.3967, 783.6381
763.8788, 774.3743
764.3609, 764.8269
764.8430, 755.0327
765.3251, 747.7780
765.8073, 746.9941
766.2894, 754.5346
766.7715, 761.6389
767.2536, 767.8239
767.7357, 771.6563
768.2178, 768.9297
768.7000, 761.2703
769.1821, 755.6597
769.6642, 755.2933
770.1463, 756.1755
770.6284, 755.7758
771.1105, 754.0236
771.5927, 750.7831
772.0748, 744.1370
772.5569, 738.0994
773.0390, 732.2999
773.5211, 727.9894
774.0032, 729.6970
774.4854, 739.7997
774.9675, 746.9515
775.4496, 747.4044
775.9317, 743.0524
776.4138, 737.3055
776.8959, 730.6156
777.3781, 725.1589
777.8602, 720.1487
778.3423, 718.4375
778.8244, 725.9955
779.3065, 739.9017
779.7886, 747.8923
780.2708, 739.5361
780.7529, 731.6649
781.2350, 730.0425
781.7171, 734.0007
782.1992, 737.8027
782.6813, 741.9026
783.1635, 743.9034
783.6456, 741.9918
784.1277, 737.1198
784.6098, 731.3112
785.0919, 724.8582
785.5740, 720.3536
786.0562, 719.6174
786.5383, 721.3875
787.0204, 726.1115
787.5025, 733.7206
787.9846, 737.9574
788.4667, 733.0091
788.9489, 728.5616
789.4310, 729.4395
789.9131, 736.1288
790.3952, 738.3461
790.8773, 735.3068
791.3594, 731.3708
791.8416, 729.1943
792.3237, 728.7133
792.8058, 731.7452
793.2879, 738.2486
793.7700, 740.2205
794.2521, 724.9058
794.7343, 707.5665
795.2164, 702.0109
795.6985, 712.8843
796.1806, 721.5583
796.6627, 726.2065
797.1448, 728.0175
797.6270, 726.6481
798.1091, 721.2440
798.5912, 720.3375
799.0733, 724.7325
799.5554, 729.5485
800.0375, 729.4553
800.5197, 726.5444
801.0018, 725.2440
801.4839, 726.4946
801.9660, 726.3897
802.4481, 716.7181
802.9302, 708.2694
803.4124, 711.6848
803.8945, 740.0103
804.3766, 753.2753
804.8587, 745.1397
805.3408, 730.2894
805.8229, 722.0877
806.3051, 720.4820
806.7872, 716.4449
807.2693, 708.6238
807.7514, 701.8998
808.2335, 702.9860
808.7156, 707.7997
809.1978, 709.9667
809.6799, 707.3920
810.1620, 704.7387
810.6441, 701.0313
811.1262, 699.8782
811.6083, 705.8285
812.0905, 727.4819
812.5726, 735.4667
813.0547, 725.3882
813.5368, 708.8802
814.0189, 697.3710
814.5010, 690.9486
814.9832, 691.7803
815.4653, 701.8091
815.9474, 711.3190
816.4295, 709.2104
816.9116, 702.2491
817.3937, 698.9468
817.8759, 703.1575
818.3580, 707.6592
818.8401, 713.4355
819.3222, 717.2015
819.8043, 715.1988
820.2864, 706.0632
820.7686, 696.4841
821.2507, 685.9343
821.7328, 678.6462
822.2149, 684.4739
822.6970, 697.7196
823.1791, 702.7966
823.6613, 693.4063
824.1434, 684.6714
824.6255, 690.4135
825.1076, 700.5948
825.5897, 703.9668
826.0718, 689.7687
826.5540, 681.5693
827.0361, 682.0930
827.5182, 685.4493
828.0003, 684.1126
828.4824, 678.1679
828.9645, 673.9990
829.4467, 672.5732
829.9288, 673.0624
830.4109, 676.4683
830.8930, 680.5399
831.3751, 681.4149
831.8572, 676.1303
832.3394, 672.0834
832.8215, 672.8263
833.3036, 675.5807
833.7857, 677.6458
834.2678, 680.3386
834.7499, 677.7267
835.2321, 667.8345
835.7142, 656.3533
836.1963, 649.2178
836.6784, 646.3738
837.1605, 649.0320
837.6426, 658.6943
838.1248, 667.8950
838.6069, 671.5208
839.0890, 671.1799
839.5711, 668.4262
840.0532, 662.2136
840.5353, 655.7877
841.0175, 647.1520
841.4996, 640.6353
841.9817, 642.1015
842.4638, 651.9861
842.9459, 658.8038
843.4280, 661.3699
843.9102, 661.3475
844.3923, 658.4066
844.8744, 654.8010
845.3565, 655.3554
845.8386, 663.2772
846.3207, 666.8151
846.8029, 656.1237
847.2850, 642.2182
847.7671, 634.6995
848.2492, 635.4171
848.7313, 638.4184
849.2134, 644.7419
849.6956, 650.6407
850.1777, 652.9686
850.6598, 651.8198
851.1419, 645.9118
851.6240, 634.3796
852.1061, 625.3857
852.5883, 629.2488
853.0704, 635.9317
853.5525, 635.0728
854.0346, 620.4702
854.5167, 613.3828
854.9988, 618.5288
855.4810, 626.6450
855.9631, 632.1205
856.4452, 634.9689
856.9273, 632.6821
857.4094, 624.7111
857.8915, 618.4377
858.3737, 624.7962
858.8558, 634.4948
859.3379, 633.3329
859.8200, 618.6490
860.3021, 609.2552
860.7842, 618.5989
861.2664, 629.8699
861.7485, 632.7109
862.2306, 625.7986
862.7127, 625.2388
863.1948, 632.6847
863.6769, 639.1840
864.1591, 636.4896
864.6412, 628.5771
865.1233, 625.1015
865.6054, 626.0663
866.0875, 627.4842
866.5696, 625.4490
867.0518, 624.3746
867.5339, 629.2416
868.0160, 640.7204
868.4981, 642.8181
868.9802, 630.1279
869.4623, 619.4907
869.9445, 620.2454
870.4266, 629.4860
870.9087, 633.6946
871.3908, 633.3060
871.8729, 632.4296
872.3550, 634.2144
872.8372, 636.0791
873.3193, 636.2078
873.8014, 634.5605
874.2835, 631.2889
874.7656, 623.1345
875.2477, 617.4638
875.7299, 617.3055
876.2120, 620.7894
876.6941, 619.3185
877.1762, 612.9117
877.6583, 609.8629
878.1404, 615.4208
878.6226, 624.5642
879.1047, 632.3740
879.5869, 638.3916
880.0690, 641.6403
880.5511, 639.0085
881.0332, 636.7030
881.5153, 637.8043
881.9974, 640.0043
882.4796, 637.2719
882.9617, 627.7783
883.4438, 624.5593
883.9259, 632.7661
884.4080, 644.3976
884.8901, 647.6011
885.3723, 644.2087
885.8544, 637.8549
886.3365, 624.8062
886.8186, 617.3163
887.3007, 627.1384
887.7828, 643.1767
888.2650, 649.3018
888.7471, 639.9153
889.2292, 635.2689
889.7113, 637.9740
890.1934, 643.6143
890.6755, 647.3948
891.1577, 649.3889
891.6398, 649.7979
892.1219, 648.5219
892.6040, 646.3408
893.0861, 642.0690
893.5682, 638.1802
894.0504, 637.3522
894.5325, 641.9614
895.0146, 644.0854
895.4967, 641.7856
895.9788, 640.5703
896.4609, 647.5071
896.9431, 660.4666
897.4252, 663.8771
897.9073, 656.7947
898.3894, 651.7372
898.8715, 664.8357
899.3536, 679.2910
899.8358, 677.8761
900.3179, 657.2049
900.8000, 645.8884
901.2821, 652.9709
901.7642, 660.4953
902.2463, 659.3205
902.7285, 651.1848
903.2106, 650.2380
903.6927, 656.2083
904.1748, 661.6421
904.6569, 661.9125
905.1390, 659.5097
905.6212, 655.3726
906.1033, 650.4308
906.5854, 648.1270
907.0675, 652.1716
907.5496, 655.7570
908.0317, 657.0354
908.5139, 656.8397
908.9960, 657.9621
909.4781, 660.4058
909.9602, 661.8077
910.4423, 659.9290
910.9244, 658.8776
911.4066, 666.4315
911.8887, 677.8844
912.3708, 684.6572
912.8529, 680.0771
913.3350, 675.1447
913.8171, 670.8397
914.2993, 667.9001
914.7814, 668.1120
915.2635, 671.8534
915.7456, 673.3961
916.2277, 671.5349
916.7098, 669.0565
917.1920, 669.2727
917.6741, 670.9418
918.1562, 672.4003
918.6383, 673.4557
919.1204, 673.6932
919.6025, 670.8055
920.0847, 668.8799
920.5668, 671.2564
921.0489, 678.9343
921.5310, 683.7591
922.0131, 685.5444
922.4952, 685.9603
922.9774, 685.0453
923.4595, 684.2457
923.9416, 686.9175
924.4237, 692.8262
924.9058, 696.1617
925.3879, 693.4235
925.8701, 688.6300
926.3522, 681.7143
926.8343, 673.7035
927.3164, 674.7607
927.7985, 686.1442
928.2806, 694.7327
928.7628, 690.9880
929.2449, 684.2372
929.7270, 691.6319
930.2091, 708.2003
930.6912, 720.6845
931.1733, 719.7195
931.6555, 718.3751
932.1376, 723.1957
932.6197, 728.8564
933.1018, 724.0555
933.5839, 706.2507
934.0660, 698.0796
934.5482, 705.7332
935.0303, 717.4480
935.5124, 716.9196
935.9945, 710.1029
936.4766, 707.6056
936.9587, 713.1841
937.4409, 719.5249
937.9230, 725.5838
938.4051, 730.5458
938.8872, 733.4565
939.3693, 733.7595
939.8514, 735.6534
940.3336, 739.3278
940.8157, 743.1247
941.2978, 746.2440
941.7799, 748.3499
942.2620, 747.9770
942.7441, 745.3320
943.2263, 744.7625
943.7084, 749.6721
944.1905, 755.3308
944.6726, 760.4786
945.1547, 764.8226
945.6368, 765.6699
946.1190, 762.7470
946.6011, 761.1043
947.0832, 763.3604
947.5653, 767.7136
948.0474, 772.7950
948.5295, 778.0306
949.0117, 782.0848
949.4938, 782.4453
949.9759, 784.2756
950.4580, 789.4382
950.9401, 795.8489
951.4222, 800.1786
951.9044, 802.4076
952.3865, 804.9545
952.8686, 808.2390
953.3507, 811.7424
953.8328, 816.0192
954.3149, 819.6603
954.7971, 820.0192
955.2792, 814.6801
955.7613, 813.5941
956.2434, 820.5424
956.7255, 829.2660
957.2076, 836.3817
957.6898, 841.9353
958.1719, 846.9828
958.6540, 851.5479
959.1361, 854.5759
959.6182, 851.9245
960.1003, 850.1238
960.5825, 857.8716
961.0646, 873.0820
961.5467, 882.1852
962.0288, 876.2714
962.5109, 873.9590
962.9930, 880.2715
963.4752, 892.2275
963.9573, 904.3097
964.4394, 915.8373
964.9215, 922.4089
965.4036, 919.1698
965.8857, 917.4693
966.3679, 928.2172
966.8500, 945.2098
967.3321, 960.4882
967.8142, 971.2770
968.2963, 983.2052
968.7784, 996.7190
969.2606, 1010.326
969.7427, 1020.404
970.2248, 1029.112
970.7069, 1045.600
971.1890, 1070.392
971.6711, 1095.403
972.1533, 1110.366
972.6354, 1127.636
973.1175, 1156.389
973.5996, 1196.747
974.0817, 1238.161
974.5638, 1280.886
975.0460, 1323.447
975.5281, 1364.696
976.0102, 1406.480
976.4923, 1453.564
976.9744, 1504.831
977.4565, 1556.989
977.9387, 1605.787
978.4208, 1658.532
978.9029, 1721.881
979.3850, 1788.491
979.8671, 1847.297
980.3492, 1894.883
980.8314, 1957.325
981.3135, 2042.167
981.7956, 2121.615
982.2777, 2174.025
982.7598, 2198.677
983.2419, 2189.504
983.7241, 2142.331
984.2062, 2090.191
984.6883, 2030.181
985.1704, 1980.238
985.6525, 1944.984
986.1346, 1925.606
986.6168, 1936.226
987.0989, 1976.544
987.5810, 2037.067
988.0631, 2108.780
988.5452, 2201.609
989.0273, 2321.169
989.5095, 2468.654
989.9916, 2646.467
990.4737, 2844.061
990.9558, 3092.561
991.4379, 3397.830
991.9200, 3748.430
992.4022, 4132.805
992.8843, 4545.207
993.3664, 4977.161
993.8485, 5423.116
994.3306, 5887.093
994.8127, 6367.496
995.2949, 6870.839
995.7770, 7403.232
996.2591, 7965.652
996.7412, 8530.510
997.2233, 9086.637
997.7054, 9667.675
998.1876, 10316.96
998.6697, 10993.38
999.1518, 11672.67
999.6339, 12320.90
1000.116, 12813.86
1000.598, 13195.75
1001.080, 13298.77
1001.562, 13015.78
1002.044, 12448.16
1002.527, 11705.55
1003.009, 10781.33
1003.491, 9839.101
1003.973, 8904.255
1004.455, 8047.683
1004.937, 7352.073
1005.419, 6796.355
1005.901, 6372.178
1006.384, 6091.446
1006.866, 5894.056
1007.348, 5779.888
1007.830, 5726.815
1008.312, 5722.504
1008.794, 5768.393
1009.276, 5885.891
1009.758, 6069.831
1010.240, 6279.353
1010.723, 6503.793
1011.205, 6733.294
1011.687, 6955.373
1012.169, 7178.648
1012.651, 7427.755
1013.133, 7721.144
1013.615, 7996.079
1014.097, 8247.853
1014.580, 8467.303
1015.062, 8664.066
1015.544, 8810.593
1016.026, 8850.147
1016.508, 8765.981
1016.990, 8606.887
1017.472, 8375.260
1017.954, 8084.867
1018.436, 7731.222
1018.919, 7320.876
1019.401, 6933.766
1019.883, 6569.909
1020.365, 6223.285
1020.847, 5875.937
1021.329, 5556.214
1021.811, 5294.680
1022.293, 5083.898
1022.776, 4900.047
1023.258, 4736.270
1023.740, 4604.131
1024.222, 4507.983
1024.704, 4438.424
1025.186, 4384.977
1025.668, 4347.720
1026.150, 4328.648
1026.632, 4327.866
1027.115, 4344.544
1027.597, 4373.249
1028.079, 4424.069
1028.561, 4512.824
1029.043, 4636.488
1029.525, 4738.798
1030.007, 4814.233
1030.489, 4899.784
1030.972, 5012.543
1031.454, 5144.216
1031.936, 5296.263
1032.418, 5458.756
1032.900, 5608.034
1033.382, 5724.795
1033.864, 5847.197
1034.346, 5980.519
1034.828, 6118.645
1035.311, 6260.889
1035.793, 6403.549
1036.275, 6510.668
1036.757, 6580.173
1037.239, 6634.771
1037.721, 6694.864
1038.203, 6742.553
1038.685, 6766.968
1039.167, 6766.897
1039.650, 6737.922
1040.132, 6677.509
1040.614, 6600.473
1041.096, 6515.340
1041.578, 6412.903
1042.060, 6276.575
1042.542, 6115.034
1043.024, 5941.132
1043.507, 5752.375
1043.989, 5567.337
1044.471, 5389.289
1044.953, 5213.098
1045.435, 5030.914
1045.917, 4844.330
1046.399, 4662.496
1046.881, 4486.500
1047.364, 4319.133
1047.846, 4162.629
1048.328, 4015.086
1048.810, 3873.710
1049.292, 3740.744
1049.774, 3622.482
1050.256, 3521.778
1050.738, 3425.875
1051.220, 3332.572
1051.703, 3242.452
1052.185, 3159.340
1052.667, 3081.631
1053.149, 3006.508
1053.631, 2932.300
1054.113, 2866.267
1054.595, 2813.145
1055.077, 2765.436
1055.559, 2718.696
1056.042, 2674.264
1056.524, 2638.508
1057.006, 2611.308
1057.488, 2591.694
1057.970, 2587.351
1058.452, 2581.947
1058.934, 2558.662
1059.416, 2529.223
1059.899, 2517.382
1060.381, 2531.024
1060.863, 2533.520
1061.345, 2519.510
1061.827, 2504.384
1062.309, 2501.588
1062.791, 2509.014
1063.273, 2526.148
1063.755, 2552.652
1064.238, 2577.251
1064.720, 2598.509
1065.202, 2614.994
1065.684, 2623.397
1066.166, 2628.556
1066.648, 2644.278
1067.130, 2668.976
1067.612, 2697.076
1068.094, 2728.565
1068.577, 2758.838
1069.059, 2786.313
1069.541, 2810.635
1070.023, 2832.679
1070.505, 2853.630
1070.987, 2864.226
1071.469, 2863.414
1071.951, 2863.803
1072.434, 2881.325
1072.916, 2899.661
1073.398, 2898.142
1073.880, 2880.643
1074.362, 2861.746
1074.844, 2839.990
1075.326, 2825.649
1075.808, 2824.634
1076.291, 2822.940
1076.773, 2799.247
1077.255, 2758.926
1077.737, 2715.701
1078.219, 2671.685
1078.701, 2631.500
1079.183, 2600.572
1079.665, 2572.076
1080.147, 2543.656
1080.630, 2514.474
1081.112, 2475.896
1081.594, 2428.440
1082.076, 2389.181
1082.558, 2370.269
1083.040, 2350.940
1083.522, 2307.177
1084.004, 2254.141
1084.486, 2212.763
1084.969, 2188.335
1085.451, 2165.911
1085.933, 2147.072
1086.415, 2125.047
1086.897, 2087.001
1087.379, 2046.226
1087.861, 2030.007
1088.343, 2033.339
1088.826, 2033.043
1089.308, 2017.376
1089.790, 2001.539
1090.272, 1986.704
1090.754, 1974.922
1091.236, 1969.609
1091.718, 1970.230
1092.200, 1975.459
1092.682, 1985.423
1093.165, 1994.813
1093.647, 2001.517
1094.129, 2005.266
1094.611, 2002.900
1095.093, 1996.630
1095.575, 2003.008
1096.057, 2022.371
1096.539, 2046.756
1097.022, 2074.863
1097.504, 2102.467
1097.986, 2124.142
1098.468, 2142.922
1098.950, 2162.920
1099.432, 2186.761
1099.914, 2206.083
1100.396, 2218.734
1100.879, 2232.734
1101.361, 2253.558
1101.843, 2279.713
1102.325, 2309.377
1102.807, 2342.364
1103.289, 2377.384
1103.771, 2411.275
1104.253, 2452.340
1104.735, 2505.789
1105.218, 2562.538
1105.700, 2609.077
1106.182, 2647.413
1106.664, 2681.341
1107.146, 2711.547
1107.628, 2753.397
1108.110, 2831.683
1108.592, 2909.459
1109.074, 2961.324
1109.557, 2995.490
1110.039, 3045.702
1110.521, 3112.667
1111.003, 3170.374
1111.485, 3209.238
1111.967, 3240.819
1112.449, 3272.487
1112.931, 3303.988
1113.414, 3335.177
1113.896, 3365.562
1114.378, 3399.614
1114.860, 3440.294
1115.342, 3471.487
1115.824, 3479.562
1116.306, 3476.515
1116.788, 3482.962
1117.271, 3493.115
1117.753, 3494.082
1118.235, 3489.883
1118.717, 3459.828
1119.199, 3392.079
1119.681, 3319.212
1120.163, 3277.154
1120.645, 3255.357
1121.127, 3224.300
1121.609, 3182.641
1122.092, 3135.666
1122.574, 3087.328
1123.056, 3032.100
1123.538, 2962.191
1124.020, 2889.504
1124.502, 2841.841
1124.984, 2815.679
1125.466, 2780.116
1125.949, 2729.533
1126.431, 2675.986
1126.913, 2624.339
1127.395, 2576.186
1127.877, 2533.050
1128.359, 2494.470
1128.841, 2457.691
1129.323, 2422.377
1129.806, 2393.427
1130.288, 2374.532
1130.770, 2358.628
1131.252, 2342.606
1131.734, 2323.324
1132.216, 2294.618
1132.698, 2248.848
1133.180, 2219.849
1133.662, 2209.549
1134.145, 2208.794
1134.627, 2218.470
1135.109, 2229.571
1135.591, 2227.480
1136.073, 2215.218
1136.555, 2200.504
1137.037, 2176.180
1137.519, 2163.965
1138.001, 2166.182
1138.484, 2178.379
1138.966, 2203.003
1139.448, 2232.198
1139.930, 2242.814
1140.412, 2236.051
1140.894, 2232.931
1141.376, 2246.881
1141.858, 2259.555
1142.341, 2265.137
1142.823, 2267.925
1143.305, 2277.668
1143.787, 2292.035
1144.269, 2299.930
1144.751, 2298.980
1145.233, 2297.427
1145.715, 2301.744
1146.198, 2304.739
1146.680, 2300.649
1147.162, 2292.221
1147.644, 2295.884
1148.126, 2310.194
1148.608, 2314.753
1149.090, 2299.930
1149.572, 2282.309
1150.054, 2273.391
1150.536, 2268.408
1151.019, 2263.615
1151.501, 2259.221
1151.983, 2248.505
1152.465, 2231.111
1152.947, 2215.283
1153.429, 2208.693
1153.911, 2202.035
1154.393, 2181.833
1154.876, 2156.972
1155.358, 2143.181
1155.840, 2141.323
1156.322, 2152.325
1156.804, 2179.289
1157.286, 2202.175
1157.768, 2195.193
1158.250, 2181.606
1158.733, 2193.261
1159.215, 2224.477
1159.697, 2250.799
1160.179, 2263.142
1160.661, 2282.043
1161.143, 2310.261
1161.625, 2344.648
1162.107, 2381.181
1162.589, 2422.167
1163.072, 2470.444
1163.554, 2526.469
1164.036, 2590.799
1164.518, 2662.615
1165.000, 2743.515
1165.482, 2834.991
1165.964, 2934.454
1166.446, 3037.190
1166.928, 3142.749
1167.411, 3250.777
1167.893, 3361.055
1168.375, 3477.382
1168.857, 3603.797
1169.339, 3735.651
1169.821, 3872.065
1170.303, 4010.645
1170.785, 4144.835
1171.268, 4276.356
1171.750, 4417.578
1172.232, 4579.715
1172.714, 4728.964
1173.196, 4845.622
1173.678, 4949.156
1174.160, 5051.688
1174.642, 5150.104
1175.125, 5212.454
1175.607, 5242.535
1176.089, 5258.433
1176.571, 5277.752
1177.053, 5273.233
1177.535, 5230.611
1178.017, 5158.563
1178.499, 5061.467
1178.981, 4938.750
1179.464, 4807.502
1179.946, 4667.183
1180.428, 4520.855
1180.910, 4372.892
1181.392, 4216.875
1181.874, 4036.917
1182.356, 3849.590
1182.838, 3681.358
1183.320, 3531.672
1183.803, 3376.043
1184.285, 3211.573
1184.767, 3054.296
1185.249, 2910.846
1185.731, 2781.449
1186.213, 2672.285
1186.695, 2578.301
1187.177, 2485.443
1187.660, 2393.077
1188.142, 2313.034
1188.624, 2249.032
1189.106, 2188.514
1189.588, 2118.308
1190.070, 2049.281
1190.552, 1989.067
1191.034, 1938.054
1191.516, 1893.210
1191.999, 1853.815
1192.481, 1828.384
1192.963, 1823.032
1193.445, 1815.376
1193.927, 1773.713
1194.409, 1724.774
1194.891, 1697.627
1195.373, 1694.500
1195.855, 1687.961
1196.338, 1678.172
1196.820, 1662.304
1197.302, 1635.109
1197.784, 1610.390
1198.266, 1607.692
1198.748, 1614.218
1199.230, 1615.237
1199.712, 1610.290
1200.195, 1589.275
1200.677, 1548.348
1201.159, 1518.802
1201.641, 1524.854
1202.123, 1541.596
1202.605, 1542.226
1203.087, 1533.374
1203.569, 1525.632
1204.052, 1519.666
1204.534, 1516.871
1205.016, 1517.686
1205.498, 1518.920
1205.980, 1514.006
1206.462, 1511.860
1206.944, 1525.422
1207.426, 1549.317
1207.908, 1571.139
1208.391, 1590.072
1208.873, 1604.631
1209.355, 1613.260
1209.837, 1626.354
1210.319, 1660.071
1210.801, 1697.253
1211.283, 1711.532
1211.765, 1711.570
1212.247, 1731.093
1212.730, 1781.686
1213.212, 1819.661
1213.694, 1838.355
1214.176, 1854.030
1214.658, 1885.329
1215.140, 1920.982
1215.622, 1950.012
1216.104, 1971.716
1216.587, 1986.406
1217.069, 1995.243
1217.551, 1994.761
1218.033, 1983.898
1218.515, 1965.763
1218.997, 1941.981
1219.479, 1914.082
1219.961, 1884.743
1220.443, 1853.617
1220.926, 1813.949
1221.408, 1764.428
1221.890, 1714.045
1222.372, 1665.590
1222.854, 1614.600
1223.336, 1550.507
1223.818, 1484.203
1224.300, 1429.214
1224.782, 1387.539
1225.265, 1343.116
1225.747, 1293.936
1226.229, 1250.936
1226.711, 1219.083
1227.193, 1190.286
1227.675, 1153.825
1228.157, 1115.227
1228.639, 1081.359
1229.122, 1052.969
1229.604, 1027.131
1230.086, 1003.686
1230.568, 983.1282
1231.050, 966.0831
1231.532, 951.0923
1232.014, 937.5701
1232.496, 924.5646
1232.979, 910.0177
1233.461, 893.3179
1233.943, 879.9922
1234.425, 870.4490
1234.907, 861.4319
1235.389, 852.5460
1235.871, 841.6625
1236.353, 822.4519
1236.835, 801.9026
1237.318, 789.9637
1237.800, 787.5889
1238.282, 787.4805
1238.764, 789.8970
1239.246, 789.1450
1239.728, 779.2552
1240.210, 768.5229
1240.692, 765.7706
1241.175, 765.4937
1241.657, 759.7661
1242.139, 747.0315
1242.621, 737.8377
1243.103, 732.1052
1243.585, 729.0676
1244.067, 731.3641
1244.549, 732.6669
1245.031, 727.4651
1245.514, 719.2227
1245.996, 712.6375
1246.478, 707.6285
1246.960, 705.4836
1247.442, 706.0146
1247.924, 704.9975
1248.406, 698.2242
1248.888, 690.8231
1249.370, 683.8520
1249.853, 679.0844
1250.335, 680.2458
1250.817, 686.9886
1251.299, 688.4266
1251.781, 684.2735
1252.263, 677.7922
1252.745, 669.0427
1253.227, 660.6471
1253.710, 651.9700
1254.192, 645.7335
1254.674, 647.4572
1255.156, 655.5997
1255.638, 658.7696
1256.120, 656.6059
1256.602, 653.5472
1257.084, 651.1195
1257.567, 649.3455
1258.049, 648.0114
1258.531, 647.4807
1259.013, 649.9840
1259.495, 653.6931
1259.977, 650.6510
1260.459, 640.9300
1260.941, 632.2050
1261.423, 627.7765
1261.906, 625.4003
1262.388, 625.0311
1262.870, 625.5582
1263.352, 624.1905
1263.834, 622.8336
1264.316, 627.6296
1264.798, 638.3262
1265.280, 645.4356
1265.762, 645.6956
1266.245, 642.0411
1266.727, 633.5507
1267.209, 624.5743
1267.691, 621.6019
1268.173, 621.9574
1268.655, 620.7738
1269.137, 617.8359
1269.619, 618.0164
1270.102, 623.4979
1270.584, 627.5118
1271.066, 628.9882
1271.548, 627.3757
1272.030, 619.3899
1272.512, 609.6758
1272.994, 603.3662
1273.476, 601.0941
1273.958, 601.7605
1274.441, 606.5558
1274.923, 607.6004
1275.405, 602.5488
1275.887, 596.1251
1276.369, 592.4807
1276.851, 590.4359
1277.333, 589.7122
1277.815, 589.7860
1278.297, 586.8711
1278.780, 580.6111
1279.262, 580.3887
1279.744, 589.3066
1280.226, 598.5630
1280.708, 602.2914
1281.190, 602.4432
1281.672, 599.1971
1282.154, 593.9274
1282.637, 590.2900
1283.119, 588.5302
1283.601, 592.3928
1284.083, 603.8748
1284.565, 612.1205
1285.047, 608.7648
1285.529, 601.9441
1286.011, 593.9537
1286.494, 587.0726
1286.976, 591.7585
1287.458, 603.2589
1287.940, 603.5928
1288.422, 587.3319
1288.904, 574.9227
1289.386, 575.6987
1289.868, 579.9603
1290.350, 586.3316
1290.833, 592.0792
1291.315, 591.4328
1291.797, 586.0998
1292.279, 577.8442
1292.761, 565.9139
1293.243, 562.0530
1293.725, 571.6691
1294.207, 576.8144
1294.689, 569.9336
1295.172, 559.8981
1295.654, 557.1749
1296.136, 560.6446
1296.618, 571.0141
1297.100, 589.3306
1297.582, 599.8571
1298.064, 601.9374
1298.546, 600.9069
1299.029, 598.1674
1299.511, 593.7048
1299.993, 584.3951
1300.475, 575.7103
1300.957, 574.6340
1301.439, 579.7785
1301.921, 582.2037
1302.403, 581.9346
1302.885, 579.1102
1303.368, 572.7432
##END=



