##NAMES=Bottinoite
##RRUFFID=R060263
##IDEAL CHEMISTRY=Ni^2+^Sb^5+^_2_(OH)_12_&#183;6H_2_O
##LOCALITY=Ramsbeck mine, Dornberg, Sauerland, Germany
##OWNER=RRUFF
##SOURCE=Michael Scott
##DESCRIPTION=Spherical aggregate of pale greenish-blue tabular crystals
##STATUS=The identification of this mineral is confirmed by single-crystal X-ray diffraction and chemical analysis.
##URL=rruff.info/R060263
##MEASURED CHEMISTRY=Ni^2+^_1.00_(Sb^5+^_1.99_As_0.01_)_Σ=2_(OH)_12_·1.2H_2_O ; = gray phase. (dehydrated bottinoite due to the electronic beam)
91.53320, 234.4082
92.01532, 231.3522
92.49744, 229.6359
92.97955, 233.4277
93.46167, 238.7431
93.94379, 241.3432
94.42590, 242.4620
94.90802, 242.7121
95.39014, 242.1475
95.87225, 240.7198
96.35437, 238.8993
96.83649, 236.7342
97.31860, 234.6077
97.80072, 232.8581
98.28284, 231.2682
98.76495, 229.7400
99.24707, 229.1609
99.72919, 230.4966
100.2113, 231.8257
100.6934, 233.2491
101.1755, 234.3155
101.6577, 234.2520
102.1398, 232.2934
102.6219, 228.1376
103.1040, 223.6667
103.5861, 218.5320
104.0682, 213.3898
104.5504, 208.2751
105.0325, 203.3176
105.5146, 198.9566
105.9967, 195.8870
106.4788, 194.4973
106.9609, 193.4839
107.4431, 192.8481
107.9252, 192.5094
108.4073, 192.3034
108.8894, 192.1020
109.3715, 192.1956
109.8536, 193.0517
110.3358, 194.6318
110.8179, 196.7212
111.3000, 199.4736
111.7821, 202.8092
112.2642, 205.9499
112.7463, 208.6175
113.2285, 210.9104
113.7106, 213.1467
114.1927, 215.5906
114.6748, 217.3534
115.1569, 216.8140
115.6390, 212.8406
116.1212, 209.4281
116.6033, 208.2417
117.0854, 207.9249
117.5675, 207.0817
118.0496, 204.9332
118.5317, 201.8644
119.0139, 199.7569
119.4960, 199.6109
119.9781, 199.4680
120.4602, 198.9202
120.9423, 198.1180
121.4244, 197.4212
121.9066, 197.1511
122.3887, 197.3781
122.8708, 196.9627
123.3529, 195.3190
123.8350, 193.7061
124.3171, 193.0420
124.7993, 193.1996
125.2814, 193.0825
125.7635, 191.5181
126.2456, 188.1154
126.7277, 184.8281
127.2098, 181.9422
127.6920, 179.0695
128.1741, 175.7759
128.6562, 171.9771
129.1383, 167.8337
129.6204, 163.3677
130.1025, 158.6071
130.5847, 154.0144
131.0668, 149.7504
131.5489, 145.7938
132.0310, 142.0472
132.5131, 138.2848
132.9952, 134.9870
133.4774, 132.4417
133.9595, 130.6541
134.4416, 129.4068
134.9237, 128.7698
135.4058, 128.9026
135.8879, 128.5140
136.3701, 126.6721
136.8522, 124.6726
137.3343, 123.1671
137.8164, 122.3253
138.2985, 122.0440
138.7806, 122.1923
139.2628, 123.0519
139.7449, 123.8596
140.2270, 124.6632
140.7091, 125.3387
141.1912, 125.6912
141.6733, 125.6330
142.1555, 125.3482
142.6376, 125.4731
143.1197, 126.7528
143.6018, 127.6293
144.0839, 127.9230
144.5660, 127.7053
145.0482, 127.0784
145.5303, 126.0758
146.0124, 124.7312
146.4945, 123.2772
146.9766, 121.0341
147.4587, 119.3516
147.9409, 119.5083
148.4230, 121.0364
148.9051, 121.7649
149.3872, 119.9051
149.8693, 115.8208
150.3514, 112.5370
150.8336, 110.5066
151.3157, 109.0442
151.7978, 107.5307
152.2799, 105.9132
152.7620, 104.4789
153.2441, 103.9713
153.7263, 103.7881
154.2084, 102.7773
154.6905, 99.64429
155.1726, 95.56090
155.6547, 93.24883
156.1368, 93.51112
156.6190, 94.20848
157.1011, 94.25846
157.5832, 93.83316
158.0653, 93.24487
158.5474, 92.61624
159.0295, 91.96073
159.5117, 91.46726
159.9938, 91.30788
160.4759, 91.14957
160.9580, 90.89981
161.4401, 90.55448
161.9222, 90.13992
162.4044, 89.70354
162.8865, 89.27903
163.3686, 88.59595
163.8507, 87.05311
164.3328, 85.77148
164.8149, 85.32164
165.2971, 85.68217
165.7792, 86.46357
166.2613, 87.27576
166.7434, 88.30576
167.2255, 88.71334
167.7076, 88.23663
168.1898, 87.42240
168.6719, 86.53920
169.1540, 85.67295
169.6361, 84.91580
170.1182, 84.38110
170.6003, 84.04768
171.0825, 84.08466
171.5646, 84.90418
172.0467, 85.94511
172.5288, 86.55473
173.0109, 86.53178
173.4930, 86.15421
173.9752, 85.79214
174.4573, 85.42005
174.9394, 85.15803
175.4215, 85.11398
175.9036, 85.20350
176.3857, 85.20214
176.8679, 84.95724
177.3500, 84.74891
177.8321, 85.06264
178.3142, 85.97002
178.7963, 86.64562
179.2784, 86.22460
179.7606, 84.90235
180.2427, 84.39042
180.7248, 85.99137
181.2069, 87.82922
181.6890, 87.99825
182.1711, 86.29808
182.6533, 84.49605
183.1354, 84.52331
183.6175, 86.66462
184.0996, 88.37782
184.5817, 88.60579
185.0638, 88.51172
185.5460, 88.75585
186.0281, 89.47778
186.5102, 90.34938
186.9923, 90.75324
187.4744, 90.17000
187.9565, 90.56342
188.4387, 93.12703
188.9208, 96.04717
189.4029, 97.98959
189.8850, 98.56560
190.3671, 98.35654
190.8492, 98.42646
191.3314, 98.69547
191.8135, 99.45955
192.2956, 101.1018
192.7777, 102.9941
193.2598, 104.6111
193.7419, 105.7399
194.2241, 106.5016
194.7062, 107.1859
195.1883, 107.5240
195.6704, 108.1133
196.1525, 109.1418
196.6346, 110.3695
197.1168, 111.5694
197.5989, 112.6512
198.0810, 113.5718
198.5631, 114.1788
199.0452, 114.1999
199.5273, 114.2915
200.0095, 114.5582
200.4916, 114.9602
200.9737, 115.4351
201.4558, 115.9584
201.9379, 116.5392
202.4200, 117.2526
202.9022, 118.3031
203.3843, 119.1224
203.8664, 119.3113
204.3485, 119.0857
204.8306, 119.0495
205.3127, 119.4981
205.7949, 120.2582
206.2770, 120.9048
206.7591, 121.3752
207.2412, 121.8814
207.7233, 122.6946
208.2054, 123.7311
208.6876, 124.4038
209.1697, 124.1987
209.6518, 123.7109
210.1339, 123.8149
210.6160, 124.6420
211.0981, 125.7729
211.5803, 127.0200
212.0624, 128.3828
212.5445, 129.4835
213.0266, 130.0260
213.5087, 130.3148
213.9908, 130.5185
214.4730, 130.5988
214.9551, 130.9265
215.4372, 132.1803
215.9193, 134.6161
216.4014, 136.4124
216.8836, 136.4338
217.3657, 135.9533
217.8478, 135.7247
218.3299, 135.9276
218.8120, 136.4009
219.2941, 136.9305
219.7763, 137.4894
220.2584, 138.1990
220.7405, 139.1966
221.2226, 140.2729
221.7047, 141.3703
222.1868, 142.4576
222.6690, 143.3817
223.1511, 143.8148
223.6332, 143.3887
224.1153, 143.3243
224.5974, 143.8327
225.0795, 144.6168
225.5617, 145.5444
226.0438, 146.5547
226.5259, 147.5576
227.0080, 148.3610
227.4901, 148.6720
227.9722, 149.3376
228.4544, 150.5626
228.9365, 151.9872
229.4186, 153.1919
229.9007, 154.1046
230.3828, 155.1431
230.8649, 157.1138
231.3471, 161.4843
231.8292, 164.3728
232.3113, 165.1425
232.7934, 164.9490
233.2755, 164.5105
233.7576, 164.0913
234.2398, 163.8492
234.7219, 164.0847
235.2040, 165.4027
235.6861, 166.0891
236.1682, 165.9921
236.6503, 165.3681
237.1325, 164.3685
237.6146, 163.0515
238.0967, 161.5199
238.5788, 159.9381
239.0609, 158.4227
239.5430, 156.5344
240.0252, 153.9121
240.5073, 151.0878
240.9894, 148.6301
241.4715, 146.6621
241.9536, 144.9021
242.4357, 142.9172
242.9179, 140.5860
243.4000, 138.6333
243.8821, 137.4161
244.3642, 136.4845
244.8463, 135.3469
245.3284, 133.8951
245.8106, 132.3361
246.2927, 130.7407
246.7748, 129.0675
247.2569, 128.1687
247.7390, 129.0186
248.2211, 130.3438
248.7033, 130.4375
249.1854, 128.9292
249.6675, 127.1177
250.1496, 126.3678
250.6317, 126.5150
251.1138, 126.5738
251.5960, 126.2365
252.0781, 125.7472
252.5602, 125.4725
253.0423, 125.4937
253.5244, 125.4653
254.0065, 125.3425
254.4887, 124.9836
254.9708, 123.7909
255.4529, 120.5536
255.9350, 116.8244
256.4171, 115.0320
256.8992, 115.5973
257.3813, 116.4840
257.8635, 116.3344
258.3456, 115.5071
258.8277, 114.4759
259.3098, 113.0742
259.7919, 111.7219
260.2740, 111.1881
260.7562, 111.6848
261.2383, 112.0810
261.7204, 111.4764
262.2025, 110.4429
262.6846, 109.6680
263.1667, 109.4279
263.6489, 109.4309
264.1310, 109.2229
264.6131, 108.7213
265.0952, 108.3686
265.5773, 108.4270
266.0594, 108.7150
266.5416, 109.0751
267.0237, 109.4447
267.5058, 109.9332
267.9879, 110.7630
268.4700, 112.0253
268.9521, 113.2010
269.4343, 113.7381
269.9164, 114.3208
270.3985, 115.6074
270.8806, 117.8044
271.3627, 120.2321
271.8448, 121.9249
272.3270, 122.6764
272.8091, 123.8096
273.2912, 125.6785
273.7733, 128.0267
274.2554, 130.8657
274.7375, 134.1908
275.2197, 137.6647
275.7018, 140.8587
276.1839, 143.6564
276.6660, 146.8463
277.1481, 150.6233
277.6302, 154.7844
278.1124, 159.4612
278.5945, 164.5635
279.0766, 169.5239
279.5587, 173.6455
280.0408, 176.8103
280.5229, 180.3040
281.0051, 184.3799
281.4872, 188.6362
281.9693, 193.0296
282.4514, 197.4781
282.9335, 201.8191
283.4156, 205.7084
283.8978, 209.1193
284.3799, 213.3555
284.8620, 218.9780
285.3441, 224.9476
285.8262, 231.1123
286.3083, 237.3423
286.7905, 243.4307
287.2726, 249.1295
287.7547, 254.5186
288.2368, 260.3171
288.7189, 267.3730
289.2010, 273.8041
289.6832, 278.5005
290.1653, 282.3563
290.6474, 286.7736
291.1295, 292.5734
291.6116, 299.4323
292.0938, 306.0199
292.5759, 312.1572
293.0580, 318.2220
293.5401, 324.3441
294.0222, 330.4294
294.5043, 336.3106
294.9865, 341.9142
295.4686, 347.3419
295.9507, 352.7901
296.4328, 357.9992
296.9149, 363.7351
297.3970, 370.9332
297.8792, 378.1422
298.3613, 383.8746
298.8434, 387.7563
299.3255, 390.8065
299.8076, 394.8610
300.2897, 400.9181
300.7719, 405.6664
301.2540, 408.8525
301.7361, 411.0010
302.2182, 412.2637
302.7003, 412.7533
303.1824, 412.7744
303.6646, 412.7640
304.1467, 412.9482
304.6288, 412.2270
305.1109, 409.7356
305.5930, 407.1447
306.0751, 405.3085
306.5573, 404.1398
307.0394, 402.9775
307.5215, 401.1331
308.0036, 398.5015
308.4857, 396.5948
308.9678, 395.9145
309.4500, 395.4993
309.9321, 395.2191
310.4142, 394.9946
310.8963, 394.7143
311.3784, 394.2704
311.8605, 393.7188
312.3427, 393.5029
312.8248, 393.7673
313.3069, 394.2448
313.7890, 394.7139
314.2711, 395.4109
314.7532, 396.7578
315.2354, 398.9845
315.7175, 401.7327
316.1996, 403.9052
316.6817, 404.9389
317.1638, 406.3004
317.6459, 408.3441
318.1281, 410.6459
318.6102, 412.6754
319.0923, 414.3058
319.5744, 416.0432
320.0565, 418.8236
320.5386, 423.2422
321.0208, 427.3365
321.5029, 430.5936
321.9850, 433.8675
322.4671, 437.7711
322.9492, 442.3372
323.4313, 447.0904
323.9135, 451.5066
324.3956, 455.4273
324.8777, 459.8014
325.3598, 464.6558
325.8419, 469.9469
326.3240, 475.6353
326.8062, 481.7798
327.2883, 488.6129
327.7704, 496.5065
328.2525, 505.3581
328.7346, 513.5769
329.2167, 520.7451
329.6989, 527.7480
330.1810, 534.5914
330.6631, 541.4703
331.1452, 548.8137
331.6273, 557.0010
332.1094, 565.3406
332.5916, 571.5421
333.0737, 574.2864
333.5558, 577.0375
334.0379, 581.2545
334.5200, 585.3431
335.0021, 587.7764
335.4843, 588.0771
335.9664, 586.8415
336.4485, 584.9727
336.9306, 582.4849
337.4127, 579.2623
337.8948, 575.1514
338.3770, 570.4404
338.8591, 565.4903
339.3412, 560.1924
339.8233, 553.9632
340.3055, 545.9126
340.7876, 535.8832
341.2697, 525.9070
341.7518, 515.3892
342.2339, 505.6329
342.7160, 497.7826
343.1982, 491.1187
343.6803, 483.8462
344.1624, 474.4829
344.6445, 463.5797
345.1266, 453.9302
345.6087, 446.0765
346.0909, 438.6928
346.5730, 431.2891
347.0551, 424.0150
347.5372, 417.0737
348.0193, 410.4458
348.5014, 404.2751
348.9836, 398.8885
349.4657, 394.6177
349.9478, 390.0980
350.4299, 384.5958
350.9120, 378.9291
351.3941, 373.7016
351.8763, 369.0327
352.3584, 364.6193
352.8405, 360.0194
353.3226, 355.1874
353.8047, 351.2370
354.2868, 349.1317
354.7690, 347.1171
355.2511, 343.9876
355.7332, 339.9224
356.2153, 335.8691
356.6974, 332.3879
357.1795, 329.4009
357.6617, 326.6409
358.1438, 324.2145
358.6259, 321.8259
359.1080, 319.3415
359.5901, 316.7914
360.0722, 314.2264
360.5544, 311.7973
361.0365, 309.2128
361.5186, 305.9218
362.0007, 301.8559
362.4828, 297.7128
362.9649, 293.5523
363.4471, 289.5852
363.9292, 286.1209
364.4113, 283.3011
364.8934, 280.4590
365.3755, 276.9933
365.8576, 273.0172
366.3398, 269.1560
366.8219, 265.5334
367.3040, 262.0732
367.7861, 258.9077
368.2682, 255.9840
368.7503, 252.4841
369.2325, 247.7446
369.7146, 242.2985
370.1967, 236.9962
370.6788, 231.8817
371.1609, 227.0166
371.6430, 222.6069
372.1252, 218.5085
372.6073, 214.3336
373.0894, 210.1264
373.5715, 205.7643
374.0536, 200.9923
374.5357, 195.9265
375.0179, 191.1812
375.5000, 187.2464
375.9821, 183.7103
376.4642, 179.4659
376.9463, 174.0749
377.4284, 169.1102
377.9106, 165.2420
378.3927, 162.1747
378.8748, 159.4723
379.3569, 157.0417
379.8390, 154.7961
380.3211, 152.6859
380.8033, 150.7841
381.2854, 148.5542
381.7675, 145.5053
382.2496, 142.4532
382.7317, 140.1790
383.2138, 138.6331
383.6960, 137.0135
384.1781, 134.5899
384.6602, 131.4878
385.1423, 129.4321
385.6244, 129.6492
386.1065, 129.3383
386.5887, 126.8991
387.0708, 123.4398
387.5529, 120.9116
388.0350, 120.1881
388.5171, 120.5814
388.9992, 120.5988
389.4814, 120.3141
389.9635, 119.4504
390.4456, 117.2529
390.9277, 114.9835
391.4098, 113.8772
391.8919, 113.9709
392.3741, 114.1721
392.8562, 113.2636
393.3383, 110.9988
393.8204, 109.5049
394.3025, 109.4377
394.7846, 109.4022
395.2668, 108.8490
395.7489, 107.9871
396.2310, 107.2887
396.7131, 107.0429
397.1952, 107.0997
397.6773, 106.9274
398.1595, 106.3499
398.6416, 105.8243
399.1237, 105.5433
399.6058, 105.2528
400.0879, 104.5588
400.5700, 103.4392
401.0522, 102.4875
401.5343, 102.7257
402.0164, 104.5394
402.4985, 105.1989
402.9806, 103.1129
403.4627, 101.2524
403.9449, 101.1541
404.4270, 102.3460
404.9091, 103.4584
405.3912, 103.6287
405.8733, 103.1140
406.3554, 102.6680
406.8376, 102.2352
407.3197, 102.0070
407.8018, 102.3902
408.2839, 102.8621
408.7660, 102.8324
409.2481, 102.1072
409.7303, 101.1746
410.2124, 100.4707
410.6945, 99.99014
411.1766, 99.62339
411.6587, 99.36772
412.1408, 99.20039
412.6230, 99.17240
413.1051, 99.25062
413.5872, 99.16483
414.0693, 98.62343
414.5514, 97.91433
415.0335, 97.53857
415.5157, 97.55007
415.9978, 97.59937
416.4799, 97.45444
416.9620, 97.17699
417.4441, 96.98756
417.9262, 97.09178
418.4084, 97.02053
418.8905, 96.31396
419.3726, 95.21928
419.8547, 94.39308
420.3368, 94.08013
420.8189, 94.05481
421.3011, 94.03262
421.7832, 94.10360
422.2653, 93.80528
422.7474, 92.61604
423.2295, 91.35605
423.7116, 90.76414
424.1938, 90.85767
424.6759, 91.20485
425.1580, 91.53340
425.6401, 91.82436
426.1222, 91.71594
426.6043, 91.10159
427.0865, 90.28053
427.5686, 88.92329
428.0507, 87.52540
428.5328, 86.85506
429.0149, 87.19184
429.4970, 88.02117
429.9792, 88.44334
430.4613, 88.26643
430.9434, 88.08254
431.4255, 88.14040
431.9076, 87.98225
432.3897, 87.04495
432.8719, 85.59389
433.3540, 84.49065
433.8361, 84.45885
434.3182, 85.35574
434.8003, 86.19563
435.2824, 87.21629
435.7646, 87.76981
436.2467, 87.16853
436.7288, 86.32956
437.2109, 86.44021
437.6930, 87.88612
438.1751, 89.46416
438.6573, 89.47728
439.1394, 87.78713
439.6215, 86.41939
440.1036, 85.47382
440.5857, 85.14322
441.0678, 86.00642
441.5500, 87.65714
442.0321, 88.60208
442.5142, 87.51936
442.9963, 85.48298
443.4784, 84.50346
443.9605, 84.69756
444.4427, 85.04778
444.9248, 85.10273
445.4069, 84.98147
445.8890, 84.88775
446.3711, 84.81404
446.8532, 84.81189
447.3354, 84.86197
447.8175, 85.00975
448.2996, 85.47790
448.7817, 86.38435
449.2638, 87.15874
449.7459, 87.04996
450.2281, 85.98862
450.7102, 85.38462
451.1923, 85.48955
451.6744, 85.88670
452.1565, 86.54864
452.6386, 87.31138
453.1208, 87.70312
453.6029, 87.43831
454.0850, 86.78584
454.5671, 86.49136
455.0492, 86.82985
455.5313, 87.17718
456.0135, 87.53246
456.4956, 87.88966
456.9777, 88.32422
457.4598, 88.79531
457.9419, 89.10503
458.4240, 89.04762
458.9062, 88.61823
459.3883, 88.16973
459.8704, 87.35175
460.3525, 86.93426
460.8346, 87.32731
461.3167, 88.12376
461.7989, 88.85487
462.2810, 89.34729
462.7631, 89.62720
463.2452, 89.59077
463.7273, 89.09490
464.2094, 89.14431
464.6916, 90.23037
465.1737, 91.57465
465.6558, 92.98974
466.1379, 94.31924
466.6200, 95.12552
467.1021, 94.79421
467.5843, 93.95079
468.0664, 93.92608
468.5485, 94.82903
469.0306, 95.75799
469.5127, 96.24600
469.9948, 96.56817
470.4770, 97.17390
470.9591, 98.16285
471.4412, 99.11700
471.9233, 99.72387
472.4054, 100.1818
472.8875, 100.8409
473.3697, 101.7657
473.8518, 102.8937
474.3339, 104.3493
474.8160, 106.0819
475.2981, 106.9185
475.7802, 105.7403
476.2624, 104.8628
476.7445, 105.4872
477.2266, 107.1234
477.7087, 108.9165
478.1908, 110.5475
478.6729, 111.8877
479.1551, 112.6296
479.6372, 112.1663
480.1193, 112.5673
480.6014, 114.2431
481.0835, 116.2915
481.5656, 118.5234
482.0478, 120.7045
482.5299, 122.3328
483.0120, 122.9520
483.4941, 123.0116
483.9762, 124.3017
484.4583, 127.6329
484.9405, 130.5446
485.4226, 132.1507
485.9047, 133.4723
486.3868, 135.3623
486.8689, 137.8948
487.3510, 140.3752
487.8332, 142.0314
488.3153, 143.0788
488.7974, 144.6416
489.2795, 146.8405
489.7616, 149.3529
490.2437, 152.2988
490.7259, 155.3637
491.2080, 158.0588
491.6901, 160.1202
492.1722, 162.1081
492.6543, 164.4863
493.1364, 167.1062
493.6186, 169.5310
494.1007, 171.6639
494.5828, 173.5941
495.0649, 175.2971
495.5470, 176.7242
496.0291, 178.7607
496.5113, 182.3831
496.9934, 185.7523
497.4755, 187.5339
497.9576, 188.2021
498.4397, 189.0095
498.9218, 190.5555
499.4040, 192.5167
499.8861, 194.1815
500.3682, 195.6327
500.8503, 196.5644
501.3324, 196.5941
501.8145, 196.4970
502.2967, 196.8033
502.7788, 197.4298
503.2609, 197.9582
503.7430, 198.0960
504.2251, 197.9162
504.7072, 197.7384
505.1894, 197.7197
505.6715, 197.3298
506.1536, 195.7507
506.6357, 194.2034
507.1178, 193.9705
507.5999, 195.1180
508.0821, 196.0122
508.5642, 195.3821
509.0463, 193.5748
509.5284, 191.3616
510.0105, 188.5732
510.4926, 186.3546
510.9748, 185.6699
511.4569, 186.0313
511.9390, 186.1956
512.4211, 185.8627
512.9032, 185.7684
513.3853, 186.7267
513.8674, 188.0421
514.3495, 188.1992
514.8317, 186.8673
515.3138, 185.6666
515.7959, 186.4408
516.2780, 189.4124
516.7601, 190.9324
517.2422, 190.2751
517.7244, 189.2377
518.2065, 187.9326
518.6886, 186.7887
519.1707, 186.5367
519.6528, 187.3880
520.1349, 188.5685
520.6171, 188.8665
521.0992, 188.0541
521.5813, 187.2900
522.0634, 186.0866
522.5455, 185.4548
523.0276, 186.2868
523.5098, 187.8824
523.9919, 188.8808
524.4740, 188.5678
524.9561, 187.7508
525.4382, 187.7208
525.9203, 188.4986
526.4025, 188.8325
526.8846, 188.3044
527.3667, 187.4037
527.8488, 186.3229
528.3309, 185.1633
528.8130, 184.6836
529.2952, 185.8262
529.7773, 187.1908
530.2594, 187.2697
530.7415, 186.3362
531.2236, 185.8057
531.7057, 186.3772
532.1879, 187.4661
532.6700, 187.9440
533.1521, 187.4916
533.6342, 187.1227
534.1163, 186.7395
534.5984, 186.5434
535.0806, 186.7355
535.5627, 187.2367
536.0448, 187.8178
536.5269, 188.3383
537.0090, 188.8262
537.4911, 189.4126
537.9733, 190.3793
538.4554, 190.8153
538.9375, 189.7059
539.4196, 188.8049
539.9017, 189.3067
540.3839, 191.0906
540.8660, 193.2161
541.3481, 195.3540
541.8302, 197.2784
542.3123, 198.2767
542.7944, 198.2127
543.2766, 198.4168
543.7587, 199.4333
544.2408, 200.9842
544.7229, 202.7362
545.2050, 204.7508
545.6871, 206.4492
546.1693, 207.1116
546.6514, 207.6745
547.1335, 209.2124
547.6156, 211.7110
548.0977, 214.5626
548.5798, 217.4203
549.0620, 220.3298
549.5441, 223.4203
550.0262, 226.8561
550.5083, 230.2563
550.9904, 233.8401
551.4725, 237.2217
551.9547, 239.8249
552.4368, 241.8753
552.9189, 244.2598
553.4010, 247.6237
553.8831, 251.8259
554.3652, 256.4308
554.8474, 261.9214
555.3295, 266.5408
555.8116, 268.6363
556.2937, 270.5334
556.7758, 274.0466
557.2579, 279.1909
557.7401, 284.4797
558.2222, 288.8314
558.7043, 292.8358
559.1864, 297.6883
559.6685, 303.3954
560.1506, 309.1487
560.6328, 314.4718
561.1149, 319.6234
561.5970, 325.3747
562.0791, 331.9943
562.5612, 338.1446
563.0433, 342.7842
563.5255, 347.4264
564.0076, 353.6019
564.4897, 361.1000
564.9718, 368.7027
565.4539, 375.6441
565.9360, 382.0981
566.4182, 388.5246
566.9003, 394.6791
567.3824, 401.3893
567.8645, 408.8361
568.3466, 416.7013
568.8287, 424.8086
569.3109, 433.1744
569.7930, 441.7137
570.2751, 450.4563
570.7572, 459.3497
571.2393, 468.3026
571.7214, 477.3080
572.2036, 486.0699
572.6857, 494.2443
573.1678, 502.2871
573.6499, 510.7559
574.1320, 519.6004
574.6141, 528.7128
575.0963, 538.3566
575.5784, 547.9815
576.0605, 557.1477
576.5426, 565.8648
577.0247, 574.2765
577.5068, 582.3928
577.9890, 590.3668
578.4711, 598.4697
578.9532, 606.6592
579.4353, 615.1083
579.9174, 624.2229
580.3995, 633.1748
580.8817, 641.0565
581.3638, 648.5383
581.8459, 656.9344
582.3280, 666.9257
582.8101, 677.7094
583.2922, 687.8148
583.7744, 697.0795
584.2565, 707.8391
584.7386, 721.2137
585.2207, 735.1677
585.7029, 748.3839
586.1850, 761.0681
586.6671, 773.6998
587.1492, 786.3228
587.6313, 799.1111
588.1135, 812.7747
588.5956, 826.6554
589.0777, 839.0182
589.5598, 849.3784
590.0419, 858.9666
590.5240, 868.7935
591.0062, 878.7618
591.4883, 890.4091
591.9704, 905.7894
592.4525, 920.1740
592.9346, 931.3924
593.4167, 941.5095
593.8989, 953.0568
594.3810, 966.5065
594.8631, 980.5774
595.3452, 994.2024
595.8273, 1007.322
596.3094, 1019.243
596.7916, 1029.206
597.2737, 1039.817
597.7558, 1053.012
598.2379, 1067.101
598.7200, 1080.238
599.2021, 1092.118
599.6843, 1104.129
600.1664, 1116.984
600.6485, 1130.441
601.1306, 1144.688
601.6127, 1159.483
602.0948, 1173.267
602.5770, 1185.018
603.0591, 1195.318
603.5412, 1205.745
604.0233, 1215.877
604.5054, 1226.895
604.9875, 1239.150
605.4697, 1252.013
605.9518, 1264.646
606.4339, 1277.543
606.9160, 1292.055
607.3981, 1309.094
607.8802, 1327.346
608.3624, 1343.804
608.8445, 1358.007
609.3266, 1373.797
609.8087, 1391.500
610.2908, 1411.340
610.7729, 1434.050
611.2551, 1458.969
611.7372, 1484.394
612.2193, 1510.510
612.7014, 1536.243
613.1835, 1561.385
613.6656, 1585.497
614.1478, 1607.938
614.6299, 1628.443
615.1120, 1646.425
615.5941, 1661.471
616.0762, 1673.594
616.5583, 1680.726
617.0405, 1682.814
617.5226, 1679.942
618.0047, 1671.555
618.4868, 1658.507
618.9689, 1640.501
619.4510, 1618.195
619.9332, 1594.662
620.4153, 1573.506
620.8974, 1552.950
621.3795, 1525.865
621.8616, 1490.884
622.3438, 1456.754
622.8259, 1427.120
623.3080, 1399.597
623.7901, 1371.204
624.2722, 1341.875
624.7543, 1312.529
625.2365, 1282.512
625.7186, 1253.128
626.2007, 1225.826
626.6828, 1200.227
627.1649, 1175.648
627.6470, 1151.677
628.1292, 1128.192
628.6113, 1104.823
629.0934, 1081.486
629.5755, 1058.388
630.0576, 1035.558
630.5397, 1012.952
631.0219, 990.6857
631.5040, 968.5773
631.9861, 946.1572
632.4682, 923.2643
632.9503, 900.8127
633.4324, 880.2091
633.9146, 860.6844
634.3967, 839.8869
634.8788, 817.6055
635.3609, 795.1107
635.8430, 773.0808
636.3251, 751.3789
636.8073, 729.9880
637.2894, 708.5068
637.7715, 688.0306
638.2536, 669.4338
638.7357, 651.2341
639.2178, 631.7862
639.7000, 611.6982
640.1821, 593.0135
640.6642, 576.8328
641.1463, 561.9744
641.6284, 545.7065
642.1105, 527.6719
642.5927, 510.3941
643.0748, 493.7318
643.5569, 478.4981
644.0390, 465.5362
644.5211, 454.0264
645.0032, 442.3252
645.4854, 429.8452
645.9675, 417.5255
646.4496, 405.9899
646.9317, 394.9822
647.4138, 383.8505
647.8959, 372.5413
648.3781, 362.0726
648.8602, 353.3773
649.3423, 346.0344
649.8244, 338.4132
650.3065, 330.4426
650.7886, 322.2331
651.2708, 313.0980
651.7529, 304.2908
652.2350, 296.8857
652.7171, 290.5698
653.1992, 284.2203
653.6813, 277.0765
654.1635, 269.9436
654.6456, 264.2639
655.1277, 259.9047
655.6098, 255.2219
656.0919, 249.9078
656.5740, 244.2042
657.0562, 238.0727
657.5383, 231.6781
658.0204, 226.0851
658.5025, 221.7455
658.9846, 217.6726
659.4667, 213.6348
659.9489, 209.7375
660.4310, 206.1231
660.9131, 202.7897
661.3952, 199.6794
661.8773, 196.8049
662.3594, 193.9265
662.8416, 189.9945
663.3237, 184.4477
663.8058, 179.8864
664.2879, 177.3252
664.7700, 175.3093
665.2521, 172.7600
665.7343, 169.8571
666.2164, 167.2650
666.6985, 165.4067
667.1806, 163.5771
667.6627, 161.2881
668.1448, 158.6698
668.6270, 155.7875
669.1091, 152.7253
669.5912, 150.0585
670.0733, 148.4016
670.5554, 147.5658
671.0375, 146.1177
671.5197, 143.6336
672.0018, 141.2295
672.4839, 139.1288
672.9660, 137.0638
673.4481, 134.7528
673.9302, 132.3154
674.4124, 130.1526
674.8945, 128.5778
675.3766, 127.2247
675.8587, 125.5135
676.3408, 123.5880
676.8229, 122.2420
677.3051, 121.7324
677.7872, 121.2061
678.2693, 119.8371
678.7514, 117.7229
679.2335, 115.9922
679.7156, 114.5663
680.1978, 113.5738
680.6799, 113.6710
681.1620, 113.7258
681.6441, 112.6160
682.1262, 110.5072
682.6083, 108.4094
683.0905, 106.9146
683.5726, 105.8511
684.0547, 105.0612
684.5368, 104.5464
685.0189, 103.4032
685.5010, 101.1353
685.9832, 98.97358
686.4653, 98.24801
686.9474, 98.58166
687.4295, 98.01632
687.9116, 95.34828
688.3937, 93.36597
688.8759, 93.65175
689.3580, 94.49214
689.8401, 94.00462
690.3222, 92.26355
690.8043, 90.61711
691.2864, 89.94553
691.7686, 89.91103
692.2507, 89.71291
692.7328, 89.31269
693.2149, 89.03755
693.6970, 89.20695
694.1791, 89.11025
694.6613, 87.70642
695.1434, 85.73328
695.6255, 85.01040
696.1076, 86.74332
696.5897, 87.84136
697.0718, 86.31630
697.5540, 83.72541
698.0361, 81.76736
698.5182, 80.63113
699.0003, 79.97066
699.4824, 79.59620
699.9645, 79.43876
700.4467, 79.34016
700.9288, 79.29489
701.4109, 79.34927
701.8930, 79.79195
702.3751, 79.97295
702.8572, 79.26788
703.3394, 78.20146
703.8215, 77.74104
704.3036, 78.24777
704.7857, 78.69012
705.2678, 78.42619
705.7499, 77.77091
706.2321, 77.13871
706.7142, 76.54231
707.1963, 75.71128
707.6784, 74.44058
708.1605, 73.22485
708.6426, 73.19277
709.1248, 74.95714
709.6069, 75.69760
710.0890, 74.33083
710.5711, 73.20415
711.0532, 73.44434
711.5353, 74.23029
712.0175, 74.42581
712.4996, 73.78614
712.9817, 73.13348
713.4638, 73.00297
713.9459, 73.14266
714.4280, 73.21573
714.9102, 73.22652
715.3923, 73.36209
715.8744, 73.73191
716.3565, 73.96780
716.8386, 73.40455
717.3207, 71.80457
717.8029, 71.15954
718.2850, 72.86723
718.7671, 73.79420
719.2492, 72.41458
719.7313, 70.45848
720.2134, 69.65549
720.6956, 70.17752
721.1777, 71.01955
721.6598, 72.04736
722.1419, 72.76234
722.6240, 72.13444
723.1061, 70.55145
723.5883, 69.56676
724.0704, 69.64816
724.5525, 70.32022
725.0346, 71.25661
725.5167, 72.41743
725.9988, 72.38272
726.4810, 69.24433
726.9631, 67.68730
727.4452, 69.95782
727.9273, 72.56529
728.4094, 72.65686
728.8915, 70.59879
729.3737, 68.62320
729.8558, 67.72973
730.3379, 67.38274
730.8200, 67.15572
731.3021, 67.00669
731.7842, 66.74604
732.2664, 66.34822
732.7485, 66.17356
733.2306, 66.52680
733.7127, 67.28103
734.1948, 67.94724
734.6769, 68.59618
735.1591, 69.01964
735.6412, 69.27361
736.1233, 69.26083
736.6054, 68.62724
737.0875, 67.76425
737.5696, 67.47817
738.0518, 68.12683
738.5339, 68.73412
739.0160, 68.34196
739.4981, 67.44903
739.9802, 66.98415
740.4623, 66.97427
740.9445, 67.02823
741.4266, 66.97421
741.9087, 66.77080
742.3908, 66.32828
742.8729, 65.58788
743.3550, 64.84564
743.8372, 63.60189
744.3193, 62.98204
744.8014, 64.09497
745.2835, 65.51138
745.7656, 65.45598
746.2477, 63.76772
746.7299, 62.18676
747.2120, 61.96434
747.6941, 62.11719
748.1762, 61.28952
748.6583, 59.87039
749.1404, 59.17385
749.6226, 59.56842
750.1047, 60.42126
750.5868, 61.16972
751.0689, 61.77895
751.5510, 61.87384
752.0331, 61.28492
752.5153, 60.50262
752.9974, 59.42133
753.4795, 58.32478
753.9616, 57.20570
754.4437, 56.21033
754.9258, 55.80563
755.4080, 56.47076
755.8901, 57.09402
756.3722, 57.04181
756.8543, 56.41368
757.3364, 54.99702
757.8185, 53.02656
758.3007, 51.61947
758.7828, 51.49205
759.2649, 52.11776
759.7470, 52.38239
760.2291, 52.21943
760.7112, 52.02145
761.1934, 51.79585
761.6755, 51.53633
762.1576, 51.21537
762.6397, 50.87014
763.1218, 50.44643
763.6039, 49.87952
764.0861, 49.79426
764.5682, 51.18378
765.0503, 52.41875
765.5324, 52.02822
766.0145, 50.56562
766.4966, 49.03341
766.9788, 47.79121
767.4609, 46.99392
767.9430, 46.85830
768.4251, 47.27789
768.9072, 47.84991
769.3893, 48.72062
769.8715, 48.91203
770.3536, 47.84080
770.8357, 46.50283
771.3178, 45.76101
771.7999, 45.54947
772.2820, 45.54198
772.7642, 46.26052
773.2463, 46.44820
773.7284, 45.36776
774.2105, 43.92409
774.6926, 42.84121
775.1747, 42.13615
775.6569, 41.51836
776.1390, 40.82201
776.6211, 40.35024
777.1032, 40.77229
777.5853, 41.86095
778.0674, 42.11187
778.5496, 41.27724
779.0317, 40.96897
779.5138, 42.25589
779.9959, 44.09059
780.4780, 44.55591
780.9601, 43.18090
781.4423, 42.31913
781.9244, 42.23828
782.4065, 42.31933
782.8886, 42.57611
783.3707, 42.76623
783.8528, 42.64255
784.3350, 42.18315
784.8171, 41.52854
785.2992, 40.66089
785.7813, 39.75380
786.2634, 38.87901
786.7455, 38.14988
787.2277, 38.00665
787.7098, 38.52942
788.1919, 39.35240
788.6740, 40.26234
789.1561, 41.12897
789.6382, 41.40082
790.1204, 40.65433
790.6025, 40.34288
791.0846, 41.15585
791.5667, 41.72814
792.0488, 41.22762
792.5309, 40.19871
793.0131, 39.45871
793.4952, 39.14270
793.9773, 39.11415
794.4594, 39.51002
794.9415, 39.99561
795.4236, 40.30838
795.9058, 40.44683
796.3879, 40.49445
796.8700, 40.46189
797.3521, 40.16388
797.8342, 39.29472
798.3163, 38.03894
798.7985, 37.43423
799.2806, 37.61035
799.7627, 37.65941
800.2448, 37.28967
800.7269, 36.87868
801.2090, 36.69413
801.6912, 36.74507
802.1733, 37.02320
802.6554, 37.75605
803.1375, 38.35347
803.6196, 38.67556
804.1017, 38.85340
804.5839, 38.90565
805.0660, 38.90389
805.5481, 39.01855
806.0302, 39.31525
806.5123, 39.48939
806.9944, 38.99218
807.4766, 38.21252
807.9587, 38.26512
808.4408, 39.09137
808.9229, 39.58682
809.4050, 39.32870
809.8871, 38.72355
810.3693, 38.22126
810.8514, 37.82221
811.3335, 37.51503
811.8156, 37.37282
812.2977, 37.19928
812.7798, 36.84441
813.2620, 36.55793
813.7441, 36.74038
814.2262, 37.12115
814.7083, 36.82279
815.1904, 35.14301
815.6725, 33.94036
816.1547, 34.85165
816.6368, 36.37604
817.1189, 36.64037
817.6010, 35.91182
818.0831, 35.54525
818.5652, 36.11293
819.0474, 36.96487
819.5295, 37.23313
820.0116, 36.98889
820.4937, 36.84610
820.9758, 36.77975
821.4579, 37.04188
821.9401, 37.98591
822.4222, 38.80520
822.9043, 38.53804
823.3864, 37.22967
823.8685, 36.17835
824.3506, 35.24262
824.8328, 34.75282
825.3149, 35.19851
825.7970, 35.71724
826.2791, 35.54414
826.7612, 34.95652
827.2433, 34.77152
827.7255, 35.34075
828.2076, 35.89808
828.6897, 35.51001
829.1718, 34.83309
829.6539, 35.01339
830.1360, 35.96624
830.6182, 37.15595
831.1003, 38.38304
831.5824, 39.26845
832.0645, 39.32015
832.5466, 38.59278
833.0287, 37.68823
833.5109, 36.45055
833.9930, 35.52688
834.4751, 35.21035
834.9572, 35.05680
835.4393, 34.75937
835.9214, 34.34322
836.4036, 33.83046
836.8857, 32.93835
837.3678, 32.53068
837.8499, 33.32140
838.3320, 34.20155
838.8141, 34.20194
839.2963, 33.74213
839.7784, 33.73728
840.2605, 34.45292
840.7426, 35.28925
841.2247, 35.86512
841.7068, 36.12649
842.1890, 35.90757
842.6711, 35.25449
843.1532, 34.26069
843.6353, 32.92351
844.1174, 32.04129
844.5995, 32.41351
845.0817, 33.72670
845.5638, 34.56239
846.0459, 34.79851
846.5280, 34.89671
847.0101, 34.92654
847.4922, 34.76891
847.9744, 34.10959
848.4565, 33.33270
848.9386, 33.03575
849.4207, 33.30397
849.9028, 33.75997
850.3849, 34.56145
850.8671, 35.24506
851.3492, 35.56359
851.8313, 35.58238
852.3134, 35.35930
852.7955, 34.93828
853.2776, 34.37333
853.7598, 33.58603
854.2419, 32.92858
854.7240, 33.16027
855.2061, 34.00565
855.6882, 34.34703
856.1703, 34.04802
856.6525, 33.40917
857.1346, 32.50519
857.6167, 31.72365
858.0988, 31.93119
858.5809, 33.39180
859.0630, 34.04533
859.5452, 33.40613
860.0273, 32.82494
860.5094, 32.85484
860.9915, 32.99219
861.4736, 32.67625
861.9557, 32.01776
862.4379, 31.72211
862.9200, 32.14669
863.4021, 32.62447
863.8842, 33.13279
864.3663, 33.42582
864.8484, 33.20350
865.3306, 32.59506
865.8127, 31.82263
866.2948, 30.97878
866.7769, 30.44293
867.2590, 30.82724
867.7411, 31.69691
868.2233, 32.17054
868.7054, 32.27394
869.1875, 32.27133
869.6696, 32.23946
870.1517, 32.03420
870.6339, 31.47781
871.1160, 30.68543
871.5981, 30.17257
872.0802, 29.96543
872.5623, 29.95011
873.0444, 30.19196
873.5266, 30.50306
874.0087, 30.88215
874.4908, 31.21758
874.9729, 31.33337
875.4550, 31.24162
875.9371, 30.86136
876.4193, 29.44292
876.9014, 28.61413
877.3835, 29.81262
877.8656, 31.44290
878.3477, 31.71548
878.8298, 30.66440
879.3120, 29.43127
879.7941, 28.37028
880.2762, 27.88604
880.7583, 28.86666
881.2404, 30.47502
881.7225, 31.25143
882.2047, 31.17422
882.6868, 30.81142
883.1689, 30.40939
883.6510, 29.87522
884.1331, 28.91240
884.6152, 27.69527
885.0974, 27.82845
885.5795, 29.58227
886.0616, 30.64809
886.5437, 30.27006
887.0258, 29.63687
887.5079, 29.77334
887.9901, 30.42292
888.4722, 30.54639
888.9543, 29.74795
889.4364, 29.17417
889.9185, 29.06137
890.4006, 28.89760
890.8828, 28.24418
891.3649, 27.56461
891.8470, 27.60223
892.3291, 28.35815
892.8112, 28.73612
893.2933, 27.90703
893.7755, 27.01214
894.2576, 26.73558
894.7397, 26.81945
895.2218, 27.15808
895.7039, 27.54858
896.1860, 27.37983
896.6682, 26.32555
897.1503, 25.31380
897.6324, 25.74681
898.1145, 27.07090
898.5966, 27.57119
899.0787, 27.29179
899.5609, 27.18261
900.0430, 27.55684
900.5251, 27.93203
901.0072, 27.84559
901.4893, 27.36337
901.9714, 26.72284
902.4536, 25.72554
902.9357, 25.32947
903.4178, 25.85350
903.8999, 26.58409
904.3820, 27.50552
904.8641, 28.20227
905.3463, 27.77032
905.8284, 26.02458
906.3105, 24.77299
906.7926, 24.35073
907.2747, 24.17403
907.7568, 23.95731
908.2390, 23.99536
908.7211, 24.82850
909.2032, 26.14259
909.6853, 27.00484
910.1674, 27.05762
910.6495, 26.71927
911.1317, 25.81367
911.6138, 25.01008
912.0959, 25.46112
912.5780, 26.57153
913.0601, 26.80090
913.5422, 25.79782
914.0244, 24.50055
914.5065, 23.59195
914.9886, 23.12887
915.4707, 23.39749
915.9528, 24.27156
916.4349, 24.96284
916.9171, 25.36131
917.3992, 25.66474
917.8813, 25.97890
918.3634, 26.26038
918.8455, 26.44242
919.3276, 26.52499
919.8098, 26.51851
920.2919, 26.46768
920.7740, 26.18026
921.2561, 25.28782
921.7382, 24.56519
922.2203, 24.95700
922.7025, 26.05556
923.1846, 26.19098
923.6667, 24.49848
924.1488, 23.73919
924.6309, 25.12143
925.1130, 26.40119
925.5952, 26.51290
926.0773, 25.97883
926.5594, 25.34038
927.0415, 24.72692
927.5236, 24.28305
928.0057, 24.08296
928.4879, 24.05016
928.9700, 24.38425
929.4521, 24.68356
929.9342, 24.23423
930.4163, 23.34430
930.8984, 23.07768
931.3806, 23.79746
931.8627, 24.46336
932.3448, 23.72630
932.8269, 22.38678
933.3090, 22.13200
933.7911, 22.77123
934.2733, 23.65749
934.7554, 24.62362
935.2375, 25.21994
935.7196, 25.11036
936.2017, 24.60785
936.6838, 24.36241
937.1660, 24.38676
937.6481, 24.40263
938.1302, 24.41399
938.6123, 24.36616
939.0944, 24.15552
939.5765, 24.07771
940.0587, 24.55385
940.5408, 25.44796
941.0229, 25.72693
941.5050, 24.81945
941.9871, 24.34428
942.4692, 24.72541
942.9514, 25.11737
943.4335, 25.29867
943.9156, 25.24116
944.3977, 24.78883
944.8798, 23.95096
945.3619, 23.39167
945.8441, 23.48765
946.3262, 23.57542
946.8083, 23.29789
947.2904, 23.02188
947.7725, 23.09291
948.2546, 23.41374
948.7368, 23.69825
949.2189, 23.85910
949.7010, 24.07421
950.1831, 24.69830
950.6652, 25.22071
951.1473, 24.89349
951.6295, 24.18728
952.1116, 24.06271
952.5937, 24.52448
953.0758, 24.75558
953.5579, 24.25938
954.0400, 23.60082
954.5222, 23.69040
955.0043, 24.20708
955.4864, 24.12313
955.9685, 23.49219
956.4506, 22.98886
956.9327, 22.81448
957.4149, 22.66751
957.8970, 22.23238
958.3791, 22.46541
958.8612, 21.89204
959.3433, 22.80554
959.8254, 23.40154
960.3076, 23.54825
960.7897, 23.65786
961.2718, 23.90688
961.7539, 24.20159
962.2360, 24.46412
962.7181, 24.68329
963.2003, 24.55510
963.6824, 23.78666
964.1645, 23.28057
964.6466, 23.33251
965.1287, 23.39880
965.6108, 23.07994
966.0930, 22.64931
966.5751, 22.45004
967.0572, 22.47046
967.5393, 22.93891
968.0214, 24.74187
968.5035, 25.84022
968.9857, 25.12237
969.4678, 24.00974
969.9499, 23.56969
970.4320, 23.61095
970.9141, 23.50913
971.3962, 23.10708
971.8784, 22.68484
972.3605, 22.18022
972.8426, 21.90660
973.3247, 22.01154
973.8068, 22.51661
974.2889, 23.92898
974.7711, 25.79975
975.2532, 26.46586
975.7353, 24.99479
976.2174, 23.32203
976.6995, 23.43571
977.1816, 24.24136
977.6638, 24.06462
978.1459, 23.30665
978.6280, 23.31256
979.1101, 24.22785
979.5922, 24.84118
980.0743, 24.24490
980.5565, 23.15853
981.0386, 22.66393
981.5207, 22.67367
982.0028, 22.90798
982.4849, 23.34611
982.9670, 24.13126
983.4492, 25.31556
983.9313, 26.12762
984.4134, 25.73721
984.8955, 24.59754
985.3776, 24.11980
985.8597, 24.31391
986.3419, 25.05709
986.8240, 26.53873
987.3061, 27.17411
987.7882, 26.02736
988.2703, 24.52168
988.7524, 24.47555
989.2346, 25.69569
989.7167, 26.09141
990.1988, 25.33160
990.6809, 24.73380
991.1630, 24.33894
991.6451, 24.29435
992.1273, 24.90859
992.6094, 25.70459
993.0915, 25.85004
993.5736, 25.27428
994.0557, 25.35795
994.5378, 27.27639
995.0200, 28.11254
995.5021, 26.46961
995.9842, 24.87505
996.4663, 24.82041
996.9484, 25.64185
997.4305, 26.21859
997.9127, 26.43920
998.3948, 26.78830
998.8769, 27.88545
999.3590, 28.40030
999.8411, 27.44721
1000.323, 26.20106
1000.805, 25.51059
1001.287, 25.25501
1001.770, 24.93962
1002.252, 24.42014
1002.734, 24.56029
1003.216, 26.62961
1003.698, 28.39527
1004.180, 28.02868
1004.662, 27.05533
1005.144, 27.19317
1005.627, 28.24948
1006.109, 29.20787
1006.591, 29.72400
1007.073, 29.94419
1007.555, 29.85485
1008.037, 29.62529
1008.519, 29.37451
1009.001, 29.11724
1009.483, 28.78858
1009.966, 28.46372
1010.448, 28.48730
1010.930, 29.04553
1011.412, 29.47422
1011.894, 28.64866
1012.376, 27.58052
1012.858, 28.23831
1013.340, 29.87610
1013.823, 30.30431
1014.305, 29.40497
1014.787, 28.98342
1015.269, 30.10731
1015.751, 31.62900
1016.233, 31.85044
1016.715, 31.27777
1017.197, 31.39766
1017.679, 32.07384
1018.162, 32.48968
1018.644, 32.49482
1019.126, 32.70290
1019.608, 33.57628
1020.090, 34.45070
1020.572, 33.80924
1021.054, 32.00362
1021.536, 31.73367
1022.018, 32.95915
1022.501, 33.95735
1022.983, 34.31364
1023.465, 34.37665
1023.947, 34.37003
1024.429, 34.35535
1024.911, 34.45851
1025.393, 34.68053
1025.875, 35.04470
1026.358, 35.59287
1026.840, 35.94851
1027.322, 36.02607
1027.804, 35.75698
1028.286, 34.90974
1028.768, 33.99899
1029.250, 34.45001
1029.732, 36.50004
1030.214, 38.08395
1030.697, 39.19757
1031.179, 39.85242
1031.661, 40.07659
1032.143, 39.73757
1032.625, 38.48498
1033.107, 36.79639
1033.589, 36.08160
1034.071, 36.59723
1034.553, 36.92562
1035.036, 36.95581
1035.518, 37.05629
1036.000, 37.42865
1036.482, 37.73191
1036.964, 37.59328
1037.446, 37.22137
1037.928, 37.27007
1038.410, 37.96291
1038.893, 38.27735
1039.375, 37.78946
1039.857, 37.60273
1040.339, 38.16877
1040.821, 38.92408
1041.303, 39.64211
1041.785, 40.19395
1042.267, 40.11082
1042.750, 39.06567
1043.232, 38.48046
1043.714, 38.41095
1044.196, 38.74841
1044.678, 40.05620
1045.160, 41.21692
1045.642, 41.27309
1046.124, 40.58220
1046.606, 39.93505
1047.089, 39.23363
1047.571, 39.21576
1048.053, 40.87343
1048.535, 41.98952
1049.017, 41.51900
1049.499, 40.70654
1049.981, 40.50797
1050.463, 40.69629
1050.945, 40.71253
1051.428, 40.50899
1051.910, 40.03757
1052.392, 38.79080
1052.874, 37.94405
1053.356, 38.34284
1053.838, 38.83651
1054.320, 38.27362
1054.802, 37.21973
1055.285, 36.98482
1055.767, 37.83775
1056.249, 38.52348
1056.731, 38.67200
1057.213, 38.65562
1057.695, 38.70513
1058.177, 38.55106
1058.659, 37.62739
1059.141, 36.47819
1059.624, 36.18968
1060.106, 36.94917
1060.588, 37.68257
1061.070, 38.12883
1061.552, 38.38102
1062.034, 38.45202
1062.516, 38.36392
1062.998, 37.90607
1063.480, 37.40007
1063.963, 37.60204
1064.445, 38.55050
1064.927, 38.81592
1065.409, 37.01177
1065.891, 35.59639
1066.373, 35.86134
1066.855, 36.61243
1067.337, 37.01707
1067.820, 37.23272
1068.302, 37.76568
1068.784, 38.59259
1069.266, 38.87709
1069.748, 37.92086
1070.230, 37.03746
1070.712, 36.75137
1071.194, 36.80716
1071.677, 37.41431
1072.159, 38.00790
1072.641, 37.56710
1073.123, 36.22249
1073.605, 35.42326
1074.087, 35.85935
1074.569, 36.51315
1075.051, 37.20246
1075.533, 37.63585
1076.016, 37.56563
1076.498, 37.13934
1076.980, 36.19659
1077.462, 35.05893
1077.944, 34.96425
1078.426, 36.69101
1078.908, 38.17518
1079.390, 38.30737
1079.873, 38.05280
1080.355, 38.11145
1080.837, 38.08527
1081.319, 37.21016
1081.801, 35.80990
1082.283, 34.99724
1082.765, 35.12833
1083.247, 35.64218
1083.729, 36.87965
1084.212, 37.71504
1084.694, 37.17546
1085.176, 36.16070
1085.658, 35.38275
1086.140, 34.97689
1086.622, 35.14421
1087.104, 35.96792
1087.586, 36.40599
1088.068, 35.47138
1088.551, 34.74649
1089.033, 35.62461
1089.515, 36.49913
1089.997, 35.64377
1090.479, 33.83694
1090.961, 32.54932
1091.443, 32.07431
1091.925, 32.34400
1092.408, 34.28925
1092.890, 35.66824
1093.372, 35.00106
1093.854, 34.04581
1094.336, 34.26859
1094.818, 34.93538
1095.300, 34.76936
1095.782, 33.72976
1096.265, 32.84175
1096.747, 32.33198
1097.229, 32.14153
1097.711, 32.43676
1098.193, 32.83480
1098.675, 33.31668
1099.157, 33.63280
1099.639, 33.44064
1100.121, 32.81892
1100.604, 32.14427
1101.086, 31.34109
1101.568, 30.96866
1102.050, 31.55850
1102.532, 32.12632
1103.014, 31.97194
1103.496, 31.83970
1103.978, 32.70547
1104.460, 34.10261
1104.943, 34.69245
1105.425, 34.14227
1105.907, 33.66624
1106.389, 33.55883
1106.871, 33.44686
1107.353, 33.03796
1107.835, 32.77452
1108.317, 33.19310
1108.800, 33.86404
1109.282, 33.97091
1109.764, 33.43249
1110.246, 33.10256
1110.728, 33.36944
1111.210, 33.38271
1111.692, 32.58050
1112.174, 32.01848
1112.656, 32.38468
1113.139, 33.14559
1113.621, 33.84478
1114.103, 34.41679
1114.585, 34.27016
1115.067, 32.58855
1115.549, 31.66705
1116.031, 32.21954
1116.513, 32.51689
1116.995, 31.84789
1117.478, 30.89388
1117.960, 30.06141
1118.442, 29.45664
1118.924, 29.41144
1119.406, 29.97798
1119.888, 31.01084
1120.370, 33.50919
1120.852, 34.25700
1121.335, 31.54208
1121.817, 28.75374
1122.299, 28.15477
1122.781, 28.80866
1123.263, 29.10597
1123.745, 29.04419
1124.227, 28.59531
1124.709, 27.47517
1125.192, 27.04953
1125.674, 27.72196
1126.156, 28.39951
1126.638, 28.62833
1127.120, 28.48530
1127.602, 27.94843
1128.084, 27.19685
1128.566, 27.24872
1129.048, 28.26142
1129.531, 28.55768
1130.013, 27.94128
1130.495, 27.55909
1130.977, 27.81292
1131.459, 28.08616
1131.941, 27.84688
1132.423, 27.39023
1132.905, 27.32642
1133.387, 27.64833
1133.870, 28.40450
1134.352, 29.56239
1134.834, 30.10306
1135.316, 29.83380
1135.798, 29.24436
1136.280, 28.58278
1136.762, 28.01756
1137.244, 27.86377
1137.727, 27.87780
1138.209, 27.13078
1138.691, 25.88643
1139.173, 25.37696
1139.655, 25.60119
1140.137, 25.60589
1140.619, 25.11667
1141.101, 25.17425
1141.583, 26.87602
1142.066, 28.75872
1142.548, 28.10394
1143.030, 26.23246
1143.512, 25.97465
1143.994, 26.83216
1144.476, 26.98101
1144.958, 26.24898
1145.440, 25.85261
1145.922, 26.43218
1146.405, 27.06940
1146.887, 26.59924
1147.369, 26.02275
1147.851, 26.77070
1148.333, 27.97727
1148.815, 28.21439
1149.297, 27.74710
1149.779, 27.71991
1150.262, 28.39848
1150.744, 28.86226
1151.226, 28.36842
1151.708, 27.87463
1152.190, 28.14011
1152.672, 28.52286
1153.154, 28.69027
1153.636, 28.48810
1154.119, 27.26970
1154.601, 25.45896
1155.083, 25.10130
1155.565, 27.32567
1156.047, 28.98780
1156.529, 28.52402
1157.011, 27.97188
1157.493, 28.41782
1157.975, 28.96357
1158.458, 28.75157
1158.940, 28.08427
1159.422, 27.65030
1159.904, 27.51991
1160.386, 27.45129
1160.868, 27.32912
1161.350, 27.41962
1161.832, 28.00864
1162.314, 28.48152
1162.797, 28.62346
1163.279, 28.47718
1163.761, 27.86730
1164.243, 28.24187
1164.725, 27.12457
1165.207, 28.61037
1165.689, 29.50328
1166.171, 29.79700
1166.654, 29.46141
1167.136, 28.34056
1167.618, 26.97982
1168.100, 25.59485
1168.582, 24.54307
1169.064, 24.51945
1169.546, 25.39946
1170.028, 26.14606
1170.510, 26.76786
1170.993, 26.73571
1171.475, 25.98014
1171.957, 25.54996
1172.439, 25.84457
1172.921, 26.39539
1173.403, 26.82166
1173.885, 27.06528
1174.367, 26.81317
1174.849, 26.32169
1175.332, 26.74863
1175.814, 26.40072
1176.296, 26.12348
1176.778, 26.47300
1177.260, 25.71069
1177.742, 26.14146
1178.224, 26.60268
1178.706, 25.75833
1179.189, 24.57228
1179.671, 24.21826
1180.153, 24.38196
1180.635, 24.89332
1181.117, 25.43238
1181.599, 25.30048
1182.081, 24.49170
1182.563, 23.81950
1183.046, 23.65343
1183.528, 23.73131
1184.010, 24.07547
1184.492, 24.40996
1184.974, 24.67163
1185.456, 24.72419
1185.938, 24.31312
1186.420, 23.61804
1186.902, 23.01058
1187.385, 22.54398
1187.867, 22.36445
1188.349, 22.70423
1188.831, 23.02445
1189.313, 23.18539
1189.795, 23.35464
1190.277, 23.79302
1190.759, 24.11822
1191.241, 23.72671
1191.724, 24.20022
1192.206, 22.97987
1192.688, 24.28723
1193.170, 24.78151
1193.652, 24.22608
1194.134, 23.52363
1194.616, 22.72531
1195.098, 22.29904
1195.581, 22.65149
1196.063, 23.00391
1196.545, 22.10023
1197.027, 22.76589
1197.509, 20.76906
1197.991, 22.80998
1198.473, 23.44447
1198.955, 22.56427
1199.438, 21.43760
1199.920, 20.44233
1200.402, 19.38178
1200.884, 18.06133
1201.366, 17.42968
1201.848, 19.50990
1202.330, 22.64101
1202.812, 23.69275
1203.294, 23.33809
1203.776, 22.76048
1204.259, 22.14933
1204.741, 21.34346
1205.223, 20.38474
1205.705, 19.88191
1206.187, 20.31769
1206.669, 20.94025
1207.151, 21.45089
1207.633, 21.70149
1208.116, 21.40051
1208.598, 20.90882
1209.080, 20.44982
1209.562, 20.20467
1210.044, 20.74232
1210.526, 22.28750
1211.008, 22.81679
1211.490, 20.75272
1211.973, 19.45020
1212.455, 20.20441
1212.937, 20.99206
1213.419, 20.81261
1213.901, 20.40516
1214.383, 20.67568
1214.865, 21.23636
1215.347, 20.57327
1215.829, 20.62706
1216.312, 20.98459
1216.794, 19.98404
1217.276, 21.34508
1217.758, 21.36196
1218.240, 20.81292
1218.722, 19.97403
1219.204, 19.51340
1219.686, 20.31409
1220.168, 21.73145
1220.651, 22.17634
1221.133, 21.79169
1221.615, 20.88606
1222.097, 19.69745
1222.579, 19.09112
1223.061, 19.16056
1223.543, 19.42190
1224.025, 19.64295
1224.508, 19.79858
1224.990, 19.91224
1225.472, 19.89290
1225.954, 19.61061
1226.436, 19.17626
1226.918, 18.48934
1227.400, 17.86978
1227.882, 17.92933
1228.365, 18.58420
1228.847, 19.09167
1229.329, 19.21578
1229.811, 19.31160
1230.293, 19.73869
1230.775, 19.79071
1231.257, 18.60635
1231.739, 17.66356
1232.221, 18.27704
1232.703, 19.40039
1233.186, 19.60280
1233.668, 19.07573
1234.150, 19.18853
1234.632, 18.97927
1235.114, 18.65040
1235.596, 18.97643
1236.078, 18.29108
1236.560, 18.99171
1237.043, 19.37103
1237.525, 18.34194
1238.007, 17.24434
1238.489, 18.00863
1238.971, 17.64615
1239.453, 17.89009
1239.935, 18.65601
1240.417, 18.69365
1240.900, 19.63161
1241.382, 20.16607
1241.864, 20.06712
1242.346, 19.84483
1242.828, 19.74796
1243.310, 19.55936
1243.792, 18.89126
1244.274, 18.31544
1244.756, 18.60526
1245.239, 18.90322
1245.721, 17.93555
1246.203, 16.66928
1246.685, 16.91986
1247.167, 18.47362
1247.649, 19.23250
1248.131, 18.52388
1248.613, 18.07974
1249.095, 18.41752
1249.578, 18.54447
1250.060, 18.04977
1250.542, 17.69861
1251.024, 17.89825
1251.506, 18.41857
1251.988, 19.09369
1252.470, 19.76181
1252.952, 19.65594
1253.435, 18.74375
1253.917, 18.42978
1254.399, 18.71706
1254.881, 19.26266
1255.363, 19.94895
1255.845, 20.08938
1256.327, 19.38037
1256.809, 18.55603
1257.292, 18.28596
1257.774, 18.33865
1258.256, 18.40538
1258.738, 18.58898
1259.220, 19.17155
1259.702, 19.90285
1260.184, 20.45043
1260.666, 20.72204
1261.148, 20.63888
1261.630, 20.17808
1262.113, 19.56553
1262.595, 18.54874
1263.077, 17.89382
1263.559, 17.51455
1264.041, 17.91798
1264.523, 20.26657
1265.005, 22.64549
1265.487, 23.48974
1265.970, 23.08762
1266.452, 21.95256
1266.934, 20.06354
1267.416, 18.63248
1267.898, 17.57897
1268.380, 17.90682
1268.862, 19.82428
1269.344, 20.87130
1269.827, 20.24450
1270.309, 19.43014
1270.791, 19.49639
1271.273, 20.03875
1271.755, 20.86932
1272.237, 21.50176
1272.719, 20.57880
1273.201, 19.06924
1273.683, 18.78284
1274.166, 19.39065
1274.648, 19.89446
1275.130, 20.02956
1275.612, 19.70458
1276.094, 18.63450
1276.576, 18.21373
1277.058, 19.78411
1277.540, 21.01477
1278.022, 20.60474
1278.505, 20.00561
1278.987, 20.26974
1279.469, 20.78518
1279.951, 20.74257
1280.433, 20.36441
1280.915, 20.71832
1281.397, 20.30129
1281.879, 19.87280
1282.362, 19.99603
1282.844, 18.96311
1283.326, 19.21772
1283.808, 19.32018
1284.290, 18.66985
1284.772, 18.30728
1285.254, 19.04854
1285.736, 20.89157
##END=



