##NAMES=Bournonite
##RRUFFID=R050111
##IDEAL CHEMISTRY=Cu^1+^Pb^2+^Sb^3+^S^2-^_3_
##LOCALITY=Yao Gang Xian mine, Chenzhou, Hunan Province, China
##OWNER=RRUFF
##SOURCE=He Xin Jian
##DESCRIPTION=Steel-gray short prismatic crystal
##STATUS=The identification of this mineral has been confirmed by X-ray diffraction and chemical analysis
##URL=rruff.info/R050111
##MEASURED CHEMISTRY=PbCuSbS_3_
108.511, 76.228
108.993, 88.490
109.475, 94.963
109.957, 97.085
110.439, 100.920
110.921, 110.396
111.404, 125.462
111.886, 144.700
112.368, 167.770
112.850, 195.739
113.332, 231.866
113.814, 275.137
114.296, 318.561
114.778, 357.508
115.260, 394.962
115.743, 414.811
116.225, 407.153
116.707, 388.147
117.189, 365.378
117.671, 340.537
118.153, 311.430
118.635, 270.821
119.117, 201.846
119.600, 160.070
120.082, 162.218
120.564, 179.822
121.046, 189.921
121.528, 185.031
122.010, 175.777
122.492, 184.387
122.974, 212.770
123.456, 260.130
123.939, 337.694
124.421, 427.626
124.903, 509.957
125.385, 574.743
125.867, 632.342
126.349, 715.155
126.831, 876.384
127.313, 1004.175
127.796, 1068.322
128.278, 1096.720
128.760, 1129.827
129.242, 1189.681
129.724, 1269.649
130.206, 1331.157
130.688, 1386.874
131.170, 1414.107
131.652, 1402.280
132.135, 1357.547
132.617, 1290.458
133.099, 1205.202
133.581, 1103.224
134.063, 1003.694
134.545, 899.963
135.027, 804.096
135.509, 719.460
135.992, 646.755
136.474, 587.929
136.956, 545.868
137.438, 520.988
137.920, 501.444
138.402, 484.455
138.884, 474.409
139.366, 475.178
139.848, 486.297
140.331, 503.239
140.813, 523.576
141.295, 547.487
141.777, 572.270
142.259, 592.710
142.741, 617.262
143.223, 657.633
143.705, 714.621
144.188, 768.408
144.670, 797.159
145.152, 806.787
145.634, 831.351
146.116, 887.274
146.598, 954.632
147.080, 1014.946
147.562, 1068.445
148.044, 1107.614
148.527, 1121.993
149.009, 1116.172
149.491, 1099.008
149.973, 1067.706
150.455, 1027.779
150.937, 985.237
151.419, 937.154
151.901, 896.393
152.383, 878.751
152.866, 877.424
153.348, 874.710
153.830, 858.183
154.312, 836.116
154.794, 828.054
155.276, 839.674
155.758, 856.913
156.240, 869.894
156.723, 879.609
157.205, 889.025
157.687, 896.599
158.169, 904.523
158.651, 920.810
159.133, 948.705
159.615, 981.435
160.097, 1016.114
160.579, 1051.926
161.062, 1085.418
161.544, 1114.807
162.026, 1140.132
162.508, 1162.312
162.990, 1181.165
163.472, 1196.560
163.954, 1206.422
164.436, 1212.441
164.919, 1220.947
165.401, 1235.713
165.883, 1256.596
166.365, 1282.433
166.847, 1316.393
167.329, 1351.958
167.811, 1383.052
168.293, 1411.501
168.775, 1444.622
169.258, 1497.859
169.740, 1570.143
170.222, 1610.739
170.704, 1590.488
171.186, 1564.122
171.668, 1559.945
172.150, 1574.499
172.632, 1588.827
173.115, 1586.235
173.597, 1566.085
174.079, 1547.108
174.561, 1527.746
175.043, 1511.431
175.525, 1499.469
176.007, 1491.846
176.489, 1488.187
176.971, 1491.418
177.454, 1502.866
177.936, 1504.103
178.418, 1482.451
178.900, 1460.968
179.382, 1446.745
179.864, 1440.557
180.346, 1441.465
180.828, 1451.477
181.311, 1472.073
181.793, 1485.869
182.275, 1488.416
182.757, 1487.005
183.239, 1478.713
183.721, 1467.091
184.203, 1462.273
184.685, 1477.717
185.167, 1516.946
185.650, 1541.318
186.132, 1525.939
186.614, 1516.028
187.096, 1533.276
187.578, 1572.624
188.060, 1612.681
188.542, 1632.997
189.024, 1630.691
189.507, 1636.701
189.989, 1660.171
190.471, 1684.471
190.953, 1708.780
191.435, 1729.871
191.917, 1740.350
192.399, 1727.326
192.881, 1686.711
193.363, 1677.772
193.846, 1733.159
194.328, 1793.004
194.810, 1839.316
195.292, 1873.511
195.774, 1906.253
196.256, 1949.887
196.738, 2006.301
197.220, 2036.453
197.702, 2011.059
198.185, 1984.518
198.667, 1975.244
199.149, 1978.521
199.631, 1980.052
200.113, 1969.394
200.595, 1946.464
201.077, 1914.235
201.559, 1861.312
202.042, 1808.668
202.524, 1763.744
203.006, 1723.521
203.488, 1681.208
203.970, 1631.662
204.452, 1575.071
204.934, 1517.732
205.416, 1454.192
205.898, 1395.924
206.381, 1346.671
206.863, 1304.698
207.345, 1267.475
207.827, 1233.996
208.309, 1203.663
208.791, 1170.227
209.273, 1120.467
209.755, 1082.976
210.238, 1070.982
210.720, 1074.790
211.202, 1079.843
211.684, 1077.832
212.166, 1069.264
212.648, 1055.700
213.130, 1022.167
213.612, 1003.363
214.094, 1014.219
214.577, 1041.501
215.059, 1069.724
215.541, 1091.482
216.023, 1105.221
216.505, 1103.151
216.987, 1063.795
217.469, 1039.855
217.951, 1049.355
218.434, 1075.246
218.916, 1097.373
219.398, 1105.985
219.880, 1107.129
220.362, 1118.056
220.844, 1149.241
221.326, 1172.411
221.808, 1178.837
222.290, 1177.999
222.773, 1179.062
223.255, 1185.644
223.737, 1194.997
224.219, 1201.441
224.701, 1203.998
225.183, 1205.528
225.665, 1208.278
226.147, 1209.384
226.629, 1204.642
227.112, 1192.922
227.594, 1180.360
228.076, 1179.330
228.558, 1198.581
229.040, 1204.220
229.522, 1177.498
230.004, 1146.091
230.486, 1130.901
230.969, 1135.515
231.451, 1144.129
231.933, 1135.772
232.415, 1105.927
232.897, 1078.306
233.379, 1049.836
233.861, 1028.641
234.343, 1024.881
234.825, 1037.137
235.307, 1048.525
235.790, 1039.143
236.272, 1006.238
236.754, 980.642
237.236, 971.752
237.718, 964.165
238.200, 947.688
238.682, 924.340
239.165, 904.885
239.647, 902.051
240.129, 914.935
240.611, 918.501
241.093, 905.717
241.575, 890.710
242.057, 880.879
242.539, 874.794
243.021, 868.066
243.503, 856.956
243.986, 842.699
244.468, 831.385
244.950, 824.922
245.432, 818.310
245.914, 808.578
246.396, 797.036
246.878, 785.826
247.361, 774.774
247.843, 765.276
248.325, 762.800
248.807, 772.261
249.289, 775.549
249.771, 755.440
250.253, 726.091
250.735, 706.382
251.217, 706.796
251.699, 714.522
252.182, 709.300
252.664, 688.224
253.146, 672.902
253.628, 681.841
254.110, 698.198
254.592, 700.980
255.074, 682.400
255.556, 659.184
256.039, 646.060
256.521, 642.860
257.003, 644.800
257.485, 654.398
257.967, 665.099
258.449, 667.036
258.931, 657.189
259.413, 649.707
259.896, 657.673
260.378, 676.606
260.860, 686.978
261.342, 679.608
261.824, 668.135
262.306, 673.495
262.788, 697.247
263.270, 712.744
263.752, 701.654
264.235, 676.804
264.717, 663.161
265.199, 666.580
265.681, 676.649
266.163, 681.902
266.645, 682.611
267.127, 686.633
267.609, 701.341
268.091, 717.001
268.574, 720.359
269.056, 710.147
269.538, 700.394
270.020, 704.747
270.502, 723.335
270.984, 732.429
271.466, 723.696
271.948, 712.131
272.431, 706.099
272.913, 705.895
273.395, 710.137
273.877, 718.298
274.359, 730.200
274.841, 744.301
275.323, 760.756
275.805, 778.819
276.288, 797.919
276.770, 818.489
277.252, 841.868
277.734, 869.243
278.216, 898.594
278.698, 923.818
279.180, 933.635
279.662, 953.511
280.144, 992.372
280.626, 1039.841
281.109, 1082.008
281.591, 1114.733
282.073, 1148.035
282.555, 1199.071
283.037, 1280.952
283.519, 1357.266
284.001, 1417.450
284.483, 1479.895
284.966, 1558.071
285.448, 1652.950
285.930, 1759.133
286.412, 1871.798
286.894, 1995.751
287.376, 2103.569
287.858, 2183.147
288.340, 2259.431
288.823, 2345.406
289.305, 2436.538
289.787, 2519.511
290.269, 2584.605
290.751, 2632.414
291.233, 2670.383
291.715, 2702.211
292.197, 2717.457
292.679, 2722.675
293.162, 2708.626
293.644, 2659.772
294.126, 2565.608
294.608, 2440.544
295.090, 2318.670
295.572, 2200.107
296.054, 2083.723
296.536, 1960.873
297.018, 1843.910
297.501, 1745.831
297.983, 1670.021
298.465, 1606.275
298.947, 1540.921
299.429, 1472.418
299.911, 1419.433
300.393, 1387.393
300.875, 1372.189
301.358, 1297.540
301.840, 1314.698
302.322, 1331.854
302.804, 1349.008
303.286, 1366.164
303.768, 1383.319
304.250, 1400.475
304.732, 1417.633
305.215, 1434.788
305.697, 1451.943
306.179, 1469.099
306.661, 1487.022
307.143, 1558.002
307.625, 1625.830
308.107, 1688.363
308.589, 1750.246
309.071, 1808.626
309.553, 1869.990
310.036, 1950.333
310.518, 2054.999
311.000, 2174.021
311.482, 2300.649
311.964, 2436.743
312.446, 2586.124
312.928, 2747.835
313.410, 2927.181
313.893, 3139.955
314.375, 3390.073
314.857, 3658.795
315.339, 3944.669
315.821, 4245.627
316.303, 4558.587
316.785, 4881.624
317.267, 5219.516
317.750, 5581.398
318.232, 5975.104
318.714, 6368.581
319.196, 6756.151
319.678, 7145.476
320.160, 7544.975
320.642, 7951.244
321.124, 8365.246
321.606, 8792.676
322.089, 9233.181
322.571, 9587.316
323.053, 9866.853
323.535, 10043.660
324.017, 10106.260
324.499, 10060.020
324.981, 9910.778
325.463, 9661.636
325.945, 9316.409
326.428, 8882.479
326.910, 8322.557
327.392, 7746.309
327.874, 7136.789
328.356, 6538.228
328.838, 5988.816
329.320, 5495.068
329.802, 5045.389
330.284, 4625.938
330.767, 4236.057
331.249, 3892.240
331.731, 3609.825
332.213, 3363.667
332.695, 3137.642
333.177, 2932.383
333.659, 2745.853
334.142, 2582.645
334.624, 2438.029
335.106, 2302.237
335.588, 2174.593
336.070, 2058.903
336.552, 1961.370
337.034, 1877.268
337.516, 1799.657
337.998, 1732.114
338.480, 1664.950
338.963, 1588.411
339.445, 1504.394
339.927, 1421.799
340.409, 1342.871
340.891, 1268.785
341.373, 1202.640
341.855, 1145.704
342.337, 1090.362
342.819, 1031.572
343.302, 974.328
343.784, 926.301
344.266, 888.524
344.748, 855.930
345.230, 822.506
345.712, 787.527
346.194, 757.995
346.677, 737.050
347.159, 718.149
347.641, 698.795
348.123, 678.549
348.605, 656.405
349.087, 631.156
349.569, 604.399
350.051, 585.532
350.533, 585.360
351.016, 579.857
351.498, 563.917
351.980, 542.738
352.462, 520.069
352.944, 497.495
353.426, 477.771
353.908, 466.590
354.390, 467.050
354.872, 463.558
355.355, 453.172
355.837, 439.856
356.319, 421.675
356.801, 401.079
357.283, 386.203
357.765, 385.669
358.247, 395.683
358.729, 402.327
359.211, 406.832
359.694, 404.827
360.176, 385.442
360.658, 360.113
361.140, 346.152
361.622, 352.548
362.104, 363.833
362.586, 366.305
363.069, 360.865
363.551, 353.267
364.033, 344.315
364.515, 335.733
364.997, 330.869
365.479, 330.298
365.961, 329.197
366.443, 326.081
366.925, 321.791
367.408, 318.406
367.890, 315.962
368.372, 292.975
368.854, 318.493
369.336, 332.238
369.818, 334.841
370.300, 292.932
370.782, 308.501
371.264, 301.035
371.747, 292.625
372.229, 316.284
372.711, 280.849
373.193, 303.999
373.675, 303.763
374.157, 314.230
374.639, 301.520
375.121, 295.970
375.603, 313.603
376.086, 318.399
376.568, 303.022
377.050, 314.169
377.532, 277.924
378.014, 287.119
378.496, 280.447
378.978, 262.992
379.460, 253.264
379.943, 266.484
380.425, 291.481
380.907, 307.420
381.389, 304.879
381.871, 291.059
382.353, 272.393
382.835, 248.464
383.317, 231.660
383.799, 228.013
384.282, 233.012
384.764, 240.736
385.246, 252.972
385.728, 259.548
386.210, 250.821
386.692, 235.670
387.174, 229.463
387.656, 234.910
388.138, 240.676
388.621, 235.301
389.103, 217.858
389.585, 206.738
390.067, 202.326
390.549, 203.263
391.031, 212.380
391.513, 226.045
391.996, 238.675
392.478, 247.738
392.960, 251.640
393.442, 245.141
393.924, 215.878
394.406, 197.805
394.888, 199.256
395.370, 205.865
395.852, 207.409
396.335, 203.304
396.817, 199.759
397.299, 203.946
397.781, 215.033
398.263, 219.227
398.745, 212.148
399.227, 205.212
399.709, 203.087
400.191, 204.212
400.674, 206.632
401.156, 210.270
401.638, 213.792
402.120, 216.362
402.602, 217.842
403.084, 216.596
403.566, 211.682
404.048, 204.475
404.530, 195.603
405.013, 184.675
405.495, 177.220
405.977, 177.233
406.459, 179.860
406.941, 179.988
407.423, 177.481
407.905, 175.155
408.387, 175.008
408.870, 176.820
409.352, 178.800
409.834, 183.319
410.316, 185.133
410.798, 178.443
411.280, 170.619
411.762, 173.022
412.244, 188.003
412.727, 203.921
413.209, 202.199
413.691, 175.720
414.173, 161.063
414.655, 169.816
415.137, 180.165
415.619, 185.993
416.101, 187.048
416.583, 183.845
417.065, 174.852
417.548, 163.930
418.030, 159.878
418.512, 164.058
418.994, 165.103
419.476, 155.570
419.958, 143.498
420.440, 139.336
420.922, 144.396
421.405, 150.100
421.887, 151.287
422.369, 151.006
422.851, 155.744
423.333, 166.306
423.815, 174.388
424.297, 171.817
424.779, 159.261
425.262, 153.490
425.744, 159.856
426.226, 166.030
426.708, 170.133
427.190, 170.816
427.672, 164.686
428.154, 150.782
428.636, 134.855
429.118, 125.629
429.601, 123.465
430.083, 127.242
430.565, 145.209
431.047, 161.313
431.529, 169.172
432.011, 169.303
432.493, 164.035
432.975, 152.372
433.457, 138.814
433.940, 134.104
434.422, 139.773
434.904, 146.629
435.386, 154.725
435.868, 159.993
436.350, 156.395
436.832, 142.236
437.314, 130.040
437.797, 126.052
438.279, 127.714
438.761, 131.877
439.243, 138.140
439.725, 145.401
440.207, 153.940
440.689, 163.193
441.171, 165.029
441.654, 151.218
442.136, 140.900
442.618, 139.707
443.100, 144.967
443.582, 155.835
444.064, 171.175
444.546, 184.096
445.028, 183.152
445.510, 163.771
445.992, 151.232
446.475, 149.484
446.957, 151.215
447.439, 157.855
447.921, 165.654
448.403, 167.281
448.885, 157.764
449.367, 143.676
449.849, 133.923
450.332, 128.585
450.814, 127.458
451.296, 132.614
451.778, 139.611
452.260, 143.867
452.742, 145.502
453.224, 144.042
453.706, 132.420
454.189, 122.229
454.671, 128.837
455.153, 150.088
455.635, 169.570
456.117, 178.056
456.599, 176.086
457.081, 165.724
457.563, 129.041
458.045, 106.929
458.528, 108.559
459.010, 120.782
459.492, 136.299
459.974, 151.967
460.456, 163.576
460.938, 166.471
461.420, 161.307
461.902, 154.858
462.384, 143.902
462.867, 137.690
463.349, 142.641
463.831, 152.842
464.313, 162.542
464.795, 171.276
465.277, 175.863
465.759, 171.161
466.241, 160.276
466.724, 152.047
467.206, 148.090
467.688, 146.533
468.170, 146.004
468.652, 146.564
469.134, 147.597
469.616, 149.808
470.098, 151.712
470.581, 153.347
471.063, 154.097
471.545, 153.208
472.027, 150.390
472.509, 145.409
472.991, 136.742
473.473, 121.147
473.955, 113.431
474.437, 120.065
474.919, 128.738
475.402, 136.523
475.884, 142.917
476.366, 147.740
476.848, 151.318
477.330, 152.491
477.812, 148.193
478.294, 138.585
478.776, 130.286
479.259, 123.242
479.741, 120.788
480.223, 131.013
480.705, 153.291
481.187, 168.067
481.669, 168.808
482.151, 162.836
482.633, 150.383
483.116, 135.487
483.598, 130.429
484.080, 142.510
484.562, 162.680
485.044, 168.610
485.526, 148.084
486.008, 135.720
486.490, 138.521
486.972, 142.673
487.455, 139.784
487.937, 130.902
488.419, 121.104
488.901, 111.641
489.383, 105.582
489.865, 113.527
490.347, 138.563
490.829, 156.823
491.311, 160.026
491.794, 152.912
492.276, 138.479
492.758, 115.363
493.240, 102.488
493.722, 111.693
494.204, 130.408
494.686, 150.794
495.168, 169.816
495.651, 176.563
496.133, 163.251
496.615, 136.353
497.097, 117.177
497.579, 107.237
498.061, 103.503
498.543, 111.265
499.025, 120.626
499.508, 123.574
499.990, 121.002
500.472, 119.731
500.954, 124.592
501.436, 134.374
501.918, 147.286
502.400, 165.238
502.882, 177.406
503.364, 178.816
503.846, 173.044
504.329, 163.800
504.811, 150.529
505.293, 139.313
505.775, 131.689
506.257, 127.654
506.739, 128.676
507.221, 133.943
507.703, 138.990
508.186, 140.999
508.668, 141.002
509.150, 142.631
509.632, 151.380
510.114, 153.249
510.596, 142.160
511.078, 128.991
511.560, 119.281
512.042, 114.360
512.525, 115.143
513.007, 124.200
513.489, 137.922
513.971, 147.314
514.453, 152.417
514.935, 152.881
515.417, 148.495
515.899, 139.124
516.382, 121.821
516.864, 95.096
517.346, 78.029
517.828, 83.755
518.310, 96.730
518.792, 100.671
519.274, 97.505
519.756, 100.394
520.239, 117.403
520.721, 142.120
521.203, 157.140
521.685, 159.190
522.167, 157.123
522.649, 147.008
523.131, 137.065
523.613, 132.672
524.096, 132.716
524.578, 132.222
525.060, 126.560
525.542, 121.172
526.024, 128.625
526.506, 148.962
526.988, 164.210
527.470, 170.611
527.952, 167.769
528.435, 148.318
528.917, 111.496
529.399, 91.516
529.881, 109.124
530.363, 130.263
530.845, 130.765
531.327, 117.494
531.809, 108.453
532.291, 111.400
532.774, 120.152
533.256, 124.228
533.738, 123.064
534.220, 119.059
534.702, 107.235
535.184, 97.861
535.666, 96.453
536.148, 100.404
536.630, 104.882
537.113, 109.085
537.595, 111.138
538.077, 106.100
538.559, 96.866
539.041, 95.831
539.523, 106.835
540.005, 118.868
540.487, 120.872
540.969, 112.617
541.452, 108.573
541.934, 111.087
542.416, 114.575
542.898, 117.002
543.380, 119.735
543.862, 125.895
544.344, 135.559
544.826, 143.697
545.309, 145.029
545.791, 139.821
546.273, 129.815
546.755, 109.812
547.237, 97.426
547.719, 109.321
548.201, 129.612
548.683, 137.018
549.166, 127.198
549.648, 115.420
550.130, 106.327
550.612, 100.226
551.094, 99.496
551.576, 103.136
552.058, 103.991
552.540, 96.557
553.023, 84.628
553.505, 82.331
553.987, 98.536
554.469, 108.876
554.951, 107.613
555.433, 104.597
555.915, 109.745
556.397, 119.401
556.879, 118.551
557.362, 90.801
557.844, 57.549
558.326, 55.992
558.808, 83.578
559.290, 107.294
559.772, 118.059
560.254, 120.298
560.736, 117.001
561.218, 106.624
561.701, 104.062
562.183, 119.802
562.665, 132.436
563.147, 130.041
563.629, 119.056
564.111, 108.604
564.593, 101.987
565.075, 99.321
565.557, 103.358
566.040, 114.325
566.522, 115.326
567.004, 99.742
567.486, 87.153
567.968, 92.722
568.450, 105.574
568.932, 110.283
569.414, 103.389
569.896, 94.260
570.379, 81.224
570.861, 71.543
571.343, 80.204
571.825, 104.524
572.307, 121.046
572.789, 112.577
573.271, 88.266
573.753, 80.939
574.236, 104.164
574.718, 117.418
575.200, 111.689
575.682, 100.635
576.164, 87.965
576.646, 76.351
577.128, 71.966
577.610, 81.915
578.093, 95.013
578.575, 96.856
579.057, 89.825
579.539, 85.335
580.021, 86.783
580.503, 89.346
580.985, 86.660
581.467, 77.630
581.950, 78.427
582.432, 104.915
582.914, 120.756
583.396, 107.293
583.878, 82.899
584.360, 66.095
584.842, 61.807
585.324, 68.081
585.806, 89.323
586.289, 120.019
586.771, 139.274
587.253, 147.054
587.735, 141.776
588.217, 114.320
588.699, 80.575
589.181, 70.369
589.663, 87.840
590.145, 104.981
590.628, 122.410
591.110, 133.649
591.592, 129.563
592.074, 116.244
592.556, 108.456
593.038, 113.041
593.520, 121.234
594.002, 117.283
594.484, 99.520
594.967, 88.288
595.449, 87.307
595.931, 88.502
596.413, 89.300
596.895, 88.568
597.377, 82.463
597.859, 64.131
598.341, 54.890
598.823, 74.015
599.306, 102.376
599.788, 115.021
600.270, 111.085
600.752, 105.196
601.234, 107.508
601.716, 115.017
602.198, 117.079
602.680, 109.905
603.162, 107.159
603.645, 117.617
604.127, 126.437
604.609, 122.883
605.091, 110.330
605.573, 100.332
606.055, 98.273
606.537, 98.292
607.019, 93.609
607.502, 87.726
607.984, 90.872
608.466, 104.960
608.948, 118.016
609.430, 117.861
609.912, 105.754
610.394, 101.498
610.876, 114.135
611.359, 120.849
611.841, 117.915
612.323, 108.541
612.805, 89.136
613.287, 63.300
613.769, 49.150
614.251, 63.980
614.733, 90.726
615.216, 111.834
615.698, 126.214
616.180, 125.485
616.662, 105.417
617.144, 81.626
617.626, 73.780
618.108, 83.753
618.590, 90.843
619.072, 93.989
619.555, 95.483
620.037, 94.524
620.519, 92.863
621.001, 94.036
621.483, 97.865
621.965, 97.231
622.447, 80.854
622.929, 58.761
623.411, 50.870
623.894, 56.681
624.376, 66.794
624.858, 78.897
625.340, 89.714
625.822, 93.763
626.304, 88.579
626.786, 86.946
627.268, 95.262
627.750, 99.482
628.233, 89.649
628.715, 75.136
629.197, 68.929
629.679, 74.167
630.161, 81.773
630.643, 84.481
631.125, 83.324
631.607, 79.295
632.089, 72.437
632.572, 69.723
633.054, 75.250
633.536, 85.160
634.018, 92.946
634.500, 99.229
634.982, 101.040
635.464, 92.515
635.946, 85.967
636.429, 91.557
636.911, 100.839
637.393, 98.471
637.875, 79.746
638.357, 61.447
638.839, 60.761
639.321, 73.456
639.803, 90.792
640.286, 112.831
640.768, 123.600
641.250, 111.948
641.732, 88.928
642.214, 76.859
642.696, 81.600
643.178, 83.232
643.660, 79.996
644.143, 75.595
644.625, 71.272
645.107, 67.091
645.589, 61.375
646.071, 53.435
646.553, 50.311
647.035, 65.121
647.517, 89.555
647.999, 97.859
648.482, 88.059
648.964, 75.090
649.446, 65.153
649.928, 58.830
650.410, 57.890
650.892, 65.645
651.374, 70.768
651.856, 71.046
652.338, 71.215
652.821, 74.618
653.303, 78.917
653.785, 80.021
654.267, 76.597
654.749, 71.762
655.231, 69.662
655.713, 68.008
656.195, 56.775
656.677, 36.172
657.160, 28.986
657.642, 49.290
658.124, 83.361
658.606, 104.538
659.088, 110.373
659.570, 109.733
660.052, 96.618
660.534, 84.190
661.016, 74.880
661.499, 70.404
661.981, 76.672
662.463, 95.766
662.945, 107.554
663.427, 86.215
663.909, 51.808
664.391, 41.621
664.873, 54.864
665.356, 70.849
665.838, 80.225
666.320, 86.796
666.802, 98.387
667.284, 119.630
667.766, 126.015
668.248, 105.899
668.730, 83.994
669.213, 61.611
669.695, 44.316
670.177, 41.023
670.659, 53.581
671.141, 64.849
671.623, 60.689
672.105, 52.821
672.587, 56.994
673.070, 70.518
673.552, 82.221
674.034, 87.915
674.516, 87.867
674.998, 81.598
675.480, 68.538
675.962, 57.554
676.444, 47.627
676.926, 41.632
677.409, 41.934
677.891, 45.702
678.373, 52.005
678.855, 60.661
679.337, 65.443
679.819, 56.269
680.301, 49.717
680.783, 65.426
681.265, 91.761
681.748, 105.535
682.230, 100.398
682.712, 85.191
683.194, 65.852
683.676, 44.771
684.158, 40.633
684.640, 59.255
685.122, 72.504
685.604, 68.483
686.087, 60.310
686.569, 64.073
687.051, 78.328
687.533, 86.365
688.015, 86.762
688.497, 79.907
688.979, 57.713
689.461, 33.053
689.943, 21.307
690.426, 23.768
690.908, 32.127
691.390, 42.321
691.872, 51.408
692.354, 49.955
692.836, 38.460
693.318, 35.651
693.800, 47.506
694.283, 62.050
694.765, 69.868
695.247, 71.320
695.729, 68.983
696.211, 63.009
696.693, 53.199
697.175, 26.958
697.657, 7.583
698.140, 19.122
698.622, 51.956
699.104, 77.211
699.586, 81.702
700.068, 75.307
700.550, 62.809
701.032, 48.214
701.514, 42.966
701.997, 47.967
702.479, 55.186
702.961, 60.358
703.443, 62.594
703.925, 58.821
704.407, 44.666
704.889, 35.980
705.371, 36.063
705.853, 38.109
706.336, 42.139
706.818, 45.225
707.300, 41.704
707.782, 29.173
708.264, 18.763
708.746, 15.477
709.228, 16.953
709.710, 22.153
710.192, 30.040
710.675, 40.178
711.157, 52.144
711.639, 60.291
712.121, 54.875
712.603, 37.159
713.085, 27.390
713.567, 27.384
714.049, 28.026
714.531, 25.082
715.014, 22.278
715.496, 25.947
715.978, 36.743
716.460, 42.656
716.942, 33.780
717.424, 30.916
717.906, 50.227
718.388, 74.061
718.870, 81.877
719.353, 72.414
719.835, 58.836
720.317, 47.848
720.799, 40.179
721.281, 37.469
721.763, 39.168
722.245, 44.100
722.727, 52.262
723.210, 57.754
723.692, 54.694
724.174, 45.610
724.656, 43.452
725.138, 52.376
725.620, 59.755
726.102, 63.918
726.584, 66.926
727.067, 70.882
727.549, 74.256
728.031, 73.641
728.513, 67.738
728.995, 59.395
729.477, 45.090
729.959, 32.655
730.441, 32.854
730.924, 42.554
731.406, 51.003
731.888, 53.388
732.370, 51.236
732.852, 45.111
733.334, 35.462
733.816, 29.375
734.298, 27.364
734.780, 26.537
735.263, 25.710
735.745, 25.559
736.227, 27.852
736.709, 33.734
737.191, 34.714
737.673, 24.114
738.155, 17.001
738.637, 18.228
739.119, 24.782
739.602, 35.902
740.084, 49.901
740.566, 60.796
741.048, 66.558
741.530, 66.017
742.012, 53.010
742.494, 33.551
742.976, 23.065
743.458, 23.785
743.941, 25.529
744.423, 20.287
744.905, 11.429
745.387, 9.142
745.869, 14.338
746.351, 22.125
746.833, 31.908
747.315, 44.596
747.797, 66.714
748.280, 90.457
748.762, 98.646
749.244, 87.002
749.726, 71.414
750.208, 46.523
750.690, 26.868
751.172, 25.799
751.654, 34.926
752.137, 39.390
752.619, 35.180
753.101, 30.548
753.583, 34.596
754.065, 42.345
754.547, 42.946
755.029, 37.718
755.511, 35.525
755.994, 39.311
756.476, 42.799
756.958, 38.574
757.440, 27.990
757.922, 25.324
758.404, 33.408
758.886, 43.199
759.368, 59.196
759.851, 70.295
760.333, 66.338
760.815, 51.610
761.297, 39.076
761.779, 30.228
762.261, 24.434
762.743, 21.990
763.225, 22.032
763.707, 24.695
764.190, 29.071
764.672, 34.542
765.154, 40.986
765.636, 43.740
766.118, 33.776
766.600, 16.952
767.082, 9.487
767.564, 11.549
768.046, 17.906
768.529, 27.203
769.011, 35.976
769.493, 38.778
769.975, 35.474
770.457, 42.169
770.939, 71.094
771.421, 86.338
771.903, 70.963
772.385, 47.067
772.868, 26.390
773.350, 10.880
773.832, 8.074
774.314, 33.783
774.796, 51.018
775.278, 36.355
775.760, 15.489
776.242, 13.981
776.724, 27.488
777.207, 38.017
777.689, 37.616
778.171, 31.513
778.653, 20.347
779.135, 9.156
779.617, 15.588
780.099, 38.288
780.581, 54.077
781.064, 53.194
781.546, 43.338
782.028, 34.408
782.510, 26.422
782.992, 15.079
783.474, -8.007
783.956, -14.383
784.438, 19.913
784.920, 56.819
785.403, 55.904
785.885, 25.529
786.367, 10.094
786.849, 28.745
787.331, 43.009
787.813, 38.808
788.295, 29.868
788.778, 27.038
789.260, 29.017
789.742, 30.082
790.224, 28.003
790.706, 24.510
791.188, 19.178
791.670, 14.446
792.152, 16.143
792.634, 22.968
793.117, 27.910
793.599, 28.379
794.081, 25.999
794.563, 21.861
795.045, 16.576
795.527, 15.971
796.009, 20.481
796.491, 28.410
796.973, 42.281
797.456, 54.383
797.938, 56.856
798.420, 51.415
798.902, 49.016
799.384, 54.362
799.866, 55.581
800.348, 50.564
800.830, 42.569
801.312, 29.143
801.795, 15.489
802.277, 11.048
802.759, 18.761
803.241, 28.093
803.723, 32.866
804.205, 36.356
804.687, 42.492
805.169, 49.800
805.652, 56.073
806.134, 60.147
806.616, 58.518
807.098, 45.898
807.580, 28.275
808.062, 22.400
808.544, 27.442
809.026, 30.565
809.508, 29.465
809.991, 26.683
810.473, 23.327
810.955, 20.428
811.437, 20.429
811.919, 21.193
812.401, 31.812
812.883, 70.887
813.365, 94.175
813.847, 66.088
814.330, 23.483
814.812, 12.229
815.294, 36.117
815.776, 53.054
816.258, 50.677
816.740, 43.966
817.222, 36.367
817.705, 29.820
818.187, 25.950
818.669, 24.917
819.151, 26.783
819.633, 33.006
820.115, 37.969
820.597, 31.390
821.079, 21.399
821.561, 28.221
822.044, 48.467
822.526, 54.894
823.008, 34.935
823.490, 11.430
823.972, 18.973
824.454, 53.394
824.936, 74.148
825.418, 80.801
825.901, 74.370
826.383, 49.048
826.865, 27.937
827.347, 37.320
827.829, 71.804
828.311, 88.285
828.793, 77.115
829.275, 64.775
829.757, 45.898
830.240, 33.438
830.722, 38.414
831.204, 52.513
831.686, 62.213
832.168, 66.038
832.650, 64.162
833.132, 51.600
833.614, 38.790
834.096, 29.717
834.579, 25.366
835.061, 29.058
835.543, 39.314
836.025, 46.693
836.507, 43.325
836.989, 37.958
837.471, 44.413
837.953, 55.363
838.435, 53.705
838.918, 39.314
839.400, 22.269
839.882, 7.361
840.364, 0.088
840.846, 15.250
841.328, 49.807
841.810, 64.269
842.292, 56.724
842.774, 43.816
843.257, 29.188
843.739, 16.455
844.221, 9.478
844.703, 7.947
845.185, 8.251
845.667, 9.849
846.149, 14.494
846.631, 26.693
847.114, 37.211
847.596, 41.523
848.078, 40.521
848.560, 34.264
849.042, 19.624
849.524, 12.364
850.006, 22.341
850.488, 32.732
850.971, 33.717
851.453, 31.520
851.935, 35.915
852.417, 46.310
852.899, 51.107
853.381, 40.598
853.863, 29.024
854.345, 31.829
854.828, 38.748
855.310, 32.807
855.792, 16.390
856.274, 3.075
856.756, -0.935
857.238, 1.054
857.720, 6.966
858.202, 15.340
858.684, 21.655
859.167, 26.065
859.649, 30.578
860.131, 35.839
860.613, 39.839
861.095, 41.653
861.577, 39.488
862.059, 21.785
862.541, -17.961
863.023, -31.032
863.506, -1.912
863.988, 24.496
864.470, 20.419
864.952, 4.233
865.434, 10.828
865.916, 48.242
866.398, 66.026
866.880, 44.093
867.362, 28.954
867.845, 36.313
868.327, 47.632
868.809, 48.620
869.291, 40.721
869.773, 31.179
870.255, 16.277
870.737, 10.300
871.219, 26.902
871.701, 44.987
872.184, 48.143
872.666, 43.083
873.148, 43.756
873.630, 52.662
874.112, 57.353
874.594, 48.803
875.076, 33.743
875.558, 11.397
876.041, -9.964
876.523, -13.568
877.005, -0.893
877.487, 10.550
877.969, 10.702
878.451, 11.651
878.933, 36.592
879.415, 74.226
879.898, 88.734
880.380, 81.211
880.862, 69.901
881.344, 60.684
881.826, 54.250
882.308, 51.143
882.790, 51.563
883.272, 59.670
883.755, 77.367
884.237, 76.032
884.719, 45.628
885.201, 23.231
885.683, 31.332
886.165, 57.867
886.647, 83.811
887.129, 113.424
887.611, 110.686
888.094, 47.964
888.576, 3.674
889.058, 7.943
889.540, 26.610
890.022, 29.662
890.504, 22.384
890.986, 27.035
891.468, 59.899
891.950, 75.913
892.433, 56.940
892.915, 35.193
893.397, 21.225
893.879, 16.665
894.361, 28.059
894.843, 54.174
895.325, 68.280
895.807, 48.316
896.289, 29.157
896.772, 31.365
897.254, 40.520
897.736, 43.259
898.218, 39.798
898.700, 35.189
899.182, 31.241
899.664, 27.040
900.146, 18.342
900.628, 11.834
901.111, 18.250
901.593, 32.120
902.075, 44.073
902.557, 51.012
903.039, 49.079
903.521, 33.073
904.003, 16.104
904.485, 23.121
904.968, 44.228
905.450, 50.431
905.932, 41.021
906.414, 24.735
906.896, 5.065
907.378, -9.031
907.860, -5.867
908.342, 10.220
908.825, 23.379
909.307, 33.582
909.789, 39.475
910.271, 40.739
910.753, 37.336
911.235, 27.699
911.717, 17.935
912.199, 22.661
912.682, 44.673
913.164, 40.949
913.646, -2.144
914.128, -24.462
914.610, -0.935
915.092, 30.437
915.574, 36.307
916.056, 23.049
916.538, 18.584
917.021, 30.372
917.503, 34.889
917.985, 24.189
918.467, 17.104
918.949, 28.360
919.431, 41.819
919.913, 34.465
920.395, 7.457
920.877, -4.413
921.360, 8.967
921.842, 26.181
922.324, 57.101
922.806, 77.384
923.288, 62.069
923.770, 29.749
924.252, 12.917
924.734, 17.206
925.216, 25.785
925.699, 36.895
926.181, 47.138
926.663, 60.402
927.145, 67.880
927.627, 50.053
928.109, 19.352
928.591, 16.929
929.073, 63.919
929.555, 99.634
930.038, 79.402
930.520, 41.538
931.002, 7.118
931.484, -16.409
931.966, -13.929
932.448, 11.029
932.930, 30.778
933.412, 25.503
933.895, 22.153
934.377, 61.317
934.859, 109.200
935.341, 113.118
935.823, 82.591
936.305, 47.220
936.787, 18.372
937.269, 3.400
937.752, 12.114
938.234, 32.928
938.716, 55.740
939.198, 74.187
939.680, 65.280
940.162, 32.271
940.644, 3.238
941.126, -9.238
941.609, -9.775
942.091, -0.157
942.573, 15.221
943.055, 23.684
943.537, 14.795
944.019, 27.226
944.501, 34.482
944.983, 36.841
945.465, 19.633
945.948, 27.691
946.430, 25.624
946.912, 23.141
947.394, 34.756
947.876, 20.394
948.358, 31.784
948.840, 31.012
949.322, 31.580
949.804, 32.151
950.287, 31.756
950.769, 25.007
951.251, 9.980
951.733, 15.547
952.215, 49.411
952.697, 64.556
953.179, 39.442
953.661, 7.550
954.143, 4.481
954.626, 23.121
955.108, 25.675
955.590, 5.008
956.072, -2.196
956.554, 12.717
957.036, 23.359
957.518, 13.882
958.000, 2.056
958.482, 12.937
958.965, 45.134
959.447, 64.439
959.929, 68.905
960.411, 64.435
960.893, 45.866
961.375, 27.765
961.857, 19.039
962.339, 14.067
962.822, 1.807
963.304, -19.670
963.786, -26.711
964.268, -9.298
964.750, 6.127
965.232, 18.039
965.714, 24.881
966.196, 22.799
966.679, 15.961
967.161, 12.139
967.643, 10.813
968.125, 14.776
968.607, 32.649
969.089, 44.086
969.571, 42.370
970.053, 35.166
970.536, 23.295
971.018, 10.942
971.500, 9.410
971.982, 24.025
972.464, 33.365
972.946, 33.973
973.428, 30.301
973.910, 16.101
974.392, 4.644
974.875, 11.515
975.357, 30.938
975.839, 41.441
976.321, 36.160
976.803, 33.009
977.285, 37.941
977.767, 42.656
978.249, 45.454
978.731, 44.784
979.214, 36.662
979.696, 23.341
980.178, 14.930
980.660, 15.449
981.142, 16.607
981.624, 16.427
982.106, 16.001
982.588, 12.044
983.070, 10.725
983.553, 24.498
984.035, 49.813
984.517, 61.235
984.999, 41.470
985.481, 27.772
985.963, 39.789
986.445, 54.190
986.927, 60.442
987.409, 57.410
987.892, 38.255
988.374, 6.824
988.856, -9.027
989.338, 13.250
989.820, 29.624
990.302, 14.478
990.784, -4.506
991.266, -10.630
991.749, -5.786
992.231, 10.567
992.713, 35.417
993.195, 47.159
993.677, 26.596
994.159, 8.318
994.641, 13.385
995.123, 21.162
995.606, 10.440
996.088, -6.832
996.570, -6.908
997.052, 12.534
997.534, 27.745
998.016, 28.787
998.498, 23.536
998.980, 4.337
999.463, -9.118
999.945, 7.711
1000.427, 38.885
1000.909, 55.693
1001.391, 53.086
1001.873, 46.930
1002.355, 40.100
1002.837, 36.529
1003.319, 41.714
1003.802, 47.682
1004.284, 50.317
1004.766, 47.530
1005.248, 32.573
1005.730, 5.511
1006.212, -10.914
1006.694, -2.059
1007.176, 13.516
1007.658, 33.999
1008.141, 50.832
1008.623, 58.801
1009.105, 56.555
1009.587, 34.415
1010.069, -7.115
1010.551, -24.537
1011.033, 31.450
1011.515, 75.375
1011.997, 49.560
1012.480, 11.469
1012.962, 12.305
1013.444, 35.874
1013.926, 46.525
1014.408, 37.677
1014.890, 25.041
1015.372, 3.336
1015.854, -5.939
1016.337, 20.539
1016.819, 50.013
1017.301, 55.338
1017.783, 44.683
1018.265, 32.244
1018.747, 21.114
1019.229, 19.014
1019.711, 43.757
1020.193, 57.449
1020.676, 29.395
1021.158, 1.043
1021.640, 9.247
1022.122, 36.095
1022.604, 48.878
1023.086, 43.118
1023.568, 38.766
1024.050, 53.022
1024.533, 53.437
1025.015, 8.151
1025.497, -32.229
1025.979, -20.877
1026.461, 11.865
1026.943, 12.195
1027.425, -24.208
1027.907, -42.785
1028.390, -17.078
1028.872, 6.686
1029.354, 19.554
1029.836, 25.875
1030.318, 25.966
1030.800, 22.495
1031.282, 16.245
1031.764, 7.976
1032.246, 9.291
1032.729, 31.142
1033.211, 48.713
1033.693, 63.446
1034.175, 67.377
1034.657, 44.197
1035.139, 15.482
1035.621, 12.533
1036.103, 34.036
1036.585, 43.411
1037.068, 25.707
1037.550, 15.996
1038.032, 21.174
1038.514, 28.638
1038.996, 37.938
1039.478, 43.702
1039.960, 38.527
1040.442, 23.689
1040.925, 9.985
1041.407, -12.784
1041.889, -14.212
1042.371, 27.735
1042.853, 56.462
1043.335, 44.885
1043.817, 20.053
1044.299, 6.135
1044.781, 2.397
1045.264, 5.938
1045.746, 22.207
1046.228, 30.028
1046.710, 23.653
1047.192, 22.404
1047.674, 35.274
1048.156, 49.758
1048.638, 55.582
1049.120, 53.913
1049.603, 46.993
1050.085, 31.600
1050.567, 30.109
1051.049, 48.742
1051.531, 54.811
1052.013, 35.300
1052.495, 17.143
1052.977, 22.046
1053.460, 39.470
1053.942, 44.345
1054.424, 36.185
1054.906, 34.998
1055.388, 41.552
1055.870, 44.931
1056.352, 42.202
1056.834, 42.076
1057.317, 50.804
1057.799, 61.895
1058.281, 63.542
1058.763, 57.587
1059.245, 58.142
1059.727, 64.431
1060.209, 66.605
1060.691, 62.996
1061.173, 52.404
1061.656, 33.707
1062.138, 17.954
1062.620, 22.096
1063.102, 37.516
1063.584, 40.209
1064.066, 33.031
1064.548, 24.415
1065.030, 16.648
1065.512, 16.671
1065.995, 26.703
1066.477, 35.602
1066.959, 31.846
1067.441, 22.560
1067.923, 18.232
1068.405, 17.302
1068.887, 14.136
1069.369, 11.719
1069.852, 23.978
1070.334, 51.933
1070.816, 71.568
1071.298, 63.520
1071.780, 48.875
1072.262, 50.450
1072.744, 55.794
1073.226, 44.505
1073.708, 27.630
1074.191, 33.447
1074.673, 59.484
1075.155, 66.478
1075.637, 28.559
1076.119, -3.224
1076.601, 7.476
1077.083, 30.379
1077.565, 54.255
1078.047, 68.701
1078.530, 52.156
1079.012, 16.418
1079.494, 5.657
1079.976, 38.556
1080.458, 58.530
1080.940, 31.021
1081.422, 8.293
1081.904, 19.323
1082.386, 37.186
1082.869, 39.285
1083.351, 30.916
1083.833, 24.857
1084.315, 21.574
1084.797, 25.925
1085.279, 50.882
1085.761, 64.770
1086.243, 54.448
1086.726, 42.619
1087.208, 44.033
1087.690, 47.651
1088.172, 35.550
1088.654, 8.842
1089.136, -4.757
1089.618, -3.175
1090.100, 7.138
1090.583, 31.123
1091.065, 45.973
1091.547, 32.614
1092.029, 24.408
1092.511, 33.022
1092.993, 37.553
1093.475, 38.220
1093.957, 23.453
1094.439, 28.346
1094.922, -2.058
1095.404, -7.973
1095.886, 4.828
1096.368, 16.102
1096.850, 11.075
1097.332, -1.706
1097.814, -10.249
1098.296, -13.397
1098.778, -0.392
1099.261, 23.202
1099.743, 28.889
1100.225, 15.354
1100.707, 6.077
1101.189, 12.069
1101.671, 20.235
1102.153, 15.055
1102.635, 6.411
1103.118, 10.062
1103.600, 19.936
1104.082, 27.564
1104.564, 31.402
1105.046, 27.792
1105.528, 17.537
1106.010, 14.505
1106.492, 32.780
1106.974, 48.160
1107.457, 40.236
1107.939, 24.963
1108.421, 10.783
1108.903, 1.746
1109.385, 2.604
1109.867, 12.770
1110.349, 28.937
1110.831, 55.694
1111.313, 70.277
1111.796, 63.714
1112.278, 47.285
1112.760, 9.337
1113.242, -21.807
1113.724, -14.912
1114.206, 14.260
1114.688, 26.356
1115.170, 17.902
1115.653, 15.422
1116.135, 20.925
1116.617, 28.591
1117.099, 40.002
1117.581, 48.966
1118.063, 52.632
1118.545, 52.122
1119.027, 48.268
1119.510, 41.717
1119.992, 34.210
1120.474, 24.719
1120.956, 31.982
1121.438, 59.052
1121.920, 67.381
1122.402, 44.532
1122.884, 19.280
1123.366, 13.831
1123.849, 19.290
1124.331, 21.259
1124.813, 20.730
1125.295, 22.216
1125.777, 24.018
1126.259, 16.697
1126.741, 2.189
1127.223, -1.909
1127.705, 11.805
1128.188, 26.981
1128.670, 30.944
1129.152, 26.868
1129.634, 9.580
1130.116, -7.017
1130.598, -1.965
1131.080, 16.386
1131.562, 30.991
1132.045, 37.824
1132.527, 37.411
1133.009, 26.952
1133.491, 16.163
1133.973, 6.779
1134.455, 0.678
1134.937, 4.475
1135.419, 7.477
1135.901, -11.476
1136.384, -39.199
1136.866, -28.374
1137.348, 40.001
1137.830, 73.274
1138.312, 49.132
1138.794, 32.951
1139.276, 38.204
1139.758, 46.297
1140.240, 51.731
1140.723, 46.260
1141.205, 12.512
1141.687, -38.663
1142.169, -37.551
1142.651, 18.758
1143.133, 33.593
1143.615, 1.018
1144.097, -15.068
1144.580, 4.050
1145.062, 29.052
1145.544, 39.581
1146.026, 37.208
1146.508, 14.484
1146.990, -14.022
1147.472, -12.628
1147.954, 8.482
1148.437, 29.349
1148.919, 43.874
1149.401, 42.978
1149.883, 24.435
1150.365, 6.486
1150.847, -2.018
1151.329, -0.854
1151.811, 22.787
1152.293, 43.644
1152.776, 30.481
1153.258, 5.573
1153.740, 2.854
1154.222, 21.955
1154.704, 40.297
1155.186, 57.032
1155.668, 63.719
1156.150, 52.338
1156.632, 40.591
1157.115, 33.454
1157.597, 26.101
1158.079, 13.766
1158.561, 1.203
1159.043, -2.587
1159.525, 1.681
1160.007, -0.008
1160.489, -9.305
1160.972, -9.117
1161.454, 2.994
1161.936, 10.103
1162.418, 6.006
1162.900, -0.161
1163.382, -5.061
1163.864, 11.861
1164.346, 2.740
1164.828, 17.518
1165.311, 26.498
1165.793, 29.986
1166.275, 11.541
1166.757, 21.417
1167.239, 19.944
1167.721, 18.004
1168.203, 25.617
1168.685, -3.281
1169.167, -19.017
1169.650, 2.453
1170.132, 31.146
1170.614, 47.644
1171.096, 51.671
1171.578, 38.754
1172.060, 14.503
1172.542, 4.640
1173.024, 17.886
1173.507, 30.934
1173.989, 44.491
1174.471, 54.450
1174.953, 62.376
1175.435, 61.523
1175.917, 43.575
1176.399, 22.406
1176.881, 19.377
1177.364, 30.637
1177.846, 32.545
1178.328, 25.265
1178.810, 18.454
1179.292, 12.806
1179.774, 7.907
1180.256, 3.818
1180.738, 3.292
1181.220, 8.676
1181.703, 13.478
1182.185, 7.299
1182.667, -2.398
1183.149, -5.042
1183.631, -3.592
1184.113, -4.640
1184.595, -5.386
1185.077, 5.720
1185.559, 29.112
1186.042, 41.962
1186.524, 25.588
1187.006, 15.922
1187.488, 34.463
1187.970, 50.128
1188.452, 44.334
1188.934, 32.693
1189.416, 28.999
1189.899, 30.633
1190.381, 32.264
1190.863, 34.111
1191.345, 31.233
1191.827, 21.678
1192.309, 18.267
1192.791, 23.369
1193.273, 26.349
1193.755, 22.773
1194.238, 20.290
1194.720, 26.046
1195.202, 35.652
1195.684, 40.035
1196.166, 42.834
1196.648, 61.392
1197.130, 82.359
1197.612, 65.726
1198.094, 19.801
1198.577, -11.060
1199.059, -12.446
1199.541, -3.195
1200.023, 12.682
1200.505, 26.418
1200.987, 37.432
1201.469, 40.488
1201.951, 27.202
1202.434, 8.002
1202.916, -12.035
1203.398, -27.226
1203.880, -22.942
1204.362, 0.259
1204.844, 19.047
1205.326, 10.003
1205.808, 27.316
1206.291, 33.525
1206.773, 4.646
1207.255, 14.486
1207.737, 15.949
1208.219, 18.196
1208.701, 25.205
1209.183, 13.442
1209.665, -6.909
1210.147, -8.449
1210.630, 5.147
1211.112, 29.011
1211.594, 55.775
1212.076, 64.560
1212.558, 49.120
1213.040, 32.945
1213.522, 19.279
1214.004, 31.095
1214.486, 36.726
1214.969, 36.498
1215.451, 12.889
1215.933, 19.478
1216.415, 13.965
1216.897, 7.957
1217.379, 18.796
1217.861, 1.411
1218.343, 7.508
1218.826, 7.030
1219.308, 18.700
1219.790, 32.345
1220.272, 47.311
1220.754, 63.961
1221.236, 70.770
1221.718, 54.853
1222.200, 35.800
1222.682, 56.513
1223.165, 91.842
1223.647, 88.230
1224.129, 59.797
1224.611, 30.507
1225.093, 6.658
1225.575, -5.823
1226.057, -6.140
1226.539, -4.862
1227.021, -9.328
1227.504, -7.379
1227.986, 13.616
1228.468, 30.942
1228.950, 31.532
1229.432, 27.196
1229.914, 28.894
1230.396, 29.812
1230.878, 13.996
1231.361, -16.102
1231.843, -21.249
1232.325, -0.437
1232.807, 25.321
1233.289, 53.834
1233.771, 72.916
1234.253, 79.180
1234.735, 74.617
1235.218, 59.620
1235.700, 43.761
1236.182, 35.600
1236.664, 34.079
1237.146, 44.591
1237.628, 55.550
1238.110, 49.563
1238.592, 35.656
1239.074, 31.207
1239.557, 37.182
1240.039, 42.906
1240.521, 46.246
1241.003, 50.317
1241.485, 57.765
1241.967, 61.298
1242.449, 59.924
1242.931, 52.004
1243.413, 32.965
1243.896, 21.590
1244.378, 43.322
1244.860, 78.890
1245.342, 74.051
1245.824, 41.256
1246.306, 23.291
1246.788, 18.452
1247.270, 18.860
1247.753, 21.696
1248.235, 24.855
1248.717, 27.227
1249.199, 23.589
1249.681, 4.363
1250.163, -9.483
1250.645, -0.968
1251.127, 6.366
1251.609, -5.839
1252.092, -19.773
1252.574, -18.873
1253.056, -8.375
1253.538, 3.530
1254.020, 16.184
1254.502, 16.014
1254.984, 1.823
1255.466, -2.007
1255.948, 5.729
1256.431, 7.769
1256.913, 0.792
1257.395, 4.101
1257.877, 29.510
1258.359, 54.146
1258.841, 52.418
1259.323, 41.223
1259.805, 31.101
1260.288, 26.079
1260.770, 38.695
1261.252, 53.687
1261.734, 44.766
1262.216, 16.650
1262.698, -0.520
1263.180, -2.762
1263.662, 0.883
1264.145, 14.916
1264.627, 20.642
1265.109, 13.321
1265.591, 10.976
1266.073, 21.041
1266.555, 31.609
1267.037, 32.661
1267.519, 29.081
1268.001, 28.436
1268.484, 28.599
1268.966, 24.602
1269.448, 19.303
1269.930, 18.871
1270.412, 20.728
1270.894, 16.459
1271.376, 6.493
1271.858, 3.485
1272.340, 14.255
1272.823, 21.588
##END=



