##NAMES=Bournonite
##RRUFFID=R050111
##IDEAL CHEMISTRY=Cu^1+^Pb^2+^Sb^3+^S^2-^_3_
##LOCALITY=Yao Gang Xian mine, Chenzhou, Hunan Province, China
##OWNER=RRUFF
##SOURCE=He Xin Jian
##DESCRIPTION=Steel-gray short prismatic crystal
##STATUS=The identification of this mineral has been confirmed by X-ray diffraction and chemical analysis
##URL=rruff.info/R050111
##MEASURED CHEMISTRY=PbCuSbS_3_
175.038, 5753.906
175.520, 5751.738
176.002, 5750.537
176.484, 5756.979
176.966, 5770.750
177.449, 5788.942
177.931, 5815.426
178.413, 5844.692
178.895, 5864.551
179.377, 5861.701
179.859, 5850.531
180.341, 5855.740
180.823, 5877.840
181.305, 5906.730
181.788, 5937.690
182.270, 5968.562
182.752, 5992.769
183.234, 5999.774
183.716, 5998.241
184.198, 6004.249
184.680, 6016.971
185.162, 6028.062
185.645, 6037.611
186.127, 6041.000
186.609, 6052.344
187.091, 6060.500
187.573, 6068.526
188.055, 6079.234
188.537, 6094.250
189.019, 6126.562
189.501, 6142.856
189.984, 6143.103
190.466, 6121.399
190.948, 6062.058
191.430, 5971.024
191.912, 5896.853
192.394, 5842.835
192.876, 5807.578
193.358, 5798.885
193.840, 5819.061
194.323, 5829.111
194.805, 5795.422
195.287, 5719.877
195.769, 5658.830
196.251, 5617.022
196.733, 5593.708
197.215, 5590.558
197.697, 5609.964
198.180, 5635.029
198.662, 5657.085
199.144, 5676.800
199.626, 5685.117
200.108, 5677.502
200.590, 5658.648
201.072, 5645.259
201.554, 5636.679
202.036, 5635.228
202.519, 5646.650
203.001, 5673.654
203.483, 5691.538
203.965, 5691.653
204.447, 5678.164
204.929, 5683.003
205.411, 5715.347
205.893, 5742.709
206.376, 5728.661
206.858, 5661.808
207.340, 5606.406
207.822, 5579.151
208.304, 5577.728
208.786, 5570.198
209.268, 5557.836
209.750, 5537.768
210.232, 5503.249
210.714, 5448.269
211.197, 5401.958
211.679, 5373.758
212.161, 5364.175
212.643, 5349.969
213.125, 5329.585
213.607, 5307.233
214.089, 5287.522
214.572, 5270.998
215.054, 5255.352
215.536, 5238.667
216.018, 5219.842
216.500, 5210.174
216.982, 5212.750
217.464, 5220.939
217.946, 5226.339
218.428, 5228.558
218.911, 5228.252
219.393, 5226.583
219.875, 5224.754
220.357, 5212.363
220.839, 5182.006
221.321, 5147.174
221.803, 5128.724
222.285, 5135.064
222.767, 5141.772
223.250, 5140.282
223.732, 5127.719
224.214, 5119.913
224.696, 5118.190
225.178, 5120.541
225.660, 5123.932
226.142, 5129.984
226.624, 5134.216
227.107, 5134.860
227.589, 5131.110
228.071, 5126.012
228.553, 5119.076
229.035, 5110.719
229.517, 5101.745
229.999, 5090.866
230.481, 5080.919
230.963, 5072.658
231.445, 5065.244
231.928, 5061.626
232.410, 5062.500
232.892, 5066.953
233.374, 5073.596
233.856, 5086.166
234.338, 5095.268
234.820, 5095.737
235.303, 5080.312
235.785, 5074.463
236.267, 5082.183
236.749, 5098.484
237.231, 5111.120
237.713, 5120.668
238.195, 5125.669
238.677, 5123.066
239.159, 5101.008
239.641, 5098.526
240.124, 5121.514
240.606, 5162.954
241.088, 5204.142
241.570, 5241.689
242.052, 5283.262
242.534, 5333.234
243.016, 5397.891
243.498, 5457.146
243.981, 5509.901
244.463, 5557.113
244.945, 5601.979
245.427, 5646.061
245.909, 5685.102
246.391, 5714.730
246.873, 5721.761
247.355, 5749.163
247.837, 5805.953
248.320, 5881.965
248.802, 5948.723
249.284, 6008.699
249.766, 6054.710
250.248, 6084.326
250.730, 6098.916
251.212, 6095.715
251.694, 6080.783
252.176, 6047.509
252.659, 5970.239
253.141, 5826.483
253.623, 5674.238
254.105, 5539.455
254.587, 5428.123
255.069, 5321.785
255.551, 5214.628
256.033, 5113.695
256.516, 5039.426
256.998, 5003.096
257.480, 4974.076
257.962, 4935.209
258.444, 4875.879
258.926, 4835.903
259.408, 4822.398
259.890, 4826.551
260.372, 4822.829
260.855, 4807.581
261.337, 4790.755
261.819, 4776.882
262.301, 4765.782
262.783, 4757.499
263.265, 4751.887
263.747, 4748.999
264.229, 4750.925
264.711, 4762.740
265.194, 4768.254
265.676, 4755.240
266.158, 4715.668
266.640, 4691.772
267.122, 4690.144
267.604, 4701.898
268.086, 4705.992
268.569, 4702.171
269.051, 4691.723
269.533, 4671.887
270.015, 4638.460
270.497, 4618.537
270.979, 4616.742
271.461, 4625.569
271.943, 4628.879
272.425, 4626.002
272.908, 4620.222
273.390, 4611.142
273.872, 4597.512
274.354, 4592.464
274.836, 4599.862
275.318, 4611.782
275.800, 4609.284
276.282, 4588.013
276.764, 4572.171
277.247, 4578.558
277.729, 4610.042
278.211, 4623.736
278.693, 4615.227
279.175, 4594.496
279.657, 4575.221
280.139, 4556.123
280.621, 4547.916
281.103, 4562.115
281.586, 4598.270
282.068, 4619.706
282.550, 4624.251
283.032, 4617.792
283.514, 4606.179
283.996, 4588.985
284.478, 4575.684
284.960, 4574.075
285.443, 4582.586
285.925, 4580.317
286.407, 4564.449
286.889, 4547.146
287.371, 4547.947
287.853, 4566.093
288.335, 4582.159
288.817, 4590.231
289.299, 4589.995
289.782, 4575.248
290.264, 4543.209
290.746, 4511.348
291.228, 4505.510
291.710, 4522.047
292.192, 4534.468
292.674, 4529.636
293.156, 4513.030
293.638, 4499.253
294.121, 4488.368
294.603, 4480.727
295.085, 4478.879
295.567, 4481.323
296.049, 4481.588
296.531, 4472.170
297.013, 4461.145
297.496, 4468.721
297.978, 4495.266
298.460, 4522.177
298.942, 4532.740
299.424, 4530.326
299.906, 4522.514
300.388, 4506.817
300.870, 4490.443
301.352, 4482.236
301.835, 4482.170
302.317, 4491.589
302.799, 4522.554
303.281, 4562.157
303.763, 4586.919
304.245, 4579.523
304.727, 4563.996
305.209, 4569.553
305.691, 4593.127
306.174, 4612.562
306.656, 4605.592
307.138, 4588.048
307.620, 4581.872
308.102, 4599.893
308.584, 4620.926
309.066, 4628.594
309.548, 4624.835
310.030, 4616.706
310.513, 4609.411
310.995, 4599.294
311.477, 4581.519
311.959, 4549.831
312.441, 4520.531
312.923, 4509.236
313.405, 4509.146
313.887, 4502.014
314.370, 4464.586
314.852, 4426.267
315.334, 4410.247
315.816, 4429.147
316.298, 4447.949
316.780, 4450.799
317.262, 4443.147
317.744, 4435.792
318.226, 4435.332
318.709, 4434.294
319.191, 4428.507
319.673, 4416.244
320.155, 4403.743
320.637, 4390.968
321.119, 4379.420
321.601, 4371.179
322.083, 4369.430
322.565, 4368.615
323.048, 4365.239
323.530, 4357.155
324.012, 4356.263
324.494, 4376.421
324.976, 4399.941
325.458, 4407.949
325.940, 4383.882
326.422, 4358.662
326.905, 4337.053
327.387, 4318.962
327.869, 4306.371
328.351, 4303.171
328.833, 4303.291
329.315, 4302.006
329.797, 4299.026
330.279, 4295.016
330.762, 4288.904
331.244, 4281.000
331.726, 4276.993
332.208, 4280.401
332.690, 4284.201
333.172, 4284.321
333.654, 4282.655
334.136, 4272.923
334.618, 4249.804
335.100, 4218.229
335.583, 4198.469
336.065, 4193.605
336.547, 4195.130
337.029, 4200.750
337.511, 4214.467
337.993, 4215.310
338.475, 4195.533
338.957, 4167.383
339.440, 4162.602
339.922, 4187.960
340.404, 4211.546
340.886, 4214.987
341.368, 4196.522
341.850, 4188.978
342.332, 4196.561
342.814, 4208.111
343.297, 4203.816
343.779, 4182.983
344.261, 4164.608
344.743, 4158.907
345.225, 4163.351
345.707, 4160.256
346.189, 4148.190
346.671, 4136.150
347.153, 4134.265
347.635, 4141.497
348.118, 4151.415
348.600, 4162.947
349.082, 4175.159
349.564, 4187.555
350.046, 4200.147
350.528, 4208.485
351.010, 4207.069
351.492, 4198.574
351.975, 4188.402
352.457, 4175.111
352.939, 4164.343
353.421, 4164.983
353.903, 4175.441
354.385, 4187.040
354.867, 4198.100
355.349, 4205.690
355.832, 4205.297
356.314, 4193.896
356.796, 4179.792
357.278, 4168.607
357.760, 4159.813
358.242, 4152.060
358.724, 4144.733
359.206, 4138.097
359.688, 4130.493
360.171, 4119.506
360.653, 4116.795
361.135, 4138.134
361.617, 4169.204
362.099, 4188.435
362.581, 4179.239
363.063, 4165.222
363.545, 4155.688
364.027, 4151.594
364.510, 4147.614
364.992, 4136.062
365.474, 4126.905
365.956, 4129.351
366.438, 4163.360
366.920, 4189.577
367.402, 4197.713
367.884, 4188.750
368.366, 4182.436
368.849, 4179.712
369.331, 4179.978
369.813, 4183.065
370.295, 4191.291
370.777, 4199.187
371.259, 4210.364
371.741, 4221.013
372.224, 4217.382
372.706, 4186.948
373.188, 4160.236
373.670, 4153.366
374.152, 4175.854
374.634, 4184.084
375.116, 4171.590
375.598, 4150.745
376.080, 4145.559
376.562, 4162.472
377.045, 4170.690
377.527, 4154.704
378.009, 4115.583
378.491, 4091.739
378.973, 4085.350
379.455, 4087.660
379.937, 4091.459
380.419, 4096.766
380.902, 4098.239
381.384, 4091.705
381.866, 4082.104
382.348, 4084.813
382.830, 4099.940
383.312, 4116.378
383.794, 4125.833
384.276, 4129.398
384.759, 4130.363
385.241, 4129.410
385.723, 4125.572
386.205, 4112.039
386.687, 4092.523
387.169, 4081.971
387.651, 4097.130
388.133, 4122.950
388.615, 4142.083
389.098, 4152.377
389.580, 4155.855
390.062, 4149.421
390.544, 4137.772
391.026, 4128.914
391.508, 4127.241
391.990, 4128.794
392.472, 4132.059
392.954, 4137.044
393.437, 4142.009
393.919, 4148.354
394.401, 4153.481
394.883, 4155.224
395.365, 4147.332
395.847, 4142.086
396.329, 4146.028
396.811, 4156.520
397.293, 4160.927
397.776, 4146.497
398.258, 4133.397
398.740, 4131.778
399.222, 4153.339
399.704, 4167.928
400.186, 4177.989
400.668, 4175.223
401.151, 4184.382
401.633, 4190.647
402.115, 4194.172
402.597, 4186.754
403.079, 4193.467
403.561, 4194.517
404.043, 4195.335
404.525, 4204.037
405.007, 4198.211
405.490, 4206.788
405.972, 4208.562
406.454, 4206.851
406.936, 4197.068
407.418, 4188.412
407.900, 4180.060
408.382, 4177.002
408.864, 4186.917
409.346, 4208.049
409.828, 4221.282
410.311, 4223.120
410.793, 4218.386
411.275, 4212.163
411.757, 4205.051
412.239, 4201.372
412.721, 4205.014
413.203, 4213.265
413.685, 4220.705
414.168, 4226.911
414.650, 4233.919
415.132, 4243.703
415.614, 4255.472
416.096, 4267.692
416.578, 4285.000
417.060, 4298.411
417.542, 4298.965
418.025, 4287.990
418.507, 4274.521
418.989, 4249.819
419.471, 4232.037
419.953, 4238.477
420.435, 4292.546
420.917, 4336.983
421.399, 4343.229
421.881, 4326.235
422.364, 4317.783
422.846, 4334.058
423.328, 4352.204
423.810, 4362.828
424.292, 4362.330
424.774, 4367.275
425.256, 4379.901
425.738, 4397.643
426.220, 4418.226
426.703, 4447.128
427.185, 4469.922
427.667, 4480.634
428.149, 4481.602
428.631, 4493.461
429.113, 4521.513
429.595, 4550.881
430.077, 4569.980
430.560, 4576.034
431.042, 4590.303
431.524, 4615.920
432.006, 4647.732
432.488, 4676.912
432.970, 4703.441
433.452, 4727.794
433.934, 4751.129
434.417, 4772.640
434.899, 4789.736
435.381, 4802.278
435.863, 4812.380
436.345, 4820.468
436.827, 4827.715
437.309, 4837.417
437.791, 4851.355
438.273, 4867.021
438.755, 4884.161
439.238, 4901.423
439.720, 4912.864
440.202, 4909.855
440.684, 4901.854
441.166, 4897.054
441.648, 4896.258
442.130, 4900.442
442.612, 4914.761
443.095, 4933.456
443.577, 4947.605
444.059, 4960.037
444.541, 4962.355
445.023, 4945.329
445.505, 4908.057
445.987, 4881.697
446.469, 4884.572
446.952, 4891.512
447.434, 4885.586
447.916, 4849.929
448.398, 4825.166
448.880, 4819.407
449.362, 4824.886
449.844, 4820.655
450.326, 4806.174
450.808, 4783.054
451.290, 4749.407
451.773, 4703.829
452.255, 4662.728
452.737, 4625.631
453.219, 4593.672
453.701, 4569.125
454.183, 4552.311
454.665, 4535.004
455.147, 4513.125
455.630, 4490.722
456.112, 4481.113
456.594, 4483.889
457.076, 4483.485
457.558, 4463.574
458.040, 4433.084
458.522, 4411.074
459.004, 4400.283
459.487, 4396.246
459.969, 4401.865
460.451, 4410.733
460.933, 4409.570
461.415, 4376.192
461.897, 4343.000
462.379, 4336.992
462.861, 4357.262
463.343, 4373.712
463.826, 4372.131
464.308, 4361.384
464.790, 4347.726
465.272, 4325.611
465.754, 4310.375
466.236, 4312.409
466.718, 4323.304
467.200, 4322.756
467.682, 4291.775
468.165, 4267.189
468.647, 4260.903
469.129, 4276.776
469.611, 4288.555
470.093, 4293.637
470.575, 4297.606
471.057, 4307.688
471.539, 4327.779
472.022, 4337.284
472.504, 4328.397
472.986, 4309.585
473.468, 4311.843
473.950, 4337.976
474.432, 4353.889
474.914, 4326.002
475.396, 4268.137
475.878, 4246.680
476.361, 4269.074
476.843, 4299.807
477.325, 4293.523
477.807, 4264.659
478.289, 4248.980
478.771, 4270.607
479.253, 4300.911
479.735, 4310.225
480.217, 4302.066
480.700, 4293.498
481.182, 4293.922
481.664, 4297.963
482.146, 4302.785
482.628, 4310.132
483.110, 4310.752
483.592, 4291.630
484.074, 4266.245
484.556, 4253.314
485.039, 4271.660
485.521, 4286.774
486.003, 4285.877
486.485, 4270.074
486.967, 4268.905
487.449, 4297.736
487.931, 4323.983
488.414, 4325.598
488.896, 4288.890
489.378, 4271.664
489.860, 4284.287
490.342, 4307.391
490.824, 4303.180
491.306, 4267.812
491.788, 4239.287
492.270, 4233.062
492.753, 4244.011
493.235, 4252.077
493.717, 4256.959
494.199, 4263.710
494.681, 4284.011
495.163, 4308.596
495.645, 4314.786
496.127, 4293.859
496.609, 4265.553
497.092, 4246.020
497.574, 4234.280
498.056, 4228.353
498.538, 4234.733
499.020, 4240.987
499.502, 4237.650
499.984, 4224.594
500.466, 4213.403
500.948, 4205.110
501.431, 4202.379
501.913, 4207.673
502.395, 4236.160
502.877, 4252.711
503.359, 4248.578
503.841, 4231.867
504.323, 4217.312
504.805, 4201.843
505.288, 4193.540
505.770, 4196.646
506.252, 4211.320
506.734, 4220.864
507.216, 4224.166
507.698, 4224.929
508.180, 4224.207
508.662, 4222.104
509.145, 4229.019
509.627, 4250.359
510.109, 4273.204
510.591, 4272.489
511.073, 4252.090
511.555, 4232.963
512.037, 4228.208
512.519, 4229.755
513.001, 4225.234
513.484, 4214.869
513.966, 4206.423
514.448, 4204.823
514.930, 4207.967
515.412, 4214.099
515.894, 4224.556
516.376, 4234.522
516.858, 4242.419
517.341, 4248.303
517.823, 4252.249
518.305, 4255.057
518.787, 4255.053
519.269, 4248.334
519.751, 4234.100
520.233, 4232.053
520.715, 4253.350
521.197, 4274.015
521.680, 4275.927
522.162, 4251.201
522.644, 4236.139
523.126, 4235.745
523.608, 4242.508
524.090, 4241.753
524.572, 4232.974
525.054, 4227.701
525.536, 4231.089
526.019, 4240.693
526.501, 4252.031
526.983, 4264.796
527.465, 4273.645
527.947, 4273.430
528.429, 4266.802
528.911, 4257.342
529.393, 4245.194
529.875, 4232.218
530.358, 4215.856
530.840, 4200.337
531.322, 4192.096
531.804, 4201.734
532.286, 4211.364
532.768, 4210.225
533.250, 4200.028
533.732, 4199.868
534.214, 4178.400
534.697, 4214.662
535.179, 4236.910
535.661, 4245.897
536.143, 4201.910
536.625, 4226.330
537.107, 4223.334
537.589, 4219.216
538.071, 4253.262
538.554, 4216.980
539.036, 4250.422
539.518, 4250.934
540.000, 4244.217
540.482, 4236.487
540.964, 4235.047
541.446, 4252.990
541.928, 4279.142
542.411, 4284.708
542.893, 4266.136
543.375, 4248.009
543.857, 4255.526
544.339, 4275.937
544.821, 4291.257
545.303, 4294.985
545.785, 4293.734
546.268, 4287.273
546.750, 4278.133
547.232, 4273.084
547.714, 4250.016
548.196, 4253.434
548.678, 4247.013
549.160, 4260.578
549.642, 4269.292
550.124, 4273.415
550.606, 4259.198
551.089, 4268.664
551.571, 4268.638
552.053, 4268.223
552.535, 4281.021
553.017, 4269.472
553.499, 4282.061
553.981, 4283.250
554.463, 4290.568
554.945, 4291.904
555.428, 4289.133
555.910, 4285.022
556.392, 4279.941
556.874, 4278.321
557.356, 4288.868
557.838, 4302.518
558.320, 4307.423
558.802, 4300.339
559.284, 4290.152
559.767, 4272.497
560.249, 4257.813
560.731, 4259.213
561.213, 4301.096
561.695, 4336.996
562.177, 4356.424
562.659, 4360.137
563.141, 4354.236
563.624, 4326.777
564.106, 4305.111
564.588, 4303.112
565.070, 4324.915
565.552, 4329.132
566.034, 4308.633
566.516, 4286.339
566.998, 4289.275
567.481, 4316.146
567.963, 4331.989
568.445, 4327.209
568.927, 4316.991
569.409, 4330.294
569.891, 4359.996
570.373, 4380.013
570.855, 4367.928
571.338, 4345.815
571.820, 4332.407
572.302, 4328.055
572.784, 4334.316
573.266, 4364.164
573.748, 4396.660
574.230, 4416.616
574.712, 4416.094
575.194, 4416.330
575.677, 4423.305
576.159, 4431.657
576.641, 4435.241
577.123, 4432.465
577.605, 4427.845
578.087, 4421.156
578.569, 4413.400
579.051, 4408.004
579.533, 4404.961
580.016, 4404.595
580.498, 4407.944
580.980, 4414.356
581.462, 4422.524
581.944, 4432.819
582.426, 4437.247
582.908, 4420.256
583.390, 4393.976
583.872, 4380.653
584.355, 4388.231
584.837, 4400.388
585.319, 4407.637
585.801, 4411.230
586.283, 4413.425
586.765, 4402.801
587.247, 4403.186
587.729, 4434.092
588.211, 4490.510
588.694, 4520.582
589.176, 4504.329
589.658, 4482.225
590.140, 4470.287
590.622, 4470.000
591.104, 4472.848
591.586, 4480.696
592.068, 4487.688
592.551, 4484.975
593.033, 4473.250
593.515, 4469.027
593.997, 4476.578
594.479, 4490.101
594.961, 4503.048
595.443, 4514.960
595.925, 4524.101
596.407, 4528.221
596.890, 4530.272
597.372, 4533.026
597.854, 4536.259
598.336, 4538.013
598.818, 4532.184
599.300, 4528.457
599.782, 4533.876
600.265, 4553.301
600.747, 4569.370
601.229, 4577.749
601.711, 4584.193
602.193, 4594.653
602.675, 4612.482
603.157, 4624.940
603.639, 4629.520
604.121, 4629.077
604.604, 4628.092
605.086, 4626.380
605.568, 4630.426
606.050, 4649.952
606.532, 4674.252
607.014, 4673.623
607.496, 4650.702
607.978, 4630.941
608.460, 4638.219
608.943, 4654.874
609.425, 4661.683
609.907, 4654.708
610.389, 4646.228
610.871, 4636.917
611.353, 4631.170
611.835, 4633.330
612.317, 4659.152
612.799, 4673.841
613.282, 4670.527
613.764, 4655.988
614.246, 4643.080
614.728, 4628.830
615.210, 4625.362
615.692, 4642.393
616.174, 4673.375
616.656, 4675.525
617.138, 4646.892
617.621, 4625.549
618.103, 4649.860
618.585, 4698.772
619.067, 4722.823
619.549, 4716.810
620.031, 4705.668
620.513, 4707.916
620.995, 4716.679
621.477, 4723.260
621.960, 4720.998
622.442, 4723.053
622.924, 4735.727
623.406, 4755.217
623.888, 4775.011
624.370, 4801.107
624.852, 4818.725
625.334, 4823.329
625.817, 4816.649
626.299, 4807.461
626.781, 4792.053
627.263, 4786.327
627.745, 4804.285
628.227, 4842.481
628.709, 4870.193
629.191, 4886.956
629.674, 4898.901
630.156, 4906.484
630.638, 4914.267
631.120, 4931.291
631.602, 4961.916
632.084, 4993.827
632.566, 5021.778
633.048, 5044.977
633.531, 5062.396
634.013, 5061.935
634.495, 5068.251
634.977, 5094.542
635.459, 5133.607
635.941, 5156.420
636.423, 5147.334
636.905, 5148.983
637.387, 5178.782
637.870, 5234.753
638.352, 5287.870
638.834, 5338.678
639.316, 5385.485
639.798, 5426.823
640.280, 5463.680
640.762, 5497.415
641.244, 5527.997
641.726, 5559.972
642.209, 5604.295
642.691, 5650.792
643.173, 5683.380
643.655, 5686.100
644.137, 5692.801
644.619, 5723.736
645.101, 5767.454
645.583, 5801.899
646.065, 5817.628
646.548, 5831.374
647.030, 5848.971
647.512, 5867.529
647.994, 5869.924
648.476, 5854.707
648.958, 5826.890
649.440, 5783.810
649.922, 5728.348
650.404, 5676.412
650.887, 5627.225
651.369, 5587.313
651.851, 5576.694
652.333, 5574.532
652.815, 5542.384
653.297, 5467.226
653.779, 5393.844
654.261, 5356.273
654.744, 5334.650
655.226, 5305.657
655.708, 5242.578
656.190, 5196.814
656.672, 5190.371
657.154, 5203.917
657.636, 5196.968
658.118, 5159.590
658.601, 5126.517
659.083, 5112.099
659.565, 5108.812
660.047, 5075.982
660.529, 5012.341
661.011, 4958.936
661.493, 4955.509
661.975, 4976.284
662.458, 4969.551
662.940, 4933.860
663.422, 4896.507
663.904, 4873.138
664.386, 4859.035
664.868, 4850.949
665.350, 4850.492
665.832, 4849.921
666.314, 4849.833
666.797, 4847.349
667.279, 4839.160
667.761, 4821.158
668.243, 4804.541
668.725, 4788.515
669.207, 4775.532
669.689, 4774.063
670.171, 4784.492
670.653, 4787.392
671.135, 4769.530
671.618, 4745.059
672.100, 4748.981
672.582, 4774.942
673.064, 4791.926
673.546, 4778.010
674.028, 4750.601
674.510, 4717.081
674.992, 4678.583
675.474, 4655.298
675.957, 4666.584
676.439, 4686.120
676.921, 4699.334
677.403, 4706.816
677.885, 4704.438
678.367, 4686.650
678.849, 4666.945
679.331, 4660.858
679.814, 4668.954
680.296, 4670.956
680.778, 4662.164
681.260, 4651.350
681.742, 4652.072
682.224, 4660.795
682.706, 4668.112
683.188, 4670.856
683.670, 4670.573
684.153, 4663.812
684.635, 4654.801
685.117, 4654.217
685.599, 4681.376
686.081, 4701.718
686.563, 4696.027
687.045, 4668.724
687.528, 4661.705
688.010, 4686.178
688.492, 4709.869
688.974, 4717.290
689.456, 4709.030
689.938, 4696.082
690.420, 4677.309
690.902, 4666.316
691.384, 4683.980
691.867, 4715.721
692.349, 4733.451
692.831, 4732.246
693.313, 4725.332
693.795, 4717.790
694.277, 4711.067
694.759, 4706.720
695.241, 4704.987
695.723, 4705.675
696.206, 4709.374
696.688, 4715.221
697.170, 4723.299
697.652, 4737.062
698.134, 4742.872
698.616, 4736.075
699.098, 4722.088
699.580, 4711.837
700.062, 4705.708
700.545, 4706.643
701.027, 4724.459
701.509, 4744.560
701.991, 4742.646
702.473, 4723.491
702.955, 4709.233
703.437, 4717.642
703.919, 4729.096
704.402, 4731.948
704.884, 4728.433
705.366, 4735.615
705.848, 4740.200
706.330, 4742.328
706.812, 4734.640
707.294, 4739.627
707.776, 4739.535
708.258, 4739.234
708.741, 4746.006
709.223, 4739.746
709.705, 4746.405
710.187, 4747.907
710.669, 4751.770
711.151, 4750.521
711.633, 4750.851
712.115, 4756.293
712.597, 4758.905
713.080, 4757.068
713.562, 4755.721
714.044, 4740.251
714.526, 4716.729
715.008, 4705.049
715.490, 4710.453
715.972, 4718.199
716.455, 4726.419
716.937, 4734.462
717.419, 4742.142
717.901, 4749.571
718.383, 4748.712
718.865, 4730.181
719.347, 4704.487
719.829, 4687.615
720.311, 4679.152
720.794, 4676.074
721.276, 4680.425
721.758, 4686.751
722.240, 4691.812
722.722, 4695.403
723.204, 4698.244
723.686, 4701.124
724.168, 4702.562
724.651, 4700.095
725.133, 4691.645
725.615, 4694.684
726.097, 4711.846
726.579, 4731.849
727.061, 4748.536
727.543, 4759.809
728.025, 4754.677
728.507, 4729.847
728.990, 4702.497
729.472, 4683.005
729.954, 4672.524
730.436, 4674.141
730.918, 4699.964
731.400, 4717.773
731.882, 4713.373
732.364, 4697.938
732.846, 4686.984
733.328, 4677.865
733.811, 4680.667
734.293, 4703.164
734.775, 4731.388
735.257, 4733.745
735.739, 4711.728
736.221, 4691.441
736.703, 4683.843
737.185, 4680.747
737.667, 4664.157
738.150, 4641.755
738.632, 4636.089
739.114, 4680.733
739.596, 4723.188
740.078, 4734.796
740.560, 4718.360
741.042, 4704.822
741.524, 4690.283
742.007, 4687.819
742.489, 4707.655
742.971, 4746.852
743.453, 4764.383
743.935, 4757.482
744.417, 4751.631
744.899, 4773.703
745.381, 4807.077
745.864, 4812.376
746.346, 4788.470
746.828, 4761.041
747.310, 4741.404
747.792, 4729.532
748.274, 4727.989
748.756, 4741.781
749.238, 4748.498
749.721, 4742.205
750.203, 4755.820
750.685, 4764.604
751.167, 4768.813
751.649, 4754.752
752.131, 4764.284
752.613, 4764.361
753.095, 4764.050
753.577, 4776.903
754.060, 4765.499
754.542, 4778.143
755.024, 4781.187
755.506, 4788.625
755.988, 4786.550
756.470, 4787.162
756.952, 4759.137
757.434, 4740.117
757.916, 4747.732
758.399, 4764.181
758.881, 4760.521
759.363, 4727.098
759.845, 4707.631
760.327, 4713.210
760.809, 4734.005
761.291, 4756.448
761.773, 4778.490
762.255, 4789.609
762.738, 4778.932
763.220, 4763.111
763.702, 4758.673
764.184, 4761.847
764.666, 4762.616
765.148, 4752.828
765.630, 4744.783
766.112, 4741.301
766.594, 4742.365
767.077, 4751.186
767.559, 4773.412
768.041, 4784.976
768.523, 4780.058
769.005, 4787.331
769.487, 4791.645
769.969, 4793.159
770.451, 4783.484
770.934, 4788.257
771.416, 4787.240
771.898, 4785.985
772.380, 4792.791
772.862, 4784.744
773.344, 4791.422
773.826, 4792.222
774.308, 4791.659
774.791, 4802.112
775.273, 4796.773
775.755, 4767.886
776.237, 4742.917
776.719, 4743.853
777.201, 4766.132
777.683, 4781.711
778.165, 4790.062
778.648, 4795.537
779.130, 4801.613
779.612, 4806.669
780.094, 4808.886
780.576, 4807.802
781.058, 4804.477
781.540, 4799.401
782.022, 4791.722
782.504, 4778.396
782.987, 4751.102
783.469, 4749.629
783.951, 4784.191
784.433, 4821.075
784.915, 4824.909
785.397, 4801.705
785.879, 4777.504
786.361, 4753.339
786.843, 4742.775
787.326, 4772.215
787.808, 4816.315
788.290, 4844.287
788.772, 4839.901
789.254, 4838.777
789.736, 4859.391
790.218, 4880.982
790.700, 4880.229
791.182, 4844.788
791.665, 4823.165
792.147, 4811.641
792.629, 4793.866
793.111, 4818.046
793.593, 4832.041
794.075, 4836.400
794.557, 4802.259
795.039, 4817.832
795.521, 4813.482
796.004, 4808.315
796.486, 4830.886
796.968, 4802.344
797.450, 4824.475
797.932, 4826.378
798.414, 4837.539
798.896, 4828.653
799.378, 4825.959
799.860, 4843.318
800.343, 4849.574
800.825, 4838.381
801.307, 4850.130
801.789, 4830.029
802.271, 4817.790
802.753, 4818.753
803.235, 4823.668
803.718, 4825.499
804.200, 4827.313
804.682, 4834.740
805.164, 4872.080
805.646, 4882.938
806.128, 4846.986
806.610, 4788.944
807.092, 4765.851
807.574, 4779.105
808.057, 4793.897
808.539, 4800.781
809.021, 4803.271
809.503, 4804.745
809.985, 4806.105
810.467, 4809.650
810.949, 4818.728
811.431, 4827.674
811.914, 4833.775
812.396, 4837.823
812.878, 4842.063
813.360, 4846.213
813.842, 4851.479
814.324, 4859.472
814.806, 4867.688
815.288, 4865.652
815.770, 4854.897
816.253, 4854.805
816.735, 4883.076
817.217, 4914.413
817.699, 4916.872
818.181, 4898.705
818.663, 4881.714
819.145, 4873.577
819.627, 4868.337
820.109, 4862.766
820.592, 4858.850
821.074, 4863.334
821.556, 4878.276
822.038, 4895.371
822.520, 4914.960
823.002, 4932.098
823.484, 4929.529
823.966, 4912.491
824.448, 4903.854
824.931, 4926.313
825.413, 4950.874
825.895, 4951.723
826.377, 4937.506
826.859, 4933.310
827.341, 4953.767
827.823, 4974.715
828.305, 4997.625
828.787, 5015.871
829.270, 4998.066
829.752, 4940.341
830.234, 4903.496
830.716, 4919.796
831.198, 4958.602
831.680, 4973.161
832.162, 4969.211
832.644, 4962.914
833.127, 4961.494
833.609, 4959.678
834.091, 4954.089
834.573, 4946.274
835.055, 4940.591
835.537, 4933.559
836.019, 4938.872
836.501, 4967.861
836.984, 5004.482
837.466, 4998.413
837.948, 4956.423
838.430, 4921.581
838.912, 4914.581
839.394, 4920.243
839.876, 4930.006
840.358, 4941.549
840.841, 4949.187
841.323, 4944.016
841.805, 4943.892
842.287, 4956.836
842.769, 4975.499
843.251, 4978.150
843.733, 4962.631
844.215, 4949.004
844.697, 4942.146
845.180, 4942.115
845.662, 4952.651
846.144, 4970.132
846.626, 4985.348
847.108, 4996.709
847.590, 5002.312
848.072, 4995.025
848.554, 4982.134
849.036, 4982.077
849.519, 5007.068
850.001, 5016.947
850.483, 5000.664
850.965, 4971.088
851.447, 4947.792
851.929, 4932.729
852.411, 4938.068
852.893, 4978.567
853.375, 5021.165
853.858, 5036.820
854.340, 5034.473
854.822, 5029.366
855.304, 5022.447
855.786, 5016.745
856.268, 5010.230
856.750, 5006.714
857.232, 5014.454
857.714, 5034.283
858.197, 5049.379
858.679, 5055.375
859.161, 5058.308
859.643, 5047.250
860.125, 5042.894
860.607, 5036.000
861.089, 5045.582
861.571, 5051.164
862.054, 5052.962
862.536, 5039.640
863.018, 5045.842
863.500, 5044.220
863.982, 5042.277
864.464, 5051.227
864.946, 5040.104
865.428, 5048.881
865.911, 5049.715
866.393, 5054.185
866.875, 5050.781
867.357, 5049.602
867.839, 5040.412
868.321, 5055.439
868.803, 5073.650
869.285, 5097.688
869.767, 5112.485
870.250, 5115.480
870.732, 5113.209
871.214, 5109.460
871.696, 5104.813
872.178, 5109.417
872.660, 5125.050
873.142, 5136.955
873.624, 5129.883
874.106, 5112.989
874.589, 5092.060
875.071, 5063.796
875.553, 5055.583
876.035, 5095.956
876.517, 5137.718
876.999, 5155.220
877.481, 5146.683
877.963, 5130.867
878.445, 5105.762
878.928, 5089.804
879.410, 5106.243
879.892, 5137.459
880.374, 5158.659
880.856, 5168.299
881.338, 5166.925
881.820, 5139.068
882.302, 5114.628
882.784, 5113.175
883.267, 5133.471
883.749, 5146.205
884.231, 5151.106
884.713, 5148.916
885.195, 5132.735
885.677, 5112.367
886.159, 5119.597
886.641, 5148.684
887.124, 5170.780
887.606, 5160.687
888.088, 5147.862
888.570, 5150.848
889.052, 5166.806
889.534, 5176.600
890.016, 5177.332
890.498, 5176.868
890.981, 5176.165
891.463, 5176.716
891.945, 5183.556
892.427, 5195.547
892.909, 5207.237
893.391, 5214.505
893.873, 5222.561
894.355, 5238.674
894.838, 5257.776
895.320, 5269.611
895.802, 5263.400
896.284, 5263.823
896.766, 5280.505
897.248, 5297.352
897.730, 5280.253
898.212, 5233.630
898.694, 5201.701
899.177, 5196.506
899.659, 5202.592
900.141, 5213.693
900.623, 5223.278
901.105, 5221.087
901.587, 5190.561
902.069, 5177.068
902.551, 5196.152
903.033, 5222.034
903.516, 5230.149
903.998, 5219.671
904.480, 5213.367
904.962, 5212.693
905.444, 5215.359
905.926, 5220.699
906.408, 5227.198
906.890, 5233.510
907.372, 5239.566
907.855, 5243.573
908.337, 5238.500
908.819, 5237.536
909.301, 5249.195
909.783, 5273.764
910.265, 5292.960
910.747, 5306.726
911.229, 5316.075
911.711, 5319.879
912.194, 5320.728
912.676, 5322.520
913.158, 5325.052
913.640, 5326.690
914.122, 5331.896
914.604, 5330.038
915.086, 5310.542
915.568, 5280.586
916.051, 5273.694
916.533, 5294.121
917.015, 5308.522
917.497, 5302.540
917.979, 5302.455
918.461, 5316.625
918.943, 5327.334
919.425, 5334.771
919.907, 5329.124
920.390, 5340.370
920.872, 5344.846
921.354, 5349.044
921.836, 5362.667
922.318, 5358.925
922.800, 5372.398
923.282, 5379.000
923.764, 5388.747
924.247, 5391.682
924.729, 5396.720
925.211, 5408.574
925.693, 5416.653
926.175, 5418.804
926.657, 5428.751
927.139, 5424.769
927.621, 5433.009
928.104, 5446.524
928.586, 5449.017
929.068, 5459.088
929.550, 5466.273
930.032, 5460.343
930.514, 5471.741
930.996, 5473.668
931.478, 5484.930
931.960, 5490.461
932.443, 5471.341
932.925, 5455.458
933.407, 5462.487
933.889, 5488.350
934.371, 5498.945
934.853, 5490.801
935.335, 5482.887
935.817, 5481.097
936.299, 5486.710
936.782, 5507.479
937.264, 5538.413
937.746, 5564.082
938.228, 5569.149
938.710, 5577.128
939.192, 5606.055
939.674, 5640.398
940.156, 5649.561
940.638, 5624.473
941.121, 5617.761
941.603, 5642.884
942.085, 5674.493
942.567, 5670.951
943.049, 5650.207
943.531, 5646.006
944.013, 5667.488
944.495, 5701.705
944.977, 5759.286
945.460, 5815.781
945.942, 5850.734
946.424, 5859.721
946.906, 5869.726
947.388, 5880.859
947.870, 5892.890
948.352, 5903.409
948.834, 5915.767
949.317, 5934.164
949.799, 5959.241
950.281, 5993.191
950.763, 6053.317
951.245, 6104.492
951.727, 6127.426
952.209, 6128.858
952.691, 6147.145
953.174, 6184.423
953.656, 6214.627
954.138, 6222.737
954.620, 6224.369
955.102, 6237.798
955.584, 6262.206
956.066, 6295.858
956.548, 6351.283
957.031, 6399.146
957.513, 6432.698
957.995, 6457.135
958.477, 6473.793
958.959, 6481.597
959.441, 6515.753
959.923, 6586.275
960.405, 6650.386
960.887, 6651.946
961.370, 6628.468
961.852, 6627.025
962.334, 6657.976
962.816, 6691.798
963.298, 6735.598
963.780, 6765.417
964.262, 6767.327
964.744, 6743.033
965.226, 6712.593
965.709, 6676.372
966.191, 6642.881
966.673, 6617.346
967.155, 6596.542
967.637, 6582.174
968.119, 6570.927
968.601, 6550.814
969.083, 6505.289
969.565, 6475.544
970.048, 6480.899
970.530, 6491.240
971.012, 6428.675
971.494, 6310.440
971.976, 6235.689
972.458, 6242.421
972.940, 6255.516
973.422, 6207.076
973.904, 6139.715
974.387, 6101.546
974.869, 6111.704
975.351, 6113.825
975.833, 6105.417
976.315, 6094.818
976.797, 6093.592
977.279, 6095.219
977.761, 6077.103
978.244, 6039.526
978.726, 5996.799
979.208, 5942.479
979.690, 5899.347
980.172, 5887.360
980.654, 5900.031
981.136, 5898.443
981.618, 5877.979
982.101, 5864.925
982.583, 5872.015
983.065, 5883.903
983.547, 5872.040
984.029, 5844.586
984.511, 5819.488
984.993, 5798.701
985.475, 5787.450
985.957, 5800.375
986.440, 5814.764
986.922, 5806.290
987.404, 5771.062
987.886, 5750.150
988.368, 5746.571
988.850, 5748.879
989.332, 5751.849
989.814, 5751.931
990.296, 5741.429
990.779, 5720.198
991.261, 5707.386
991.743, 5712.514
992.225, 5720.446
992.707, 5727.910
993.189, 5733.956
993.671, 5734.753
994.153, 5730.538
994.635, 5722.195
995.118, 5703.383
995.600, 5690.090
996.082, 5707.726
996.564, 5735.163
997.046, 5736.207
997.528, 5686.944
998.010, 5652.453
998.492, 5634.961
998.974, 5634.096
999.457, 5660.356
999.939, 5701.613
1000.421, 5721.042
1000.903, 5714.981
1001.385, 5705.939
1001.867, 5713.490
1002.349, 5715.895
1002.831, 5695.841
1003.314, 5656.417
1003.796, 5622.126
1004.278, 5590.751
1004.760, 5580.156
1005.242, 5609.119
1005.724, 5649.213
1006.206, 5653.877
1006.688, 5637.181
1007.171, 5629.737
1007.653, 5656.983
1008.135, 5673.418
1008.617, 5668.902
1009.099, 5655.576
1009.581, 5645.010
1010.063, 5637.317
1010.545, 5637.080
1011.027, 5644.693
1011.510, 5657.872
1011.992, 5681.526
1012.474, 5704.710
1012.956, 5718.682
1013.438, 5722.339
1013.920, 5716.252
1014.402, 5693.932
1014.884, 5678.424
1015.367, 5679.612
1015.849, 5692.303
1016.331, 5709.105
1016.813, 5726.769
1017.295, 5734.241
1017.777, 5713.544
1018.259, 5700.659
1018.741, 5725.412
1019.223, 5756.898
1019.706, 5755.018
1020.188, 5709.576
1020.670, 5691.934
1021.152, 5708.621
1021.634, 5734.919
1022.116, 5754.313
1022.598, 5765.457
1023.080, 5763.293
1023.563, 5747.979
1024.045, 5735.155
1024.527, 5723.163
1025.009, 5721.703
1025.491, 5737.463
1025.973, 5763.372
1026.455, 5780.551
1026.937, 5788.992
1027.419, 5787.309
1027.901, 5766.698
1028.384, 5751.915
1028.866, 5773.998
1029.348, 5804.654
1029.830, 5804.708
1030.312, 5751.257
1030.794, 5736.671
1031.276, 5770.319
1031.758, 5807.864
1032.241, 5805.211
1032.723, 5782.701
1033.205, 5774.984
1033.687, 5782.446
1034.169, 5791.630
1034.651, 5796.111
1035.133, 5803.196
1035.615, 5818.425
1036.098, 5835.645
1036.580, 5835.900
1037.062, 5820.667
1037.544, 5809.775
1038.026, 5809.909
1038.508, 5810.984
1038.990, 5802.938
1039.472, 5791.460
1039.954, 5781.686
1040.437, 5771.059
1040.919, 5777.253
1041.401, 5808.472
1041.883, 5832.977
1042.365, 5821.754
1042.847, 5790.722
1043.329, 5773.369
1043.811, 5770.030
1044.293, 5780.368
1044.776, 5827.400
1045.258, 5859.968
1045.740, 5854.634
1046.222, 5830.661
1046.704, 5821.541
1047.186, 5827.172
1047.668, 5823.714
1048.150, 5805.878
1048.633, 5787.298
1049.115, 5775.254
1049.597, 5772.458
1050.079, 5786.472
1050.561, 5822.675
1051.043, 5837.363
1051.525, 5819.263
1052.007, 5808.321
1052.490, 5830.683
1052.972, 5867.369
1053.454, 5870.919
1053.936, 5850.797
1054.418, 5834.880
1054.900, 5834.746
1055.382, 5840.880
1055.864, 5858.979
1056.346, 5875.530
1056.828, 5871.613
1057.311, 5846.718
1057.793, 5839.164
1058.275, 5820.112
1058.757, 5844.819
1059.239, 5858.904
1059.721, 5862.937
1060.203, 5826.815
1060.685, 5842.545
1061.168, 5837.497
1061.650, 5831.595
1062.132, 5854.624
1062.614, 5824.342
1063.096, 5846.912
1063.578, 5848.384
1064.060, 5859.512
1064.542, 5849.732
1065.025, 5846.411
1065.507, 5864.003
1065.989, 5870.015
1066.471, 5857.828
1066.953, 5869.570
1067.435, 5838.558
1067.917, 5845.063
1068.399, 5848.984
1068.881, 5848.801
1069.364, 5845.837
1069.846, 5845.398
1070.328, 5853.287
1070.810, 5866.191
1071.292, 5876.457
1071.774, 5885.847
1072.256, 5882.858
1072.738, 5862.023
1073.220, 5842.827
1073.703, 5855.792
1074.185, 5882.378
1074.667, 5892.843
1075.149, 5883.014
1075.631, 5875.948
1076.113, 5878.532
1076.595, 5884.368
1077.077, 5894.189
1077.559, 5904.271
1078.042, 5898.202
1078.524, 5880.615
1079.006, 5871.859
1079.488, 5884.366
1079.970, 5897.716
1080.452, 5898.169
1080.934, 5895.677
1081.416, 5903.104
1081.899, 5925.235
1082.381, 5924.909
1082.863, 5899.941
1083.345, 5875.755
1083.827, 5868.754
1084.309, 5873.662
1084.791, 5891.162
1085.273, 5916.404
1085.755, 5931.528
1086.238, 5925.285
1086.720, 5928.398
1087.202, 5950.048
1087.684, 5972.007
1088.166, 5961.407
1088.648, 5933.335
1089.130, 5925.469
1089.612, 5945.269
1090.094, 5960.008
1090.577, 5951.603
1091.059, 5939.521
1091.541, 5931.732
1092.023, 5927.770
1092.505, 5923.774
1092.987, 5920.401
1093.469, 5923.971
1093.951, 5942.684
1094.434, 5957.876
1094.916, 5950.896
1095.398, 5935.470
1095.880, 5927.056
1096.362, 5923.915
1096.844, 5940.664
1097.326, 5980.907
1097.808, 6015.677
1098.291, 6020.322
1098.773, 6009.452
1099.255, 5991.642
1099.737, 5973.684
1100.219, 5979.354
1100.701, 6050.513
1101.183, 6081.158
1101.665, 6046.417
1102.147, 5990.666
1102.630, 5973.744
1103.112, 5984.958
1103.594, 6000.613
1104.076, 6017.687
1104.558, 6031.713
1105.040, 6042.722
1105.522, 6046.637
1106.004, 6038.265
1106.486, 6022.815
1106.969, 6021.546
1107.451, 6033.086
1107.933, 6047.534
1108.415, 6063.990
1108.897, 6076.471
1109.379, 6080.648
1109.861, 6078.431
1110.343, 6069.577
1110.826, 6051.873
1111.308, 6051.691
1111.790, 6072.055
1112.272, 6083.243
1112.754, 6056.709
1113.236, 6018.551
1113.718, 5995.418
1114.200, 5984.915
1114.682, 5981.525
1115.165, 5987.737
1115.647, 5992.958
1116.129, 5995.060
1116.611, 5999.170
1117.093, 6014.768
1117.575, 6034.934
1118.057, 6044.635
1118.539, 6043.565
1119.021, 6042.793
1119.504, 6054.137
1119.986, 6055.324
1120.468, 6033.696
1120.950, 6004.956
1121.432, 6010.541
1121.914, 6041.284
1122.396, 6055.189
1122.878, 6039.658
1123.361, 6024.271
1123.843, 6027.235
1124.325, 6035.759
1124.807, 6042.626
1125.289, 6047.418
1125.771, 6041.465
1126.253, 6025.377
1126.735, 6023.439
1127.218, 6057.396
1127.700, 6092.061
1128.182, 6090.620
1128.664, 6074.709
1129.146, 6075.669
1129.628, 6099.927
1130.110, 6124.194
1130.592, 6149.898
1131.074, 6165.494
1131.557, 6153.679
1132.039, 6132.635
1132.521, 6124.334
1133.003, 6126.968
1133.485, 6133.991
1133.967, 6150.557
1134.449, 6159.568
1134.931, 6158.904
1135.413, 6152.021
1135.896, 6137.292
1136.378, 6121.822
1136.860, 6120.545
1137.342, 6134.542
1137.824, 6150.878
1138.306, 6178.401
1138.788, 6188.567
1139.270, 6165.359
1139.752, 6128.395
1140.235, 6126.105
1140.717, 6148.092
1141.199, 6157.032
1141.681, 6139.538
1142.163, 6128.378
1142.645, 6144.165
1143.127, 6121.628
1143.609, 6150.466
1144.092, 6166.833
1144.574, 6171.400
1145.056, 6128.821
1145.538, 6147.121
1146.020, 6141.023
1146.502, 6133.925
1146.984, 6160.792
1147.466, 6125.071
1147.948, 6151.400
1148.431, 6148.424
1148.913, 6127.593
1149.395, 6136.839
1149.877, 6155.561
1150.359, 6177.834
1150.841, 6195.475
1151.323, 6195.946
1151.805, 6187.194
1152.287, 6191.631
1152.770, 6219.946
1153.252, 6221.874
1153.734, 6187.880
1154.216, 6153.113
1154.698, 6159.315
1155.180, 6180.503
1155.662, 6187.929
1156.144, 6180.648
1156.627, 6167.438
1157.109, 6146.551
1157.591, 6126.687
1158.073, 6106.212
1158.555, 6096.143
1159.037, 6120.689
1159.519, 6162.773
1160.001, 6196.643
1160.484, 6218.797
1160.966, 6225.057
1161.448, 6204.919
1161.930, 6187.001
1162.412, 6182.805
1162.894, 6185.512
1163.376, 6173.652
1163.858, 6156.586
1164.340, 6163.205
1164.823, 6219.690
1165.305, 6245.438
1165.787, 6194.755
1166.269, 6139.389
1166.751, 6119.787
1167.233, 6129.498
1167.715, 6146.654
1168.197, 6168.396
1168.679, 6181.376
1169.162, 6166.328
1169.644, 6159.825
1170.126, 6188.666
1170.608, 6218.795
1171.090, 6215.632
1171.572, 6182.243
1172.054, 6166.397
1172.536, 6168.221
1173.019, 6178.040
1173.501, 6199.948
1173.983, 6217.406
1174.465, 6212.495
1174.947, 6203.387
1175.429, 6223.875
1175.911, 6273.647
1176.393, 6286.544
1176.875, 6255.809
1177.358, 6222.674
1177.840, 6218.968
1178.322, 6222.828
1178.804, 6217.396
1179.286, 6208.285
1179.768, 6218.614
1180.250, 6249.998
1180.732, 6255.493
1181.214, 6221.193
1181.697, 6192.648
1182.179, 6220.862
1182.661, 6264.359
1183.143, 6291.855
1183.625, 6301.196
1184.107, 6284.865
1184.589, 6238.619
1185.071, 6210.654
1185.554, 6219.349
1186.036, 6240.210
1186.518, 6252.237
1187.000, 6259.260
1187.482, 6265.055
1187.964, 6270.088
1188.446, 6275.605
1188.928, 6282.792
1189.411, 6283.396
1189.893, 6272.222
1190.375, 6255.069
1190.857, 6230.707
1191.339, 6208.663
1191.821, 6205.607
1192.303, 6232.825
1192.785, 6248.425
1193.267, 6252.667
1193.750, 6243.554
1194.232, 6198.766
1194.714, 6156.859
1195.196, 6187.162
1195.678, 6254.672
1196.160, 6282.410
1196.642, 6223.805
1197.124, 6205.302
1197.606, 6238.644
1198.089, 6276.606
1198.571, 6275.342
1199.053, 6256.805
1199.535, 6250.903
1200.017, 6254.544
1200.499, 6252.732
1200.981, 6240.023
1201.463, 6226.329
1201.945, 6209.434
1202.428, 6203.217
1202.910, 6238.731
1203.392, 6284.889
1203.874, 6291.317
1204.356, 6261.084
1204.838, 6240.439
1205.320, 6235.588
1205.802, 6244.937
1206.285, 6273.625
1206.767, 6300.866
1207.249, 6292.871
1207.731, 6268.559
1208.213, 6255.467
1208.695, 6256.710
1209.177, 6262.547
1209.659, 6267.710
1210.141, 6287.690
1210.624, 6334.368
1211.106, 6380.161
1211.588, 6373.849
1212.070, 6341.602
1212.552, 6328.164
1213.034, 6312.082
1213.516, 6338.371
1213.998, 6354.375
1214.480, 6360.646
1214.963, 6328.040
1215.445, 6345.637
1215.927, 6343.113
1216.409, 6339.764
1216.891, 6364.428
1217.373, 6337.472
1217.855, 6361.692
1218.337, 6365.483
1218.820, 6378.630
1219.302, 6371.525
1219.784, 6370.141
1220.266, 6350.848
1220.748, 6330.035
1221.230, 6321.760
1221.712, 6332.384
1222.194, 6352.405
1222.677, 6387.048
1223.159, 6414.574
1223.641, 6420.518
1224.123, 6411.345
1224.605, 6390.813
1225.087, 6365.982
1225.569, 6352.636
1226.051, 6370.177
1226.533, 6371.164
1227.016, 6347.438
1227.498, 6328.574
1227.980, 6344.652
1228.462, 6375.269
1228.944, 6389.522
1229.426, 6389.724
1229.908, 6382.201
1230.390, 6358.631
1230.872, 6345.271
1231.355, 6342.841
1231.837, 6352.501
1232.319, 6389.792
1232.801, 6430.416
1233.283, 6435.238
1233.765, 6411.619
1234.247, 6387.938
1234.729, 6367.039
1235.212, 6350.634
1235.694, 6337.363
1236.176, 6334.340
1236.658, 6357.901
1237.140, 6389.397
1237.622, 6401.590
1238.104, 6398.225
1238.586, 6408.681
1239.068, 6446.924
1239.551, 6457.623
1240.033, 6427.848
1240.515, 6395.927
1240.997, 6406.107
1241.479, 6432.979
1241.961, 6455.418
1242.443, 6468.625
1242.925, 6453.025
1243.407, 6394.474
1243.890, 6372.482
1244.372, 6406.662
1244.854, 6453.235
1245.336, 6465.600
1245.818, 6465.560
1246.300, 6475.567
1246.782, 6494.848
1247.264, 6499.913
1247.747, 6487.394
1248.229, 6483.852
1248.711, 6496.977
1249.193, 6512.036
1249.675, 6527.113
1250.157, 6528.124
1250.639, 6485.423
1251.121, 6411.132
1251.604, 6393.729
1252.086, 6436.942
1252.568, 6474.314
1253.050, 6489.274
1253.532, 6490.814
1254.014, 6476.209
1254.496, 6459.665
1254.978, 6451.440
1255.460, 6451.499
1255.943, 6465.571
1256.425, 6492.501
1256.907, 6506.318
1257.389, 6495.969
1257.871, 6483.830
1258.353, 6486.439
1258.835, 6493.012
1259.317, 6498.935
1259.799, 6501.740
1260.281, 6486.172
1260.764, 6507.596
1261.246, 6520.039
1261.728, 6523.986
1262.210, 6493.987
1262.692, 6507.822
1263.174, 6508.141
1263.656, 6510.718
1264.138, 6518.630
1264.621, 6498.695
1265.103, 6521.723
1265.585, 6534.322
1266.067, 6537.053
1266.549, 6500.361
1267.031, 6514.576
1267.513, 6508.389
1267.995, 6501.366
1268.478, 6522.745
1268.960, 6491.787
1269.442, 6512.716
1269.924, 6512.933
1270.406, 6522.629
1270.888, 6511.799
1271.370, 6507.308
1271.852, 6523.351
1272.334, 6528.025
1272.817, 6514.830
1273.299, 6525.128
1273.781, 6521.545
1274.263, 6530.751
1274.745, 6536.853
1275.227, 6540.017
1275.709, 6531.444
1276.191, 6538.026
1276.673, 6538.535
1277.156, 6538.800
1277.638, 6544.171
1278.120, 6551.100
1278.602, 6559.337
1279.084, 6560.341
1279.566, 6568.614
1280.048, 6586.887
1280.530, 6596.271
1281.013, 6573.878
1281.495, 6547.592
1281.977, 6548.726
1282.459, 6564.721
1282.941, 6574.535
1283.423, 6574.271
1283.905, 6585.556
1284.387, 6609.049
1284.870, 6618.076
1285.352, 6571.074
1285.834, 6530.615
1286.316, 6549.564
1286.798, 6593.461
1287.280, 6618.011
1287.762, 6622.472
1288.244, 6628.919
1288.726, 6636.907
1289.208, 6641.078
1289.691, 6635.125
1290.173, 6628.789
1290.655, 6629.007
1291.137, 6628.534
1291.619, 6616.537
1292.101, 6596.247
1292.583, 6596.045
1293.065, 6613.663
1293.548, 6630.216
1294.030, 6638.955
1294.512, 6640.192
1294.994, 6629.095
1295.476, 6620.232
1295.958, 6631.147
1296.440, 6651.229
1296.922, 6651.314
1297.405, 6650.299
1297.887, 6667.228
1298.369, 6702.544
1298.851, 6722.321
1299.333, 6721.500
1299.815, 6715.371
1300.297, 6713.648
1300.779, 6716.334
##END=



