##NAMES=Brackebuschite
##RRUFFID=R050547
##IDEAL CHEMISTRY=Pb^2+^_2_Mn^3+^(V^5+^O_4_)_2_(OH)
##LOCALITY=Cordoba, Argentina
##OWNER=RRUFF
##SOURCE=University of Arizona Mineral Museum
##DESCRIPTION=Brown lathlike crystals
##STATUS=The identification of this mineral is confirmed by single-crystal X-ray diffraction and chemical analysis.
##URL=rruff.info/R050547
##MEASURED CHEMISTRY=Pb_1.91_(Mn^3+^_0.81_Fe^3+^_0.07_Zn_0.07_)_Σ=0.95_(V_1.98_As_0.02_)_Σ=2.00_O_8.00_(OH)_1.00_ ; OH estimated 
90.92609, 0.0000000E+00
91.40820, 42.65770
91.89032, 44.24387
92.37244, 43.25084
92.85455, 40.14176
93.33667, 37.68368
93.81879, 38.61355
94.30090, 41.87940
94.78302, 44.30864
95.26514, 45.03886
95.74725, 44.65984
96.22937, 44.30567
96.71149, 43.97259
97.19360, 43.74206
97.67572, 43.77002
98.15784, 44.05051
98.63995, 44.23214
99.12207, 44.19801
99.60419, 43.97082
100.0863, 43.76037
100.5684, 43.59151
101.0505, 43.38821
101.5327, 42.94590
102.0148, 42.09884
102.4969, 41.58720
102.9790, 41.72572
103.4611, 42.64560
103.9432, 43.50607
104.4253, 44.35363
104.9075, 45.11156
105.3896, 45.48492
105.8717, 44.67064
106.3538, 44.57144
106.8359, 46.07995
107.3180, 50.93403
107.8002, 54.29609
108.2823, 54.63047
108.7644, 53.17609
109.2465, 54.53394
109.7286, 62.46124
110.2107, 70.48462
110.6929, 75.94933
111.1750, 74.89974
111.6571, 75.54160
112.1392, 78.89272
112.6213, 84.72340
113.1034, 91.22192
113.5856, 97.51708
114.0677, 104.7886
114.5498, 113.8047
115.0319, 125.7175
115.5140, 138.5202
115.9961, 151.0026
116.4783, 163.1902
116.9604, 177.5217
117.4425, 195.2725
117.9246, 215.7307
118.4067, 237.9086
118.8888, 262.2997
119.3710, 287.8956
119.8531, 314.1543
120.3352, 340.9093
120.8173, 368.5782
121.2994, 398.0476
121.7815, 428.3500
122.2637, 457.9285
122.7458, 486.2193
123.2279, 513.0397
123.7100, 537.9696
124.1921, 560.8473
124.6742, 582.3267
125.1564, 601.4426
125.6385, 619.2317
126.1206, 639.0670
126.6027, 662.6864
127.0848, 689.5566
127.5669, 718.4242
128.0491, 748.7675
128.5312, 781.7507
129.0133, 819.1365
129.4954, 860.5346
129.9775, 905.4578
130.4596, 955.1378
130.9418, 1008.162
131.4239, 1060.993
131.9060, 1113.138
132.3881, 1164.732
132.8702, 1214.644
133.3523, 1262.963
133.8345, 1311.505
134.3166, 1362.021
134.7987, 1414.940
135.2808, 1467.599
135.7629, 1520.508
136.2450, 1573.516
136.7272, 1624.200
137.2093, 1672.526
137.6914, 1719.548
138.1735, 1766.443
138.6556, 1813.009
139.1377, 1859.073
139.6199, 1905.263
140.1020, 1951.180
140.5841, 1995.216
141.0662, 2035.443
141.5483, 2075.678
142.0304, 2120.825
142.5126, 2171.608
142.9947, 2223.919
143.4768, 2268.625
143.9589, 2300.005
144.4410, 2334.240
144.9231, 2371.855
145.4053, 2412.041
145.8874, 2454.738
146.3695, 2501.781
146.8516, 2548.528
147.3337, 2592.533
147.8158, 2633.366
148.2980, 2674.789
148.7801, 2717.598
149.2622, 2761.103
149.7443, 2802.777
150.2264, 2843.921
150.7085, 2882.941
151.1907, 2919.006
151.6728, 2954.254
152.1549, 2984.533
152.6370, 3009.321
153.1191, 3029.303
153.6012, 3045.391
154.0834, 3058.905
154.5655, 3067.617
155.0476, 3070.708
155.5297, 3067.605
156.0118, 3059.422
156.4939, 3043.776
156.9761, 3022.539
157.4582, 3002.454
157.9403, 2986.665
158.4224, 2971.363
158.9045, 2954.296
159.3866, 2935.495
159.8688, 2914.706
160.3509, 2890.656
160.8330, 2864.185
161.3151, 2839.158
161.7972, 2819.378
162.2793, 2800.344
162.7615, 2778.608
163.2436, 2750.933
163.7257, 2722.577
164.2078, 2695.571
164.6899, 2669.691
165.1720, 2643.496
165.6541, 2616.178
166.1363, 2588.190
166.6184, 2559.982
167.1005, 2532.750
167.5826, 2504.501
168.0647, 2473.251
168.5468, 2439.168
169.0290, 2404.604
169.5111, 2371.185
169.9932, 2338.112
170.4753, 2304.183
170.9574, 2268.072
171.4395, 2231.928
171.9217, 2197.053
172.4038, 2163.466
172.8859, 2131.153
173.3680, 2100.838
173.8501, 2071.869
174.3322, 2042.499
174.8144, 2010.565
175.2965, 1978.297
175.7786, 1949.359
176.2607, 1923.558
176.7428, 1899.319
177.2249, 1875.315
177.7071, 1851.870
178.1892, 1829.195
178.6713, 1807.656
179.1534, 1786.857
179.6355, 1765.681
180.1176, 1743.716
180.5998, 1722.880
181.0819, 1705.354
181.5640, 1690.626
182.0461, 1676.223
182.5282, 1660.922
183.0103, 1645.230
183.4925, 1630.247
183.9746, 1616.017
184.4567, 1602.866
184.9388, 1592.070
185.4209, 1583.115
185.9030, 1573.505
186.3852, 1560.861
186.8673, 1546.439
187.3494, 1534.383
187.8315, 1525.222
188.3136, 1517.427
188.7957, 1508.673
189.2779, 1499.120
189.7600, 1489.716
190.2421, 1480.511
190.7242, 1471.775
191.2063, 1465.068
191.6884, 1460.796
192.1706, 1457.775
192.6527, 1454.146
193.1348, 1449.897
193.6169, 1445.507
194.0990, 1441.025
194.5811, 1436.473
195.0633, 1432.198
195.5454, 1428.208
196.0275, 1424.465
196.5096, 1421.119
196.9917, 1418.178
197.4738, 1415.353
197.9560, 1412.516
198.4381, 1409.691
198.9202, 1406.828
199.4023, 1403.746
199.8844, 1400.978
200.3665, 1399.996
200.8487, 1401.161
201.3308, 1402.074
201.8129, 1401.619
202.2950, 1399.778
202.7771, 1396.774
203.2592, 1392.053
203.7414, 1386.742
204.2235, 1383.203
204.7056, 1381.628
205.1877, 1381.109
205.6698, 1381.448
206.1519, 1382.812
206.6341, 1383.879
207.1162, 1384.738
207.5983, 1385.117
208.0804, 1384.154
208.5625, 1381.424
209.0446, 1378.671
209.5268, 1376.819
210.0089, 1376.099
210.4910, 1375.320
210.9731, 1374.746
211.4552, 1373.915
211.9373, 1371.590
212.4195, 1367.373
212.9016, 1362.770
213.3837, 1358.245
213.8658, 1353.420
214.3479, 1350.217
214.8300, 1349.251
215.3121, 1349.567
215.7943, 1348.897
216.2764, 1347.138
216.7585, 1344.576
217.2406, 1340.891
217.7227, 1335.142
218.2048, 1331.570
218.6870, 1331.362
219.1691, 1332.734
219.6512, 1331.240
220.1333, 1325.325
220.6154, 1319.366
221.0975, 1315.230
221.5797, 1313.662
222.0618, 1311.920
222.5439, 1310.139
223.0260, 1308.156
223.5081, 1305.422
223.9902, 1301.476
224.4724, 1297.686
224.9545, 1294.822
225.4366, 1293.396
225.9187, 1291.320
226.4008, 1288.137
226.8829, 1284.524
227.3651, 1281.917
227.8472, 1280.639
228.3293, 1279.777
228.8114, 1278.996
229.2935, 1278.278
229.7757, 1277.666
230.2578, 1277.207
230.7399, 1276.804
231.2220, 1276.195
231.7041, 1274.960
232.1862, 1274.150
232.6684, 1274.234
233.1505, 1275.573
233.6326, 1276.553
234.1147, 1276.873
234.5968, 1276.986
235.0789, 1277.723
235.5611, 1279.294
236.0432, 1281.167
236.5253, 1283.471
237.0074, 1286.751
237.4895, 1288.217
237.9716, 1286.677
238.4538, 1284.066
238.9359, 1283.599
239.4180, 1286.425
239.9001, 1289.534
240.3822, 1291.965
240.8643, 1293.427
241.3465, 1295.531
241.8286, 1298.711
242.3107, 1302.220
242.7928, 1304.924
243.2749, 1306.233
243.7570, 1307.731
244.2392, 1309.888
244.7213, 1312.831
245.2034, 1315.722
245.6855, 1318.631
246.1676, 1321.463
246.6497, 1323.931
247.1319, 1325.189
247.6140, 1327.705
248.0961, 1332.513
248.5782, 1340.015
249.0603, 1346.356
249.5424, 1351.245
250.0246, 1355.341
250.5067, 1359.299
250.9888, 1362.708
251.4709, 1366.827
251.9530, 1372.137
252.4351, 1378.752
252.9173, 1384.834
253.3994, 1390.192
253.8815, 1395.285
254.3636, 1400.595
254.8457, 1406.217
255.3278, 1411.617
255.8100, 1416.572
256.2921, 1421.109
256.7742, 1425.980
257.2563, 1431.402
257.7384, 1436.850
258.2205, 1441.734
258.7026, 1445.754
259.1848, 1450.128
259.6669, 1455.195
260.1490, 1460.879
260.6311, 1466.091
261.1132, 1470.947
261.5953, 1475.200
262.0775, 1478.328
262.5596, 1479.616
263.0417, 1482.103
263.5238, 1486.704
264.0059, 1492.769
264.4880, 1497.221
264.9702, 1499.341
265.4523, 1501.127
265.9344, 1503.900
266.4165, 1508.019
266.8986, 1511.786
267.3807, 1514.894
267.8629, 1517.644
268.3450, 1521.111
268.8271, 1525.562
269.3092, 1530.208
269.7913, 1534.664
270.2734, 1538.801
270.7556, 1543.148
271.2377, 1547.095
271.7198, 1551.908
272.2019, 1561.149
272.6840, 1575.988
273.1661, 1591.367
273.6483, 1604.647
274.1304, 1615.385
274.6125, 1627.236
275.0946, 1640.084
275.5767, 1654.117
276.0588, 1669.828
276.5410, 1687.273
277.0231, 1705.642
277.5052, 1724.186
277.9873, 1742.929
278.4694, 1762.666
278.9515, 1783.501
279.4337, 1804.966
279.9158, 1826.298
280.3979, 1847.305
280.8800, 1869.197
281.3621, 1892.313
281.8442, 1916.573
282.3264, 1940.263
282.8085, 1963.315
283.2906, 1986.145
283.7727, 2008.713
284.2548, 2031.027
284.7369, 2055.105
285.2191, 2082.076
285.7012, 2111.138
286.1833, 2140.182
286.6654, 2169.239
287.1475, 2198.256
287.6296, 2226.507
288.1118, 2254.222
288.5939, 2282.844
289.0760, 2313.593
289.5581, 2344.716
290.0402, 2372.464
290.5223, 2396.866
291.0045, 2419.531
291.4866, 2441.754
291.9687, 2463.483
292.4508, 2484.698
292.9329, 2505.954
293.4150, 2525.934
293.8972, 2542.625
294.3793, 2556.248
294.8614, 2569.216
295.3435, 2582.755
295.8256, 2596.818
296.3077, 2611.129
296.7899, 2625.511
297.2720, 2640.269
297.7541, 2656.106
298.2362, 2672.624
298.7183, 2688.359
299.2004, 2700.585
299.6826, 2711.773
300.1647, 2726.995
300.6468, 2746.745
301.1289, 2768.971
301.6110, 2792.267
302.0931, 2816.435
302.5753, 2841.724
303.0574, 2867.652
303.5395, 2894.817
304.0216, 2922.996
304.5037, 2952.397
304.9858, 2984.537
305.4680, 3021.229
305.9501, 3061.564
306.4322, 3103.791
306.9143, 3147.152
307.3964, 3192.599
307.8785, 3241.749
308.3607, 3294.382
308.8428, 3349.943
309.3249, 3408.500
309.8070, 3469.651
310.2891, 3532.633
310.7712, 3597.726
311.2534, 3664.979
311.7355, 3734.520
312.2176, 3806.703
312.6997, 3880.789
313.1818, 3954.524
313.6639, 4029.957
314.1461, 4109.821
314.6282, 4195.691
315.1103, 4282.387
315.5924, 4367.143
316.0745, 4450.481
316.5566, 4534.981
317.0388, 4620.083
317.5209, 4706.858
318.0030, 4798.041
318.4851, 4895.801
318.9672, 4990.192
319.4493, 5077.033
319.9315, 5158.454
320.4136, 5238.438
320.8957, 5317.813
321.3778, 5395.310
321.8599, 5471.642
322.3420, 5547.021
322.8242, 5618.619
323.3063, 5687.021
323.7884, 5750.819
324.2705, 5808.793
324.7526, 5860.676
325.2347, 5907.202
325.7169, 5947.705
326.1990, 5982.590
326.6811, 6011.470
327.1632, 6034.737
327.6453, 6051.710
328.1274, 6061.971
328.6096, 6063.112
329.0917, 6060.548
329.5738, 6054.459
330.0559, 6044.823
330.5380, 6031.580
331.0201, 6018.040
331.5023, 5997.297
331.9844, 5965.381
332.4665, 5917.064
332.9486, 5871.255
333.4307, 5831.092
333.9128, 5791.974
334.3950, 5747.027
334.8771, 5694.670
335.3592, 5638.702
335.8413, 5580.954
336.3234, 5521.396
336.8055, 5457.351
337.2877, 5388.754
337.7698, 5316.646
338.2519, 5240.651
338.7340, 5160.649
339.2161, 5079.834
339.6982, 5000.159
340.1803, 4920.428
340.6624, 4838.168
341.1446, 4752.313
341.6267, 4664.405
342.1088, 4572.226
342.5909, 4476.366
343.0730, 4381.976
343.5551, 4290.886
344.0373, 4201.394
344.5194, 4112.212
345.0015, 4022.555
345.4836, 3933.302
345.9657, 3843.393
346.4478, 3753.664
346.9300, 3669.567
347.4121, 3591.291
347.8942, 3516.535
348.3763, 3439.847
348.8584, 3362.359
349.3405, 3288.628
349.8227, 3222.472
350.3048, 3161.167
350.7869, 3098.172
351.2690, 3033.658
351.7511, 2971.431
352.2332, 2915.169
352.7154, 2864.452
353.1975, 2818.537
353.6796, 2778.319
354.1617, 2741.564
354.6438, 2705.664
355.1259, 2670.844
355.6081, 2638.640
356.0902, 2609.944
356.5723, 2584.034
357.0544, 2559.905
357.5365, 2537.656
358.0186, 2516.932
358.5008, 2498.405
358.9829, 2481.265
359.4650, 2463.798
359.9471, 2443.755
360.4292, 2424.212
360.9113, 2407.144
361.3935, 2393.094
361.8756, 2380.354
362.3577, 2370.137
362.8398, 2360.296
363.3219, 2348.381
363.8040, 2331.409
364.2862, 2314.611
364.7683, 2299.085
365.2504, 2284.900
365.7325, 2273.150
366.2146, 2266.458
366.6967, 2260.612
367.1789, 2252.994
367.6610, 2241.950
368.1431, 2230.755
368.6252, 2219.024
369.1073, 2207.134
369.5894, 2196.483
370.0716, 2188.088
370.5537, 2179.777
371.0358, 2170.493
371.5179, 2159.341
372.0000, 2149.914
372.4821, 2142.923
372.9643, 2137.223
373.4464, 2131.670
373.9285, 2127.490
374.4106, 2120.820
374.8927, 2110.202
375.3748, 2095.705
375.8570, 2081.206
376.3391, 2066.184
376.8212, 2051.935
377.3033, 2039.983
377.7854, 2030.941
378.2675, 2019.974
378.7497, 2005.978
379.2318, 1990.034
379.7139, 1974.681
380.1960, 1960.208
380.6781, 1944.648
381.1602, 1926.682
381.6424, 1906.647
382.1245, 1886.497
382.6066, 1866.068
383.0887, 1845.985
383.5708, 1826.865
384.0529, 1808.687
384.5351, 1790.398
385.0172, 1772.063
385.4993, 1753.422
385.9814, 1733.331
386.4635, 1711.971
386.9456, 1689.594
387.4278, 1665.573
387.9099, 1641.163
388.3920, 1618.079
388.8741, 1597.033
389.3562, 1577.226
389.8383, 1558.187
390.3205, 1539.573
390.8026, 1520.977
391.2847, 1501.772
391.7668, 1482.792
392.2489, 1464.641
392.7310, 1447.686
393.2132, 1430.480
393.6953, 1411.693
394.1774, 1392.684
394.6595, 1374.953
395.1416, 1359.769
395.6237, 1345.380
396.1059, 1331.514
396.5880, 1318.107
397.0701, 1304.311
397.5522, 1288.657
398.0343, 1273.593
398.5164, 1260.619
398.9986, 1251.613
399.4807, 1242.464
399.9628, 1233.782
400.4449, 1224.833
400.9270, 1213.632
401.4091, 1197.413
401.8913, 1182.700
402.3734, 1171.719
402.8555, 1164.978
403.3376, 1159.244
403.8197, 1155.020
404.3018, 1151.198
404.7840, 1146.610
405.2661, 1141.115
405.7482, 1135.153
406.2303, 1128.423
406.7124, 1121.333
407.1945, 1115.255
407.6767, 1110.139
408.1588, 1106.197
408.6409, 1104.276
409.1230, 1104.167
409.6051, 1102.380
410.0872, 1098.234
410.5694, 1093.497
411.0515, 1090.620
411.5336, 1089.495
412.0157, 1089.579
412.4978, 1092.013
412.9799, 1095.115
413.4621, 1095.167
413.9442, 1092.234
414.4263, 1088.619
414.9084, 1085.109
415.3905, 1082.404
415.8727, 1081.830
416.3548, 1084.860
416.8369, 1088.249
417.3190, 1088.549
417.8011, 1086.939
418.2832, 1086.560
418.7654, 1089.794
419.2475, 1094.225
419.7296, 1098.006
420.2117, 1100.737
420.6938, 1104.278
421.1759, 1110.995
421.6581, 1118.209
422.1402, 1123.160
422.6223, 1122.035
423.1044, 1121.830
423.5865, 1124.436
424.0686, 1129.580
424.5508, 1135.099
425.0329, 1141.782
425.5150, 1147.974
425.9971, 1152.678
426.4792, 1153.876
426.9613, 1157.939
427.4435, 1166.827
427.9256, 1177.491
428.4077, 1184.793
428.8898, 1187.063
429.3719, 1189.864
429.8540, 1194.624
430.3362, 1201.240
430.8183, 1209.106
431.3004, 1218.746
431.7825, 1228.005
432.2646, 1234.155
432.7467, 1237.148
433.2289, 1243.106
433.7110, 1253.358
434.1931, 1265.820
434.6752, 1277.326
435.1573, 1287.817
435.6394, 1296.710
436.1216, 1302.061
436.6036, 1305.900
437.0858, 1312.978
437.5679, 1323.461
438.0500, 1334.815
438.5321, 1345.411
439.0142, 1355.253
439.4963, 1364.306
439.9785, 1372.316
440.4606, 1379.928
440.9427, 1387.641
441.4248, 1395.360
441.9069, 1402.680
442.3890, 1409.144
442.8712, 1415.368
443.3533, 1422.217
443.8354, 1430.301
444.3175, 1436.400
444.7996, 1437.513
445.2817, 1436.836
445.7639, 1437.718
446.2460, 1442.622
446.7281, 1447.041
447.2102, 1450.445
447.6923, 1452.747
448.1744, 1453.464
448.6566, 1452.351
449.1387, 1449.832
449.6208, 1446.122
450.1029, 1441.290
450.5850, 1434.827
451.0671, 1426.317
451.5493, 1416.693
452.0314, 1407.347
452.5135, 1398.576
452.9956, 1389.239
453.4777, 1379.344
453.9598, 1368.730
454.4420, 1355.958
454.9241, 1340.958
455.4062, 1325.532
455.8883, 1311.364
456.3704, 1298.094
456.8525, 1284.147
457.3347, 1269.514
457.8168, 1254.612
458.2989, 1240.207
458.7810, 1226.130
459.2631, 1212.343
459.7452, 1198.773
460.2274, 1185.286
460.7095, 1171.843
461.1916, 1158.309
461.6737, 1145.035
462.1558, 1131.921
462.6379, 1119.146
463.1201, 1106.874
463.6022, 1095.042
464.0843, 1083.593
464.5664, 1072.349
465.0485, 1061.469
465.5306, 1051.214
466.0128, 1041.921
466.4949, 1032.968
466.9770, 1024.251
467.4591, 1015.768
467.9412, 1007.632
468.4233, 999.7158
468.9055, 992.1852
469.3876, 985.1256
469.8697, 978.9930
470.3518, 972.3268
470.8339, 964.6528
471.3160, 956.7065
471.7982, 949.8121
472.2803, 944.1174
472.7624, 938.9098
473.2445, 934.1857
473.7266, 929.7972
474.2087, 924.9503
474.6909, 919.6194
475.1730, 914.1263
475.6551, 908.5823
476.1372, 903.0955
476.6193, 898.1124
477.1014, 893.7236
477.5836, 889.8959
478.0657, 887.1027
478.5478, 884.9147
479.0299, 882.1710
479.5120, 877.9913
479.9941, 873.1877
480.4763, 868.3619
480.9584, 863.5482
481.4405, 859.0917
481.9226, 855.4769
482.4047, 852.1387
482.8868, 848.5724
483.3690, 844.4978
483.8511, 840.6651
484.3332, 837.8633
484.8153, 835.3411
485.2974, 831.8093
485.7795, 825.7625
486.2617, 820.1465
486.7438, 815.5259
487.2259, 811.8846
487.7080, 809.0463
488.1901, 807.8571
488.6722, 806.3492
489.1544, 802.9924
489.6365, 796.9703
490.1186, 792.6085
490.6007, 790.6316
491.0828, 789.4754
491.5649, 786.4163
492.0471, 781.3836
492.5292, 776.6124
493.0113, 773.0645
493.4934, 770.2092
493.9755, 766.3534
494.4576, 761.5743
494.9398, 757.0023
495.4219, 753.7034
495.9040, 751.1397
496.3861, 748.5433
496.8682, 745.8110
497.3503, 742.8504
497.8325, 739.3538
498.3146, 735.6129
498.7967, 732.0060
499.2788, 728.9103
499.7609, 725.8327
500.2430, 722.4655
500.7252, 718.9149
501.2073, 715.5330
501.6894, 712.8366
502.1715, 710.0701
502.6536, 706.9044
503.1357, 703.4106
503.6179, 699.2389
504.1000, 693.1534
504.5821, 687.2068
505.0642, 683.6282
505.5463, 683.8015
506.0284, 683.2802
506.5106, 681.3938
506.9927, 678.3790
507.4748, 674.7375
507.9569, 670.2070
508.4390, 666.2664
508.9211, 663.9952
509.4033, 663.1396
509.8854, 661.5638
510.3675, 659.2079
510.8496, 656.6184
511.3317, 654.3113
511.8138, 652.1913
512.2960, 649.9988
512.7781, 647.5046
513.2602, 645.2019
513.7423, 643.4374
514.2244, 642.2552
514.7065, 641.7579
515.1887, 644.2537
515.6708, 645.6724
516.1529, 641.9705
516.6350, 633.2654
517.1171, 626.7067
517.5992, 627.1188
518.0814, 629.0292
518.5635, 628.8307
519.0456, 624.3816
519.5277, 620.6113
520.0098, 617.7639
520.4919, 615.7237
520.9741, 614.4571
521.4562, 614.5429
521.9383, 614.2461
522.4204, 613.0766
522.9025, 611.1805
523.3846, 609.4378
523.8668, 607.8266
524.3489, 606.4857
524.8310, 605.8688
525.3131, 605.7802
525.7952, 604.3532
526.2773, 601.3260
526.7595, 597.9913
527.2416, 596.1281
527.7237, 595.1620
528.2058, 593.4954
528.6879, 590.1852
529.1700, 586.7106
529.6522, 584.5944
530.1343, 583.5354
530.6164, 582.5814
531.0985, 581.2523
531.5806, 579.9135
532.0627, 578.7412
532.5449, 577.7480
533.0270, 577.0678
533.5091, 577.1730
533.9912, 577.3358
534.4733, 577.0357
534.9554, 575.7504
535.4376, 574.6611
535.9197, 573.9258
536.4018, 573.3029
536.8839, 572.4059
537.3660, 571.1840
537.8481, 569.7535
538.3303, 567.9805
538.8124, 566.0117
539.2945, 564.6136
539.7766, 563.8116
540.2587, 563.3692
540.7408, 563.5255
541.2230, 563.9646
541.7051, 563.2512
542.1872, 561.1547
542.6693, 559.0471
543.1514, 558.6025
543.6335, 559.0674
544.1157, 558.9634
544.5978, 557.2661
545.0799, 555.6884
545.5620, 555.7908
546.0441, 556.9609
546.5262, 557.6832
547.0084, 556.9552
547.4905, 556.0513
547.9726, 555.6879
548.4547, 555.9899
548.9368, 555.4922
549.4189, 552.8843
549.9011, 550.3964
550.3832, 549.3555
550.8653, 550.4661
551.3474, 551.3884
551.8295, 552.0901
552.3116, 552.5782
552.7938, 552.8416
553.2759, 552.8698
553.7580, 552.7275
554.2401, 552.3259
554.7222, 551.8549
555.2043, 552.0466
555.6865, 552.8093
556.1686, 553.1119
556.6507, 551.7410
557.1328, 549.7516
557.6149, 548.7891
558.0970, 548.9541
558.5792, 549.3772
559.0613, 549.5417
559.5434, 549.6168
560.0255, 549.8051
560.5076, 550.3713
560.9897, 550.6637
561.4719, 550.6168
561.9540, 550.1318
562.4361, 549.0507
562.9182, 545.7828
563.4003, 543.7175
563.8824, 543.8995
564.3646, 545.9593
564.8467, 547.2755
565.3288, 547.5548
565.8109, 547.6750
566.2930, 548.1182
566.7751, 548.8962
567.2573, 549.4606
567.7394, 549.8046
568.2215, 549.9641
568.7036, 549.8204
569.1857, 549.4974
569.6678, 549.4189
570.1500, 549.6097
570.6321, 550.2363
571.1142, 552.2557
571.5963, 554.8578
572.0784, 556.2111
572.5605, 553.9553
573.0427, 551.5812
573.5248, 551.6539
574.0069, 553.7675
574.4890, 555.0020
574.9711, 553.4377
575.4532, 551.5919
575.9354, 550.7064
576.4175, 551.0630
576.8996, 551.6360
577.3817, 552.5331
577.8638, 553.5340
578.3459, 554.4747
578.8281, 555.3494
579.3102, 556.1112
579.7923, 556.7371
580.2744, 557.2596
580.7565, 557.5807
581.2386, 557.7281
581.7208, 558.2935
582.2029, 559.8676
582.6850, 561.7448
583.1671, 562.7108
583.6492, 562.8395
584.1313, 562.5673
584.6134, 561.6935
585.0955, 560.8436
585.5776, 560.7745
586.0598, 561.6582
586.5419, 562.2967
587.0240, 561.4706
587.5061, 560.5985
587.9882, 560.8812
588.4703, 564.1475
588.9525, 566.2541
589.4346, 566.2409
589.9167, 565.3223
590.3988, 565.5389
590.8809, 567.4114
591.3630, 569.0558
591.8452, 570.0949
592.3273, 570.5583
592.8094, 570.1927
593.2915, 568.8942
593.7736, 568.3348
594.2557, 570.4553
594.7379, 573.9439
595.2200, 574.9996
595.7021, 573.5482
596.1842, 571.8971
596.6663, 571.6374
597.1484, 572.3424
597.6306, 573.7822
598.1127, 576.4290
598.5948, 578.1478
599.0769, 576.6871
599.5590, 574.1639
600.0411, 573.2350
600.5233, 576.4057
601.0054, 578.9310
601.4875, 579.8723
601.9696, 579.6435
602.4517, 579.4566
602.9338, 579.2770
603.4160, 579.2245
603.8981, 579.4371
604.3802, 579.8558
604.8623, 579.7045
605.3444, 578.8799
605.8265, 578.2897
606.3087, 578.6644
606.7908, 579.8011
607.2729, 581.2462
607.7550, 582.9961
608.2371, 584.7298
608.7192, 586.2640
609.2014, 587.5815
609.6835, 588.6799
610.1656, 589.4530
610.6477, 590.1373
611.1298, 590.8655
611.6119, 591.5703
612.0941, 592.1465
612.5762, 591.7698
613.0583, 592.1974
613.5404, 594.3585
614.0225, 597.7413
614.5046, 599.6263
614.9868, 599.3527
615.4689, 599.0665
615.9510, 600.1000
616.4331, 602.3127
616.9152, 602.3613
617.3973, 599.9707
617.8795, 597.8395
618.3616, 598.8813
618.8437, 601.9885
619.3258, 604.5486
619.8079, 606.2001
620.2900, 607.3980
620.7722, 608.3668
621.2543, 609.1967
621.7364, 609.9898
622.2185, 610.4984
622.7006, 611.3334
623.1827, 612.9415
623.6649, 615.0199
624.1470, 616.8476
624.6291, 617.7909
625.1112, 619.1835
625.5933, 621.4621
626.0754, 624.4799
626.5576, 627.1541
627.0397, 629.4855
627.5218, 631.4465
628.0039, 632.8917
628.4860, 633.8847
628.9681, 635.0678
629.4503, 636.4713
629.9324, 637.7262
630.4145, 637.9603
630.8966, 637.9844
631.3787, 639.4581
631.8608, 643.0107
632.3430, 646.5399
632.8251, 648.3351
633.3072, 649.3943
633.7893, 650.9698
634.2714, 653.5219
634.7535, 656.4908
635.2357, 660.0906
635.7178, 664.0162
636.1999, 667.6155
636.6820, 670.9340
637.1641, 673.7239
637.6462, 675.6342
638.1284, 676.9437
638.6105, 679.0561
639.0926, 682.0111
639.5747, 685.3853
640.0568, 689.3129
640.5389, 693.4304
641.0211, 696.1068
641.5032, 697.3583
641.9853, 699.2693
642.4674, 704.4311
642.9495, 710.6141
643.4316, 715.1547
643.9138, 717.1320
644.3959, 719.3355
644.8780, 722.6525
645.3601, 726.8841
645.8422, 731.7701
646.3243, 738.9689
646.8065, 744.5603
647.2886, 747.5339
647.7707, 749.3653
648.2528, 752.6542
648.7349, 757.4980
649.2170, 763.5304
649.6992, 771.1970
650.1813, 779.6235
650.6634, 786.6136
651.1455, 792.2625
651.6276, 797.8362
652.1097, 804.1572
652.5919, 810.7781
653.0740, 817.1234
653.5561, 823.2283
654.0382, 829.7178
654.5203, 836.9860
655.0024, 844.6080
655.4846, 852.5713
655.9667, 861.0316
656.4488, 868.7651
656.9309, 874.1217
657.4130, 879.7521
657.8951, 887.7363
658.3773, 899.2902
658.8594, 909.3878
659.3415, 917.5039
659.8236, 924.7883
660.3057, 932.7164
660.7878, 941.1881
661.2700, 949.8214
661.7521, 958.4789
662.2342, 967.3304
662.7163, 977.0152
663.1984, 987.1680
663.6805, 997.0007
664.1627, 1005.810
664.6448, 1014.399
665.1269, 1023.122
665.6090, 1032.025
666.0911, 1041.038
666.5732, 1049.847
667.0554, 1059.201
667.5375, 1069.709
668.0196, 1081.378
668.5017, 1091.637
668.9838, 1100.052
669.4659, 1108.203
669.9481, 1117.426
670.4302, 1127.488
670.9123, 1135.506
671.3944, 1141.291
671.8765, 1146.688
672.3586, 1153.402
672.8408, 1160.832
673.3229, 1168.033
673.8050, 1174.827
674.2871, 1181.498
674.7692, 1188.816
675.2513, 1195.812
675.7335, 1201.411
676.2156, 1204.023
676.6977, 1206.799
677.1798, 1210.799
677.6619, 1214.945
678.1440, 1217.514
678.6262, 1217.852
679.1083, 1218.465
679.5904, 1220.137
680.0725, 1222.140
680.5546, 1222.687
681.0367, 1221.805
681.5189, 1220.303
682.0010, 1218.536
682.4831, 1216.345
682.9652, 1213.322
683.4473, 1209.603
683.9294, 1205.600
684.4116, 1201.647
684.8937, 1197.462
685.3758, 1192.924
685.8579, 1188.072
686.3400, 1182.514
686.8221, 1175.989
687.3043, 1168.943
687.7864, 1161.345
688.2685, 1152.876
688.7506, 1145.880
689.2327, 1140.724
689.7148, 1135.912
690.1970, 1130.268
690.6791, 1123.751
691.1612, 1116.083
691.6433, 1107.075
692.1254, 1098.256
692.6075, 1091.456
693.0897, 1085.749
693.5718, 1079.602
694.0539, 1072.323
694.5360, 1065.076
695.0181, 1058.059
695.5002, 1051.460
695.9824, 1045.414
696.4645, 1040.466
696.9466, 1035.359
697.4287, 1029.810
697.9108, 1024.083
698.3929, 1018.869
698.8751, 1014.166
699.3572, 1009.633
699.8393, 1005.021
700.3214, 1000.546
700.8035, 996.8853
701.2856, 993.9156
701.7678, 990.9365
702.2499, 987.2415
702.7320, 983.5481
703.2141, 980.6038
703.6962, 978.3193
704.1783, 976.0266
704.6605, 973.3134
705.1426, 970.6544
705.6247, 968.3641
706.1068, 966.5027
706.5889, 964.2860
707.0710, 961.4960
707.5532, 958.7458
708.0353, 956.3594
708.5174, 954.3395
708.9995, 952.7179
709.4816, 951.5107
709.9637, 950.6274
710.4459, 950.2252
710.9280, 950.0368
711.4101, 949.5763
711.8922, 948.7677
712.3743, 947.7574
712.8564, 946.5885
713.3386, 945.3146
713.8207, 943.9431
714.3028, 941.7401
714.7849, 940.5900
715.2670, 941.0526
715.7491, 942.2866
716.2313, 943.2000
716.7134, 943.6148
717.1955, 944.4206
717.6776, 945.9638
718.1597, 947.5898
718.6418, 947.6865
719.1240, 946.6365
719.6061, 946.3768
720.0882, 948.1046
720.5703, 950.3246
721.0524, 951.4116
721.5345, 951.7903
722.0167, 952.4855
722.4988, 954.2050
722.9809, 956.0020
723.4630, 957.5997
723.9451, 959.0086
724.4272, 960.2784
724.9094, 961.2188
725.3915, 962.4579
725.8736, 964.4557
726.3557, 966.9494
726.8378, 968.0762
727.3199, 967.8217
727.8021, 968.3655
728.2842, 971.9039
728.7663, 976.7697
729.2484, 980.2272
729.7305, 982.2501
730.2126, 983.8680
730.6948, 984.5161
731.1769, 985.7949
731.6590, 988.9404
732.1411, 994.3193
732.6232, 999.8532
733.1053, 1006.181
733.5875, 1011.714
734.0696, 1015.224
734.5517, 1016.403
735.0338, 1018.190
735.5159, 1020.758
735.9980, 1023.295
736.4802, 1024.280
736.9623, 1024.686
737.4444, 1027.340
737.9265, 1032.789
738.4086, 1039.071
738.8907, 1045.318
739.3729, 1051.320
739.8550, 1056.875
740.3371, 1062.528
740.8192, 1066.621
741.3013, 1067.005
741.7834, 1066.803
742.2656, 1069.355
742.7477, 1076.030
743.2298, 1080.248
743.7119, 1080.336
744.1940, 1079.769
744.6761, 1084.556
745.1583, 1093.597
745.6404, 1101.400
746.1225, 1106.318
746.6046, 1109.978
747.0867, 1113.347
747.5688, 1116.672
748.0510, 1120.318
748.5331, 1124.126
749.0152, 1128.679
749.4973, 1135.090
749.9794, 1142.174
750.4615, 1147.439
750.9437, 1150.105
751.4258, 1152.701
751.9079, 1155.460
752.3900, 1158.756
752.8721, 1163.904
753.3542, 1170.668
753.8364, 1177.753
754.3185, 1184.781
754.8006, 1191.563
755.2827, 1197.529
755.7648, 1202.978
756.2469, 1208.622
756.7291, 1214.362
757.2112, 1220.735
757.6933, 1228.034
758.1754, 1236.187
758.6575, 1245.127
759.1396, 1255.531
759.6218, 1265.207
760.1039, 1273.530
760.5860, 1280.509
761.0681, 1286.037
761.5502, 1290.189
762.0323, 1296.000
762.5145, 1306.749
762.9966, 1319.436
763.4787, 1330.024
763.9608, 1338.766
764.4429, 1347.608
764.9250, 1357.559
765.4072, 1367.788
765.8893, 1377.444
766.3714, 1386.558
766.8535, 1397.677
767.3356, 1411.847
767.8177, 1426.190
768.2999, 1439.125
768.7820, 1450.772
769.2641, 1462.352
769.7462, 1473.777
770.2283, 1485.773
770.7104, 1499.035
771.1926, 1513.090
771.6747, 1527.615
772.1568, 1542.426
772.6389, 1556.755
773.1210, 1569.445
773.6031, 1582.143
774.0853, 1596.267
774.5674, 1612.458
775.0495, 1626.445
775.5316, 1636.924
776.0137, 1647.572
776.4958, 1661.431
776.9780, 1678.301
777.4601, 1693.224
777.9422, 1706.126
778.4243, 1718.467
778.9064, 1730.489
779.3885, 1743.318
779.8707, 1759.703
780.3528, 1780.335
780.8349, 1798.904
781.3170, 1810.227
781.7991, 1819.897
782.2812, 1831.893
782.7633, 1847.032
783.2454, 1862.098
783.7275, 1876.778
784.2097, 1891.379
784.6918, 1906.245
785.1739, 1921.189
785.6560, 1935.719
786.1381, 1949.897
786.6202, 1963.257
787.1024, 1974.453
787.5845, 1985.108
788.0666, 1997.110
788.5487, 2011.052
789.0308, 2025.440
789.5129, 2040.153
789.9951, 2055.004
790.4772, 2069.638
790.9593, 2083.945
791.4414, 2098.761
791.9235, 2114.337
792.4056, 2130.242
792.8878, 2146.941
793.3699, 2163.916
793.8520, 2178.241
794.3341, 2189.480
794.8162, 2200.875
795.2983, 2215.573
795.7805, 2232.094
796.2626, 2249.281
796.7447, 2267.231
797.2268, 2284.408
797.7089, 2299.709
798.1910, 2314.917
798.6732, 2331.136
799.1553, 2348.752
799.6374, 2366.867
800.1195, 2385.387
800.6016, 2404.671
801.0837, 2425.928
801.5659, 2448.427
802.0480, 2470.127
802.5301, 2490.481
803.0122, 2510.522
803.4943, 2529.848
803.9764, 2550.044
804.4586, 2572.979
804.9407, 2600.218
805.4228, 2627.058
805.9049, 2652.926
806.3870, 2678.300
806.8691, 2703.894
807.3513, 2729.461
807.8334, 2756.442
808.3155, 2785.035
808.7976, 2814.289
809.2797, 2842.367
809.7618, 2870.696
810.2440, 2902.093
810.7261, 2937.578
811.2082, 2973.180
811.6903, 3005.896
812.1724, 3038.357
812.6545, 3072.374
813.1367, 3108.329
813.6188, 3146.367
814.1009, 3187.228
814.5830, 3228.350
815.0651, 3266.483
815.5472, 3302.034
816.0294, 3341.308
816.5115, 3384.637
816.9936, 3429.446
817.4757, 3471.984
817.9578, 3514.638
818.4399, 3560.534
818.9221, 3610.174
819.4042, 3660.754
819.8863, 3709.953
820.3684, 3760.900
820.8505, 3816.433
821.3326, 3878.292
821.8148, 3938.261
822.2969, 3995.473
822.7790, 4052.909
823.2611, 4113.263
823.7432, 4175.270
824.2253, 4233.001
824.7075, 4285.565
825.1896, 4340.844
825.6717, 4407.153
826.1538, 4476.593
826.6359, 4542.744
827.1180, 4603.674
827.6002, 4664.197
828.0823, 4723.627
828.5644, 4783.735
829.0465, 4845.794
829.5286, 4909.224
830.0107, 4970.719
830.4929, 5029.770
830.9750, 5088.415
831.4571, 5148.252
831.9392, 5208.227
832.4213, 5266.000
832.9034, 5320.817
833.3856, 5374.254
833.8677, 5422.137
834.3498, 5472.083
834.8319, 5531.712
835.3140, 5601.482
835.7961, 5661.546
836.2783, 5708.686
836.7604, 5754.738
837.2425, 5806.232
837.7246, 5861.933
838.2067, 5916.564
838.6888, 5970.682
839.1710, 6025.761
839.6531, 6084.045
840.1352, 6142.981
840.6173, 6199.490
841.0994, 6253.917
841.5815, 6308.815
842.0637, 6366.672
842.5458, 6423.263
843.0279, 6476.383
843.5100, 6527.030
843.9921, 6582.703
844.4742, 6643.220
844.9564, 6702.610
845.4385, 6755.561
845.9206, 6807.268
846.4027, 6867.346
846.8848, 6933.431
847.3669, 6997.123
847.8491, 7050.854
848.3312, 7105.755
848.8133, 7168.692
849.2954, 7237.278
849.7775, 7301.472
850.2596, 7359.829
850.7418, 7419.888
851.2239, 7484.851
851.7060, 7551.495
852.1881, 7612.041
852.6702, 7667.358
853.1523, 7718.999
853.6345, 7768.095
854.1166, 7813.396
854.5987, 7855.251
855.0808, 7892.073
855.5629, 7921.819
856.0450, 7941.125
856.5272, 7957.476
857.0093, 7974.431
857.4914, 7985.839
857.9735, 7978.731
858.4556, 7954.144
858.9377, 7928.197
859.4199, 7906.078
859.9020, 7880.965
860.3841, 7844.857
860.8662, 7801.570
861.3483, 7756.197
861.8304, 7713.758
862.3126, 7663.542
862.7947, 7597.952
863.2768, 7526.934
863.7589, 7460.037
864.2410, 7398.423
864.7231, 7330.054
865.2053, 7252.615
865.6874, 7171.510
866.1695, 7091.744
866.6516, 7011.557
867.1337, 6926.396
867.6158, 6835.086
868.0980, 6742.915
868.5801, 6650.399
869.0622, 6558.741
869.5443, 6469.058
870.0264, 6380.611
870.5085, 6294.382
870.9907, 6213.289
871.4728, 6130.050
871.9549, 6037.822
872.4370, 5939.869
872.9191, 5850.262
873.4012, 5768.242
873.8834, 5688.065
874.3655, 5605.529
874.8476, 5523.217
875.3297, 5441.710
875.8118, 5361.391
876.2939, 5283.120
876.7761, 5207.745
877.2582, 5133.474
877.7403, 5059.919
878.2224, 4986.519
878.7045, 4912.073
879.1866, 4836.486
879.6688, 4762.648
880.1509, 4691.798
880.6330, 4623.695
881.1151, 4560.020
881.5972, 4498.776
882.0793, 4435.463
882.5615, 4364.268
883.0436, 4295.779
883.5257, 4232.832
884.0078, 4173.560
884.4899, 4113.854
884.9720, 4053.676
885.4542, 3994.156
885.9363, 3935.042
886.4184, 3877.515
886.9005, 3823.713
887.3826, 3772.205
887.8647, 3720.902
888.3469, 3669.148
888.8290, 3617.313
889.3111, 3565.743
889.7932, 3514.558
890.2753, 3463.478
890.7574, 3412.163
891.2396, 3361.585
891.7217, 3311.520
892.2038, 3262.032
892.6859, 3212.977
893.1680, 3164.546
893.6501, 3116.972
894.1323, 3069.900
894.6144, 3023.544
895.0965, 2976.627
895.5786, 2931.128
896.0607, 2888.444
896.5428, 2848.854
897.0250, 2808.160
897.5071, 2766.117
897.9892, 2724.093
898.4713, 2681.639
898.9534, 2639.938
899.4355, 2601.567
899.9177, 2566.486
900.3998, 2531.928
900.8819, 2496.918
901.3640, 2462.265
901.8461, 2429.272
902.3282, 2397.687
902.8104, 2364.792
903.2925, 2330.544
903.7746, 2295.488
904.2567, 2259.500
904.7388, 2223.519
905.2209, 2190.071
905.7031, 2158.685
906.1852, 2127.474
906.6673, 2094.813
907.1494, 2062.981
907.6315, 2033.156
908.1136, 2005.220
908.5958, 1979.127
909.0779, 1955.969
909.5600, 1932.591
910.0421, 1908.998
910.5242, 1884.976
911.0063, 1858.697
911.4885, 1831.213
911.9706, 1807.985
912.4527, 1790.388
912.9348, 1773.223
913.4169, 1752.306
913.8990, 1730.021
914.3812, 1708.288
914.8633, 1687.243
915.3454, 1667.536
915.8275, 1650.005
916.3096, 1632.209
916.7917, 1611.954
917.2739, 1589.838
917.7560, 1570.062
918.2381, 1552.499
918.7202, 1535.769
919.2023, 1520.315
919.6844, 1504.205
920.1666, 1485.188
920.6487, 1463.807
921.1308, 1443.087
921.6129, 1423.248
922.0950, 1404.393
922.5771, 1387.147
923.0593, 1370.657
923.5414, 1352.612
924.0235, 1333.440
924.5056, 1314.900
924.9877, 1298.104
925.4698, 1281.540
925.9520, 1263.949
926.4341, 1245.748
926.9162, 1227.675
927.3983, 1209.631
927.8804, 1192.137
928.3625, 1175.312
928.8447, 1159.136
929.3268, 1143.911
929.8089, 1129.570
930.2910, 1114.333
930.7731, 1097.859
931.2552, 1082.174
931.7374, 1068.841
932.2195, 1056.618
932.7016, 1044.334
933.1837, 1031.971
933.6658, 1019.615
934.1479, 1007.077
934.6301, 994.7925
935.1122, 982.7883
935.5943, 971.2070
936.0764, 960.9192
936.5585, 951.7117
937.0406, 942.6440
937.5228, 933.1278
938.0049, 923.4934
938.4870, 913.6215
938.9691, 903.8297
939.4512, 894.9539
939.9333, 887.5441
940.4155, 880.0670
940.8976, 872.3749
941.3797, 864.4891
941.8618, 856.3486
942.3439, 848.0635
942.8260, 840.4841
943.3082, 833.6957
943.7903, 827.2952
944.2724, 820.8105
944.7545, 814.6595
945.2366, 809.3333
945.7188, 805.3965
946.2009, 800.4879
946.6830, 794.4080
947.1651, 787.7624
947.6472, 780.4011
948.1293, 772.8116
948.6115, 767.3479
949.0936, 763.7513
949.5757, 759.7093
950.0578, 753.0261
950.5399, 746.3163
951.0220, 741.2278
951.5042, 737.5223
951.9863, 733.8878
952.4684, 730.5932
952.9505, 726.4786
953.4326, 720.9142
953.9147, 715.0350
954.3969, 710.8054
954.8790, 707.8439
955.3611, 705.1476
955.8432, 702.5840
956.3253, 699.9052
956.8074, 696.6141
957.2896, 693.3823
957.7717, 691.0375
958.2538, 690.3880
958.7359, 687.1644
959.2180, 680.6865
959.7001, 674.5126
960.1823, 672.3245
960.6644, 672.2255
961.1465, 670.5836
961.6286, 667.3204
962.1107, 663.3106
962.5928, 657.6855
963.0750, 652.7525
963.5571, 649.7307
964.0392, 648.1404
964.5213, 646.4717
965.0034, 644.8076
965.4855, 642.4017
965.9677, 638.8273
966.4498, 634.8279
966.9319, 631.3295
967.4140, 628.2164
967.8961, 625.3279
968.3782, 622.3554
968.8604, 620.0967
969.3425, 619.5247
969.8246, 618.8914
970.3067, 616.3621
970.7888, 611.8428
971.2709, 608.9293
971.7531, 607.7971
972.2352, 606.9841
972.7173, 605.5931
973.1994, 603.7143
973.6815, 601.1056
974.1636, 597.8969
974.6458, 595.4787
975.1279, 595.0068
975.6100, 593.9697
976.0921, 591.4011
976.5742, 588.0110
977.0563, 585.9277
977.5385, 584.9191
978.0206, 583.6511
978.5027, 581.5172
978.9848, 579.2913
979.4669, 577.7799
979.9490, 576.4401
980.4311, 574.5538
980.9132, 571.8190
981.3953, 568.9531
981.8774, 565.7269
982.3596, 562.9720
982.8417, 561.8328
983.3238, 561.7418
983.8059, 561.1697
984.2880, 560.0311
984.7701, 558.3556
985.2523, 555.7531
985.7344, 553.0016
986.2165, 550.2655
986.6986, 547.6948
987.1807, 546.1080
987.6628, 545.7269
988.1450, 545.1448
988.6271, 544.0869
989.1092, 542.3527
989.5913, 538.6080
990.0734, 534.2243
990.5555, 531.8989
991.0377, 533.7911
991.5198, 534.9064
992.0019, 533.7463
992.4840, 531.7045
992.9661, 529.6625
993.4482, 527.6207
993.9304, 525.5519
994.4125, 523.4336
994.8946, 521.6553
995.3767, 520.9514
995.8588, 520.3074
996.3409, 518.2522
996.8231, 515.1689
997.3052, 513.6643
997.7873, 515.6551
998.2694, 516.2382
998.7515, 513.6879
999.2336, 510.0187
999.7158, 509.9100
1000.198, 512.3299
1000.680, 513.4081
1001.162, 511.8604
1001.644, 509.7027
1002.126, 507.8027
1002.608, 506.1849
1003.091, 504.9958
1003.573, 504.3521
1004.055, 503.2992
1004.537, 501.7582
1005.019, 500.1606
1005.501, 498.7091
1005.983, 497.4309
1006.465, 496.3041
1006.948, 495.3492
1007.430, 494.5908
1007.912, 494.6883
1008.394, 494.1378
1008.876, 491.9637
1009.358, 489.3882
1009.840, 489.0673
1010.322, 490.8961
1010.804, 490.9239
1011.287, 488.1964
1011.769, 485.3385
1012.251, 485.1104
1012.733, 485.8297
1013.215, 485.7142
1013.697, 484.3028
1014.179, 483.6442
1014.661, 484.1107
1015.143, 484.6719
1015.626, 485.0309
1016.108, 485.0117
1016.590, 483.7539
1017.072, 481.5863
1017.554, 479.6860
1018.036, 478.6136
1018.518, 477.9122
1019.000, 477.6951
1019.483, 477.6093
1019.965, 477.1874
1020.447, 476.3917
1020.929, 475.3091
1021.411, 473.8541
1021.893, 472.6770
1022.375, 472.6275
1022.857, 473.0911
1023.339, 473.6855
1023.822, 474.3031
1024.304, 473.5101
1024.786, 469.2555
1025.268, 465.9499
1025.750, 465.0303
1026.232, 465.8280
1026.714, 466.9494
1027.196, 468.2487
1027.679, 468.9464
1028.161, 468.7191
1028.643, 467.9854
1029.125, 466.8838
1029.607, 465.4870
1030.089, 463.7150
1030.571, 461.1434
1031.053, 459.9715
1031.536, 460.3798
1032.018, 461.2542
1032.500, 462.1901
1032.982, 462.8358
1033.464, 462.4132
1033.946, 461.1226
1034.428, 459.8351
1034.910, 458.3243
1035.392, 457.6387
1035.875, 458.3634
1036.357, 459.6346
1036.839, 459.9230
1037.321, 459.3303
1037.803, 458.7643
1038.285, 458.4076
1038.767, 457.8139
1039.249, 456.0815
1039.731, 454.3644
1040.214, 453.7940
1040.696, 454.5211
1041.178, 454.7107
1041.660, 454.1852
1042.142, 453.7881
1042.624, 454.0254
1043.106, 454.4496
1043.588, 454.2124
1044.071, 453.5314
1044.553, 452.8992
1045.035, 452.4474
1045.517, 452.1334
1045.999, 452.1911
1046.481, 452.1299
1046.963, 451.3376
1047.445, 449.8852
1047.927, 449.0816
1048.410, 448.9431
1048.892, 448.7029
1049.374, 447.4218
1049.856, 446.1881
1050.338, 446.0192
1050.820, 446.6331
1051.302, 446.6162
1051.784, 445.7389
1052.266, 444.9973
1052.749, 444.6345
1053.231, 444.3520
1053.713, 443.7380
1054.195, 442.9231
1054.677, 442.0284
1055.159, 441.0143
1055.641, 440.3475
1056.123, 440.5159
1056.606, 440.6367
1057.088, 440.2520
1057.570, 439.4865
1058.052, 438.7698
1058.534, 438.2172
1059.016, 438.6564
1059.498, 441.9384
1059.980, 444.3708
1060.463, 442.7381
1060.945, 439.2519
1061.427, 437.0299
1061.909, 436.3632
1062.391, 436.3822
1062.873, 437.1803
1063.355, 437.9715
1063.837, 438.0605
1064.319, 437.7318
1064.802, 437.3448
1065.284, 436.9067
1065.766, 436.3309
1066.248, 435.4455
1066.730, 434.6128
1067.212, 433.8782
1067.694, 433.2430
1068.176, 432.6978
1068.658, 432.2587
1069.141, 432.0567
1069.623, 432.1623
1070.105, 432.1817
1070.587, 431.5369
1071.069, 431.0600
1071.551, 431.4759
1072.033, 432.6765
1072.515, 432.7166
1072.998, 431.5055
1073.480, 432.0562
1073.962, 437.4921
1074.444, 442.5758
1074.926, 440.2222
1075.408, 434.1728
1075.890, 430.2992
1076.372, 431.2303
1076.854, 431.3681
1077.337, 430.5039
1077.819, 429.4096
1078.301, 428.6546
1078.783, 428.1691
1079.265, 427.7065
1079.747, 427.3405
1080.229, 427.4606
1080.711, 428.3122
1081.193, 429.6944
1081.676, 432.3188
1082.158, 434.7238
1082.640, 433.8353
1083.122, 430.0690
1083.604, 427.5573
1084.086, 426.9307
1084.568, 426.8559
1085.050, 426.9385
1085.532, 426.6791
1086.015, 425.4321
1086.497, 423.3560
1086.979, 421.8311
1087.461, 420.8535
1087.943, 420.6183
1088.425, 421.5597
1088.907, 422.4652
1089.389, 421.1922
1089.872, 419.0936
1090.354, 418.2086
1090.836, 419.5637
1091.318, 420.4883
1091.800, 420.8027
1092.282, 420.7557
1092.764, 420.4249
1093.246, 419.8672
1093.729, 419.0958
1094.211, 418.2191
1094.693, 417.6765
1095.175, 418.0036
1095.657, 418.2203
1096.139, 418.0223
1096.621, 417.6158
1097.103, 417.0611
1097.585, 416.3899
1098.068, 416.6049
1098.550, 417.7403
1099.032, 418.5197
1099.514, 418.0610
1099.996, 416.9128
1100.478, 414.8395
1100.960, 412.3778
1101.442, 411.4131
1101.924, 412.1797
1102.407, 413.1616
1102.889, 414.1897
1103.371, 414.9011
1103.853, 414.9712
1104.335, 414.4494
1104.817, 412.9363
1105.299, 410.1607
1105.781, 409.5011
1106.264, 412.2559
1106.746, 414.3620
1107.228, 414.0420
1107.710, 412.4930
1108.192, 412.1961
1108.674, 412.6059
1109.156, 412.4173
1109.638, 410.9115
1110.120, 409.6251
1110.603, 408.7032
1111.085, 408.4311
1111.567, 409.5013
1112.049, 411.5123
1112.531, 411.0480
1113.013, 408.5648
1113.495, 406.9207
1113.977, 408.7165
1114.459, 410.4481
1114.942, 410.0797
1115.424, 408.8973
1115.906, 408.6574
1116.388, 409.4984
1116.870, 409.7453
1117.352, 409.3002
1117.834, 408.6380
1118.316, 408.2750
1118.799, 407.7311
1119.281, 406.2418
1119.763, 404.1696
1120.245, 403.1039
1120.727, 403.3176
1121.209, 403.7670
1121.691, 404.3937
1122.173, 404.7676
1122.656, 403.9895
1123.138, 402.8519
1123.620, 402.5874
1124.102, 403.3672
1124.584, 403.5479
1125.066, 402.5199
1125.548, 401.8171
1126.030, 402.1147
1126.512, 402.7240
1126.995, 401.8257
1127.477, 400.2202
1127.959, 400.0210
1128.441, 402.3483
1128.923, 403.7861
1129.405, 402.8571
1129.887, 401.2125
1130.369, 399.0530
1130.851, 396.9296
1131.334, 398.4088
1131.816, 402.5541
1132.298, 404.9409
1132.780, 402.5116
1133.262, 399.7660
1133.744, 398.4731
1134.226, 398.0607
1134.708, 398.0698
1135.191, 398.5209
1135.673, 399.0511
1136.155, 399.6580
1136.637, 400.1859
1137.119, 400.7160
1137.601, 400.9682
1138.083, 400.7956
1138.565, 400.1663
1139.047, 398.9913
1139.530, 397.0456
1140.012, 395.7137
1140.494, 395.0981
1140.976, 395.2066
1141.458, 396.7768
1141.940, 398.5243
1142.422, 399.0333
1142.904, 398.4348
1143.386, 397.9037
1143.869, 397.4936
1144.351, 397.2176
1144.833, 397.0976
1145.315, 397.0342
1145.797, 397.1725
1146.279, 397.1508
1146.761, 396.0580
1147.243, 393.7515
1147.726, 392.9300
1148.208, 394.7626
1148.690, 396.3714
1149.172, 396.9689
1149.654, 396.7662
1150.136, 395.4562
1150.618, 393.8416
1151.100, 393.9380
1151.583, 396.8652
1152.065, 398.3080
1152.547, 395.7647
1153.029, 393.5800
1153.511, 394.1826
1153.993, 396.3832
1154.475, 395.8579
1154.957, 393.4818
1155.439, 392.2673
1155.922, 394.0154
1156.404, 395.5455
1156.886, 395.6632
1157.368, 395.1879
1157.850, 394.3953
1158.332, 393.3932
1158.814, 393.4692
1159.296, 394.4291
1159.778, 395.0009
1160.261, 393.6954
1160.743, 392.7982
1161.225, 393.9391
1161.707, 395.6659
1162.189, 396.5208
1162.671, 396.4864
1163.153, 395.9257
1163.635, 394.8775
1164.118, 394.1948
1164.600, 395.0557
1165.082, 395.8546
1165.564, 395.4379
1166.046, 394.3033
1166.528, 393.4227
1167.010, 392.8326
1167.492, 391.9266
1167.974, 390.5775
1168.457, 390.0180
1168.939, 392.1057
1169.421, 394.6478
1169.903, 396.1358
1170.385, 396.5191
1170.867, 396.1765
1171.349, 395.0120
1171.831, 393.4040
1172.313, 391.2062
1172.796, 389.9307
1173.278, 392.4488
1173.760, 395.7151
1174.242, 396.6217
1174.724, 394.9704
1175.206, 393.4571
1175.688, 392.0052
1176.170, 391.4106
1176.653, 392.1109
1177.135, 393.0435
1177.617, 392.7990
1178.099, 392.0390
1178.581, 391.5033
1179.063, 391.3022
1179.545, 391.4701
1180.027, 392.1190
1180.510, 392.7167
1180.992, 393.1197
1181.474, 393.2560
1181.956, 392.7730
1182.438, 392.0472
1182.920, 391.7008
1183.402, 391.9813
1183.884, 392.0793
1184.366, 391.7686
1184.849, 391.8657
1185.331, 392.9865
1185.813, 394.5291
1186.295, 395.6436
1186.777, 396.2738
1187.259, 396.2054
1187.741, 394.6787
1188.223, 394.2394
1188.705, 395.5392
1189.188, 396.6149
1189.670, 395.8134
1190.152, 394.1548
1190.634, 393.7304
1191.116, 394.2286
1191.598, 394.9055
1192.080, 395.8403
1192.562, 396.4370
1193.045, 396.6981
1193.527, 396.5635
1194.009, 395.4568
1194.491, 394.1197
1194.973, 394.6164
1195.455, 396.4716
1195.937, 398.0295
1196.419, 398.8286
1196.901, 398.9903
1197.384, 398.3239
1197.866, 397.4703
1198.348, 397.2010
1198.830, 397.1585
1199.312, 396.0521
1199.794, 394.2093
1200.276, 393.4095
1200.758, 396.0130
1201.240, 397.2262
1201.723, 395.8403
1202.205, 393.7872
1202.687, 393.4981
1203.169, 394.3441
1203.651, 394.7741
1204.133, 394.7546
1204.615, 394.9794
1205.097, 396.2392
1205.580, 397.0285
1206.062, 397.0368
1206.544, 396.5135
1207.026, 395.3719
1207.508, 394.0824
1207.990, 394.1512
1208.472, 395.6325
1208.954, 396.5903
1209.437, 395.8208
1209.919, 395.0884
1210.401, 394.8654
1210.883, 394.7461
1211.365, 393.6033
1211.847, 392.1298
1212.329, 392.1894
1212.811, 394.0822
1213.293, 395.6541
1213.776, 396.0080
1214.258, 396.2271
1214.740, 396.7578
1215.222, 397.0770
1215.704, 395.5642
1216.186, 393.1868
1216.668, 392.4110
1217.150, 393.8287
1217.632, 394.7933
1218.115, 394.1999
1218.597, 393.6129
1219.079, 393.5864
1219.561, 393.7839
1220.043, 393.5993
1220.525, 393.0826
1221.007, 392.1803
1221.489, 390.7017
1221.972, 390.0620
1222.454, 391.3951
1222.936, 391.9929
1223.418, 390.3124
1223.900, 387.9229
1224.382, 388.6356
1224.864, 391.1144
1225.346, 392.5379
1225.828, 392.0337
1226.311, 391.3657
1226.793, 390.6601
1227.275, 390.1950
1227.757, 390.1706
1228.239, 390.3826
1228.721, 390.5677
1229.203, 390.6238
1229.685, 390.2847
1230.167, 389.2802
1230.650, 388.5861
1231.132, 388.3520
1231.614, 388.2632
1232.096, 388.3022
1232.578, 388.2232
1233.060, 387.0537
1233.542, 385.5456
1234.024, 385.3071
1234.507, 387.7481
1234.989, 388.5055
1235.471, 386.8786
1235.953, 385.2692
1236.435, 385.2968
1236.917, 385.8827
1237.399, 384.8565
1237.881, 383.1651
1238.364, 382.5543
1238.846, 383.7738
1239.328, 385.4364
1239.810, 387.8087
1240.292, 389.5272
1240.774, 389.8302
1241.256, 388.9240
1241.738, 386.3935
1242.220, 383.0975
1242.703, 380.4958
1243.185, 378.6924
1243.667, 378.1128
1244.149, 378.9441
1244.631, 379.8623
1245.113, 379.8207
1245.595, 379.5776
1246.077, 380.2686
1246.559, 381.2307
1247.042, 381.2414
1247.524, 380.0298
1248.006, 378.6310
1248.488, 377.0075
1248.970, 375.6898
1249.452, 375.1652
1249.934, 374.9741
1250.416, 374.6127
1250.899, 374.4145
1251.381, 375.1260
1251.863, 377.2423
1252.345, 376.9570
1252.827, 374.2554
1253.309, 372.0331
1253.791, 373.0063
1254.273, 374.2657
1254.755, 373.7133
1255.238, 372.3092
1255.720, 371.3752
1256.202, 370.9032
1256.684, 370.8801
1257.166, 371.2818
1257.648, 371.7923
1258.130, 372.4095
1258.612, 372.8613
1259.094, 373.1078
1259.577, 373.0240
1260.059, 372.3623
1260.541, 371.1755
1261.023, 369.8758
1261.505, 368.5805
1261.987, 368.0402
1262.469, 369.3026
1262.951, 370.6066
1263.434, 371.7257
1263.916, 372.2487
1264.398, 371.2040
1264.880, 369.1685
1265.362, 369.1517
1265.844, 370.8054
1266.326, 371.8693
1266.808, 370.7026
1267.291, 369.7370
1267.773, 369.5134
1268.255, 369.3954
1268.737, 368.8160
1269.219, 367.8399
1269.701, 366.2676
1270.183, 364.3839
1270.665, 363.2291
1271.147, 363.7110
1271.630, 364.0838
1272.112, 364.1469
1272.594, 364.3253
1273.076, 365.5164
1273.558, 366.7616
1274.040, 366.2095
1274.522, 364.4259
1275.004, 363.3746
1275.486, 363.9024
1275.969, 363.4981
1276.451, 361.7434
1276.933, 360.5743
1277.415, 362.7136
1277.897, 365.3989
1278.379, 365.3715
1278.861, 363.6176
1279.343, 362.7459
1279.825, 363.0354
1280.308, 363.4319
1280.790, 363.9044
1281.272, 364.0340
1281.754, 363.2671
1282.236, 362.2889
1282.718, 361.3289
1283.200, 360.6111
1283.682, 360.5301
1284.165, 361.1113
1284.647, 361.4571
1285.129, 361.5339
1285.611, 361.4218
1286.093, 360.8296
1286.575, 360.4760
1287.057, 361.0553
1287.539, 361.7236
1288.021, 361.4530
1288.504, 360.4457
1288.986, 359.8151
1289.468, 359.5668
1289.950, 359.4563
1290.432, 359.3367
1290.914, 359.4185
1291.396, 359.7907
1291.878, 360.2586
1292.360, 360.8360
1292.843, 361.3013
1293.325, 360.9861
1293.807, 360.0468
1294.289, 359.0766
1294.771, 357.8467
1295.253, 357.3703
1295.735, 357.8365
1296.217, 358.5478
1296.700, 358.9232
1297.182, 359.1749
1297.664, 359.8230
1298.146, 360.5222
1298.628, 360.3866
1299.110, 359.1958
1299.592, 357.9728
1300.074, 356.6963
1300.557, 355.8055
1301.039, 355.9988
1301.521, 356.2908
1302.003, 355.7184
1302.485, 354.8178
1302.967, 354.4611
1303.449, 354.8534
##END=



