##NAMES=Brackebuschite
##RRUFFID=R100087
##IDEAL CHEMISTRY=Pb^2+^_2_Mn^3+^(V^5+^O_4_)_2_(OH)
##LOCALITY=C & B mine, Hayden, Gila County, Arizona, USA
##OWNER=RRUFF
##SOURCE=Mark Ascher
##DESCRIPTION=Isolated blocky reddish-brown crystals associated with yellow vanadinite
##STATUS=The identification of this mineral has been confirmed only by single crystal X-ray diffraction.
##URL=rruff.info/R100087
91.53320, 2692.648
92.01532, 2677.056
92.49744, 2664.779
92.97955, 2699.175
93.46167, 2739.137
93.94379, 2746.340
94.42590, 2733.582
94.90802, 2712.676
95.39014, 2690.515
95.87225, 2668.508
96.35437, 2641.403
96.83649, 2607.664
97.31860, 2571.087
97.80072, 2534.823
98.28284, 2497.506
98.76495, 2457.265
99.24707, 2417.377
99.72919, 2376.758
100.2113, 2338.456
100.6934, 2303.209
101.1755, 2270.161
101.6577, 2238.278
102.1398, 2206.093
102.6219, 2173.092
103.1040, 2142.417
103.5861, 2114.740
104.0682, 2087.611
104.5504, 2059.247
105.0325, 2029.538
105.5146, 1999.614
105.9967, 1971.140
106.4788, 1944.677
106.9609, 1917.569
107.4431, 1888.544
107.9252, 1858.812
108.4073, 1829.946
108.8894, 1802.206
109.3715, 1775.895
109.8536, 1751.867
110.3358, 1730.077
110.8179, 1708.984
111.3000, 1686.972
111.7821, 1664.337
112.2642, 1644.166
112.7463, 1628.525
113.2285, 1615.642
113.7106, 1603.794
114.1927, 1592.838
114.6748, 1582.661
115.1569, 1573.095
115.6390, 1563.725
116.1212, 1555.949
116.6033, 1550.754
117.0854, 1546.801
117.5675, 1542.548
118.0496, 1536.991
118.5317, 1530.859
119.0139, 1527.773
119.4960, 1530.546
119.9781, 1533.719
120.4602, 1536.730
120.9423, 1539.418
121.4244, 1541.525
121.9066, 1542.675
122.3887, 1542.647
122.8708, 1545.027
123.3529, 1550.147
123.8350, 1556.693
124.3171, 1565.008
124.7993, 1574.667
125.2814, 1583.694
125.7635, 1589.657
126.2456, 1591.494
126.7277, 1596.534
127.2098, 1606.577
127.6920, 1619.093
128.1741, 1631.859
128.6562, 1644.501
129.1383, 1656.777
129.6204, 1668.070
130.1025, 1678.507
130.5847, 1689.138
131.0668, 1699.949
131.5489, 1711.190
132.0310, 1723.864
132.5131, 1739.286
132.9952, 1755.246
133.4774, 1769.748
133.9595, 1782.774
134.4416, 1795.541
134.9237, 1809.431
135.4058, 1824.844
135.8879, 1839.116
136.3701, 1851.274
136.8522, 1862.418
137.3343, 1873.018
137.8164, 1883.275
138.2985, 1893.012
138.7806, 1902.098
139.2628, 1910.748
139.7449, 1918.190
140.2270, 1924.066
140.7091, 1929.098
141.1912, 1933.987
141.6733, 1939.018
142.1555, 1943.955
142.6376, 1947.907
143.1197, 1949.545
143.6018, 1951.570
144.0839, 1954.230
144.5660, 1957.445
145.0482, 1961.050
145.5303, 1964.935
146.0124, 1969.124
146.4945, 1973.958
146.9766, 1979.453
147.4587, 1985.361
147.9409, 1991.891
148.4230, 1998.876
148.9051, 2005.592
149.3872, 2011.530
149.8693, 2016.734
150.3514, 2022.022
150.8336, 2027.213
151.3157, 2032.614
151.7978, 2038.901
152.2799, 2046.331
152.7620, 2053.179
153.2441, 2058.093
153.7263, 2061.541
154.2084, 2064.041
154.6905, 2065.901
155.1726, 2066.881
155.6547, 2066.359
156.1368, 2063.996
156.6190, 2060.584
157.1011, 2056.906
157.5832, 2052.697
158.0653, 2047.315
158.5474, 2039.984
159.0295, 2030.869
159.5117, 2022.190
159.9938, 2014.187
160.4759, 2006.360
160.9580, 1998.650
161.4401, 1990.989
161.9222, 1983.313
162.4044, 1975.593
162.8865, 1967.794
163.3686, 1959.852
163.8507, 1950.865
164.3328, 1942.438
164.8149, 1936.050
165.2971, 1931.286
165.7792, 1926.338
166.2613, 1918.934
166.7434, 1908.016
167.2255, 1897.597
167.7076, 1888.774
168.1898, 1879.627
168.6719, 1868.702
169.1540, 1855.715
169.6361, 1841.762
170.1182, 1828.491
170.6003, 1817.023
171.0825, 1803.084
171.5646, 1786.262
172.0467, 1767.003
172.5288, 1745.467
173.0109, 1721.564
173.4930, 1696.250
173.9752, 1670.630
174.4573, 1644.692
174.9394, 1618.675
175.4215, 1592.227
175.9036, 1565.618
176.3857, 1539.630
176.8679, 1514.095
177.3500, 1489.488
177.8321, 1466.458
178.3142, 1444.961
178.7963, 1423.974
179.2784, 1402.260
179.7606, 1379.985
180.2427, 1360.001
180.7248, 1343.524
181.2069, 1329.511
181.6890, 1317.010
182.1711, 1305.914
182.6533, 1296.189
183.1354, 1287.957
183.6175, 1281.322
184.0996, 1275.388
184.5817, 1269.594
185.0638, 1264.734
185.5460, 1261.301
186.0281, 1259.411
186.5102, 1259.074
186.9923, 1260.692
187.4744, 1265.310
187.9565, 1269.103
188.4387, 1269.361
188.9208, 1270.043
189.4029, 1274.152
189.8850, 1282.582
190.3671, 1293.807
190.8492, 1305.241
191.3314, 1317.115
191.8135, 1328.651
192.2956, 1339.039
192.7777, 1349.429
193.2598, 1360.937
193.7419, 1373.955
194.2241, 1387.961
194.7062, 1401.667
195.1883, 1413.431
195.6704, 1427.008
196.1525, 1443.355
196.6346, 1461.229
197.1168, 1479.228
197.5989, 1496.749
198.0810, 1514.056
198.5631, 1531.937
199.0452, 1550.636
199.5273, 1569.550
200.0095, 1588.430
200.4916, 1607.454
200.9737, 1627.054
201.4558, 1647.570
201.9379, 1668.727
202.4200, 1690.410
202.9022, 1713.610
203.3843, 1735.468
203.8664, 1754.250
204.3485, 1770.839
204.8306, 1787.432
205.3127, 1804.804
205.7949, 1822.967
206.2770, 1841.972
206.7591, 1863.075
207.2412, 1882.553
207.7233, 1897.662
208.2054, 1908.984
208.6876, 1919.707
209.1697, 1931.094
209.6518, 1942.469
210.1339, 1953.201
210.6160, 1963.613
211.0981, 1972.217
211.5803, 1978.086
212.0624, 1981.224
212.5445, 1981.203
213.0266, 1976.539
213.5087, 1969.155
213.9908, 1961.272
214.4730, 1953.556
214.9551, 1943.625
215.4372, 1928.211
215.9193, 1906.407
216.4014, 1884.439
216.8836, 1866.184
217.3657, 1847.055
217.8478, 1823.169
218.3299, 1793.656
218.8120, 1761.405
219.2941, 1730.647
219.7763, 1702.227
220.2584, 1672.507
220.7405, 1639.540
221.2226, 1605.745
221.7047, 1572.472
222.1868, 1540.123
222.6690, 1508.612
223.1511, 1477.853
223.6332, 1447.648
224.1153, 1418.396
224.5974, 1390.682
225.0795, 1363.507
225.5617, 1335.580
226.0438, 1306.739
226.5259, 1278.667
227.0080, 1254.503
227.4901, 1236.999
227.9722, 1218.833
228.4544, 1198.639
228.9365, 1178.475
229.4186, 1159.833
229.9007, 1143.240
230.3828, 1128.593
230.8649, 1116.022
231.3471, 1107.262
231.8292, 1097.823
232.3113, 1086.942
232.7934, 1075.903
233.2755, 1065.652
233.7576, 1056.510
234.2398, 1048.098
234.7219, 1039.896
235.2040, 1031.323
235.6861, 1024.168
236.1682, 1018.609
236.6503, 1014.307
237.1325, 1011.218
237.6146, 1009.294
238.0967, 1008.076
238.5788, 1006.975
239.0609, 1006.286
239.5430, 1004.941
240.0252, 1002.044
240.5073, 998.9011
240.9894, 996.8693
241.4715, 996.2618
241.9536, 996.4151
242.4357, 996.4659
242.9179, 996.3102
243.4000, 996.5727
243.8821, 997.7991
244.3642, 999.2516
244.8463, 1000.058
245.3284, 1000.029
245.8106, 999.7244
246.2927, 999.7797
246.7748, 1000.207
247.2569, 1000.645
247.7390, 1000.947
248.2211, 1001.275
248.7033, 1002.072
249.1854, 1003.517
249.6675, 1004.548
250.1496, 1003.659
250.6317, 1001.159
251.1138, 999.1377
251.5960, 998.0673
252.0781, 997.6808
252.5602, 997.7205
253.0423, 998.2070
253.5244, 998.8768
254.0065, 999.7173
254.4887, 1000.599
254.9708, 1001.084
255.4529, 1000.234
255.9350, 999.2615
256.4171, 1000.019
256.8992, 1002.807
257.3813, 1006.181
257.8635, 1009.319
258.3456, 1012.332
258.8277, 1015.423
259.3098, 1018.316
259.7919, 1021.480
260.2740, 1025.806
260.7562, 1031.574
261.2383, 1037.260
261.7204, 1041.821
262.2025, 1045.823
262.6846, 1050.079
263.1667, 1055.274
263.6489, 1060.257
264.1310, 1063.022
264.6131, 1062.959
265.0952, 1063.326
265.5773, 1066.411
266.0594, 1070.339
266.5416, 1073.381
267.0237, 1074.997
267.5058, 1075.825
267.9879, 1076.540
268.4700, 1077.035
268.9521, 1077.969
269.4343, 1080.177
269.9164, 1082.624
270.3985, 1084.232
270.8806, 1084.638
271.3627, 1085.244
271.8448, 1087.824
272.3270, 1092.628
272.8091, 1098.158
273.2912, 1103.776
273.7733, 1110.247
274.2554, 1118.203
274.7375, 1127.785
275.2197, 1138.457
275.7018, 1149.379
276.1839, 1160.174
276.6660, 1173.357
277.1481, 1191.744
277.6302, 1210.904
278.1124, 1228.035
278.5945, 1243.280
279.0766, 1259.046
279.5587, 1277.777
280.0408, 1299.746
280.5229, 1322.602
281.0051, 1346.682
281.4872, 1371.309
281.9693, 1396.096
282.4514, 1421.099
282.9335, 1446.801
283.4156, 1473.384
283.8978, 1500.844
284.3799, 1529.534
284.8620, 1560.638
285.3441, 1591.866
285.8262, 1621.552
286.3083, 1650.684
286.7905, 1681.494
287.2726, 1715.544
287.7547, 1752.622
288.2368, 1790.186
288.7189, 1828.902
289.2010, 1867.371
289.6832, 1905.002
290.1653, 1941.995
290.6474, 1979.124
291.1295, 2016.787
291.6116, 2054.487
292.0938, 2089.853
292.5759, 2121.275
293.0580, 2152.311
293.5401, 2184.344
294.0222, 2216.211
294.5043, 2246.849
294.9865, 2275.883
295.4686, 2302.575
295.9507, 2324.886
296.4328, 2340.793
296.9149, 2355.512
297.3970, 2370.675
297.8792, 2384.606
298.3613, 2395.624
298.8434, 2403.304
299.3255, 2408.650
299.8076, 2413.242
300.2897, 2417.108
300.7719, 2420.030
301.2540, 2420.435
301.7361, 2421.164
302.2182, 2423.978
302.7003, 2429.173
303.1824, 2435.965
303.6646, 2443.075
304.1467, 2449.465
304.6288, 2460.106
305.1109, 2476.642
305.5930, 2495.743
306.0751, 2515.638
306.5573, 2536.583
307.0394, 2560.165
307.5215, 2588.124
308.0036, 2620.942
308.4857, 2653.483
308.9678, 2682.425
309.4500, 2714.517
309.9321, 2752.817
310.4142, 2795.991
310.8963, 2840.856
311.3784, 2885.365
311.8605, 2929.991
312.3427, 2977.449
312.8248, 3029.091
313.3069, 3082.971
313.7890, 3139.144
314.2711, 3197.223
314.7532, 3257.026
315.2354, 3318.076
315.7175, 3381.211
316.1996, 3448.193
316.6817, 3522.399
317.1638, 3595.879
317.6459, 3666.032
318.1281, 3736.103
318.6102, 3808.742
319.0923, 3884.789
319.5744, 3962.904
320.0565, 4040.749
320.5386, 4117.178
321.0208, 4195.880
321.5029, 4280.796
321.9850, 4364.596
322.4671, 4443.430
322.9492, 4516.804
323.4313, 4585.813
323.9135, 4652.748
324.3956, 4718.155
324.8777, 4777.977
325.3598, 4833.575
325.8419, 4882.426
326.3240, 4924.224
326.8062, 4958.536
327.2883, 4985.183
327.7704, 5004.138
328.2525, 5015.374
328.7346, 5019.181
329.2167, 5012.462
329.6989, 5000.919
330.1810, 4986.342
330.6631, 4967.937
331.1452, 4944.076
331.6273, 4913.602
332.1094, 4878.077
332.5916, 4842.494
333.0737, 4808.907
333.5558, 4771.429
334.0379, 4726.907
334.5200, 4679.726
335.0021, 4634.114
335.4843, 4591.312
335.9664, 4550.458
336.4485, 4511.483
336.9306, 4476.618
337.4127, 4436.447
337.8948, 4386.782
338.3770, 4334.187
338.8591, 4282.647
339.3412, 4232.141
339.8233, 4180.318
340.3055, 4125.108
340.7876, 4066.939
341.2697, 4003.172
341.7518, 3931.531
342.2339, 3856.271
342.7160, 3777.922
343.1982, 3697.141
343.6803, 3614.722
344.1624, 3531.085
344.6445, 3446.274
345.1266, 3360.117
345.6087, 3270.603
346.0909, 3183.218
346.5730, 3099.390
347.0551, 3018.343
347.5372, 2939.616
348.0193, 2862.082
348.5014, 2787.029
348.9836, 2715.403
349.4657, 2647.146
349.9478, 2583.691
350.4299, 2525.586
350.9120, 2472.217
351.3941, 2423.873
351.8763, 2380.640
352.3584, 2341.818
352.8405, 2307.881
353.3226, 2278.800
353.8047, 2250.651
354.2868, 2221.811
354.7690, 2195.224
355.2511, 2172.242
355.7332, 2152.781
356.2153, 2136.617
356.6974, 2124.856
357.1795, 2116.462
357.6617, 2107.112
358.1438, 2095.800
358.6259, 2085.711
359.1080, 2078.791
359.5901, 2074.180
360.0722, 2070.804
360.5544, 2069.000
361.0365, 2067.438
361.5186, 2064.007
362.0007, 2058.502
362.4828, 2052.854
362.9649, 2048.221
363.4471, 2043.567
363.9292, 2037.905
364.4113, 2031.225
364.8934, 2023.028
365.3755, 2012.722
365.8576, 2000.474
366.3398, 1987.306
366.8219, 1973.630
367.3040, 1958.617
367.7861, 1941.079
368.2682, 1921.262
368.7503, 1901.187
369.2325, 1882.017
369.7146, 1862.890
370.1967, 1841.880
370.6788, 1818.392
371.1609, 1795.360
371.6430, 1775.310
372.1252, 1757.622
372.6073, 1740.625
373.0894, 1724.509
373.5715, 1708.755
374.0536, 1692.411
374.5357, 1675.881
375.0179, 1661.274
375.5000, 1650.093
375.9821, 1641.326
376.4642, 1632.369
376.9463, 1623.094
377.4284, 1614.034
377.9106, 1605.641
378.3927, 1597.575
378.8748, 1589.486
379.3569, 1581.374
379.8390, 1572.583
380.3211, 1562.353
380.8033, 1550.737
381.2854, 1536.901
381.7675, 1520.350
382.2496, 1501.960
382.7317, 1481.825
383.2138, 1460.195
383.6960, 1438.273
384.1781, 1416.958
384.6602, 1396.180
385.1423, 1373.628
385.6244, 1349.365
386.1065, 1323.609
386.5887, 1295.928
387.0708, 1267.006
387.5529, 1237.689
388.0350, 1208.292
388.5171, 1178.961
388.9992, 1149.898
389.4814, 1121.389
389.9635, 1092.833
390.4456, 1063.252
390.9277, 1034.258
391.4098, 1007.027
391.8919, 981.8391
392.3741, 958.1604
392.8562, 935.6877
393.3383, 914.5363
393.8204, 893.0513
394.3025, 869.6736
394.7846, 847.5651
395.2668, 828.0722
395.7489, 810.5498
396.2310, 793.6951
396.7131, 776.7136
397.1952, 759.8823
397.6773, 744.0864
398.1595, 729.5566
398.6416, 715.7117
399.1237, 702.6436
399.6058, 690.0111
400.0879, 677.3475
400.5700, 664.6052
401.0522, 652.4037
401.5343, 641.3204
402.0164, 631.4420
402.4985, 622.5073
402.9806, 615.0959
403.4627, 608.1485
403.9449, 601.2289
404.4270, 594.4042
404.9091, 587.9224
405.3912, 581.9456
405.8733, 576.4063
406.3554, 571.1987
406.8376, 566.3755
407.3197, 561.6525
407.8018, 556.4393
408.2839, 551.4834
408.7660, 547.7399
409.2481, 545.5020
409.7303, 543.9150
410.2124, 542.3383
410.6945, 540.7491
411.1766, 538.6385
411.6587, 535.4293
412.1408, 532.2750
412.6230, 530.1999
413.1051, 529.1183
413.5872, 528.4999
414.0693, 528.2262
414.5514, 528.2403
415.0335, 528.6851
415.5157, 529.6498
415.9978, 530.0959
416.4799, 528.9406
416.9620, 526.8037
417.4441, 525.6615
417.9262, 526.1740
418.4084, 526.9038
418.8905, 526.9692
419.3726, 526.6192
419.8547, 526.4930
420.3368, 526.8135
420.8189, 527.4388
421.3011, 528.3288
421.7832, 529.8025
422.2653, 530.1957
422.7474, 528.4212
423.2295, 526.1096
423.7116, 524.6010
424.1938, 523.9932
424.6759, 523.7388
425.1580, 523.4504
425.6401, 523.1272
426.1222, 522.7448
426.6043, 522.7186
427.0865, 522.1625
427.5686, 520.4286
428.0507, 518.1577
428.5328, 516.2159
429.0149, 514.9323
429.4970, 514.0691
429.9792, 513.2078
430.4613, 512.2872
430.9434, 511.4965
431.4255, 511.2379
431.9076, 510.7409
432.3897, 509.6183
432.8719, 507.8606
433.3540, 505.5334
433.8361, 502.5148
434.3182, 499.0212
434.8003, 496.6222
435.2824, 495.8967
435.7646, 495.4715
436.2467, 495.2248
436.7288, 494.9614
437.2109, 494.4220
437.6930, 493.5216
438.1751, 492.5634
438.6573, 492.0061
439.1394, 491.8963
439.6215, 491.4627
440.1036, 489.9794
440.5857, 488.8690
441.0678, 489.2207
441.5500, 490.7414
442.0321, 492.2800
442.5142, 493.2787
442.9963, 493.9226
443.4784, 494.4982
443.9605, 494.9846
444.4427, 495.5572
444.9248, 496.2433
445.4069, 497.1148
445.8890, 498.2416
446.3711, 499.6297
446.8532, 501.2780
447.3354, 503.3761
447.8175, 505.7096
448.2996, 507.8242
448.7817, 509.6164
449.2638, 511.1893
449.7459, 512.6771
450.2281, 514.0747
450.7102, 515.0500
451.1923, 515.4257
451.6744, 515.5202
452.1565, 515.6417
452.6386, 515.6606
453.1208, 515.1562
453.6029, 513.8877
454.0850, 512.0252
454.5671, 510.0449
455.0492, 508.5901
455.5313, 506.0551
456.0135, 502.1347
456.4956, 497.3272
456.9777, 491.4431
457.4598, 484.8222
457.9419, 478.8164
458.4240, 475.0622
458.9062, 473.6381
459.3883, 469.2782
459.8704, 459.0544
460.3525, 448.9891
460.8346, 440.1021
461.3167, 432.2133
461.7989, 425.2099
462.2810, 419.0323
462.7631, 413.0908
463.2452, 406.3128
463.7273, 398.4699
464.2094, 391.1414
464.6916, 384.7949
465.1737, 378.7807
465.6558, 372.8503
466.1379, 366.9591
466.6200, 360.9259
467.1021, 354.2664
467.5843, 347.5678
468.0664, 342.1971
468.5485, 338.2858
469.0306, 334.6314
469.5127, 330.9571
469.9948, 327.0566
470.4770, 322.5556
470.9591, 317.1639
471.4412, 312.2328
471.9233, 308.7029
472.4054, 306.0219
472.8875, 303.0995
473.3697, 299.7072
473.8518, 296.6924
474.3339, 295.0750
474.8160, 294.8237
475.2981, 293.4466
475.7802, 289.9266
476.2624, 286.3901
476.7445, 283.6693
477.2266, 281.6107
477.7087, 280.0145
478.1908, 278.7960
478.6729, 277.6322
479.1551, 275.9098
479.6372, 273.1819
480.1193, 270.9286
480.6014, 269.1853
481.0835, 267.8021
481.5656, 266.8600
482.0478, 266.2208
482.5299, 265.6082
483.0120, 264.8628
483.4941, 263.9695
483.9762, 262.8871
484.4583, 261.5742
484.9405, 260.1518
485.4226, 258.4684
485.9047, 256.8096
486.3868, 255.4024
486.8689, 254.2749
487.3510, 253.3389
487.8332, 252.6759
488.3153, 252.1854
488.7974, 251.3142
489.2795, 249.9413
489.7616, 248.4372
490.2437, 246.9124
490.7259, 245.4248
491.2080, 244.0747
491.6901, 242.9728
492.1722, 241.8463
492.6543, 240.5996
493.1364, 239.1812
493.6186, 237.3184
494.1007, 234.8133
494.5828, 232.3377
495.0649, 230.7210
495.5470, 230.0638
496.0291, 229.2300
496.5113, 228.2152
496.9934, 226.9809
497.4755, 225.5962
497.9576, 223.9731
498.4397, 221.7375
498.9218, 218.6780
499.4040, 215.3587
499.8861, 213.1223
500.3682, 212.8483
500.8503, 212.0896
501.3324, 210.6389
501.8145, 208.9382
502.2967, 207.1468
502.7788, 205.3348
503.2609, 203.5937
503.7430, 202.0125
504.2251, 200.5056
504.7072, 198.7007
505.1894, 196.3437
505.6715, 194.2576
506.1536, 192.7841
506.6357, 191.5659
507.1178, 190.4038
507.5999, 189.2579
508.0821, 188.0598
508.5642, 186.7169
509.0463, 185.2871
509.5284, 183.8792
510.0105, 182.4575
510.4926, 181.2818
510.9748, 180.7859
511.4569, 180.5845
511.9390, 179.7408
512.4211, 177.8514
512.9032, 175.9768
513.3853, 174.7625
513.8674, 173.8779
514.3495, 172.7241
514.8317, 171.1574
515.3138, 169.5512
515.7959, 168.2888
516.2780, 167.3924
516.7601, 166.4598
517.2422, 165.1765
517.7244, 164.2073
518.2065, 164.2830
518.6886, 164.6440
519.1707, 164.0425
519.6528, 162.0821
520.1349, 159.6680
520.6171, 158.2479
521.0992, 158.1393
521.5813, 157.7325
522.0634, 156.6766
522.5455, 155.6629
523.0276, 154.9867
523.5098, 154.5257
523.9919, 154.0421
524.4740, 153.4335
524.9561, 152.7426
525.4382, 151.9344
525.9203, 151.0066
526.4025, 150.3833
526.8846, 150.3473
527.3667, 150.4057
527.8488, 150.1190
528.3309, 149.5161
528.8130, 148.7208
529.2952, 147.4944
529.7773, 146.3010
530.2594, 145.6866
530.7415, 145.5271
531.2236, 145.1954
531.7057, 144.3812
532.1879, 143.3460
532.6700, 142.5891
533.1521, 142.2058
533.6342, 141.9052
534.1163, 141.8054
534.5984, 141.6850
535.0806, 141.4609
535.5627, 141.0923
536.0448, 140.4550
536.5269, 139.4360
537.0090, 138.2601
537.4911, 137.6535
537.9733, 137.8681
538.4554, 138.0958
538.9375, 138.4837
539.4196, 138.6586
539.9017, 138.3389
540.3839, 137.5665
540.8660, 136.5876
541.3481, 135.3172
541.8302, 134.0807
542.3123, 133.7995
542.7944, 134.6113
543.2766, 135.1609
543.7587, 134.7926
544.2408, 133.9868
544.7229, 133.3952
545.2050, 133.0067
545.6871, 132.8820
546.1693, 133.2163
546.6514, 133.7199
547.1335, 134.2628
547.6156, 134.7426
548.0977, 134.6682
548.5798, 133.6392
549.0620, 131.9980
549.5441, 130.9097
550.0262, 130.7479
550.5083, 130.6797
550.9904, 130.9155
551.4725, 131.0809
551.9547, 130.8411
552.4368, 130.2420
552.9189, 129.5341
553.4010, 128.8401
553.8831, 128.2594
554.3652, 128.3484
554.8474, 129.6078
555.3295, 130.2703
555.8116, 129.1942
556.2937, 127.8323
556.7758, 127.2525
557.2579, 127.4943
557.7401, 127.8334
558.2222, 127.8143
558.7043, 127.6342
559.1864, 127.7213
559.6685, 128.0873
560.1506, 128.2063
560.6328, 127.7267
561.1149, 126.9352
561.5970, 126.4499
562.0791, 126.3137
562.5612, 126.2667
563.0433, 126.3819
563.5255, 126.4769
564.0076, 126.4001
564.4897, 126.1540
564.9718, 125.7739
565.4539, 125.2521
565.9360, 124.7115
566.4182, 124.6045
566.9003, 125.3061
567.3824, 125.7352
567.8645, 125.6682
568.3466, 125.4698
568.8287, 125.3782
569.3109, 125.3699
569.7930, 125.2725
570.2751, 124.9430
570.7572, 124.4940
571.2393, 124.1522
571.7214, 123.9208
572.2036, 123.7534
572.6857, 123.5827
573.1678, 123.5363
573.6499, 123.9533
574.1320, 124.8184
574.6141, 125.1318
575.0963, 124.0548
575.5784, 122.7645
576.0605, 122.2610
576.5426, 122.4368
577.0247, 122.8547
577.5068, 123.3522
577.9890, 123.7590
578.4711, 123.7066
578.9532, 122.8093
579.4353, 122.4511
579.9174, 122.9605
580.3995, 123.6086
580.8817, 124.1729
581.3638, 124.5920
581.8459, 124.8106
582.3280, 124.7970
582.8101, 124.6167
583.2922, 124.3333
583.7744, 123.9347
584.2565, 123.5873
584.7386, 123.1730
585.2207, 123.0175
585.7029, 123.5555
586.1850, 124.5141
586.6671, 125.1968
587.1492, 125.4050
587.6313, 125.3379
588.1135, 124.9014
588.5956, 124.3227
589.0777, 124.2238
589.5598, 124.7722
590.0419, 125.4491
590.5240, 125.7076
591.0062, 125.5292
591.4883, 125.3485
591.9704, 125.1867
592.4525, 124.9986
592.9346, 124.1678
593.4167, 123.6147
593.8989, 124.9728
594.3810, 128.2851
594.8631, 131.2031
595.3452, 130.8195
595.8273, 127.5220
596.3094, 125.9238
596.7916, 126.6870
597.2737, 127.6265
597.7558, 127.9215
598.2379, 127.8586
598.7200, 127.6844
599.2021, 127.4176
599.6843, 127.1043
600.1664, 126.5851
600.6485, 126.1206
601.1306, 126.1016
601.6127, 126.5344
602.0948, 127.2181
602.5770, 128.0883
603.0591, 129.0429
603.5412, 129.8074
604.0233, 130.4318
604.5054, 130.7471
604.9875, 130.6495
605.4697, 130.3398
605.9518, 129.7122
606.4339, 128.9855
606.9160, 128.6788
607.3981, 129.1276
607.8802, 129.9350
608.3624, 130.3084
608.8445, 130.1948
609.3266, 130.0478
609.8087, 129.8473
610.2908, 129.7505
610.7729, 129.9495
611.2551, 130.3436
611.7372, 130.6213
612.2193, 130.5065
612.7014, 130.4986
613.1835, 131.2178
613.6656, 132.2698
614.1478, 132.6398
614.6299, 132.0832
615.1120, 131.4766
615.5941, 131.7158
616.0762, 132.8053
616.5583, 133.8961
617.0405, 135.6364
617.5226, 136.5648
618.0047, 135.7498
618.4868, 134.4379
618.9689, 133.8049
619.4510, 134.0328
619.9332, 134.6084
620.4153, 135.2115
620.8974, 135.7959
621.3795, 136.0986
621.8616, 136.0232
622.3438, 136.2172
622.8259, 137.1594
623.3080, 138.2802
623.7901, 138.6893
624.2722, 138.3325
624.7543, 138.3675
625.2365, 139.6520
625.7186, 140.9905
626.2007, 141.2130
626.6828, 140.6497
627.1649, 140.2712
627.6470, 140.4809
628.1292, 141.1576
628.6113, 142.2043
629.0934, 143.8570
629.5755, 144.8882
630.0576, 144.6054
630.5397, 144.4164
631.0219, 144.8113
631.5040, 145.5121
631.9861, 146.0722
632.4682, 146.3546
632.9503, 146.7314
633.4324, 147.7002
633.9146, 149.0389
634.3967, 149.9924
634.8788, 150.4681
635.3609, 150.8701
635.8430, 151.4823
636.3251, 152.1599
636.8073, 152.4026
637.2894, 151.8604
637.7715, 151.7780
638.2536, 152.2536
638.7357, 153.3263
639.2178, 155.5846
639.7000, 158.4841
640.1821, 160.5467
640.6642, 160.9319
641.1463, 160.4378
641.6284, 160.7196
642.1105, 161.9533
642.5927, 163.0126
643.0748, 163.7211
643.5569, 164.3352
644.0390, 164.7034
644.5211, 165.1392
645.0032, 166.4032
645.4854, 169.1013
645.9675, 171.6167
646.4496, 172.4723
646.9317, 172.5300
647.4138, 173.4348
647.8959, 175.3992
648.3781, 177.6198
648.8602, 179.5111
649.3423, 181.1516
649.8244, 182.8311
650.3065, 184.5387
650.7886, 186.3176
651.2708, 188.3870
651.7529, 190.3464
652.2350, 191.6490
652.7171, 192.5941
653.1992, 194.0767
653.6813, 196.6878
654.1635, 199.7840
654.6456, 202.3484
655.1277, 204.4355
655.6098, 206.7733
656.0919, 209.5659
656.5740, 212.4179
657.0562, 214.8580
657.5383, 217.0122
658.0204, 219.7188
658.5025, 223.4749
658.9846, 227.1480
659.4667, 230.0396
659.9489, 232.8846
660.4310, 236.6274
660.9131, 241.2128
661.3952, 245.7653
661.8773, 249.6768
662.3594, 253.1035
662.8416, 256.6142
663.3237, 260.2850
663.8058, 263.8016
664.2879, 266.9764
664.7700, 270.1413
665.2521, 273.3034
665.7343, 276.6202
666.2164, 280.6270
666.6985, 285.8091
667.1806, 291.3072
667.6627, 296.6795
668.1448, 301.9010
668.6270, 306.9084
669.1091, 311.6688
669.5912, 316.2788
670.0733, 320.7460
670.5554, 325.1225
671.0375, 329.9443
671.5197, 335.5504
672.0018, 341.0132
672.4839, 345.6918
672.9660, 350.6212
673.4481, 356.9178
673.9302, 364.1115
674.4124, 370.6064
674.8945, 375.2589
675.3766, 379.2959
675.8587, 384.1170
676.3408, 389.6471
676.8229, 395.5917
677.3051, 401.9468
677.7872, 408.5190
678.2693, 415.2766
678.7514, 422.1533
679.2335, 428.3402
679.7156, 433.3828
680.1978, 438.4765
680.6799, 444.1061
681.1620, 449.6507
681.6441, 454.5857
682.1262, 458.9303
682.6083, 462.8302
683.0905, 466.3205
683.5726, 469.6289
684.0547, 473.4275
684.5368, 477.6988
685.0189, 481.1814
685.5010, 483.5570
685.9832, 485.2253
686.4653, 486.2119
686.9474, 486.6984
687.4295, 487.6217
687.9116, 489.7352
688.3937, 491.2840
688.8759, 492.1945
689.3580, 492.0197
689.8401, 489.4315
690.3222, 485.0845
690.8043, 481.8729
691.2864, 481.9088
691.7686, 483.4040
692.2507, 481.7392
692.7328, 476.3197
693.2149, 471.5498
693.6970, 468.3026
694.1791, 465.4148
694.6613, 462.4702
695.1434, 459.2537
695.6255, 455.1067
696.1076, 449.4687
696.5897, 443.8625
697.0718, 438.6891
697.5540, 434.0657
698.0361, 430.2573
698.5182, 427.1954
699.0003, 424.6240
699.4824, 422.4534
699.9645, 420.3169
700.4467, 417.2703
700.9288, 413.0664
701.4109, 408.9276
701.8930, 405.0569
702.3751, 401.0864
702.8572, 396.4332
703.3394, 391.7195
703.8215, 388.1070
704.3036, 386.0582
704.7857, 384.2573
705.2678, 382.1740
705.7499, 379.7912
706.2321, 376.7842
706.7142, 373.3585
707.1963, 370.5731
707.6784, 368.9898
708.1605, 368.1497
708.6426, 367.1688
709.1248, 366.0687
709.6069, 364.7479
710.0890, 362.9487
710.5711, 361.2203
711.0532, 359.7900
711.5353, 358.5172
712.0175, 357.1505
712.4996, 355.6184
712.9817, 354.3609
713.4638, 353.7358
713.9459, 353.4850
714.4280, 353.4434
714.9102, 353.4933
715.3923, 353.1333
715.8744, 352.1357
716.3565, 350.7746
716.8386, 349.3530
717.3207, 347.7645
717.8029, 346.9333
718.2850, 347.4708
718.7671, 348.0412
719.2492, 348.8354
719.7313, 349.2135
720.2134, 348.1364
720.6956, 345.6946
721.1777, 343.7520
721.6598, 343.5115
722.1419, 344.2943
722.6240, 345.5677
723.1061, 347.1589
723.5883, 348.4479
724.0704, 349.2621
724.5525, 349.5621
725.0346, 349.2122
725.5167, 348.2397
725.9988, 347.6807
726.4810, 347.7551
726.9631, 347.9410
727.4452, 348.3635
727.9273, 348.7177
728.4094, 348.5227
728.8915, 348.0099
729.3737, 348.0650
729.8558, 349.2671
730.3379, 350.9138
730.8200, 352.3163
731.3021, 353.5638
731.7842, 354.9438
732.2664, 356.5008
732.7485, 357.9588
733.2306, 359.0676
733.7127, 359.9505
734.1948, 361.0785
734.6769, 362.3530
735.1591, 364.0722
735.6412, 366.5929
736.1233, 369.1784
736.6054, 371.3878
737.0875, 373.4026
737.5696, 375.5576
738.0518, 377.9447
738.5339, 380.5829
739.0160, 383.5433
739.4981, 386.7579
739.9802, 390.3437
740.4623, 394.1963
740.9445, 397.3754
741.4266, 399.3065
741.9087, 400.7523
742.3908, 403.1345
742.8729, 406.7802
743.3550, 409.9835
743.8372, 412.5484
744.3193, 414.8805
744.8014, 416.6491
745.2835, 418.4928
745.7656, 421.3761
746.2477, 425.3421
746.7299, 428.8828
747.2120, 430.8242
747.6941, 432.1977
748.1762, 433.8424
748.6583, 435.9072
749.1404, 439.0683
749.6226, 443.4870
750.1047, 447.7662
750.5868, 450.3730
751.0689, 451.4938
751.5510, 453.3221
752.0331, 456.4701
752.5153, 459.1318
752.9974, 460.3498
753.4795, 461.5944
753.9616, 464.2818
754.4437, 467.8029
754.9258, 470.0145
755.4080, 469.3272
755.8901, 469.0345
756.3722, 472.1708
756.8543, 476.7227
757.3364, 479.4889
757.8185, 480.3852
758.3007, 481.3922
758.7828, 483.7013
759.2649, 486.8068
759.7470, 489.5764
760.2291, 491.8607
760.7112, 494.6772
761.1934, 498.4271
761.6755, 502.1476
762.1576, 504.9040
762.6397, 507.6156
763.1218, 511.6564
763.6039, 517.3347
764.0861, 522.6439
764.5682, 526.4952
765.0503, 530.0935
765.5324, 533.9745
766.0145, 538.3903
766.4966, 544.0172
766.9788, 550.9158
767.4609, 557.9422
767.9430, 563.8609
768.4251, 568.9456
768.9072, 574.6035
769.3893, 580.8895
769.8715, 587.2595
770.3536, 593.1342
770.8357, 599.6989
771.3178, 608.3682
771.7999, 618.7634
772.2820, 629.0104
772.7642, 639.3998
773.2463, 649.1105
773.7284, 657.3152
774.2105, 665.2253
774.6926, 673.6284
775.1747, 682.7029
775.6569, 692.5218
776.1390, 703.1915
776.6211, 714.1733
777.1032, 724.8412
777.5853, 735.2177
778.0674, 745.4601
778.5496, 755.5194
779.0317, 765.9563
779.5138, 777.1541
779.9959, 788.8259
780.4780, 800.6261
780.9601, 812.9076
781.4423, 823.8604
781.9244, 831.9008
782.4065, 840.5667
782.8886, 851.6620
783.3707, 863.5194
783.8528, 874.5564
784.3350, 884.4818
784.8171, 893.6457
785.2992, 901.7191
785.7813, 909.8194
786.2634, 920.2088
786.7455, 931.8881
787.2277, 941.3051
787.7098, 947.7639
788.1919, 953.5336
788.6740, 960.1744
789.1561, 967.6730
789.6382, 976.1888
790.1204, 986.8633
790.6025, 995.6649
791.0846, 1001.001
791.5667, 1005.894
792.0488, 1011.347
792.5309, 1017.345
793.0131, 1024.092
793.4952, 1031.805
793.9773, 1038.938
794.4594, 1044.501
794.9415, 1049.397
795.4236, 1054.626
795.9058, 1059.844
796.3879, 1063.773
796.8700, 1066.188
797.3521, 1069.001
797.8342, 1074.557
798.3163, 1078.181
798.7985, 1082.525
799.2806, 1088.987
799.7627, 1092.692
800.2448, 1100.260
800.7269, 1108.582
801.2090, 1114.696
801.6912, 1119.191
802.1733, 1125.435
802.6554, 1134.360
803.1375, 1143.563
803.6196, 1152.168
804.1017, 1161.263
804.5839, 1171.828
805.0660, 1183.445
805.5481, 1195.133
806.0302, 1206.589
806.5123, 1217.822
806.9944, 1228.224
807.4766, 1238.593
807.9587, 1251.195
808.4408, 1265.936
808.9229, 1281.159
809.4050, 1296.277
809.8871, 1311.154
810.3693, 1325.518
810.8514, 1339.395
811.3335, 1354.537
811.8156, 1371.871
812.2977, 1389.009
812.7798, 1404.605
813.2620, 1420.836
813.7441, 1438.657
814.2262, 1458.221
814.7083, 1480.071
815.1904, 1505.210
815.6725, 1530.490
816.1547, 1553.622
816.6368, 1576.468
817.1189, 1601.132
817.6010, 1627.580
818.0831, 1654.650
818.5652, 1681.869
819.0474, 1709.879
819.5295, 1739.385
820.0116, 1770.404
820.4937, 1803.556
820.9758, 1839.259
821.4579, 1874.390
821.9401, 1907.464
822.4222, 1940.422
822.9043, 1975.479
823.3864, 2012.473
823.8685, 2051.601
824.3506, 2094.520
824.8328, 2136.857
825.3149, 2177.342
825.7970, 2217.573
826.2791, 2258.311
826.7612, 2300.024
827.2433, 2343.653
827.7255, 2389.870
828.2076, 2437.002
828.6897, 2484.373
829.1718, 2531.451
829.6539, 2576.492
830.1360, 2620.109
830.6182, 2665.978
831.1003, 2715.365
831.5824, 2766.290
832.0645, 2816.388
832.5466, 2865.772
833.0287, 2912.409
833.5109, 2955.677
833.9930, 2997.333
834.4751, 3035.832
834.9572, 3074.821
835.4393, 3119.092
835.9214, 3165.856
836.4036, 3206.719
836.8857, 3236.658
837.3678, 3269.271
837.8499, 3310.868
838.3320, 3353.311
838.8141, 3392.149
839.2963, 3426.765
839.7784, 3456.487
840.2605, 3481.331
840.7426, 3504.864
841.2247, 3531.328
841.7068, 3558.371
842.1890, 3580.831
842.6711, 3599.486
843.1532, 3617.632
843.6353, 3636.156
844.1174, 3655.502
844.5995, 3676.263
845.0817, 3697.789
845.5638, 3716.002
846.0459, 3728.477
846.5280, 3744.258
847.0101, 3764.511
847.4922, 3787.335
847.9744, 3814.097
848.4565, 3841.790
848.9386, 3865.269
849.4207, 3883.327
849.9028, 3902.934
850.3849, 3923.620
850.8671, 3948.820
851.3492, 3985.126
851.8313, 4024.799
852.3134, 4056.754
852.7955, 4080.139
853.2776, 4103.351
853.7598, 4131.762
854.2419, 4163.476
854.7240, 4197.091
855.2061, 4231.891
855.6882, 4264.478
856.1703, 4294.343
856.6525, 4321.607
857.1346, 4346.262
857.6167, 4367.827
858.0988, 4384.896
858.5809, 4397.149
859.0630, 4406.958
859.5452, 4415.145
860.0273, 4419.436
860.5094, 4419.501
860.9915, 4414.994
861.4736, 4405.999
861.9557, 4392.384
862.4379, 4373.094
862.9200, 4349.626
863.4021, 4318.182
863.8842, 4276.519
864.3663, 4227.423
864.8484, 4170.833
865.3306, 4109.212
865.8127, 4046.253
866.2948, 3983.763
866.7769, 3920.077
867.2590, 3855.116
867.7411, 3787.852
868.2233, 3716.173
868.7054, 3640.538
869.1875, 3563.546
869.6696, 3485.740
870.1517, 3407.609
870.6339, 3329.859
871.1160, 3252.438
871.5981, 3174.706
872.0802, 3094.942
872.5623, 3020.108
873.0444, 2952.909
873.5266, 2887.921
874.0087, 2822.553
874.4908, 2757.233
874.9729, 2694.144
875.4550, 2633.781
875.9371, 2571.938
876.4193, 2504.504
876.9014, 2440.018
877.3835, 2383.411
877.8656, 2331.336
878.3477, 2280.260
878.8298, 2229.892
879.3120, 2180.659
879.7941, 2132.739
880.2762, 2086.818
880.7583, 2044.465
881.2404, 2004.463
881.7225, 1964.867
882.2047, 1925.424
882.6868, 1886.719
883.1689, 1848.911
883.6510, 1811.999
884.1331, 1775.485
884.6152, 1739.567
885.0974, 1707.392
885.5795, 1679.776
886.0616, 1650.722
886.5437, 1618.307
887.0258, 1585.539
887.5079, 1554.981
887.9901, 1526.011
888.4722, 1495.827
888.9543, 1461.736
889.4364, 1431.455
889.9185, 1407.152
890.4006, 1384.236
890.8828, 1361.169
891.3649, 1338.269
891.8470, 1315.801
892.3291, 1293.855
892.8112, 1272.411
893.2933, 1252.065
893.7755, 1231.532
894.2576, 1209.701
894.7397, 1187.410
895.2218, 1165.463
895.7039, 1144.039
896.1860, 1123.379
896.6682, 1103.395
897.1503, 1084.173
897.6324, 1065.728
898.1145, 1047.998
898.5966, 1030.743
899.0787, 1013.938
899.5609, 996.8884
900.0430, 979.3505
900.5251, 961.5047
901.0072, 943.4915
901.4893, 925.2947
901.9714, 907.0829
902.4536, 888.6078
902.9357, 871.0473
903.4178, 854.6883
903.8999, 838.9739
904.3820, 824.0325
904.8641, 809.4226
905.3463, 794.1670
905.8284, 778.1766
906.3105, 763.0410
906.7926, 749.1403
907.2747, 735.8436
907.7568, 723.4784
908.2390, 711.1913
908.7211, 698.0939
909.2032, 684.3422
909.6853, 670.1871
910.1674, 655.4185
910.6495, 641.7103
911.1317, 630.9311
911.6138, 621.1228
912.0959, 610.0970
912.5780, 598.2214
913.0601, 586.5883
913.5422, 575.5021
914.0244, 564.9039
914.5065, 554.6660
914.9886, 544.9547
915.4707, 536.4434
915.9528, 528.8481
916.4349, 519.9648
916.9171, 509.5284
917.3992, 499.4950
917.8813, 490.9870
918.3634, 483.2005
918.8455, 474.6186
919.3276, 465.1237
919.8098, 456.8726
920.2919, 450.6079
920.7740, 443.5789
921.2561, 434.5528
921.7382, 425.2838
922.2203, 417.1108
922.7025, 409.8590
923.1846, 402.7042
923.6667, 395.4525
924.1488, 388.6681
924.6309, 383.0735
925.1130, 377.1930
925.5952, 370.1361
926.0773, 362.5170
926.5594, 354.9254
927.0415, 347.5569
927.5236, 340.7360
928.0057, 334.8384
928.4879, 329.1781
928.9700, 323.3297
929.4521, 317.4599
929.9342, 311.7155
930.4163, 306.1068
930.8984, 300.5273
931.3806, 294.9346
931.8627, 289.4415
932.3448, 283.9510
932.8269, 278.7454
933.3090, 274.6845
933.7911, 271.4647
934.2733, 267.9899
934.7554, 264.0148
935.2375, 259.2113
935.7196, 253.2051
936.2017, 247.0117
936.6838, 243.1132
937.1660, 241.6474
937.6481, 239.4342
938.1302, 236.2784
938.6123, 233.2105
939.0944, 230.6466
939.5765, 228.1006
940.0587, 224.9579
940.5408, 222.5228
941.0229, 220.1026
941.5050, 217.1911
941.9871, 215.3050
942.4692, 212.5737
942.9514, 209.5661
943.4335, 206.0739
943.9156, 202.6845
944.3977, 200.2947
944.8798, 198.9342
945.3619, 197.3483
945.8441, 195.0661
946.3262, 192.7985
946.8083, 190.8566
947.2904, 188.9834
947.7725, 186.8080
948.2546, 184.5329
948.7368, 182.7353
949.2189, 181.5939
949.7010, 180.3427
950.1831, 178.3649
950.6652, 176.1199
951.1473, 173.9145
951.6295, 171.8396
952.1116, 170.1697
952.5937, 168.8287
953.0758, 167.3190
953.5579, 165.3213
954.0400, 163.2666
954.5222, 161.6483
955.0043, 160.4596
955.4864, 159.9666
955.9685, 160.0024
956.4506, 159.2752
956.9327, 157.4005
957.4149, 155.1116
957.8970, 152.9403
958.3791, 151.0761
958.8612, 150.2214
959.3433, 150.4709
959.8254, 150.4432
960.3076, 150.0914
960.7897, 149.1911
961.2718, 147.4299
961.7539, 145.5481
962.2360, 144.5949
962.7181, 143.1844
963.2003, 141.9388
963.6824, 141.5334
964.1645, 140.0913
964.6466, 140.1824
965.1287, 140.2985
965.6108, 139.5351
966.0930, 138.3532
966.5751, 137.3978
967.0572, 136.6923
967.5393, 136.1178
968.0214, 136.0913
968.5035, 135.6216
968.9857, 133.7742
969.4678, 131.9877
969.9499, 131.5923
970.4320, 132.0697
970.9141, 132.1328
971.3962, 131.4642
971.8784, 130.5559
972.3605, 129.4637
972.8426, 128.3919
973.3247, 127.4031
973.8068, 126.5696
974.2889, 125.9670
974.7711, 125.5981
975.2532, 125.5184
975.7353, 125.8372
976.2174, 125.8639
976.6995, 124.7880
977.1816, 123.1722
977.6638, 121.6388
978.1459, 120.2640
978.6280, 119.0602
979.1101, 118.0760
979.5922, 117.6900
980.0743, 118.2905
980.5565, 119.0658
981.0386, 118.5580
981.5207, 117.1185
982.0028, 115.9196
982.4849, 115.0350
982.9670, 114.5314
983.4492, 114.4386
983.9313, 113.9983
984.4134, 112.3270
984.8955, 112.2367
985.3776, 109.4708
985.8597, 110.6599
986.3419, 110.7243
986.8240, 109.2608
987.3061, 107.8219
987.7882, 107.1007
988.2703, 106.5798
988.7524, 105.5559
989.2346, 105.1514
989.7167, 104.7595
990.1988, 103.9885
990.6809, 103.4865
991.1630, 103.1626
991.6451, 102.2030
992.1273, 101.5063
992.6094, 100.9046
993.0915, 100.0749
993.5736, 98.98381
994.0557, 98.32887
994.5378, 98.79065
995.0200, 98.68792
995.5021, 97.36362
995.9842, 95.97093
996.4663, 95.04778
996.9484, 94.49133
997.4305, 94.13790
997.9127, 93.98612
998.3948, 93.90661
998.8769, 94.02335
999.3590, 94.01399
999.8411, 93.72476
1000.323, 93.32221
1000.805, 93.01571
1001.287, 92.67393
1001.770, 91.91911
1002.252, 90.63581
1002.734, 89.62448
1003.216, 89.50240
1003.698, 89.41977
1004.180, 88.66429
1004.662, 87.85051
1005.144, 87.83159
1005.627, 88.35136
1006.109, 88.56013
1006.591, 88.16228
1007.073, 87.45477
1007.555, 86.39214
1008.037, 85.36002
1008.519, 84.74454
1009.001, 84.41442
1009.483, 84.24828
1009.966, 84.14907
1010.448, 83.91408
1010.930, 83.44620
1011.412, 82.89787
1011.894, 82.25394
1012.376, 81.74388
1012.858, 81.98507
1013.340, 82.59826
1013.823, 82.51541
1014.305, 81.67041
1014.787, 80.81607
1015.269, 80.37602
1015.751, 80.25808
1016.233, 80.50806
1016.715, 80.93794
1017.197, 81.01614
1017.679, 80.77650
1018.162, 80.36304
1018.644, 79.82791
1019.126, 79.36900
1019.608, 79.13009
1020.090, 78.96120
1020.572, 78.34681
1021.054, 77.49009
1021.536, 78.32247
1022.018, 80.74883
1022.501, 81.51954
1022.983, 79.77600
1023.465, 77.56109
1023.947, 76.30082
1024.429, 75.76616
1024.911, 75.55594
1025.393, 75.67829
1025.875, 75.74836
1026.358, 75.77931
1026.840, 75.60595
1027.322, 75.12798
1027.804, 74.69557
1028.286, 74.57565
1028.768, 74.70273
1029.250, 74.96892
1029.732, 75.43901
1030.214, 75.50617
1030.697, 75.04884
1031.179, 74.61718
1031.661, 74.39947
1032.143, 74.10674
1032.625, 73.37035
1033.107, 73.49630
1033.589, 72.48527
1034.071, 73.57514
1034.553, 74.29224
1035.036, 74.60577
1035.518, 74.60437
1036.000, 74.16240
1036.482, 73.62448
1036.964, 73.22060
1037.446, 72.94405
1037.928, 72.80753
1038.410, 72.91553
1038.893, 72.78162
1039.375, 72.00465
1039.857, 71.63744
1040.339, 72.39375
1040.821, 73.15582
1041.303, 72.96111
1041.785, 72.13548
1042.267, 71.60076
1042.750, 71.43242
1043.232, 71.30119
1043.714, 71.33686
1044.196, 71.22935
1044.678, 70.60191
1045.160, 70.09229
1045.642, 70.45494
1046.124, 71.23589
1046.606, 71.19971
1047.089, 69.92178
1047.571, 69.34819
1048.053, 70.39214
1048.535, 71.20317
1049.017, 71.14930
1049.499, 70.80606
1049.981, 70.62406
1050.463, 70.49357
1050.945, 70.01591
1051.428, 69.01355
1051.910, 68.55179
1052.392, 69.34681
1052.874, 70.02174
1053.356, 70.23587
1053.838, 70.07866
1054.320, 69.33181
1054.802, 68.36982
1055.285, 67.98323
1055.767, 68.34989
1056.249, 68.49851
1056.731, 67.84415
1057.213, 67.37108
1057.695, 67.70004
1058.177, 68.09831
1058.659, 67.95574
1059.141, 67.47635
1059.624, 67.10786
1060.106, 66.92849
1060.588, 66.72014
1061.070, 66.31712
1061.552, 66.00159
1062.034, 65.99361
1062.516, 66.01241
1062.998, 65.84994
1063.480, 65.55306
1063.963, 65.09910
1064.445, 64.52811
1064.927, 64.41418
1065.409, 65.51405
1065.891, 66.36932
1066.373, 66.17438
1066.855, 65.71513
1067.337, 65.46202
1067.820, 65.42700
1068.302, 65.74125
1068.784, 66.30907
1069.266, 66.30061
1069.748, 64.82817
1070.230, 63.73248
1070.712, 64.25017
1071.194, 65.01409
1071.677, 65.02867
1072.159, 64.60320
1072.641, 64.24250
1073.123, 64.00939
1073.605, 63.74769
1074.087, 63.37946
1074.569, 63.02632
1075.051, 62.72056
1075.533, 62.47565
1076.016, 62.23396
1076.498, 62.10144
1076.980, 62.30935
1077.462, 62.77192
1077.944, 63.10850
1078.426, 63.24121
1078.908, 63.05872
1079.390, 61.85393
1079.873, 61.05004
1080.355, 62.24919
1080.837, 63.90064
1081.319, 64.04577
1081.801, 62.95255
1082.283, 62.11010
1082.765, 61.99187
1083.247, 61.86400
1083.729, 61.24105
1084.212, 60.69489
1084.694, 60.49481
1085.176, 60.58915
1085.658, 61.22763
1086.140, 62.02924
1086.622, 62.02705
1087.104, 60.95025
1087.586, 60.15008
1088.068, 60.39987
1088.551, 60.80085
1089.033, 61.03863
1089.515, 61.11528
1089.997, 60.99259
1090.479, 60.73511
1090.961, 60.40957
1091.443, 60.04040
1091.925, 59.79554
1092.408, 59.92228
1092.890, 59.93294
1093.372, 59.44707
1093.854, 58.96621
1094.336, 59.08467
1094.818, 59.31783
1095.300, 58.71795
1095.782, 57.35225
1096.265, 56.56915
1096.747, 57.09820
1097.229, 57.58802
1097.711, 57.53352
1098.193, 57.37423
1098.675, 57.26814
1099.157, 57.26931
1099.639, 57.50652
1100.121, 57.90148
1100.604, 58.11695
1101.086, 58.02162
1101.568, 57.93592
1102.050, 58.13353
1102.532, 58.11839
1103.014, 57.35226
1103.496, 56.55372
1103.978, 56.50008
1104.460, 56.92573
1104.943, 57.05446
1105.425, 56.75006
1105.907, 56.32537
1106.389, 55.66261
1106.871, 55.12377
1107.353, 54.81694
1107.835, 54.66413
1108.317, 54.63775
1108.800, 54.71637
1109.282, 54.95090
1109.764, 55.35965
1110.246, 55.44600
1110.728, 54.86028
1111.210, 54.40887
1111.692, 54.22840
1112.174, 54.17077
1112.656, 54.16399
1113.139, 54.24040
1113.621, 54.56314
1114.103, 55.07518
1114.585, 55.16596
1115.067, 54.47721
1115.549, 54.01066
1116.031, 54.02766
1116.513, 53.88506
1116.995, 53.03299
1117.478, 52.32684
1117.960, 52.79155
1118.442, 53.92921
1118.924, 54.06790
1119.406, 52.77851
1119.888, 52.22020
1120.370, 52.83430
1120.852, 53.24001
1121.335, 52.96730
1121.817, 52.76910
1122.299, 53.31186
1122.781, 54.03740
1123.263, 53.89911
1123.745, 52.87954
1124.227, 51.76054
1124.709, 50.27441
1125.192, 49.77738
1125.674, 50.85990
1126.156, 51.59839
1126.638, 50.95476
1127.120, 49.95863
1127.602, 49.86140
1128.084, 50.44550
1128.566, 50.62331
1129.048, 50.34124
1129.531, 50.09881
1130.013, 49.89314
1130.495, 49.99086
1130.977, 50.54556
1131.459, 50.94034
1131.941, 50.63678
1132.423, 49.95341
1132.905, 49.56581
1133.387, 49.45910
1133.870, 49.41831
1134.352, 49.43779
1134.834, 49.23197
1135.316, 48.75718
1135.798, 48.86006
1136.280, 50.05246
1136.762, 51.22029
1137.244, 50.77229
1137.727, 49.32434
1138.209, 48.75053
1138.691, 48.85271
1139.173, 48.77259
1139.655, 48.47475
1140.137, 48.40484
1140.619, 48.69225
1141.101, 48.90981
1141.583, 48.68508
1142.066, 48.27920
1142.548, 48.07014
1143.030, 47.98575
1143.512, 47.95831
1143.994, 47.91087
1144.476, 47.50614
1144.958, 46.83386
1145.440, 46.68849
1145.922, 47.51750
1146.405, 48.22733
1146.887, 47.50959
1147.369, 46.40355
1147.851, 46.04384
1148.333, 46.10572
1148.815, 46.22315
1149.297, 46.27465
1149.779, 46.01874
1150.262, 45.44971
1150.744, 45.23878
1151.226, 46.09853
1151.708, 46.87687
1152.190, 46.70070
1152.672, 46.26051
1153.154, 46.01118
1153.636, 45.96231
1154.119, 46.13430
1154.601, 46.46027
1155.083, 46.71212
1155.565, 46.85105
1156.047, 46.82847
1156.529, 46.59455
1157.011, 46.23936
1157.493, 45.64095
1157.975, 45.08668
1158.458, 44.76883
1158.940, 44.69236
1159.422, 44.97519
1159.904, 45.68645
1160.386, 45.81908
1160.868, 44.43370
1161.350, 43.78654
1161.832, 44.59815
1162.314, 45.56577
1162.797, 46.41037
1163.279, 46.91195
1163.761, 46.78569
1164.243, 46.11774
1164.725, 45.24282
1165.207, 43.84318
1165.689, 43.42849
1166.171, 44.40923
1166.654, 45.15073
1167.136, 45.24078
1167.618, 45.06846
1168.100, 44.83870
1168.582, 44.60886
1169.064, 44.46522
1169.546, 44.41335
1170.028, 44.54783
1170.510, 44.87537
1170.993, 45.17195
1171.475, 45.41901
1171.957, 45.18140
1172.439, 44.27493
1172.921, 43.40313
1173.403, 43.21157
1173.885, 43.42382
1174.367, 43.52142
1174.849, 43.55442
1175.332, 43.73134
1175.814, 44.00098
1176.296, 44.16140
1176.778, 44.17335
1177.260, 44.02958
1177.742, 43.72884
1178.224, 43.48147
1178.706, 43.59231
1179.189, 43.28188
1179.671, 43.46279
1180.153, 43.01568
1180.635, 42.85454
1181.117, 42.87179
1181.599, 42.65041
1182.081, 42.20178
1182.563, 42.15373
1183.046, 42.99768
1183.528, 43.62285
1184.010, 43.05856
1184.492, 42.41613
1184.974, 42.55354
1185.456, 42.91695
1185.938, 42.79497
1186.420, 42.41973
1186.902, 42.59725
1187.385, 43.50575
1187.867, 43.82345
1188.349, 42.61256
1188.831, 41.81828
1189.313, 42.16879
1189.795, 42.56721
1190.277, 42.44286
1190.759, 42.14965
1191.241, 41.97668
1191.724, 41.94404
1192.206, 42.18485
1192.688, 42.90281
1193.170, 42.97277
1193.652, 42.11269
1194.134, 41.45627
1194.616, 41.20570
1195.098, 41.31455
1195.581, 41.86863
1196.063, 42.40965
1196.545, 42.26798
1197.027, 41.61726
1197.509, 41.10987
1197.991, 40.76508
1198.473, 41.08977
1198.955, 42.03655
1199.438, 42.60583
1199.920, 42.52973
1200.402, 42.11261
1200.884, 41.52328
1201.366, 41.05163
1201.848, 41.22796
1202.330, 41.68909
1202.812, 41.78557
1203.294, 41.61471
1203.776, 41.28041
1204.259, 40.89058
1204.741, 40.67582
1205.223, 40.68464
1205.705, 40.74184
1206.187, 40.78376
1206.669, 40.75195
1207.151, 40.41134
1207.633, 40.19382
1208.116, 40.75665
1208.598, 41.38947
1209.080, 40.99221
1209.562, 40.00424
1210.044, 39.88751
1210.526, 40.99813
1211.008, 41.52944
1211.490, 40.62707
1211.973, 39.89017
1212.455, 39.67910
1212.937, 39.60288
1213.419, 39.35457
1213.901, 39.30891
1214.383, 40.03226
1214.865, 41.18716
1215.347, 41.61084
1215.829, 41.21740
1216.312, 40.58084
1216.794, 39.53556
1217.276, 39.24634
1217.758, 40.08286
1218.240, 40.51173
1218.722, 39.71461
1219.204, 38.69648
1219.686, 38.58159
1220.168, 39.07453
1220.651, 39.54762
1221.133, 39.95305
1221.615, 39.98872
1222.097, 40.24322
1222.579, 40.38626
1223.061, 40.25548
1223.543, 40.44617
1224.025, 40.16262
1224.508, 39.79741
1224.990, 39.71889
1225.472, 39.69274
1225.954, 39.49217
1226.436, 39.20790
1226.918, 38.83544
1227.400, 38.51595
1227.882, 38.50897
1228.365, 38.77990
1228.847, 39.04240
1229.329, 39.26149
1229.811, 39.27794
1230.293, 38.95170
1230.775, 38.55008
1231.257, 37.95204
1231.739, 37.53283
1232.221, 37.63993
1232.703, 37.98759
1233.186, 38.28515
1233.668, 38.50284
1234.150, 38.42088
1234.632, 37.95778
1235.114, 37.46415
1235.596, 36.84801
1236.078, 36.76887
1236.560, 37.49184
1237.043, 37.92649
1237.525, 37.39364
1238.007, 36.60582
1238.489, 36.50703
1238.971, 36.83071
1239.453, 36.91521
1239.935, 36.78093
1240.417, 36.32300
1240.900, 35.72102
1241.382, 35.69055
1241.864, 36.24151
1242.346, 36.57114
1242.828, 36.27820
1243.310, 35.99629
1243.792, 36.42509
1244.274, 36.83718
1244.756, 36.56116
1245.239, 36.07441
1245.721, 35.65862
1246.203, 35.45976
1246.685, 35.84007
1247.167, 36.63085
1247.649, 36.87188
1248.131, 36.18863
1248.613, 35.66415
1249.095, 35.55100
1249.578, 35.41498
1250.060, 35.11254
1250.542, 34.89052
1251.024, 34.91656
1251.506, 35.00803
1251.988, 34.92224
1252.470, 34.74147
1252.952, 34.86408
1253.435, 35.30791
1253.917, 35.22261
1254.399, 34.61885
1254.881, 34.12662
1255.363, 33.87638
1255.845, 33.97078
1256.327, 34.44678
1256.809, 34.91502
1257.292, 35.01501
1257.774, 34.88736
1258.256, 34.63721
1258.738, 34.35036
1259.220, 34.05535
1259.702, 33.86617
1260.184, 34.08096
1260.666, 34.55430
1261.148, 34.79547
1261.630, 34.67089
1262.113, 34.38416
1262.595, 33.83869
1263.077, 33.39836
1263.559, 33.08871
1264.041, 33.00221
1264.523, 33.50520
1265.005, 33.93837
1265.487, 33.60157
1265.970, 32.86089
1266.452, 32.58778
1266.934, 32.79256
1267.416, 32.65715
1267.898, 32.06572
1268.380, 32.20950
1268.862, 33.27453
1269.344, 33.51472
1269.827, 32.35184
1270.309, 31.52525
1270.791, 32.35830
1271.273, 33.63134
1271.755, 33.60038
1272.237, 32.84324
1272.719, 32.09640
1273.201, 31.59693
1273.683, 32.08110
1274.166, 33.07055
1274.648, 33.40307
1275.130, 32.93806
1275.612, 32.33257
1276.094, 31.75182
1276.576, 31.39166
1277.058, 31.54027
1277.540, 31.63437
1278.022, 31.22762
1278.505, 30.94839
1278.987, 31.39638
1279.469, 32.06194
1279.951, 32.43057
1280.433, 32.49439
1280.915, 32.14351
1281.397, 31.26416
1281.879, 30.97503
1282.362, 31.34282
1282.844, 31.54066
1283.326, 31.43376
1283.808, 31.25281
1284.290, 31.09228
1284.772, 30.85266
1285.254, 30.44120
1285.736, 29.85623
##END=



