##NAMES=Brackebuschite
##RRUFFID=R100087
##IDEAL CHEMISTRY=Pb^2+^_2_Mn^3+^(V^5+^O_4_)_2_(OH)
##LOCALITY=C & B mine, Hayden, Gila County, Arizona, USA
##OWNER=RRUFF
##SOURCE=Mark Ascher
##DESCRIPTION=Isolated blocky reddish-brown crystals associated with yellow vanadinite
##STATUS=The identification of this mineral has been confirmed only by single crystal X-ray diffraction.
##URL=rruff.info/R100087
116.0444, 24.40185
116.5265, 25.07831
117.0086, 25.34305
117.4907, 25.37520
117.9728, 25.14683
118.4550, 24.65115
118.9371, 24.23649
119.4192, 24.12979
119.9013, 24.17683
120.3834, 24.18290
120.8655, 23.91745
121.3477, 23.67808
121.8298, 23.71354
122.3119, 24.08160
122.7940, 24.50650
123.2761, 24.86569
123.7582, 25.14171
124.2404, 25.29576
124.7225, 25.03469
125.2046, 24.73448
125.6867, 24.91938
126.1688, 25.78712
126.6509, 26.85130
127.1331, 27.57381
127.6152, 28.01464
128.0973, 28.47192
128.5794, 28.97017
129.0615, 29.63114
129.5436, 30.80438
130.0258, 32.76231
130.5079, 35.05305
130.9900, 36.68830
131.4721, 37.65487
131.9542, 38.97860
132.4363, 41.69261
132.9185, 45.64552
133.4006, 49.77099
133.8827, 53.67686
134.3648, 57.52937
134.8469, 62.10146
135.3290, 67.35433
135.8112, 73.52750
136.2933, 80.86476
136.7754, 89.41753
137.2575, 98.76881
137.7396, 108.8323
138.2217, 119.4421
138.7039, 131.0914
139.1860, 143.9713
139.6681, 157.6252
140.1502, 171.7926
140.6323, 186.5133
141.1144, 201.1452
141.5966, 215.3355
142.0787, 228.7548
142.5608, 242.9755
143.0429, 258.3408
143.5250, 274.2779
144.0071, 289.3235
144.4893, 302.8448
144.9714, 316.2921
145.4535, 329.9977
145.9356, 343.5457
146.4177, 358.5150
146.8998, 375.4189
147.3820, 393.8517
147.8641, 412.8535
148.3462, 431.5770
148.8283, 451.4227
149.3104, 473.4302
149.7925, 499.3725
150.2747, 525.0222
150.7568, 549.3337
151.2389, 572.4856
151.7210, 596.7365
152.2031, 623.3531
152.6852, 650.0443
153.1674, 675.6840
153.6495, 699.5168
154.1316, 722.7960
154.6137, 746.4527
155.0958, 770.5424
155.5779, 791.6233
156.0601, 808.0596
156.5422, 821.9241
157.0243, 834.7820
157.5064, 846.6766
157.9885, 857.8215
158.4706, 867.8627
158.9528, 876.5928
159.4349, 886.0522
159.9170, 897.6171
160.3991, 909.9361
160.8812, 921.4472
161.3633, 929.5682
161.8455, 938.4947
162.3276, 950.5438
162.8097, 966.3679
163.2918, 982.3050
163.7739, 996.5085
164.2560, 1008.740
164.7382, 1014.040
165.2203, 1019.132
165.7024, 1024.317
166.1845, 1028.023
166.6666, 1029.382
167.1487, 1031.595
167.6309, 1037.307
168.1130, 1045.193
168.5951, 1052.355
169.0772, 1058.118
169.5593, 1062.318
170.0414, 1064.766
170.5236, 1065.325
171.0057, 1064.477
171.4878, 1063.053
171.9699, 1060.647
172.4520, 1056.048
172.9341, 1047.484
173.4163, 1036.755
173.8984, 1026.001
174.3805, 1015.828
174.8626, 1005.418
175.3447, 993.1068
175.8268, 979.3309
176.3090, 966.1266
176.7911, 955.5862
177.2732, 946.4754
177.7553, 936.7472
178.2374, 925.0725
178.7195, 913.3981
179.2017, 904.3859
179.6838, 897.7687
180.1659, 891.9728
180.6480, 885.3630
181.1301, 878.5924
181.6122, 873.0896
182.0944, 869.6132
182.5765, 867.3600
183.0586, 864.6441
183.5407, 861.5211
184.0228, 859.2054
184.5049, 858.7967
184.9871, 860.1176
185.4692, 862.6049
185.9513, 866.3865
186.4334, 871.0892
186.9155, 875.8947
187.3976, 880.7481
187.8798, 886.0817
188.3619, 892.2939
188.8440, 899.4012
189.3261, 907.1045
189.8082, 915.1730
190.2903, 923.8049
190.7725, 933.8882
191.2546, 945.6417
191.7367, 958.3746
192.2188, 971.5471
192.7009, 985.2686
193.1830, 999.4552
193.6652, 1013.745
194.1473, 1028.444
194.6294, 1044.739
195.1115, 1062.732
195.5936, 1081.949
196.0757, 1102.010
196.5579, 1122.935
197.0400, 1144.078
197.5221, 1164.853
198.0042, 1185.280
198.4863, 1207.475
198.9684, 1231.628
199.4506, 1256.961
199.9327, 1281.974
200.4148, 1306.720
200.8969, 1331.655
201.3790, 1357.055
201.8611, 1382.788
202.3433, 1409.562
202.8254, 1437.421
203.3075, 1466.326
203.7896, 1495.988
204.2717, 1526.696
204.7538, 1557.318
205.2360, 1587.797
205.7181, 1618.345
206.2002, 1646.184
206.6823, 1670.189
207.1644, 1692.811
207.6465, 1719.158
208.1287, 1750.039
208.6108, 1780.898
209.0929, 1810.243
209.5750, 1838.556
210.0571, 1863.315
210.5392, 1884.225
211.0214, 1902.187
211.5035, 1919.150
211.9856, 1935.311
212.4677, 1949.643
212.9498, 1961.915
213.4319, 1972.301
213.9140, 1979.619
214.3962, 1983.928
214.8783, 1985.126
215.3604, 1983.129
215.8425, 1978.224
216.3246, 1969.398
216.8067, 1955.947
217.2889, 1937.624
217.7710, 1915.769
218.2531, 1889.677
218.7352, 1860.436
219.2173, 1829.987
219.6994, 1798.169
220.1816, 1765.156
220.6637, 1730.391
221.1458, 1693.324
221.6279, 1655.828
222.1100, 1617.597
222.5921, 1579.006
223.0743, 1539.741
223.5564, 1499.886
224.0385, 1459.712
224.5206, 1419.984
225.0027, 1379.529
225.4848, 1341.309
225.9670, 1305.876
226.4491, 1272.901
226.9312, 1240.953
227.4133, 1210.423
227.8954, 1180.566
228.3775, 1151.507
228.8597, 1122.012
229.3418, 1095.142
229.8239, 1071.548
230.3060, 1050.296
230.7881, 1029.689
231.2702, 1009.801
231.7524, 989.9418
232.2345, 969.7535
232.7166, 947.5809
233.1987, 928.2140
233.6808, 912.4081
234.1629, 899.2895
234.6451, 886.3270
235.1272, 873.5983
235.6093, 861.1005
236.0914, 848.7145
236.5735, 835.8610
237.0556, 824.5867
237.5378, 815.4775
238.0199, 807.8063
238.5020, 799.7048
238.9841, 790.6014
239.4662, 781.8011
239.9483, 773.8275
240.4305, 767.0012
240.9126, 760.3680
241.3947, 753.5978
241.8768, 747.1013
242.3589, 741.9905
242.8410, 738.8829
243.3232, 736.1823
243.8053, 733.2862
244.2874, 730.1517
244.7695, 726.8519
245.2516, 723.2134
245.7337, 719.4547
246.2159, 716.0716
246.6980, 713.1680
247.1801, 710.4827
247.6622, 707.8802
248.1443, 705.2767
248.6264, 703.0092
249.1086, 701.1420
249.5907, 699.5731
250.0728, 698.0420
250.5549, 696.3046
251.0370, 695.0172
251.5191, 694.5645
252.0013, 695.3598
252.4834, 695.5729
252.9655, 695.0230
253.4476, 693.9820
253.9297, 692.8416
254.4118, 691.2443
254.8940, 690.2153
255.3761, 690.2184
255.8582, 691.5287
256.3403, 692.7534
256.8224, 693.7341
257.3046, 694.7579
257.7867, 696.3632
258.2688, 698.9246
258.7509, 701.3259
259.2330, 703.0851
259.7151, 704.0399
260.1973, 705.4794
260.6794, 707.5275
261.1615, 709.9305
261.6436, 712.2108
262.1257, 714.1851
262.6078, 716.5598
263.0900, 719.8268
263.5721, 724.2419
264.0542, 727.0950
264.5363, 727.7594
265.0184, 727.6242
265.5005, 728.8076
265.9827, 732.1770
266.4648, 734.2237
266.9469, 733.4738
267.4290, 729.8425
267.9111, 727.6596
268.3932, 727.6315
268.8754, 727.9726
269.3575, 726.5589
269.8396, 722.9459
270.3217, 719.1355
270.8038, 715.4700
271.2859, 711.9469
271.7681, 709.0361
272.2502, 706.7313
272.7323, 705.0590
273.2144, 704.1122
273.6965, 703.9073
274.1786, 704.2862
274.6608, 705.2145
275.1429, 706.7001
275.6250, 708.6251
276.1071, 710.7260
276.5892, 714.0035
277.0714, 719.6526
277.5535, 727.9500
278.0356, 736.2029
278.5177, 743.6337
278.9998, 750.7195
279.4819, 759.4882
279.9641, 770.2186
280.4462, 781.8586
280.9283, 793.6902
281.4104, 805.6075
281.8925, 818.0600
282.3746, 831.1096
282.8568, 844.7413
283.3389, 858.7203
283.8210, 872.9515
284.3031, 888.2396
284.7852, 905.7921
285.2673, 925.2985
285.7495, 943.7989
286.2316, 960.4006
286.7137, 976.5305
287.1958, 995.3542
287.6779, 1016.919
288.1600, 1039.284
288.6422, 1061.307
289.1243, 1083.251
289.6064, 1105.376
290.0885, 1127.960
290.5706, 1150.809
291.0527, 1173.670
291.5349, 1196.546
292.0170, 1219.510
292.4991, 1243.211
292.9812, 1267.143
293.4633, 1288.526
293.9454, 1307.268
294.4276, 1323.973
294.9097, 1338.863
295.3918, 1352.126
295.8739, 1364.407
296.3560, 1376.084
296.8381, 1386.947
297.3203, 1396.633
297.8024, 1405.227
298.2845, 1411.448
298.7666, 1413.606
299.2487, 1412.163
299.7308, 1408.612
300.2130, 1402.902
300.6951, 1395.683
301.1772, 1387.932
301.6593, 1379.695
302.1414, 1370.793
302.6235, 1360.280
303.1057, 1349.087
303.5878, 1339.393
304.0699, 1332.736
304.5520, 1327.166
305.0341, 1320.044
305.5162, 1311.636
305.9984, 1303.890
306.4805, 1298.186
306.9626, 1294.066
307.4447, 1291.009
307.9268, 1288.816
308.4089, 1287.610
308.8911, 1287.624
309.3732, 1288.742
309.8553, 1290.528
310.3374, 1292.266
310.8195, 1294.744
311.3016, 1298.747
311.7838, 1304.533
312.2659, 1311.637
312.7480, 1320.227
313.2301, 1329.891
313.7122, 1339.752
314.1943, 1349.009
314.6765, 1358.698
315.1586, 1369.472
315.6407, 1381.286
316.1228, 1394.583
316.6049, 1409.714
317.0870, 1426.431
317.5692, 1444.072
318.0513, 1463.957
318.5334, 1483.591
319.0155, 1501.086
319.4976, 1515.958
319.9797, 1532.212
320.4619, 1552.037
320.9440, 1573.687
321.4261, 1594.943
321.9082, 1616.475
322.3903, 1636.560
322.8724, 1654.464
323.3546, 1670.150
323.8367, 1684.963
324.3188, 1699.918
324.8009, 1713.782
325.2830, 1725.459
325.7651, 1734.667
326.2473, 1742.089
326.7294, 1748.366
327.2115, 1753.288
327.6936, 1754.995
328.1757, 1753.430
328.6578, 1748.593
329.1400, 1740.434
329.6221, 1727.968
330.1042, 1713.653
330.5863, 1697.355
331.0684, 1679.102
331.5505, 1659.336
332.0327, 1637.262
332.5148, 1614.373
332.9969, 1591.058
333.4790, 1567.956
333.9611, 1543.780
334.4432, 1517.755
334.9254, 1490.983
335.4075, 1465.714
335.8896, 1442.062
336.3717, 1419.273
336.8538, 1397.368
337.3359, 1376.173
337.8180, 1355.831
338.3001, 1336.521
338.7823, 1317.862
339.2644, 1299.600
339.7465, 1281.427
340.2286, 1264.596
340.7107, 1249.925
341.1928, 1236.888
341.6750, 1223.156
342.1571, 1208.233
342.6392, 1193.707
343.1213, 1180.880
343.6034, 1169.872
344.0855, 1158.764
344.5677, 1147.132
345.0498, 1135.442
345.5319, 1125.148
346.0140, 1116.269
346.4961, 1108.222
346.9782, 1101.276
347.4604, 1095.012
347.9425, 1087.110
348.4246, 1076.597
348.9067, 1066.504
349.3888, 1061.363
349.8709, 1060.658
350.3531, 1061.480
350.8352, 1063.191
351.3173, 1065.261
351.7994, 1066.293
352.2815, 1066.112
352.7636, 1066.469
353.2458, 1068.892
353.7279, 1073.107
354.2100, 1078.536
354.6921, 1085.213
355.1742, 1092.773
355.6563, 1101.057
356.1385, 1110.000
356.6206, 1119.336
357.1027, 1128.477
357.5848, 1138.021
358.0669, 1148.870
358.5490, 1161.709
359.0312, 1175.142
359.5133, 1188.909
359.9954, 1202.718
360.4775, 1215.875
360.9596, 1228.844
361.4417, 1240.492
361.9239, 1249.886
362.4060, 1256.175
362.8881, 1262.262
363.3702, 1270.723
363.8523, 1279.382
364.3344, 1284.907
364.8166, 1285.679
365.2987, 1283.770
365.7808, 1280.194
366.2629, 1275.203
366.7450, 1266.982
367.2271, 1254.539
367.7093, 1239.129
368.1914, 1221.862
368.6735, 1202.748
369.1556, 1181.729
369.6377, 1158.773
370.1198, 1133.889
370.6020, 1108.388
371.0841, 1080.347
371.5662, 1053.365
372.0483, 1029.853
372.5304, 1012.221
373.0125, 993.0013
373.4947, 970.9824
373.9768, 947.8530
374.4589, 927.2930
374.9410, 909.7186
375.4231, 893.8010
375.9052, 879.1993
376.3874, 866.0530
376.8695, 852.6180
377.3516, 838.4381
377.8337, 824.5141
378.3158, 811.7039
378.7979, 800.0280
379.2801, 788.9980
379.7622, 778.3434
380.2443, 768.2031
380.7264, 758.9788
381.2085, 750.8434
381.6906, 742.6810
382.1728, 733.6055
382.6549, 723.6215
383.1370, 713.2157
383.6191, 702.1237
384.1012, 691.0742
384.5833, 681.4051
385.0655, 672.9064
385.5476, 664.1199
386.0297, 653.6981
386.5118, 642.4163
386.9939, 631.4357
387.4760, 620.9334
387.9582, 610.6124
388.4403, 599.6815
388.9224, 588.6186
389.4045, 578.4907
389.8866, 570.5555
390.3687, 563.0482
390.8509, 554.3953
391.3330, 544.7341
391.8151, 535.2510
392.2972, 526.6227
392.7793, 518.6199
393.2614, 511.0015
393.7436, 503.8652
394.2257, 497.0210
394.7078, 490.6860
395.1899, 484.6678
395.6720, 478.4590
396.1541, 471.5014
396.6363, 464.6410
397.1184, 458.2622
397.6005, 452.4413
398.0826, 446.9999
398.5647, 442.1124
399.0468, 437.5239
399.5290, 432.9249
400.0111, 428.0992
400.4932, 423.4752
400.9753, 419.1197
401.4574, 415.0149
401.9395, 411.1468
402.4217, 407.4261
402.9038, 403.9930
403.3859, 400.9632
403.8680, 398.4551
404.3501, 396.0487
404.8322, 393.7221
405.3144, 391.4842
405.7965, 389.5049
406.2786, 387.9046
406.7607, 386.1235
407.2428, 383.7437
407.7249, 380.7204
408.2071, 378.3248
408.6892, 376.6301
409.1713, 375.2965
409.6534, 373.9086
410.1355, 372.4821
410.6176, 371.2233
411.0998, 370.2709
411.5819, 369.4654
412.0640, 368.3295
412.5461, 366.8896
413.0282, 365.5640
413.5103, 364.6194
413.9925, 364.0415
414.4746, 363.9028
414.9567, 364.3716
415.4388, 364.8125
415.9209, 364.4984
416.4030, 363.6353
416.8852, 362.7246
417.3673, 361.7436
417.8494, 361.0122
418.3315, 361.0980
418.8136, 362.0455
419.2957, 362.4730
419.7779, 361.0994
420.2600, 359.0311
420.7421, 357.4002
421.2242, 356.8778
421.7063, 356.4688
422.1884, 355.8466
422.6706, 355.0743
423.1527, 354.3612
423.6348, 353.7292
424.1169, 353.2023
424.5990, 352.7554
425.0811, 352.2631
425.5633, 352.1679
426.0454, 353.0109
426.5275, 354.0369
427.0096, 354.2520
427.4917, 352.9843
427.9738, 351.9289
428.4560, 351.5220
428.9381, 351.7212
429.4202, 351.6130
429.9023, 351.0373
430.3844, 350.4462
430.8665, 350.1625
431.3487, 350.2093
431.8308, 350.4556
432.3129, 350.9898
432.7950, 351.5792
433.2771, 351.5833
433.7592, 350.9665
434.2414, 350.5974
434.7235, 351.0169
435.2056, 352.0268
435.6877, 352.9281
436.1698, 353.7321
436.6519, 354.2398
437.1341, 353.6905
437.6162, 352.6572
438.0983, 352.7389
438.5804, 354.8900
439.0625, 357.5894
439.5446, 359.1747
440.0268, 359.8322
440.5089, 360.2348
440.9910, 360.2983
441.4731, 360.5652
441.9552, 361.7265
442.4373, 364.0501
442.9195, 366.1332
443.4016, 366.8341
443.8837, 367.0312
444.3658, 367.7919
444.8479, 370.1529
445.3300, 372.4005
445.8122, 373.5780
446.2943, 373.8917
446.7764, 375.3132
447.2585, 379.4054
447.7406, 383.6898
448.2227, 386.9078
448.7049, 388.3087
449.1870, 390.0239
449.6691, 392.3016
450.1512, 394.7633
450.6333, 396.7378
451.1154, 398.0160
451.5976, 399.3128
452.0797, 400.9662
452.5618, 402.9049
453.0439, 403.7751
453.5260, 403.2482
454.0081, 402.6257
454.4903, 402.9903
454.9724, 404.3252
455.4545, 405.9039
455.9366, 407.9470
456.4187, 409.5325
456.9008, 408.5980
457.3830, 405.4214
457.8651, 402.3001
458.3472, 400.2501
458.8293, 398.9648
459.3114, 398.1942
459.7935, 397.9245
460.2757, 397.1052
460.7578, 394.5302
461.2399, 390.9977
461.7220, 387.6331
462.2041, 384.8047
462.6862, 382.0105
463.1684, 378.7254
463.6505, 375.1969
464.1326, 372.0780
464.6147, 369.8217
465.0968, 367.8605
465.5789, 366.0340
466.0611, 364.3544
466.5432, 362.5241
467.0253, 360.5457
467.5074, 358.3683
467.9895, 355.9526
468.4716, 352.4601
468.9538, 349.7709
469.4359, 348.4109
469.9180, 347.9439
470.4001, 346.9406
470.8822, 345.1110
471.3643, 343.2777
471.8465, 341.7201
472.3286, 340.4330
472.8107, 339.5805
473.2928, 339.2870
473.7749, 339.1615
474.2570, 338.9042
474.7392, 338.5155
475.2213, 337.6116
475.7034, 335.9351
476.1855, 333.9090
476.6676, 332.2870
477.1497, 331.0663
477.6319, 330.2821
478.1140, 330.2841
478.5961, 330.6163
479.0782, 330.4760
479.5603, 329.7826
480.0424, 328.9678
480.5246, 328.2548
481.0067, 327.6722
481.4888, 327.2571
481.9709, 327.0092
482.4530, 326.9360
482.9352, 327.2711
483.4173, 327.8255
483.8994, 328.0034
484.3815, 327.2230
484.8636, 326.3297
485.3457, 325.7004
485.8279, 325.3756
486.3100, 325.2591
486.7921, 325.5136
487.2742, 325.8818
487.7563, 326.1784
488.2384, 326.6846
488.7206, 326.5948
489.2027, 325.5506
489.6848, 323.8927
490.1669, 322.8812
490.6490, 322.6854
491.1311, 322.6567
491.6133, 322.5936
492.0954, 322.4941
492.5775, 322.0059
493.0596, 321.0859
493.5417, 319.9752
494.0238, 318.7249
494.5060, 317.4435
494.9881, 316.7423
495.4702, 317.0180
495.9523, 317.5644
496.4344, 317.5020
496.9165, 316.8715
497.3987, 315.8311
497.8808, 314.0223
498.3629, 312.0991
498.8450, 310.6980
499.3271, 309.8648
499.8092, 309.2492
500.2914, 308.7673
500.7735, 308.3521
501.2556, 307.9359
501.7377, 307.9725
502.2198, 307.4386
502.7019, 305.7372
503.1841, 303.2776
503.6662, 301.1729
504.1483, 299.8558
504.6304, 298.4975
505.1125, 296.7898
505.5946, 294.6710
506.0768, 293.0392
506.5589, 292.1184
507.0410, 291.3782
507.5231, 290.3773
508.0052, 289.0743
508.4873, 287.8310
508.9695, 286.7215
509.4516, 285.6750
509.9337, 284.6454
510.4158, 283.6199
510.8979, 282.3564
511.3800, 280.5055
511.8622, 278.4058
512.3443, 276.9020
512.8264, 275.9731
513.3085, 275.0212
513.7906, 273.4820
514.2728, 271.6928
514.7549, 270.1194
515.2370, 268.9223
515.7191, 267.7283
516.2012, 265.9170
516.6833, 264.0467
517.1655, 262.9428
517.6476, 264.3272
518.1297, 265.0815
518.6118, 263.5576
519.0939, 260.0045
519.5760, 257.4506
520.0582, 257.4299
520.5403, 257.4870
521.0224, 256.4807
521.5045, 253.7267
521.9866, 251.9485
522.4688, 251.5621
522.9509, 251.6887
523.4330, 251.2037
523.9151, 249.9753
524.3972, 248.8327
524.8793, 247.9109
525.3615, 247.2309
525.8436, 247.0042
526.3257, 247.2197
526.8078, 247.2376
527.2899, 246.5389
527.7720, 245.3962
528.2542, 244.4220
528.7363, 243.6500
529.2184, 242.9539
529.7005, 242.1730
530.1826, 241.4318
530.6647, 240.9109
531.1469, 240.7321
531.6290, 240.6738
532.1111, 240.7898
532.5932, 240.9285
533.0753, 240.7818
533.5574, 240.0725
534.0396, 239.2408
534.5217, 238.4179
535.0038, 237.6183
535.4859, 236.7493
535.9680, 235.5156
536.4501, 234.5026
536.9323, 234.1410
537.4144, 234.8627
537.8965, 234.9353
538.3786, 234.0435
538.8607, 232.8835
539.3428, 232.6917
539.8250, 233.5688
540.3071, 234.0094
540.7892, 233.4570
541.2713, 232.3000
541.7534, 231.3613
542.2355, 230.6511
542.7177, 230.2686
543.1998, 230.5742
543.6819, 231.1362
544.1640, 231.3470
544.6461, 231.1669
545.1282, 230.5898
545.6104, 228.9923
546.0925, 227.2482
546.5746, 226.3638
547.0567, 227.1300
547.5388, 228.0667
548.0209, 229.0164
548.5031, 229.7659
548.9852, 229.8721
549.4673, 228.4042
549.9494, 227.1958
550.4315, 226.7966
550.9136, 227.2025
551.3958, 227.4241
551.8779, 227.4284
552.3600, 227.3055
552.8421, 227.0784
553.3242, 226.7296
553.8063, 226.4035
554.2885, 226.0500
554.7706, 225.8753
555.2527, 226.4028
555.7348, 227.4746
556.2169, 228.0589
556.6990, 227.6301
557.1812, 226.8372
557.6633, 226.5860
558.1454, 226.7693
558.6275, 226.9854
559.1096, 227.1255
559.5917, 227.1209
560.0739, 226.8455
560.5560, 226.2869
561.0381, 225.7856
561.5202, 225.4235
562.0023, 225.2122
562.4844, 225.1634
562.9666, 225.3119
563.4487, 225.5836
563.9308, 226.1590
564.4129, 226.7700
564.8950, 226.9292
565.3771, 226.2489
565.8593, 226.0092
566.3414, 226.6587
566.8235, 227.9435
567.3056, 228.8142
567.7877, 229.2674
568.2698, 229.2729
568.7520, 228.4824
569.2341, 227.1926
569.7162, 226.6076
570.1983, 226.8024
570.6804, 227.1577
571.1625, 227.0951
571.6447, 226.8106
572.1268, 226.6369
572.6089, 226.7289
573.0910, 226.7864
573.5731, 226.5039
574.0552, 226.0751
574.5374, 225.8317
575.0195, 226.1742
575.5016, 226.4305
575.9837, 226.2717
576.4658, 225.7461
576.9479, 225.4914
577.4301, 225.6911
577.9122, 225.9693
578.3943, 226.2254
578.8764, 226.5152
579.3585, 226.3275
579.8406, 225.3849
580.3228, 224.5803
580.8049, 225.1004
581.2870, 226.8472
581.7691, 228.1044
582.2512, 228.4969
582.7333, 228.4549
583.2155, 228.4893
583.6975, 228.6025
584.1796, 228.8119
584.6617, 229.3805
585.1439, 229.8560
585.6260, 229.6209
586.1081, 228.8388
586.5902, 228.3442
587.0723, 228.7502
587.5544, 229.3803
588.0366, 229.8335
588.5187, 229.9903
589.0008, 230.3109
589.4829, 231.2619
589.9650, 232.1217
590.4471, 232.2901
590.9293, 231.3109
591.4114, 230.7264
591.8935, 230.7526
592.3756, 231.0876
592.8577, 231.1636
593.3398, 230.9608
593.8220, 230.8388
594.3041, 230.9111
594.7862, 231.1395
595.2683, 231.4776
595.7504, 231.9099
596.2325, 232.3450
596.7147, 233.0257
597.1968, 233.5163
597.6789, 233.0554
598.1610, 231.5718
598.6431, 230.4515
599.1252, 230.6700
599.6074, 231.4747
600.0895, 232.2616
600.5716, 232.9006
601.0537, 233.5611
601.5358, 234.4723
602.0179, 235.3325
602.5001, 235.6961
602.9822, 235.1928
603.4643, 234.9566
603.9464, 235.3388
604.4285, 236.0488
604.9106, 235.9501
605.3928, 234.9118
605.8749, 234.2403
606.3570, 234.9366
606.8391, 236.4703
607.3212, 236.9321
607.8033, 236.3658
608.2855, 235.8916
608.7676, 236.1426
609.2497, 237.0956
609.7318, 239.1692
610.2139, 242.9005
610.6960, 245.4078
611.1782, 243.9792
611.6603, 241.0140
612.1424, 239.0432
612.6245, 239.5641
613.1066, 240.0137
613.5887, 239.7795
614.0709, 239.3132
614.5530, 239.6157
615.0351, 241.1944
615.5172, 242.4176
615.9993, 242.6669
616.4814, 242.2097
616.9636, 242.6790
617.4457, 244.1714
617.9278, 245.4876
618.4099, 245.8240
618.8920, 245.3990
619.3741, 244.5154
619.8563, 243.1630
620.3384, 242.3778
620.8205, 243.4348
621.3026, 245.3576
621.7847, 246.9915
622.2668, 248.1006
622.7490, 248.9345
623.2311, 249.3457
623.7132, 249.6470
624.1953, 250.2390
624.6774, 251.4388
625.1595, 252.6403
625.6417, 253.9040
626.1238, 255.1033
626.6059, 255.8135
627.0880, 255.8869
627.5701, 255.9277
628.0522, 256.1025
628.5344, 256.4223
629.0165, 256.8723
629.4986, 257.4474
629.9807, 258.3936
630.4628, 260.3682
630.9449, 262.6947
631.4271, 263.9314
631.9092, 263.9272
632.3913, 264.0049
632.8734, 265.3884
633.3555, 267.2102
633.8376, 268.5141
634.3198, 268.5181
634.8019, 269.0954
635.2840, 271.3543
635.7661, 274.2448
636.2482, 276.3033
636.7303, 276.8535
637.2125, 277.6732
637.6946, 279.2094
638.1767, 281.0826
638.6588, 282.1244
639.1409, 282.2128
639.6230, 282.3839
640.1052, 282.9669
640.5873, 283.9785
641.0694, 285.5414
641.5515, 287.6412
642.0336, 289.9182
642.5157, 292.2249
642.9979, 294.5385
643.4800, 296.7818
643.9621, 298.9690
644.4442, 301.1537
644.9263, 303.2914
645.4084, 305.5146
645.8906, 307.9255
646.3727, 310.6852
646.8548, 313.3424
647.3369, 315.5599
647.8190, 317.8624
648.3011, 320.9600
648.7833, 325.2811
649.2654, 328.9413
649.7475, 331.4438
650.2296, 333.4437
650.7117, 336.3120
651.1938, 340.0389
651.6760, 344.2419
652.1581, 349.1615
652.6402, 354.2114
653.1223, 358.2952
653.6044, 361.6298
654.0865, 365.3875
654.5687, 370.3510
655.0508, 375.7866
655.5329, 381.4752
656.0150, 387.3881
656.4971, 392.8676
656.9792, 396.9045
657.4614, 401.1850
657.9435, 406.6950
658.4256, 413.8840
658.9077, 420.7063
659.3898, 427.0237
659.8719, 433.2081
660.3541, 439.4953
660.8362, 445.8691
661.3183, 452.9512
661.8004, 460.8174
662.2825, 469.0846
662.7646, 477.4547
663.2468, 485.8014
663.7289, 493.7562
664.2110, 500.5139
664.6931, 507.6984
665.1752, 516.5872
665.6573, 526.7432
666.1395, 537.3239
666.6216, 548.2003
667.1037, 559.3373
667.5858, 570.8820
668.0679, 582.8073
668.5500, 594.4147
669.0322, 605.6713
669.5143, 616.8610
669.9964, 628.1924
670.4785, 639.6539
670.9606, 650.9459
671.4427, 662.0452
671.9249, 673.5798
672.4070, 686.3185
672.8891, 699.9796
673.3712, 713.7272
673.8533, 727.5762
674.3354, 741.7227
674.8176, 757.0491
675.2997, 772.6155
675.7818, 787.1741
676.2639, 799.8611
676.7460, 812.9928
677.2281, 827.0313
677.7103, 841.6119
678.1924, 856.1826
678.6745, 870.4901
679.1566, 885.1728
679.6387, 900.8424
680.1208, 916.4339
680.6030, 929.5782
681.0851, 940.0775
681.5672, 951.1180
682.0493, 964.1463
682.5314, 977.9166
683.0135, 990.3414
683.4957, 1001.536
683.9778, 1011.485
684.4599, 1019.409
684.9420, 1026.828
685.4241, 1035.714
685.9063, 1045.773
686.3884, 1053.546
686.8705, 1056.056
687.3526, 1057.871
687.8347, 1061.435
688.3168, 1067.349
688.7990, 1070.802
689.2811, 1071.655
689.7632, 1070.546
690.2453, 1067.368
690.7274, 1062.295
691.2095, 1058.358
691.6917, 1056.044
692.1738, 1052.752
692.6559, 1045.320
693.1380, 1035.210
693.6201, 1024.917
694.1022, 1015.146
694.5844, 1004.922
695.0665, 993.8428
695.5486, 982.0087
696.0307, 969.5040
696.5128, 955.9032
696.9949, 942.3587
697.4771, 929.0119
697.9592, 915.7631
698.4413, 902.7193
698.9234, 889.9503
699.4055, 877.1434
699.8876, 864.2336
700.3698, 851.1785
700.8519, 837.8149
701.3340, 824.2336
701.8161, 811.3851
702.2982, 800.5455
702.7803, 790.1838
703.2625, 778.3258
703.7446, 765.2667
704.2267, 752.8680
704.7088, 741.8907
705.1909, 731.6561
705.6730, 722.0933
706.1552, 713.2054
706.6373, 704.2405
707.1194, 694.9501
707.6015, 685.8848
708.0836, 677.4065
708.5657, 669.5529
709.0479, 661.9670
709.5300, 654.6469
710.0121, 647.5159
710.4942, 640.5143
710.9763, 633.6606
711.4584, 626.7961
711.9406, 619.9152
712.4227, 613.2100
712.9048, 606.6819
713.3869, 600.4130
713.8690, 594.4473
714.3511, 588.7179
714.8333, 583.5595
715.3154, 579.1458
715.7975, 575.3745
716.2796, 572.3330
716.7617, 570.7168
717.2438, 567.7806
717.7260, 562.8591
718.2081, 557.0886
718.6902, 552.3796
719.1723, 548.6536
719.6544, 545.6722
720.1365, 543.6600
720.6187, 541.8784
721.1008, 539.1986
721.5829, 536.0541
722.0650, 533.3975
722.5471, 531.8989
723.0292, 530.7200
723.5114, 529.8079
723.9935, 528.9938
724.4756, 527.5602
724.9577, 524.8845
725.4398, 522.5399
725.9219, 520.9662
726.4041, 520.1116
726.8862, 519.8389
727.3683, 520.2064
727.8504, 520.4887
728.3325, 520.0495
728.8146, 519.3148
729.2968, 519.3568
729.7789, 520.0843
730.2610, 520.6072
730.7431, 520.0671
731.2252, 519.3359
731.7073, 519.0144
732.1895, 519.1701
732.6716, 519.5557
733.1537, 520.1518
733.6358, 520.9392
734.1179, 521.9996
734.6000, 523.4402
735.0822, 524.3909
735.5643, 524.7182
736.0464, 525.0090
736.5285, 525.7594
737.0106, 526.9147
737.4927, 528.2067
737.9749, 529.5838
738.4570, 531.4033
738.9391, 534.5068
739.4212, 537.9703
739.9033, 540.6448
740.3854, 541.8821
740.8676, 543.3773
741.3497, 545.9273
741.8318, 548.7956
742.3139, 551.2437
742.7960, 553.0490
743.2781, 554.9193
743.7603, 556.8644
744.2424, 558.9242
744.7245, 561.0475
745.2066, 563.2591
745.6887, 566.1791
746.1708, 570.3345
746.6530, 574.2381
747.1351, 575.6834
747.6172, 575.7635
748.0993, 576.3908
748.5814, 578.6739
749.0635, 581.1435
749.5457, 583.6078
750.0278, 585.8981
750.5099, 587.5847
750.9920, 588.4078
751.4741, 589.2034
751.9562, 590.1082
752.4384, 591.0944
752.9205, 592.0543
753.4026, 592.9972
753.8847, 593.9835
754.3668, 595.0639
754.8489, 596.1625
755.3311, 597.1470
755.8132, 598.0587
756.2953, 598.9867
756.7774, 600.5162
757.2595, 601.5499
757.7416, 600.9942
758.2238, 599.2809
758.7059, 598.8576
759.1880, 600.4991
759.6701, 602.3578
760.1522, 603.9955
760.6343, 605.4082
761.1165, 606.5346
761.5986, 607.3452
762.0807, 608.3842
762.5628, 610.2375
763.0449, 612.3834
763.5270, 613.8383
764.0092, 614.7053
764.4913, 615.5939
764.9734, 616.8278
765.4555, 618.1876
765.9376, 619.5177
766.4197, 620.8287
766.9019, 622.2518
767.3840, 623.6544
767.8661, 625.3692
768.3482, 627.5811
768.8303, 630.2933
769.3124, 633.0735
769.7946, 635.8980
770.2767, 638.8269
770.7588, 642.0062
771.2409, 645.2742
771.7230, 648.0313
772.2051, 650.3264
772.6873, 653.4555
773.1694, 659.5554
773.6515, 665.6882
774.1336, 669.5842
774.6157, 670.4823
775.0978, 672.5573
775.5800, 676.1008
776.0621, 680.6175
776.5442, 686.1611
777.0263, 692.8383
777.5084, 698.4550
777.9905, 702.9872
778.4727, 706.9424
778.9548, 710.0274
779.4369, 713.0771
779.9190, 717.6127
780.4011, 723.7797
780.8832, 730.8010
781.3654, 739.0372
781.8475, 747.3193
782.3296, 754.7539
782.8117, 760.8922
783.2938, 767.0149
783.7759, 773.1218
784.2581, 779.2552
784.7402, 785.2125
785.2223, 790.9709
785.7044, 797.8142
786.1865, 805.8055
786.6686, 814.2089
787.1508, 822.1898
787.6329, 830.1180
788.1150, 839.0814
788.5971, 849.6115
789.0792, 858.9041
789.5613, 863.5414
790.0435, 867.8909
790.5256, 876.0281
791.0077, 890.4904
791.4898, 902.0012
791.9719, 909.4011
792.4540, 915.6409
792.9362, 923.1036
793.4183, 931.7860
793.9004, 940.6100
794.3825, 949.5931
794.8646, 958.5504
795.3467, 967.0960
795.8289, 975.7870
796.3110, 985.4637
796.7931, 996.7490
797.2752, 1007.583
797.7573, 1017.283
798.2394, 1026.314
798.7216, 1034.972
799.2037, 1042.751
799.6858, 1051.735
800.1679, 1062.000
800.6500, 1073.299
801.1321, 1086.393
801.6143, 1100.680
802.0964, 1113.315
802.5785, 1123.813
803.0606, 1133.732
803.5427, 1143.049
804.0248, 1153.066
804.5070, 1165.755
804.9891, 1182.714
805.4712, 1198.419
805.9533, 1210.080
806.4354, 1221.444
806.9175, 1235.420
807.3997, 1252.824
807.8818, 1269.291
808.3639, 1284.333
808.8460, 1299.402
809.3281, 1316.346
809.8102, 1334.414
810.2924, 1351.253
810.7745, 1366.318
811.2566, 1382.496
811.7387, 1402.133
812.2208, 1423.421
812.7029, 1444.686
813.1851, 1465.374
813.6672, 1486.851
814.1493, 1509.188
814.6314, 1532.320
815.1135, 1556.122
815.5956, 1580.818
816.0778, 1604.757
816.5599, 1627.786
817.0420, 1651.635
817.5241, 1678.339
818.0062, 1706.746
818.4883, 1735.420
818.9705, 1764.178
819.4526, 1794.015
819.9347, 1825.008
820.4168, 1857.484
820.8989, 1892.215
821.3810, 1929.650
821.8632, 1965.629
822.3453, 1999.411
822.8274, 2033.656
823.3095, 2069.381
823.7916, 2107.028
824.2737, 2146.687
824.7559, 2188.538
825.2380, 2231.570
825.7201, 2273.104
826.2022, 2316.213
826.6843, 2364.676
827.1664, 2419.744
827.6486, 2471.982
828.1307, 2515.837
828.6128, 2559.977
829.0949, 2609.413
829.5770, 2664.137
830.0591, 2718.149
830.5413, 2771.052
831.0234, 2824.155
831.5055, 2878.336
831.9876, 2933.204
832.4697, 2988.842
832.9518, 3044.789
833.4340, 3101.642
833.9161, 3159.982
834.3982, 3218.388
834.8803, 3276.879
835.3624, 3335.466
835.8445, 3389.053
836.3267, 3434.546
836.8088, 3480.871
837.2909, 3532.737
837.7730, 3588.883
838.2551, 3641.538
838.7372, 3690.917
839.2194, 3739.908
839.7015, 3790.674
840.1836, 3841.817
840.6657, 3892.170
841.1478, 3942.028
841.6299, 3990.645
842.1121, 4037.514
842.5942, 4083.404
843.0763, 4128.000
843.5584, 4171.942
844.0405, 4219.729
844.5226, 4272.012
845.0048, 4322.917
845.4869, 4369.167
845.9690, 4413.068
846.4511, 4457.333
846.9332, 4502.470
847.4153, 4549.720
847.8975, 4599.836
848.3796, 4651.991
848.8617, 4706.104
849.3438, 4762.216
849.8259, 4819.325
850.3080, 4877.952
850.7902, 4937.249
851.2723, 4996.236
851.7544, 5055.983
852.2365, 5119.513
852.7186, 5186.019
853.2007, 5250.634
853.6829, 5310.538
854.1650, 5368.656
854.6471, 5426.823
855.1292, 5485.641
855.6113, 5546.360
856.0934, 5613.962
856.5756, 5676.210
857.0577, 5731.722
857.5398, 5781.276
858.0219, 5827.934
858.5040, 5871.949
858.9861, 5910.176
859.4683, 5942.216
859.9504, 5968.823
860.4325, 5992.315
860.9146, 6010.389
861.3967, 6018.810
861.8788, 6016.406
862.3610, 6004.672
862.8431, 5982.619
863.3252, 5951.957
863.8073, 5915.847
864.2894, 5875.688
864.7715, 5824.257
865.2537, 5760.434
865.7358, 5689.122
866.2179, 5614.388
866.7000, 5535.592
867.1821, 5449.709
867.6642, 5355.621
868.1464, 5258.637
868.6285, 5158.456
869.1106, 5058.230
869.5927, 4959.731
870.0748, 4862.915
870.5569, 4764.253
871.0391, 4663.211
871.5212, 4561.562
872.0033, 4460.298
872.4854, 4359.386
872.9675, 4263.929
873.4496, 4172.459
873.9318, 4081.407
874.4139, 3985.942
874.8960, 3891.248
875.3781, 3802.856
875.8602, 3719.587
876.3423, 3636.520
876.8245, 3551.112
877.3066, 3468.594
877.7887, 3391.017
878.2708, 3317.470
878.7529, 3243.525
879.2350, 3169.507
879.7172, 3098.339
880.1993, 3033.635
880.6814, 2971.949
881.1635, 2908.741
881.6456, 2845.321
882.1277, 2784.708
882.6099, 2729.676
883.0920, 2675.709
883.5741, 2620.586
884.0562, 2566.451
884.5383, 2514.931
885.0204, 2466.107
885.5026, 2419.527
885.9847, 2375.401
886.4668, 2332.581
886.9489, 2288.837
887.4310, 2245.168
887.9131, 2204.363
888.3953, 2167.960
888.8774, 2132.300
889.3595, 2095.379
889.8416, 2058.803
890.3237, 2024.014
890.8058, 1992.159
891.2880, 1959.419
891.7701, 1925.602
892.2522, 1892.132
892.7343, 1859.729
893.2164, 1828.506
893.6985, 1799.207
894.1807, 1772.101
894.6628, 1744.488
895.1449, 1713.095
895.6270, 1682.335
896.1091, 1655.269
896.5912, 1632.580
897.0734, 1609.404
897.5555, 1586.023
898.0376, 1561.844
898.5197, 1536.375
899.0018, 1510.106
899.4839, 1485.889
899.9661, 1463.409
900.4482, 1440.898
900.9303, 1416.453
901.4124, 1392.304
901.8945, 1369.629
902.3766, 1348.364
902.8588, 1327.445
903.3409, 1307.492
903.8230, 1287.183
904.3051, 1265.943
904.7872, 1244.446
905.2693, 1223.484
905.7515, 1203.090
906.2336, 1182.904
906.7157, 1162.651
907.1978, 1143.022
907.6799, 1125.050
908.1620, 1107.911
908.6442, 1090.354
909.1263, 1071.573
909.6084, 1053.658
910.0905, 1036.883
910.5726, 1020.742
911.0547, 1004.170
911.5369, 987.3734
912.0190, 972.3295
912.5011, 959.2292
912.9832, 945.7802
913.4653, 929.2524
913.9474, 912.0518
914.4296, 896.4537
914.9117, 882.7194
915.3938, 869.4062
915.8759, 856.2950
916.3580, 843.5052
916.8401, 831.2128
917.3223, 819.2680
917.8044, 806.5727
918.2865, 793.2905
918.7686, 780.5225
919.2507, 769.3723
919.7328, 758.5977
920.2150, 746.5120
920.6971, 733.9057
921.1792, 722.4521
921.6613, 714.5634
922.1434, 705.2146
922.6255, 693.1467
923.1077, 679.7409
923.5898, 667.0864
924.0719, 655.2838
924.5540, 644.4193
925.0361, 634.6418
925.5182, 625.1576
926.0004, 614.9347
926.4825, 604.5222
926.9646, 594.5162
927.4467, 585.2832
927.9288, 575.5901
928.4109, 564.5690
928.8931, 553.8211
929.3752, 544.6530
929.8573, 537.0673
930.3394, 529.3737
930.8215, 521.6376
931.3036, 513.6964
931.7858, 505.0740
932.2679, 496.4997
932.7500, 488.4609
933.2321, 481.1065
933.7142, 474.2297
934.1964, 468.4803
934.6785, 462.3499
935.1606, 455.2892
935.6427, 447.7296
936.1248, 441.2530
936.6069, 435.7101
937.0891, 430.2801
937.5712, 424.4580
938.0533, 418.8231
938.5354, 414.0219
939.0175, 409.7042
939.4996, 405.4525
939.9818, 400.9449
940.4639, 396.7580
940.9460, 393.0885
941.4281, 389.5566
941.9102, 385.8018
942.3923, 381.8650
942.8745, 378.0660
943.3566, 374.3896
943.8387, 371.0969
944.3208, 368.7497
944.8029, 366.6632
945.2850, 364.1759
945.7672, 361.2270
946.2493, 358.5619
946.7314, 356.3263
947.2135, 354.2348
947.6956, 352.3808
948.1777, 350.4847
948.6599, 347.2256
949.1420, 342.9067
949.6241, 339.3353
950.1062, 337.7158
950.5883, 336.6999
951.0704, 335.5849
951.5526, 334.3678
952.0347, 333.0876
952.5168, 332.0956
952.9989, 330.1760
953.4810, 326.7836
953.9631, 323.3457
954.4453, 322.0878
954.9274, 322.3046
955.4095, 321.3462
955.8916, 318.7818
956.3737, 316.3119
956.8558, 315.4016
957.3380, 314.7554
957.8201, 313.2805
958.3022, 310.8514
958.7843, 308.8815
959.2664, 307.4097
959.7485, 306.2644
960.2307, 305.4596
960.7128, 304.8538
961.1949, 304.1028
961.6770, 303.2590
962.1591, 302.5214
962.6412, 302.1975
963.1234, 301.7521
963.6055, 300.9355
964.0876, 299.8721
964.5697, 298.8044
965.0518, 297.8386
965.5339, 296.3169
966.0161, 293.9890
966.4982, 291.7186
966.9803, 290.5745
967.4624, 290.1654
967.9445, 290.0747
968.4266, 290.3441
968.9088, 289.9149
969.3909, 287.0129
969.8730, 284.6574
970.3551, 284.6651
970.8372, 286.8591
971.3193, 288.2894
971.8015, 288.9520
972.2836, 288.5116
972.7657, 286.0022
973.2478, 282.9659
973.7299, 281.2356
974.2120, 280.4250
974.6942, 279.5527
975.1763, 277.8174
975.6584, 276.7612
976.1405, 276.8968
976.6226, 277.4279
977.1047, 277.1539
977.5869, 276.1537
978.0690, 275.3474
978.5511, 274.9042
979.0332, 274.3474
979.5153, 273.1344
979.9974, 271.7111
980.4796, 270.5462
980.9617, 269.7595
981.4438, 268.5187
981.9259, 266.3424
982.4080, 264.6943
982.8901, 264.5753
983.3723, 265.2935
983.8544, 264.5421
984.3365, 262.6237
984.8186, 260.7962
985.3007, 259.5205
985.7828, 258.6541
986.2650, 258.3216
986.7471, 258.2802
987.2292, 258.1570
987.7113, 258.0478
988.1934, 257.4276
988.6755, 256.1596
989.1577, 254.7231
989.6398, 253.4743
990.1219, 252.5026
990.6040, 252.1699
991.0861, 252.5269
991.5682, 252.5166
992.0504, 251.2147
992.5325, 249.9978
993.0146, 249.6909
993.4967, 250.0139
993.9788, 249.1968
994.4609, 247.2473
994.9431, 245.3235
995.4252, 243.8180
995.9073, 242.6780
996.3894, 241.9673
996.8715, 241.5312
997.3536, 241.0987
997.8358, 240.7581
998.3179, 240.1396
998.8000, 238.9820
999.2821, 237.9395
999.7642, 237.8923
1000.246, 238.5702
1000.728, 238.3900
1001.211, 237.2996
1001.693, 236.2245
1002.175, 235.6968
1002.657, 235.4426
1003.139, 235.5259
1003.621, 235.8015
1004.103, 235.3655
1004.585, 234.0169
1005.068, 232.6877
1005.550, 231.5628
1006.032, 230.7070
1006.514, 230.3730
1006.996, 230.3416
1007.478, 230.1668
1007.960, 229.7140
1008.442, 229.1469
1008.924, 228.1468
1009.407, 227.3758
1009.889, 227.4645
1010.371, 228.4700
1010.853, 228.4807
1011.335, 227.4856
1011.817, 226.4009
1012.299, 225.8616
1012.781, 225.4897
1013.263, 224.8354
1013.746, 224.0389
1014.228, 223.6353
1014.710, 224.1214
1015.192, 224.1979
1015.674, 223.5813
1016.156, 222.6376
1016.638, 221.8964
1017.120, 221.2834
1017.603, 220.4320
1018.085, 219.1876
1018.567, 218.4593
1019.049, 219.4090
1019.531, 220.5265
1020.013, 220.7539
1020.495, 220.1174
1020.977, 219.3952
1021.459, 218.5510
1021.942, 217.9450
1022.424, 217.8436
1022.906, 217.9583
1023.388, 218.1413
1023.870, 218.1957
1024.352, 217.7355
1024.834, 215.8761
1025.316, 214.6131
1025.799, 214.2661
1026.281, 214.3362
1026.763, 214.3737
1027.245, 214.3852
1027.727, 214.4704
1028.209, 214.6247
1028.691, 214.5809
1029.173, 213.9324
1029.656, 213.2224
1030.138, 212.8232
1030.620, 212.6992
1031.102, 212.5854
1031.584, 212.5097
1032.066, 212.2781
1032.548, 211.7642
1033.030, 211.2545
1033.512, 211.1712
1033.995, 211.3931
1034.477, 211.8345
1034.959, 212.7032
1035.441, 212.8980
1035.923, 211.4629
1036.405, 210.0701
1036.887, 209.6401
1037.369, 210.0738
1037.851, 210.7002
1038.334, 211.4369
1038.816, 211.5833
1039.298, 210.0474
1039.780, 208.4902
1040.262, 207.9805
1040.744, 208.2529
1041.226, 208.8197
1041.708, 209.9997
1042.191, 210.3678
1042.673, 209.6963
1043.155, 208.7179
1043.637, 207.9115
1044.119, 207.4330
1044.601, 207.7849
1045.083, 208.9425
1045.565, 209.7077
1046.047, 209.4200
1046.530, 208.9177
1047.012, 208.3860
1047.494, 207.8717
1047.976, 207.6124
1048.458, 207.5441
1048.940, 207.0836
1049.422, 205.8468
1049.904, 204.9026
1050.386, 205.4789
1050.869, 206.4873
1051.351, 206.7671
1051.833, 206.1240
1052.315, 205.5678
1052.797, 205.0255
1053.279, 204.9164
1053.761, 205.9981
1054.243, 207.3200
1054.726, 206.8682
1055.208, 205.3092
1055.690, 204.4091
1056.172, 205.6075
1056.654, 206.3800
1057.136, 206.2672
1057.618, 205.7702
1058.100, 205.3508
1058.583, 205.0406
1059.065, 205.1107
1059.547, 205.5748
1060.029, 206.0791
1060.511, 206.6450
1060.993, 206.9171
1061.475, 206.4989
1061.957, 205.5692
1062.439, 204.8883
1062.922, 204.5124
1063.404, 203.9584
1063.886, 202.9641
1064.368, 202.1890
1064.850, 202.8341
1065.332, 204.0206
1065.814, 204.4826
1066.296, 203.7569
1066.778, 203.3538
1067.261, 203.6563
1067.743, 203.8551
1068.225, 203.4788
1068.707, 202.7154
1069.189, 202.1305
1069.671, 201.7109
1070.153, 201.4183
1070.635, 201.2480
1071.118, 201.1914
1071.600, 201.3109
1072.082, 201.5063
1072.564, 201.6758
1073.046, 201.8111
1073.528, 202.0583
1074.010, 202.4272
1074.492, 202.6268
1074.974, 202.1602
1075.457, 201.6483
1075.939, 201.7375
1076.421, 202.2783
1076.903, 202.5933
1077.385, 202.6092
1077.867, 202.4414
1078.349, 202.0216
1078.831, 201.6639
1079.313, 201.9565
1079.796, 202.5420
1080.278, 202.8148
1080.760, 202.6910
1081.242, 202.2854
1081.724, 201.2409
1082.206, 200.3898
1082.688, 200.1281
1083.170, 200.2270
1083.652, 199.7957
1084.135, 199.0038
1084.617, 198.8045
1085.099, 199.7576
1085.581, 200.7162
1086.063, 200.9212
1086.545, 200.8483
1087.027, 201.0732
1087.509, 201.7264
1087.992, 201.1470
1088.474, 199.2326
1088.956, 197.6967
1089.438, 197.8336
1089.920, 198.6548
1090.402, 199.2741
1090.884, 199.7567
1091.366, 200.2517
1091.849, 200.9818
1092.331, 201.2612
1092.813, 200.9211
1093.295, 200.4750
1093.777, 200.5048
1094.259, 200.7712
1094.741, 200.8190
1095.223, 200.6295
1095.705, 200.2809
1096.188, 199.5385
1096.670, 198.9925
1097.152, 198.7948
1097.634, 198.8665
1098.116, 199.1744
1098.598, 199.6522
1099.080, 199.8774
1099.562, 199.7674
1100.044, 199.6237
1100.527, 199.7505
1101.009, 199.8111
1101.491, 199.3952
1101.973, 198.6680
1102.455, 198.8498
1102.937, 199.9823
1103.419, 200.7241
1103.901, 200.5437
1104.384, 199.9901
1104.866, 199.4064
1105.348, 198.8972
1105.830, 198.6173
1106.312, 198.6713
1106.794, 198.5886
1107.276, 198.3450
1107.758, 198.0288
1108.240, 197.5139
1108.723, 197.1012
1109.205, 197.6938
1109.687, 198.7583
1110.169, 199.0748
1110.651, 197.1123
1111.133, 196.1373
1111.615, 196.7758
1112.097, 197.7733
1112.579, 198.0265
1113.062, 197.6844
1113.544, 196.9983
1114.026, 196.1173
1114.508, 195.9275
1114.990, 198.0502
1115.472, 199.5207
1115.954, 198.7473
1116.436, 197.1101
1116.919, 196.8482
1117.401, 197.8298
1117.883, 197.7989
1118.365, 196.4667
1118.847, 195.2155
1119.329, 195.3490
1119.811, 195.6836
1120.293, 195.2153
1120.776, 194.2134
1121.258, 193.9363
1121.740, 194.4736
1122.222, 194.8704
1122.704, 194.8720
1123.186, 194.8107
1123.668, 195.0830
1124.150, 195.4580
1124.632, 195.6527
1125.115, 195.6021
1125.597, 195.7969
1126.079, 196.4400
1126.561, 196.6280
1127.043, 195.7824
1127.525, 194.6566
1128.007, 194.5055
1128.489, 194.9540
1128.971, 195.3930
1129.454, 195.7406
1129.936, 195.8631
1130.418, 195.6444
1130.900, 195.4289
1131.382, 195.4934
1131.864, 195.6782
1132.346, 195.3845
1132.828, 194.7914
1133.311, 194.4694
1133.793, 194.8341
1134.275, 195.2560
1134.757, 195.7066
1135.239, 196.0346
1135.721, 196.1003
1136.203, 195.9166
1136.685, 195.5441
1137.167, 195.0015
1137.650, 194.4540
1138.132, 194.0120
1138.614, 193.5720
1139.096, 192.9399
1139.578, 192.3614
1140.060, 192.2307
1140.542, 192.5529
1141.024, 192.9660
1141.506, 193.4484
1141.989, 193.5914
1142.471, 192.7222
1142.953, 191.7472
1143.435, 191.4658
1143.917, 191.6025
1144.399, 190.9352
1144.881, 189.1983
1145.363, 188.9888
1145.846, 191.0018
1146.328, 193.0265
1146.810, 192.6354
1147.292, 191.2949
1147.774, 190.0456
1148.256, 189.0976
1148.738, 189.7044
1149.220, 192.6252
1149.703, 193.9572
1150.185, 192.2040
1150.667, 189.6574
1151.149, 189.4287
1151.631, 190.2449
1152.113, 190.2203
1152.595, 188.8504
1153.077, 188.3702
1153.559, 189.2127
1154.042, 190.1530
1154.524, 190.8254
1155.006, 191.1303
1155.488, 190.4403
1155.970, 189.3571
1156.452, 189.2036
1156.934, 190.8638
1157.416, 191.6851
1157.898, 191.2101
1158.381, 190.2072
1158.863, 188.8267
1159.345, 187.3869
1159.827, 186.8436
1160.309, 187.0217
1160.791, 187.4808
1161.273, 188.3856
1161.755, 188.9728
1162.238, 188.9810
1162.720, 188.8065
1163.202, 188.7197
1163.684, 188.6982
1164.166, 188.5630
1164.648, 188.3602
1165.130, 188.2951
1165.612, 188.6063
1166.094, 188.8942
1166.577, 189.1234
1167.059, 189.1807
1167.541, 188.8440
1168.023, 188.1724
1168.505, 187.6767
1168.987, 187.3901
1169.469, 187.4924
1169.951, 188.7217
1170.433, 189.6318
1170.916, 189.1956
1171.398, 188.3098
1171.880, 188.1250
1172.362, 188.6082
1172.844, 189.2036
1173.326, 189.8580
1173.808, 190.2251
1174.290, 190.0143
1174.773, 189.4963
1175.255, 188.5078
1175.737, 187.4422
1176.219, 187.1616
1176.701, 187.6700
1177.183, 188.0058
1177.665, 188.0537
1178.147, 187.8403
1178.630, 186.9147
1179.112, 186.1728
1179.594, 186.4254
1180.076, 187.3813
1180.558, 188.1904
1181.040, 188.8741
1181.522, 188.9989
1182.004, 188.4186
1182.486, 187.7092
1182.969, 187.1652
1183.451, 186.8848
1183.933, 187.0298
1184.415, 187.5425
1184.897, 188.2148
1185.379, 189.1364
1185.861, 189.0813
1186.343, 187.4942
1186.825, 185.8747
1187.308, 185.6578
1187.790, 186.1483
1188.272, 186.9202
1188.754, 187.8918
1189.236, 188.1345
1189.718, 187.5638
1190.200, 187.0350
1190.682, 186.7564
1191.165, 186.8163
1191.647, 187.6982
1192.129, 188.7208
1192.611, 189.1205
1193.093, 188.7942
1193.575, 188.2180
1194.057, 187.2814
1194.539, 186.9267
1195.021, 187.7122
1195.504, 188.8307
1195.986, 189.6557
1196.468, 190.1148
1196.950, 190.0305
1197.432, 189.3196
1197.914, 188.4643
1198.396, 187.3364
1198.878, 186.9951
1199.360, 188.4253
1199.843, 190.1447
1200.325, 190.2685
1200.807, 189.6252
1201.289, 189.4372
1201.771, 190.0655
1202.253, 189.9525
1202.735, 188.9160
1203.217, 188.3697
1203.700, 189.5929
1204.182, 191.1258
1204.664, 191.0692
1205.146, 190.2615
1205.628, 190.1340
1206.110, 191.2437
1206.592, 191.5217
1207.074, 190.8345
1207.557, 190.1677
1208.039, 190.2334
1208.521, 190.5630
1209.003, 190.7095
1209.485, 190.7213
1209.967, 190.6715
1210.449, 190.5189
1210.931, 190.4710
1211.413, 190.5441
1211.896, 190.6138
1212.378, 190.3873
1212.860, 190.2924
1213.342, 191.2453
1213.824, 192.5611
1214.306, 192.6811
1214.788, 190.9785
1215.270, 190.0865
1215.752, 190.1425
1216.235, 190.3655
1216.717, 189.9646
1217.199, 189.6316
1217.681, 190.4574
1218.163, 191.7937
1218.645, 192.0250
1219.127, 190.5838
1219.609, 190.3062
1220.092, 191.4418
1220.574, 192.4620
1221.056, 191.8412
1221.538, 190.8382
1222.020, 190.6020
1222.502, 190.8958
1222.984, 191.0980
1223.466, 191.2092
1223.948, 191.0326
1224.431, 190.5233
1224.913, 190.1581
1225.395, 190.3022
1225.877, 190.7672
1226.359, 191.8554
1226.841, 193.0166
1227.323, 192.9266
1227.805, 191.3339
1228.287, 190.1345
1228.770, 189.4545
1229.252, 189.3675
1229.734, 190.4587
1230.216, 191.6531
1230.698, 192.2553
1231.180, 192.3117
1231.662, 191.9476
1232.144, 191.1099
1232.627, 190.5563
1233.109, 190.3510
1233.591, 190.3242
1234.073, 190.4491
1234.555, 190.6045
1235.037, 190.6661
1235.519, 190.7258
1236.001, 190.9902
1236.484, 191.4584
1236.966, 191.9586
1237.448, 192.4695
1237.930, 192.4824
1238.412, 191.0779
1238.894, 189.6853
1239.376, 189.0844
1239.858, 189.0479
1240.340, 189.4495
1240.823, 190.2107
1241.305, 190.5196
1241.787, 190.2988
1242.269, 189.6955
1242.751, 187.9803
1243.233, 186.9154
1243.715, 187.5832
1244.197, 189.0239
1244.679, 189.9464
1245.162, 190.3601
1245.644, 190.0536
1246.126, 189.0694
1246.608, 188.3750
1247.090, 189.0976
1247.572, 189.3206
1248.054, 188.1080
1248.536, 186.5932
1249.019, 186.8483
1249.501, 188.2151
1249.983, 188.5184
1250.465, 187.6432
1250.947, 186.7298
1251.429, 185.9402
1251.911, 185.6866
1252.393, 186.2452
1252.875, 186.9948
1253.358, 187.0379
1253.840, 186.6533
1254.322, 186.4966
1254.804, 186.5817
1255.286, 186.5229
1255.768, 186.1990
1256.250, 185.7004
1256.732, 184.9413
1257.214, 184.2784
1257.697, 184.3006
1258.179, 184.6294
1258.661, 184.7456
1259.143, 184.6034
1259.625, 184.0868
1260.107, 182.7687
1260.589, 182.3586
1261.071, 183.3081
1261.554, 184.3290
1262.036, 183.7598
1262.518, 182.6975
1263.000, 182.5403
1263.482, 183.0938
1263.964, 182.9855
1264.446, 181.8840
1264.928, 181.4483
1265.411, 181.9712
1265.893, 182.4894
1266.375, 181.9038
1266.857, 181.1431
1267.339, 181.1198
1267.821, 181.5698
1268.303, 181.5570
1268.785, 181.0351
1269.267, 180.6934
1269.750, 180.6142
1270.232, 180.4486
1270.714, 179.6986
1271.196, 179.0191
1271.678, 178.9847
1272.160, 179.2319
1272.642, 179.0637
1273.124, 178.5510
1273.606, 178.9357
1274.089, 180.2396
1274.571, 181.0999
1275.053, 180.3044
1275.535, 179.3765
1276.017, 178.7524
1276.499, 178.4358
1276.981, 178.6106
1277.463, 179.0906
1277.946, 179.0915
1278.428, 178.6331
1278.910, 178.2330
1279.392, 178.2590
1279.874, 178.1485
1280.356, 177.7210
1280.838, 177.2851
1281.320, 177.3669
1281.802, 177.5977
1282.285, 176.9451
1282.767, 175.6614
1283.249, 175.0550
1283.731, 176.1086
1284.213, 176.4970
1284.695, 175.8711
1285.177, 175.2262
1285.659, 175.9198
1286.141, 176.7897
1286.624, 175.9138
1287.106, 174.0261
1287.588, 173.4193
1288.070, 174.7272
1288.552, 175.1436
1289.034, 174.4560
1289.516, 173.7550
1289.998, 173.6934
1290.481, 174.1348
1290.963, 175.6401
1291.445, 177.2330
1291.927, 177.1779
1292.409, 175.3247
1292.891, 174.5845
1293.373, 174.9524
1293.855, 175.2927
1294.338, 174.8147
1294.820, 174.2739
1295.302, 173.8769
1295.784, 173.7206
1296.266, 174.0590
1296.748, 174.7727
1297.230, 174.9126
1297.712, 174.6306
1298.194, 174.5789
1298.677, 175.4852
1299.159, 175.8646
1299.641, 175.3118
1300.123, 174.6076
1300.605, 174.3802
1301.087, 174.3953
1301.569, 173.6758
1302.051, 172.7743
1302.533, 172.9305
1303.016, 174.3575
##END=



