##NAMES=Brandtite
##RRUFFID=R070170
##IDEAL CHEMISTRY=Ca_2_Mn^2+^(As^5+^O_4_)_2_&#183;2H_2_O
##LOCALITY=Harstigen Mine, Pajsberg, Filipstad, Varmland, Sweden
##OWNER=RRUFF
##SOURCE=Michael Scott
##DESCRIPTION=Aggregate of colorless prismatic to platy crystals
##STATUS=The identification of this mineral is confirmed by single-crystal X-ray diffraction and chemical analysis.
##URL=rruff.info/R070170
##MEASURED CHEMISTRY=(Ca_1.99_Pb_0.01_)_Σ=2_(Mn^2+^_0.99_Mg_0.01_)_Σ=1_(As_1.00_O_4_)_2_·2.01H_2_O; H_2_O estimated by difference
116.9707, 168.9332
117.4528, 175.9893
117.9349, 184.7591
118.4170, 193.9998
118.8992, 201.4227
119.3813, 206.8268
119.8634, 213.6295
120.3455, 221.8683
120.8276, 232.2968
121.3097, 247.1440
121.7919, 268.2103
122.2740, 291.8825
122.7561, 313.0172
123.2382, 331.4907
123.7203, 351.2013
124.2024, 374.6897
124.6846, 401.4859
125.1667, 429.0862
125.6488, 457.8277
126.1309, 486.2869
126.6130, 512.5287
127.0951, 536.1917
127.5773, 560.6973
128.0594, 587.2119
128.5415, 615.7900
129.0236, 650.3521
129.5057, 697.0887
129.9878, 746.6030
130.4700, 792.4329
130.9521, 833.6506
131.4342, 871.6059
131.9163, 907.9658
132.3984, 943.2992
132.8805, 973.7114
133.3627, 999.5075
133.8448, 1019.148
134.3269, 1029.251
134.8090, 1029.090
135.2911, 1024.867
135.7732, 1024.424
136.2554, 1027.236
136.7375, 1035.803
137.2196, 1050.858
137.7017, 1070.865
138.1838, 1093.751
138.6659, 1118.970
139.1481, 1150.256
139.6302, 1194.663
140.1123, 1258.551
140.5944, 1325.418
141.0765, 1389.300
141.5586, 1456.918
142.0408, 1532.393
142.5229, 1617.247
143.0050, 1712.329
143.4871, 1821.233
143.9692, 1964.218
144.4513, 2089.767
144.9335, 2193.161
145.4156, 2280.030
145.8977, 2355.824
146.3798, 2422.834
146.8619, 2478.431
147.3440, 2515.516
147.8261, 2531.551
148.3083, 2528.546
148.7904, 2498.402
149.2725, 2452.552
149.7546, 2402.195
150.2367, 2352.195
150.7188, 2301.954
151.2010, 2249.594
151.6831, 2186.125
152.1652, 2131.448
152.6473, 2092.307
153.1294, 2061.755
153.6115, 2029.875
154.0937, 1991.892
154.5758, 1952.010
155.0579, 1923.483
155.5400, 1907.206
156.0221, 1900.145
156.5042, 1904.940
156.9864, 1918.341
157.4685, 1935.503
157.9506, 1954.324
158.4327, 1975.276
158.9148, 2000.315
159.3969, 2024.306
159.8791, 2057.975
160.3612, 2109.679
160.8433, 2172.497
161.3254, 2231.841
161.8075, 2279.586
162.2896, 2322.939
162.7718, 2383.801
163.2539, 2467.927
163.7360, 2554.812
164.2181, 2635.668
164.7002, 2714.246
165.1823, 2799.127
165.6645, 2894.301
166.1466, 2997.573
166.6287, 3102.082
167.1108, 3206.765
167.5929, 3314.806
168.0750, 3430.246
168.5572, 3550.797
169.0393, 3668.264
169.5214, 3774.553
170.0035, 3882.442
170.4856, 4016.371
170.9677, 4182.833
171.4499, 4355.027
171.9320, 4517.639
172.4141, 4673.964
172.8962, 4836.707
173.3783, 5011.794
173.8604, 5193.448
174.3426, 5373.054
174.8247, 5549.644
175.3068, 5727.297
175.7889, 5902.951
176.2710, 6079.249
176.7531, 6274.526
177.2353, 6503.438
177.7174, 6743.310
178.1995, 6963.321
178.6816, 7160.954
179.1637, 7349.573
179.6458, 7546.240
180.1280, 7744.984
180.6101, 7914.821
181.0922, 8045.342
181.5743, 8142.666
182.0564, 8221.975
182.5385, 8283.401
183.0207, 8325.947
183.5028, 8341.639
183.9849, 8334.378
184.4670, 8330.252
184.9491, 8344.468
185.4312, 8352.146
185.9134, 8330.988
186.3955, 8280.691
186.8776, 8217.617
187.3597, 8157.260
187.8418, 8096.333
188.3239, 8011.663
188.8061, 7902.412
189.2882, 7759.646
189.7703, 7574.791
190.2524, 7350.854
190.7345, 7118.776
191.2166, 6898.850
191.6988, 6688.799
192.1809, 6479.195
192.6630, 6264.339
193.1451, 6054.337
193.6272, 5848.407
194.1093, 5648.661
194.5915, 5471.338
195.0736, 5329.969
195.5557, 5221.406
196.0378, 5127.695
196.5199, 5049.315
197.0020, 4984.822
197.4842, 4930.517
197.9663, 4886.757
198.4484, 4855.282
198.9305, 4837.293
199.4126, 4832.485
199.8947, 4840.700
200.3769, 4871.231
200.8590, 4902.005
201.3411, 4926.249
201.8232, 4941.921
202.3053, 4943.657
202.7874, 4924.331
203.2696, 4887.840
203.7517, 4852.230
204.2338, 4825.539
204.7159, 4785.391
205.1980, 4722.378
205.6801, 4640.267
206.1623, 4544.737
206.6444, 4435.238
207.1265, 4315.422
207.6086, 4197.510
208.0907, 4086.248
208.5728, 3967.327
209.0549, 3824.910
209.5371, 3673.876
210.0192, 3535.519
210.5013, 3420.277
210.9834, 3322.908
211.4655, 3230.864
211.9476, 3142.585
212.4298, 3064.891
212.9119, 3000.471
213.3940, 2946.762
213.8761, 2902.267
214.3582, 2865.955
214.8403, 2839.319
215.3225, 2828.104
215.8046, 2837.992
216.2867, 2846.594
216.7688, 2845.860
217.2509, 2840.830
217.7330, 2835.285
218.2152, 2830.135
218.6973, 2825.930
219.1794, 2824.435
219.6615, 2827.073
220.1436, 2826.579
220.6257, 2821.958
221.1079, 2812.761
221.5900, 2796.234
222.0721, 2771.555
222.5542, 2745.736
223.0363, 2725.872
223.5184, 2711.760
224.0006, 2704.600
224.4827, 2706.462
224.9648, 2714.783
225.4469, 2730.065
225.9290, 2751.865
226.4111, 2775.501
226.8933, 2795.461
227.3754, 2811.543
227.8575, 2831.196
228.3396, 2855.349
228.8217, 2883.965
229.3038, 2920.342
229.7860, 2962.769
230.2681, 3001.942
230.7502, 3027.723
231.2323, 3041.667
231.7144, 3062.563
232.1965, 3100.966
232.6787, 3134.402
233.1608, 3148.385
233.6429, 3147.051
234.1250, 3143.680
234.6071, 3148.169
235.0892, 3157.640
235.5714, 3159.409
236.0535, 3152.197
236.5356, 3138.823
237.0177, 3118.941
237.4998, 3094.897
237.9819, 3071.068
238.4641, 3051.314
238.9462, 3032.275
239.4283, 3005.826
239.9104, 2970.258
240.3925, 2932.029
240.8746, 2894.310
241.3568, 2856.069
241.8389, 2815.254
242.3210, 2770.296
242.8031, 2724.228
243.2852, 2681.249
243.7673, 2641.881
244.2495, 2602.931
244.7316, 2561.513
245.2137, 2520.617
245.6958, 2483.703
246.1779, 2452.364
246.6600, 2422.164
247.1422, 2388.566
247.6243, 2351.493
248.1064, 2313.122
248.5885, 2266.693
249.0706, 2225.545
249.5527, 2204.666
250.0349, 2206.640
250.5170, 2210.888
250.9991, 2202.801
251.4812, 2184.324
251.9633, 2165.748
252.4454, 2147.031
252.9276, 2131.814
253.4097, 2123.128
253.8918, 2120.570
254.3739, 2121.806
254.8560, 2128.414
255.3382, 2137.803
255.8203, 2143.517
256.3024, 2143.961
256.7845, 2142.971
257.2666, 2144.219
257.7487, 2146.907
258.2308, 2148.328
258.7130, 2144.689
259.1951, 2140.696
259.6772, 2144.168
260.1593, 2156.308
260.6414, 2167.620
261.1235, 2168.688
261.6057, 2164.148
262.0878, 2167.344
262.5699, 2184.041
263.0520, 2205.485
263.5341, 2226.362
264.0162, 2246.427
264.4984, 2264.173
264.9805, 2278.550
265.4626, 2289.917
265.9447, 2299.022
266.4268, 2300.473
266.9089, 2308.620
267.3911, 2334.063
267.8732, 2372.010
268.3553, 2410.922
268.8374, 2448.298
269.3195, 2481.431
269.8016, 2501.511
270.2838, 2502.791
270.7659, 2514.309
271.2480, 2550.440
271.7301, 2598.781
272.2122, 2642.826
272.6943, 2678.933
273.1765, 2711.262
273.6586, 2744.140
274.1407, 2777.391
274.6228, 2813.800
275.1049, 2853.500
275.5870, 2896.769
276.0692, 2947.333
276.5513, 3003.985
277.0334, 3056.882
277.5155, 3097.347
277.9976, 3124.806
278.4797, 3153.845
278.9619, 3188.707
279.4440, 3220.829
279.9261, 3249.661
280.4082, 3272.939
280.8903, 3284.426
281.3724, 3279.699
281.8546, 3261.682
282.3367, 3244.800
282.8188, 3228.800
283.3009, 3214.253
283.7830, 3195.166
284.2651, 3179.676
284.7473, 3178.733
285.2294, 3196.527
285.7115, 3227.841
286.1936, 3263.007
286.6757, 3307.426
287.1578, 3346.639
287.6400, 3367.920
288.1221, 3392.674
288.6042, 3438.348
289.0863, 3506.938
289.5684, 3586.913
290.0505, 3664.223
290.5327, 3735.094
291.0148, 3821.261
291.4969, 3937.495
291.9790, 4054.470
292.4611, 4161.096
292.9432, 4257.989
293.4254, 4351.056
293.9075, 4443.677
294.3896, 4536.605
294.8717, 4632.296
295.3538, 4745.346
295.8359, 4841.877
296.3181, 4914.496
296.8002, 4966.948
297.2823, 5003.569
297.7644, 5026.825
298.2465, 5034.231
298.7286, 5021.097
299.2108, 4987.358
299.6929, 4931.920
300.1750, 4844.091
300.6571, 4742.504
301.1392, 4638.841
301.6213, 4534.773
302.1035, 4429.333
302.5856, 4319.880
303.0677, 4206.208
303.5498, 4094.477
304.0319, 3979.739
304.5140, 3874.958
304.9962, 3787.814
305.4783, 3717.278
305.9604, 3657.978
306.4425, 3608.654
306.9246, 3568.380
307.4067, 3535.273
307.8889, 3510.874
308.3710, 3490.189
308.8531, 3467.623
309.3352, 3447.050
309.8173, 3436.063
310.2994, 3438.046
310.7816, 3448.848
311.2637, 3464.655
311.7458, 3485.420
312.2279, 3510.888
312.7100, 3539.621
313.1921, 3574.813
313.6743, 3619.863
314.1564, 3674.757
314.6385, 3738.729
315.1206, 3810.771
315.6027, 3891.879
316.0848, 3985.694
316.5670, 4094.173
317.0491, 4211.350
317.5312, 4325.765
318.0133, 4435.562
318.4954, 4568.823
318.9775, 4739.529
319.4597, 4927.862
319.9418, 5114.829
320.4239, 5299.104
320.9060, 5495.539
321.3881, 5713.558
321.8702, 5952.715
322.3524, 6207.390
322.8345, 6476.125
323.3166, 6757.252
323.7987, 7051.403
324.2808, 7357.373
324.7629, 7673.152
325.2451, 7997.572
325.7272, 8332.564
326.2093, 8685.919
326.6914, 9061.355
327.1735, 9451.299
327.6556, 9847.884
328.1378, 10262.15
328.6199, 10707.25
329.1020, 11184.40
329.5841, 11682.75
330.0662, 12194.53
330.5483, 12722.61
331.0305, 13252.21
331.5126, 13783.25
331.9947, 14321.48
332.4768, 14900.50
332.9589, 15488.83
333.4410, 16032.28
333.9232, 16495.27
334.4053, 16883.27
334.8874, 17218.31
335.3695, 17524.67
335.8516, 17720.32
336.3337, 17794.82
336.8159, 17760.02
337.2980, 17614.94
337.7801, 17357.50
338.2622, 17019.40
338.7443, 16632.22
339.2264, 16194.11
339.7086, 15709.01
340.1907, 15142.25
340.6728, 14567.52
341.1549, 14039.42
341.6370, 13552.89
342.1191, 13089.21
342.6013, 12622.01
343.0834, 12170.75
343.5655, 11781.70
344.0476, 11459.81
344.5297, 11181.92
345.0118, 10939.02
345.4940, 10730.48
345.9761, 10553.93
346.4582, 10424.31
346.9403, 10308.95
347.4224, 10168.94
347.9045, 10020.76
348.3867, 9932.859
348.8688, 9947.417
349.3509, 10008.30
349.8330, 10001.62
350.3151, 9909.661
350.7972, 9817.761
351.2794, 9750.876
351.7615, 9685.718
352.2436, 9599.806
352.7257, 9489.217
353.2078, 9358.415
353.6899, 9211.350
354.1721, 9048.905
354.6542, 8865.066
355.1363, 8653.129
355.6184, 8431.224
356.1005, 8203.826
356.5826, 7971.891
357.0648, 7739.583
357.5469, 7508.533
358.0290, 7274.329
358.5111, 7024.085
358.9932, 6730.624
359.4753, 6467.172
359.9575, 6248.520
360.4396, 6050.989
360.9217, 5859.663
361.4038, 5671.558
361.8859, 5491.167
362.3680, 5322.488
362.8502, 5165.796
363.3322, 5020.934
363.8144, 4891.692
364.2965, 4771.242
364.7786, 4652.496
365.2607, 4540.483
365.7428, 4445.503
366.2249, 4378.191
366.7071, 4323.707
367.1892, 4257.513
367.6713, 4177.630
368.1534, 4102.251
368.6355, 4038.010
369.1176, 3981.132
369.5998, 3927.816
370.0819, 3879.314
370.5640, 3826.304
371.0461, 3759.418
371.5282, 3684.891
372.0103, 3615.747
372.4925, 3554.108
372.9746, 3498.250
373.4567, 3448.565
373.9388, 3404.776
374.4209, 3356.132
374.9030, 3291.865
375.3852, 3232.006
375.8673, 3190.031
376.3494, 3162.626
376.8315, 3140.835
377.3136, 3121.144
377.7957, 3101.128
378.2779, 3074.075
378.7600, 3032.198
379.2421, 2993.431
379.7242, 2955.769
380.2063, 2922.863
380.6884, 2898.838
381.1706, 2883.508
381.6527, 2873.622
382.1348, 2866.662
382.6169, 2862.952
383.0990, 2856.064
383.5811, 2837.786
384.0633, 2825.444
384.5454, 2828.623
385.0275, 2839.234
385.5096, 2844.104
385.9917, 2836.507
386.4738, 2825.572
386.9560, 2826.015
387.4381, 2838.151
387.9202, 2860.672
388.4023, 2905.412
388.8844, 2950.685
389.3665, 2979.436
389.8487, 2992.077
390.3308, 3002.430
390.8129, 3013.485
391.2950, 3028.912
391.7771, 3058.904
392.2592, 3105.821
392.7414, 3156.255
393.2235, 3201.775
393.7056, 3244.147
394.1877, 3288.598
394.6698, 3335.147
395.1519, 3384.663
395.6341, 3435.711
396.1162, 3490.313
396.5983, 3554.194
397.0804, 3629.532
397.5625, 3710.107
398.0446, 3787.253
398.5268, 3861.263
399.0089, 3929.446
399.4910, 3989.002
399.9731, 4045.042
400.4552, 4100.913
400.9373, 4155.592
401.4195, 4206.597
401.9016, 4252.555
402.3837, 4292.843
402.8658, 4326.116
403.3479, 4352.172
403.8300, 4370.113
404.3122, 4374.526
404.7943, 4375.237
405.2764, 4377.834
405.7585, 4384.461
406.2406, 4398.686
406.7227, 4424.858
407.2049, 4462.740
407.6870, 4505.854
408.1691, 4552.839
408.6512, 4607.897
409.1333, 4677.828
409.6154, 4755.869
410.0976, 4829.633
410.5797, 4889.949
411.0618, 4952.312
411.5439, 5033.487
412.0260, 5131.755
412.5081, 5235.030
412.9903, 5341.018
413.4724, 5447.986
413.9545, 5553.599
414.4366, 5659.130
414.9187, 5758.744
415.4008, 5850.571
415.8830, 5937.571
416.3651, 6025.953
416.8472, 6114.067
417.3293, 6191.594
417.8114, 6252.405
418.2935, 6296.391
418.7757, 6321.327
419.2578, 6309.795
419.7399, 6300.311
420.2220, 6309.087
420.7041, 6314.266
421.1862, 6291.758
421.6684, 6238.333
422.1505, 6172.849
422.6326, 6121.622
423.1147, 6088.122
423.5968, 6015.083
424.0789, 5879.850
424.5611, 5730.691
425.0432, 5580.562
425.5253, 5431.359
426.0074, 5286.763
426.4895, 5149.643
426.9716, 5012.576
427.4538, 4859.938
427.9359, 4692.563
428.4180, 4544.521
428.9001, 4428.422
429.3822, 4327.915
429.8643, 4222.557
430.3465, 4113.230
430.8286, 4015.522
431.3107, 3931.965
431.7928, 3862.500
432.2749, 3806.381
432.7570, 3763.847
433.2392, 3738.454
433.7213, 3734.221
434.2034, 3744.857
434.6855, 3750.512
435.1676, 3739.636
435.6497, 3740.231
436.1319, 3759.934
436.6140, 3787.578
437.0961, 3812.057
437.5782, 3833.399
438.0603, 3861.482
438.5424, 3906.208
439.0246, 3966.553
439.5067, 4023.828
439.9888, 4070.790
440.4709, 4125.418
440.9530, 4194.008
441.4352, 4270.924
441.9173, 4349.735
442.3994, 4428.313
442.8815, 4512.713
443.3636, 4611.591
443.8457, 4722.988
444.3279, 4832.198
444.8100, 4935.819
445.2921, 5041.882
445.7742, 5166.019
446.2563, 5299.490
446.7384, 5415.361
447.2206, 5508.180
447.7027, 5581.651
448.1848, 5647.658
448.6669, 5696.182
449.1490, 5696.004
449.6311, 5633.661
450.1133, 5534.545
450.5954, 5437.996
451.0775, 5355.622
451.5596, 5238.747
452.0417, 5063.307
452.5238, 4878.125
453.0060, 4704.615
453.4881, 4543.463
453.9702, 4390.058
454.4523, 4242.347
454.9344, 4099.058
455.4165, 3955.316
455.8987, 3801.463
456.3808, 3674.020
456.8629, 3592.911
457.3450, 3530.817
457.8271, 3473.188
458.3092, 3420.022
458.7914, 3380.036
459.2735, 3361.994
459.7556, 3359.254
460.2377, 3358.904
460.7198, 3360.641
461.2019, 3369.457
461.6841, 3392.115
462.1662, 3420.188
462.6483, 3432.664
463.1304, 3416.862
463.6125, 3421.448
464.0946, 3475.401
464.5768, 3547.561
465.0589, 3604.773
465.5410, 3643.913
466.0231, 3680.990
466.5052, 3729.560
466.9873, 3787.480
467.4695, 3833.872
467.9516, 3861.373
468.4337, 3886.252
468.9158, 3910.685
469.3979, 3933.181
469.8800, 3956.644
470.3622, 3979.583
470.8443, 3989.168
471.3264, 3965.333
471.8085, 3912.342
472.2906, 3875.484
472.7727, 3864.167
473.2549, 3848.701
473.7370, 3806.253
474.2191, 3752.463
474.7012, 3709.638
475.1833, 3687.207
475.6654, 3660.395
476.1476, 3609.929
476.6297, 3544.791
477.1118, 3481.473
477.5939, 3422.996
478.0760, 3370.841
478.5581, 3327.896
479.0403, 3294.344
479.5224, 3253.022
480.0045, 3203.226
480.4866, 3148.185
480.9687, 3083.182
481.4508, 3015.482
481.9330, 2953.287
482.4151, 2899.024
482.8972, 2852.567
483.3793, 2817.130
483.8614, 2795.444
484.3435, 2755.834
484.8257, 2683.596
485.3078, 2613.329
485.7899, 2557.868
486.2720, 2513.158
486.7541, 2473.584
487.2362, 2437.778
487.7183, 2405.840
488.2004, 2380.611
488.6826, 2359.683
489.1647, 2332.267
489.6468, 2294.627
490.1289, 2257.923
490.6110, 2234.576
491.0931, 2224.255
491.5753, 2204.737
492.0574, 2167.199
492.5395, 2130.240
493.0216, 2100.548
493.5037, 2076.556
493.9858, 2056.454
494.4680, 2039.568
494.9501, 2024.822
495.4322, 2010.555
495.9143, 1996.232
496.3964, 1986.881
496.8785, 1992.552
497.3607, 1991.344
497.8428, 1970.401
498.3249, 1940.376
498.8070, 1916.113
499.2891, 1902.573
499.7712, 1895.559
500.2534, 1893.297
500.7355, 1894.521
501.2176, 1892.363
501.6997, 1884.797
502.1818, 1876.870
502.6639, 1873.683
503.1461, 1874.273
503.6282, 1870.927
504.1103, 1860.772
504.5924, 1849.642
505.0745, 1837.077
505.5566, 1826.044
506.0388, 1823.142
506.5209, 1829.233
507.0030, 1835.531
507.4851, 1831.048
507.9672, 1814.676
508.4493, 1803.089
508.9315, 1800.458
509.4136, 1797.555
509.8957, 1790.935
510.3778, 1783.182
510.8599, 1777.608
511.3420, 1775.150
511.8242, 1773.665
512.3063, 1771.531
512.7884, 1768.766
513.2705, 1764.773
513.7526, 1758.860
514.2347, 1755.242
514.7169, 1759.874
515.1990, 1768.878
515.6811, 1766.574
516.1632, 1739.376
516.6453, 1720.831
517.1274, 1727.818
517.6096, 1745.481
518.0917, 1758.537
518.5738, 1763.663
519.0559, 1762.564
519.5380, 1755.614
520.0201, 1743.769
520.5023, 1737.559
520.9844, 1740.282
521.4665, 1743.394
521.9486, 1746.179
522.4307, 1747.887
522.9128, 1747.831
523.3950, 1745.935
523.8771, 1742.687
524.3592, 1737.746
524.8413, 1731.854
525.3234, 1727.464
525.8055, 1724.789
526.2877, 1718.277
526.7698, 1701.964
527.2519, 1682.810
527.7340, 1679.945
528.2161, 1701.957
528.6982, 1714.790
529.1804, 1702.474
529.6625, 1688.218
530.1446, 1694.425
530.6267, 1715.940
531.1088, 1730.190
531.5909, 1722.370
532.0731, 1702.691
532.5552, 1699.844
533.0373, 1722.018
533.5194, 1735.537
534.0015, 1730.246
534.4836, 1719.778
534.9658, 1709.589
535.4479, 1700.779
535.9300, 1695.655
536.4121, 1697.743
536.8942, 1701.351
537.3763, 1699.313
537.8585, 1693.277
538.3406, 1690.933
538.8227, 1695.403
539.3048, 1700.263
539.7869, 1696.585
540.2690, 1681.879
540.7512, 1674.100
541.2333, 1679.365
541.7154, 1683.957
542.1975, 1679.212
542.6796, 1672.130
543.1617, 1673.547
543.6439, 1686.655
544.1260, 1703.892
544.6081, 1718.154
545.0902, 1729.281
545.5723, 1732.232
546.0544, 1723.137
546.5366, 1714.090
547.0187, 1712.332
547.5008, 1714.551
547.9829, 1715.444
548.4650, 1713.693
548.9471, 1713.040
549.4293, 1716.666
549.9114, 1721.601
550.3935, 1724.119
550.8756, 1723.897
551.3577, 1722.450
551.8398, 1720.848
552.3220, 1718.828
552.8041, 1715.321
553.2862, 1710.689
553.7683, 1703.759
554.2504, 1687.281
554.7325, 1674.800
555.2147, 1678.157
555.6968, 1694.115
556.1789, 1709.110
556.6610, 1716.236
557.1431, 1717.572
557.6252, 1714.159
558.1074, 1706.570
558.5895, 1702.775
559.0716, 1706.380
559.5537, 1711.328
560.0358, 1710.940
560.5179, 1704.672
561.0001, 1696.448
561.4822, 1679.285
561.9643, 1667.829
562.4464, 1672.063
562.9285, 1684.446
563.4106, 1694.573
563.8928, 1699.181
564.3749, 1700.841
564.8570, 1701.348
565.3391, 1700.841
565.8212, 1706.106
566.3033, 1722.213
566.7855, 1733.525
567.2676, 1729.282
567.7497, 1718.426
568.2318, 1711.252
568.7139, 1709.599
569.1960, 1705.863
569.6782, 1689.809
570.1603, 1674.013
570.6424, 1676.102
571.1245, 1694.071
571.6066, 1712.319
572.0887, 1722.620
572.5709, 1726.148
573.0530, 1725.633
573.5351, 1721.688
574.0172, 1712.152
574.4993, 1685.286
574.9814, 1664.641
575.4636, 1665.094
575.9457, 1679.372
576.4278, 1692.379
576.9099, 1698.168
577.3920, 1700.315
577.8741, 1701.652
578.3563, 1702.515
578.8384, 1704.865
579.3205, 1709.444
579.8026, 1712.505
580.2847, 1710.279
580.7668, 1703.709
581.2490, 1700.478
581.7311, 1702.853
582.2132, 1705.026
582.6953, 1705.224
583.1774, 1705.425
583.6595, 1707.646
584.1417, 1711.748
584.6238, 1716.061
585.1059, 1719.370
585.5880, 1722.059
586.0701, 1725.527
586.5522, 1730.092
587.0344, 1732.847
587.5165, 1732.883
587.9986, 1731.124
588.4807, 1726.904
588.9628, 1720.892
589.4449, 1718.660
589.9271, 1723.943
590.4092, 1730.211
590.8913, 1733.960
591.3734, 1736.405
591.8555, 1739.697
592.3376, 1744.338
592.8198, 1749.336
593.3019, 1754.000
593.7840, 1758.187
594.2661, 1758.975
594.7482, 1752.983
595.2303, 1750.401
595.7125, 1759.493
596.1946, 1769.991
596.6767, 1771.839
597.1588, 1764.650
597.6409, 1758.677
598.1230, 1761.354
598.6052, 1765.195
599.0873, 1760.247
599.5694, 1749.399
600.0515, 1743.820
600.5336, 1747.962
601.0157, 1756.186
601.4979, 1760.700
601.9800, 1761.264
602.4621, 1759.302
602.9442, 1746.676
603.4263, 1741.411
603.9084, 1756.427
604.3906, 1777.116
604.8727, 1785.315
605.3548, 1777.295
605.8369, 1765.685
606.3190, 1755.558
606.8011, 1749.337
607.2833, 1754.721
607.7654, 1770.777
608.2475, 1782.031
608.7296, 1780.433
609.2117, 1772.106
609.6938, 1768.450
610.1760, 1770.524
610.6581, 1774.534
611.1402, 1785.658
611.6223, 1792.995
612.1044, 1786.961
612.5865, 1775.818
613.0687, 1774.544
613.5508, 1788.041
614.0329, 1800.825
614.5150, 1791.407
614.9971, 1768.583
615.4792, 1766.180
615.9614, 1788.113
616.4435, 1804.241
616.9256, 1795.678
617.4077, 1773.814
617.8898, 1765.589
618.3719, 1778.439
618.8541, 1787.336
619.3362, 1790.311
619.8183, 1790.161
620.3004, 1783.527
620.7825, 1776.037
621.2646, 1780.605
621.7468, 1802.865
622.2289, 1825.003
622.7110, 1819.502
623.1931, 1791.664
623.6752, 1778.021
624.1573, 1782.684
624.6395, 1794.994
625.1216, 1813.904
625.6037, 1833.809
626.0858, 1838.865
626.5679, 1823.620
627.0500, 1810.194
627.5322, 1802.385
628.0143, 1796.707
628.4964, 1788.147
628.9785, 1780.160
629.4606, 1782.704
629.9427, 1800.549
630.4249, 1821.551
630.9070, 1825.043
631.3891, 1812.744
631.8712, 1813.150
632.3533, 1832.617
632.8354, 1850.133
633.3176, 1849.131
633.7997, 1840.082
634.2818, 1850.939
634.7639, 1895.968
635.2460, 1921.414
635.7281, 1899.918
636.2103, 1869.917
636.6924, 1858.461
637.1745, 1861.870
637.6566, 1865.363
638.1387, 1862.254
638.6208, 1857.588
639.1030, 1860.238
639.5851, 1869.852
640.0672, 1873.327
640.5493, 1867.958
641.0314, 1862.516
641.5135, 1862.909
641.9957, 1865.839
642.4778, 1863.191
642.9599, 1851.244
643.4420, 1845.468
643.9241, 1855.163
644.4063, 1866.644
644.8884, 1871.774
645.3705, 1870.406
645.8526, 1862.022
646.3347, 1846.492
646.8168, 1832.096
647.2990, 1830.674
647.7811, 1841.732
648.2632, 1857.331
648.7453, 1879.767
649.2274, 1897.923
649.7095, 1906.066
650.1917, 1906.539
650.6738, 1901.868
651.1559, 1888.193
651.6380, 1885.502
652.1201, 1911.595
652.6022, 1935.814
653.0844, 1934.417
653.5665, 1917.503
654.0486, 1905.334
654.5307, 1905.194
655.0128, 1910.663
655.4949, 1913.283
655.9771, 1914.093
656.4592, 1924.148
656.9413, 1947.036
657.4234, 1961.347
657.9055, 1954.012
658.3876, 1936.645
658.8698, 1927.959
659.3519, 1928.709
659.8340, 1930.949
660.3161, 1936.580
660.7982, 1940.724
661.2803, 1937.804
661.7625, 1933.134
662.2446, 1935.549
662.7267, 1946.831
663.2088, 1959.625
663.6909, 1968.535
664.1730, 1973.050
664.6552, 1968.508
665.1373, 1953.811
665.6194, 1946.775
666.1015, 1956.053
666.5836, 1970.993
667.0657, 1978.412
667.5479, 1977.281
668.0300, 1976.236
668.5121, 1974.922
668.9942, 1974.123
669.4763, 1971.951
669.9584, 1971.690
670.4406, 1979.592
670.9227, 1994.572
671.4048, 2005.751
671.8868, 2003.324
672.3690, 1994.177
672.8511, 1989.846
673.3332, 1990.385
673.8153, 1998.063
674.2974, 2015.308
674.7795, 2031.024
675.2617, 2033.632
675.7438, 2023.870
676.2259, 2015.963
676.7080, 2007.656
677.1901, 2004.270
677.6722, 2008.777
678.1544, 2016.515
678.6365, 2025.616
679.1186, 2034.783
679.6007, 2041.193
680.0828, 2042.029
680.5649, 2042.563
681.0471, 2051.418
681.5292, 2064.403
682.0113, 2067.702
682.4934, 2059.397
682.9755, 2052.946
683.4576, 2058.945
683.9398, 2072.645
684.4219, 2076.572
684.9040, 2058.923
685.3861, 2056.166
685.8682, 2086.912
686.3503, 2115.334
686.8325, 2122.506
687.3146, 2116.786
687.7967, 2113.899
688.2788, 2117.727
688.7609, 2124.906
689.2430, 2135.867
689.7252, 2147.512
690.2073, 2156.673
690.6894, 2162.693
691.1715, 2163.261
691.6536, 2157.043
692.1357, 2149.461
692.6179, 2149.503
693.1000, 2157.639
693.5821, 2170.328
694.0642, 2192.383
694.5463, 2209.789
695.0284, 2209.472
695.5106, 2205.749
695.9927, 2219.328
696.4748, 2252.790
696.9569, 2275.225
697.4390, 2263.358
697.9211, 2252.812
698.4033, 2274.071
698.8854, 2309.759
699.3675, 2328.195
699.8496, 2323.074
700.3317, 2316.284
700.8138, 2331.093
701.2960, 2358.938
701.7781, 2365.244
702.2602, 2347.390
702.7423, 2341.408
703.2244, 2360.161
703.7065, 2385.970
704.1887, 2402.039
704.6708, 2408.946
705.1529, 2418.490
705.6350, 2433.785
706.1171, 2447.307
706.5992, 2459.102
707.0814, 2467.587
707.5635, 2467.960
708.0456, 2463.737
708.5277, 2465.150
709.0098, 2477.815
709.4919, 2495.747
709.9741, 2515.416
710.4562, 2534.440
710.9383, 2542.271
711.4204, 2538.250
711.9025, 2541.042
712.3846, 2564.586
712.8668, 2595.649
713.3489, 2600.696
713.8310, 2565.867
714.3131, 2544.489
714.7952, 2539.415
715.2773, 2545.160
715.7595, 2569.607
716.2416, 2598.927
716.7237, 2614.726
717.2058, 2613.888
717.6879, 2607.995
718.1700, 2596.594
718.6522, 2587.429
719.1343, 2590.263
719.6164, 2600.495
720.0985, 2606.527
720.5806, 2605.381
721.0627, 2605.179
721.5449, 2616.188
722.0270, 2634.635
722.5091, 2638.490
722.9912, 2623.835
723.4733, 2615.886
723.9554, 2622.476
724.4376, 2634.926
724.9197, 2647.957
725.4018, 2660.654
725.8839, 2666.020
726.3660, 2664.369
726.8481, 2654.841
727.3303, 2625.838
727.8124, 2598.196
728.2945, 2588.307
728.7766, 2594.589
729.2587, 2611.243
729.7408, 2638.592
730.2230, 2659.540
730.7051, 2647.617
731.1872, 2615.901
731.6693, 2598.188
732.1514, 2596.946
732.6335, 2603.513
733.1157, 2614.554
733.5978, 2626.728
734.0799, 2633.929
734.5620, 2635.349
735.0441, 2636.016
735.5262, 2635.360
736.0084, 2634.773
736.4905, 2636.094
736.9726, 2636.780
737.4547, 2632.442
737.9368, 2623.302
738.4189, 2619.019
738.9011, 2627.615
739.3832, 2636.734
739.8653, 2637.013
740.3474, 2633.628
740.8295, 2634.989
741.3116, 2641.622
741.7938, 2647.688
742.2759, 2649.107
742.7580, 2646.790
743.2401, 2640.629
743.7222, 2631.027
744.2043, 2627.996
744.6865, 2633.844
745.1686, 2642.385
745.6507, 2649.547
746.1328, 2656.514
746.6149, 2667.119
747.0970, 2687.712
747.5792, 2698.751
748.0613, 2691.476
748.5434, 2684.887
749.0255, 2689.997
749.5076, 2699.218
749.9897, 2700.129
750.4719, 2690.396
750.9540, 2683.062
751.4361, 2683.941
751.9182, 2692.221
752.4003, 2713.399
752.8824, 2740.301
753.3646, 2753.972
753.8467, 2750.720
754.3288, 2746.377
754.8109, 2756.430
755.2930, 2775.854
755.7751, 2782.778
756.2573, 2773.963
756.7394, 2777.519
757.2215, 2802.151
757.7036, 2832.277
758.1857, 2860.111
758.6678, 2884.019
759.1500, 2897.062
759.6321, 2889.126
760.1142, 2890.553
760.5963, 2911.184
761.0784, 2934.240
761.5605, 2949.819
762.0427, 2961.625
762.5248, 2974.869
763.0069, 2991.042
763.4890, 3015.730
763.9711, 3057.439
764.4532, 3107.042
764.9354, 3156.152
765.4175, 3202.561
765.8996, 3237.806
766.3817, 3260.076
766.8638, 3283.411
767.3459, 3321.723
767.8281, 3372.348
768.3102, 3421.284
768.7923, 3464.852
769.2744, 3525.404
769.7565, 3614.025
770.2386, 3706.314
770.7208, 3778.469
771.2029, 3840.569
771.6850, 3931.752
772.1671, 4068.876
772.6492, 4199.240
773.1313, 4303.606
773.6135, 4412.616
774.0956, 4539.508
774.5777, 4685.194
775.0598, 4851.303
775.5419, 5038.044
776.0240, 5231.005
776.5062, 5410.790
776.9883, 5599.132
777.4704, 5832.020
777.9525, 6096.732
778.4346, 6354.617
778.9167, 6594.822
779.3989, 6834.485
779.8810, 7083.664
780.3631, 7346.411
780.8452, 7647.106
781.3273, 7992.117
781.8094, 8320.905
782.2916, 8620.076
782.7737, 8914.877
783.2558, 9229.291
783.7379, 9548.575
784.2200, 9834.963
784.7021, 10090.61
785.1843, 10308.48
785.6664, 10473.18
786.1485, 10616.62
786.6306, 10778.36
787.1127, 10914.15
787.5948, 10968.85
788.0770, 10933.86
788.5591, 10839.90
789.0412, 10688.49
789.5233, 10499.46
790.0054, 10288.16
790.4875, 10053.53
790.9697, 9784.778
791.4518, 9485.444
791.9339, 9178.368
792.4160, 8879.860
792.8981, 8581.503
793.3802, 8252.391
793.8624, 7895.005
794.3445, 7583.934
794.8266, 7327.778
795.3087, 7112.819
795.7908, 6939.179
796.2729, 6792.250
796.7551, 6644.901
797.2372, 6488.851
797.7193, 6371.893
798.2014, 6313.457
798.6835, 6271.194
799.1656, 6228.792
799.6478, 6205.021
800.1299, 6215.580
800.6120, 6260.506
801.0941, 6333.239
801.5762, 6435.069
802.0583, 6558.723
802.5405, 6690.595
803.0226, 6849.507
803.5047, 7053.968
803.9868, 7305.704
804.4689, 7601.117
804.9510, 7938.513
805.4332, 8322.602
805.9153, 8736.982
806.3974, 9206.679
806.8795, 9796.978
807.3616, 10509.20
807.8438, 11323.06
808.3259, 12226.61
808.8080, 13277.97
809.2901, 14538.42
809.7722, 16008.08
810.2543, 17658.79
810.7365, 19499.04
811.2186, 21505.35
811.7007, 23670.94
812.1828, 26012.57
812.6649, 28533.78
813.1470, 31246.08
813.6292, 34159.73
814.1113, 37259.40
814.5934, 40586.99
815.0755, 44068.32
815.5576, 47860.00
816.0397, 52064.05
816.5219, 56633.14
817.0040, 61568.43
817.4861, 66837.44
817.9682, 72233.31
818.4503, 77846.57
818.9324, 83347.81
819.4146, 88793.43
819.8967, 93808.52
820.3788, 97937.41
820.8609, 100960.5
821.3430, 102362.4
821.8251, 101840.0
822.3073, 99470.46
822.7894, 95081.55
823.2715, 88836.88
823.7536, 81856.40
824.2357, 74102.72
824.7178, 66457.62
825.2000, 59176.87
825.6821, 52430.65
826.1642, 46388.19
826.6463, 41061.61
827.1284, 36423.63
827.6105, 32546.56
828.0927, 29229.16
828.5748, 26522.17
829.0569, 24284.04
829.5390, 22471.43
830.0211, 21030.09
830.5032, 19841.61
830.9854, 18934.52
831.4675, 18165.84
831.9496, 17530.08
832.4317, 16988.62
832.9138, 16523.96
833.3959, 16129.43
833.8781, 15806.49
834.3602, 15548.51
834.8423, 15322.65
835.3244, 15112.01
835.8065, 14917.21
836.2886, 14734.18
836.7708, 14568.68
837.2529, 14437.79
837.7350, 14338.94
838.2171, 14252.83
838.6992, 14170.91
839.1813, 14073.73
839.6635, 13913.88
840.1456, 13703.98
840.6277, 13546.82
841.1098, 13449.94
841.5919, 13328.19
842.0740, 13151.22
842.5562, 12933.92
843.0383, 12682.23
843.5204, 12401.76
844.0025, 12158.46
844.4846, 11977.57
844.9667, 11773.27
845.4489, 11524.72
845.9310, 11262.09
846.4131, 10993.16
846.8952, 10725.57
847.3773, 10475.89
847.8594, 10246.27
848.3416, 10024.47
848.8237, 9802.847
849.3058, 9595.493
849.7879, 9419.003
850.2700, 9253.316
850.7521, 9069.649
851.2343, 8871.097
851.7164, 8693.902
852.1985, 8560.021
852.6806, 8440.075
853.1627, 8314.928
853.6448, 8189.888
854.1270, 8068.969
854.6091, 7954.017
855.0912, 7843.087
855.5733, 7736.492
856.0554, 7647.177
856.5375, 7597.159
857.0197, 7573.046
857.5018, 7543.776
857.9839, 7509.575
858.4660, 7470.158
858.9481, 7425.477
859.4302, 7383.884
859.9124, 7349.538
860.3945, 7328.598
860.8766, 7347.954
861.3587, 7416.059
861.8408, 7444.326
862.3229, 7417.812
862.8051, 7384.470
863.2872, 7358.545
863.7693, 7345.288
864.2514, 7353.884
864.7335, 7385.526
865.2156, 7416.700
865.6978, 7462.190
866.1799, 7484.365
866.6620, 7457.859
867.1441, 7427.774
867.6262, 7424.345
868.1083, 7437.836
868.5905, 7446.461
869.0726, 7449.784
869.5547, 7439.334
870.0368, 7404.965
870.5189, 7364.986
871.0010, 7339.742
871.4832, 7308.777
871.9653, 7237.713
872.4474, 7130.055
872.9295, 7032.067
873.4116, 6977.894
873.8937, 6918.599
874.3759, 6812.196
874.8580, 6676.981
875.3401, 6528.776
875.8222, 6374.917
876.3043, 6228.158
876.7864, 6092.881
877.2686, 5969.131
877.7507, 5868.391
878.2328, 5772.356
878.7149, 5631.330
879.1970, 5455.702
879.6791, 5291.090
880.1613, 5146.970
880.6434, 5010.512
881.1255, 4873.064
881.6076, 4740.627
882.0897, 4628.208
882.5718, 4537.045
883.0540, 4437.338
883.5361, 4325.109
884.0182, 4226.971
884.5003, 4154.519
884.9824, 4094.627
885.4645, 4035.651
885.9467, 3976.719
886.4288, 3907.644
886.9109, 3820.672
887.3930, 3741.282
887.8751, 3679.739
888.3572, 3614.879
888.8394, 3536.928
889.3215, 3448.051
889.8036, 3348.698
890.2857, 3235.199
890.7678, 3138.347
891.2499, 3070.601
891.7321, 3006.807
892.2142, 2946.381
892.6963, 2882.537
893.1784, 2804.709
893.6605, 2719.164
894.1426, 2642.934
894.6248, 2580.592
895.1069, 2527.373
895.5890, 2485.400
896.0711, 2448.106
896.5532, 2415.966
897.0353, 2382.815
897.5175, 2336.650
897.9996, 2278.912
898.4817, 2226.479
898.9638, 2188.251
899.4459, 2160.309
899.9280, 2144.389
900.4102, 2133.265
900.8923, 2117.474
901.3744, 2096.428
901.8565, 2070.874
902.3386, 2041.420
902.8207, 2012.222
903.3029, 1987.178
903.7850, 1965.438
904.2671, 1946.368
904.7492, 1929.466
905.2313, 1913.063
905.7134, 1896.905
906.1956, 1880.927
906.6777, 1864.731
907.1598, 1852.456
907.6419, 1854.710
908.1240, 1869.186
908.6061, 1868.594
909.0883, 1852.305
909.5704, 1832.595
910.0525, 1811.808
910.5346, 1793.850
911.0167, 1782.370
911.4988, 1775.741
911.9810, 1769.163
912.4631, 1763.324
912.9452, 1754.042
913.4273, 1740.241
913.9094, 1724.988
914.3915, 1707.512
914.8737, 1691.847
915.3558, 1683.247
915.8379, 1681.275
916.3200, 1678.317
916.8021, 1676.178
917.2842, 1669.510
917.7664, 1646.936
918.2484, 1632.755
918.7305, 1650.937
919.2126, 1678.962
919.6948, 1680.453
920.1769, 1651.398
920.6590, 1631.805
921.1411, 1633.294
921.6232, 1633.725
922.1053, 1626.266
922.5875, 1617.203
923.0696, 1610.466
923.5517, 1605.923
924.0338, 1601.789
924.5159, 1596.862
924.9980, 1597.462
925.4802, 1615.563
925.9623, 1628.393
926.4444, 1617.299
926.9265, 1598.422
927.4086, 1590.210
927.8907, 1592.230
928.3729, 1594.201
928.8550, 1592.652
929.3371, 1588.774
929.8192, 1581.493
930.3013, 1573.838
930.7834, 1568.588
931.2656, 1565.090
931.7477, 1562.305
932.2298, 1559.782
932.7119, 1556.594
933.1940, 1551.099
933.6761, 1547.364
934.1583, 1553.574
934.6404, 1561.928
935.1225, 1558.484
935.6046, 1546.169
936.0867, 1530.879
936.5688, 1516.988
937.0510, 1524.561
937.5331, 1586.393
938.0152, 1656.974
938.4973, 1647.825
938.9794, 1587.455
939.4615, 1553.642
939.9437, 1551.116
940.4258, 1548.702
940.9079, 1532.609
941.3900, 1516.094
941.8721, 1516.458
942.3542, 1527.551
942.8364, 1529.255
943.3185, 1523.247
943.8006, 1520.756
944.2827, 1523.601
944.7648, 1529.368
945.2469, 1536.867
945.7291, 1544.895
946.2112, 1552.014
946.6933, 1557.964
947.1754, 1560.652
947.6575, 1560.065
948.1396, 1554.809
948.6218, 1543.943
949.1039, 1533.499
949.5860, 1527.438
950.0681, 1525.188
950.5502, 1525.884
951.0323, 1529.752
951.5145, 1533.859
951.9966, 1538.743
952.4787, 1540.856
952.9608, 1538.324
953.4429, 1535.365
953.9250, 1535.107
954.4072, 1537.610
954.8893, 1544.243
955.3714, 1558.320
955.8535, 1562.987
956.3356, 1555.571
956.8177, 1544.799
957.2999, 1529.699
957.7820, 1519.033
958.2641, 1524.580
958.7462, 1541.875
959.2283, 1545.647
959.7104, 1528.146
960.1926, 1515.544
960.6747, 1510.090
961.1568, 1506.534
961.6389, 1502.650
962.1210, 1500.043
962.6031, 1502.374
963.0853, 1508.722
963.5674, 1507.527
964.0495, 1491.814
964.5316, 1480.395
965.0137, 1477.090
965.4958, 1474.254
965.9780, 1466.710
966.4601, 1459.055
966.9422, 1459.264
967.4243, 1467.059
967.9064, 1466.417
968.3885, 1450.880
968.8707, 1435.832
969.3528, 1418.139
969.8349, 1406.380
970.3170, 1410.880
970.7991, 1420.708
971.2813, 1418.405
971.7634, 1402.906
972.2455, 1394.647
972.7276, 1403.755
973.2097, 1409.265
973.6918, 1399.945
974.1740, 1393.231
974.6561, 1408.688
975.1382, 1429.861
975.6203, 1425.104
976.1024, 1389.980
976.5845, 1369.938
977.0667, 1387.413
977.5488, 1402.917
978.0309, 1407.321
978.5130, 1403.808
978.9951, 1389.530
979.4772, 1371.129
979.9594, 1360.642
980.4415, 1360.176
980.9236, 1358.488
981.4057, 1353.049
981.8878, 1345.109
982.3699, 1332.584
982.8521, 1320.077
983.3342, 1309.508
983.8163, 1302.307
984.2984, 1302.412
984.7805, 1311.077
985.2626, 1315.531
985.7448, 1308.460
986.2269, 1300.005
986.7090, 1291.776
987.1911, 1286.560
987.6732, 1287.595
988.1553, 1293.201
988.6375, 1301.631
989.1196, 1313.184
989.6017, 1315.825
990.0838, 1292.450
990.5659, 1274.512
991.0480, 1287.402
991.5302, 1304.844
992.0123, 1299.924
992.4944, 1279.508
992.9765, 1262.224
993.4586, 1252.127
993.9407, 1252.642
994.4229, 1277.272
994.9050, 1298.274
995.3871, 1297.928
995.8692, 1288.816
996.3513, 1281.820
996.8334, 1277.065
997.3156, 1271.803
997.7977, 1265.406
998.2798, 1257.377
998.7619, 1243.168
999.2440, 1232.509
999.7261, 1232.575
1000.208, 1237.454
1000.690, 1243.479
1001.172, 1248.635
1001.655, 1249.436
1002.137, 1244.694
1002.619, 1240.745
1003.101, 1241.264
1003.583, 1242.404
1004.065, 1240.407
1004.547, 1239.315
1005.029, 1246.814
1005.512, 1257.751
1005.994, 1258.380
1006.476, 1244.819
1006.958, 1232.913
1007.440, 1229.743
1007.922, 1230.162
1008.404, 1234.553
1008.886, 1238.568
1009.368, 1237.611
1009.851, 1233.046
1010.333, 1227.499
1010.815, 1221.473
1011.297, 1219.855
1011.779, 1231.750
1012.261, 1239.745
1012.743, 1229.954
1013.225, 1216.933
1013.708, 1214.770
1014.190, 1219.523
1014.672, 1220.766
1015.154, 1216.249
1015.636, 1212.101
1016.118, 1211.108
1016.600, 1210.384
1017.082, 1209.888
1017.564, 1207.977
1018.047, 1199.595
1018.529, 1190.212
1019.011, 1193.366
1019.493, 1211.090
1019.975, 1218.385
1020.457, 1194.847
1020.939, 1175.894
1021.421, 1178.024
1021.904, 1186.401
1022.386, 1193.747
1022.868, 1197.806
1023.350, 1194.605
1023.832, 1184.035
1024.314, 1177.186
1024.796, 1181.251
1025.278, 1183.474
1025.760, 1176.889
1026.243, 1170.863
1026.725, 1173.855
1027.207, 1179.935
1027.689, 1178.529
1028.171, 1169.470
1028.653, 1166.208
1029.135, 1179.379
1029.617, 1186.631
1030.099, 1176.279
1030.582, 1167.417
1031.064, 1175.372
1031.546, 1187.353
1032.028, 1183.669
1032.510, 1165.803
1032.992, 1158.857
1033.474, 1176.948
1033.956, 1187.480
1034.439, 1179.431
1034.921, 1172.529
1035.403, 1180.737
1035.885, 1190.001
1036.367, 1182.015
1036.849, 1160.043
1037.331, 1146.428
1037.813, 1146.320
1038.296, 1146.072
1038.778, 1143.532
1039.260, 1143.636
1039.742, 1153.540
1040.224, 1161.145
1040.706, 1149.910
1041.188, 1127.983
1041.670, 1127.929
1042.152, 1165.197
1042.635, 1177.414
1043.117, 1144.341
1043.599, 1124.559
1044.081, 1140.517
1044.563, 1163.035
1045.045, 1171.141
1045.527, 1168.577
1046.009, 1163.971
1046.491, 1156.180
1046.974, 1153.710
1047.456, 1158.165
1047.938, 1164.106
1048.420, 1172.758
1048.902, 1176.827
1049.384, 1170.960
1049.866, 1158.460
1050.348, 1144.122
1050.830, 1127.924
1051.313, 1121.383
1051.795, 1126.327
1052.277, 1130.538
1052.759, 1131.969
1053.241, 1133.887
1053.723, 1138.776
1054.205, 1141.806
1054.687, 1134.617
1055.170, 1120.271
1055.652, 1118.686
1056.134, 1130.046
1056.616, 1137.401
1057.098, 1138.787
1057.580, 1141.432
1058.062, 1148.561
1058.544, 1154.951
1059.026, 1155.213
1059.509, 1150.498
1059.991, 1141.347
1060.473, 1129.630
1060.955, 1128.428
1061.437, 1137.244
1061.919, 1143.988
1062.401, 1145.003
1062.883, 1144.480
1063.365, 1145.512
1063.848, 1147.778
1064.330, 1152.402
1064.812, 1157.227
1065.294, 1153.800
1065.776, 1145.539
1066.258, 1147.333
1066.740, 1159.861
1067.222, 1166.761
1067.705, 1158.252
1068.187, 1146.352
1068.669, 1144.442
1069.151, 1147.377
1069.633, 1149.471
1070.115, 1149.975
1070.597, 1145.986
1071.079, 1139.333
1071.562, 1137.551
1072.044, 1143.552
1072.526, 1148.875
1073.008, 1146.724
1073.490, 1141.773
1073.972, 1134.756
1074.454, 1129.729
1074.936, 1135.767
1075.418, 1146.148
1075.901, 1142.783
1076.383, 1123.276
1076.865, 1112.599
1077.347, 1131.787
1077.829, 1147.599
1078.311, 1141.449
1078.793, 1129.445
1079.275, 1121.174
1079.757, 1115.732
1080.240, 1111.082
1080.722, 1106.960
1081.204, 1103.345
1081.686, 1098.210
1082.168, 1098.003
1082.650, 1108.666
1083.132, 1118.601
1083.614, 1124.103
1084.097, 1125.947
1084.579, 1124.763
1085.061, 1120.579
1085.543, 1112.432
1086.025, 1097.156
1086.507, 1090.118
1086.989, 1096.745
1087.471, 1101.589
1087.953, 1099.470
1088.436, 1099.154
1088.918, 1108.819
1089.400, 1120.160
1089.882, 1117.553
1090.364, 1101.391
1090.846, 1093.420
1091.328, 1095.605
1091.810, 1095.379
1092.292, 1089.701
1092.775, 1091.598
1093.257, 1109.111
1093.739, 1125.082
1094.221, 1119.509
1094.703, 1099.451
1095.185, 1086.005
1095.667, 1079.317
1096.149, 1085.911
1096.632, 1104.484
1097.114, 1111.398
1097.596, 1100.602
1098.078, 1088.047
1098.560, 1084.854
1099.042, 1086.375
1099.524, 1086.892
1100.006, 1086.082
1100.489, 1082.535
1100.971, 1077.157
1101.453, 1069.913
1101.935, 1063.076
1102.417, 1066.917
1102.899, 1085.475
1103.381, 1102.033
1103.863, 1098.848
1104.345, 1090.486
1104.828, 1095.797
1105.310, 1101.695
1105.792, 1084.386
1106.274, 1056.736
1106.756, 1049.608
1107.238, 1066.805
1107.720, 1083.145
1108.202, 1087.493
1108.684, 1089.429
1109.167, 1093.477
1109.649, 1096.323
1110.131, 1095.694
1110.613, 1092.871
1111.095, 1088.428
1111.577, 1083.187
1112.059, 1080.005
1112.541, 1080.855
1113.024, 1077.823
1113.506, 1063.521
1113.988, 1054.777
1114.470, 1056.352
1114.952, 1063.015
1115.434, 1076.712
1115.916, 1089.224
1116.398, 1084.626
1116.880, 1063.786
1117.363, 1058.307
1117.845, 1073.903
1118.327, 1082.356
1118.809, 1080.122
1119.291, 1075.479
1119.773, 1070.880
1120.255, 1068.487
1120.737, 1071.060
1121.219, 1075.623
1121.702, 1072.889
1122.184, 1064.371
1122.666, 1064.638
1123.148, 1072.649
1123.630, 1077.165
1124.112, 1076.065
1124.594, 1073.638
1125.076, 1072.243
1125.559, 1070.315
1126.041, 1064.673
1126.523, 1058.561
1127.005, 1056.199
1127.487, 1057.910
1127.969, 1068.081
1128.451, 1082.122
1128.933, 1086.945
1129.416, 1080.226
1129.898, 1073.677
1130.380, 1074.137
1130.862, 1075.352
1131.344, 1072.961
1131.826, 1070.221
1132.308, 1069.986
1132.790, 1070.552
1133.272, 1068.687
1133.755, 1065.649
1134.237, 1066.985
1134.719, 1075.419
1135.201, 1079.719
1135.683, 1076.647
1136.165, 1071.447
1136.647, 1062.093
1137.129, 1054.509
1137.611, 1050.167
1138.094, 1051.150
1138.576, 1063.918
1139.058, 1085.752
1139.540, 1087.039
1140.022, 1060.435
1140.504, 1048.933
1140.986, 1057.456
1141.468, 1065.510
1141.951, 1066.819
1142.433, 1066.587
1142.915, 1068.651
1143.397, 1072.227
1143.879, 1077.150
1144.361, 1082.202
1144.843, 1081.696
1145.325, 1076.485
1145.807, 1067.527
1146.290, 1057.072
1146.772, 1055.682
1147.254, 1066.698
1147.736, 1077.912
1148.218, 1079.579
1148.700, 1076.916
1149.182, 1074.016
1149.664, 1071.099
1150.146, 1067.711
1150.629, 1064.930
1151.111, 1065.617
1151.593, 1068.708
1152.075, 1067.633
1152.557, 1057.870
1153.039, 1056.873
1153.521, 1084.997
1154.003, 1103.268
1154.486, 1087.260
1154.968, 1067.192
1155.450, 1064.842
1155.932, 1072.147
1156.414, 1075.953
1156.896, 1076.447
1157.378, 1076.320
1157.860, 1074.698
1158.343, 1075.739
1158.825, 1081.563
1159.307, 1082.096
1159.789, 1072.474
1160.271, 1065.391
1160.753, 1071.123
1161.235, 1082.650
1161.717, 1087.138
1162.199, 1085.902
1162.682, 1085.346
1163.164, 1085.167
1163.646, 1083.804
1164.128, 1081.217
1164.610, 1077.786
1165.092, 1073.922
1165.574, 1072.454
1166.056, 1077.155
1166.538, 1080.574
1167.021, 1069.617
1167.503, 1058.479
1167.985, 1065.852
1168.467, 1081.167
1168.949, 1088.715
1169.431, 1088.757
1169.913, 1089.125
1170.395, 1091.745
1170.878, 1094.017
1171.360, 1095.418
1171.842, 1096.094
1172.324, 1097.880
1172.806, 1096.700
1173.288, 1085.764
1173.770, 1075.475
1174.252, 1079.830
1174.734, 1093.808
1175.217, 1094.709
1175.699, 1078.346
1176.181, 1073.130
1176.663, 1080.102
1177.145, 1093.155
1177.627, 1112.285
1178.109, 1116.943
1178.591, 1094.723
1179.073, 1071.382
1179.556, 1080.348
1180.038, 1104.392
1180.520, 1106.339
1181.002, 1094.170
1181.484, 1081.465
1181.966, 1072.246
1182.448, 1076.185
1182.930, 1091.682
1183.413, 1103.479
1183.895, 1104.961
1184.377, 1101.162
1184.859, 1086.262
1185.341, 1078.304
1185.823, 1098.244
1186.305, 1119.174
1186.787, 1114.317
1187.270, 1097.548
1187.752, 1093.789
1188.234, 1103.619
1188.716, 1109.688
1189.198, 1108.780
1189.680, 1111.353
1190.162, 1120.360
1190.644, 1124.769
1191.126, 1121.032
1191.609, 1114.484
1192.091, 1107.475
1192.573, 1103.578
1193.055, 1109.296
1193.537, 1121.481
1194.019, 1128.923
1194.501, 1132.255
1194.983, 1134.112
1195.465, 1134.566
1195.948, 1130.992
1196.430, 1124.271
1196.912, 1123.534
1197.394, 1134.549
1197.876, 1146.121
1198.358, 1148.890
1198.840, 1148.615
1199.322, 1150.121
1199.805, 1150.568
1200.287, 1145.535
1200.769, 1138.066
1201.251, 1132.769
1201.733, 1130.398
1202.215, 1132.304
1202.697, 1141.044
1203.179, 1149.643
1203.661, 1161.499
1204.144, 1165.266
1204.626, 1154.540
1205.108, 1144.839
1205.590, 1146.299
1206.072, 1152.581
1206.554, 1154.138
1207.036, 1152.997
1207.518, 1159.098
1208.000, 1169.985
1208.483, 1171.661
1208.965, 1164.833
1209.447, 1154.021
1209.929, 1142.605
1210.411, 1143.418
1210.893, 1164.052
1211.375, 1182.425
1211.857, 1176.427
1212.340, 1166.310
1212.822, 1166.786
1213.304, 1171.292
1213.786, 1175.820
1214.268, 1178.769
1214.750, 1178.440
1215.232, 1174.898
1215.714, 1168.958
1216.197, 1157.068
1216.679, 1153.843
1217.161, 1162.923
1217.643, 1172.661
1218.125, 1182.658
1218.607, 1186.872
1219.089, 1180.854
1219.571, 1173.647
1220.053, 1175.893
1220.536, 1183.893
1221.018, 1189.293
1221.500, 1192.206
1221.982, 1193.029
1222.464, 1191.824
1222.946, 1187.001
1223.428, 1180.103
1223.910, 1178.690
1224.392, 1185.255
1224.875, 1188.488
1225.357, 1176.573
1225.839, 1166.886
1226.321, 1173.965
1226.803, 1180.323
1227.285, 1171.954
1227.767, 1159.099
1228.249, 1152.310
1228.732, 1150.764
1229.214, 1151.119
1229.696, 1153.488
##END=



