##NAMES=Brannerite
##RRUFFID=R080091
##IDEAL CHEMISTRY=U^4+^Ti^4+^_2_O_6_
##LOCALITY=Crocker's Well, South Australia, Australia
##OWNER=RRUFF
##SOURCE=Michael Scott
##DESCRIPTION=Light brown fragment from metamict sample R060613, after heating at T = 1000 C for 18 hours
##STATUS=The identification of this mineral has been confirmed by X-ray diffraction.
##URL=rruff.info/R080091
92.35352, 27.37710
92.83563, 26.79489
93.31775, 26.54759
93.79987, 26.65117
94.28198, 27.09204
94.76410, 27.86606
95.24622, 29.04023
95.72833, 30.47303
96.21045, 31.79579
96.69257, 32.99898
97.17468, 34.33646
97.65680, 35.96971
98.13892, 37.90463
98.62103, 40.21416
99.10315, 42.93771
99.58527, 46.04456
100.0674, 49.14088
100.5495, 52.10526
101.0316, 55.26868
101.5137, 58.93297
101.9958, 63.10259
102.4780, 67.83348
102.9601, 73.06588
103.4422, 78.74722
103.9243, 85.27869
104.4064, 92.87366
104.8885, 101.2150
105.3707, 109.9664
105.8528, 119.2327
106.3349, 128.6557
106.8170, 137.9863
107.2991, 146.8407
107.7813, 156.3577
108.2634, 167.1042
108.7455, 178.6452
109.2276, 189.1288
109.7097, 197.8873
110.1918, 206.1616
110.6740, 214.4782
111.1561, 222.0063
111.6382, 230.5249
112.1203, 240.2022
112.6024, 251.0583
113.0845, 262.6825
113.5667, 275.0476
114.0488, 288.0874
114.5309, 301.9062
115.0130, 317.0428
115.4951, 332.3403
115.9772, 347.4668
116.4594, 362.5550
116.9415, 377.8744
117.4236, 393.9547
117.9057, 410.1990
118.3878, 425.9005
118.8699, 441.1331
119.3521, 455.6869
119.8342, 469.5025
120.3163, 482.5303
120.7984, 495.2932
121.2805, 508.2307
121.7626, 521.1113
122.2448, 533.5392
122.7269, 545.9276
123.2090, 557.4842
123.6911, 567.2751
124.1732, 575.0187
124.6553, 581.7626
125.1375, 588.3232
125.6196, 594.6462
126.1017, 600.5598
126.5838, 605.6212
127.0659, 610.2584
127.5480, 615.2012
128.0302, 620.5167
128.5123, 626.3193
128.9944, 632.8456
129.4765, 640.0640
129.9586, 647.6771
130.4407, 655.3039
130.9229, 663.0963
131.4050, 671.8162
131.8871, 681.6379
132.3692, 692.2108
132.8513, 702.4567
133.3334, 711.2041
133.8156, 717.0366
134.2977, 721.2676
134.7798, 726.3738
135.2619, 732.1711
135.7440, 738.7143
136.2261, 745.8619
136.7083, 753.6035
137.1904, 762.0627
137.6725, 770.8578
138.1546, 779.5974
138.6367, 788.2022
139.1188, 797.4514
139.6010, 807.7135
140.0831, 818.9482
140.5652, 830.3432
141.0473, 841.6965
141.5294, 853.6342
142.0115, 866.7774
142.4937, 881.3135
142.9758, 896.7794
143.4579, 913.1486
143.9400, 930.2413
144.4221, 948.5768
144.9042, 968.2495
145.3864, 989.0717
145.8685, 1010.158
146.3506, 1030.664
146.8327, 1052.741
147.3148, 1077.504
147.7969, 1105.923
148.2791, 1134.420
148.7612, 1162.148
149.2433, 1189.899
149.7254, 1220.072
150.2075, 1253.438
150.6896, 1288.357
151.1718, 1323.954
151.6539, 1359.933
152.1360, 1397.095
152.6181, 1435.539
153.1002, 1475.198
153.5823, 1515.685
154.0645, 1556.701
154.5466, 1599.158
155.0287, 1643.392
155.5108, 1691.565
155.9929, 1739.781
156.4750, 1786.720
156.9572, 1832.907
157.4393, 1879.498
157.9214, 1926.441
158.4035, 1974.491
158.8856, 2024.240
159.3677, 2078.138
159.8499, 2131.647
160.3320, 2182.627
160.8141, 2231.451
161.2962, 2280.673
161.7783, 2331.333
162.2604, 2382.312
162.7426, 2432.687
163.2247, 2482.728
163.7068, 2531.687
164.1889, 2579.723
164.6710, 2626.383
165.1531, 2671.167
165.6353, 2714.022
166.1174, 2754.731
166.5995, 2793.055
167.0816, 2829.824
167.5637, 2863.495
168.0458, 2893.072
168.5280, 2918.280
169.0101, 2940.321
169.4922, 2961.087
169.9743, 2978.718
170.4564, 2990.448
170.9385, 2994.438
171.4207, 2992.514
171.9028, 2986.257
172.3849, 2975.770
172.8670, 2960.476
173.3491, 2940.117
173.8312, 2914.602
174.3134, 2883.583
174.7955, 2845.723
175.2776, 2803.163
175.7597, 2758.316
176.2418, 2710.869
176.7239, 2661.828
177.2061, 2610.519
177.6882, 2557.078
178.1703, 2502.920
178.6524, 2447.842
179.1345, 2391.990
179.6166, 2336.396
180.0988, 2280.570
180.5809, 2224.940
181.0630, 2169.342
181.5451, 2113.650
182.0272, 2059.779
182.5093, 2007.490
182.9915, 1957.120
183.4736, 1910.787
183.9557, 1868.537
184.4378, 1828.993
184.9199, 1788.986
185.4020, 1749.480
185.8842, 1712.086
186.3663, 1679.039
186.8484, 1649.207
187.3305, 1619.662
187.8126, 1589.688
188.2947, 1560.420
188.7769, 1533.550
189.2590, 1509.024
189.7411, 1485.805
190.2232, 1462.873
190.7053, 1440.500
191.1874, 1419.962
191.6696, 1401.378
192.1517, 1384.200
192.6338, 1367.510
193.1159, 1351.326
193.5980, 1335.196
194.0801, 1318.973
194.5623, 1302.703
195.0444, 1285.830
195.5265, 1268.151
196.0086, 1250.231
196.4907, 1233.355
196.9728, 1217.609
197.4550, 1202.106
197.9371, 1186.379
198.4192, 1170.425
198.9013, 1154.282
199.3834, 1137.893
199.8655, 1121.445
200.3477, 1105.030
200.8298, 1088.623
201.3119, 1072.525
201.7940, 1056.819
202.2761, 1041.541
202.7582, 1026.261
203.2404, 1010.801
203.7225, 995.4319
204.2046, 980.9904
204.6867, 967.6608
205.1688, 954.5904
205.6509, 941.2269
206.1331, 927.3129
206.6152, 914.4023
207.0973, 902.7947
207.5794, 892.1834
208.0615, 881.5871
208.5436, 870.8575
209.0258, 860.4814
209.5079, 850.8616
209.9900, 842.1181
210.4721, 833.6926
210.9542, 825.4758
211.4363, 817.5593
211.9185, 810.3047
212.4006, 803.8192
212.8827, 797.6896
213.3648, 791.7780
213.8469, 785.9510
214.3290, 780.5533
214.8112, 775.5871
215.2933, 771.0818
215.7754, 767.0404
216.2575, 763.6181
216.7396, 760.3405
217.2217, 756.9216
217.7038, 753.2491
218.1860, 749.8263
218.6681, 746.8304
219.1502, 744.1088
219.6323, 741.0690
220.1144, 737.4696
220.5965, 734.0248
221.0787, 731.1221
221.5608, 728.7155
222.0429, 727.0583
222.5250, 726.4443
223.0071, 726.5790
223.4892, 726.3468
223.9714, 725.4563
224.4535, 724.6744
224.9356, 724.4406
225.4177, 724.9825
225.8998, 725.5339
226.3819, 725.9905
226.8641, 726.4401
227.3462, 727.1376
227.8283, 727.9833
228.3104, 729.2125
228.7925, 730.9695
229.2746, 733.5019
229.7568, 736.0517
230.2389, 738.6347
230.7210, 741.2252
231.2031, 743.6237
231.6852, 745.5700
232.1673, 747.6935
232.6495, 750.3028
233.1316, 753.5769
233.6137, 756.8922
234.0958, 759.9319
234.5779, 763.0313
235.0600, 767.1685
235.5422, 772.9910
236.0243, 778.9921
236.5064, 784.4507
236.9885, 788.8240
237.4706, 793.8619
237.9527, 799.6137
238.4349, 805.9596
238.9170, 812.6072
239.3991, 819.8298
239.8812, 826.9406
240.3633, 833.5499
240.8454, 839.1251
241.3276, 845.5312
241.8097, 852.9593
242.2918, 861.0629
242.7739, 869.0641
243.2560, 877.0650
243.7381, 884.8057
244.2203, 892.0792
244.7024, 898.4979
245.1845, 905.5603
245.6666, 913.4217
246.1487, 921.8406
246.6308, 930.6031
247.1130, 940.0999
247.5951, 949.3300
248.0772, 957.7413
248.5593, 965.0358
249.0414, 972.8020
249.5235, 981.3824
250.0057, 990.1967
250.4878, 998.4051
250.9699, 1005.682
251.4520, 1012.956
251.9341, 1020.532
252.4162, 1028.624
252.8984, 1036.115
253.3805, 1042.825
253.8626, 1049.121
254.3447, 1055.435
254.8268, 1062.236
255.3089, 1068.298
255.7911, 1073.080
256.2732, 1076.453
256.7553, 1079.909
257.2374, 1083.665
257.7195, 1087.306
258.2017, 1090.273
258.6838, 1092.325
259.1659, 1094.348
259.6480, 1096.781
260.1301, 1099.660
260.6122, 1101.428
261.0944, 1101.819
261.5765, 1101.434
262.0586, 1100.898
262.5407, 1100.260
263.0228, 1099.364
263.5049, 1098.193
263.9871, 1096.741
264.4692, 1095.069
264.9513, 1093.170
265.4334, 1091.053
265.9155, 1088.666
266.3976, 1086.018
266.8798, 1083.233
267.3619, 1080.473
267.8440, 1077.631
268.3261, 1073.962
268.8082, 1069.230
269.2903, 1064.180
269.7725, 1059.587
270.2546, 1055.781
270.7367, 1051.122
271.2188, 1045.172
271.7009, 1038.281
272.1830, 1031.752
272.6652, 1025.660
273.1473, 1019.849
273.6294, 1014.278
274.1115, 1009.050
274.5936, 1003.409
275.0757, 997.1873
275.5579, 990.5091
276.0400, 983.8352
276.5221, 977.1046
277.0042, 970.5934
277.4863, 964.4767
277.9684, 958.7657
278.4506, 953.3132
278.9327, 948.2337
279.4148, 943.2586
279.8969, 937.7687
280.3790, 931.7111
280.8611, 925.5665
281.3433, 919.3904
281.8254, 913.1706
282.3075, 907.7852
282.7896, 903.3566
283.2717, 899.4895
283.7538, 895.6354
284.2360, 891.7992
284.7181, 887.9508
285.2002, 883.9504
285.6823, 879.8575
286.1644, 876.1777
286.6465, 872.9375
287.1287, 870.1179
287.6108, 867.7585
288.0929, 865.8444
288.5750, 864.2245
289.0571, 862.9540
289.5392, 861.9255
290.0214, 860.7590
290.5035, 859.4548
290.9856, 858.0605
291.4677, 856.4016
291.9498, 854.5883
292.4319, 853.3543
292.9141, 853.0408
293.3962, 853.3764
293.8783, 853.8411
294.3604, 854.4414
294.8425, 854.9969
295.3246, 855.3846
295.8068, 855.6203
296.2889, 855.6614
296.7710, 855.2667
297.2531, 854.9653
297.7352, 855.7661
298.2173, 857.5748
298.6995, 859.6393
299.1816, 861.4365
299.6637, 863.0799
300.1458, 864.7375
300.6279, 866.3980
301.1100, 868.1771
301.5922, 870.1635
302.0743, 872.3527
302.5564, 874.7519
303.0385, 877.4734
303.5206, 880.3610
304.0027, 883.3732
304.4849, 886.5781
304.9670, 889.4395
305.4491, 891.1799
305.9312, 892.1320
306.4133, 893.0959
306.8954, 894.1450
307.3776, 895.5976
307.8597, 898.0065
308.3418, 901.5272
308.8239, 904.9623
309.3060, 907.4053
309.7881, 909.2291
310.2703, 910.9374
310.7524, 912.4685
311.2345, 914.1965
311.7166, 916.4316
312.1987, 919.1656
312.6808, 922.0355
313.1630, 924.9418
313.6451, 927.8531
314.1272, 930.7609
314.6093, 933.7740
315.0914, 936.6148
315.5735, 938.9058
316.0557, 940.7708
316.5378, 942.8994
317.0199, 945.6174
317.5020, 948.6771
317.9841, 952.0108
318.4662, 956.0395
318.9484, 959.5822
319.4305, 961.9622
319.9126, 963.5342
320.3947, 965.2263
320.8768, 967.7355
321.3589, 970.1149
321.8411, 971.7701
322.3232, 972.1082
322.8053, 972.9576
323.2874, 974.9548
323.7695, 977.6169
324.2516, 980.1797
324.7338, 982.4377
325.2159, 984.6539
325.6980, 987.0304
326.1801, 989.7578
326.6622, 991.8323
327.1443, 992.4695
327.6265, 992.7521
328.1086, 993.7807
328.5907, 996.7115
329.0728, 999.1085
329.5549, 1000.475
330.0370, 1000.808
330.5192, 1001.174
331.0013, 1001.455
331.4834, 1001.877
331.9655, 1002.563
332.4476, 1003.245
332.9297, 1004.726
333.4119, 1007.657
333.8940, 1011.493
334.3761, 1013.690
334.8582, 1013.449
335.3403, 1012.746
335.8224, 1012.547
336.3046, 1013.006
336.7867, 1013.458
337.2688, 1013.828
337.7509, 1014.219
338.2330, 1014.925
338.7151, 1016.086
339.1973, 1017.119
339.6794, 1017.753
340.1615, 1017.965
340.6436, 1018.372
341.1257, 1019.061
341.6078, 1019.797
342.0899, 1020.245
342.5721, 1020.387
343.0542, 1020.599
343.5363, 1020.985
344.0184, 1021.544
344.5005, 1022.342
344.9826, 1023.421
345.4648, 1024.435
345.9469, 1024.979
346.4290, 1025.115
346.9111, 1025.293
347.3932, 1025.585
347.8753, 1025.948
348.3575, 1026.491
348.8396, 1027.147
349.3217, 1027.347
349.8038, 1026.166
350.2859, 1024.239
350.7680, 1023.258
351.2502, 1023.573
351.7323, 1024.206
352.2144, 1024.166
352.6965, 1023.544
353.1786, 1022.608
353.6607, 1021.486
354.1429, 1020.153
354.6250, 1018.509
355.1071, 1016.557
355.5892, 1014.591
356.0713, 1012.848
356.5534, 1011.258
357.0356, 1009.720
357.5177, 1008.751
357.9998, 1007.361
358.4819, 1004.387
358.9640, 1000.138
359.4461, 996.4069
359.9283, 994.4133
360.4104, 993.1776
360.8925, 991.9130
361.3746, 990.5016
361.8567, 988.9083
362.3388, 987.1516
362.8210, 985.1952
363.3031, 982.9288
363.7852, 980.0422
364.2673, 977.0486
364.7494, 974.2397
365.2315, 971.7698
365.7137, 969.0086
366.1958, 965.4203
366.6779, 961.6518
367.1600, 958.4307
367.6421, 956.6299
368.1242, 954.5705
368.6064, 951.7949
369.0885, 948.2479
369.5706, 944.9025
370.0527, 941.9023
370.5348, 938.9865
371.0169, 935.9666
371.4991, 933.0187
371.9812, 929.7184
372.4633, 925.7921
372.9454, 921.4954
373.4275, 917.8655
373.9096, 915.2757
374.3918, 912.6429
374.8739, 909.5043
375.3560, 905.7029
375.8381, 901.9194
376.3202, 898.1120
376.8023, 894.4241
377.2845, 891.1053
377.7666, 888.2122
378.2487, 885.4834
378.7308, 882.9045
379.2129, 880.4338
379.6950, 878.1724
380.1772, 876.1719
380.6593, 873.9879
381.1414, 870.9562
381.6235, 867.2145
382.1056, 863.7903
382.5877, 860.9274
383.0699, 858.4913
383.5520, 856.4756
384.0341, 854.8011
384.5162, 852.8342
384.9983, 849.9622
385.4804, 846.5157
385.9626, 843.1853
386.4447, 840.0560
386.9268, 836.9428
387.4089, 833.4930
387.8910, 829.8906
388.3731, 826.6340
388.8553, 824.2159
389.3374, 822.0563
389.8195, 819.6302
390.3016, 816.9726
390.7837, 814.2722
391.2658, 811.7267
391.7480, 809.2039
392.2301, 806.5604
392.7122, 803.6908
393.1943, 800.8094
393.6764, 798.0587
394.1585, 795.4003
394.6407, 792.7662
395.1228, 789.9446
395.6049, 787.2883
396.0870, 785.0450
396.5691, 783.4787
397.0512, 781.6132
397.5334, 778.7332
398.0155, 775.6130
398.4976, 773.2570
398.9797, 772.4169
399.4618, 771.6125
399.9439, 770.6891
400.4261, 769.6376
400.9082, 768.0704
401.3903, 765.4230
401.8724, 762.7733
402.3545, 760.8630
402.8366, 760.2359
403.3188, 759.1826
403.8009, 757.5145
404.2830, 755.4063
404.7651, 753.2272
405.2472, 750.9033
405.7293, 748.7919
406.2115, 747.0887
406.6936, 745.8226
407.1757, 744.5591
407.6578, 743.3008
408.1399, 742.0441
408.6220, 740.8741
409.1042, 739.7835
409.5863, 738.2471
410.0684, 735.7856
410.5505, 733.0607
411.0326, 731.7419
411.5147, 731.7860
411.9969, 731.9736
412.4790, 731.5481
412.9611, 730.6071
413.4432, 729.2596
413.9253, 727.3768
414.4074, 725.6182
414.8896, 724.8693
415.3717, 724.7981
415.8538, 724.6278
416.3359, 723.9805
416.8180, 723.0733
417.3001, 721.9854
417.7823, 720.7189
418.2644, 719.6465
418.7465, 719.0737
419.2286, 718.7196
419.7107, 718.3437
420.1928, 718.1359
420.6750, 717.5270
421.1571, 717.0679
421.6392, 717.0708
422.1213, 716.7338
422.6034, 716.0754
423.0855, 714.1325
423.5677, 713.8481
424.0498, 712.8991
424.5319, 711.9229
425.0140, 711.8719
425.4961, 710.1158
425.9782, 710.0502
426.4604, 709.3097
426.9425, 705.3611
427.4246, 704.7130
427.9067, 704.8106
428.3888, 704.5267
428.8709, 703.5993
429.3531, 702.7574
429.8352, 702.5156
430.3173, 703.0848
430.7994, 703.0824
431.2815, 702.2592
431.7636, 701.1749
432.2458, 700.8997
432.7279, 701.4918
433.2100, 701.7439
433.6921, 700.9633
434.1742, 699.5405
434.6563, 699.1514
435.1385, 699.8253
435.6206, 700.4028
436.1027, 699.5932
436.5848, 697.9040
437.0669, 696.8115
437.5490, 696.8000
438.0312, 696.9584
438.5133, 696.0942
438.9954, 694.5378
439.4775, 693.1924
439.9596, 692.8771
440.4417, 692.7733
440.9239, 692.0184
441.4060, 690.5685
441.8881, 689.2970
442.3702, 688.8269
442.8523, 688.7364
443.3344, 688.6249
443.8166, 688.7015
444.2987, 688.3617
444.7808, 686.8953
445.2629, 684.7904
445.7450, 683.4807
446.2271, 684.1164
446.7093, 684.8635
447.1914, 685.1003
447.6735, 684.8060
448.1556, 683.9000
448.6377, 681.7322
449.1198, 679.3953
449.6020, 678.0809
450.0841, 678.5049
450.5662, 678.5147
451.0483, 677.7563
451.5304, 676.3404
452.0125, 674.7015
452.4947, 672.7133
452.9768, 670.8509
453.4589, 669.4050
453.9410, 668.3720
454.4231, 667.4036
454.9052, 666.5514
455.3874, 665.4990
455.8695, 663.5760
456.3516, 660.9193
456.8337, 658.6550
457.3158, 657.3273
457.7979, 656.4211
458.2801, 654.9470
458.7622, 652.9896
459.2443, 651.0703
459.7264, 649.5232
460.2085, 648.2646
460.6906, 647.3147
461.1728, 646.7859
461.6549, 646.0966
462.1370, 644.6815
462.6191, 642.8905
463.1012, 641.2637
463.5833, 640.0284
464.0655, 638.9697
464.5476, 637.8333
465.0297, 636.6935
465.5118, 636.1719
465.9939, 637.0764
466.4760, 638.1774
466.9582, 638.7970
467.4403, 638.6453
467.9224, 638.4193
468.4045, 638.0046
468.8866, 637.5779
469.3687, 637.4051
469.8509, 637.6360
470.3330, 637.8575
470.8151, 637.9323
471.2972, 637.9001
471.7793, 638.1461
472.2614, 638.7234
472.7436, 639.4594
473.2257, 640.2245
473.7078, 641.0223
474.1899, 641.9785
474.6720, 643.1016
475.1541, 644.3973
475.6363, 646.0800
476.1184, 648.0430
476.6005, 649.5964
477.0826, 650.1642
477.5647, 650.3298
478.0468, 651.0527
478.5290, 652.3014
479.0111, 653.7894
479.4932, 655.3858
479.9753, 657.0792
480.4574, 658.8718
480.9395, 660.7893
481.4217, 662.7422
481.9038, 664.7114
482.3859, 666.6417
482.8680, 668.4257
483.3501, 670.8660
483.8322, 672.3307
484.3144, 671.7839
484.7965, 669.3613
485.2786, 667.2138
485.7607, 665.4146
486.2428, 664.1744
486.7249, 663.7087
487.2071, 664.8575
487.6892, 664.9574
488.1713, 663.6046
488.6534, 661.4966
489.1355, 659.6556
489.6176, 658.2774
490.0998, 656.5850
490.5819, 654.2946
491.0640, 651.5365
491.5461, 648.9648
492.0282, 646.5765
492.5103, 644.3660
492.9925, 642.5932
493.4746, 641.0704
493.9567, 638.8820
494.4388, 635.8499
494.9209, 632.5656
495.4030, 629.5573
495.8852, 626.7898
496.3673, 624.1110
496.8494, 621.5714
497.3315, 619.0001
497.8136, 616.1115
498.2957, 612.9830
498.7779, 610.0813
499.2600, 607.6614
499.7421, 605.5042
500.2242, 603.5165
500.7063, 601.7264
501.1884, 599.8425
501.6706, 597.5859
502.1527, 595.3040
502.6348, 593.3871
503.1169, 592.1491
503.5990, 590.9922
504.0811, 589.9850
504.5633, 589.0439
505.0454, 587.7486
505.5275, 585.7491
506.0096, 584.0449
506.4917, 583.1537
506.9738, 583.1603
507.4560, 582.7634
507.9381, 581.8251
508.4202, 580.8459
508.9023, 580.2509
509.3844, 580.0430
509.8665, 580.3455
510.3487, 581.2839
510.8308, 582.5561
511.3129, 583.7115
511.7950, 584.7711
512.2772, 585.8224
512.7593, 586.8698
513.2414, 587.9576
513.7235, 589.1348
514.2056, 590.4042
514.6877, 591.8036
515.1699, 593.4297
515.6520, 595.1530
516.1341, 596.8297
516.6162, 598.3041
517.0983, 599.9660
517.5804, 602.1586
518.0626, 604.5799
518.5447, 606.7382
519.0268, 608.3284
519.5089, 609.8815
519.9910, 611.3979
520.4731, 612.9036
520.9553, 614.8104
521.4374, 617.3480
521.9195, 619.9182
522.4016, 622.1619
522.8837, 623.9756
523.3658, 625.9932
523.8480, 628.3402
524.3301, 630.6662
524.8122, 632.3778
525.2943, 633.5167
525.7764, 634.7604
526.2585, 636.2707
526.7407, 638.0234
527.2228, 640.1689
527.7049, 642.6328
528.1870, 644.9023
528.6691, 646.5745
529.1512, 647.9566
529.6334, 649.3801
530.1155, 650.8757
530.5976, 652.3891
531.0797, 653.8574
531.5618, 655.3481
532.0439, 656.9379
532.5261, 659.0715
533.0082, 660.7014
533.4903, 661.2841
533.9724, 661.2162
534.4545, 661.3701
534.9366, 662.2726
535.4188, 662.8878
535.9009, 662.9657
536.3830, 662.5196
536.8651, 661.8446
537.3472, 660.8228
537.8293, 659.8348
538.3115, 659.2722
538.7936, 659.2109
539.2757, 658.6239
539.7578, 657.4045
540.2399, 655.8493
540.7220, 654.2224
541.2042, 652.5660
541.6863, 651.0140
542.1684, 649.6116
542.6505, 648.2984
543.1326, 647.0219
543.6147, 645.7642
544.0969, 644.4327
544.5790, 642.9489
545.0611, 641.4057
545.5432, 639.8964
546.0253, 638.4363
546.5074, 636.9117
546.9896, 634.6808
547.4717, 632.7173
547.9538, 631.8412
548.4359, 633.6600
548.9180, 634.5612
549.4001, 633.6508
549.8823, 631.8640
550.3644, 630.8174
550.8465, 631.0170
551.3286, 631.0008
551.8107, 630.4099
552.2928, 629.2933
552.7750, 627.9009
553.2571, 626.1143
553.7392, 624.6020
554.2213, 623.8856
554.7034, 623.8572
555.1855, 623.9352
555.6677, 624.1157
556.1498, 624.1995
556.6319, 623.9095
557.1140, 623.3716
557.5961, 622.8361
558.0782, 622.3348
558.5604, 621.9151
559.0425, 621.7255
559.5246, 621.6467
560.0067, 621.4163
560.4888, 620.9778
560.9709, 620.3184
561.4531, 619.3681
561.9352, 618.1263
562.4173, 616.9148
562.8994, 615.5006
563.3815, 614.3658
563.8636, 613.8597
564.3458, 614.5379
564.8279, 614.3068
565.3100, 612.8412
565.7921, 610.8820
566.2742, 609.3793
566.7563, 608.3670
567.2385, 607.4715
567.7206, 606.7302
568.2027, 605.9268
568.6848, 604.3339
569.1669, 602.0861
569.6490, 600.3610
570.1312, 600.2531
570.6133, 600.8141
571.0954, 600.6679
571.5775, 599.8147
572.0596, 598.8126
572.5417, 597.8175
573.0239, 596.9384
573.5060, 596.2983
573.9881, 595.9601
574.4702, 595.7296
574.9523, 595.6436
575.4344, 595.6005
575.9166, 595.4698
576.3987, 595.0166
576.8808, 594.7860
577.3629, 594.9336
577.8450, 595.3337
578.3271, 595.5660
578.8093, 595.5781
579.2914, 595.5508
579.7735, 595.4742
580.2556, 595.3859
580.7377, 595.5820
581.2198, 596.0478
581.7020, 596.8829
582.1841, 598.4816
582.6662, 600.4703
583.1483, 601.9652
583.6304, 602.7839
584.1125, 603.3311
584.5947, 603.8430
585.0768, 604.3494
585.5589, 604.8884
586.0410, 605.2851
586.5231, 605.9539
587.0052, 607.1513
587.4873, 608.7780
587.9694, 610.5230
588.4515, 612.8688
588.9337, 614.7928
589.4158, 615.7893
589.8979, 615.8522
590.3800, 616.5834
590.8621, 618.1871
591.3442, 620.0914
591.8264, 622.0110
592.3085, 623.9648
592.7906, 625.4896
593.2727, 626.4393
593.7548, 627.3935
594.2369, 629.1127
594.7191, 631.4464
595.2012, 633.8894
595.6833, 636.5660
596.1654, 638.8231
596.6475, 639.4540
597.1296, 639.1003
597.6118, 639.2650
598.0939, 641.1225
598.5760, 643.2592
599.0581, 644.8879
599.5402, 646.0400
600.0223, 647.3854
600.5045, 649.3660
600.9866, 651.3390
601.4687, 653.0448
601.9508, 654.4583
602.4329, 655.7421
602.9150, 656.8737
603.3972, 657.8940
603.8793, 658.6750
604.3614, 659.1295
604.8435, 660.2998
605.3256, 662.3973
605.8077, 664.9833
606.2899, 667.5751
606.7720, 670.0983
607.2541, 672.0886
607.7362, 673.0184
608.2183, 673.6956
608.7004, 675.0137
609.1826, 676.8765
609.6647, 678.9030
610.1468, 680.6960
610.6289, 682.8061
611.1110, 685.8883
611.5931, 690.0634
612.0753, 693.3900
612.5574, 694.4886
613.0395, 695.4563
613.5216, 697.5128
614.0037, 701.1698
614.4858, 704.6644
614.9680, 707.9353
615.4501, 711.1188
615.9322, 714.3889
616.4143, 717.7350
616.8964, 720.8966
617.3785, 723.5612
617.8607, 726.4434
618.3428, 731.2171
618.8249, 737.4391
619.3070, 743.2618
619.7891, 747.3300
620.2712, 750.9440
620.7534, 755.2852
621.2355, 760.3262
621.7176, 765.7363
622.1997, 771.3108
622.6818, 777.2737
623.1639, 783.9918
623.6461, 791.6612
624.1282, 798.9127
624.6103, 805.2240
625.0924, 811.4268
625.5745, 817.9942
626.0566, 825.0401
626.5388, 832.3216
627.0209, 839.7891
627.5030, 847.4040
627.9851, 855.2344
628.4672, 863.1824
628.9493, 870.7327
629.4315, 877.6494
629.9136, 884.3087
630.3957, 890.9068
630.8778, 897.6270
631.3599, 904.9516
631.8420, 914.0370
632.3242, 923.0834
632.8063, 930.6835
633.2884, 936.9623
633.7705, 943.0541
634.2526, 949.5973
634.7347, 955.8381
635.2169, 961.5085
635.6990, 966.5406
636.1811, 971.0751
636.6632, 975.1890
637.1453, 978.7148
637.6274, 981.3608
638.1096, 982.9980
638.5917, 984.9187
639.0738, 987.4436
639.5559, 989.5081
640.0380, 989.5103
640.5201, 987.8162
641.0023, 986.1437
641.4844, 985.1681
641.9665, 983.8568
642.4486, 980.9056
642.9307, 976.7523
643.4128, 972.4037
643.8950, 968.9229
644.3771, 964.7039
644.8592, 958.6378
645.3413, 951.0641
645.8234, 943.4919
646.3055, 936.5498
646.7877, 929.3966
647.2698, 921.8341
647.7519, 913.7865
648.2340, 905.6907
648.7161, 897.6700
649.1982, 889.2997
649.6804, 880.2732
650.1625, 870.6370
650.6446, 860.7939
651.1267, 850.7585
651.6088, 840.7970
652.0909, 831.3299
652.5731, 822.2608
653.0552, 813.3211
653.5373, 804.5661
654.0194, 795.8040
654.5015, 786.4904
654.9836, 777.0603
655.4658, 768.0933
655.9479, 760.1257
656.4300, 752.2441
656.9121, 743.9862
657.3942, 735.6233
657.8763, 728.0009
658.3585, 721.3434
658.8406, 714.7601
659.3227, 707.9288
659.8048, 700.8987
660.2869, 694.2611
660.7690, 688.0046
661.2512, 682.0430
661.7333, 676.4912
662.2154, 671.1810
662.6975, 665.8028
663.1796, 660.3478
663.6617, 655.0748
664.1439, 650.2300
664.6260, 645.6140
665.1081, 641.0695
665.5902, 636.6706
666.0723, 632.2048
666.5544, 627.5313
667.0366, 622.8622
667.5187, 618.3495
668.0008, 613.8055
668.4829, 609.9150
668.9650, 607.0062
669.4471, 604.4983
669.9293, 601.2499
670.4114, 597.2485
670.8935, 593.9008
671.3756, 591.7588
671.8577, 590.1702
672.3398, 588.0070
672.8220, 585.4155
673.3041, 582.9501
673.7862, 580.9358
674.2683, 579.0893
674.7504, 577.1826
675.2325, 575.2419
675.7147, 573.4867
676.1968, 572.2459
676.6789, 570.9216
677.1610, 569.1954
677.6431, 567.0242
678.1252, 565.1617
678.6074, 563.7162
679.0895, 562.4103
679.5716, 561.1422
680.0537, 559.9034
680.5358, 558.4717
681.0179, 556.8182
681.5001, 555.2148
681.9822, 554.0311
682.4643, 553.0903
682.9464, 552.0154
683.4285, 550.6599
683.9106, 549.4531
684.3928, 548.9691
684.8749, 548.6885
685.3570, 547.9758
685.8391, 546.1199
686.3212, 544.4936
686.8033, 543.5167
687.2855, 542.8188
687.7676, 541.8063
688.2497, 540.3276
688.7318, 538.8852
689.2139, 537.5450
689.6960, 536.3289
690.1782, 535.3956
690.6603, 534.7318
691.1424, 534.0266
691.6245, 533.1241
692.1066, 532.0915
692.5887, 530.8340
693.0709, 529.4750
693.5530, 528.5605
694.0351, 529.0309
694.5172, 529.5211
694.9993, 529.0760
695.4814, 527.6082
695.9636, 526.2729
696.4457, 525.2606
696.9278, 524.3771
697.4099, 523.4094
697.8920, 522.1984
698.3741, 522.1648
698.8563, 523.6716
699.3384, 525.2350
699.8205, 525.3812
700.3026, 524.3997
700.7847, 523.5995
701.2668, 523.1091
701.7490, 522.8689
702.2311, 522.9358
702.7132, 523.1815
703.1953, 523.3958
703.6774, 523.3765
704.1595, 523.6470
704.6417, 524.8036
705.1238, 526.2361
705.6059, 527.0437
706.0880, 526.4918
706.5701, 526.5096
707.0522, 527.5477
707.5344, 529.0554
708.0165, 529.7545
708.4986, 529.5695
708.9807, 529.7348
709.4628, 530.7765
709.9449, 532.1777
710.4271, 532.6525
710.9092, 532.5546
711.3913, 533.2183
711.8734, 536.2911
712.3555, 539.5488
712.8376, 541.3353
713.3198, 541.8912
713.8019, 542.4936
714.2840, 543.3205
714.7661, 544.4556
715.2482, 545.9366
715.7303, 547.7567
716.2125, 549.7592
716.6946, 551.9493
717.1767, 554.3480
717.6588, 557.2325
718.1409, 560.4556
718.6230, 562.3361
719.1052, 562.8572
719.5873, 563.6971
720.0694, 566.5199
720.5515, 570.3304
721.0336, 573.9738
721.5157, 577.2845
721.9979, 580.4177
722.4800, 583.1967
722.9621, 586.0185
723.4442, 589.2699
723.9263, 593.4607
724.4084, 596.9719
724.8906, 599.4219
725.3727, 601.6830
725.8548, 604.6757
726.3369, 608.4716
726.8190, 612.3214
727.3011, 616.1430
727.7833, 619.8112
728.2654, 622.8301
728.7475, 625.5213
729.2296, 628.7344
729.7117, 633.0370
730.1938, 637.2130
730.6760, 640.2370
731.1581, 642.6047
731.6402, 645.1310
732.1223, 648.0506
732.6044, 651.1013
733.0865, 654.3846
733.5687, 657.7077
734.0508, 660.6856
734.5329, 663.3284
735.0150, 665.6249
735.4971, 667.5385
735.9792, 669.1832
736.4614, 670.9147
736.9435, 672.6508
737.4256, 673.9614
737.9077, 674.3680
738.3898, 674.4568
738.8719, 674.7846
739.3541, 675.2506
739.8362, 675.4979
740.3183, 675.2340
740.8004, 674.8812
741.2825, 674.9085
741.7646, 675.1502
742.2468, 674.0239
742.7289, 671.0975
743.2110, 667.9026
743.6931, 665.2188
744.1752, 662.8757
744.6573, 659.7792
745.1395, 655.9747
745.6216, 652.0974
746.1037, 648.5926
746.5858, 645.3102
747.0679, 642.1436
747.5500, 639.0740
748.0322, 636.1162
748.5143, 632.9373
748.9964, 630.1477
749.4785, 628.4554
749.9606, 628.4005
750.4427, 626.4792
750.9249, 621.7856
751.4070, 616.7098
751.8891, 612.9348
752.3712, 610.4136
752.8533, 608.1702
753.3354, 606.1857
753.8176, 604.2315
754.2997, 602.2855
754.7818, 600.1636
755.2639, 597.3502
755.7460, 593.6302
756.2281, 590.3118
756.7103, 588.5152
757.1924, 587.2051
757.6745, 585.4635
758.1566, 582.4762
758.6387, 580.5138
759.1208, 579.9325
759.6030, 579.9157
760.0851, 579.7181
760.5672, 579.3353
761.0493, 578.5975
761.5314, 577.4011
762.0135, 576.1771
762.4957, 575.5471
762.9778, 575.2390
763.4599, 574.6540
763.9420, 573.3845
764.4241, 572.4744
764.9063, 572.8058
765.3884, 573.6990
765.8705, 574.3260
766.3526, 574.7464
766.8347, 574.5924
767.3168, 573.5482
767.7990, 572.2026
768.2811, 571.4777
768.7632, 571.4064
769.2453, 571.3282
769.7274, 571.1401
770.2095, 570.8257
770.6917, 570.2585
771.1738, 569.5552
771.6559, 568.9625
772.1380, 568.5571
772.6201, 568.3012
773.1022, 568.3034
773.5844, 568.4158
774.0665, 568.3831
774.5486, 568.3459
775.0307, 567.8852
775.5128, 566.7768
775.9949, 565.3353
776.4771, 564.3311
776.9592, 563.7809
777.4413, 563.0515
777.9234, 561.8795
778.4055, 560.5577
778.8876, 559.5793
779.3698, 558.8181
779.8519, 557.9420
780.3340, 556.5706
780.8161, 555.3018
781.2982, 554.4495
781.7803, 553.9008
782.2625, 553.3780
782.7446, 553.1725
783.2267, 552.4391
783.7088, 550.7913
784.1909, 548.6149
784.6730, 547.0671
785.1552, 546.1330
785.6373, 545.0802
786.1194, 541.9187
786.6015, 541.3218
787.0836, 540.3852
787.5657, 539.1273
788.0479, 536.5844
788.5300, 535.7005
789.0121, 534.1520
789.4942, 532.5762
789.9763, 531.9258
790.4584, 529.5703
790.9406, 528.9049
791.4227, 527.5650
791.9048, 526.3368
792.3869, 524.0392
792.8690, 522.0524
793.3511, 520.3541
793.8333, 518.8526
794.3154, 517.7914
794.7975, 516.6602
795.2796, 514.7167
795.7617, 512.1610
796.2438, 509.7218
796.7260, 507.5478
797.2081, 505.6790
797.6902, 504.3820
798.1723, 503.4656
798.6544, 502.1857
799.1365, 500.5376
799.6187, 498.5114
800.1008, 495.8916
800.5829, 493.0233
801.0650, 491.0220
801.5471, 489.7920
802.0292, 488.6743
802.5114, 487.4307
802.9935, 486.0566
803.4756, 484.7225
803.9577, 483.2850
804.4398, 481.2989
804.9219, 477.8419
805.4041, 474.6536
805.8862, 472.1937
806.3683, 470.3824
806.8504, 469.0145
807.3325, 468.2213
807.8146, 467.1823
808.2968, 465.4150
808.7789, 463.3384
809.2610, 462.0210
809.7431, 461.2741
810.2252, 460.3234
810.7073, 459.2015
811.1895, 457.3439
811.6716, 453.7316
812.1537, 448.9662
812.6358, 445.2568
813.1179, 443.7196
813.6000, 442.1950
814.0822, 440.2227
814.5643, 437.9071
815.0464, 435.6603
815.5285, 433.4940
816.0106, 431.2521
816.4927, 428.6930
816.9749, 426.2140
817.4570, 424.6627
817.9391, 423.7227
818.4212, 422.4350
818.9033, 419.9995
819.3854, 417.5208
819.8676, 415.5537
820.3497, 413.9169
820.8318, 412.0044
821.3139, 409.7492
821.7960, 407.3971
822.2781, 404.9527
822.7603, 402.4991
823.2424, 400.1684
823.7245, 397.9212
824.2066, 395.5832
824.6887, 392.9957
825.1708, 390.3654
825.6530, 387.8090
826.1351, 385.3183
826.6172, 382.9558
827.0993, 380.7916
827.5814, 378.6498
828.0635, 376.4927
828.5457, 374.3326
829.0278, 372.1227
829.5099, 369.8625
829.9920, 367.6467
830.4741, 365.5020
830.9562, 363.4179
831.4384, 361.3760
831.9205, 359.3607
832.4026, 357.3148
832.8847, 355.1385
833.3668, 352.9969
833.8489, 350.9038
834.3311, 348.9085
834.8132, 347.1219
835.2953, 345.7180
835.7774, 344.1741
836.2595, 342.4459
836.7416, 340.5522
837.2238, 338.4195
837.7059, 336.0709
838.1880, 334.0187
838.6701, 332.4336
839.1522, 330.9466
839.6343, 329.3233
840.1165, 327.5072
840.5986, 325.4169
841.0807, 322.7337
841.5628, 320.2676
842.0449, 318.3086
842.5270, 316.5731
843.0092, 314.8228
843.4913, 313.0696
843.9734, 311.1967
844.4555, 309.1439
844.9376, 307.1607
845.4197, 305.6558
845.9019, 304.4273
846.3840, 303.0072
846.8661, 301.2807
847.3482, 299.5025
847.8303, 297.7689
848.3124, 296.0797
848.7946, 294.4302
849.2767, 292.8313
849.7588, 291.2745
850.2409, 289.7480
850.7230, 288.2824
851.2051, 286.9375
851.6873, 285.6938
852.1694, 284.3692
852.6515, 282.9442
853.1336, 281.4353
853.6157, 279.7828
854.0978, 278.0780
854.5800, 276.3587
855.0621, 274.6148
855.5442, 272.9977
856.0263, 271.6196
856.5084, 270.3100
856.9905, 269.0287
857.4727, 267.7840
857.9548, 266.4364
858.4369, 264.9763
858.9190, 263.5025
859.4011, 262.0252
859.8832, 260.5876
860.3654, 259.2474
860.8475, 258.0155
861.3296, 256.9479
861.8117, 256.3142
862.2938, 255.6093
862.7759, 254.4146
863.2581, 252.8437
863.7402, 251.8079
864.2223, 251.5269
864.7044, 251.0345
865.1865, 249.8461
865.6686, 248.2216
866.1508, 246.7552
866.6329, 245.4455
867.1150, 244.3477
867.5971, 243.6868
868.0792, 243.0488
868.5613, 242.1178
869.0435, 241.0018
869.5256, 240.0819
870.0077, 239.4778
870.4898, 238.8965
870.9719, 238.2813
871.4540, 237.6562
871.9362, 237.1227
872.4183, 236.6527
872.9004, 236.0025
873.3825, 235.0545
873.8646, 233.9950
874.3467, 232.9102
874.8289, 231.8594
875.3110, 230.9455
875.7931, 230.3324
876.2752, 229.6880
876.7573, 228.9164
877.2394, 228.1643
877.7216, 227.6292
878.2037, 227.3289
878.6858, 226.9984
879.1679, 226.6268
879.6500, 226.1130
880.1321, 225.1779
880.6143, 224.0918
881.0964, 223.2696
881.5785, 222.8367
882.0606, 222.4410
882.5427, 221.9158
883.0248, 221.4237
883.5070, 221.1134
883.9891, 221.0477
884.4712, 220.7426
884.9533, 220.1647
885.4354, 219.5248
885.9175, 218.9580
886.3997, 218.4542
886.8818, 218.0134
887.3639, 217.6283
887.8460, 217.2616
888.3281, 216.8309
888.8102, 216.4716
889.2924, 216.2974
889.7745, 216.2941
890.2566, 216.2782
890.7387, 216.3267
891.2208, 216.1148
891.7029, 215.3804
892.1851, 214.3787
892.6672, 213.7420
893.1493, 213.4216
893.6314, 213.2127
894.1135, 213.0690
894.5956, 212.9458
895.0778, 212.8585
895.5599, 212.7700
896.0420, 212.5788
896.5241, 212.2004
897.0062, 211.9091
897.4883, 211.8198
897.9705, 211.7401
898.4526, 211.2030
898.9347, 210.3343
899.4168, 209.7547
899.8989, 209.7097
900.3810, 209.6999
900.8632, 209.2551
901.3453, 208.6533
901.8274, 208.2143
902.3095, 208.1944
902.7916, 207.9773
903.2737, 207.4670
903.7559, 206.8858
904.2380, 206.4553
904.7201, 206.1478
905.2022, 205.7469
905.6843, 205.2437
906.1664, 204.6543
906.6486, 203.9863
907.1307, 203.2526
907.6128, 202.4209
908.0949, 201.4852
908.5770, 200.6555
909.0591, 200.0939
909.5413, 199.4538
910.0234, 198.5514
910.5055, 197.4483
910.9876, 196.4590
911.4697, 195.5916
911.9518, 194.9818
912.4340, 195.0886
912.9161, 195.1851
913.3982, 194.3560
913.8803, 192.9124
914.3624, 191.7292
914.8445, 191.5190
915.3267, 190.9616
915.8088, 189.6875
916.2909, 188.0516
916.7730, 186.6830
917.2551, 185.5791
917.7372, 184.8764
918.2194, 184.6988
918.7015, 184.6044
919.1836, 184.2667
919.6657, 183.6510
920.1478, 182.6779
920.6299, 181.1278
921.1121, 179.6485
921.5942, 178.2700
922.0763, 177.0300
922.5584, 175.9585
923.0405, 175.0565
923.5226, 174.3430
924.0048, 173.8310
924.4869, 173.3658
924.9690, 172.8241
925.4511, 172.2500
925.9332, 171.7736
926.4153, 171.3795
926.8975, 170.7200
927.3796, 169.1270
927.8617, 167.9112
928.3438, 167.6801
928.8259, 168.1717
929.3080, 167.9673
929.7902, 167.0785
930.2723, 166.1515
930.7544, 165.4889
931.2365, 164.9208
931.7186, 164.2749
932.2007, 163.5828
932.6829, 162.9107
933.1650, 162.1913
933.6471, 161.6234
934.1292, 161.3706
934.6113, 161.1545
935.0934, 160.5060
935.5756, 159.4270
936.0577, 158.6387
936.5398, 158.2853
937.0219, 157.9839
937.5040, 157.1826
937.9861, 156.3237
938.4683, 155.9632
938.9504, 156.2692
939.4325, 156.6821
939.9146, 157.6142
940.3967, 157.9679
940.8788, 156.8905
941.3610, 154.5460
941.8431, 153.0798
942.3252, 152.4594
942.8073, 152.0873
943.2894, 151.5789
943.7715, 151.1499
944.2537, 151.1751
944.7358, 151.4788
945.2179, 151.4043
945.7000, 150.4571
946.1821, 149.5935
946.6642, 148.9306
947.1464, 148.4683
947.6285, 148.2873
948.1106, 148.3436
948.5927, 148.2967
949.0748, 148.0313
949.5569, 147.7400
950.0391, 147.6649
950.5212, 147.6229
951.0033, 147.3971
951.4854, 146.8522
951.9675, 146.3269
952.4496, 145.7765
952.9318, 145.3318
953.4139, 145.1321
953.8960, 145.1365
954.3781, 145.1373
954.8602, 145.1257
955.3423, 145.0525
955.8245, 144.8894
956.3066, 144.6484
956.7887, 144.2685
957.2708, 143.7870
957.7529, 143.5004
958.2350, 143.5467
958.7172, 143.4736
959.1993, 143.1403
959.6814, 142.6404
960.1635, 142.0757
960.6456, 141.5121
961.1277, 141.1941
961.6099, 141.3402
962.0920, 141.4644
962.5741, 141.3557
963.0562, 141.0400
963.5383, 140.5006
964.0204, 139.4819
964.5026, 139.0624
964.9847, 139.3933
965.4668, 139.8200
965.9489, 139.6973
966.4310, 139.2483
966.9131, 138.9151
967.3953, 138.7241
967.8774, 138.5835
968.3595, 138.4260
968.8416, 138.3354
969.3237, 138.3936
969.8058, 138.5561
970.2880, 138.6438
970.7701, 138.6628
971.2522, 138.5386
971.7343, 138.1827
972.2164, 137.7755
972.6985, 137.6458
973.1807, 137.6364
973.6628, 137.4383
974.1449, 136.7370
974.6270, 136.1998
975.1091, 136.0555
975.5912, 136.0206
976.0734, 135.8041
976.5555, 135.4001
977.0376, 135.2437
977.5197, 135.3722
978.0018, 135.4796
978.4839, 135.1774
978.9661, 134.8300
979.4482, 134.5453
979.9303, 135.2243
980.4124, 135.5636
980.8945, 135.5814
981.3766, 134.3147
981.8588, 134.7066
982.3409, 134.4339
982.8230, 134.1339
983.3051, 134.7593
983.7872, 133.6794
984.2693, 134.2901
984.7515, 134.2260
985.2336, 134.4707
985.7157, 133.2556
986.1978, 132.9728
986.6799, 132.6543
987.1620, 132.4920
987.6442, 132.5230
988.1263, 132.6039
988.6084, 132.6366
989.0905, 132.6136
989.5726, 132.5005
990.0547, 132.3028
990.5369, 132.0902
991.0190, 131.8389
991.5011, 131.6458
991.9832, 131.6007
992.4653, 131.6508
992.9474, 131.6038
993.4296, 131.4492
993.9117, 131.2975
994.3938, 131.1656
994.8759, 131.0873
995.3580, 131.2566
995.8401, 131.4625
996.3223, 131.3298
996.8044, 130.4731
997.2865, 129.9312
997.7686, 130.0529
998.2507, 130.2739
998.7328, 130.1413
999.2150, 129.6770
999.6971, 129.3559
1000.179, 129.1853
1000.661, 129.0895
1001.143, 129.1134
1001.626, 129.1112
1002.108, 128.9610
1002.590, 128.6806
1003.072, 128.3502
1003.554, 127.8634
1004.036, 127.6587
1004.518, 127.9570
1005.000, 128.3368
1005.482, 127.9768
1005.965, 127.1215
1006.447, 126.4037
1006.929, 125.9611
1007.411, 125.7037
1007.893, 125.7505
1008.375, 125.8343
1008.857, 125.7951
1009.339, 125.6423
1009.822, 125.1029
1010.304, 124.1272
1010.786, 123.3292
1011.268, 123.2400
1011.750, 123.4640
1012.232, 123.6171
1012.714, 123.6678
1013.196, 123.5368
1013.678, 122.9998
1014.161, 122.5386
1014.643, 122.2100
1015.125, 122.0071
1015.607, 122.0231
1016.089, 122.1927
1016.571, 122.0551
1017.053, 121.5173
1017.535, 120.9798
1018.018, 120.7430
1018.500, 120.6360
1018.982, 120.5348
1019.464, 120.4313
1019.946, 120.3693
1020.428, 120.3843
1020.910, 120.3061
1021.392, 120.0030
1021.874, 119.6261
1022.357, 119.5189
1022.839, 119.5690
1023.321, 119.5125
1023.803, 119.1114
1024.285, 118.7965
1024.767, 118.8087
1025.249, 118.8309
1025.731, 118.4930
1026.214, 117.7871
1026.696, 117.3805
1027.178, 117.3074
1027.660, 117.3779
1028.142, 117.6052
1028.624, 117.7811
1029.106, 117.5419
1029.588, 116.9941
1030.070, 117.0866
1030.553, 118.4085
1031.035, 119.0475
1031.517, 118.3791
1031.999, 117.0754
1032.481, 116.1529
1032.963, 115.5800
1033.445, 115.3029
1033.927, 115.3739
1034.410, 115.4782
1034.892, 115.4974
1035.374, 115.4799
1035.856, 115.4701
1036.338, 115.4699
1036.820, 115.3718
1037.302, 115.1766
1037.784, 114.9424
1038.266, 114.7036
1038.749, 114.4468
1039.231, 114.1098
1039.713, 113.7502
1040.195, 113.5096
1040.677, 113.2893
1041.159, 113.4840
1041.641, 114.3509
1042.123, 115.2003
1042.605, 114.8937
1043.088, 113.9213
1043.570, 113.9175
1044.052, 115.0503
1044.534, 115.7496
1045.016, 114.7777
1045.498, 113.5377
1045.980, 112.6784
1046.462, 112.1691
1046.945, 111.8924
1047.427, 111.8534
1047.909, 111.8604
1048.391, 111.8629
1048.873, 111.8593
1049.355, 111.8455
1049.837, 111.8258
1050.319, 111.8036
1050.802, 111.7703
1051.284, 111.7771
1051.766, 111.8837
1052.248, 111.8972
1052.730, 111.5626
1053.212, 111.0437
1053.694, 110.8700
1054.176, 110.9941
1054.658, 111.1926
1055.141, 111.5002
1055.623, 111.6887
1056.105, 111.5723
1056.587, 111.3494
1057.069, 111.3136
1057.551, 111.4693
1058.033, 111.6712
1058.515, 111.9162
1058.997, 112.0793
1059.480, 111.8294
1059.962, 110.9812
1060.444, 111.7628
1060.926, 112.2046
1061.408, 112.3248
1061.890, 111.1607
1062.372, 111.6551
1062.854, 111.4849
1063.337, 111.2874
1063.819, 112.0153
1064.301, 111.7958
1064.783, 111.8470
1065.265, 110.4237
1065.747, 111.2107
1066.229, 111.6580
1066.711, 111.7837
1067.193, 110.6250
1067.676, 111.1249
1068.158, 110.9601
1068.640, 110.7680
1069.122, 111.5013
1069.604, 110.5294
1070.086, 111.2481
1070.568, 111.2919
1071.050, 111.6445
1071.532, 111.3284
1072.015, 111.2189
1072.497, 111.4979
1072.979, 111.5035
1073.461, 111.4701
1073.943, 111.6322
1074.425, 111.8379
1074.907, 111.8711
1075.389, 111.7173
1075.872, 111.4992
1076.354, 111.1453
1076.836, 110.8809
1077.318, 110.7813
1077.800, 110.7955
1078.282, 110.8369
1078.764, 110.8915
1079.246, 110.9168
1079.729, 110.9100
1080.211, 110.8382
1080.693, 110.6655
1081.175, 110.4284
1081.657, 110.1415
1082.139, 109.8042
1082.621, 109.5765
1083.103, 109.4588
1083.585, 109.3421
1084.068, 109.2233
1084.550, 109.0189
1085.032, 108.5300
1085.514, 107.9321
1085.996, 107.5779
1086.478, 107.7586
1086.960, 107.5768
1087.442, 106.9073
1087.924, 106.1809
1088.406, 105.8056
1088.889, 105.6529
1089.371, 105.5331
1089.853, 105.4193
1090.335, 105.2168
1090.817, 104.7641
1091.299, 104.3852
1091.781, 104.1730
1092.263, 104.0545
1092.746, 103.9690
1093.228, 103.8744
1093.710, 103.4944
1094.192, 102.7409
1094.674, 102.1086
1095.156, 102.0458
1095.638, 102.0988
1096.120, 101.9392
1096.603, 101.6057
1097.085, 101.4589
1097.567, 101.5093
1098.049, 101.4469
1098.531, 101.1224
1099.013, 100.7147
1099.495, 100.3855
1099.977, 100.0958
1100.459, 99.77397
1100.942, 99.34315
1101.424, 99.15263
1101.906, 99.30644
1102.388, 99.36185
1102.870, 98.92023
1103.352, 98.24565
1103.834, 97.82250
1104.316, 97.59502
1104.798, 97.41789
1105.281, 97.31416
1105.763, 97.13890
1106.245, 96.81700
1106.727, 96.50563
1107.209, 96.42646
1107.691, 96.51602
1108.173, 96.50954
1108.655, 96.39657
1109.138, 96.26978
1109.620, 96.19296
1110.102, 96.10186
1110.584, 95.98661
1111.066, 95.82716
1111.548, 95.50358
1112.030, 95.02059
1112.512, 94.83445
1112.995, 95.06629
1113.477, 95.31737
1113.959, 95.01724
1114.441, 94.75378
1114.923, 95.30326
1115.405, 96.62322
1115.887, 96.78611
1116.369, 95.56666
1116.851, 94.45564
1117.333, 93.99264
1117.816, 93.85014
1118.298, 93.65356
1118.780, 93.46921
1119.262, 93.42509
1119.744, 93.67470
1120.226, 93.62615
1120.708, 93.11375
1121.190, 92.67696
1121.673, 92.71510
1122.155, 93.00445
1122.637, 93.02944
1123.119, 92.85111
1123.601, 92.63755
1124.083, 92.43174
1124.565, 92.21931
1125.047, 91.93464
1125.530, 91.72197
1126.012, 91.77827
1126.494, 92.03609
1126.976, 92.15716
1127.458, 92.12668
1127.940, 91.92559
1128.422, 91.18288
1128.904, 90.67628
1129.386, 90.93770
1129.869, 91.53324
1130.351, 91.83366
1130.833, 91.84178
1131.315, 91.73577
1131.797, 91.53061
1132.279, 91.28606
1132.761, 90.27212
1133.243, 90.98270
1133.725, 91.35355
1134.208, 91.40273
1134.690, 90.16763
1135.172, 90.59110
1135.654, 90.34989
1136.136, 90.08144
1136.618, 90.73834
1137.100, 89.69007
1137.582, 90.33231
1138.065, 90.29959
1138.547, 90.57585
1139.029, 90.18333
1139.511, 89.99738
1139.993, 90.48042
1140.475, 90.59306
1140.957, 89.08843
1141.439, 88.85560
1141.922, 88.97990
1142.404, 89.18796
1142.886, 89.49783
1143.368, 89.64661
1143.850, 89.58401
1144.332, 89.43365
1144.814, 89.22338
1145.296, 89.00595
1145.778, 88.95509
1146.260, 89.01466
1146.743, 89.01903
1147.225, 88.84541
1147.707, 88.68880
1148.189, 88.57027
1148.671, 88.48663
1149.153, 88.41875
1149.635, 88.38142
1150.117, 88.54327
1150.600, 88.85214
1151.082, 88.93497
1151.564, 88.36848
1152.046, 87.82242
1152.528, 87.51689
1153.010, 87.37824
1153.492, 87.34133
1153.974, 87.39848
1154.457, 87.48837
1154.939, 87.60317
1155.421, 87.64148
1155.903, 87.46293
1156.385, 87.25809
1156.867, 87.12996
1157.349, 87.06070
1157.831, 87.00172
1158.313, 86.95127
1158.796, 87.03676
1159.278, 87.30497
1159.760, 87.49085
1160.242, 87.22374
1160.724, 86.90072
1161.206, 86.90626
1161.688, 87.18797
1162.170, 87.25806
1162.652, 87.10130
1163.135, 86.87873
1163.617, 86.59129
1164.099, 86.40086
1164.581, 86.58090
1165.063, 86.87796
1165.545, 87.01170
1166.027, 86.93587
1166.509, 86.89433
1166.992, 86.88956
1167.474, 86.90849
1167.956, 86.97640
1168.438, 87.00924
1168.920, 86.86626
1169.402, 86.63184
1169.884, 86.40092
1170.366, 86.12818
1170.849, 86.14874
1171.331, 86.57617
1171.813, 86.89636
1172.295, 86.73074
1172.777, 86.37127
1173.259, 86.30550
1173.741, 86.40581
1174.223, 86.41896
1174.705, 86.15282
1175.188, 86.03662
1175.670, 86.13053
1176.152, 86.22646
1176.634, 86.08292
1177.116, 85.25344
1177.598, 86.01246
1178.080, 86.43172
1178.562, 86.52948
1179.044, 85.34281
1179.527, 85.81467
1180.009, 85.62189
1180.491, 85.40186
1180.973, 86.10721
1181.455, 85.10735
1181.937, 85.79802
1182.419, 85.81387
1182.901, 86.13856
1183.384, 85.79443
1183.866, 85.65690
1184.348, 86.18838
1184.830, 86.34943
1185.312, 85.92834
1185.794, 86.27267
1186.276, 85.24944
1186.758, 85.42627
1187.240, 86.12086
1187.723, 85.73336
1188.205, 86.08992
1188.687, 86.16311
1189.169, 85.39754
1189.651, 85.52208
1190.133, 85.74557
1190.615, 85.73965
1191.097, 85.45995
1191.579, 85.22654
1192.062, 85.20619
1192.544, 85.23329
1193.026, 85.28664
1193.508, 85.31850
1193.990, 85.18015
1194.472, 84.92952
1194.954, 84.76653
1195.436, 84.72949
1195.919, 84.76527
1196.401, 84.92671
1196.883, 85.07700
1197.365, 85.19833
1197.847, 85.24421
1198.329, 84.01696
1198.811, 84.75172
1199.293, 85.14672
1199.776, 85.22013
1200.258, 84.00919
1200.740, 84.45683
1201.222, 84.23978
1201.704, 83.99549
1202.186, 84.67657
1202.668, 83.65245
1203.150, 84.31885
1203.632, 84.31043
1204.115, 84.61077
1204.597, 84.24240
1205.079, 84.08062
1205.561, 84.58782
1206.043, 84.72460
1206.525, 84.27925
1207.007, 84.59931
1207.489, 83.55183
1207.971, 83.70438
1208.454, 84.11327
1208.936, 84.21584
1209.418, 84.13689
1209.900, 84.07157
1210.382, 84.16116
1210.864, 84.37957
1211.346, 84.58839
1211.828, 84.76880
1212.311, 84.81758
1212.793, 84.59333
1213.275, 84.37671
1213.757, 84.33286
1214.239, 84.27259
1214.721, 84.00605
1215.203, 83.58173
1215.685, 83.40056
1216.167, 83.42164
1216.650, 83.42065
1217.132, 83.17399
1217.614, 83.04102
1218.096, 83.25033
1218.578, 83.49377
1219.060, 83.44946
1219.542, 83.18153
1220.024, 83.16909
1220.506, 83.37142
1220.989, 83.51366
1221.471, 83.42327
1221.953, 83.29600
1222.435, 83.12369
1222.917, 83.01395
1223.399, 83.14404
1223.881, 83.44351
1224.363, 83.53077
1224.846, 83.42754
1225.328, 83.34342
1225.810, 83.46262
1226.292, 83.49524
1226.774, 83.33024
1227.256, 83.11355
1227.738, 83.01701
1228.220, 83.01356
1228.703, 83.05418
1229.185, 83.11036
1229.667, 83.02108
1230.149, 82.39746
1230.631, 82.07101
1231.113, 82.30571
1231.595, 82.75804
1232.077, 83.03931
1232.559, 83.17345
1233.042, 83.19911
1233.524, 83.12904
1234.006, 83.03593
1234.488, 82.86501
1234.970, 82.81165
1235.452, 82.96912
1235.934, 83.15242
1236.416, 83.07893
1236.898, 82.85377
1237.381, 82.72428
1237.863, 82.69778
1238.345, 82.61544
1238.827, 82.38052
1239.309, 82.14462
1239.791, 81.89985
1240.273, 81.73291
1240.755, 81.85091
1241.238, 82.08826
1241.720, 82.11044
1242.202, 81.90858
1242.684, 81.76053
1243.166, 81.75985
1243.648, 81.72255
1244.130, 81.59175
1244.612, 81.46966
1245.094, 81.50833
1245.577, 81.63152
1246.059, 81.74307
1246.541, 81.83078
1247.023, 81.84946
1247.505, 81.74564
1247.987, 81.73878
1248.469, 81.90303
1248.951, 82.07432
1249.433, 81.98494
1249.916, 81.82445
1250.398, 81.87245
1250.880, 82.12410
1251.362, 82.13178
1251.844, 81.81307
1252.326, 81.58217
1252.808, 81.55065
1253.290, 81.54700
1253.773, 81.30730
1254.255, 81.05933
1254.737, 81.07614
1255.219, 81.33842
1255.701, 81.47303
1256.183, 81.47706
1256.665, 81.35217
1257.147, 81.07265
1257.630, 80.81544
1258.112, 80.76987
1258.594, 80.79754
1259.076, 80.75735
1259.558, 80.68391
1260.040, 80.78650
1260.522, 81.06132
1261.004, 81.27244
1261.486, 81.37595
1261.969, 81.35346
1262.451, 81.07048
1262.933, 80.77117
1263.415, 80.59206
1263.897, 80.53033
1264.379, 80.66700
1264.861, 80.95168
1265.343, 80.95384
1265.825, 80.53819
1266.308, 80.19218
1266.790, 80.34414
1267.272, 80.46999
1267.754, 80.25382
1268.236, 79.88742
1268.718, 79.93282
1269.200, 80.26606
1269.682, 80.43114
1270.165, 80.32919
1270.647, 80.18449
1271.129, 80.04768
1271.611, 79.93546
1272.093, 79.84854
1272.575, 79.79234
1273.057, 79.78054
1273.539, 79.80554
1274.021, 79.86857
1274.504, 79.97813
1274.986, 80.00772
1275.468, 79.87735
1275.950, 79.80035
1276.432, 79.86225
1276.914, 79.95903
1277.396, 79.93620
1277.878, 79.83739
1278.360, 79.70793
1278.843, 79.55335
1279.325, 79.46208
1279.807, 79.42241
1280.289, 79.53527
1280.771, 79.89583
1281.253, 80.20424
1281.735, 79.63297
1282.217, 79.13968
1282.700, 80.28088
1283.182, 82.92455
1283.664, 83.43970
1284.146, 81.60718
1284.628, 80.05906
1285.110, 79.34532
1285.592, 79.51945
1286.074, 81.72143
1286.557, 83.83070
1287.039, 83.86179
1287.521, 82.42078
1288.003, 81.68454
1288.485, 81.60600
1288.967, 81.70219
1289.449, 81.91338
1289.931, 81.91720
1290.413, 81.37609
1290.896, 80.71281
1291.378, 80.08824
1291.860, 79.54837
1292.342, 79.24232
1292.824, 79.12116
1293.306, 79.00690
1293.788, 78.86797
1294.270, 78.75979
1294.752, 78.76260
1295.235, 78.70466
1295.717, 78.48677
1296.199, 78.27931
1296.681, 78.46292
1297.163, 78.83350
1297.645, 79.02470
1298.127, 78.98945
1298.609, 78.89473
1299.092, 78.72165
1299.574, 78.62019
1300.056, 78.65245
1300.538, 78.67888
1301.020, 78.48449
1301.502, 78.22312
1301.984, 78.07319
1302.466, 78.04239
1302.948, 78.02348
1303.431, 78.01768
1303.913, 78.02479
1304.395, 78.05556
1304.877, 78.06349
##END=



