##NAMES=Brannockite
##RRUFFID=R070410
##IDEAL CHEMISTRY=KSn_2_(Li_3_Si_12_)O_30_
##LOCALITY=Foote Lithium County mine (Foote mine), Kings Mountain District, Cleveland County, North Carolina, USA
##OWNER=RRUFF
##SOURCE=Michael Scott
##DESCRIPTION=Colorless hexagonal plates associated with quartz
##STATUS=The identification of this mineral has been confirmed by single-crystal X-ray diffraction.
##URL=rruff.info/R070410
139.8220, 468.6197
140.3041, 478.8622
140.7862, 502.3582
141.2683, 527.9219
141.7504, 550.1732
142.2325, 569.8665
142.7147, 591.0958
143.1968, 617.5195
143.6789, 649.1841
144.1610, 678.6061
144.6431, 701.1975
145.1252, 725.5112
145.6074, 756.7410
146.0895, 794.6547
146.5716, 834.8052
147.0537, 871.2348
147.5358, 905.2864
148.0179, 958.2687
148.5001, 1030.520
148.9822, 1120.641
149.4643, 1232.106
149.9464, 1364.891
150.4285, 1508.904
150.9106, 1675.972
151.3928, 1854.255
151.8749, 1957.599
152.3570, 1967.095
152.8391, 1907.683
153.3212, 1781.852
153.8033, 1587.881
154.2855, 1385.346
154.7676, 1213.801
155.2497, 1071.487
155.7318, 952.7103
156.2139, 860.1964
156.6960, 789.2541
157.1782, 737.7601
157.6603, 707.1488
158.1424, 686.0890
158.6245, 668.1717
159.1066, 653.5442
159.5887, 643.6866
160.0709, 642.7719
160.5530, 645.4778
161.0351, 642.7343
161.5172, 632.2441
161.9993, 624.2756
162.4814, 629.4796
162.9636, 642.3833
163.4457, 653.6007
163.9278, 658.6459
164.4099, 660.3402
164.8920, 663.6620
165.3741, 668.9713
165.8563, 674.9068
166.3384, 682.7325
166.8205, 690.4773
167.3026, 694.1566
167.7847, 688.4681
168.2668, 678.8693
168.7490, 677.9891
169.2311, 688.9926
169.7132, 701.7806
170.1953, 712.8878
170.6774, 721.9106
171.1595, 727.7763
171.6417, 729.1272
172.1238, 727.3643
172.6059, 725.5792
173.0880, 722.9181
173.5701, 722.1169
174.0522, 724.8892
174.5344, 729.9302
175.0165, 735.7317
175.4986, 742.6408
175.9807, 749.2153
176.4628, 750.6485
176.9449, 742.8373
177.4271, 737.5143
177.9092, 740.6257
178.3913, 748.1989
178.8734, 754.8904
179.3555, 757.9604
179.8376, 758.6692
180.3197, 760.7833
180.8019, 764.8652
181.2840, 769.4701
181.7661, 775.4047
182.2482, 781.1573
182.7303, 783.7907
183.2124, 780.5250
183.6946, 775.4235
184.1767, 781.0324
184.6588, 803.9719
185.1409, 826.4572
185.6230, 845.7392
186.1051, 861.2679
186.5873, 872.4341
187.0694, 878.8241
187.5515, 880.9984
188.0336, 880.3998
188.5157, 876.5842
188.9978, 870.3439
189.4800, 860.6837
189.9621, 849.6907
190.4442, 839.4958
190.9263, 831.1693
191.4084, 823.8012
191.8905, 814.4458
192.3727, 798.2838
192.8548, 789.2450
193.3369, 793.4186
193.8190, 802.7299
194.3011, 809.4518
194.7832, 810.5016
195.2654, 808.4113
195.7475, 808.2494
196.2296, 809.2567
196.7117, 814.0963
197.1938, 826.4146
197.6759, 840.2228
198.1581, 849.5122
198.6402, 852.4070
199.1223, 852.8538
199.6044, 859.4990
200.0865, 880.7361
200.5686, 890.7274
201.0508, 882.7805
201.5329, 867.8044
202.0150, 852.8290
202.4971, 840.1253
202.9792, 829.4822
203.4613, 821.4066
203.9435, 819.5669
204.4256, 811.7283
204.9077, 790.2975
205.3898, 768.4636
205.8719, 755.6406
206.3540, 753.4301
206.8362, 756.3647
207.3183, 756.9208
207.8004, 753.1790
208.2825, 752.0344
208.7646, 757.0007
209.2467, 761.5932
209.7289, 761.7158
210.2110, 757.1165
210.6931, 750.4615
211.1752, 744.0481
211.6573, 736.5822
212.1395, 734.5309
212.6216, 744.2866
213.1037, 753.6324
213.5858, 756.8140
214.0679, 753.7242
214.5500, 747.4128
215.0322, 740.7135
215.5143, 733.7795
215.9964, 725.4763
216.4785, 706.9236
216.9606, 695.1581
217.4427, 701.7498
217.9249, 721.8771
218.4070, 741.3360
218.8891, 747.9228
219.3712, 741.2410
219.8533, 736.0325
220.3354, 732.2861
220.8176, 730.1651
221.2997, 731.0247
221.7818, 733.5769
222.2639, 735.3339
222.7460, 734.3782
223.2281, 731.0464
223.7103, 729.0330
224.1924, 728.4175
224.6745, 729.2561
225.1566, 733.1893
225.6387, 738.2622
226.1208, 741.8199
226.6030, 742.3637
227.0851, 740.1454
227.5672, 735.9977
228.0493, 726.8787
228.5314, 719.9716
229.0135, 716.3682
229.4957, 715.5096
229.9778, 717.0073
230.4599, 720.7368
230.9420, 726.0698
231.4241, 731.7933
231.9062, 739.5523
232.3884, 744.5900
232.8705, 745.6284
233.3526, 744.5196
233.8347, 741.1456
234.3168, 735.7764
234.7989, 732.3727
235.2811, 739.8876
235.7632, 767.7300
236.2453, 783.7957
236.7274, 775.4060
237.2095, 762.9374
237.6916, 760.8187
238.1738, 771.3413
238.6559, 785.6169
239.1380, 791.8490
239.6201, 786.7291
240.1022, 785.9073
240.5843, 794.1318
241.0665, 803.3129
241.5486, 809.1901
242.0307, 811.9688
242.5128, 814.9290
242.9949, 822.0127
243.4770, 833.8420
243.9592, 842.4076
244.4413, 845.8582
244.9234, 847.5298
245.4055, 847.5083
245.8876, 846.5971
246.3697, 846.4816
246.8519, 848.8206
247.3340, 853.2010
247.8161, 855.5622
248.2982, 853.4055
248.7803, 852.6113
249.2624, 857.2980
249.7446, 864.2432
250.2267, 867.4994
250.7088, 862.2702
251.1909, 853.0827
251.6730, 853.6424
252.1551, 868.3139
252.6373, 884.2153
253.1194, 901.3130
253.6015, 915.7209
254.0836, 922.4169
254.5657, 918.9384
255.0478, 909.6467
255.5300, 901.2025
256.0121, 894.1022
256.4942, 886.0266
256.9763, 872.7815
257.4584, 860.3837
257.9406, 853.4224
258.4227, 852.9445
258.9048, 856.2405
259.3869, 860.5225
259.8690, 865.7357
260.3511, 873.5853
260.8333, 884.9860
261.3154, 899.0127
261.7975, 915.0564
262.2796, 933.0389
262.7617, 952.7177
263.2438, 973.7572
263.7260, 996.3571
264.2081, 1021.464
264.6902, 1049.609
265.1723, 1079.802
265.6544, 1111.117
266.1365, 1143.676
266.6187, 1177.649
267.1008, 1214.471
267.5829, 1252.541
268.0650, 1287.960
268.5471, 1319.650
269.0292, 1351.752
269.5114, 1385.545
269.9935, 1421.645
270.4756, 1462.430
270.9577, 1510.720
271.4398, 1562.117
271.9219, 1609.119
272.4041, 1651.470
272.8862, 1702.136
273.3683, 1768.561
273.8504, 1847.859
274.3325, 1931.576
274.8146, 2018.013
275.2968, 2111.692
275.7789, 2219.742
276.2610, 2338.670
276.7431, 2456.313
277.2252, 2570.913
277.7073, 2678.669
278.1895, 2777.378
278.6716, 2871.509
279.1537, 2942.302
279.6358, 2989.611
280.1179, 3007.353
280.6000, 2983.583
281.0822, 2914.765
281.5643, 2810.121
282.0464, 2672.189
282.5285, 2499.574
283.0106, 2320.930
283.4927, 2122.302
283.9749, 1929.900
284.4570, 1765.450
284.9391, 1630.758
285.4212, 1517.286
285.9033, 1419.692
286.3854, 1339.236
286.8676, 1273.253
287.3497, 1225.540
287.8318, 1186.974
288.3139, 1155.170
288.7960, 1129.002
289.2781, 1107.382
289.7603, 1090.259
290.2424, 1076.258
290.7245, 1059.897
291.2066, 1035.501
291.6887, 1015.842
292.1708, 1006.008
292.6530, 1000.832
293.1351, 994.5949
293.6172, 985.2212
294.0993, 972.8766
294.5814, 957.5953
295.0635, 935.6816
295.5457, 917.9142
296.0278, 907.7258
296.5099, 898.9831
296.9920, 887.3597
297.4741, 872.4406
297.9562, 856.4061
298.4384, 840.5756
298.9205, 823.8229
299.4026, 815.4089
299.8847, 824.7948
300.3668, 832.8129
300.8489, 833.3715
301.3311, 827.3508
301.8131, 816.9594
302.2953, 802.4808
302.7774, 786.0566
303.2595, 779.3356
303.7416, 790.9599
304.2237, 799.8540
304.7058, 800.2048
305.1880, 796.5457
305.6701, 793.6046
306.1522, 793.1248
306.6343, 793.9604
307.1164, 794.3354
307.5985, 794.1714
308.0807, 793.8306
308.5628, 791.7701
309.0449, 790.7128
309.5270, 793.5832
310.0091, 800.1708
310.4912, 805.9252
310.9734, 805.7465
311.4555, 800.3429
311.9376, 797.7601
312.4197, 800.1714
312.9018, 803.1828
313.3839, 803.1133
313.8661, 801.3329
314.3482, 801.5001
314.8303, 806.5480
315.3124, 813.9852
315.7945, 819.4120
316.2766, 822.5640
316.7588, 825.2052
317.2409, 827.9325
317.7230, 830.8244
318.2051, 833.6257
318.6872, 834.8298
319.1693, 838.5179
319.6515, 849.5254
320.1336, 866.1956
320.6157, 881.3569
321.0978, 892.5175
321.5799, 901.0873
322.0620, 909.0131
322.5442, 916.0706
323.0263, 923.6756
323.5084, 933.5236
323.9905, 943.6254
324.4726, 949.8691
324.9547, 951.6387
325.4369, 955.4443
325.9190, 968.4495
326.4011, 991.8202
326.8832, 1011.122
327.3653, 1023.842
327.8474, 1035.073
328.3296, 1045.723
328.8117, 1057.073
329.2938, 1072.417
329.7759, 1094.177
330.2580, 1120.729
330.7401, 1144.014
331.2223, 1163.083
331.7044, 1180.145
332.1865, 1191.364
332.6686, 1202.583
333.1507, 1220.531
333.6328, 1247.048
334.1150, 1278.453
334.5971, 1310.176
335.0792, 1343.966
335.5613, 1372.696
336.0434, 1395.363
336.5255, 1414.506
337.0077, 1431.304
337.4898, 1445.612
337.9719, 1457.081
338.4540, 1466.500
338.9361, 1472.932
339.4182, 1467.613
339.9004, 1446.736
340.3825, 1418.714
340.8646, 1383.019
341.3467, 1343.586
341.8288, 1305.445
342.3109, 1270.471
342.7931, 1236.765
343.2752, 1199.886
343.7573, 1158.398
344.2394, 1123.764
344.7215, 1101.519
345.2036, 1085.237
345.6858, 1070.115
346.1679, 1055.837
346.6500, 1042.898
347.1321, 1033.896
347.6142, 1026.462
348.0963, 1012.064
348.5785, 986.9430
349.0606, 963.8975
349.5427, 954.1542
350.0248, 954.7329
350.5069, 957.8701
350.9890, 966.3642
351.4712, 973.6697
351.9533, 973.9803
352.4354, 968.1242
352.9175, 959.7433
353.3996, 949.0831
353.8817, 938.6388
354.3639, 936.1855
354.8460, 946.3232
355.3281, 953.0032
355.8102, 948.9377
356.2923, 941.2309
356.7744, 937.9992
357.2566, 941.0042
357.7387, 947.9703
358.2208, 957.0888
358.7029, 969.6324
359.1850, 976.8389
359.6671, 973.6134
360.1493, 970.9123
360.6314, 974.6061
361.1135, 982.6439
361.5956, 989.9794
362.0777, 993.6639
362.5598, 994.4848
363.0420, 994.6854
363.5241, 988.2596
364.0062, 991.6240
364.4883, 1013.358
364.9704, 1040.290
365.4525, 1062.177
365.9347, 1076.529
366.4168, 1086.622
366.8989, 1095.437
367.3810, 1103.007
367.8631, 1109.762
368.3452, 1114.979
368.8274, 1120.282
369.3095, 1123.766
369.7916, 1127.902
370.2737, 1138.588
370.7558, 1160.199
371.2379, 1188.600
371.7201, 1217.165
372.2022, 1245.781
372.6843, 1275.035
373.1664, 1303.979
373.6485, 1334.493
374.1306, 1369.348
374.6128, 1409.548
375.0949, 1450.681
375.5770, 1495.163
376.0591, 1537.905
376.5412, 1570.253
377.0233, 1591.059
377.5055, 1596.517
377.9876, 1580.900
378.4697, 1541.695
378.9518, 1496.817
379.4339, 1446.953
379.9160, 1391.107
380.3982, 1324.477
380.8803, 1251.188
381.3624, 1182.297
381.8445, 1123.603
382.3266, 1073.900
382.8087, 1028.623
383.2909, 987.6401
383.7730, 952.5003
384.2551, 924.3642
384.7372, 901.2848
385.2193, 881.4861
385.7014, 864.8069
386.1836, 852.4551
386.6657, 847.1155
387.1478, 849.4568
387.6299, 846.0449
388.1120, 828.4640
388.5941, 814.8701
389.0763, 814.6795
389.5584, 821.3736
390.0405, 824.1818
390.5226, 817.7253
391.0047, 807.8117
391.4868, 804.1742
391.9690, 807.6109
392.4511, 809.7387
392.9332, 807.0297
393.4153, 803.3953
393.8974, 802.4756
394.3795, 804.3085
394.8617, 807.0799
395.3438, 812.6752
395.8259, 817.7076
396.3080, 814.6141
396.7901, 802.2480
397.2722, 790.9083
397.7544, 788.6423
398.2365, 793.5703
398.7186, 794.6157
399.2007, 784.4818
399.6828, 778.6596
400.1649, 789.0169
400.6471, 806.2726
401.1292, 813.3831
401.6113, 804.7070
402.0934, 790.6485
402.5755, 786.9317
403.0576, 798.7553
403.5398, 805.2878
404.0219, 803.8078
404.5040, 800.4152
404.9861, 797.0220
405.4682, 794.3481
405.9503, 793.3217
406.4325, 794.7258
406.9146, 797.7508
407.3967, 799.6282
407.8788, 800.4940
408.3609, 799.8356
408.8430, 794.3692
409.3252, 789.5400
409.8073, 791.4102
410.2894, 800.3276
410.7715, 808.2076
411.2536, 805.6342
411.7357, 795.2707
412.2179, 791.5518
412.7000, 797.4521
413.1821, 805.0964
413.6642, 809.3928
414.1463, 811.5390
414.6284, 813.6329
415.1106, 816.6201
415.5927, 818.9953
416.0748, 818.7258
416.5569, 816.8317
417.0390, 816.1719
417.5211, 817.4826
418.0033, 821.3954
418.4854, 830.1321
418.9675, 847.3429
419.4496, 856.0861
419.9317, 846.0975
420.4138, 835.3531
420.8960, 836.0125
421.3781, 846.9200
421.8602, 861.9478
422.3423, 878.0648
422.8244, 893.3419
423.3065, 898.9478
423.7887, 885.4319
424.2708, 876.8698
424.7529, 876.9887
425.2350, 881.7061
425.7171, 889.1332
426.1992, 898.2847
426.6814, 906.7784
427.1635, 913.1568
427.6456, 917.3008
428.1277, 915.7870
428.6098, 903.2280
429.0919, 895.4761
429.5741, 906.0424
430.0562, 925.0504
430.5383, 937.4147
431.0204, 937.0634
431.5025, 934.8985
431.9846, 939.0233
432.4668, 948.6757
432.9489, 961.4644
433.4310, 977.1053
433.9131, 994.6951
434.3952, 1014.001
434.8773, 1035.287
435.3595, 1053.932
435.8416, 1064.225
436.3237, 1076.658
436.8058, 1100.011
437.2879, 1130.882
437.7701, 1158.626
438.2522, 1177.139
438.7343, 1193.538
439.2164, 1226.362
439.6985, 1286.807
440.1806, 1344.128
440.6628, 1384.855
441.1449, 1433.432
441.6270, 1509.479
442.1091, 1609.443
442.5912, 1714.206
443.0733, 1806.523
443.5555, 1893.061
444.0376, 2000.844
444.5197, 2134.937
445.0018, 2276.321
445.4839, 2420.766
445.9660, 2568.990
446.4482, 2722.868
446.9303, 2882.374
447.4124, 3044.555
447.8945, 3208.752
448.3766, 3374.272
448.8587, 3535.254
449.3409, 3690.689
449.8230, 3853.218
450.3051, 4028.697
450.7872, 4220.806
451.2693, 4448.382
451.7514, 4725.503
452.2336, 5018.239
452.7157, 5311.308
453.1978, 5614.238
453.6799, 5941.953
454.1620, 6297.821
454.6441, 6667.833
455.1263, 7038.727
455.6084, 7416.636
456.0905, 7758.052
456.5726, 8114.207
457.0547, 8372.850
457.5368, 8504.531
458.0190, 8512.626
458.5011, 8405.438
458.9832, 8185.002
459.4653, 7855.262
459.9474, 7393.183
460.4295, 6798.666
460.9117, 6191.813
461.3938, 5566.861
461.8759, 4975.796
462.3580, 4456.800
462.8401, 4005.072
463.3222, 3603.256
463.8044, 3245.774
464.2865, 2934.515
464.7686, 2679.562
465.2507, 2475.237
465.7328, 2301.203
466.2149, 2149.840
466.6971, 2020.540
467.1792, 1915.256
467.6613, 1844.091
468.1434, 1777.562
468.6255, 1713.290
469.1076, 1655.457
469.5898, 1608.641
470.0719, 1571.021
470.5540, 1537.711
471.0361, 1505.282
471.5182, 1475.369
472.0003, 1452.766
472.4825, 1440.018
472.9646, 1428.053
473.4467, 1407.670
473.9288, 1393.110
474.4109, 1396.415
474.8930, 1416.783
475.3752, 1440.716
475.8573, 1464.559
476.3394, 1485.423
476.8215, 1494.862
477.3036, 1492.571
477.7857, 1496.076
478.2679, 1515.209
478.7500, 1544.760
479.2321, 1573.891
479.7142, 1606.550
480.1963, 1629.243
480.6784, 1644.867
481.1606, 1645.760
481.6427, 1619.475
482.1248, 1569.148
482.6069, 1512.956
483.0890, 1464.178
483.5711, 1420.869
484.0533, 1370.377
484.5354, 1303.689
485.0175, 1244.696
485.4996, 1196.383
485.9817, 1156.257
486.4638, 1123.739
486.9460, 1098.077
487.4281, 1077.039
487.9102, 1060.182
488.3923, 1046.517
488.8744, 1032.948
489.3565, 1019.276
489.8387, 1006.788
490.3208, 996.0485
490.8029, 987.1165
491.2850, 980.3430
491.7671, 977.2740
492.2492, 971.8756
492.7314, 958.3107
493.2135, 943.5367
493.6956, 936.5679
494.1777, 937.5342
494.6598, 939.4166
495.1419, 936.8713
495.6241, 930.6687
496.1062, 925.7357
496.5883, 923.1461
497.0704, 920.4079
497.5525, 917.2176
498.0346, 913.8133
498.5168, 909.9278
498.9989, 905.8204
499.4810, 902.7847
499.9631, 902.4751
500.4452, 904.0662
500.9273, 904.3516
501.4095, 903.0493
501.8916, 901.5153
502.3737, 899.1637
502.8558, 897.6960
503.3379, 901.0817
503.8200, 911.8901
504.3022, 916.8274
504.7843, 903.6120
505.2664, 886.0800
505.7485, 881.4022
506.2306, 889.7544
506.7127, 901.1624
507.1949, 909.9550
507.6770, 915.1527
508.1591, 912.1736
508.6412, 891.2934
509.1233, 876.3594
509.6054, 872.3372
510.0876, 871.5455
510.5697, 868.5477
511.0518, 863.1899
511.5339, 858.6133
512.0161, 858.2256
512.4982, 859.5110
512.9803, 854.2264
513.4624, 840.8878
513.9445, 830.0936
514.4266, 825.2301
514.9088, 825.1526
515.3909, 830.1075
515.8730, 840.9801
516.3551, 845.8036
516.8372, 836.8663
517.3193, 823.3597
517.8015, 812.9000
518.2836, 805.6319
518.7657, 799.2745
519.2478, 792.6646
519.7299, 786.2094
520.2120, 780.7244
520.6942, 774.9313
521.1763, 772.7152
521.6584, 778.7775
522.1405, 783.6042
522.6226, 779.8763
523.1047, 770.6696
523.5869, 764.6187
524.0690, 766.8520
524.5511, 773.0867
525.0332, 777.1870
525.5153, 779.1503
525.9974, 778.4259
526.4796, 774.2068
526.9617, 768.3229
527.4438, 760.4445
527.9259, 751.2041
528.4080, 748.9664
528.8901, 764.1515
529.3723, 777.5186
529.8544, 774.8105
530.3365, 762.6176
530.8186, 753.5257
531.3007, 751.8798
531.7828, 755.1257
532.2650, 760.2670
532.7471, 767.8845
533.2292, 773.9729
533.7113, 780.9469
534.1934, 783.3199
534.6755, 776.5245
535.1577, 765.3557
535.6398, 756.1150
536.1219, 750.6170
536.6040, 746.7092
537.0861, 741.7214
537.5682, 736.6893
538.0504, 736.3845
538.5325, 742.2162
539.0146, 746.0161
539.4967, 740.7133
539.9788, 728.6527
540.4609, 721.7009
540.9431, 720.9576
541.4252, 723.0586
541.9073, 730.0668
542.3894, 737.8438
542.8715, 741.6808
543.3536, 741.7722
543.8358, 742.6133
544.3179, 748.4786
544.8000, 757.3149
545.2821, 759.2116
545.7642, 750.7736
546.2463, 744.6933
546.7285, 744.9920
547.2106, 748.3488
547.6927, 753.7636
548.1748, 760.6805
548.6569, 765.0278
549.1390, 765.0372
549.6211, 761.5435
550.1032, 753.0139
550.5853, 741.1383
551.0674, 733.4216
551.5496, 733.1382
552.0317, 736.5713
552.5138, 737.6775
552.9959, 735.3607
553.4780, 734.4370
553.9601, 734.6035
554.4423, 736.2574
554.9244, 742.1441
555.4065, 748.8248
555.8886, 749.8239
556.3707, 742.5765
556.8528, 734.8307
557.3350, 737.9028
557.8171, 750.0419
558.2992, 756.1943
558.7813, 753.3477
559.2634, 749.7855
559.7455, 751.8091
560.2277, 757.1396
560.7098, 758.3824
561.1919, 753.3360
561.6740, 747.9778
562.1561, 743.9935
562.6382, 740.7286
563.1204, 736.8263
563.6025, 732.6461
564.0846, 730.6461
564.5667, 733.0106
565.0488, 738.2243
565.5309, 740.1496
566.0131, 737.4219
566.4952, 734.8489
566.9773, 732.2656
567.4594, 730.9196
567.9415, 733.6719
568.4236, 739.0108
568.9058, 740.1870
569.3879, 730.4219
569.8700, 718.7900
570.3521, 714.2462
570.8342, 715.5430
571.3163, 719.5531
571.7985, 725.6893
572.2806, 730.4637
572.7627, 728.9900
573.2448, 720.1580
573.7269, 715.5859
574.2090, 717.4542
574.6912, 720.6946
575.1733, 724.7121
575.6554, 729.1018
576.1375, 735.0477
576.6196, 742.2128
577.1017, 745.5406
577.5839, 736.7475
578.0660, 720.4917
578.5481, 713.4282
579.0302, 716.7283
579.5123, 720.9838
579.9944, 722.1226
580.4766, 721.5687
580.9587, 721.9157
581.4408, 723.1434
581.9229, 725.0452
582.4050, 729.8466
582.8871, 733.2657
583.3693, 731.6859
583.8514, 726.5469
584.3335, 720.9807
584.8156, 716.4315
585.2977, 712.8232
585.7798, 709.7148
586.2620, 706.9537
586.7441, 706.9805
587.2262, 711.9451
587.7083, 716.3546
588.1904, 716.0148
588.6725, 713.3534
589.1547, 712.0792
589.6368, 712.4119
590.1189, 714.8666
590.6010, 722.5446
591.0831, 730.9466
591.5652, 733.1961
592.0474, 729.6810
592.5295, 726.4764
593.0116, 727.6260
593.4937, 731.8732
593.9758, 735.3942
594.4579, 737.8160
594.9401, 740.3578
595.4222, 742.2247
595.9043, 745.0594
596.3864, 748.9500
596.8685, 754.5021
597.3506, 763.3533
597.8328, 777.3074
598.3149, 792.3222
598.7970, 806.1342
599.2791, 818.0850
599.7612, 825.1251
600.2433, 826.6735
600.7255, 829.1616
601.2076, 838.2146
601.6897, 853.0620
602.1718, 867.4106
602.6539, 880.5810
603.1360, 894.1772
603.6182, 906.1958
604.1003, 920.3255
604.5824, 940.6779
605.0645, 966.1103
605.5466, 991.2835
606.0287, 1013.854
606.5109, 1033.738
606.9930, 1048.154
607.4751, 1058.522
607.9572, 1077.306
608.4393, 1109.515
608.9214, 1143.728
609.4036, 1168.388
609.8857, 1183.460
610.3678, 1199.620
610.8499, 1228.932
611.3320, 1244.021
611.8141, 1235.220
612.2963, 1211.272
612.7784, 1176.057
613.2605, 1133.438
613.7426, 1093.814
614.2247, 1066.831
614.7068, 1046.918
615.1890, 1019.333
615.6711, 983.6234
616.1532, 950.4378
616.6353, 923.2304
617.1174, 899.1718
617.5995, 875.1110
618.0817, 850.9903
618.5638, 829.6352
619.0459, 811.7095
619.5280, 795.9556
620.0101, 782.1693
620.4922, 770.1556
620.9744, 759.5960
621.4565, 750.4741
621.9386, 743.0867
622.4207, 737.5475
622.9028, 734.0139
623.3849, 735.2687
623.8671, 743.4490
624.3492, 742.9783
624.8313, 723.6143
625.3134, 699.9125
625.7955, 690.0052
626.2776, 692.9761
626.7598, 696.4901
627.2419, 698.6810
627.7240, 701.2532
628.2061, 707.9484
628.6882, 714.3779
629.1703, 711.5767
629.6525, 698.9559
630.1346, 688.0320
630.6167, 692.2083
631.0988, 707.4515
631.5809, 708.6123
632.0630, 690.0144
632.5452, 680.1586
633.0273, 694.1956
633.5094, 714.3271
633.9915, 720.2441
634.4736, 712.7252
634.9557, 705.3688
635.4379, 700.3157
635.9200, 696.6552
636.4021, 693.6558
636.8842, 691.8050
637.3663, 692.9878
637.8484, 697.0842
638.3306, 700.0399
638.8127, 697.2249
639.2948, 689.8525
639.7769, 685.4346
640.2590, 684.4399
640.7411, 684.5983
641.2233, 684.3334
641.7054, 685.9511
642.1875, 693.8732
642.6696, 707.2952
643.1517, 715.5063
643.6339, 715.4405
644.1160, 710.5504
644.5981, 698.1541
645.0802, 683.9614
645.5623, 677.1507
646.0444, 679.2155
646.5266, 684.4010
647.0087, 687.9570
647.4908, 689.8192
647.9729, 689.2266
648.4550, 685.4568
648.9371, 682.1293
649.4193, 680.1912
649.9014, 678.9908
650.3835, 678.9093
650.8656, 679.4808
651.3477, 677.0378
651.8298, 665.6343
652.3120, 657.1363
652.7941, 659.0737
653.2762, 666.2460
653.7583, 672.4976
654.2404, 676.4046
654.7225, 678.7737
655.2047, 680.2761
655.6868, 680.7126
656.1689, 678.5170
656.6510, 672.7354
657.1331, 670.3907
657.6152, 674.0515
658.0974, 679.9617
658.5795, 686.9822
659.0616, 693.9829
659.5437, 695.1401
660.0258, 683.7662
660.5079, 674.1661
660.9901, 673.9619
661.4722, 676.1632
661.9543, 671.7247
662.4364, 661.5854
662.9185, 654.0854
663.4006, 654.7349
663.8828, 661.5492
664.3649, 673.0823
664.8470, 689.7518
665.3291, 695.8813
665.8112, 684.9731
666.2933, 673.1215
666.7755, 674.2937
667.2576, 684.4429
667.7397, 685.4023
668.2218, 667.7540
668.7039, 656.2908
669.1860, 660.8062
669.6682, 669.1188
670.1503, 672.7951
670.6324, 671.6876
671.1145, 667.5695
671.5966, 660.7169
672.0787, 655.6475
672.5609, 661.5286
673.0430, 676.1762
673.5251, 683.2383
674.0072, 680.3407
674.4893, 674.4966
674.9714, 668.4938
675.4536, 663.4135
675.9357, 662.4709
676.4178, 668.8593
676.8999, 672.3774
677.3820, 671.2366
677.8641, 668.7324
678.3463, 665.2939
678.8284, 662.1102
679.3105, 661.1504
679.7926, 663.0380
680.2747, 665.4482
680.7568, 665.8043
681.2390, 665.1519
681.7211, 665.7773
682.2032, 667.7858
682.6853, 671.8942
683.1674, 679.2466
683.6495, 686.0773
684.1317, 686.1359
684.6138, 677.8383
685.0959, 671.1449
685.5780, 665.9482
686.0601, 662.4484
686.5422, 662.0570
687.0244, 662.5667
687.5065, 661.9334
687.9886, 659.8325
688.4707, 656.6880
688.9528, 649.2485
689.4349, 643.5501
689.9171, 649.5125
690.3992, 662.9451
690.8813, 671.2969
691.3634, 671.1818
691.8455, 667.5520
692.3276, 665.0452
692.8098, 663.6116
693.2919, 663.2014
693.7740, 665.4985
694.2561, 665.0123
694.7382, 657.0379
695.2203, 649.2949
695.7025, 646.9198
696.1846, 649.2321
696.6667, 653.4626
697.1488, 661.6420
697.6309, 667.5195
698.1130, 665.9739
698.5952, 661.2391
699.0773, 658.0617
699.5594, 657.0756
700.0415, 657.3519
700.5236, 658.3671
701.0057, 660.0509
701.4879, 663.1865
701.9700, 668.0496
702.4521, 667.8972
702.9342, 659.6344
703.4163, 652.7939
703.8984, 653.7082
704.3806, 659.6327
704.8627, 664.6923
705.3448, 670.9475
705.8269, 670.6494
706.3090, 655.2484
706.7911, 640.4828
707.2733, 636.4040
707.7554, 639.2573
708.2375, 642.1269
708.7196, 642.8582
709.2017, 643.5615
709.6838, 647.9510
710.1660, 653.4234
710.6481, 651.4222
711.1302, 642.4697
711.6123, 637.8702
712.0944, 642.3381
712.5765, 649.6354
713.0587, 652.0181
713.5408, 649.2218
714.0229, 647.0867
714.5050, 643.6794
714.9871, 643.7311
715.4692, 652.6966
715.9514, 661.6378
716.4335, 661.5128
716.9156, 654.0546
717.3977, 649.6827
717.8798, 655.0965
718.3619, 661.3652
718.8441, 661.1602
719.3262, 657.0667
719.8083, 653.0270
720.2904, 649.7569
720.7725, 646.6633
721.2546, 643.2136
721.7368, 640.3328
722.2189, 641.0872
722.7010, 646.4773
723.1831, 648.1671
723.6652, 643.4251
724.1473, 639.0636
724.6295, 638.4294
725.1116, 640.9730
725.5937, 646.1534
726.0758, 655.9110
726.5579, 661.3451
727.0400, 657.2729
727.5222, 652.0925
728.0043, 650.6804
728.4864, 651.6086
728.9685, 652.5302
729.4506, 652.6434
729.9327, 651.5474
730.4149, 646.8317
730.8970, 641.4843
731.3791, 643.3841
731.8612, 651.7883
732.3433, 660.2699
732.8254, 667.3796
733.3076, 671.4092
733.7897, 670.1613
734.2718, 664.0525
734.7539, 658.4620
735.2360, 652.9628
735.7181, 648.6869
736.2003, 643.5907
736.6824, 641.6576
737.1645, 649.2355
737.6466, 661.8170
738.1287, 666.5908
738.6108, 656.7587
739.0930, 647.0563
739.5751, 645.8426
740.0572, 649.1287
740.5393, 654.4925
741.0214, 660.1096
741.5035, 661.6483
741.9857, 657.0332
742.4678, 650.2781
742.9499, 647.6698
743.4320, 648.7383
743.9141, 645.1698
744.3962, 634.8896
744.8784, 631.8106
745.3605, 644.8571
745.8426, 662.3188
746.3247, 667.9228
746.8068, 660.1486
747.2889, 654.4313
747.7711, 648.4893
748.2532, 647.3399
748.7353, 657.5708
749.2174, 669.0533
749.6995, 671.5209
750.1816, 666.2227
750.6638, 662.5924
751.1459, 666.7447
751.6280, 670.9206
752.1101, 665.9694
752.5922, 656.6561
753.0743, 651.5663
753.5565, 651.6812
754.0386, 655.2440
754.5207, 661.4894
755.0028, 668.6252
755.4849, 672.8564
755.9670, 673.7543
756.4492, 675.7988
756.9313, 679.4470
757.4134, 683.3641
757.8955, 687.4558
758.3776, 691.1744
758.8597, 693.1122
759.3419, 692.8773
759.8240, 694.9596
760.3061, 701.6166
760.7882, 708.3856
761.2703, 712.7740
761.7524, 716.9594
762.2346, 723.4792
762.7167, 732.3487
763.1988, 741.9035
763.6809, 751.7479
764.1630, 760.8750
764.6451, 768.9436
765.1273, 775.2749
765.6094, 776.7387
766.0915, 773.6066
766.5736, 772.8126
767.0557, 779.1121
767.5378, 788.1425
768.0200, 789.2904
768.5021, 780.3366
768.9842, 777.9217
769.4663, 787.4792
769.9484, 792.3060
770.4305, 781.9189
770.9127, 765.0163
771.3948, 754.1493
771.8769, 749.7556
772.3590, 745.2408
772.8411, 740.9888
773.3232, 735.2137
773.8054, 727.1450
774.2875, 717.2623
774.7696, 704.1550
775.2517, 689.3327
775.7338, 678.4137
776.2159, 674.7385
776.6981, 675.6626
777.1802, 680.3420
777.6623, 686.8466
778.1444, 692.0304
778.6265, 694.9219
779.1086, 691.2449
779.5908, 677.9708
780.0729, 661.4035
780.5550, 654.0089
781.0371, 657.0143
781.5192, 656.9420
782.0013, 652.7850
782.4835, 648.1637
782.9656, 644.0232
783.4477, 640.4764
783.9298, 637.2232
784.4119, 634.1923
784.8940, 634.0353
785.3762, 640.1544
785.8583, 644.9069
786.3404, 646.3779
786.8225, 645.5403
787.3046, 642.6287
787.7867, 638.2192
788.2689, 633.3718
788.7510, 628.0291
789.2331, 623.9632
789.7152, 623.9301
790.1973, 625.4551
790.6794, 623.2607
791.1616, 618.4819
791.6437, 617.3797
792.1258, 622.6583
792.6079, 631.5595
793.0900, 642.1831
793.5721, 653.6030
794.0543, 655.2634
794.5364, 645.5327
795.0185, 636.2357
795.5006, 630.6494
795.9827, 626.6358
796.4648, 621.3852
796.9470, 615.4473
797.4291, 614.9067
797.9112, 627.4230
798.3933, 634.3268
798.8754, 629.7551
799.3575, 624.3797
799.8397, 622.6393
800.3218, 624.9926
800.8039, 633.7497
801.2860, 651.3035
801.7681, 661.6633
802.2502, 650.9272
802.7324, 634.6532
803.2145, 625.4039
803.6966, 621.7762
804.1787, 619.3703
804.6608, 617.2587
805.1429, 618.2294
805.6251, 626.1324
806.1072, 636.6205
806.5893, 639.9694
807.0714, 636.9557
807.5535, 632.6937
808.0356, 627.8811
808.5178, 624.4657
808.9999, 623.6959
809.4820, 625.2605
809.9641, 629.0518
810.4462, 637.1960
810.9283, 639.6168
811.4105, 633.6108
811.8926, 626.1933
812.3747, 615.2131
812.8568, 607.4402
813.3389, 614.5117
813.8210, 636.2928
814.3032, 647.9637
814.7853, 636.0493
815.2674, 626.0118
815.7495, 628.0945
816.2316, 634.5768
816.7137, 640.7274
817.1959, 644.6047
817.6780, 642.5222
818.1601, 631.2515
818.6422, 621.8109
819.1243, 625.4697
819.6064, 635.8416
820.0886, 644.5066
820.5707, 650.7347
821.0528, 654.6662
821.5349, 656.3832
822.0170, 655.3877
822.4991, 649.4282
822.9813, 641.2209
823.4634, 644.5371
823.9455, 660.2074
824.4276, 669.7778
824.9097, 668.0174
825.3918, 665.2838
825.8740, 669.3226
826.3561, 678.3943
826.8382, 686.5307
827.3203, 692.4203
827.8024, 700.4538
828.2845, 713.6212
828.7667, 725.2462
829.2488, 730.9470
829.7309, 735.0303
830.2130, 743.4289
830.6951, 756.4408
831.1772, 766.7755
831.6594, 771.6500
832.1415, 774.7880
832.6236, 774.5270
833.1057, 775.7347
833.5878, 785.7135
834.0699, 801.8029
834.5521, 814.7760
835.0342, 820.7971
835.5163, 821.2603
835.9984, 815.6437
836.4805, 806.2875
836.9626, 797.7031
837.4448, 789.0302
837.9269, 774.8131
838.4090, 753.6506
838.8911, 733.2548
839.3732, 722.5962
839.8553, 718.6346
840.3375, 708.9911
840.8196, 693.4789
841.3017, 681.3156
841.7838, 673.4308
842.2659, 673.6019
842.7480, 687.6103
843.2302, 707.2463
843.7123, 710.9898
844.1944, 692.7147
844.6765, 678.9973
845.1586, 672.2465
845.6407, 666.4755
846.1229, 659.6901
846.6050, 652.9457
847.0871, 646.4929
847.5692, 640.5983
848.0513, 638.1021
848.5334, 643.9605
849.0156, 647.0504
849.4977, 641.1027
849.9798, 634.1826
850.4619, 633.9775
850.9440, 637.4678
851.4261, 635.9973
851.9083, 626.3925
852.3904, 619.8788
852.8725, 628.8473
853.3546, 640.3135
853.8367, 638.7378
854.3188, 629.5276
854.8010, 624.4122
855.2831, 625.5806
855.7652, 628.4656
856.2473, 630.1913
856.7294, 630.3775
857.2115, 626.8741
857.6937, 621.0639
858.1758, 620.0467
858.6579, 624.2914
859.1400, 627.4048
859.6221, 626.3559
860.1042, 623.1321
860.5864, 619.6597
861.0685, 616.1952
861.5506, 621.2715
862.0327, 639.4933
862.5148, 647.3846
862.9969, 635.7540
863.4791, 620.3795
863.9612, 612.4485
864.4433, 610.8695
864.9254, 611.9487
865.4075, 617.1656
865.8896, 621.9766
866.3718, 628.8605
866.8539, 632.4373
867.3360, 629.1265
867.8181, 622.6276
868.3002, 615.3360
868.7823, 608.0079
869.2645, 606.0110
869.7466, 615.3148
870.2287, 624.2203
870.7108, 628.9071
871.1929, 630.7474
871.6750, 629.9605
872.1572, 627.5720
872.6393, 626.2654
873.1214, 627.1144
873.6035, 624.4089
874.0856, 608.5262
874.5677, 591.4647
875.0499, 588.4607
875.5320, 594.2205
876.0141, 596.6210
876.4962, 594.0151
876.9783, 593.7047
877.4604, 601.1595
877.9426, 611.2443
878.4247, 614.6812
878.9068, 613.6496
879.3889, 617.9759
879.8710, 627.5011
880.3531, 631.8989
880.8353, 626.8294
881.3174, 617.4621
881.7995, 609.3843
882.2816, 602.6616
882.7637, 597.3150
883.2458, 593.0100
883.7280, 593.2442
884.2101, 599.7077
884.6922, 607.0846
885.1743, 611.9541
885.6564, 615.4711
886.1385, 620.5259
886.6207, 628.2708
887.1028, 632.1630
887.5849, 630.1309
888.0670, 627.5543
888.5491, 625.5546
889.0313, 623.8008
889.5134, 623.1620
889.9955, 622.7567
890.4776, 618.2744
890.9597, 604.6094
891.4418, 595.6499
891.9240, 595.9018
892.4061, 598.4084
892.8882, 598.6068
893.3703, 599.2776
893.8524, 605.8783
894.3345, 618.4432
894.8167, 628.2185
895.2988, 630.4899
895.7809, 630.5339
896.2630, 630.4495
896.7451, 630.1063
897.2272, 629.7354
897.7094, 628.9174
898.1915, 625.8455
898.6736, 619.8378
899.1557, 615.9267
899.6378, 620.8633
900.1199, 627.9697
900.6021, 628.9665
901.0842, 625.7048
901.5663, 622.7078
902.0484, 620.4255
902.5305, 615.4122
903.0126, 605.0125
903.4948, 594.1971
903.9769, 590.2263
904.4590, 591.8185
904.9411, 595.2751
905.4232, 600.4694
905.9053, 610.0710
906.3875, 624.8204
906.8696, 634.0228
907.3517, 625.8934
907.8338, 606.7610
908.3159, 595.9440
908.7980, 593.4482
909.2802, 600.7299
909.7623, 619.9453
910.2444, 633.2465
910.7265, 630.8324
911.2086, 621.6631
911.6907, 618.6057
912.1729, 621.5687
912.6550, 622.4755
913.1371, 620.4825
913.6192, 618.9162
914.1013, 617.4120
914.5834, 618.3552
915.0656, 624.7703
915.5477, 633.8303
916.0298, 639.1833
916.5119, 640.4745
916.9940, 639.1819
917.4761, 626.9084
917.9583, 623.9744
918.4404, 648.9382
918.9225, 673.0269
919.4046, 668.4851
919.8867, 643.6284
920.3688, 630.5283
920.8510, 637.9558
921.3331, 642.8542
921.8152, 639.0345
922.2973, 635.3690
922.7794, 638.1792
923.2615, 641.9197
923.7437, 638.2653
924.2258, 628.0706
924.7079, 622.1689
925.1900, 626.5634
925.6721, 631.1639
926.1542, 632.7033
926.6364, 632.0607
927.1185, 627.8952
927.6006, 622.8748
928.0827, 621.4652
928.5648, 624.4758
929.0469, 628.6020
929.5291, 633.9140
930.0112, 637.4568
930.4933, 635.9238
930.9754, 632.1029
931.4575, 628.1716
931.9396, 625.3082
932.4218, 626.3947
932.9039, 632.3411
933.3860, 636.7835
933.8681, 632.8553
934.3502, 625.4659
934.8323, 619.0892
935.3145, 614.7646
935.7966, 615.5726
936.2787, 620.9523
936.7608, 626.9467
937.2429, 631.5266
937.7250, 634.6880
938.2072, 636.1987
938.6893, 636.3929
939.1714, 636.0632
939.6535, 635.1345
940.1356, 632.2754
940.6177, 627.6404
941.0999, 626.1147
941.5820, 631.7906
942.0641, 639.0500
942.5462, 635.5421
943.0283, 624.2271
943.5104, 620.7256
943.9926, 625.3108
944.4747, 634.4865
944.9568, 647.4077
945.4389, 655.1357
945.9210, 648.3699
946.4031, 633.3947
946.8853, 628.4479
947.3674, 633.4694
947.8495, 636.3441
948.3316, 636.1636
948.8137, 635.0278
949.2958, 633.3103
949.7780, 633.3190
950.2601, 638.3248
950.7422, 646.8199
951.2243, 650.7197
951.7064, 649.6238
952.1885, 645.6022
952.6707, 637.0960
953.1528, 632.6776
953.6349, 637.4799
954.1170, 646.0654
954.5991, 651.7267
955.0812, 654.3998
955.5634, 652.7095
956.0455, 644.0874
956.5276, 638.9391
957.0097, 638.3881
957.4918, 642.1164
957.9739, 652.8859
958.4561, 664.6202
958.9382, 666.6476
959.4203, 658.0844
959.9024, 652.4318
960.3845, 650.1613
960.8666, 650.0341
961.3488, 654.1666
961.8309, 657.1932
962.3130, 654.2627
962.7951, 648.8297
963.2772, 647.8749
963.7593, 652.3143
964.2415, 656.3215
964.7236, 658.2211
965.2057, 662.1302
965.6878, 666.3906
966.1699, 678.3274
966.6520, 686.2285
967.1342, 690.3191
967.6163, 678.8019
968.0984, 687.7277
968.5805, 688.6381
969.0626, 689.3411
969.5447, 701.5052
970.0269, 692.9099
970.5090, 705.1471
970.9911, 709.2452
971.4732, 717.2529
971.9553, 717.1950
972.4374, 719.7933
972.9196, 730.7144
973.4017, 737.2228
973.8838, 736.7277
974.3659, 745.7346
974.8480, 753.5627
975.3301, 765.0024
975.8123, 769.9803
976.2944, 774.2133
976.7765, 778.2808
977.2586, 782.6988
977.7407, 788.1685
978.2228, 793.2748
978.7050, 794.6607
979.1871, 797.4921
979.6692, 808.6315
980.1513, 825.8182
980.6334, 840.0295
981.1155, 848.2582
981.5977, 856.7366
982.0798, 869.5865
982.5619, 880.4598
983.0440, 887.0171
983.5261, 889.3474
984.0082, 887.6910
984.4904, 882.0938
984.9725, 871.6917
985.4546, 853.3518
985.9367, 838.8843
986.4188, 834.0585
986.9009, 832.5018
987.3831, 835.7847
987.8652, 836.6113
988.3473, 822.8235
988.8294, 798.1427
989.3115, 781.7911
989.7936, 782.9774
990.2758, 782.7289
990.7579, 773.1724
991.2400, 759.8318
991.7221, 743.1737
992.2042, 726.8519
992.6863, 715.7098
993.1685, 708.9852
993.6506, 700.5011
994.1327, 685.9603
994.6148, 676.2560
995.0969, 682.0963
995.5790, 688.1199
996.0612, 683.8494
996.5433, 673.5856
997.0254, 659.0195
997.5075, 643.9033
997.9896, 641.4429
998.4717, 662.6417
998.9539, 677.1108
999.4360, 664.1079
999.9181, 646.7118
1000.400, 639.5742
1000.882, 638.6185
1001.364, 638.0309
1001.847, 637.3542
1002.329, 639.0699
1002.811, 645.1402
1003.293, 650.1917
1003.775, 651.6481
1004.257, 651.3124
1004.739, 649.2571
1005.221, 646.8812
1005.703, 645.8408
1006.186, 646.0979
1006.668, 646.2952
1007.150, 645.2055
1007.632, 646.7038
1008.114, 655.3910
1008.596, 664.1030
1009.078, 669.0469
1009.560, 670.7425
1010.043, 668.2976
1010.525, 663.4343
1011.007, 661.8427
1011.489, 666.1594
1011.971, 670.4860
1012.453, 668.4470
1012.935, 670.0462
1013.417, 686.6827
1013.899, 706.3799
1014.382, 714.9597
1014.864, 713.8391
1015.346, 712.4390
1015.828, 712.4029
1016.310, 716.1805
1016.792, 729.1270
1017.274, 740.9319
1017.756, 747.2641
1018.239, 748.6542
1018.721, 742.7642
1019.203, 732.9102
1019.685, 727.7328
1020.167, 729.4286
1020.649, 734.7696
1021.131, 748.5377
1021.613, 758.5018
1022.095, 756.5453
1022.578, 750.3779
1023.060, 748.5561
1023.542, 748.2973
1024.024, 739.8209
1024.506, 719.3994
1024.988, 703.8325
1025.470, 702.4298
1025.952, 700.1832
1026.435, 690.4489
1026.917, 678.7684
1027.399, 667.2450
1027.881, 658.0679
1028.363, 656.2468
1028.845, 663.6196
1029.327, 667.9091
1029.809, 667.9551
1030.292, 663.1955
1030.774, 647.2550
1031.256, 632.6796
1031.738, 631.1984
1032.220, 635.6309
1032.702, 631.6484
1033.184, 617.3313
1033.666, 607.8375
1034.148, 603.6342
1034.630, 605.9329
1035.113, 624.2925
1035.595, 639.0504
1036.077, 636.1048
1036.559, 624.5727
1037.041, 617.3179
1037.523, 614.6035
1038.005, 613.8563
1038.487, 615.6784
1038.970, 618.4600
1039.452, 624.4138
1039.934, 628.3175
1040.416, 627.1542
1040.898, 623.3748
1041.380, 619.6433
1041.862, 615.9449
1042.344, 611.8849
1042.826, 605.9915
1043.309, 603.2036
1043.791, 605.4496
1044.273, 607.4714
1044.755, 606.8482
1045.237, 605.9559
1045.719, 607.4261
1046.201, 610.6367
1046.683, 612.8686
1047.166, 614.5460
1047.648, 613.6285
1048.130, 609.3049
1048.612, 604.3650
1049.094, 598.5297
1049.576, 595.4611
1050.058, 599.3318
1050.540, 606.8588
1051.022, 608.5914
1051.505, 603.6226
1051.987, 602.5615
1052.469, 606.4893
1052.951, 607.0959
1053.433, 601.8224
1053.915, 595.8703
1054.397, 592.0449
1054.879, 591.9814
1055.361, 601.2764
1055.844, 618.0822
1056.326, 618.0517
1056.808, 601.2707
1057.290, 589.8734
1057.772, 587.6523
1058.254, 588.9174
1058.736, 590.8729
1059.218, 592.7955
1059.701, 593.7534
1060.183, 593.8767
1060.665, 593.2728
1061.147, 592.1776
1061.629, 591.5337
1062.111, 591.6328
1062.593, 594.5156
1063.075, 600.7724
1063.557, 605.1432
1064.040, 601.1023
1064.522, 594.9601
1065.004, 600.5212
1065.486, 612.2656
1065.968, 616.3901
1066.450, 613.7907
1066.932, 611.1448
1067.414, 610.4100
1067.896, 610.7196
1068.379, 611.9216
1068.861, 612.2672
1069.343, 608.9990
1069.825, 604.2488
1070.307, 600.8648
1070.789, 598.3782
1071.271, 594.8071
1071.753, 590.6526
1072.236, 589.2686
1072.718, 592.4205
1073.200, 596.6931
1073.682, 602.0385
1074.164, 604.8753
1074.646, 599.2386
1075.128, 591.5308
1075.610, 590.7250
1076.093, 594.6647
1076.575, 594.5523
1077.057, 587.8568
1077.539, 584.1250
1078.021, 587.7123
1078.503, 594.8961
1078.985, 609.5319
1079.467, 621.6460
1079.949, 623.1456
1080.432, 617.0577
1080.914, 606.8216
1081.396, 593.4704
1081.878, 585.7385
1082.360, 589.2916
1082.842, 592.2149
1083.324, 593.3753
1083.806, 592.7739
1084.288, 587.9778
1084.771, 583.2294
1085.253, 583.5039
1085.735, 587.9380
1086.217, 592.3916
1086.699, 596.9372
1087.181, 601.6191
1087.663, 609.6832
1088.145, 610.5415
1088.628, 596.9090
1089.110, 583.9320
1089.592, 583.3868
1090.074, 590.1684
1090.556, 593.2000
1091.038, 592.2982
1091.520, 592.7787
1092.002, 594.7097
1092.484, 598.0587
1092.967, 603.2895
1093.449, 606.8308
1093.931, 606.8846
1094.413, 604.2005
1094.895, 598.8336
1095.377, 592.6013
1095.859, 593.7604
1096.341, 600.9642
1096.823, 603.5249
1097.306, 600.9119
1097.788, 597.1026
1098.270, 593.4863
1098.752, 589.9146
1099.234, 585.8831
1099.716, 583.5626
1100.198, 588.6735
1100.680, 596.6353
1101.163, 595.6715
1101.645, 590.1650
1102.127, 593.4157
1102.609, 605.5100
1103.091, 616.7366
1103.573, 622.7491
1104.055, 622.2198
1104.537, 606.2379
1105.020, 591.5315
1105.502, 598.1981
1105.984, 611.5354
1106.466, 612.4186
1106.948, 605.0446
1107.430, 603.0508
1107.912, 609.0973
1108.394, 614.0428
1108.876, 614.3274
1109.359, 612.6074
1109.841, 609.0247
1110.323, 604.6857
1110.805, 597.9557
1111.287, 592.4726
1111.769, 595.1622
1112.251, 603.7057
1112.733, 604.4064
1113.215, 589.3670
1113.698, 583.3068
1114.180, 593.0319
1114.662, 602.0419
1115.144, 606.6332
1115.626, 609.6648
1116.108, 612.8883
1116.590, 615.9736
1117.072, 618.2458
1117.555, 619.7030
1118.037, 621.7394
1118.519, 624.9299
1119.001, 624.6266
1119.483, 619.3445
1119.965, 617.3625
1120.447, 622.6835
1120.929, 628.8137
1121.411, 628.6588
1121.894, 625.3268
1122.376, 626.7078
1122.858, 632.2045
1123.340, 639.9261
1123.822, 648.9586
1124.304, 655.6849
1124.786, 659.1720
1125.268, 658.8046
1125.750, 653.8723
1126.233, 651.0085
1126.715, 659.1261
1127.197, 672.5366
1127.679, 685.1292
1128.161, 696.4369
1128.643, 705.2822
1129.125, 712.4957
1129.607, 720.2964
1130.090, 729.2211
1130.572, 737.9233
1131.054, 745.7891
1131.536, 753.2477
1132.018, 761.2065
1132.500, 768.1398
1132.982, 773.9461
1133.464, 777.4913
1133.947, 776.6438
1134.429, 772.3326
1134.911, 768.5401
1135.393, 766.2626
1135.875, 762.7394
1136.357, 756.4191
1136.839, 750.8440
1137.321, 746.6011
1137.803, 743.3011
1138.286, 741.1644
1138.768, 739.2733
1139.250, 736.0882
1139.732, 731.8566
1140.214, 729.3304
1140.696, 729.1348
1141.178, 724.9600
1141.660, 715.8947
1142.142, 707.9416
1142.625, 702.8818
1143.107, 702.7949
1143.589, 710.2349
1144.071, 718.7874
1144.553, 715.3345
1145.035, 704.5838
1145.517, 700.8328
1145.999, 702.2756
1146.482, 703.1413
1146.964, 702.8080
1147.446, 703.5799
1147.928, 706.0745
1148.410, 706.2165
1148.892, 699.3906
1149.374, 691.7427
1149.856, 687.0502
1150.339, 685.8198
1150.821, 692.3573
1151.303, 700.4153
1151.785, 699.9182
1152.267, 691.8073
1152.749, 684.9675
1153.231, 680.7124
1153.713, 681.1987
1154.195, 694.1174
1154.677, 701.8153
1155.160, 695.3765
1155.642, 686.0932
1156.124, 680.9434
1156.606, 677.2085
1157.088, 670.8719
1157.570, 662.1951
1158.052, 654.0150
1158.534, 645.8573
1159.017, 640.8802
1159.499, 639.9689
1159.981, 637.6142
1160.463, 631.8030
1160.945, 627.6915
1161.427, 629.3816
1161.909, 632.9037
1162.391, 631.0660
1162.874, 625.7368
1163.356, 622.6720
1163.838, 621.6485
1164.320, 624.8674
1164.802, 629.6436
1165.284, 623.4338
1165.766, 603.8124
1166.248, 587.0991
1166.730, 583.7485
1167.213, 587.8762
1167.695, 601.4371
1168.177, 613.2444
1168.659, 611.7250
1169.141, 603.5412
1169.623, 594.7717
1170.105, 587.7907
1170.587, 586.7202
1171.069, 593.1368
1171.552, 598.1612
1172.034, 602.4438
1172.516, 601.8205
1172.998, 591.1225
1173.480, 581.9213
1173.962, 578.6337
1174.444, 579.8525
1174.926, 585.3351
1175.409, 593.1832
1175.891, 596.3498
1176.373, 594.3944
1176.855, 594.3377
1177.337, 596.2526
1177.819, 596.7100
1178.301, 595.0796
1178.783, 592.0494
1179.266, 587.9418
1179.748, 585.2003
1180.230, 587.5615
1180.712, 590.7220
1181.194, 585.8352
1181.676, 578.0993
1182.158, 577.1199
1182.640, 580.3034
1183.122, 580.2532
1183.604, 577.2067
1184.087, 578.2206
1184.569, 586.6083
1185.051, 593.3044
1185.533, 592.8199
1186.015, 591.6097
1186.497, 593.7711
1186.979, 594.6834
1187.461, 589.2209
1187.944, 581.7437
1188.426, 578.0347
1188.908, 577.9115
1189.390, 580.4534
1189.872, 587.0480
1190.354, 591.6537
1190.836, 594.5772
1191.318, 593.1398
1191.801, 585.6845
1192.283, 582.0236
1192.765, 588.3436
1193.247, 596.1262
1193.729, 594.0226
1194.211, 586.5767
1194.693, 584.6710
1195.175, 586.5311
1195.657, 587.7789
1196.140, 588.3842
1196.622, 588.8220
1197.104, 589.6396
1197.586, 593.1632
1198.068, 600.9316
1198.550, 606.0245
1199.032, 603.5472
1199.514, 597.8746
1199.996, 585.6025
1200.479, 577.1899
1200.961, 586.9547
1201.443, 602.0406
1201.925, 601.2844
1202.407, 586.4159
1202.889, 579.1921
1203.371, 582.7934
1203.853, 583.9111
1204.336, 581.2100
1204.818, 580.7023
1205.300, 584.2631
1205.782, 587.1323
1206.264, 586.8470
1206.746, 584.1669
1207.228, 579.6555
1207.710, 574.0359
1208.193, 567.2583
1208.675, 561.4871
1209.157, 565.8070
1209.639, 576.2267
1210.121, 579.8815
1210.603, 576.1019
1211.085, 573.0304
1211.567, 573.9042
1212.049, 575.1194
1212.531, 575.1458
1213.014, 573.9797
1213.496, 569.9255
1213.978, 566.5534
1214.460, 565.6558
1214.942, 567.3854
1215.424, 573.9282
1215.906, 582.9675
1216.388, 585.9063
1216.871, 581.2975
1217.353, 579.5977
1217.835, 581.5216
1218.317, 583.6734
1218.799, 585.9244
1219.281, 585.3333
1219.763, 580.3669
1220.245, 576.3998
1220.728, 578.5341
1221.210, 583.7167
1221.692, 586.6428
1222.174, 588.6348
1222.656, 593.2348
1223.138, 598.6620
1223.620, 602.3732
1224.102, 603.1038
1224.584, 597.1896
1225.067, 584.6221
1225.549, 575.9698
1226.031, 578.7621
1226.513, 580.2536
1226.995, 574.1823
1227.477, 568.5388
1227.959, 565.3885
1228.441, 565.7385
1228.923, 573.2914
1229.406, 581.7214
1229.888, 578.5104
1230.370, 565.5384
1230.852, 565.3015
1231.334, 578.5355
1231.816, 584.9513
1232.298, 583.7032
1232.780, 585.7363
1233.263, 593.3570
1233.745, 598.6500
1234.227, 597.0824
1234.709, 593.2624
1235.191, 591.8075
1235.673, 590.7840
1236.155, 587.1389
##END=



