##NAMES=Braunite
##RRUFFID=R050388
##IDEAL CHEMISTRY=Mn^2+^Mn^3+^_6_SiO_12_
##LOCALITY=Langban, Filipstad, Varmland, Sweden
##OWNER=RRUFF
##SOURCE=University of Arizona Mineral Museum
##DESCRIPTION=Black crystals
##STATUS=The identification of this mineral has been confirmed by X-ray diffraction and chemical analysis
##URL=rruff.info/R050388
##MEASURED CHEMISTRY=(Mn^2+^_0.96_Mg_0.04_)_Î£=1_Mn^3+^_6.00_Si_1.00_O_12_
92.35352, 24.91827
92.83563, 25.51962
93.31775, 25.77662
93.79987, 25.47128
94.28198, 24.79270
94.76410, 24.32732
95.24622, 24.31858
95.72833, 24.45251
96.21045, 23.91531
96.69257, 22.65912
97.17468, 21.45172
97.65680, 21.00466
98.13892, 21.30359
98.62103, 21.87716
99.10315, 22.78295
99.58527, 23.90993
100.0674, 24.26261
100.5495, 23.55161
101.0316, 22.69623
101.5137, 22.92748
101.9958, 24.54494
102.4780, 26.20002
102.9601, 27.47781
103.4422, 28.33361
103.9243, 29.01811
104.4064, 29.18127
104.8885, 29.39687
105.3707, 30.86575
105.8528, 34.63165
106.3349, 38.16902
106.8170, 40.47243
107.2991, 40.84270
107.7813, 41.28476
108.2634, 41.57669
108.7455, 41.91126
109.2276, 42.91343
109.7097, 45.00889
110.1918, 47.47951
110.6740, 50.03224
111.1561, 52.96310
111.6382, 55.63545
112.1203, 57.65151
112.6024, 59.20890
113.0845, 61.39905
113.5667, 64.80055
114.0488, 68.65454
114.5309, 72.49049
115.0130, 75.92852
115.4951, 79.56387
115.9772, 83.83878
116.4594, 88.76199
116.9415, 93.21837
117.4236, 97.09712
117.9057, 100.2048
118.3878, 102.3261
118.8699, 101.3886
119.3521, 100.9384
119.8342, 103.1370
120.3163, 108.2501
120.7984, 114.5519
121.2805, 121.5474
121.7626, 128.9855
122.2448, 136.4372
122.7269, 146.2048
123.2090, 154.6790
123.6911, 157.4024
124.1732, 152.8915
124.6553, 146.8784
125.1375, 143.9858
125.6196, 143.8057
126.1017, 145.0468
126.5838, 147.0884
127.0659, 150.0305
127.5480, 154.5560
128.0302, 161.6379
128.5123, 168.5390
128.9944, 171.0259
129.4765, 169.4267
129.9586, 166.8068
130.4407, 165.5760
130.9229, 165.2369
131.4050, 163.5469
131.8871, 159.5320
132.3692, 154.4619
132.8513, 151.1214
133.3334, 149.3176
133.8156, 148.1411
134.2977, 147.5604
134.7798, 148.0540
135.2619, 149.1606
135.7440, 151.0178
136.2261, 153.3782
136.7083, 155.0193
137.1904, 155.6784
137.6725, 156.4799
138.1546, 159.5976
138.6367, 166.0854
139.1188, 169.2038
139.6010, 166.8378
140.0831, 159.0278
140.5652, 150.1870
141.0473, 139.2895
141.5294, 128.5998
142.0115, 121.3089
142.4937, 118.1727
142.9758, 116.3612
143.4579, 115.1503
143.9400, 114.6006
144.4221, 114.3363
144.9042, 114.3285
145.3864, 114.6054
145.8685, 115.2817
146.3506, 116.8997
146.8327, 118.1872
147.3148, 118.7145
147.7969, 118.1876
148.2791, 117.5280
148.7612, 116.0044
149.2433, 114.4035
149.7254, 114.5727
150.2075, 118.0840
150.6896, 121.9814
151.1718, 125.2165
151.6539, 128.0175
152.1360, 129.8721
152.6181, 130.0857
153.1002, 129.2495
153.5823, 129.1278
154.0645, 131.9111
154.5466, 133.9428
155.0287, 133.5099
155.5108, 128.3145
155.9929, 123.2031
156.4750, 118.6543
156.9572, 114.6826
157.4393, 111.4853
157.9214, 109.4059
158.4035, 107.8858
158.8856, 106.5679
159.3677, 105.2538
159.8499, 104.2456
160.3320, 103.3745
160.8141, 102.7468
161.2962, 103.0794
161.7783, 105.8704
162.2604, 109.1494
162.7426, 111.2919
163.2247, 111.3062
163.7068, 110.5442
164.1889, 109.2195
164.6710, 107.4145
165.1531, 106.0099
165.6353, 105.1649
166.1174, 105.0331
166.5995, 105.7803
167.0816, 108.4509
167.5637, 111.2855
168.0458, 113.2403
168.5280, 114.2792
169.0101, 114.7602
169.4922, 115.0958
169.9743, 114.9757
170.4564, 113.9562
170.9385, 111.0515
171.4207, 107.6533
171.9028, 104.9091
172.3849, 102.8834
172.8670, 101.3013
173.3491, 99.95792
173.8312, 98.89113
174.3134, 98.17188
174.7955, 97.89037
175.2776, 97.95232
175.7597, 98.28579
176.2418, 98.90388
176.7239, 99.69399
177.2061, 100.7780
177.6882, 102.0024
178.1703, 102.9303
178.6524, 103.0675
179.1345, 102.8551
179.6166, 103.1691
180.0988, 104.1732
180.5809, 105.1065
181.0630, 104.8495
181.5451, 103.6817
182.0272, 102.7342
182.5093, 102.4767
182.9915, 102.8650
183.4736, 103.9668
183.9557, 105.9492
184.4378, 108.0736
184.9199, 109.2398
185.4020, 109.5581
185.8842, 109.9678
186.3663, 111.1923
186.8484, 112.9662
187.3305, 114.2328
187.8126, 114.8467
188.2947, 115.1503
188.7769, 115.5768
189.2590, 116.1315
189.7411, 116.9273
190.2232, 118.1662
190.7053, 119.7667
191.1874, 121.1641
191.6696, 122.2232
192.1517, 123.2655
192.6338, 125.0874
193.1159, 127.7247
193.5980, 130.1824
194.0801, 131.5829
194.5623, 132.0307
195.0444, 133.2422
195.5265, 135.5774
196.0086, 138.4355
196.4907, 140.4787
196.9728, 141.6196
197.4550, 142.6764
197.9371, 143.9794
198.4192, 145.5210
198.9013, 147.7394
199.3834, 150.7566
199.8655, 154.3654
200.3477, 158.3495
200.8298, 162.8721
201.3119, 166.9823
201.7940, 169.8273
202.2761, 171.2274
202.7582, 173.5022
203.2404, 177.1510
203.7225, 181.5806
204.2046, 184.9949
204.6867, 187.0872
205.1688, 189.2358
205.6509, 192.4120
206.1331, 196.8418
206.6152, 200.8789
207.0973, 204.2506
207.5794, 207.2119
208.0615, 210.5442
208.5436, 214.3051
209.0258, 218.3020
209.5079, 222.3224
209.9900, 226.2404
210.4721, 230.7467
210.9542, 236.1471
211.4363, 242.0842
211.9185, 247.3009
212.4006, 251.5712
212.8827, 255.6413
213.3648, 259.9791
213.8469, 264.8945
214.3290, 269.1569
214.8112, 272.8145
215.2933, 275.7090
215.7754, 277.2847
216.2575, 277.1878
216.7396, 276.4347
217.2217, 275.6469
217.7038, 275.0008
218.1860, 273.7917
218.6681, 271.9597
219.1502, 269.5459
219.6323, 266.7574
220.1144, 263.8235
220.5965, 260.1715
221.0787, 255.1956
221.5608, 247.9000
222.0429, 242.1201
222.5250, 238.6813
223.0071, 236.8700
223.4892, 234.0875
223.9714, 229.5781
224.4535, 225.2560
224.9356, 222.1300
225.4177, 220.5682
225.8998, 219.3586
226.3819, 218.3586
226.8641, 217.6748
227.3462, 217.8173
227.8283, 219.3219
228.3104, 220.8302
228.7925, 221.7041
229.2746, 222.0642
229.7568, 221.4480
230.2389, 219.4247
230.7210, 216.4720
231.2031, 214.2640
231.6852, 213.4630
232.1673, 212.4284
232.6495, 210.3375
233.1316, 206.7919
233.6137, 203.0725
234.0958, 199.2221
234.5779, 195.2539
235.0600, 191.1624
235.5422, 186.3632
236.0243, 182.2238
236.5064, 179.5866
236.9885, 179.8595
237.4706, 178.4167
237.9527, 174.4192
238.4349, 168.9457
238.9170, 164.7654
239.3991, 162.5402
239.8812, 160.6169
240.3633, 158.2575
240.8454, 155.0707
241.3276, 152.4244
241.8097, 150.4415
242.2918, 148.9883
242.7739, 147.8609
243.2560, 147.3618
243.7381, 146.7195
244.2203, 145.5670
244.7024, 143.5738
245.1845, 142.0084
245.6666, 140.9578
246.1487, 140.2965
246.6308, 139.7090
247.1130, 138.8821
247.5951, 138.6593
248.0772, 139.6082
248.5593, 142.4187
249.0414, 143.8581
249.5235, 143.5071
250.0057, 142.0463
250.4878, 140.4781
250.9699, 138.4902
251.4520, 136.9563
251.9341, 136.3086
252.4162, 136.8129
252.8984, 136.8832
253.3805, 136.5237
253.8626, 135.7173
254.3447, 134.3825
254.8268, 132.1757
255.3089, 130.1110
255.7911, 128.5848
256.2732, 127.6963
256.7553, 126.4405
257.2374, 124.7390
257.7195, 122.7393
258.2017, 120.5112
258.6838, 117.6963
259.1659, 115.4489
259.6480, 114.2134
260.1301, 114.0539
260.6122, 113.4103
261.0944, 112.0090
261.5765, 110.4585
262.0586, 109.4377
262.5407, 109.1481
263.0228, 108.8369
263.5049, 108.3343
263.9871, 107.6465
264.4692, 107.0343
264.9513, 106.5048
265.4334, 106.0316
265.9155, 105.5662
266.3976, 105.0847
266.8798, 104.7047
267.3619, 104.3910
267.8440, 104.1783
268.3261, 104.5018
268.8082, 105.6613
269.2903, 106.7260
269.7725, 106.7460
270.2546, 105.3775
270.7367, 104.5735
271.2188, 104.7361
271.7009, 105.6460
272.1830, 106.4405
272.6652, 107.1338
273.1473, 107.6533
273.6294, 107.8501
274.1115, 107.6233
274.5936, 107.7440
275.0757, 108.4254
275.5579, 109.4072
276.0400, 109.8819
276.5221, 109.7519
277.0042, 109.5056
277.4863, 109.3383
277.9684, 109.2297
278.4506, 109.5613
278.9327, 110.5464
279.4148, 111.7485
279.8969, 112.1887
280.3790, 111.7865
280.8611, 111.1977
281.3433, 110.5613
281.8254, 109.8827
282.3075, 109.9472
282.7896, 110.9059
283.2717, 112.3236
283.7538, 113.6963
284.2360, 115.0411
284.7181, 115.9190
285.2002, 115.8704
285.6823, 115.0349
286.1644, 114.6907
286.6465, 114.8838
287.1287, 115.4062
287.6108, 116.0411
288.0929, 116.7862
288.5750, 117.6047
289.0571, 118.3819
289.5392, 119.2225
290.0214, 120.5804
290.5035, 122.4820
290.9856, 124.6188
291.4677, 126.6592
291.9498, 128.6461
292.4319, 130.8199
292.9141, 133.5609
293.3962, 136.3915
293.8783, 137.9794
294.3604, 138.3007
294.8425, 138.4764
295.3246, 139.7715
295.8068, 141.7745
296.2889, 143.1015
296.7710, 143.4516
297.2531, 142.9589
297.7352, 141.6945
298.2173, 139.7080
298.6995, 137.3384
299.1816, 134.6430
299.6637, 131.7628
300.1458, 129.1474
300.6279, 127.0241
301.1100, 124.8034
301.5922, 121.3903
302.0743, 117.1173
302.5564, 113.3487
303.0385, 111.3163
303.5206, 110.1247
304.0027, 108.4059
304.4849, 105.9151
304.9670, 103.2534
305.4491, 100.5821
305.9312, 98.17023
306.4133, 96.66279
306.8954, 97.09231
307.3776, 98.20100
307.8597, 98.75020
308.3418, 98.63905
308.8239, 98.26420
309.3060, 97.85404
309.7881, 97.38393
310.2703, 96.82835
310.7524, 96.11406
311.2345, 95.35189
311.7166, 94.51103
312.1987, 93.60820
312.6808, 93.01105
313.1630, 93.07777
313.6451, 93.49635
314.1272, 93.93352
314.6093, 94.34831
315.0914, 94.68511
315.5735, 94.86563
316.0557, 94.91794
316.5378, 94.99413
317.0199, 94.80494
317.5020, 94.86766
317.9841, 95.63268
318.4662, 97.81392
318.9484, 99.76633
319.4305, 100.9692
319.9126, 101.5370
320.3947, 101.7698
320.8768, 101.1535
321.3589, 100.6796
321.8411, 100.9081
322.3232, 102.2137
322.8053, 103.4661
323.2874, 104.3268
323.7695, 105.0263
324.2516, 105.9293
324.7338, 107.5436
325.2159, 108.9528
325.6980, 109.7210
326.1801, 109.5851
326.6622, 109.9304
327.1443, 111.2395
327.6265, 112.9065
328.1086, 114.3284
328.5907, 115.3156
329.0728, 116.2371
329.5549, 116.9405
330.0370, 117.4228
330.5192, 118.6849
331.0013, 121.6461
331.4834, 124.6186
331.9655, 126.4372
332.4476, 126.4608
332.9297, 126.4030
333.4119, 126.2273
333.8940, 126.0561
334.3761, 126.5983
334.8582, 128.5822
335.3403, 130.1069
335.8224, 129.9728
336.3046, 127.2915
336.7867, 125.7242
337.2688, 125.9263
337.7509, 126.8221
338.2330, 126.0424
338.7151, 123.0654
339.1973, 120.0722
339.6794, 118.0372
340.1615, 117.0530
340.6436, 115.2493
341.1257, 112.3682
341.6078, 109.2765
342.0899, 107.1515
342.5721, 106.0963
343.0542, 105.1110
343.5363, 103.9558
344.0184, 102.6516
344.5005, 101.2058
344.9826, 99.61068
345.4648, 98.02017
345.9469, 96.53664
346.4290, 95.15745
346.9111, 94.03461
347.3932, 93.22463
347.8753, 92.62456
348.3575, 92.01521
348.8396, 91.41420
349.3217, 91.01877
349.8038, 91.15664
350.2859, 91.59320
350.7680, 91.71984
351.2502, 91.41090
351.7323, 90.99306
352.2144, 90.91431
352.6965, 91.05159
353.1786, 91.03481
353.6607, 90.56172
354.1429, 89.88826
354.6250, 89.29865
355.1071, 88.80592
355.5892, 88.41957
356.0713, 88.16022
356.5534, 88.01085
357.0356, 87.94615
357.5177, 87.98989
357.9998, 88.08870
358.4819, 88.28087
358.9640, 88.53117
359.4461, 88.63385
359.9283, 88.25905
360.4104, 87.80841
360.8925, 87.59785
361.3746, 87.64239
361.8567, 88.02972
362.3388, 89.27591
362.8210, 90.89677
363.3031, 91.82478
363.7852, 90.66363
364.2673, 89.58305
364.7494, 89.78677
365.2315, 91.87257
365.7137, 93.49904
366.1958, 94.11403
366.6779, 94.05153
367.1600, 93.70922
367.6421, 92.47861
368.1242, 91.64719
368.6064, 91.60108
369.0885, 92.38661
369.5706, 93.10628
370.0527, 93.78909
370.5348, 94.38945
371.0169, 94.88116
371.4991, 95.20337
371.9812, 95.53286
372.4633, 96.04750
372.9454, 96.57336
373.4275, 96.42137
373.9096, 95.19650
374.3918, 93.97652
374.8739, 93.20293
375.3560, 92.83257
375.8381, 93.19897
376.3202, 94.72623
376.8023, 96.43403
377.2845, 96.55998
377.7666, 94.75031
378.2487, 93.28472
378.7308, 92.99544
379.2129, 93.71777
379.6950, 94.55727
380.1772, 95.61626
380.6593, 96.29874
381.1414, 95.77339
381.6235, 94.19404
382.1056, 93.00459
382.5877, 92.65935
383.0699, 92.64853
383.5520, 91.86818
384.0341, 90.39690
384.5162, 89.10642
384.9983, 88.62694
385.4804, 88.70763
385.9626, 88.84117
386.4447, 88.99370
386.9268, 89.10942
387.4089, 89.40582
387.8910, 89.63169
388.3731, 89.21350
388.8553, 86.92294
389.3374, 84.48146
389.8195, 83.68663
390.3016, 84.49339
390.7837, 85.68330
391.2658, 86.80662
391.7480, 87.79032
392.2301, 88.57484
392.7122, 89.28191
393.1943, 89.60033
393.6764, 89.11827
394.1585, 88.08963
394.6407, 87.24507
395.1228, 87.10201
395.6049, 86.99267
396.0870, 86.47793
396.5691, 85.25169
397.0512, 84.47686
397.5334, 84.79521
398.0155, 85.54880
398.4976, 85.90985
398.9797, 85.24409
399.4618, 84.77431
399.9439, 84.96677
400.4261, 85.81486
400.9082, 85.92289
401.3903, 84.95891
401.8724, 83.56765
402.3545, 82.08000
402.8366, 80.24457
403.3188, 78.90158
403.8009, 78.18069
404.2830, 77.94341
404.7651, 77.90263
405.2472, 78.15728
405.7293, 78.32780
406.2115, 78.22947
406.6936, 77.85515
407.1757, 77.47518
407.6578, 77.03647
408.1399, 76.73678
408.6220, 76.88771
409.1042, 77.47845
409.5863, 78.01258
410.0684, 78.37037
410.5505, 78.57889
411.0326, 78.72048
411.5147, 78.79430
411.9969, 78.77016
412.4790, 78.59122
412.9611, 78.30038
413.4432, 78.00334
413.9253, 77.71346
414.4074, 77.41081
414.8896, 76.98862
415.3717, 76.53092
415.8538, 76.24013
416.3359, 76.19109
416.8180, 76.36897
417.3001, 76.91797
417.7823, 77.82269
418.2644, 78.50499
418.7465, 78.42541
419.2286, 78.07129
419.7107, 77.90900
420.1928, 78.07265
420.6750, 78.42534
421.1571, 79.04977
421.6392, 79.83586
422.1213, 80.48263
422.6034, 80.99015
423.0855, 81.27345
423.5677, 81.15419
424.0498, 80.34410
424.5319, 80.13783
425.0140, 81.28713
425.4961, 82.77821
425.9782, 83.57695
426.4604, 83.11635
426.9425, 82.80589
427.4246, 82.96944
427.9067, 83.49653
428.3888, 83.52667
428.8709, 82.71114
429.3531, 82.01465
429.8352, 82.04237
430.3173, 82.96099
430.7994, 83.79649
431.2815, 84.58965
431.7636, 85.18253
432.2458, 85.23792
432.7279, 84.72913
433.2100, 84.09914
433.6921, 83.38895
434.1742, 82.69148
434.6563, 82.44475
435.1385, 82.65772
435.6206, 82.92712
436.1027, 82.87244
436.5848, 82.60292
437.0669, 82.37992
437.5490, 82.19859
438.0312, 82.21680
438.5133, 82.82340
438.9954, 83.80587
439.4775, 84.57207
439.9596, 84.54820
440.4417, 84.34528
440.9239, 84.63963
441.4060, 85.47127
441.8881, 86.06248
442.3702, 85.51754
442.8523, 84.71910
443.3344, 84.52942
443.8166, 85.97226
444.2987, 87.12117
444.7808, 86.93871
445.2629, 85.95190
445.7450, 85.70567
446.2271, 87.40405
446.7093, 89.12349
447.1914, 89.98962
447.6735, 89.48553
448.1556, 89.78181
448.6377, 91.52999
449.1198, 93.63561
449.6020, 94.95679
450.0841, 95.01295
450.5662, 95.26035
451.0483, 96.05225
451.5304, 97.19714
452.0125, 97.69057
452.4947, 97.26234
452.9768, 97.02885
453.4589, 97.80987
453.9410, 99.64726
454.4231, 100.9253
454.9052, 101.5746
455.3874, 101.8268
455.8695, 101.7891
456.3516, 101.5321
456.8337, 101.5937
457.3158, 102.2937
457.7979, 103.2921
458.2801, 103.9919
458.7622, 104.4209
459.2443, 104.7945
459.7264, 104.8189
460.2085, 105.0440
460.6906, 106.3809
461.1728, 109.1699
461.6549, 112.0592
462.1370, 114.1682
462.6191, 115.7068
463.1012, 116.9272
463.5833, 117.3447
464.0655, 118.0080
464.5476, 119.5359
465.0297, 121.8251
465.5118, 124.0240
465.9939, 126.0140
466.4760, 127.7290
466.9582, 129.0844
467.4403, 129.7417
467.9224, 130.6573
468.4045, 131.8630
468.8866, 133.3213
469.3687, 135.0652
469.8509, 137.4057
470.3330, 139.4115
470.8151, 140.8348
471.2972, 141.7185
471.7793, 142.4312
472.2614, 142.8820
472.7436, 143.4341
473.2257, 144.6076
473.7078, 146.4303
474.1899, 147.1906
474.6720, 146.5795
475.1541, 145.3969
475.6363, 144.7930
476.1184, 144.6873
476.6005, 144.5870
477.0826, 144.5489
477.5647, 144.2451
478.0468, 142.8557
478.5290, 140.4974
479.0111, 138.2326
479.4932, 137.3512
479.9753, 136.7515
480.4574, 134.9822
480.9395, 131.4599
481.4217, 127.8224
481.9038, 125.3169
482.3859, 123.3330
482.8680, 121.0061
483.3501, 117.1818
483.8322, 113.8100
484.3144, 111.8486
484.7965, 111.2235
485.2786, 110.3478
485.7607, 108.6370
486.2428, 106.9102
486.7249, 105.6001
487.2071, 105.0456
487.6892, 104.1839
488.1713, 102.7401
488.6534, 101.1845
489.1355, 100.3155
489.6176, 100.5478
490.0998, 100.1676
490.5819, 98.42141
491.0640, 95.74990
491.5461, 94.62432
492.0282, 95.22227
492.5103, 96.00111
492.9925, 95.84702
493.4746, 94.93181
493.9567, 94.05999
494.4388, 93.22183
494.9209, 92.72305
495.4030, 93.17080
495.8852, 94.23386
496.3673, 95.06750
496.8494, 94.94058
497.3315, 94.83813
497.8136, 96.04186
498.2957, 98.21042
498.7779, 99.89378
499.2600, 99.83855
499.7421, 99.38670
500.2242, 99.54965
500.7063, 100.6346
501.1884, 101.5118
501.6706, 101.2642
502.1527, 100.8961
502.6348, 101.4289
503.1169, 104.1370
503.5990, 106.3907
504.0811, 107.8559
504.5633, 108.6484
505.0454, 109.1216
505.5275, 108.8480
506.0096, 108.9801
506.4917, 110.0415
506.9738, 112.1138
507.4560, 114.3264
507.9381, 116.7922
508.4202, 119.0937
508.9023, 120.6096
509.3844, 121.4012
509.8665, 122.6161
510.3487, 124.6438
510.8308, 126.8635
511.3129, 127.9864
511.7950, 128.2726
512.2772, 128.9345
512.7593, 131.0344
513.2414, 133.6350
513.7235, 135.7917
514.2056, 137.4673
514.6877, 138.5500
515.1699, 138.6487
515.6520, 138.2863
516.1341, 138.0089
516.6162, 138.3024
517.0983, 137.9586
517.5804, 136.2304
518.0626, 133.6806
518.5447, 131.2325
519.0268, 129.0751
519.5089, 126.9812
519.9910, 124.9808
520.4731, 123.0507
520.9553, 120.9141
521.4374, 118.4960
521.9195, 116.0218
522.4016, 113.5915
522.8837, 111.2147
523.3658, 108.8935
523.8480, 106.5258
524.3301, 104.4281
524.8122, 103.3288
525.2943, 103.1482
525.7764, 102.4269
526.2585, 100.5058
526.7407, 98.13149
527.2228, 96.68001
527.7049, 96.02494
528.1870, 95.46432
528.6691, 94.17437
529.1512, 92.94037
529.6334, 93.04726
530.1155, 94.63837
530.5976, 95.70425
531.0797, 94.45299
531.5618, 92.36644
532.0439, 90.94047
532.5261, 91.04103
533.0082, 91.09398
533.4903, 90.65816
533.9724, 89.90335
534.4545, 89.17897
534.9366, 88.33879
535.4188, 87.75129
535.9009, 87.66631
536.3830, 88.06231
536.8651, 87.91058
537.3472, 87.02702
537.8293, 85.96593
538.3115, 85.02475
538.7936, 84.19438
539.2757, 83.67283
539.7578, 83.50225
540.2399, 83.56287
540.7220, 83.86474
541.2042, 84.32127
541.6863, 84.45567
542.1684, 84.06493
542.6505, 83.34440
543.1326, 82.40630
543.6147, 81.33592
544.0969, 80.43881
544.5790, 79.68922
545.0611, 79.34557
545.5432, 79.90027
546.0253, 81.44547
546.5074, 82.57492
546.9896, 82.38982
547.4717, 81.70345
547.9538, 81.17245
548.4359, 81.09776
548.9180, 80.91592
549.4001, 80.20506
549.8823, 79.47163
550.3644, 79.66571
550.8465, 81.45107
551.3286, 82.92403
551.8107, 83.59904
552.2928, 83.55623
552.7750, 83.27760
553.2571, 82.68909
553.7392, 82.22129
554.2213, 82.17434
554.7034, 82.50110
555.1855, 82.92326
555.6677, 83.42099
556.1498, 84.06321
556.6319, 85.08526
557.1140, 86.28346
557.5961, 87.19083
558.0782, 87.48087
558.5604, 87.76815
559.0425, 88.65996
559.5246, 89.92276
560.0067, 91.03391
560.4888, 91.58992
560.9709, 92.10899
561.4531, 92.84193
561.9352, 93.80034
562.4173, 94.69249
562.8994, 95.38976
563.3815, 96.08348
563.8636, 96.83461
564.3458, 97.48686
564.8279, 98.65057
565.3100, 100.5238
565.7921, 102.6753
566.2742, 104.5592
566.7563, 106.1745
567.2385, 107.6379
567.7206, 108.9491
568.2027, 110.1412
568.6848, 111.0635
569.1669, 111.7979
569.6490, 112.8720
570.1312, 115.0552
570.6133, 117.5437
571.0954, 119.0361
571.5775, 119.5775
572.0596, 120.0075
572.5417, 120.6655
573.0239, 121.5825
573.5060, 122.9355
573.9881, 125.1988
574.4702, 126.6987
574.9523, 126.1737
575.4344, 124.9045
575.9166, 124.5263
576.3987, 126.3689
576.8808, 127.4738
577.3629, 127.2878
577.8450, 126.1693
578.3271, 125.2787
578.8093, 124.6616
579.2914, 124.1516
579.7735, 123.8220
580.2556, 123.5932
580.7377, 122.8037
581.2198, 121.4440
581.7020, 119.6169
582.1841, 116.9889
582.6662, 114.0045
583.1483, 111.7296
583.6304, 110.4013
584.1125, 109.4546
584.5947, 108.4546
585.0768, 107.5079
585.5589, 106.7804
586.0410, 106.7968
586.5231, 106.5225
587.0052, 105.3460
587.4873, 103.5383
587.9694, 101.8489
588.4515, 100.0109
588.9337, 98.73177
589.4158, 98.27876
589.8979, 98.65552
590.3800, 99.25462
590.8621, 100.2642
591.3442, 101.1641
591.8264, 101.5936
592.3085, 101.5298
592.7906, 101.2947
593.2727, 100.8101
593.7548, 100.4663
594.2369, 100.8071
594.7191, 101.6967
595.2012, 102.6227
595.6833, 103.4992
596.1654, 104.2895
596.6475, 104.8714
597.1296, 105.3322
597.6118, 105.8889
598.0939, 106.7838
598.5760, 107.6741
599.0581, 108.1801
599.5402, 108.3865
600.0223, 109.1329
600.5045, 111.0056
600.9866, 113.1227
601.4687, 115.1014
601.9508, 116.8879
602.4329, 118.7861
602.9150, 120.8686
603.3972, 122.9449
603.8793, 124.6585
604.3614, 125.9076
604.8435, 128.0562
605.3256, 131.4300
605.8077, 135.3133
606.2899, 138.5798
606.7720, 141.3373
607.2541, 143.9574
607.7362, 146.5680
608.2183, 149.1224
608.7004, 151.2077
609.1826, 153.0930
609.6647, 155.6368
610.1468, 159.8386
610.6289, 164.4319
611.1110, 168.6797
611.5931, 172.5864
612.0753, 176.2516
612.5574, 179.5023
613.0395, 182.7158
613.5216, 186.1027
614.0037, 189.7756
614.4858, 193.4344
614.9680, 197.1202
615.4501, 200.7352
615.9322, 204.0928
616.4143, 207.1550
616.8964, 210.4603
617.3785, 214.2231
617.8607, 218.0046
618.3428, 221.0011
618.8249, 223.3301
619.3070, 225.4860
619.7891, 228.1044
620.2712, 230.3746
620.7534, 231.4130
621.2355, 231.3621
621.7176, 230.8210
622.1997, 229.9076
622.6818, 228.7373
623.1639, 227.3604
623.6461, 225.7812
624.1282, 224.0184
624.6103, 222.4068
625.0924, 220.3295
625.5745, 217.3057
626.0566, 212.8380
626.5388, 208.8152
627.0209, 205.5604
627.5030, 202.3367
627.9851, 197.8726
628.4672, 192.2850
628.9493, 187.2946
629.4315, 183.4422
629.9136, 180.1149
630.3957, 176.6073
630.8778, 172.8985
631.3599, 168.9655
631.8420, 164.4224
632.3242, 159.9579
632.8063, 156.0296
633.2884, 152.6497
633.7705, 149.6331
634.2526, 147.5250
634.7347, 145.2509
635.2169, 141.9423
635.6990, 137.2086
636.1811, 133.9751
636.6632, 133.0690
637.1453, 132.6110
637.6274, 131.2068
638.1096, 128.6482
638.5917, 126.5071
639.0738, 124.8802
639.5559, 123.5537
640.0380, 122.3065
640.5201, 121.1155
641.0023, 119.8638
641.4844, 118.3665
641.9665, 117.0839
642.4486, 116.7938
642.9307, 117.0511
643.4128, 116.8923
643.8950, 115.1860
644.3771, 113.6730
644.8592, 113.4073
645.3413, 114.1402
645.8234, 114.4476
646.3055, 113.4649
646.7877, 112.6975
647.2698, 112.7619
647.7519, 113.7034
648.2340, 114.0874
648.7161, 113.7906
649.1982, 113.2736
649.6804, 112.6465
650.1625, 111.9874
650.6446, 112.2048
651.1267, 113.4276
651.6088, 114.8311
652.0909, 115.6285
652.5731, 115.9833
653.0552, 116.1421
653.5373, 116.0400
654.0194, 116.0562
654.5015, 116.5083
654.9836, 117.2084
655.4658, 117.8817
655.9479, 118.4555
656.4300, 118.9992
656.9121, 119.5799
657.3942, 120.1446
657.8763, 120.5744
658.3585, 120.9713
658.8406, 120.9725
659.3227, 120.3103
659.8048, 119.1597
660.2869, 118.5194
660.7690, 118.4047
661.2512, 118.3237
661.7333, 117.9402
662.2154, 117.3763
662.6975, 116.9158
663.1796, 116.5598
663.6617, 116.0500
664.1439, 114.9631
664.6260, 113.7898
665.1081, 112.9930
665.5902, 112.7588
666.0723, 112.5494
666.5544, 112.2285
667.0366, 111.8876
667.5187, 111.5856
668.0008, 111.1578
668.4829, 111.1779
668.9650, 111.9079
669.4471, 112.8309
669.9293, 113.0327
670.4114, 112.5045
670.8935, 112.1196
671.3756, 112.1087
671.8577, 112.3602
672.3398, 112.6693
672.8220, 113.0779
673.3041, 113.7235
673.7862, 114.7561
674.2683, 115.9739
674.7504, 117.5079
675.2325, 119.1988
675.7147, 120.2612
676.1968, 119.5410
676.6789, 119.0035
677.1610, 119.7047
677.6431, 121.7266
678.1252, 122.9848
678.6074, 122.9644
679.0895, 123.1237
679.5716, 124.5714
680.0537, 127.3196
680.5358, 129.5835
681.0179, 131.3266
681.5001, 132.5766
681.9822, 132.8300
682.4643, 132.6852
682.9464, 133.4687
683.4285, 135.6146
683.9106, 137.8968
684.3928, 139.3595
684.8749, 140.5112
685.3570, 141.9901
685.8391, 144.0517
686.3212, 146.3484
686.8033, 149.2553
687.2855, 152.2494
687.7676, 154.4220
688.2497, 155.3873
688.7318, 156.6055
689.2139, 158.5149
689.6960, 160.7656
690.1782, 162.3616
690.6603, 163.3252
691.1424, 164.0611
691.6245, 164.7203
692.1066, 165.2973
692.5887, 165.9223
693.0709, 166.5040
693.5530, 166.6322
694.0351, 166.1050
694.5172, 165.0226
694.9993, 163.2742
695.4814, 160.8419
695.9636, 158.5302
696.4457, 157.1143
696.9278, 155.1782
697.4099, 151.7619
697.8920, 146.4273
698.3741, 142.8107
698.8563, 141.4088
699.3384, 140.1973
699.8205, 137.0317
700.3026, 132.4235
700.7847, 128.6472
701.2668, 125.9757
701.7490, 123.8668
702.2311, 122.2825
702.7132, 120.7711
703.1953, 118.6156
703.6774, 115.1761
704.1595, 112.0416
704.6417, 110.0554
705.1238, 108.6157
705.6059, 106.9013
706.0880, 104.4124
706.5701, 102.3678
707.0522, 100.9642
707.5344, 99.99915
708.0165, 99.10274
708.4986, 98.27827
708.9807, 97.53767
709.4628, 96.96174
709.9449, 96.37826
710.4271, 95.37520
710.9092, 94.06368
711.3913, 92.81783
711.8734, 91.84773
712.3555, 91.01814
712.8376, 90.23261
713.3198, 89.49516
713.8019, 88.85410
714.2840, 88.33138
714.7661, 87.89442
715.2482, 87.57484
715.7303, 87.36491
716.2125, 87.02547
716.6946, 86.53096
717.1767, 85.97072
717.6588, 85.28692
718.1409, 84.53610
718.6230, 84.33392
719.1052, 84.69350
719.5873, 84.96376
720.0694, 84.51344
720.5515, 83.72061
721.0336, 83.05582
721.5157, 82.59213
721.9979, 82.15314
722.4800, 81.69186
722.9621, 81.19289
723.4442, 80.60741
723.9263, 79.69669
724.4084, 79.26616
724.8906, 79.62891
725.3727, 80.09764
725.8548, 79.92212
726.3369, 79.05184
726.8190, 78.23219
727.3011, 77.52469
727.7833, 76.99998
728.2654, 76.85721
728.7475, 76.97560
729.2296, 77.04967
729.7117, 76.91118
730.1938, 76.88091
730.6760, 77.45200
731.1581, 78.19978
731.6402, 78.47963
732.1223, 77.75386
732.6044, 77.01937
733.0865, 76.42681
733.5687, 75.91859
734.0508, 75.30046
734.5329, 74.44494
735.0150, 74.06826
735.4971, 74.54677
735.9792, 75.39816
736.4614, 75.47240
736.9435, 74.89645
737.4256, 74.32314
737.9077, 74.05891
738.3898, 73.95579
738.8719, 74.00745
739.3541, 74.13223
739.8362, 74.04210
740.3183, 73.19984
740.8004, 72.55453
741.2825, 72.51000
741.7646, 73.01100
742.2468, 73.77342
742.7289, 75.10232
743.2110, 75.90749
743.6931, 75.45679
744.1752, 74.02379
744.6573, 73.13515
745.1395, 72.79108
745.6216, 72.74819
746.1037, 73.12601
746.5858, 73.55380
747.0679, 73.43262
747.5500, 72.76869
748.0322, 72.34616
748.5143, 72.91557
748.9964, 73.52654
749.4785, 73.51427
749.9606, 72.64655
750.4427, 72.17799
750.9249, 72.16801
751.4070, 72.44018
751.8891, 73.09289
752.3712, 74.11281
752.8533, 74.15459
753.3354, 73.08731
753.8176, 71.96670
754.2997, 71.81345
754.7818, 72.24290
755.2639, 72.76574
755.7460, 73.36098
756.2281, 73.66164
756.7103, 73.24998
757.1924, 72.58684
757.6745, 72.05250
758.1566, 71.61479
758.6387, 71.48775
759.1208, 71.78386
759.6030, 72.25330
760.0851, 72.78467
760.5672, 73.40245
761.0493, 73.21567
761.5314, 71.93434
762.0135, 70.65000
762.4957, 70.81574
762.9778, 71.88641
763.4599, 72.92178
763.9420, 73.84610
764.4241, 74.26099
764.9063, 73.36000
765.3884, 72.06288
765.8705, 71.50790
766.3526, 72.72780
766.8347, 73.40917
767.3168, 73.23452
767.7990, 72.68920
768.2811, 72.51709
768.7632, 72.73839
769.2453, 72.93021
769.7274, 73.02098
770.2095, 73.01400
770.6917, 72.84178
771.1738, 72.58017
771.6559, 72.40919
772.1380, 72.57257
772.6201, 72.58684
773.1022, 71.96673
773.5844, 71.07198
774.0665, 70.55302
774.5486, 70.81066
775.0307, 70.95573
775.5128, 70.71911
775.9949, 70.41835
776.4771, 70.90417
776.9592, 72.21735
777.4413, 73.28923
777.9234, 73.91652
778.4055, 73.98608
778.8876, 72.76859
779.3698, 70.83321
779.8519, 69.64030
780.3340, 70.41558
780.8161, 71.51083
781.2982, 72.43742
781.7803, 73.10484
782.2625, 73.23176
782.7446, 72.33149
783.2267, 71.71585
783.7088, 71.75140
784.1909, 72.18120
784.6730, 72.17629
785.1552, 71.74253
785.6373, 71.58632
786.1194, 72.13512
786.6015, 72.94373
787.0836, 73.48545
787.5657, 73.75449
788.0479, 73.72356
788.5300, 73.03499
789.0121, 72.39412
789.4942, 72.10861
789.9763, 72.13239
790.4584, 72.26273
790.9406, 72.62649
791.4227, 72.82877
791.9048, 72.72424
792.3869, 72.40169
792.8690, 72.17764
793.3511, 72.03616
793.8333, 71.74001
794.3154, 70.76932
794.7975, 69.93263
795.2796, 70.70657
795.7617, 72.53208
796.2438, 73.58659
796.7260, 72.07742
797.2081, 70.77121
797.6902, 71.07263
798.1723, 72.50761
798.6544, 73.14852
799.1365, 72.66536
799.6187, 72.25624
800.1008, 72.33434
800.5829, 72.74596
801.0650, 73.09608
801.5471, 73.37608
802.0292, 73.53862
802.5114, 73.63117
802.9935, 73.53139
803.4756, 72.76717
803.9577, 71.65816
804.4398, 71.28130
804.9219, 72.96095
805.4041, 74.28998
805.8862, 74.35767
806.3683, 73.52692
806.8504, 73.42029
807.3325, 74.25313
807.8146, 74.71409
808.2968, 74.05954
808.7789, 72.93178
809.2610, 72.91911
809.7431, 73.76659
810.2252, 74.43417
810.7073, 74.18281
811.1895, 73.75768
811.6716, 73.73470
812.1537, 73.95233
812.6358, 73.77470
813.1179, 72.54691
813.6000, 71.67850
814.0822, 71.47744
814.5643, 71.86617
815.0464, 72.86482
815.5285, 74.49632
816.0106, 75.31859
816.4927, 74.15540
816.9749, 72.45923
817.4570, 72.69028
817.9391, 74.25037
818.4212, 75.42211
818.9033, 75.31685
819.3854, 74.77020
819.8676, 73.78577
820.3497, 72.60837
820.8318, 72.01398
821.3139, 72.14742
821.7960, 72.57448
822.2781, 73.34474
822.7603, 74.19507
823.2424, 74.38493
823.7245, 74.02492
824.2066, 73.84714
824.6887, 74.40392
825.1708, 74.94641
825.6530, 74.54436
826.1351, 73.62202
826.6172, 73.13383
827.0993, 73.60708
827.5814, 74.25478
828.0635, 75.16115
828.5457, 76.03352
829.0278, 76.22034
829.5099, 75.63792
829.9920, 74.85955
830.4741, 73.89016
830.9562, 73.05516
831.4384, 73.07862
831.9205, 73.65132
832.4026, 73.95854
832.8847, 73.36306
833.3668, 72.92664
833.8489, 73.49102
834.3311, 74.49191
834.8132, 74.92572
835.2953, 74.32396
835.7774, 74.00327
836.2595, 74.26571
836.7416, 74.64362
837.2238, 74.14662
837.7059, 72.91631
838.1880, 72.41041
838.6701, 73.15423
839.1522, 74.07015
839.6343, 73.96967
840.1165, 73.37141
840.5986, 73.02007
841.0807, 73.30402
841.5628, 73.53989
842.0449, 73.55573
842.5270, 73.48869
843.0092, 73.52702
843.4913, 73.75636
843.9734, 73.47621
844.4555, 72.46394
844.9376, 71.53986
845.4197, 71.99535
845.9019, 73.20644
846.3840, 73.80878
846.8661, 73.43187
847.3482, 72.99809
847.8303, 72.87408
848.3124, 73.02341
848.7946, 73.51384
849.2767, 74.77089
849.7588, 75.12041
850.2409, 74.18544
850.7230, 73.05530
851.2051, 72.77016
851.6873, 73.18670
852.1694, 73.34983
852.6515, 73.19360
853.1336, 72.92952
853.6157, 72.58880
854.0978, 72.31360
854.5800, 72.27752
855.0621, 72.53123
855.5442, 72.74129
856.0263, 72.73663
856.5084, 72.78708
856.9905, 73.09435
857.4727, 73.65901
857.9548, 73.80386
858.4369, 73.49212
858.9190, 73.17383
859.4011, 73.31073
859.8832, 73.57285
860.3654, 73.37633
860.8475, 72.75732
861.3296, 72.15721
861.8117, 71.94960
862.2938, 71.64365
862.7759, 70.68944
863.2581, 69.27187
863.7402, 69.00268
864.2223, 70.30183
864.7044, 71.29756
865.1865, 70.97745
865.6686, 69.97665
866.1508, 70.03897
866.6329, 70.93670
867.1150, 71.68511
867.5971, 71.61253
868.0792, 71.38547
868.5613, 71.49799
869.0435, 71.78050
869.5256, 71.66086
870.0077, 70.85297
870.4898, 70.08408
870.9719, 69.39058
871.4540, 68.89687
871.9362, 69.07494
872.4183, 69.80958
872.9004, 70.17152
873.3825, 69.79646
873.8646, 69.11366
874.3467, 68.29019
874.8289, 67.50584
875.3110, 67.04508
875.7931, 67.21837
876.2752, 67.43102
876.7573, 67.69585
877.2394, 67.91221
877.7216, 67.95381
878.2037, 67.81358
878.6858, 67.52779
879.1679, 67.02812
879.6500, 66.74859
880.1321, 67.38833
880.6143, 68.45697
881.0964, 69.33275
881.5785, 69.98512
882.0606, 70.04016
882.5427, 68.73161
883.0248, 67.27181
883.5070, 66.51957
883.9891, 66.59406
884.4712, 66.61172
884.9533, 66.54747
885.4354, 66.55119
885.9175, 66.86899
886.3997, 67.29922
886.8818, 67.43565
887.3639, 67.26877
887.8460, 66.91813
888.3281, 66.10616
888.8102, 65.43964
889.2924, 65.32276
889.7745, 65.72710
890.2566, 66.18070
890.7387, 66.77055
891.2208, 67.13421
891.7029, 67.09491
892.1851, 66.74746
892.6672, 66.13573
893.1493, 65.37993
893.6314, 65.00609
894.1135, 65.74644
894.5956, 66.47176
895.0778, 66.38875
895.5599, 65.81413
896.0420, 65.59712
896.5241, 66.05965
897.0062, 66.29450
897.4883, 66.13129
897.9705, 65.70868
898.4526, 65.27992
898.9347, 64.81971
899.4168, 64.13240
899.8989, 62.99990
900.3810, 62.13185
900.8632, 62.23981
901.3453, 62.84946
901.8274, 63.43930
902.3095, 64.06409
902.7916, 64.31988
903.2737, 64.04742
903.7559, 63.64279
904.2380, 63.40150
904.7201, 63.32874
905.2022, 63.64536
905.6843, 64.37358
906.1664, 64.85176
906.6486, 64.29772
907.1307, 63.40408
907.6128, 62.71095
908.0949, 62.27493
908.5770, 62.20914
909.0591, 62.78150
909.5413, 63.36278
910.0234, 63.76260
910.5055, 63.96037
910.9876, 63.72386
911.4697, 63.07673
911.9518, 62.45967
912.4340, 61.84606
912.9161, 61.59493
913.3982, 62.63743
913.8803, 64.36902
914.3624, 65.09840
914.8445, 63.26953
915.3267, 61.76332
915.8088, 61.08428
916.2909, 60.99012
916.7730, 61.09419
917.2551, 61.39106
917.7372, 61.62160
918.2194, 61.71488
918.7015, 61.76768
919.1836, 61.79123
919.6657, 61.87772
920.1478, 62.18947
920.6299, 62.99111
921.1121, 63.51045
921.5942, 63.53048
922.0763, 63.37847
922.5584, 63.28210
923.0405, 63.24136
923.5226, 63.16784
924.0048, 63.03634
924.4869, 63.27498
924.9690, 64.82225
925.4511, 66.56506
925.9332, 67.07595
926.4153, 66.33038
926.8975, 65.68592
927.3796, 65.37065
927.8617, 65.40189
928.3438, 65.86984
928.8259, 66.68823
929.3080, 67.44559
929.7902, 68.14473
930.2723, 68.77974
930.7544, 69.40642
931.2365, 69.89076
931.7186, 69.74071
932.2007, 69.36992
932.6829, 69.62546
933.1650, 71.71647
933.6471, 73.12971
934.1292, 73.05289
934.6113, 72.60820
935.0934, 73.59953
935.5756, 76.01374
936.0577, 77.65364
936.5398, 78.14780
937.0219, 78.20876
937.5040, 78.34768
937.9861, 78.53274
938.4683, 78.58678
938.9504, 78.30238
939.4325, 78.90858
939.9146, 81.38132
940.3967, 83.73549
940.8788, 84.83230
941.3610, 84.78580
941.8431, 85.25607
942.3252, 86.22170
942.8073, 86.96529
943.2894, 86.90921
943.7715, 86.51527
944.2537, 86.10343
944.7358, 85.69971
945.2179, 85.35658
945.7000, 85.07218
946.1821, 84.88181
946.6642, 84.83943
947.1464, 84.84995
947.6285, 84.74792
948.1106, 84.52819
948.5927, 84.13455
949.0748, 83.52891
949.5569, 82.82529
950.0391, 82.04779
950.5212, 81.26419
951.0033, 80.59430
951.4854, 80.26555
951.9675, 79.45724
952.4496, 77.80269
952.9318, 76.29692
953.4139, 75.91856
953.8960, 76.42261
954.3781, 76.25608
954.8602, 75.44021
955.3423, 74.78462
955.8245, 75.37899
956.3066, 75.84853
956.7887, 74.80523
957.2708, 72.52161
957.7529, 71.49796
958.2350, 72.33307
958.7172, 73.19884
959.1993, 73.68591
959.6814, 73.81320
960.1635, 73.61676
960.6456, 73.09561
961.1277, 72.15452
961.6099, 70.34947
962.0920, 68.96477
962.5741, 68.98153
963.0562, 69.67439
963.5383, 70.23045
964.0204, 70.61653
964.5026, 70.87325
964.9847, 70.98932
965.4668, 71.00848
965.9489, 71.05605
966.4310, 71.00819
966.9131, 70.52541
967.3953, 69.62221
967.8774, 68.70641
968.3595, 67.70752
968.8416, 67.04173
969.3237, 67.14461
969.8058, 67.77077
970.2880, 67.76137
970.7701, 67.03316
971.2522, 66.37519
971.7343, 66.09385
972.2164, 65.93655
972.6985, 65.68343
973.1807, 65.24758
973.6628, 64.43439
974.1449, 62.50772
974.6270, 61.32441
975.1091, 61.86791
975.5912, 62.68283
976.0734, 62.30022
976.5555, 60.68904
977.0376, 59.57710
977.5197, 59.06087
978.0018, 59.05256
978.4839, 60.06577
978.9661, 61.14775
979.4482, 61.13120
979.9303, 60.03191
980.4124, 59.44017
980.8945, 60.14446
981.3766, 60.47076
981.8588, 59.78212
982.3409, 58.50721
982.8230, 57.84139
983.3051, 57.69630
983.7872, 57.61652
984.2693, 57.45065
984.7515, 57.27987
985.2336, 57.10549
985.7157, 56.98350
986.1978, 57.00941
986.6799, 57.34256
987.1620, 57.38732
987.6442, 56.99095
988.1263, 56.73352
988.6084, 57.42583
989.0905, 58.59278
989.5726, 59.04566
990.0547, 58.76597
990.5369, 58.22703
991.0190, 57.51228
991.5011, 56.75702
991.9832, 55.85971
992.4653, 54.97899
992.9474, 54.78514
993.4296, 55.37283
993.9117, 55.73259
994.3938, 55.44930
994.8759, 55.07017
995.3580, 55.55928
995.8401, 56.38093
996.3223, 56.63926
996.8044, 55.71678
997.2865, 55.08601
997.7686, 55.01334
998.2507, 55.21367
998.7328, 55.59187
999.2150, 56.12367
999.6971, 56.21363
1000.179, 55.87431
1000.661, 55.62918
1001.143, 56.18669
1001.626, 56.68089
1002.108, 56.13824
1002.590, 54.85451
1003.072, 54.43755
1003.554, 55.47141
1004.036, 56.13233
1004.518, 55.94567
1005.000, 55.40942
1005.482, 55.34451
1005.965, 55.61761
1006.447, 55.88513
1006.929, 56.06345
1007.411, 56.24372
1007.893, 56.77075
1008.375, 57.05441
1008.857, 56.54270
1009.339, 55.12718
1009.822, 54.43287
1010.304, 54.49339
1010.786, 54.90736
1011.268, 55.68493
1011.750, 56.48411
1012.232, 56.89537
1012.714, 56.96486
1013.196, 56.84074
1013.678, 56.23482
1014.161, 55.93138
1014.643, 56.27830
1015.125, 56.69166
1015.607, 56.06280
1016.089, 54.63688
1016.571, 54.04850
1017.053, 54.60925
1017.535, 55.20029
1018.018, 54.74361
1018.500, 54.14762
1018.982, 54.19160
1019.464, 54.93857
1019.946, 55.53395
1020.428, 55.96423
1020.910, 56.30701
1021.392, 56.66332
1021.874, 56.87809
1022.357, 56.50214
1022.839, 55.75587
1023.321, 55.15194
1023.803, 54.78120
1024.285, 54.72499
1024.767, 55.28765
1025.249, 55.93216
1025.731, 56.07115
1026.214, 55.69723
1026.696, 55.70081
1027.178, 56.13381
1027.660, 56.55215
1028.142, 56.56826
1028.624, 56.45321
1029.106, 56.44694
1029.588, 56.54170
1030.070, 56.57236
1030.553, 56.56080
1031.035, 56.39742
1031.517, 55.98928
1031.999, 55.52706
1032.481, 55.39045
1032.963, 55.46700
1033.445, 55.41181
1033.927, 55.02236
1034.410, 54.93685
1034.892, 55.97102
1035.374, 56.94517
1035.856, 56.92021
1036.338, 55.86224
1036.820, 55.59850
1037.302, 56.15043
1037.784, 56.59167
1038.266, 56.15002
1038.749, 55.50056
1039.231, 55.38501
1039.713, 55.59151
1040.195, 55.59733
1040.677, 54.99294
1041.159, 54.80269
1041.641, 55.29722
1042.123, 55.85693
1042.605, 55.42649
1043.088, 54.47998
1043.570, 54.61418
1044.052, 55.99317
1044.534, 57.03359
1045.016, 56.72868
1045.498, 56.00132
1045.980, 55.14762
1046.462, 54.28297
1046.945, 53.94255
1047.427, 54.13607
1047.909, 54.56508
1048.391, 55.26911
1048.873, 55.83865
1049.355, 55.86817
1049.837, 55.47850
1050.319, 54.77793
1050.802, 53.43948
1051.284, 52.64268
1051.766, 52.47945
1052.248, 52.69054
1052.730, 53.27967
1053.212, 54.07231
1053.694, 54.51119
1054.176, 54.64153
1054.658, 54.68395
1055.141, 54.59001
1055.623, 54.61448
1056.105, 55.08067
1056.587, 55.58478
1057.069, 55.38596
1057.551, 54.45193
1058.033, 53.98896
1058.515, 54.17393
1058.997, 54.58088
1059.480, 54.98055
1059.962, 55.30778
1060.444, 55.47978
1060.926, 55.48570
1061.408, 55.51707
1061.890, 55.66720
1062.372, 55.58868
1062.854, 55.07233
1063.337, 54.40386
1063.819, 54.24285
1064.301, 54.34235
1064.783, 54.08599
1065.265, 52.93321
1065.747, 52.31423
1066.229, 53.35290
1066.711, 54.39717
1067.193, 54.31962
1067.676, 53.18636
1068.158, 52.08413
1068.640, 51.05122
1069.122, 50.68422
1069.604, 52.00903
1070.086, 53.45139
1070.568, 53.96044
1071.050, 53.82222
1071.532, 53.72562
1072.015, 53.72739
1072.497, 53.67986
1072.979, 53.59881
1073.461, 53.33331
1073.943, 52.40477
1074.425, 51.36507
1074.907, 51.06156
1075.389, 51.53928
1075.872, 52.02232
1076.354, 52.27247
1076.836, 52.57671
1077.318, 53.05410
1077.800, 53.58250
1078.282, 53.90358
1078.764, 54.04686
1079.246, 54.12540
1079.729, 54.16657
1080.211, 54.15577
1080.693, 53.95138
1081.175, 53.81474
1081.657, 54.08851
1082.139, 54.77337
1082.621, 54.35823
1083.103, 52.81656
1083.585, 51.54451
1084.068, 51.33989
1084.550, 51.70128
1085.032, 52.43311
1085.514, 53.31107
1085.996, 53.91159
1086.478, 54.20406
1086.960, 54.11335
1087.442, 53.48619
1087.924, 52.95168
1088.406, 53.49525
1088.889, 54.36794
1089.371, 53.84545
1089.853, 52.14375
1090.335, 51.10634
1090.817, 52.16360
1091.299, 53.02578
1091.781, 53.16156
1092.263, 52.81524
1092.746, 52.31284
1093.228, 51.70468
1093.710, 51.22300
1094.192, 50.90127
1094.674, 50.77181
1095.156, 50.94271
1095.638, 51.24135
1096.120, 51.60187
1096.603, 51.99435
1097.085, 52.28827
1097.567, 52.49160
1098.049, 52.28376
1098.531, 51.23540
1099.013, 50.38898
1099.495, 51.32923
1099.977, 52.88631
1100.459, 53.51542
1100.942, 52.63496
1101.424, 51.85267
1101.906, 51.11060
1102.388, 50.65693
1102.870, 50.93703
1103.352, 51.45364
1103.834, 50.89339
1104.316, 49.74786
1104.798, 49.41486
1105.281, 51.21534
1105.763, 52.72096
1106.245, 53.66959
1106.727, 54.13981
1107.209, 54.05088
1107.691, 53.53512
1108.173, 53.20955
1108.655, 53.08043
1109.138, 52.73866
1109.620, 51.39775
1110.102, 50.40370
1110.584, 50.68916
1111.066, 51.60500
1111.548, 51.65025
1112.030, 50.85057
1112.512, 50.75727
1112.995, 51.80103
1113.477, 52.52735
1113.959, 51.06646
1114.441, 49.19704
1114.923, 48.52839
1115.405, 49.10289
1115.887, 49.47580
1116.369, 49.61335
1116.851, 49.76406
1117.333, 50.04784
1117.816, 50.31927
1118.298, 50.17018
1118.780, 49.97297
1119.262, 50.39644
1119.744, 52.10770
1120.226, 52.66961
1120.708, 51.60178
1121.190, 50.39804
1121.673, 49.89880
1122.155, 49.90547
1122.637, 50.08392
1123.119, 50.34852
1123.601, 50.46254
1124.083, 50.12959
1124.565, 49.92303
1125.047, 49.91927
1125.530, 50.07335
1126.012, 50.39756
1126.494, 50.85417
1126.976, 51.25673
1127.458, 51.59570
1127.940, 51.84962
1128.422, 52.04884
1128.904, 52.10741
1129.386, 51.87864
1129.869, 51.54998
1130.351, 51.45188
1130.833, 51.57710
1131.315, 51.49216
1131.797, 51.13699
1132.279, 50.73074
1132.761, 50.27447
1133.243, 49.98417
1133.725, 50.16648
1134.208, 50.68850
1134.690, 50.90037
1135.172, 50.77799
1135.654, 50.45572
1136.136, 49.86859
1136.618, 49.44799
1137.100, 49.98403
1137.582, 50.74876
1138.065, 50.86691
1138.547, 50.10699
1139.029, 49.72853
1139.511, 49.89992
1139.993, 49.88897
1140.475, 49.27407
1140.957, 48.53500
1141.439, 48.43803
1141.922, 48.75574
1142.404, 49.11951
1142.886, 49.50750
1143.368, 49.71490
1143.850, 49.59752
1144.332, 49.59657
1144.814, 50.23690
1145.296, 51.05604
1145.778, 50.61531
1146.260, 49.32029
1146.743, 48.34316
1147.225, 48.27850
1147.707, 48.45002
1148.189, 48.89292
1148.671, 49.30911
1149.153, 49.38454
1149.635, 49.19924
1150.117, 49.06721
1150.600, 49.02242
1151.082, 49.21867
1151.564, 50.22755
1152.046, 50.88119
1152.528, 50.52034
1153.010, 49.77654
1153.492, 49.49813
1153.974, 49.63931
1154.457, 49.68008
1154.939, 49.57555
1155.421, 49.41537
1155.903, 49.30565
1156.385, 49.11211
1156.867, 48.57658
1157.349, 47.94482
1157.831, 47.77833
1158.313, 48.08173
1158.796, 48.69460
1159.278, 49.64428
1159.760, 50.45361
1160.242, 50.88531
1160.724, 50.87249
1161.206, 50.03390
1161.688, 48.57334
1162.170, 48.01168
1162.652, 48.43148
1163.135, 48.89420
1163.617, 49.22575
1164.099, 49.21720
1164.581, 48.21000
1165.063, 47.03002
1165.545, 46.64568
1166.027, 47.23812
1166.509, 47.63865
1166.992, 47.83918
1167.474, 47.87199
1167.956, 47.61387
1168.438, 47.43837
1168.920, 48.08804
1169.402, 49.02046
1169.884, 49.40038
1170.366, 48.74881
1170.849, 48.72245
1171.331, 49.58765
1171.813, 50.11675
1172.295, 49.22459
1172.777, 47.95776
1173.259, 48.30839
1173.741, 49.51818
1174.223, 50.06812
1174.705, 48.79993
1175.188, 48.23093
1175.670, 48.55903
1176.152, 49.13489
1176.634, 49.61113
1177.116, 49.92641
1177.598, 49.82802
1178.080, 49.47279
1178.562, 49.33514
1179.044, 49.68962
1179.527, 50.12686
1180.009, 50.70354
1180.491, 51.17371
1180.973, 51.36927
1181.455, 51.26711
1181.937, 50.60014
1182.419, 49.52035
1182.901, 48.75498
1183.384, 49.07696
1183.866, 49.00791
1184.348, 48.13277
1184.830, 47.10736
1185.312, 46.65770
1185.794, 46.73159
1186.276, 47.42651
1186.758, 48.66030
1187.240, 49.50304
1187.723, 49.10611
1188.205, 48.86559
1188.687, 49.23279
1189.169, 49.75748
1189.651, 49.69018
1190.133, 49.16457
1190.615, 48.35579
1191.097, 47.28628
1191.579, 47.02203
1192.062, 49.17680
1192.544, 50.79852
1193.026, 50.86662
1193.508, 49.89929
1193.990, 48.47625
1194.472, 46.97669
1194.954, 47.12148
1195.436, 49.46781
1195.919, 51.04372
1196.401, 49.66041
1196.883, 48.15641
1197.365, 47.62881
1197.847, 47.86520
1198.329, 48.52966
1198.811, 49.44311
1199.293, 49.87814
1199.776, 49.57369
1200.258, 49.17841
1200.740, 48.98419
1201.222, 48.76981
1201.704, 48.37154
1202.186, 47.88773
1202.668, 47.72271
1203.150, 47.83613
1203.632, 48.10180
1204.115, 48.57684
1204.597, 48.91629
1205.079, 48.97233
1205.561, 48.79343
1206.043, 48.19346
1206.525, 47.40500
1207.007, 48.04942
1207.489, 49.72860
1207.971, 50.62031
1208.454, 49.54649
1208.936, 48.50761
1209.418, 48.52875
1209.900, 48.70882
1210.382, 48.36015
1210.864, 47.63563
1211.346, 47.74977
1211.828, 48.53422
1212.311, 49.16512
1212.793, 49.24810
1213.275, 49.15747
1213.757, 48.74319
1214.239, 48.49535
1214.721, 48.95812
1215.203, 49.97876
1215.685, 50.29656
1216.167, 50.02910
1216.650, 49.81421
1217.132, 50.37668
1217.614, 50.48193
1218.096, 49.22012
1218.578, 47.90807
1219.060, 47.97051
1219.542, 49.10068
1220.024, 49.00976
1220.506, 47.88871
1220.989, 47.01655
1221.471, 46.95380
1221.953, 47.36958
1222.435, 48.56216
1222.917, 49.70512
1223.399, 49.77322
1223.881, 49.02524
1224.363, 48.77967
1224.846, 49.00047
1225.328, 49.18636
1225.810, 49.00001
1226.292, 48.86288
1226.774, 48.80611
1227.256, 48.92557
1227.738, 49.53166
1228.220, 50.39793
1228.703, 50.67714
1229.185, 50.38330
1229.667, 49.94745
1230.149, 49.24432
1230.631, 48.89412
1231.113, 49.15999
1231.595, 49.60221
1232.077, 49.49773
1232.559, 49.14709
1233.042, 49.66901
1233.524, 50.96450
1234.006, 51.63685
1234.488, 50.59327
1234.970, 49.49521
1235.452, 48.49669
1235.934, 47.87839
1236.416, 48.31347
1236.898, 49.33089
1237.381, 49.78745
1237.863, 49.66660
1238.345, 49.81663
1238.827, 51.13596
1239.309, 51.69686
1239.791, 50.92443
1240.273, 49.84667
1240.755, 49.92811
1241.238, 50.64637
1241.720, 51.10582
1242.202, 51.22737
1242.684, 51.15992
1243.166, 50.93079
1243.648, 50.48247
1244.130, 49.67921
1244.612, 48.97870
1245.094, 49.03875
1245.577, 49.55481
1246.059, 50.28722
1246.541, 51.15118
1247.023, 51.18251
1247.505, 49.87192
1247.987, 49.15786
1248.469, 49.61295
1248.951, 50.18913
1249.433, 49.17409
1249.916, 47.79961
1250.398, 47.67286
1250.880, 48.85497
1251.362, 49.62157
1251.844, 49.82124
1252.326, 50.03832
1252.808, 50.44080
1253.290, 50.71335
1253.773, 50.27119
1254.255, 49.71572
1254.737, 49.76293
1255.219, 50.35863
1255.701, 50.46918
1256.183, 50.02652
1256.665, 49.68497
1257.147, 49.59229
1257.630, 49.63935
1258.112, 49.88456
1258.594, 50.09506
1259.076, 49.96534
1259.558, 49.61527
1260.040, 49.59591
1260.522, 49.90331
1261.004, 50.25814
1261.486, 50.63441
1261.969, 50.80502
1262.451, 50.40482
1262.933, 49.92480
1263.415, 49.70174
1263.897, 49.65538
1264.379, 49.48244
1264.861, 49.21518
1265.343, 49.16435
1265.825, 49.44586
1266.308, 49.54179
1266.790, 48.61362
1267.272, 48.06538
1267.754, 48.72416
1268.236, 50.06292
1268.718, 50.89870
1269.200, 51.22778
1269.682, 50.89853
1270.165, 49.80809
1270.647, 48.84258
1271.129, 48.29962
1271.611, 48.08410
1272.093, 48.26819
1272.575, 48.61596
1273.057, 48.63418
1273.539, 48.45391
1274.021, 48.34991
1274.504, 48.36726
1274.986, 48.50225
1275.468, 48.92440
1275.950, 49.04429
1276.432, 48.53858
1276.914, 47.97045
1277.396, 48.45490
1277.878, 49.33816
1278.360, 49.60110
1278.843, 49.07222
1279.325, 48.51748
1279.807, 47.90566
1280.289, 47.61269
1280.771, 47.82049
1281.253, 48.12281
1281.735, 48.10462
1282.217, 47.86500
1282.700, 47.22198
1283.182, 46.29506
1283.664, 46.90082
1284.146, 49.25886
1284.628, 50.47949
1285.110, 49.67048
1285.592, 48.46634
1286.074, 48.27120
1286.557, 48.31055
1287.039, 47.82312
1287.521, 47.05725
1288.003, 47.13720
1288.485, 47.97656
1288.967, 48.55878
1289.449, 48.65496
1289.931, 48.53934
1290.413, 48.16780
1290.896, 47.87277
1291.378, 47.84709
1291.860, 47.97505
1292.342, 47.92184
1292.824, 47.77131
1293.306, 47.76361
1293.788, 47.92937
1294.270, 48.44704
1294.752, 50.54057
1295.235, 51.25885
1295.717, 49.26934
1296.199, 46.43763
1296.681, 45.90023
1297.163, 46.88372
1297.645, 48.46023
1298.127, 50.48943
1298.609, 50.87770
1299.092, 48.48917
1299.574, 47.32489
1300.056, 48.63621
1300.538, 50.32861
1301.020, 49.46218
1301.502, 47.82765
1301.984, 47.76358
1302.466, 49.18897
1302.948, 49.25385
1303.431, 47.67715
1303.913, 46.71391
1304.395, 46.74386
1304.877, 47.73974
##END=



