##NAMES=Braunite
##RRUFFID=R050390
##IDEAL CHEMISTRY=Mn^2+^Mn^3+^_6_SiO_12_
##LOCALITY=Oehrenstock, Thuringia, Germany
##OWNER=RRUFF
##SOURCE=University of Arizona Mineral Museum
##DESCRIPTION=Mass of black octahedra
##STATUS=The identification of this mineral has been confirmed by X-ray diffraction and chemical analysis
##URL=rruff.info/R050390
##MEASURED CHEMISTRY=(Mn^2+^_0.83_Ca_0.17_)_Î£=1_Mn^3+^_6.00_Si_1.00_O_12_
93.48767, 246.1683
93.96979, 251.7850
94.45190, 257.6089
94.93402, 263.0196
95.41614, 264.3879
95.89825, 262.6072
96.38037, 259.7248
96.86249, 256.1592
97.34460, 253.4405
97.82672, 252.1591
98.30884, 251.2687
98.79095, 251.2729
99.27307, 251.2659
99.75519, 249.7753
100.2373, 246.4439
100.7194, 241.9863
101.2015, 238.9809
101.6837, 237.4711
102.1658, 237.0027
102.6479, 237.5053
103.1300, 239.0230
103.6121, 240.6963
104.0942, 241.5073
104.5764, 242.0070
105.0585, 243.1694
105.5406, 246.2565
106.0227, 250.3404
106.5048, 252.4546
106.9869, 251.5954
107.4691, 249.8587
107.9512, 247.9896
108.4333, 246.1264
108.9154, 244.5342
109.3975, 243.2656
109.8796, 242.1802
110.3618, 242.2929
110.8439, 244.9624
111.3260, 247.6776
111.8081, 249.0675
112.2902, 249.1167
112.7723, 248.9383
113.2544, 250.1516
113.7366, 253.9525
114.2187, 256.9994
114.7008, 258.7207
115.1829, 260.0463
115.6650, 261.8920
116.1471, 264.5981
116.6293, 267.6787
117.1114, 269.9852
117.5935, 271.4613
118.0756, 272.4509
118.5577, 272.5785
119.0398, 272.2293
119.5220, 272.3339
120.0041, 273.3378
120.4862, 275.0893
120.9683, 277.1511
121.4504, 279.9427
121.9325, 282.3494
122.4147, 283.3980
122.8968, 283.0190
123.3789, 282.1078
123.8610, 280.7871
124.3431, 279.2464
124.8252, 277.6486
125.3074, 276.0671
125.7895, 274.4248
126.2716, 272.5666
126.7537, 270.5059
127.2358, 268.1816
127.7179, 265.5427
128.2001, 262.6948
128.6822, 259.7738
129.1643, 256.9225
129.6464, 254.0900
130.1285, 250.7675
130.6107, 246.0625
131.0928, 241.6732
131.5749, 238.0945
132.0570, 235.1991
132.5391, 232.5626
133.0212, 229.8119
133.5033, 226.8483
133.9855, 224.5048
134.4676, 223.1580
134.9497, 221.9911
135.4318, 220.6131
135.9139, 218.9677
136.3960, 217.1181
136.8782, 215.0164
137.3603, 212.5167
137.8424, 210.7813
138.3245, 210.7104
138.8066, 211.1219
139.2887, 210.5932
139.7709, 208.7395
140.2530, 206.2498
140.7351, 203.6901
141.2172, 201.0648
141.6993, 198.9546
142.1814, 197.8900
142.6636, 197.6244
143.1457, 197.2417
143.6278, 196.5178
144.1099, 195.6554
144.5920, 194.6519
145.0741, 193.5356
145.5563, 192.7862
146.0384, 192.9951
146.5205, 194.2916
147.0026, 195.4363
147.4847, 196.5549
147.9668, 197.2262
148.4490, 196.8340
148.9311, 195.3480
149.4132, 193.7076
149.8953, 193.5256
150.3774, 196.0542
150.8595, 197.4587
151.3417, 197.0233
151.8238, 195.8087
152.3059, 194.5474
152.7880, 193.5398
153.2701, 192.7158
153.7522, 191.9176
154.2344, 191.3850
154.7165, 190.5872
155.1986, 189.2457
155.6807, 187.6953
156.1628, 186.3129
156.6449, 185.2795
157.1271, 184.5848
157.6092, 184.2374
158.0913, 185.1205
158.5734, 185.3263
159.0555, 183.6797
159.5376, 180.8397
160.0198, 178.5505
160.5019, 177.8499
160.9840, 178.4415
161.4661, 178.9107
161.9482, 179.3619
162.4303, 179.6004
162.9125, 179.3295
163.3946, 178.5752
163.8767, 177.9776
164.3588, 178.1162
164.8409, 178.6020
165.3230, 178.7625
165.8052, 178.3389
166.2873, 177.6804
166.7694, 177.3383
167.2515, 177.4892
167.7336, 177.3343
168.2157, 176.2550
168.6979, 174.7260
169.1800, 173.2665
169.6621, 172.1178
170.1442, 171.1640
170.6263, 170.0191
171.1084, 168.3459
171.5906, 167.0578
172.0727, 166.7791
172.5548, 166.9404
173.0369, 166.6651
173.5190, 165.2797
174.0011, 163.0071
174.4833, 161.7367
174.9654, 162.2168
175.4475, 163.0812
175.9296, 164.5339
176.4117, 166.1540
176.8938, 167.2786
177.3760, 167.3721
177.8581, 166.4064
178.3402, 165.4717
178.8223, 164.1471
179.3044, 163.2466
179.7865, 163.4475
180.2687, 164.4246
180.7508, 165.1920
181.2329, 164.8330
181.7150, 163.1983
182.1971, 162.3253
182.6792, 162.5020
183.1614, 163.0687
183.6435, 163.9447
184.1256, 165.0109
184.6077, 165.6880
185.0898, 165.2678
185.5719, 163.6763
186.0541, 162.8440
186.5362, 163.2672
187.0183, 164.2031
187.5004, 165.0951
187.9825, 165.8994
188.4646, 166.4749
188.9468, 166.4515
189.4289, 166.0113
189.9110, 165.9347
190.3931, 166.7749
190.8752, 167.9678
191.3573, 168.5676
191.8395, 168.3245
192.3216, 168.0040
192.8037, 168.3820
193.2858, 169.1587
193.7679, 169.6301
194.2500, 168.9148
194.7322, 167.5906
195.2143, 167.7260
195.6964, 170.4375
196.1785, 172.9428
196.6606, 173.6687
197.1427, 173.0871
197.6249, 172.1877
198.1070, 171.3427
198.5891, 170.6172
199.0712, 170.7213
199.5533, 172.3411
200.0354, 174.1059
200.5176, 175.7293
200.9997, 177.0901
201.4818, 177.9720
201.9639, 178.0332
202.4460, 177.2355
202.9281, 177.1066
203.4103, 178.5763
203.8924, 179.9057
204.3745, 180.4217
204.8566, 180.3268
205.3387, 180.2549
205.8208, 180.8236
206.3030, 182.1732
206.7851, 182.8511
207.2672, 182.0269
207.7493, 181.3814
208.2314, 181.8221
208.7135, 183.1243
209.1957, 184.3494
209.6778, 184.5712
210.1599, 183.5548
210.6420, 183.4254
211.1241, 185.1234
211.6062, 186.7100
212.0884, 187.0262
212.5705, 186.1698
213.0526, 185.0667
213.5347, 184.4747
214.0168, 184.4574
214.4989, 184.8475
214.9811, 186.3843
215.4632, 187.7282
215.9453, 187.7352
216.4274, 186.4406
216.9095, 185.0520
217.3916, 184.5526
217.8737, 185.0219
218.3559, 185.7398
218.8380, 187.0957
219.3201, 188.4464
219.8022, 189.3015
220.2843, 189.6249
220.7664, 189.4629
221.2486, 188.4038
221.7307, 186.7987
222.2128, 186.1750
222.6949, 187.7698
223.1770, 189.9210
223.6591, 190.6006
224.1413, 189.5765
224.6234, 188.3316
225.1055, 187.8171
225.5876, 187.8456
226.0697, 188.1585
226.5518, 188.5843
227.0340, 189.3116
227.5161, 190.8572
227.9982, 193.5513
228.4803, 195.9044
228.9624, 196.9171
229.4445, 197.0919
229.9267, 196.9476
230.4088, 196.4837
230.8909, 195.9510
231.3730, 195.9103
231.8551, 196.6004
232.3372, 197.1779
232.8194, 197.3529
233.3015, 197.2178
233.7836, 196.7626
234.2657, 195.8347
234.7478, 194.8219
235.2299, 194.6875
235.7121, 195.9065
236.1942, 197.0775
236.6763, 197.9926
237.1584, 198.5809
237.6405, 198.7055
238.1227, 198.2705
238.6048, 197.4770
239.0869, 196.8359
239.5690, 196.4287
240.0511, 196.0373
240.5332, 195.7229
241.0154, 195.3580
241.4975, 194.7316
241.9796, 193.7461
242.4617, 192.6559
242.9438, 192.1564
243.4259, 192.8473
243.9081, 193.1916
244.3902, 192.8211
244.8723, 192.1600
245.3544, 191.6159
245.8365, 191.3446
246.3186, 191.2099
246.8008, 190.8774
247.2829, 189.9799
247.7650, 189.4366
248.2471, 189.5589
248.7292, 189.8868
249.2113, 190.1489
249.6935, 190.2178
250.1756, 189.8972
250.6577, 188.7481
251.1398, 185.5170
251.6219, 183.3013
252.1040, 182.7782
252.5862, 182.8706
253.0683, 182.7047
253.5504, 182.0107
254.0325, 180.9641
254.5146, 179.8230
254.9967, 178.3693
255.4789, 177.2786
255.9610, 176.8849
256.4431, 176.6642
256.9252, 176.1669
257.4073, 175.2867
257.8894, 174.1887
258.3716, 173.0470
258.8537, 171.7146
259.3358, 170.8333
259.8179, 170.8875
260.3000, 171.1007
260.7821, 170.6717
261.2643, 169.4924
261.7464, 168.2518
262.2285, 167.7447
262.7106, 168.1901
263.1927, 168.3605
263.6748, 167.9185
264.1570, 167.3971
264.6391, 167.3400
265.1212, 167.7793
265.6033, 168.1989
266.0854, 168.0711
266.5675, 167.3611
267.0497, 166.8587
267.5318, 166.4588
268.0139, 166.3576
268.4960, 167.0052
268.9781, 168.3572
269.4602, 169.4038
269.9424, 169.2657
270.4245, 168.0675
270.9066, 167.1472
271.3887, 166.5091
271.8708, 166.1757
272.3529, 166.3873
272.8351, 167.0804
273.3172, 167.5064
273.7993, 167.0251
274.2814, 165.9761
274.7635, 165.5024
275.2456, 166.0518
275.7278, 166.7068
276.2099, 166.7319
276.6920, 166.2111
277.1741, 165.8362
277.6562, 165.9603
278.1383, 166.4338
278.6205, 166.8995
279.1026, 167.4152
279.5847, 167.8080
280.0668, 167.9484
280.5489, 167.8577
281.0310, 167.5682
281.5132, 166.7292
281.9953, 166.1084
282.4774, 166.8256
282.9595, 169.0915
283.4416, 171.4071
283.9237, 173.0438
284.4059, 174.0284
284.8880, 174.3825
285.3701, 173.7692
285.8522, 172.9750
286.3343, 172.8366
286.8164, 173.3213
287.2986, 173.9390
287.7807, 174.5296
288.2628, 175.0623
288.7449, 175.4012
289.2270, 175.4368
289.7091, 175.4418
290.1913, 175.8003
290.6734, 176.3711
291.1555, 176.6112
291.6376, 175.9872
292.1197, 174.8793
292.6018, 174.2488
293.0840, 174.3467
293.5661, 174.4329
294.0482, 173.7713
294.5303, 172.7678
295.0124, 172.2074
295.4945, 172.7914
295.9767, 173.7886
296.4588, 173.8207
296.9409, 172.6707
297.4230, 171.2931
297.9051, 169.8785
298.3872, 168.6052
298.8694, 167.7665
299.3515, 167.5761
299.8336, 167.6244
300.3157, 167.4603
300.7978, 167.1077
301.2799, 166.3747
301.7621, 164.6814
302.2442, 162.8245
302.7263, 161.5851
303.2084, 161.1775
303.6905, 160.9337
304.1726, 160.2187
304.6548, 159.0239
305.1369, 157.5164
305.6190, 154.9254
306.1011, 152.7283
306.5832, 152.3418
307.0653, 153.7967
307.5475, 155.4357
308.0296, 155.9399
308.5117, 155.3901
308.9938, 154.7297
309.4759, 153.9608
309.9580, 153.2370
310.4402, 152.6925
310.9223, 152.2883
311.4044, 151.8698
311.8865, 151.2270
312.3686, 150.4649
312.8507, 150.0237
313.3329, 149.9109
313.8150, 150.1521
314.2971, 151.0744
314.7792, 152.2890
315.2613, 153.0717
315.7434, 153.0234
316.2256, 152.3888
316.7077, 151.4821
317.1898, 149.9169
317.6719, 149.1658
318.1540, 150.7149
318.6361, 153.0763
319.1183, 154.6899
319.6004, 155.0693
320.0825, 154.6503
320.5646, 153.7506
321.0467, 152.2092
321.5288, 151.2222
322.0110, 151.5707
322.4931, 152.4113
322.9752, 153.1388
323.4573, 153.6569
323.9394, 154.1661
324.4215, 155.0933
324.9037, 156.4122
325.3858, 156.8436
325.8679, 155.1548
326.3500, 153.5506
326.8321, 153.8360
327.3142, 155.7723
327.7964, 157.6898
328.2785, 158.4828
328.7606, 158.3192
329.2427, 157.8929
329.7248, 156.7966
330.2069, 156.2354
330.6891, 157.6904
331.1712, 160.1535
331.6533, 161.4150
332.1354, 159.8279
332.6175, 156.7481
333.0996, 154.9646
333.5818, 154.7802
334.0639, 154.8947
334.5460, 155.2085
335.0281, 155.2670
335.5102, 154.2240
335.9923, 151.3328
336.4745, 148.4946
336.9566, 148.4355
337.4387, 151.3671
337.9208, 153.4441
338.4029, 152.7927
338.8850, 151.1378
339.3671, 150.1557
339.8492, 150.0049
340.3314, 150.0296
340.8135, 149.7724
341.2956, 149.2688
341.7777, 148.7164
342.2598, 148.0183
342.7419, 147.4828
343.2241, 147.4848
343.7062, 147.9136
344.1883, 148.2118
344.6704, 148.2078
345.1525, 147.8751
345.6346, 146.9912
346.1168, 145.3208
346.5989, 143.8285
347.0810, 143.3609
347.5631, 143.5494
348.0452, 143.8320
348.5273, 144.0979
349.0095, 144.3707
349.4916, 144.7958
349.9737, 145.3830
350.4558, 145.5925
350.9379, 144.8321
351.4200, 143.7439
351.9022, 143.4101
352.3843, 144.1141
352.8664, 144.9218
353.3485, 145.3062
353.8306, 145.3016
354.3127, 144.9709
354.7949, 144.1607
355.2770, 143.3113
355.7591, 142.9846
356.2412, 143.1548
356.7233, 143.4841
357.2054, 144.0551
357.6876, 144.6459
358.1697, 144.8892
358.6518, 144.7207
359.1339, 144.3150
359.6160, 143.6126
360.0981, 142.7391
360.5803, 142.3926
361.0624, 142.9285
361.5445, 143.8211
362.0266, 144.9400
362.5087, 146.1817
362.9908, 146.7277
363.4730, 145.7678
363.9551, 144.0073
364.4372, 143.6478
364.9193, 145.5562
365.4014, 147.2932
365.8835, 147.6582
366.3657, 147.1618
366.8478, 146.8224
367.3299, 146.9792
367.8120, 147.3833
368.2941, 147.6674
368.7762, 147.8174
369.2584, 147.9222
369.7405, 147.9402
370.2226, 147.9480
370.7047, 148.0541
371.1868, 148.2618
371.6689, 148.4575
372.1511, 148.6082
372.6332, 148.7048
373.1153, 148.2273
373.5974, 146.7282
374.0795, 145.1546
374.5616, 143.6556
375.0438, 142.4303
375.5259, 142.0267
376.0080, 142.8680
376.4901, 144.4594
376.9722, 145.0266
377.4543, 143.5505
377.9365, 142.3831
378.4186, 141.7934
378.9007, 141.6128
379.3828, 141.8699
379.8649, 142.5136
380.3470, 143.0271
380.8292, 142.6220
381.3113, 140.7880
381.7934, 139.5465
382.2755, 139.3753
382.7576, 139.2979
383.2397, 138.5606
383.7219, 137.3576
384.2040, 136.5273
384.6861, 136.8001
385.1682, 138.0794
385.6503, 138.8064
386.1324, 138.4899
386.6146, 138.1323
387.0967, 138.0959
387.5788, 138.0477
388.0609, 137.3800
388.5430, 135.8440
389.0251, 134.0630
389.5073, 133.3449
389.9894, 134.2554
390.4715, 135.0830
390.9536, 135.9267
391.4357, 136.5240
391.9178, 136.6766
392.4000, 136.3877
392.8821, 135.8034
393.3642, 134.8991
393.8463, 133.6432
394.3284, 133.1609
394.8105, 134.5006
395.2927, 135.4016
395.7748, 134.6907
396.2569, 133.1157
396.7390, 131.9462
397.2211, 131.8577
397.7032, 132.4447
398.1854, 132.8485
398.6675, 133.0633
399.1496, 133.1147
399.6317, 133.1291
400.1138, 132.9083
400.5959, 132.1094
401.0781, 130.6963
401.5602, 129.3585
402.0423, 128.9398
402.5244, 129.3257
403.0065, 129.1374
403.4886, 127.7558
403.9708, 126.4597
404.4529, 126.1506
404.9350, 126.6175
405.4171, 127.3076
405.8992, 128.2947
406.3813, 129.2097
406.8635, 129.3273
407.3456, 128.5523
407.8277, 127.8525
408.3098, 127.7187
408.7919, 127.9533
409.2740, 128.1856
409.7562, 128.3530
410.2383, 128.6305
410.7204, 129.4226
411.2025, 130.4318
411.6846, 130.7024
412.1667, 129.8556
412.6489, 128.6137
413.1310, 127.8814
413.6131, 127.6375
414.0952, 127.2384
414.5773, 126.3599
415.0594, 125.4232
415.5416, 124.7411
416.0237, 124.3499
416.5058, 124.3367
416.9879, 124.8750
417.4700, 125.8058
417.9521, 126.2550
418.4343, 125.8121
418.9164, 125.4664
419.3985, 125.5072
419.8806, 125.8016
420.3627, 126.1836
420.8448, 126.5987
421.3270, 127.0293
421.8091, 127.4808
422.2912, 128.0901
422.7733, 128.2608
423.2554, 127.5647
423.7375, 126.8379
424.2197, 126.6455
424.7018, 126.8892
425.1839, 127.0971
425.6660, 126.9120
426.1481, 126.4156
426.6302, 126.1669
427.1124, 126.4929
427.5945, 126.6760
428.0766, 126.3611
428.5587, 125.9999
429.0408, 126.1459
429.5229, 126.9316
430.0051, 127.8936
430.4872, 128.3811
430.9693, 128.3042
431.4514, 128.1264
431.9335, 127.7289
432.4156, 127.3416
432.8978, 126.9719
433.3799, 126.6838
433.8620, 126.6162
434.3441, 126.9171
434.8262, 127.4492
435.3083, 127.7827
435.7905, 127.8027
436.2726, 127.9407
436.7547, 128.4965
437.2368, 129.1651
437.7189, 129.6834
438.2010, 129.9992
438.6832, 130.2225
439.1653, 130.3787
439.6474, 130.4988
440.1295, 130.8106
440.6116, 131.4913
441.0938, 132.0880
441.5759, 131.9757
442.0580, 131.4180
442.5401, 131.2598
443.0222, 132.3050
443.5043, 133.4605
443.9865, 133.3036
444.4686, 132.0165
444.9507, 131.3171
445.4328, 132.1706
445.9149, 133.9455
446.3970, 135.1672
446.8792, 135.6293
447.3613, 136.2354
447.8434, 137.6628
448.3255, 139.1670
448.8076, 139.5760
449.2897, 138.7657
449.7719, 137.9849
450.2540, 138.5104
450.7361, 140.4390
451.2182, 141.5977
451.7003, 141.1158
452.1824, 140.9362
452.6646, 141.9908
453.1467, 143.7796
453.6288, 145.4980
454.1109, 146.7981
454.5930, 147.7088
455.0751, 148.2246
455.5573, 147.7827
456.0394, 148.0766
456.5215, 149.3086
457.0036, 150.9694
457.4857, 153.1741
457.9678, 155.5998
458.4500, 157.4037
458.9321, 157.7250
459.4142, 156.9566
459.8963, 157.5470
460.3784, 160.5122
460.8605, 163.0302
461.3427, 164.2677
461.8248, 164.8281
462.3069, 165.1046
462.7890, 165.1996
463.2711, 165.5702
463.7532, 166.9535
464.2354, 169.2528
464.7175, 170.9508
465.1996, 171.7009
465.6817, 172.0924
466.1638, 172.5151
466.6459, 172.9290
467.1281, 173.2006
467.6102, 172.9176
468.0923, 172.8044
468.5744, 174.0226
469.0565, 176.4051
469.5386, 178.1106
470.0208, 178.2446
470.5029, 177.5487
470.9850, 177.3885
471.4671, 177.9205
471.9492, 178.0379
472.4313, 177.1530
472.9135, 175.8963
473.3956, 174.9587
473.8777, 174.3867
474.3598, 173.7978
474.8419, 172.8807
475.3240, 171.6860
475.8062, 170.7307
476.2883, 170.4859
476.7704, 169.8689
477.2525, 167.9703
477.7346, 165.8903
478.2167, 165.3292
478.6989, 166.5859
479.1810, 167.9718
479.6631, 167.1161
480.1452, 163.3287
480.6273, 160.8713
481.1094, 161.3548
481.5916, 161.5343
482.0737, 159.9503
482.5558, 157.4030
483.0379, 155.3807
483.5200, 154.6196
484.0021, 154.5688
484.4843, 154.1787
484.9664, 153.3496
485.4485, 152.6339
485.9306, 152.2596
486.4127, 151.9273
486.8948, 151.2888
487.3770, 150.4411
487.8591, 149.9507
488.3412, 150.6768
488.8233, 151.8140
489.3054, 151.5259
489.7875, 149.6352
490.2697, 147.9968
490.7518, 147.6480
491.2339, 148.1205
491.7160, 148.3902
492.1981, 148.4245
492.6802, 148.3496
493.1624, 148.0562
493.6445, 147.7448
494.1266, 147.8407
494.6087, 148.3997
495.0908, 148.7872
495.5729, 148.2289
496.0551, 146.7651
496.5372, 146.8476
497.0193, 150.0070
497.5014, 152.6847
497.9835, 153.5815
498.4656, 153.4184
498.9478, 153.1724
499.4299, 153.1865
499.9120, 153.3165
500.3941, 153.2989
500.8762, 152.9552
501.3583, 153.1838
501.8405, 154.7154
502.3226, 156.0750
502.8047, 156.6125
503.2868, 156.6132
503.7689, 156.6371
504.2510, 156.9661
504.7331, 157.4229
505.2152, 157.5796
505.6974, 157.3154
506.1795, 157.5386
506.6616, 159.0219
507.1437, 160.4837
507.6258, 160.8791
508.1079, 160.3570
508.5901, 159.8148
509.0722, 159.8531
509.5543, 160.0414
510.0364, 159.6339
510.5185, 158.6396
511.0006, 157.7640
511.4828, 157.2812
511.9649, 157.1760
512.4470, 157.5466
512.9291, 158.6809
513.4113, 159.2613
513.8934, 158.7800
514.3755, 157.6810
514.8576, 156.2287
515.3397, 154.5435
515.8218, 152.9883
516.3040, 151.8314
516.7861, 151.0285
517.2682, 150.2748
517.7503, 149.9174
518.2324, 149.1643
518.7145, 147.5890
519.1967, 145.7906
519.6788, 144.3866
520.1609, 143.4411
520.6430, 142.5059
521.1251, 141.0740
521.6072, 139.1601
522.0894, 137.5409
522.5715, 136.0452
523.0536, 135.1519
523.5357, 135.6083
524.0178, 136.4066
524.4999, 136.2623
524.9821, 134.7840
525.4642, 133.0709
525.9463, 132.1688
526.4284, 131.9061
526.9105, 131.3964
527.3926, 130.3714
527.8748, 129.5685
528.3569, 129.9214
528.8390, 130.9982
529.3211, 131.2900
529.8032, 130.1822
530.2853, 128.7924
530.7675, 127.5583
531.2496, 126.5023
531.7317, 125.6976
532.2138, 125.1635
532.6959, 124.7901
533.1780, 124.4490
533.6602, 124.1350
534.1423, 123.8868
534.6244, 123.9018
535.1065, 123.7565
535.5886, 123.1409
536.0707, 122.3061
536.5529, 121.6103
537.0350, 121.2025
537.5171, 121.0300
537.9992, 121.0025
538.4813, 121.0930
538.9634, 121.4932
539.4456, 122.7815
539.9277, 123.7382
540.4098, 123.7150
540.8919, 122.9755
541.3740, 122.0364
541.8561, 121.0323
542.3383, 120.0531
542.8204, 118.9367
543.3025, 117.7883
543.7846, 117.8288
544.2667, 119.8352
544.7488, 122.1732
545.2310, 122.9219
545.7131, 122.2634
546.1952, 121.6668
546.6773, 121.5759
547.1594, 121.4034
547.6415, 120.4092
548.1237, 119.0357
548.6058, 118.4826
549.0879, 119.2590
549.5700, 120.6310
550.0521, 121.4098
550.5342, 121.4523
551.0164, 121.2969
551.4985, 120.8399
551.9806, 120.3260
552.4627, 119.7388
552.9448, 119.1933
553.4269, 118.8177
553.9091, 118.6598
554.3912, 118.8329
554.8733, 119.7741
555.3554, 121.7138
555.8375, 122.8164
556.3196, 122.2995
556.8018, 121.5031
557.2839, 121.3151
557.7660, 121.5515
558.2481, 121.6779
558.7302, 121.4069
559.2123, 121.0646
559.6945, 121.0557
560.1766, 121.2882
560.6587, 121.3247
561.1408, 121.0006
561.6229, 120.5324
562.1050, 120.0650
562.5872, 119.5361
563.0693, 119.7512
563.5514, 121.6130
564.0335, 123.3220
564.5156, 123.8190
564.9977, 123.5357
565.4799, 123.3156
565.9620, 123.4947
566.4441, 123.8253
566.9262, 123.8488
567.4083, 123.3645
567.8904, 123.3957
568.3726, 124.9936
568.8547, 126.0077
569.3368, 125.3417
569.8189, 123.6888
570.3010, 122.1044
570.7831, 120.8942
571.2653, 120.2198
571.7474, 120.5376
572.2295, 121.6974
572.7116, 122.4633
573.1937, 122.5596
573.6758, 122.4299
574.1580, 122.4659
574.6401, 122.5831
575.1222, 122.4433
575.6043, 121.8697
576.0864, 121.1988
576.5685, 120.2574
577.0507, 119.4293
577.5328, 119.6195
578.0149, 120.9837
578.4970, 122.3730
578.9791, 122.4984
579.4612, 121.2966
579.9434, 120.4350
580.4255, 120.3647
580.9076, 120.1088
581.3897, 119.2752
581.8718, 118.2738
582.3539, 117.4743
582.8361, 116.9890
583.3182, 116.8707
583.8003, 117.4329
584.2824, 118.5197
584.7645, 118.9295
585.2466, 118.5085
585.7288, 117.8237
586.2108, 116.8536
586.6929, 115.9232
587.1750, 115.4715
587.6572, 115.5175
588.1393, 116.0923
588.6214, 117.7971
589.1035, 119.7417
589.5856, 120.6892
590.0677, 120.5788
590.5499, 120.0338
591.0320, 119.3714
591.5141, 118.7060
591.9962, 118.4800
592.4783, 119.4168
592.9604, 119.7694
593.4426, 118.9872
593.9247, 118.0639
594.4068, 117.6497
594.8889, 117.7344
595.3710, 118.0270
595.8531, 118.3957
596.3353, 118.7394
596.8174, 118.6629
597.2995, 117.9886
597.7816, 117.9906
598.2637, 119.5720
598.7458, 121.2489
599.2280, 121.5562
599.7101, 120.7614
600.1922, 120.3342
600.6743, 121.1839
601.1564, 122.1941
601.6385, 122.2337
602.1207, 121.6523
602.6028, 121.5296
603.0849, 122.2367
603.5670, 123.3581
604.0491, 124.4165
604.5313, 125.4558
605.0134, 126.1352
605.4955, 126.6003
605.9776, 126.5953
606.4597, 125.4879
606.9418, 124.1016
607.4240, 123.5283
607.9061, 124.0568
608.3882, 125.0652
608.8703, 126.1290
609.3524, 127.1869
609.8345, 127.2334
610.3167, 125.7554
610.7988, 124.5124
611.2809, 124.5625
611.7630, 125.2842
612.2451, 125.8500
612.7272, 126.1530
613.2094, 126.5008
613.6915, 127.2062
614.1736, 127.9380
614.6557, 128.2566
615.1378, 128.1611
615.6199, 127.8628
616.1021, 127.4502
616.5842, 127.0260
617.0663, 126.9057
617.5484, 127.4617
618.0305, 127.6826
618.5126, 127.4884
618.9948, 127.0665
619.4769, 126.2316
619.9590, 125.2758
620.4411, 124.8467
620.9232, 125.3300
621.4053, 126.2370
621.8875, 126.9444
622.3696, 127.4476
622.8517, 127.3629
623.3338, 126.3687
623.8159, 125.2675
624.2980, 124.6437
624.7802, 124.4481
625.2623, 124.5810
625.7444, 125.4798
626.2265, 126.1333
626.7086, 125.8823
627.1907, 125.1880
627.6729, 124.6759
628.1550, 124.4684
628.6371, 124.3794
629.1192, 124.2424
629.6013, 124.0763
630.0834, 124.0457
630.5656, 124.2292
631.0477, 124.4205
631.5298, 124.9366
632.0119, 125.1824
632.4940, 124.2855
632.9761, 122.5387
633.4583, 121.5078
633.9404, 122.6589
634.4225, 124.6078
634.9046, 124.9867
635.3867, 123.9230
635.8688, 123.0492
636.3510, 122.8739
636.8331, 123.0814
637.3152, 123.4197
637.7973, 123.9286
638.2794, 123.9425
638.7615, 122.6607
639.2437, 121.7664
639.7258, 122.4515
640.2079, 123.7456
640.6900, 124.0980
641.1721, 123.2086
641.6542, 122.2524
642.1364, 122.6380
642.6185, 124.2096
643.1006, 124.8123
643.5827, 123.9085
644.0648, 123.2220
644.5469, 123.5891
645.0291, 124.3032
645.5112, 124.8477
645.9933, 125.1761
646.4754, 125.1783
646.9575, 124.6124
647.4396, 123.8348
647.9218, 123.0828
648.4039, 122.4363
648.8860, 122.2275
649.3681, 122.6296
649.8502, 123.2037
650.3323, 123.2610
650.8145, 122.6511
651.2966, 122.2132
651.7787, 122.1194
652.2608, 121.9923
652.7429, 121.5572
653.2250, 121.0986
653.7072, 121.0330
654.1893, 121.4490
654.6714, 121.9609
655.1535, 122.2530
655.6356, 122.3508
656.1177, 122.3075
656.5999, 122.1069
657.0820, 121.9206
657.5641, 121.8547
658.0462, 121.8240
658.5283, 121.6719
659.0104, 121.4053
659.4926, 121.0346
659.9747, 120.3994
660.4568, 119.8146
660.9389, 119.6225
661.4210, 119.6076
661.9031, 119.2547
662.3853, 118.3729
662.8674, 117.3887
663.3495, 116.9306
663.8316, 117.0363
664.3137, 117.0237
664.7958, 116.6703
665.2780, 116.6038
665.7601, 117.5588
666.2422, 118.7329
666.7243, 119.1422
667.2064, 118.6156
667.6885, 117.9210
668.1707, 117.4363
668.6528, 116.9579
669.1349, 116.0065
669.6170, 114.7816
670.0991, 114.1967
670.5812, 114.7035
671.0634, 115.8535
671.5455, 117.0158
672.0276, 118.5332
672.5097, 118.7227
672.9918, 115.9104
673.4739, 113.5932
673.9561, 113.0421
674.4382, 113.4990
674.9203, 113.9942
675.4024, 114.2831
675.8845, 114.5864
676.3666, 115.1765
676.8488, 115.8786
677.3309, 116.3921
677.8130, 116.6940
678.2951, 116.4972
678.7772, 115.4738
679.2593, 114.2352
679.7415, 113.9692
680.2236, 115.2130
680.7057, 115.7686
681.1878, 114.9971
681.6699, 114.2400
682.1520, 114.1137
682.6342, 114.3889
683.1163, 114.7771
683.5984, 115.1597
684.0805, 115.3075
684.5626, 114.6921
685.0447, 113.5581
685.5269, 113.4938
686.0090, 114.8289
686.4911, 115.4557
686.9732, 114.0651
687.4553, 111.8316
687.9374, 110.5672
688.4196, 110.2673
688.9017, 110.5404
689.3838, 112.0070
689.8659, 113.3581
690.3480, 113.7689
690.8301, 113.5270
691.3123, 113.0155
691.7944, 112.4208
692.2765, 112.1657
692.7586, 113.0547
693.2407, 114.9111
693.7228, 114.9353
694.2050, 112.1569
694.6871, 110.1955
695.1692, 111.1683
695.6513, 112.9182
696.1334, 112.9060
696.6155, 111.1234
697.0977, 109.9345
697.5798, 110.5538
698.0619, 111.5201
698.5440, 111.9221
699.0261, 111.8279
699.5082, 111.3490
699.9904, 110.5505
700.4725, 109.6882
700.9546, 109.0187
701.4367, 108.5421
701.9188, 108.2510
702.4009, 108.1831
702.8831, 108.2301
703.3652, 108.4726
703.8473, 108.7413
704.3294, 108.9484
704.8115, 109.0770
705.2936, 109.0777
705.7758, 108.8550
706.2579, 108.5707
706.7400, 108.3564
707.2221, 108.1810
707.7042, 107.9423
708.1863, 107.6249
708.6685, 107.3903
709.1506, 107.4321
709.6327, 107.6701
710.1148, 107.4288
710.5969, 106.0335
711.0790, 105.4131
711.5612, 106.5191
712.0433, 107.8169
712.5254, 108.4328
713.0075, 108.4113
713.4896, 108.0534
713.9717, 107.2594
714.4539, 106.5731
714.9360, 106.6818
715.4181, 107.2246
715.9002, 107.3385
716.3823, 106.9019
716.8644, 106.3717
717.3466, 106.0673
717.8287, 105.9444
718.3108, 105.8487
718.7929, 105.8989
719.2750, 105.7466
719.7571, 105.0164
720.2393, 104.4588
720.7214, 104.6829
721.2035, 105.3004
721.6856, 105.5312
722.1677, 105.0770
722.6498, 104.4380
723.1320, 103.8212
723.6141, 103.3820
724.0962, 103.6803
724.5783, 104.6695
725.0604, 105.1798
725.5425, 104.4551
726.0247, 103.2659
726.5068, 103.2720
726.9889, 105.1447
727.4710, 106.1643
727.9531, 105.7626
728.4352, 105.1739
728.9174, 104.6287
729.3995, 104.2107
729.8816, 104.0917
730.3637, 104.2906
730.8458, 104.3823
731.3279, 103.8989
731.8101, 103.2060
732.2922, 102.9905
732.7743, 103.1734
733.2564, 103.1253
733.7385, 102.5886
734.2206, 101.9378
734.7028, 101.6569
735.1849, 101.7739
735.6670, 101.8375
736.1491, 101.6305
736.6312, 101.6567
737.1133, 102.1156
737.5955, 102.7524
738.0776, 103.4822
738.5597, 104.2101
739.0418, 104.6273
739.5239, 104.5083
740.0060, 104.0917
740.4882, 103.4778
740.9703, 102.7933
741.4524, 102.5241
741.9345, 102.7681
742.4166, 102.9846
742.8987, 102.6605
743.3809, 101.9873
743.8630, 101.9595
744.3451, 103.1470
744.8272, 103.9409
745.3093, 104.1944
745.7914, 104.1156
746.2736, 103.4754
746.7557, 102.6500
747.2378, 102.4534
747.7199, 103.3045
748.2020, 104.1040
748.6841, 103.6406
749.1663, 102.7301
749.6484, 103.0138
750.1305, 104.4099
750.6126, 105.4514
751.0947, 105.3729
751.5768, 104.6374
752.0590, 104.0387
752.5411, 103.5780
753.0232, 103.2514
753.5053, 103.1272
753.9874, 103.0506
754.4695, 102.9115
754.9517, 102.8302
755.4338, 103.0990
755.9159, 103.7084
756.3980, 103.8868
756.8801, 102.6076
757.3622, 101.2949
757.8444, 101.5931
758.3265, 102.9105
758.8086, 103.8809
759.2907, 104.1235
759.7728, 103.8256
760.2549, 103.0312
760.7371, 101.9366
761.2192, 101.9165
761.7013, 103.5878
762.1834, 104.6626
762.6655, 104.3468
763.1476, 103.7367
763.6298, 103.5158
764.1119, 103.5947
764.5940, 103.7148
765.0761, 103.8639
765.5582, 103.9679
766.0403, 104.0185
766.5225, 103.9874
767.0046, 103.9119
767.4867, 103.7310
767.9688, 103.1330
768.4509, 101.9379
768.9330, 100.7283
769.4152, 100.6167
769.8973, 101.6559
770.3794, 102.2464
770.8615, 102.0803
771.3436, 102.2446
771.8257, 103.5217
772.3079, 105.1600
772.7900, 106.1935
773.2721, 106.6494
773.7542, 106.2764
774.2363, 103.9221
774.7184, 101.9597
775.2006, 101.8599
775.6827, 102.7358
776.1648, 103.5687
776.6469, 104.0603
777.1290, 104.1109
777.6111, 103.4649
778.0933, 102.5810
778.5754, 102.6806
779.0575, 103.7152
779.5396, 104.2439
780.0217, 103.8570
780.5038, 103.4134
780.9860, 103.5452
781.4681, 104.1702
781.9502, 104.9569
782.4323, 106.4150
782.9144, 107.1847
783.3965, 106.6137
783.8787, 105.9264
784.3608, 105.8187
784.8429, 106.0914
785.3250, 106.4063
785.8071, 106.6602
786.2892, 106.5711
786.7714, 105.6411
787.2535, 104.3194
787.7356, 103.3905
788.2177, 102.8647
788.6998, 102.5413
789.1819, 102.3327
789.6641, 102.4790
790.1462, 103.4091
790.6283, 105.1161
791.1104, 105.8583
791.5925, 104.6923
792.0746, 104.1537
792.5568, 105.6306
793.0389, 107.0360
793.5210, 106.5261
794.0031, 104.6594
794.4852, 103.5370
794.9673, 104.0721
795.4495, 104.8921
795.9316, 105.3059
796.4137, 105.4119
796.8958, 105.3046
797.3779, 105.0115
797.8600, 104.4267
798.3422, 103.4714
798.8243, 102.7176
799.3064, 103.3672
799.7885, 105.4970
800.2706, 106.7190
800.7527, 106.7823
801.2349, 106.6805
801.7170, 106.9701
802.1991, 107.1409
802.6812, 106.1688
803.1633, 104.0387
803.6454, 102.8427
804.1276, 103.5331
804.6097, 104.2631
805.0918, 104.1639
805.5739, 103.9035
806.0560, 104.3961
806.5381, 105.4911
807.0203, 106.1766
807.5024, 105.7776
807.9845, 104.9654
808.4666, 104.4489
808.9487, 104.3003
809.4308, 105.1402
809.9130, 107.0633
810.3951, 108.2020
810.8772, 107.2494
811.3593, 105.4412
811.8414, 105.4122
812.3235, 107.9330
812.8057, 109.3327
813.2878, 108.9903
813.7699, 108.2713
814.2520, 107.2216
814.7341, 106.1849
815.2162, 105.3904
815.6984, 104.9020
816.1805, 104.9380
816.6626, 106.3327
817.1447, 107.5123
817.6268, 106.7714
818.1089, 105.2870
818.5911, 105.1082
819.0732, 106.3162
819.5553, 107.4166
820.0374, 107.4067
820.5195, 106.8669
821.0016, 107.0755
821.4838, 108.0620
821.9659, 108.7714
822.4480, 109.2077
822.9301, 109.0588
823.4122, 107.8245
823.8943, 106.2046
824.3765, 105.4503
824.8586, 105.7208
825.3407, 106.0212
825.8228, 106.6518
826.3049, 106.9058
826.7870, 106.0890
827.2692, 105.0773
827.7513, 104.8503
828.2334, 105.3981
828.7155, 105.9995
829.1976, 106.2776
829.6797, 106.4275
830.1619, 106.7418
830.6440, 107.0796
831.1261, 106.9782
831.6082, 106.4499
832.0903, 106.1791
832.5724, 106.6090
833.0546, 107.2318
833.5367, 106.9062
834.0188, 105.3653
834.5009, 104.8144
834.9830, 105.8056
835.4651, 106.6753
835.9473, 106.7857
836.4294, 106.5121
836.9115, 106.2316
837.3936, 105.9473
837.8757, 105.6870
838.3578, 105.2546
838.8400, 105.0971
839.3221, 105.6526
839.8042, 106.3657
840.2863, 106.7395
840.7684, 106.7452
841.2505, 106.4475
841.7327, 105.8131
842.2148, 105.3530
842.6969, 105.9947
843.1790, 107.2431
843.6611, 107.6313
844.1432, 107.1195
844.6254, 106.4248
845.1075, 105.8128
845.5896, 105.3452
846.0717, 105.0996
846.5538, 105.0764
847.0359, 105.2786
847.5181, 106.0501
848.0002, 106.3592
848.4823, 105.4895
848.9644, 104.5749
849.4465, 104.4686
849.9286, 104.9444
850.4108, 105.2785
850.8929, 105.2356
851.3750, 105.3170
851.8571, 105.8773
852.3392, 106.4760
852.8214, 106.9509
853.3035, 107.1263
853.7856, 106.4872
854.2677, 104.9690
854.7498, 103.6970
855.2319, 104.1521
855.7141, 105.4046
856.1962, 104.9914
856.6783, 103.2232
857.1604, 102.5199
857.6425, 103.5539
858.1246, 104.4822
858.6068, 103.6366
859.0889, 101.6461
859.5710, 100.9416
860.0531, 102.1290
860.5352, 103.0064
861.0173, 103.3644
861.4995, 103.5749
861.9816, 103.8155
862.4637, 104.0047
862.9458, 104.0573
863.4279, 103.9709
863.9100, 103.6691
864.3922, 102.8322
864.8743, 102.1139
865.3564, 102.0385
865.8385, 102.1657
866.3206, 101.9897
866.8027, 101.4657
867.2849, 100.7335
867.7670, 99.78500
868.2491, 99.02016
868.7312, 99.21740
869.2133, 99.98263
869.6954, 100.0682
870.1776, 99.44041
870.6597, 99.00650
871.1418, 99.18385
871.6239, 99.66681
872.1060, 100.0654
872.5881, 100.3783
873.0703, 100.4575
873.5524, 99.99138
874.0345, 100.1554
874.5166, 102.0822
874.9987, 103.7232
875.4808, 103.0363
875.9630, 100.7512
876.4451, 98.95964
876.9272, 97.77963
877.4093, 97.10011
877.8914, 97.14726
878.3735, 97.42869
878.8557, 97.70318
879.3378, 97.98299
879.8199, 98.46599
880.3020, 99.12792
880.7841, 99.38231
881.2662, 98.50796
881.7484, 97.32224
882.2305, 96.89507
882.7126, 96.93852
883.1947, 96.66780
883.6768, 96.02898
884.1589, 95.74660
884.6411, 96.33809
885.1232, 97.23059
885.6053, 97.11938
886.0874, 95.96152
886.5695, 95.63527
887.0516, 96.46258
887.5338, 96.92143
888.0159, 96.29560
888.4980, 95.26646
888.9801, 94.56120
889.4622, 94.17992
889.9443, 94.15231
890.4265, 94.98848
890.9086, 95.43982
891.3907, 95.51360
891.8728, 95.05302
892.3549, 93.34071
892.8370, 91.20224
893.3192, 90.31285
893.8013, 91.16780
894.2834, 92.10200
894.7655, 92.47029
895.2476, 92.42450
895.7297, 91.78288
896.2119, 90.94215
896.6940, 90.55348
897.1761, 90.71264
897.6582, 91.15044
898.1403, 91.80246
898.6224, 92.26547
899.1046, 91.61686
899.5867, 90.16907
900.0688, 89.22587
900.5509, 88.91467
901.0330, 89.21716
901.5151, 90.18113
901.9973, 91.48252
902.4794, 92.79063
902.9615, 94.10689
903.4436, 93.97253
903.9257, 91.58589
904.4078, 89.84545
904.8900, 89.48442
905.3721, 89.76156
905.8542, 90.58621
906.3363, 91.57253
906.8184, 91.45238
907.3005, 89.60292
907.7827, 88.13886
908.2648, 87.29900
908.7469, 86.92113
909.2290, 87.18185
909.7111, 87.71159
910.1932, 88.12429
910.6754, 88.34923
911.1575, 88.43040
911.6396, 88.21163
912.1217, 88.12217
912.6038, 88.77656
913.0859, 89.62038
913.5681, 89.79443
914.0502, 89.38030
914.5323, 88.99530
915.0143, 88.90950
915.4965, 88.89045
915.9786, 88.48225
916.4607, 87.94411
916.9428, 88.49380
917.4249, 90.00899
917.9070, 90.70338
918.3892, 90.09758
918.8713, 89.07229
919.3534, 88.22757
919.8355, 87.65974
920.3176, 87.75230
920.7997, 88.76915
921.2819, 89.45860
921.7640, 89.69133
922.2461, 89.82461
922.7282, 90.10200
923.2103, 90.26011
923.6924, 89.68044
924.1746, 88.43804
924.6567, 88.17393
925.1388, 90.29089
925.6209, 91.50381
926.1030, 90.11714
926.5851, 88.70730
927.0673, 89.26869
927.5494, 90.98884
928.0315, 92.31236
928.5136, 92.86754
928.9957, 92.92893
929.4778, 92.34483
929.9600, 91.61972
930.4421, 90.85993
930.9242, 90.38025
931.4063, 90.92531
931.8884, 92.30074
932.3705, 93.29884
932.8527, 93.20268
933.3348, 92.78500
933.8169, 93.30949
934.2990, 94.24669
934.7811, 93.85899
935.2632, 92.31175
935.7454, 91.32786
936.2275, 91.47458
936.7096, 91.94264
937.1917, 91.93880
937.6738, 91.61698
938.1559, 91.50291
938.6381, 91.56152
939.1202, 92.25092
939.6023, 93.89774
940.0844, 95.22713
940.5665, 95.52705
941.0486, 95.22836
941.5308, 94.96042
942.0129, 94.71541
942.4950, 94.57655
942.9771, 94.66810
943.4592, 94.67600
943.9413, 94.42506
944.4235, 94.20882
944.9056, 94.39287
945.3877, 94.70434
945.8698, 94.42137
946.3519, 93.20164
946.8340, 92.55668
947.3162, 93.71429
947.7983, 94.57335
948.2804, 93.33463
948.7625, 91.66917
949.2446, 91.80043
949.7267, 93.49522
950.2089, 94.76752
950.6910, 94.72891
951.1731, 94.11107
951.6552, 93.35928
952.1373, 92.45031
952.6194, 91.05602
953.1016, 89.53695
953.5837, 88.79954
954.0658, 89.04158
954.5479, 89.59662
955.0300, 89.91763
955.5121, 90.23019
955.9943, 91.22884
956.4764, 92.59772
956.9585, 93.04887
957.4406, 92.47213
957.9227, 91.30597
958.4048, 89.71286
958.8870, 88.09557
959.3691, 86.95847
959.8512, 86.29071
960.3333, 86.11736
960.8154, 86.54395
961.2975, 86.61340
961.7797, 85.99137
962.2618, 85.58791
962.7439, 86.16820
963.2260, 87.14701
963.7081, 87.26034
964.1902, 86.36546
964.6724, 85.32561
965.1545, 83.58042
965.6366, 82.64563
966.1187, 83.69344
966.6008, 84.88676
967.0829, 84.57643
967.5651, 83.29268
968.0472, 82.67084
968.5293, 82.97728
969.0114, 83.47585
969.4935, 84.49605
969.9756, 85.18577
970.4578, 84.89662
970.9399, 84.27522
971.4220, 84.19933
971.9041, 84.53315
972.3862, 84.21138
972.8683, 82.46165
973.3505, 80.93279
973.8326, 80.56985
974.3147, 80.69662
974.7968, 80.92936
975.2789, 81.11831
975.7610, 81.00961
976.2432, 80.61729
976.7253, 80.40258
977.2074, 80.81882
977.6895, 81.26909
978.1716, 80.98039
978.6537, 80.33997
979.1359, 79.89077
979.6180, 79.72770
980.1001, 80.06886
980.5822, 80.93912
981.0643, 81.57491
981.5464, 81.10266
982.0286, 79.96306
982.5107, 79.03963
982.9928, 78.36068
983.4749, 78.19565
983.9570, 78.53902
984.4391, 78.67902
984.9213, 78.22120
985.4034, 77.60741
985.8855, 77.51219
986.3676, 77.85892
986.8497, 77.98058
987.3318, 77.86137
987.8140, 77.63469
988.2961, 77.24345
988.7782, 77.17933
989.2603, 77.88231
989.7424, 78.91255
990.2245, 79.35948
990.7067, 79.16325
991.1888, 78.86458
991.6709, 78.46205
992.1530, 77.90330
992.6351, 76.77822
993.1172, 76.11196
993.5994, 77.14454
994.0815, 79.12132
994.5636, 79.63228
995.0457, 77.89268
995.5278, 76.90155
996.0099, 77.18264
996.4921, 77.51547
996.9742, 77.55053
997.4563, 77.55225
997.9384, 77.85270
998.4205, 78.31680
998.9026, 78.44215
999.3848, 78.06755
999.8669, 77.61398
1000.349, 76.73753
1000.831, 76.29649
1001.313, 77.12898
1001.795, 78.31429
1002.277, 78.95091
1002.760, 78.96284
1003.242, 78.51093
1003.724, 77.30596
1004.206, 76.51378
1004.688, 77.36583
1005.170, 78.14122
1005.652, 76.95369
1006.134, 75.09205
1006.617, 74.86246
1007.099, 76.27148
1007.581, 77.09422
1008.063, 75.92899
1008.545, 74.60257
1009.027, 74.58610
1009.509, 75.20573
1009.991, 75.90205
1010.473, 76.51059
1010.956, 76.76268
1011.438, 76.65007
1011.920, 76.55125
1012.402, 76.79094
1012.884, 76.99660
1013.366, 76.48289
1013.848, 75.71348
1014.330, 75.67841
1014.813, 76.22704
1015.295, 76.57771
1015.777, 76.49818
1016.259, 76.34260
1016.741, 76.40285
1017.223, 76.60297
1017.705, 76.93663
1018.187, 77.28196
1018.669, 77.03377
1019.152, 76.26549
1019.634, 75.97070
1020.116, 76.50437
1020.598, 76.98487
1021.080, 76.41093
1021.562, 75.28379
1022.044, 75.24346
1022.526, 76.12992
1023.008, 75.98895
1023.491, 74.62628
1023.973, 74.16073
1024.455, 75.58665
1024.937, 77.19009
1025.419, 76.87048
1025.901, 75.18031
1026.383, 74.83070
1026.865, 75.95003
1027.348, 76.35291
1027.830, 75.69811
1028.312, 75.13838
1028.794, 75.23907
1029.276, 75.50086
1029.758, 75.26961
1030.240, 74.63273
1030.722, 74.31750
1031.204, 74.42208
1031.687, 74.36728
1032.169, 73.95307
1032.651, 73.84511
1033.133, 74.51573
1033.615, 75.36510
1034.097, 75.61798
1034.579, 75.30377
1035.061, 74.81684
1035.544, 73.94148
1036.026, 73.46635
1036.508, 73.54331
1036.990, 73.87656
1037.472, 74.48410
1037.954, 75.12600
1038.436, 75.59776
1038.918, 75.88164
1039.401, 75.37669
1039.883, 73.19751
1040.365, 71.90022
1040.847, 72.09621
1041.329, 72.58826
1041.811, 73.10355
1042.293, 73.46094
1042.775, 73.12724
1043.257, 72.14883
1043.740, 72.32383
1044.222, 75.02161
1044.704, 76.75511
1045.186, 77.01048
1045.668, 76.67127
1046.150, 75.67018
1046.632, 74.57352
1047.114, 74.13026
1047.596, 74.30688
1048.079, 74.34904
1048.561, 73.84797
1049.043, 73.73288
1049.525, 74.58340
1050.007, 75.30070
1050.489, 75.32238
1050.971, 74.94849
1051.453, 74.36018
1051.936, 73.66344
1052.418, 73.49979
1052.900, 74.69953
1053.382, 75.18095
1053.864, 73.63091
1054.346, 72.31394
1054.828, 73.03125
1055.310, 74.21796
1055.792, 73.78941
1056.275, 71.88775
1056.757, 70.33877
1057.239, 69.21977
1057.721, 69.15897
1058.203, 71.56162
1058.685, 73.66195
1059.167, 73.41673
1059.649, 72.38078
1060.131, 72.57732
1060.614, 73.84260
1061.096, 74.49251
1061.578, 73.89743
1062.060, 73.16593
1062.542, 72.40607
1063.024, 71.92113
1063.506, 72.23659
1063.988, 72.67180
1064.471, 72.17957
1064.953, 71.05764
1065.435, 70.76137
1065.917, 71.95746
1066.399, 72.99551
1066.881, 73.06525
1067.363, 72.97543
1067.845, 73.21354
1068.328, 73.52921
1068.810, 73.60311
1069.292, 73.48204
1069.774, 73.50075
1070.256, 73.86282
1070.738, 73.71603
1071.220, 72.07365
1071.702, 70.54857
1072.184, 70.00291
1072.667, 70.11356
1073.149, 70.79868
1073.631, 71.77202
1074.113, 72.47697
1074.595, 72.76260
1075.077, 72.83090
1075.559, 72.46871
1076.041, 72.27649
1076.523, 73.08965
1077.006, 73.81332
1077.488, 72.94353
1077.970, 71.23352
1078.452, 70.61389
1078.934, 71.53770
1079.416, 72.32511
1079.898, 72.15802
1080.380, 71.76450
1080.862, 71.52687
1081.345, 71.22922
1081.827, 70.39693
1082.309, 69.46375
1082.791, 69.36226
1083.273, 70.20673
1083.755, 70.96020
1084.237, 71.23040
1084.719, 71.25703
1085.202, 71.01869
1085.684, 70.71262
1086.166, 70.37375
1086.648, 70.13992
1087.130, 70.28031
1087.612, 70.76936
1088.094, 71.16297
1088.576, 71.34595
1089.058, 71.30809
1089.541, 70.77612
1090.023, 70.30534
1090.505, 70.51479
1090.987, 70.87954
1091.469, 70.50848
1091.951, 69.54597
1092.433, 69.11015
1092.915, 69.73955
1093.397, 70.34319
1093.880, 70.46126
1094.362, 70.46792
1094.844, 70.47868
1095.326, 70.56825
1095.808, 71.09599
1096.290, 71.74260
1096.772, 71.38914
1097.254, 69.44733
1097.737, 68.14290
1098.219, 68.73756
1098.701, 69.48691
1099.183, 69.59058
1099.665, 69.51264
1100.147, 69.95980
1100.629, 70.49860
1101.111, 69.90733
1101.594, 67.85320
1102.076, 66.50006
1102.558, 66.91444
1103.040, 67.42091
1103.522, 67.42444
1104.004, 67.38314
1104.486, 67.64650
1104.968, 68.07625
1105.450, 68.37869
1105.932, 68.53575
1106.415, 68.90677
1106.897, 70.03856
1107.379, 70.67024
1107.861, 70.31212
1108.343, 69.68127
1108.825, 69.00272
1109.307, 68.35090
1109.789, 67.68642
1110.272, 67.07625
1110.754, 66.95117
1111.236, 67.85978
1111.718, 68.25223
1112.200, 67.25603
1112.682, 66.66555
1113.164, 67.44438
1113.646, 68.59833
1114.129, 69.17794
1114.611, 69.39194
1115.093, 70.07716
1115.575, 71.73106
1116.057, 72.31951
1116.539, 70.95554
1117.021, 69.86974
1117.503, 69.63870
1117.985, 69.63493
1118.468, 69.55216
1118.950, 69.36845
1119.432, 68.99449
1119.914, 68.39424
1120.396, 68.04790
1120.878, 68.06944
1121.360, 68.10275
1121.842, 68.12370
1122.324, 68.11446
1122.807, 68.02036
1123.289, 67.96080
1123.771, 68.14622
1124.253, 68.51527
1124.735, 68.49111
1125.217, 67.81630
1125.699, 67.78181
1126.181, 68.87932
1126.664, 69.14881
1127.146, 67.56509
1127.628, 65.89333
1128.110, 65.82538
1128.592, 66.80457
1129.074, 67.14533
1129.556, 66.74058
1130.038, 66.87692
1130.521, 67.64001
1131.003, 68.44496
1131.485, 69.25459
1131.967, 69.36791
1132.449, 68.19564
1132.931, 66.63701
1133.413, 66.19914
1133.895, 66.71883
1134.377, 67.06755
1134.859, 67.25227
1135.342, 67.37964
1135.824, 67.46736
1136.306, 67.77733
1136.788, 68.43690
1137.270, 68.88518
1137.752, 68.43449
1138.234, 67.54058
1138.716, 67.28029
1139.199, 67.57073
1139.681, 68.30837
1140.163, 69.30596
1140.645, 69.47076
1141.127, 68.60165
1141.609, 67.85995
1142.091, 68.09039
1142.573, 68.50447
1143.056, 67.66272
1143.538, 66.40245
1144.020, 66.63243
1144.502, 67.81987
1144.984, 68.57639
1145.466, 68.73839
1145.948, 68.79976
1146.430, 68.96637
1146.912, 68.82118
1147.395, 67.65294
1147.877, 66.38069
1148.359, 66.05328
1148.841, 66.26997
1149.323, 66.72496
1149.805, 67.15205
1150.287, 66.94702
1150.769, 66.11924
1151.251, 65.68898
1151.734, 66.40258
1152.216, 67.09994
1152.698, 67.02707
1153.180, 66.60931
1153.662, 65.78312
1154.144, 65.10690
1154.626, 65.60096
1155.108, 66.87041
1155.591, 67.27558
1156.073, 66.16560
1156.555, 65.60779
1157.037, 67.18138
1157.519, 68.31421
1158.001, 67.18010
1158.483, 65.97316
1158.965, 66.91626
1159.448, 68.70807
1159.930, 68.72667
1160.412, 66.80527
1160.894, 65.86481
1161.376, 67.08991
1161.858, 67.93976
1162.340, 68.11523
1162.822, 67.98817
1163.304, 67.36584
1163.786, 66.82527
1164.269, 67.00246
1164.751, 67.67786
1165.233, 68.11488
1165.715, 68.31602
1166.197, 68.24384
1166.679, 67.80840
1167.161, 67.32863
1167.643, 66.78792
1168.126, 66.47316
1168.608, 66.68921
1169.090, 66.89217
1169.572, 66.15095
1170.054, 64.67393
1170.536, 64.03562
1171.018, 64.24512
1171.500, 65.35598
1171.983, 67.43954
1172.465, 68.36701
1172.947, 67.35316
1173.429, 66.08708
1173.911, 65.98010
1174.393, 66.52487
1174.875, 66.97992
1175.357, 67.23406
1175.839, 66.44291
1176.322, 65.04811
1176.804, 65.16561
1177.286, 66.87654
1177.768, 68.50834
1178.250, 69.28097
1178.732, 69.18596
1179.214, 67.72269
1179.696, 66.06052
1180.178, 66.08018
1180.661, 66.72231
1181.143, 66.07948
1181.625, 64.75337
1182.107, 64.42204
1182.589, 65.30133
1183.071, 66.45726
1183.553, 67.61520
1184.035, 68.28344
1184.518, 67.78228
1185.000, 67.09985
1185.482, 66.95502
1185.964, 66.97595
1186.446, 66.75020
1186.928, 66.34011
1187.410, 65.92455
1187.892, 65.53050
1188.375, 65.39007
1188.857, 65.74194
1189.339, 66.07718
1189.821, 66.49773
1190.303, 66.63219
1190.785, 65.70627
1191.267, 64.88707
1191.749, 65.82377
1192.231, 67.88909
1192.714, 68.56010
1193.196, 67.28980
1193.678, 66.80596
1194.160, 67.57306
1194.642, 67.81007
1195.124, 66.98754
1195.606, 66.08698
1196.088, 65.60765
1196.570, 65.54216
1197.053, 65.97932
1197.535, 66.74323
1198.017, 66.85716
1198.499, 66.34331
1198.981, 66.18800
1199.463, 66.44713
1199.945, 66.88317
1200.427, 67.41785
1200.910, 67.89941
1201.392, 68.26411
1201.874, 68.18072
1202.356, 66.60075
1202.838, 64.56568
1203.320, 64.66824
1203.802, 65.96785
1204.284, 66.29137
1204.766, 65.68124
1205.249, 65.13352
1205.731, 65.00564
1206.213, 65.38243
1206.695, 66.70879
1207.177, 67.61008
1207.659, 66.36797
1208.141, 64.92367
1208.623, 65.26257
1209.105, 66.22917
1209.588, 66.17590
1210.070, 65.34260
1210.552, 64.95302
1211.034, 65.27946
1211.516, 65.85442
1211.998, 67.18848
1212.480, 67.85149
1212.962, 67.00012
1213.445, 65.97842
1213.927, 65.28451
1214.409, 64.95211
1214.891, 65.13190
1215.373, 65.69671
1215.855, 66.06124
1216.337, 66.13268
1216.819, 66.48480
1217.302, 67.35458
1217.784, 67.52438
1218.266, 66.65025
1218.748, 65.37291
1219.230, 63.88967
1219.712, 62.94576
1220.194, 63.67772
1220.676, 65.43826
1221.158, 65.98715
1221.641, 65.63721
1222.123, 66.25545
1222.605, 67.66512
1223.087, 68.30460
1223.569, 67.88518
1224.051, 67.23306
1224.533, 66.79366
1225.015, 66.58411
1225.497, 66.74248
1225.980, 67.01836
1226.462, 67.18652
1226.944, 67.24043
1227.426, 67.25043
1227.908, 67.11086
1228.390, 66.38393
1228.872, 65.19347
1229.354, 64.72452
1229.837, 65.75356
1230.319, 66.43556
1230.801, 65.63410
1231.283, 65.02247
1231.765, 65.96782
1232.247, 66.73389
1232.729, 65.37768
1233.211, 63.18634
1233.693, 62.50892
1234.176, 63.30414
1234.658, 64.40955
1235.140, 66.16267
1235.622, 67.20122
1236.104, 67.38811
1236.586, 67.04395
1237.068, 66.10126
1237.550, 65.43684
1238.032, 65.74667
1238.515, 66.44401
1238.997, 66.52463
1239.479, 66.17398
1239.961, 66.13689
1240.443, 66.35947
1240.925, 66.71809
1241.407, 67.10228
1241.889, 67.03471
1242.372, 66.45650
1242.854, 65.95010
1243.336, 65.85357
1243.818, 66.07295
1244.300, 66.90065
1244.782, 67.60212
1245.264, 67.25052
1245.746, 66.52455
1246.229, 66.22973
1246.711, 66.23905
1247.193, 66.07878
1247.675, 65.71343
1248.157, 65.67379
1248.639, 66.63001
1249.121, 66.82134
1249.603, 64.56644
1250.085, 63.42817
1250.568, 65.48598
1251.050, 67.79059
1251.532, 68.51316
1252.014, 68.16624
1252.496, 67.49886
1252.978, 66.56038
1253.460, 65.88186
1253.942, 65.45613
1254.424, 65.45609
1254.907, 65.91433
1255.389, 66.03051
1255.871, 65.58950
1256.353, 64.99009
1256.835, 64.46546
1257.317, 64.22896
1257.799, 64.77859
1258.281, 65.57112
1258.764, 65.45280
1259.246, 64.96767
1259.728, 65.17802
1260.210, 65.84115
1260.692, 66.31929
1261.174, 66.42037
1261.656, 65.93865
1262.138, 64.59447
1262.620, 63.74321
1263.103, 64.45670
1263.585, 65.20430
1264.067, 65.65623
1264.549, 65.52629
1265.031, 63.41262
1265.513, 61.42397
1265.995, 63.42651
1266.477, 68.24840
1266.959, 69.47374
1267.442, 65.73598
1267.924, 64.21408
1268.406, 65.49357
1268.888, 66.19672
1269.370, 65.59671
1269.852, 65.17962
1270.334, 65.71423
1270.816, 66.42732
1271.299, 66.50871
1271.781, 66.17431
1272.263, 65.58763
1272.745, 65.05714
1273.227, 65.63781
1273.709, 66.80691
1274.191, 67.10535
1274.673, 66.62529
1275.156, 66.45048
1275.638, 66.94875
1276.120, 67.92494
1276.602, 70.36980
1277.084, 71.33646
1277.566, 67.53671
1278.048, 63.99947
1278.530, 64.04347
1279.012, 65.55119
1279.495, 67.05714
1279.977, 68.05586
1280.459, 67.32573
1280.941, 64.80115
1281.423, 64.24727
1281.905, 66.52757
1282.387, 67.44855
##END=



