##NAMES=Braunite
##RRUFFID=R050388
##IDEAL CHEMISTRY=Mn^2+^Mn^3+^_6_SiO_12_
##LOCALITY=Langban, Filipstad, Varmland, Sweden
##OWNER=RRUFF
##SOURCE=University of Arizona Mineral Museum
##DESCRIPTION=Black crystals
##STATUS=The identification of this mineral has been confirmed by X-ray diffraction and chemical analysis
##URL=rruff.info/R050388
##MEASURED CHEMISTRY=(Mn^2+^_0.96_Mg_0.04_)_Î£=1_Mn^3+^_6.00_Si_1.00_O_12_
93.48767, 390.4161
93.96979, 376.3528
94.45190, 363.1201
94.93402, 349.9738
95.41614, 333.5275
95.89825, 316.1127
96.38037, 300.8185
96.86249, 287.5792
97.34460, 276.8264
97.82672, 274.0228
98.30884, 267.4229
98.79095, 251.9888
99.27307, 231.0784
99.75519, 212.3445
100.2373, 201.2315
100.7194, 196.6155
101.2015, 190.9187
101.6837, 183.6343
102.1658, 175.7056
102.6479, 167.2657
103.1300, 158.1190
103.6121, 150.0056
104.0942, 144.5356
104.5764, 140.8826
105.0585, 138.3605
105.5406, 137.9762
106.0227, 138.6168
106.5048, 136.6605
106.9869, 130.3826
107.4691, 123.6966
107.9512, 118.5565
108.4333, 114.5739
108.9154, 110.7237
109.3975, 105.9161
109.8796, 99.81669
110.3618, 94.91600
110.8439, 92.00620
111.3260, 89.57937
111.8081, 87.00377
112.2902, 84.21960
112.7723, 81.55550
113.2544, 79.47257
113.7366, 78.11048
114.2187, 77.21278
114.7008, 76.90718
115.1829, 76.94766
115.6650, 77.23830
116.1471, 77.75142
116.6293, 78.27514
117.1114, 78.24166
117.5935, 77.32216
118.0756, 76.55054
118.5577, 76.12036
119.0398, 76.00975
119.5220, 76.20482
120.0041, 76.80670
120.4862, 77.63264
120.9683, 78.23389
121.4504, 78.48012
121.9325, 78.72147
122.4147, 79.31228
122.8968, 80.29048
123.3789, 81.15147
123.8610, 81.75171
124.3431, 82.05047
124.8252, 81.87932
125.3074, 81.03294
125.7895, 79.87473
126.2716, 79.20332
126.7537, 79.35255
127.2358, 79.41713
127.7179, 78.94922
128.2001, 78.26982
128.6822, 77.83881
129.1643, 78.01018
129.6464, 78.70546
130.1285, 78.90550
130.6107, 78.35374
131.0928, 77.50278
131.5749, 76.24812
132.0570, 74.75176
132.5391, 73.29688
133.0212, 72.14253
133.5033, 71.32643
133.9855, 70.57903
134.4676, 69.66505
134.9497, 68.98217
135.4318, 68.97481
135.9139, 69.59582
136.3960, 70.20427
136.8782, 70.06731
137.3603, 69.03490
137.8424, 67.83052
138.3245, 66.48635
138.8066, 64.99374
139.2887, 63.27841
139.7709, 61.27580
140.2530, 59.26696
140.7351, 57.58616
141.2172, 56.19966
141.6993, 55.02594
142.1814, 54.17967
142.6636, 53.56512
143.1457, 52.79838
143.6278, 51.67801
144.1099, 50.52659
144.5920, 49.57624
145.0741, 48.83686
145.5563, 48.24834
146.0384, 47.72463
146.5205, 47.24307
147.0026, 47.02669
147.4847, 47.58659
147.9668, 48.12186
148.4490, 48.12217
148.9311, 47.50074
149.4132, 46.62055
149.8953, 46.03481
150.3774, 45.91074
150.8595, 45.75053
151.3417, 45.50681
151.8238, 45.22252
152.3059, 44.92921
152.7880, 44.64100
153.2701, 44.34945
153.7522, 44.03707
154.2344, 43.58908
154.7165, 43.26103
155.1986, 43.19723
155.6807, 43.22184
156.1628, 43.08049
156.6449, 42.63036
157.1271, 41.98342
157.6092, 41.61016
158.0913, 41.92661
158.5734, 42.00321
159.0555, 41.29592
159.5376, 40.10249
160.0198, 39.23409
160.5019, 39.22094
160.9840, 39.84470
161.4661, 40.17877
161.9482, 40.04134
162.4303, 39.82200
162.9125, 39.79364
163.3946, 39.94764
163.8767, 40.07688
164.3588, 39.99389
164.8409, 39.82829
165.3230, 39.80978
165.8052, 40.06657
166.2873, 40.40351
166.7694, 40.55814
167.2515, 40.49379
167.7336, 40.37030
168.2157, 40.25144
168.6979, 40.12672
169.1800, 39.98450
169.6621, 39.82765
170.1442, 39.64430
170.6263, 39.39156
171.1084, 39.01529
171.5906, 38.65432
172.0727, 38.38551
172.5548, 38.15126
173.0369, 37.85080
173.5190, 37.39317
174.0011, 36.81907
174.4833, 36.47333
174.9654, 36.45216
175.4475, 36.59940
175.9296, 37.10920
176.4117, 37.76082
176.8938, 38.16227
177.3760, 37.98323
177.8581, 37.20147
178.3402, 36.70700
178.8223, 36.66880
179.3044, 36.71421
179.7865, 36.75222
180.2687, 36.76835
180.7508, 36.76962
181.2329, 36.76152
181.7150, 36.74348
182.1971, 36.71514
182.6792, 36.63143
183.1614, 36.57516
183.6435, 36.62518
184.1256, 36.77198
184.6077, 36.90795
185.0898, 36.93316
185.5719, 36.83625
186.0541, 36.74768
186.5362, 36.60276
187.0183, 36.50572
187.5004, 36.60056
187.9825, 36.91282
188.4646, 37.22784
188.9468, 37.30611
189.4289, 37.20737
189.9110, 37.17519
190.3931, 37.41247
190.8752, 37.70345
191.3573, 37.60261
191.8395, 36.88696
192.3216, 36.32945
192.8037, 36.80939
193.2858, 37.91972
193.7679, 38.73561
194.2500, 38.59353
194.7322, 37.81145
195.2143, 37.45869
195.6964, 37.84620
196.1785, 38.21889
196.6606, 38.06824
197.1427, 37.58710
197.6249, 37.20106
198.1070, 37.22736
198.5891, 37.62169
199.0712, 37.93108
199.5533, 38.04621
200.0354, 38.19496
200.5176, 38.54179
200.9997, 38.99505
201.4818, 39.33469
201.9639, 39.32014
202.4460, 38.93370
202.9281, 38.88320
203.4103, 39.71895
203.8924, 40.40467
204.3745, 40.47584
204.8566, 40.10395
205.3387, 39.77886
205.8208, 39.95881
206.3030, 40.72685
206.7851, 41.22901
207.2672, 41.36919
207.7493, 41.37081
208.2314, 41.21059
208.7135, 40.96056
209.1957, 40.78384
209.6778, 40.83624
210.1599, 41.15131
210.6420, 41.45403
211.1241, 41.90029
211.6062, 42.20572
212.0884, 42.13251
212.5705, 41.73344
213.0526, 41.28950
213.5347, 41.02519
214.0168, 40.96124
214.4989, 41.10523
214.9811, 41.90507
215.4632, 42.55382
215.9453, 42.32254
216.4274, 41.24340
216.9095, 40.16508
217.3916, 39.83600
217.8737, 40.29580
218.3559, 40.66000
218.8380, 40.96535
219.3201, 41.14079
219.8022, 41.09412
220.2843, 40.81899
220.7664, 40.44638
221.2486, 39.98111
221.7307, 39.48799
222.2128, 39.25157
222.6949, 39.62603
223.1770, 40.11434
223.6591, 40.05965
224.1413, 39.36423
224.6234, 38.69015
225.1055, 38.59718
225.5876, 38.86214
226.0697, 39.10805
226.5518, 39.20115
227.0340, 39.24050
227.5161, 39.38938
227.9982, 39.68423
228.4803, 39.96120
228.9624, 40.16837
229.4445, 40.29061
229.9267, 40.28324
230.4088, 40.09329
230.8909, 39.79375
231.3730, 39.50610
231.8551, 39.20631
232.3372, 38.98603
232.8194, 38.90507
233.3015, 38.90780
233.7836, 38.93362
234.2657, 38.95545
234.7478, 38.98996
235.2299, 39.07112
235.7121, 39.19329
236.1942, 39.38283
236.6763, 39.87183
237.1584, 40.33718
237.6405, 40.38017
238.1227, 39.78891
238.6048, 38.83203
239.0869, 38.18320
239.5690, 37.91833
240.0511, 37.86496
240.5332, 38.12749
241.0154, 38.48528
241.4975, 38.71940
241.9796, 38.73606
242.4617, 38.60239
242.9438, 38.47991
243.4259, 38.35976
243.9081, 38.26792
244.3902, 38.23402
244.8723, 38.21386
245.3544, 38.16684
245.8365, 38.07684
246.3186, 37.95570
246.8008, 37.82008
247.2829, 37.55255
247.7650, 37.45878
248.2471, 37.67135
248.7292, 37.98840
249.2113, 38.28799
249.6935, 38.51397
250.1756, 38.58823
250.6577, 38.33893
251.1398, 37.32022
251.6219, 36.62583
252.1040, 36.40088
252.5862, 36.40948
253.0683, 36.47970
253.5504, 36.55267
254.0325, 36.62434
254.5146, 36.68925
254.9967, 36.75798
255.4789, 36.79426
255.9610, 36.82978
256.4431, 36.81657
256.9252, 36.69807
257.4073, 36.46453
257.8894, 36.17087
258.3716, 35.88280
258.8537, 35.58569
259.3358, 35.35006
259.8179, 35.15417
260.3000, 35.03130
260.7821, 35.05058
261.2643, 35.21464
261.7464, 35.39766
262.2285, 35.46991
262.7106, 35.41091
263.1927, 35.27799
263.6748, 34.90596
264.1570, 34.56559
264.6391, 34.57833
265.1212, 34.95475
265.6033, 35.29617
266.0854, 35.16745
266.5675, 34.54549
267.0497, 34.22242
267.5318, 34.39587
268.0139, 34.74947
268.4960, 35.12641
268.9781, 35.49887
269.4602, 35.69933
269.9424, 35.53331
270.4245, 35.05137
270.9066, 34.71617
271.3887, 34.56525
271.8708, 34.54322
272.3529, 34.72382
272.8351, 35.07578
273.3172, 35.23582
273.7993, 34.87122
274.2814, 34.16874
274.7635, 33.76108
275.2456, 33.80633
275.7278, 33.98680
276.2099, 34.13819
276.6920, 34.25488
277.1741, 34.27868
277.6562, 34.13084
278.1383, 33.90268
278.6205, 33.78746
279.1026, 33.81890
279.5847, 33.88737
280.0668, 33.94678
280.5489, 33.99111
281.0310, 33.96748
281.5132, 33.79319
281.9953, 33.61097
282.4774, 33.59654
282.9595, 33.75370
283.4416, 34.04066
283.9237, 34.59374
284.4059, 35.30257
284.8880, 35.66944
285.3701, 35.43166
285.8522, 34.99688
286.3343, 34.77437
286.8164, 34.75463
287.2986, 34.83703
287.7807, 35.07999
288.2628, 35.39780
288.7449, 35.47427
289.2270, 35.15480
289.7091, 34.78941
290.1913, 34.66162
290.6734, 34.72733
291.1555, 34.84330
291.6376, 34.95141
292.1197, 35.06157
292.6018, 35.22834
293.0840, 35.51461
293.5661, 35.70671
294.0482, 35.59245
294.5303, 35.29644
295.0124, 35.03164
295.4945, 34.86420
295.9767, 34.78605
296.4588, 34.85036
296.9409, 35.14988
297.4230, 35.27056
297.9051, 34.77865
298.3872, 34.04823
298.8694, 33.48883
299.3515, 33.18879
299.8336, 33.15142
300.3157, 33.57955
300.7978, 34.63024
301.2799, 35.19761
301.7621, 34.30196
302.2442, 33.00269
302.7263, 32.22694
303.2084, 32.17723
303.6905, 32.42993
304.1726, 32.69745
304.6548, 32.99402
305.1369, 32.90420
305.6190, 31.87589
306.1011, 30.78591
306.5832, 30.34100
307.0653, 30.57578
307.5475, 31.00105
308.0296, 31.24367
308.5117, 31.32159
308.9938, 31.47513
309.4759, 31.86708
309.9580, 32.17219
310.4402, 32.14637
310.9223, 31.84918
311.4044, 31.51345
311.8865, 31.17659
312.3686, 30.89673
312.8507, 30.97592
313.3329, 31.63986
313.8150, 32.28382
314.2971, 32.61340
314.7792, 32.70005
315.2613, 32.65675
315.7434, 32.47414
316.2256, 32.23288
316.7077, 32.08328
317.1898, 31.99676
317.6719, 32.08646
318.1540, 32.57153
318.6361, 33.18890
319.1183, 33.67447
319.6004, 33.96396
320.0825, 34.06542
320.5646, 33.90320
321.0467, 33.41118
321.5288, 33.07615
322.0110, 33.05571
322.4931, 33.26793
322.9752, 33.74059
323.4573, 34.48378
323.9394, 35.22919
324.4215, 35.76534
324.9037, 36.09043
325.3858, 36.19768
325.8679, 35.84164
326.3500, 35.51383
326.8321, 35.60802
327.3142, 36.07458
327.7964, 36.56203
328.2785, 36.85903
328.7606, 36.98586
329.2427, 37.01298
329.7248, 36.83247
330.2069, 36.74992
330.6891, 37.06022
331.1712, 37.59180
331.6533, 37.98438
332.1354, 38.07275
332.6175, 37.92263
333.0996, 37.61333
333.5818, 37.07108
334.0639, 36.60415
334.5460, 36.58842
335.0281, 36.66004
335.5102, 36.33694
335.9923, 35.35386
336.4745, 34.26661
336.9566, 33.78289
337.4387, 33.94348
337.9208, 34.03899
338.4029, 33.74361
338.8850, 33.35205
339.3671, 33.16188
339.8492, 33.20555
340.3314, 33.30213
340.8135, 33.38746
341.2956, 33.43797
341.7777, 33.25715
342.2598, 32.62972
342.7419, 32.02647
343.2241, 31.91540
343.7062, 32.20546
344.1883, 32.45128
344.6704, 32.43845
345.1525, 32.23503
345.6346, 31.94637
346.1168, 31.52966
346.5989, 31.18487
347.0810, 31.17311
347.5631, 31.32705
348.0452, 31.34410
348.5273, 31.02462
349.0095, 30.64668
349.4916, 30.55079
349.9737, 30.74314
350.4558, 30.94969
350.9379, 31.04626
351.4200, 31.08117
351.9022, 31.15921
352.3843, 31.33387
352.8664, 31.41373
353.3485, 31.18354
353.8306, 30.72953
354.3127, 30.40465
354.7949, 30.33916
355.2770, 30.38003
355.7591, 30.28782
356.2412, 30.06025
356.7233, 29.98792
357.2054, 30.33920
357.6876, 30.85827
358.1697, 31.14388
358.6518, 31.13597
359.1339, 30.95101
359.6160, 30.54722
360.0981, 30.00910
360.5803, 29.80456
361.0624, 30.25847
361.5445, 30.86588
362.0266, 31.25656
362.5087, 31.43327
362.9908, 31.45807
363.4730, 31.28766
363.9551, 31.03596
364.4372, 31.04385
364.9193, 31.41687
365.4014, 31.84453
365.8835, 32.32030
366.3657, 32.74832
366.8478, 32.88135
367.3299, 32.59595
367.8120, 32.15862
368.2941, 31.99737
368.7762, 32.16921
369.2584, 32.33675
369.7405, 32.46665
370.2226, 32.56516
370.7047, 32.60748
371.1868, 32.60011
371.6689, 32.64878
372.1511, 32.89909
372.6332, 33.36040
373.1153, 33.46712
373.5974, 32.90650
374.0795, 32.33742
374.5616, 32.03581
375.0438, 31.97960
375.5259, 32.10378
376.0080, 32.40203
376.4901, 32.78658
376.9722, 32.93799
377.4543, 32.66082
377.9365, 32.40744
378.4186, 32.18918
378.9007, 32.03194
379.3828, 32.03424
379.8649, 32.20371
380.3470, 32.33433
380.8292, 32.11202
381.3113, 31.33556
381.7934, 30.80412
382.2755, 30.71765
382.7576, 30.66812
383.2397, 30.34432
383.7219, 29.82441
384.2040, 29.44997
384.6861, 29.51898
385.1682, 29.99179
385.6503, 30.23097
386.1324, 29.98059
386.6146, 29.76857
387.0967, 29.87633
387.5788, 30.00886
388.0609, 29.67636
388.5430, 28.67660
389.0251, 27.44750
389.5073, 26.89378
389.9894, 27.33525
390.4715, 27.81416
390.9536, 28.47230
391.4357, 28.99709
391.9178, 29.14813
392.4000, 28.93319
392.8821, 28.55682
393.3642, 28.16068
393.8463, 27.73763
394.3284, 27.53505
394.8105, 27.74856
395.2927, 27.96702
395.7748, 28.05133
396.2569, 28.04530
396.7390, 28.02325
397.2211, 28.01204
397.7032, 28.02797
398.1854, 28.13662
398.6675, 28.40530
399.1496, 28.56244
399.6317, 28.53533
400.1138, 28.36497
400.5959, 28.02024
401.0781, 27.50262
401.5602, 26.97986
402.0423, 26.59592
402.5244, 26.34563
403.0065, 26.16464
403.4886, 26.03854
403.9708, 26.00111
404.4529, 26.11936
404.9350, 26.34009
405.4171, 26.51353
405.8992, 26.54071
406.3813, 26.50089
406.8635, 26.51297
407.3456, 26.57915
407.8277, 26.68230
408.3098, 26.86190
408.7919, 27.05039
409.2740, 27.12374
409.7562, 27.02766
410.2383, 26.94250
410.7204, 26.97902
411.2025, 27.11293
411.6846, 27.29054
412.1667, 27.52048
412.6489, 27.73133
413.1310, 27.86394
413.6131, 27.92717
414.0952, 27.80333
414.5773, 27.27456
415.0594, 26.68286
415.5416, 26.33018
416.0237, 26.22608
416.5058, 26.27727
416.9879, 26.47924
417.4700, 26.76941
417.9521, 26.80659
418.4343, 26.24923
418.9164, 25.89003
419.3985, 26.11122
419.8806, 26.61207
420.3627, 26.94108
420.8448, 26.95512
421.3270, 26.83561
421.8091, 26.85727
422.2912, 27.11016
422.7733, 27.24255
423.2554, 27.12814
423.7375, 27.01234
424.2197, 27.09101
424.7018, 27.30984
425.1839, 27.44687
425.6660, 27.32367
426.1481, 26.99907
426.6302, 26.87767
427.1124, 27.14344
427.5945, 27.40275
428.0766, 27.67785
428.5587, 27.88903
429.0408, 27.91710
429.5229, 27.74089
430.0051, 27.51915
430.4872, 27.47931
430.9693, 27.65908
431.4514, 27.86246
431.9335, 28.30674
432.4156, 28.56968
432.8978, 28.35236
433.3799, 27.80344
433.8620, 27.29422
434.3441, 27.03412
434.8262, 26.99091
435.3083, 27.09744
435.7905, 27.39507
436.2726, 27.72781
436.7547, 28.07642
437.2368, 28.41749
437.7189, 28.72733
438.2010, 29.00114
438.6832, 29.25213
439.1653, 29.49352
439.6474, 29.72223
440.1295, 29.92742
440.6116, 30.11376
441.0938, 30.26159
441.5759, 30.29799
442.0580, 30.27114
442.5401, 30.34304
443.0222, 30.73460
443.5043, 31.12292
443.9865, 31.05129
444.4686, 30.58783
444.9507, 30.37354
445.4328, 30.78039
445.9149, 31.54929
446.3970, 32.06898
446.8792, 32.23782
447.3613, 32.49395
447.8434, 33.10184
448.3255, 33.79416
448.8076, 34.13531
449.2897, 34.08279
449.7719, 34.14418
450.2540, 34.87080
450.7361, 36.31701
451.2182, 37.24469
451.7003, 37.05113
452.1824, 37.07826
452.6646, 38.04173
453.1467, 39.50954
453.6288, 40.72113
454.1109, 41.34541
454.5930, 41.63100
455.0751, 42.07300
455.5573, 42.73685
456.0394, 43.43948
456.5215, 44.11730
457.0036, 44.87876
457.4857, 45.88435
457.9678, 47.05199
458.4500, 48.10133
458.9321, 48.74703
459.4142, 49.11889
459.8963, 50.04124
460.3784, 51.91529
460.8605, 53.62535
461.3427, 54.90168
461.8248, 55.89649
462.3069, 56.70928
462.7890, 57.36599
463.2711, 57.99106
463.7532, 58.63478
464.2354, 59.31661
464.7175, 60.33295
465.1996, 62.01345
465.6817, 63.55435
466.1638, 64.23024
466.6459, 64.33379
467.1281, 64.58734
467.6102, 65.22493
468.0923, 66.11546
468.5744, 67.31035
469.0565, 68.75394
469.5386, 69.75600
470.0208, 69.94605
470.5029, 69.68080
470.9850, 69.57838
471.4671, 69.67314
471.9492, 69.69907
472.4313, 69.61089
472.9135, 69.40836
473.3956, 69.09740
473.8777, 68.67713
474.3598, 68.12209
474.8419, 67.40324
475.3240, 66.53204
475.8062, 65.63235
476.2883, 64.88790
476.7704, 63.89350
477.2525, 62.23892
477.7346, 60.43619
478.2167, 59.21340
478.6989, 58.71420
479.1810, 58.35344
479.6631, 57.30962
480.1452, 55.37243
480.6273, 53.86540
481.1094, 53.37147
481.5916, 52.71764
482.0737, 51.25981
482.5558, 49.42492
483.0379, 48.01263
483.5200, 47.43832
484.0021, 47.27492
484.4843, 46.64094
484.9664, 45.36633
485.4485, 44.40167
485.9306, 44.25755
486.4127, 44.20347
486.8948, 43.68652
487.3770, 42.77348
487.8591, 41.96598
488.3412, 41.74094
488.8233, 41.75588
489.3054, 41.20115
489.7875, 39.98925
490.2697, 39.07146
490.7518, 39.07780
491.2339, 39.62289
491.7160, 39.88885
492.1981, 39.81798
492.6802, 39.63539
493.1624, 39.32324
493.6445, 38.99825
494.1266, 38.86680
494.6087, 38.95892
495.0908, 39.06951
495.5729, 38.94479
496.0551, 38.60001
496.5372, 38.86367
497.0193, 40.48347
497.5014, 41.74747
497.9835, 41.88411
498.4656, 41.43774
498.9478, 41.15187
499.4299, 41.27950
499.9120, 41.64363
500.3941, 42.00027
500.8762, 42.35139
501.3583, 42.69627
501.8405, 43.00054
502.3226, 43.33251
502.8047, 43.76760
503.2868, 44.24030
503.7689, 44.61139
504.2510, 44.80123
504.7331, 44.91862
505.2152, 45.13096
505.6974, 45.42352
506.1795, 45.92004
506.6616, 46.88301
507.1437, 47.82995
507.6258, 48.40545
508.1079, 48.64577
508.5901, 48.76772
509.0722, 48.90496
509.5543, 48.97153
510.0364, 48.73240
510.5185, 48.19586
511.0006, 47.88013
511.4828, 48.10782
511.9649, 48.63419
512.4470, 48.95972
512.9291, 49.08971
513.4113, 49.06364
513.8934, 49.00018
514.3755, 48.71791
514.8576, 47.87334
515.3397, 46.52620
515.8218, 45.23301
516.3040, 44.41337
516.7861, 43.99785
517.2682, 43.49551
517.7503, 42.98156
518.2324, 42.27827
518.7145, 41.16125
519.1967, 39.96572
519.6788, 39.05254
520.1609, 38.44960
520.6430, 37.85815
521.1251, 36.94020
521.6072, 35.70577
522.0894, 34.68703
522.5715, 33.88130
523.0536, 33.30991
523.5357, 33.18813
524.0178, 33.17678
524.4999, 32.80581
524.9821, 31.91927
525.4642, 31.06516
525.9463, 30.86016
526.4284, 31.14531
526.9105, 31.14691
527.3926, 30.66568
527.8748, 30.18740
528.3569, 30.23290
528.8390, 30.60127
529.3211, 30.58836
529.8032, 29.87290
530.2853, 29.05051
530.7675, 28.37450
531.2496, 27.83387
531.7317, 27.42223
532.2138, 27.13668
532.6959, 26.93108
533.1780, 26.73937
533.6602, 26.53729
534.1423, 26.51155
534.6244, 26.92190
535.1065, 27.19777
535.5886, 27.09069
536.0707, 26.71943
536.5529, 26.21119
537.0350, 25.62910
537.5171, 25.12337
537.9992, 24.94384
538.4813, 25.11976
538.9634, 25.48883
539.4456, 26.43196
539.9277, 27.13007
540.4098, 27.07420
540.8919, 26.52436
541.3740, 26.00891
541.8561, 25.74621
542.3383, 25.57349
542.8204, 25.20861
543.3025, 24.69808
543.7846, 24.53030
544.2667, 24.92272
544.7488, 25.49987
545.2310, 25.91330
545.7131, 26.17135
546.1952, 26.25248
546.6773, 25.97314
547.1594, 25.68202
547.6415, 25.59040
548.1237, 25.66941
548.6058, 25.85384
549.0879, 26.12221
549.5700, 26.40556
550.0521, 26.59997
550.5342, 26.73152
551.0164, 26.67761
551.4985, 26.35709
551.9806, 25.96611
552.4627, 25.51056
552.9448, 25.06022
553.4269, 24.69791
553.9091, 24.45771
554.3912, 24.37613
554.8733, 24.61925
555.3554, 25.28320
555.8375, 25.58540
556.3196, 25.06221
556.8018, 24.57721
557.2839, 24.85130
557.7660, 25.60455
558.2481, 26.03267
558.7302, 25.69546
559.2123, 25.09950
559.6945, 24.68864
560.1766, 24.45014
560.6587, 24.35887
561.1408, 24.43660
561.6229, 24.55739
562.1050, 24.53171
562.5872, 24.31467
563.0693, 24.32681
563.5514, 24.84565
564.0335, 25.32004
564.5156, 25.42562
564.9977, 25.29477
565.4799, 25.19469
565.9620, 25.23092
566.4441, 25.29848
566.9262, 25.19923
567.4083, 24.83917
567.8904, 24.69436
568.3726, 24.92220
568.8547, 25.21518
569.3368, 25.64416
569.8189, 26.02439
570.3010, 25.99473
570.7831, 25.35275
571.2653, 24.63400
571.7474, 24.56359
572.2295, 25.04635
572.7116, 25.27380
573.1937, 25.03731
573.6758, 24.72787
574.1580, 24.69058
574.6401, 24.85541
575.1222, 24.94720
575.6043, 24.93043
576.0864, 24.84710
576.5685, 24.56697
577.0507, 24.27745
577.5328, 24.39819
578.0149, 25.00528
578.4970, 25.61618
578.9791, 25.69721
579.4612, 25.22523
579.9434, 24.80807
580.4255, 24.37171
580.9076, 24.08385
581.3897, 24.05564
581.8718, 24.14801
582.3539, 24.19064
582.8361, 24.15433
583.3182, 24.17384
583.8003, 24.49596
584.2824, 25.04344
584.7645, 25.20567
585.2466, 24.87522
585.7288, 24.45379
586.2108, 23.99847
586.6929, 23.63693
587.1750, 23.56622
587.6572, 23.82951
588.1393, 24.25444
588.6214, 24.93903
589.1035, 25.65122
589.5856, 26.06984
590.0677, 26.17799
590.5499, 26.11500
591.0320, 25.93219
591.5141, 25.70402
591.9962, 25.71390
592.4783, 26.37414
592.9604, 26.68597
593.4426, 26.33998
593.9247, 25.89446
594.4068, 25.71111
594.8889, 25.78701
595.3710, 25.96035
595.8531, 26.14724
596.3353, 26.32322
596.8174, 26.39344
597.2995, 26.31376
597.7816, 26.39221
598.2637, 26.79631
598.7458, 27.27642
599.2280, 27.59465
599.7101, 27.78621
600.1922, 28.04842
600.6743, 28.58939
601.1564, 29.09855
601.6385, 29.18129
602.1207, 29.01069
602.6028, 29.16164
603.0849, 29.84365
603.5670, 30.66480
604.0491, 31.10959
604.5313, 31.10195
605.0134, 31.18566
605.4955, 31.43132
605.9776, 31.67451
606.4597, 31.89650
606.9418, 32.07240
607.4240, 32.11232
607.9061, 32.01258
608.3882, 31.98507
608.8703, 32.37164
609.3524, 33.12312
609.8345, 33.55625
610.3167, 33.56235
610.7988, 33.49837
611.2809, 33.46616
611.7630, 33.50124
612.2451, 33.66980
612.7272, 34.00094
613.2094, 34.35343
613.6915, 34.77750
614.1736, 35.12462
614.6557, 35.10352
615.1378, 34.76225
615.6199, 34.53370
616.1021, 34.69938
616.5842, 35.10669
617.0663, 35.32360
617.5484, 35.29990
618.0305, 35.15699
618.5126, 34.77882
618.9948, 34.40017
619.4769, 34.16756
619.9590, 34.04304
620.4411, 33.91344
620.9232, 33.71728
621.4053, 33.50486
621.8875, 33.38608
622.3696, 33.35811
622.8517, 33.20860
623.3338, 32.84943
623.8159, 32.46423
624.2980, 32.18482
624.7802, 32.00219
625.2623, 31.90284
625.7444, 32.04135
626.2265, 32.06386
626.7086, 31.73382
627.1907, 31.22014
627.6729, 30.77191
628.1550, 30.42719
628.6371, 30.01924
629.1192, 29.34452
629.6013, 28.49320
630.0834, 28.27517
630.5656, 29.32199
631.0477, 29.94780
631.5298, 29.81298
632.0119, 29.30053
632.4940, 28.46342
632.9761, 27.45612
633.4583, 26.79174
633.9404, 26.99353
634.4225, 27.52893
634.9046, 27.47989
635.3867, 26.89698
635.8688, 26.45535
636.3510, 26.39458
636.8331, 26.47912
637.3152, 26.43643
637.7973, 26.25139
638.2794, 26.07221
638.7615, 25.80281
639.2437, 25.64761
639.7258, 25.85530
640.2079, 26.16092
640.6900, 26.08485
641.1721, 25.56151
641.6542, 25.12374
642.1364, 25.46640
642.6185, 26.48807
643.1006, 26.77603
643.5827, 25.97049
644.0648, 25.22415
644.5469, 24.91363
645.0291, 24.86471
645.5112, 25.01374
645.9933, 25.34934
646.4754, 25.59684
646.9575, 25.61132
647.4396, 25.49239
647.9218, 25.26422
648.4039, 24.98136
648.8860, 24.87080
649.3681, 25.03866
649.8502, 25.29637
650.3323, 25.34557
650.8145, 25.11414
651.2966, 25.00598
651.7787, 25.16936
652.2608, 25.27989
652.7429, 25.17306
653.2250, 24.98806
653.7072, 24.88017
654.1893, 24.89425
654.6714, 25.03078
655.1535, 25.45438
655.6356, 26.00010
656.1177, 25.98643
656.5999, 25.30897
657.0820, 24.83606
657.5641, 25.08866
658.0462, 25.66510
658.5283, 25.77455
659.0104, 25.31977
659.4926, 25.00500
659.9747, 24.99830
660.4568, 25.09253
660.9389, 25.27510
661.4210, 25.43642
661.9031, 25.32359
662.3853, 24.84881
662.8674, 24.31612
663.3495, 24.19740
663.8316, 24.52965
664.3137, 24.67079
664.7958, 24.49333
665.2780, 24.35623
665.7601, 24.49012
666.2422, 24.71625
666.7243, 24.84061
667.2064, 24.83976
667.6885, 24.75632
668.1707, 24.54935
668.6528, 24.31060
669.1349, 24.08292
669.6170, 23.90802
670.0991, 23.96442
670.5812, 24.35239
671.0634, 24.86168
671.5455, 25.14746
672.0276, 25.22265
672.5097, 25.01577
672.9918, 23.95371
673.4739, 23.24439
673.9561, 23.52345
674.4382, 24.24969
674.9203, 24.67658
675.4024, 24.61795
675.8845, 24.59016
676.3666, 25.26044
676.8488, 26.18827
677.3309, 26.28958
677.8130, 25.53025
678.2951, 24.81067
678.7772, 24.55794
679.2593, 24.56977
679.7415, 24.48132
680.2236, 24.25631
680.7057, 24.03571
681.1878, 23.65863
681.6699, 23.45578
682.1520, 23.72766
682.6342, 24.21285
683.1163, 24.52308
683.5984, 24.54302
684.0805, 24.42739
684.5626, 24.27664
685.0447, 24.12007
685.5269, 24.16117
686.0090, 24.45463
686.4911, 24.65885
686.9732, 24.62023
687.4553, 24.41721
687.9374, 24.07775
688.4196, 23.53856
688.9017, 23.38622
689.3838, 24.13298
689.8659, 24.86997
690.3480, 24.93283
690.8301, 24.63944
691.3123, 24.62733
691.7944, 25.07906
692.2765, 25.58769
692.7586, 25.70308
693.2407, 25.44053
693.7228, 24.93897
694.2050, 23.96022
694.6871, 23.39048
695.1692, 23.91029
695.6513, 24.71190
696.1334, 24.87962
696.6155, 24.40817
697.0977, 24.02649
697.5798, 24.02011
698.0619, 24.11147
698.5440, 24.09174
699.0261, 24.01657
699.5082, 24.06691
699.9904, 24.27592
700.4725, 24.38774
700.9546, 24.07849
701.4367, 23.39210
701.9188, 23.00521
702.4009, 23.04731
702.8831, 23.13471
703.3652, 23.16193
703.8473, 23.20862
704.3294, 23.37486
704.8115, 23.63489
705.2936, 23.81663
705.7758, 23.79136
706.2579, 23.72032
706.7400, 23.76181
707.2221, 23.85441
707.7042, 23.82826
708.1863, 23.65286
708.6685, 23.52183
709.1506, 23.64438
709.6327, 23.95625
710.1148, 23.93505
710.5969, 23.20851
711.0790, 22.83704
711.5612, 23.31158
712.0433, 23.85236
712.5254, 23.94054
713.0075, 23.66912
713.4896, 23.40749
713.9717, 23.25892
714.4539, 23.23885
714.9360, 23.47486
715.4181, 23.82858
715.9002, 23.97043
716.3823, 23.85373
716.8644, 23.62608
717.3466, 23.36210
717.8287, 23.11702
718.3108, 23.11288
718.7929, 23.59499
719.2750, 23.85018
719.7571, 23.64786
720.2393, 23.43814
720.7214, 23.54588
721.2035, 23.78598
721.6856, 23.75312
722.1677, 23.26931
722.6498, 22.74531
723.1320, 22.48329
723.6141, 22.43850
724.0962, 22.60065
724.5783, 22.94161
725.0604, 23.14819
725.5425, 23.01055
726.0247, 22.76717
726.5068, 22.94625
726.9889, 23.81981
727.4710, 24.28337
727.9531, 24.10535
728.4352, 23.79005
728.9174, 23.33159
729.3995, 22.91087
729.8816, 22.80092
730.3637, 23.04890
730.8458, 23.30961
731.3279, 23.32659
731.8101, 23.21150
732.2922, 23.11935
732.7743, 23.05803
733.2564, 23.05397
733.7385, 23.12317
734.2206, 23.21548
734.7028, 23.28999
735.1849, 23.35979
735.6670, 23.20932
736.1491, 22.39220
736.6312, 21.93598
737.1133, 22.19780
737.5955, 22.74054
738.0776, 23.34010
738.5597, 23.88604
739.0418, 24.09201
739.5239, 23.63601
740.0060, 22.99025
740.4882, 22.63575
740.9703, 22.54145
741.4524, 22.71817
741.9345, 23.16423
742.4166, 23.44856
742.8987, 23.14750
743.3809, 22.43761
743.8630, 22.22690
744.3451, 22.95285
744.8272, 23.38135
745.3093, 23.24426
745.7914, 23.00838
746.2736, 22.89525
746.7557, 22.87425
747.2378, 22.84184
747.7199, 22.75627
748.2020, 22.69782
748.6841, 22.70290
749.1663, 22.78626
749.6484, 23.01381
750.1305, 23.36491
750.6126, 23.70664
751.0947, 23.98178
751.5768, 24.13998
752.0590, 24.06154
752.5411, 23.66482
753.0232, 23.41761
753.5053, 23.37363
753.9874, 23.41388
754.4695, 23.59904
754.9517, 23.78651
755.4338, 23.81697
755.9159, 23.67556
756.3980, 23.47893
756.8801, 23.07375
757.3622, 22.81309
757.8444, 23.22897
758.3265, 24.03260
758.8086, 24.54298
759.2907, 24.58048
759.7728, 24.34870
760.2549, 23.99395
760.7371, 23.57186
761.2192, 23.46948
761.7013, 23.84211
762.1834, 24.11766
762.6655, 24.19780
763.1476, 24.15074
763.6298, 23.95096
764.1119, 23.66865
764.5940, 23.49901
765.0761, 23.52241
765.5582, 23.58088
766.0403, 23.67168
766.5225, 23.70903
767.0046, 23.55550
767.4867, 23.24887
767.9688, 22.91266
768.4509, 22.60266
768.9330, 22.43591
769.4152, 22.71578
769.8973, 23.47339
770.3794, 23.81491
770.8615, 23.52968
771.3436, 23.36604
771.8257, 23.80233
772.3079, 24.42562
772.7900, 24.61608
773.2721, 24.34739
773.7542, 24.03716
774.2363, 23.60040
774.7184, 23.30236
775.2006, 23.30927
775.6827, 23.52007
776.1648, 23.89273
776.6469, 24.35270
777.1290, 24.65206
777.6111, 24.55038
778.0933, 24.22607
778.5754, 24.07952
779.0575, 24.10461
779.5396, 24.14912
780.0217, 24.19258
780.5038, 24.21108
780.9860, 24.14056
781.4681, 24.03883
781.9502, 24.17060
782.4323, 24.86726
782.9144, 25.24286
783.3965, 24.97637
783.8787, 24.66003
784.3608, 24.67523
784.8429, 24.86714
785.3250, 24.91201
785.8071, 24.70722
786.2892, 24.45986
786.7714, 24.33176
787.2535, 24.28679
787.7356, 24.32730
788.2177, 24.41562
788.6998, 24.21013
789.1819, 23.53788
789.6641, 23.00999
790.1462, 23.48550
790.6283, 24.95690
791.1104, 25.61733
791.5925, 24.81723
792.0746, 24.29699
792.5568, 24.65487
793.0389, 25.12249
793.5210, 25.12786
794.0031, 24.78015
794.4852, 24.53848
794.9673, 24.58545
795.4495, 24.67216
795.9316, 24.66395
796.4137, 24.59378
796.8958, 24.48971
797.3779, 24.36370
797.8600, 24.21078
798.3422, 24.02395
798.8243, 23.90539
799.3064, 24.05873
799.7885, 24.49548
800.2706, 24.88551
800.7527, 25.24281
801.2349, 25.50634
801.7170, 25.68524
802.1991, 25.72797
802.6812, 25.45729
803.1633, 24.86841
803.6454, 24.55642
804.1276, 24.80668
804.6097, 25.06153
805.0918, 25.08732
805.5739, 25.03730
806.0560, 25.09524
806.5381, 25.24993
807.0203, 25.35522
807.5024, 25.31974
807.9845, 25.21579
808.4666, 25.03065
808.9487, 24.85321
809.4308, 25.16210
809.9130, 26.02281
810.3951, 26.67567
810.8772, 26.64107
811.3593, 26.24372
811.8414, 26.16121
812.3235, 26.53589
812.8057, 26.68762
813.2878, 26.49820
813.7699, 26.22636
814.2520, 25.86411
814.7341, 25.50396
815.2162, 25.17910
815.6984, 24.91894
816.1805, 24.89392
816.6626, 25.46019
817.1447, 25.98921
817.6268, 25.91308
818.1089, 25.53918
818.5911, 25.33934
819.0732, 25.37406
819.5553, 25.46499
820.0374, 25.49474
820.5195, 25.51735
821.0016, 25.68038
821.4838, 25.99130
821.9659, 26.15899
822.4480, 26.13669
822.9301, 26.06343
823.4122, 26.03764
823.8943, 25.97502
824.3765, 25.64080
824.8586, 24.89180
825.3407, 24.63502
825.8228, 25.38224
826.3049, 26.04233
826.7870, 26.22932
827.2692, 26.15561
827.7513, 25.93997
828.2334, 25.67922
828.7155, 25.63523
829.1976, 26.08162
829.6797, 26.55367
830.1619, 26.47761
830.6440, 26.03517
831.1261, 25.59693
831.6082, 25.23051
832.0903, 25.02779
832.5724, 25.05266
833.0546, 25.20347
833.5367, 25.25538
834.0188, 25.16093
834.5009, 25.33955
834.9830, 26.03509
835.4651, 26.50745
835.9473, 26.35627
836.4294, 25.95189
836.9115, 25.70162
837.3936, 25.59800
837.8757, 25.45358
838.3578, 25.08343
838.8400, 24.86174
839.3221, 25.01090
839.8042, 25.31418
840.2863, 25.60963
840.7684, 25.85294
841.2505, 26.00104
841.7327, 26.02238
842.2148, 26.02501
842.6969, 26.23417
843.1790, 26.51192
843.6611, 26.35921
844.1432, 25.79078
844.6254, 25.44712
845.1075, 25.62643
845.5896, 25.94880
846.0717, 25.87520
846.5538, 25.40269
847.0359, 25.24823
847.5181, 25.60746
848.0002, 25.90299
848.4823, 25.97470
848.9644, 25.99234
849.4465, 26.12027
849.9286, 26.28921
850.4108, 26.27369
850.8929, 25.93703
851.3750, 25.64402
851.8571, 25.46335
852.3392, 25.42911
852.8214, 25.71164
853.3035, 26.12516
853.7856, 26.28060
854.2677, 26.07046
854.7498, 25.79318
855.2319, 25.79672
855.7141, 25.90205
856.1962, 25.56328
856.6783, 24.88143
857.1604, 24.65934
857.6425, 25.12663
858.1246, 25.57452
858.6068, 25.36855
859.0889, 24.73392
859.5710, 24.54717
860.0531, 25.05199
860.5352, 25.35952
861.0173, 25.34164
861.4995, 25.24911
861.9816, 25.19503
862.4637, 25.13231
862.9458, 24.95920
863.4279, 24.65625
863.9100, 24.48853
864.3922, 24.60743
864.8743, 24.78047
865.3564, 24.94655
865.8385, 25.05976
866.3206, 25.07344
866.8027, 24.98370
867.2849, 24.78433
867.7670, 24.43840
868.2491, 24.11671
868.7312, 24.13209
869.2133, 24.33834
869.6954, 24.24561
870.1776, 23.84943
870.6597, 23.62168
871.1418, 23.79091
871.6239, 24.08587
872.1060, 24.10694
872.5881, 23.85745
873.0703, 23.81917
873.5524, 24.01881
874.0345, 24.38904
874.5166, 25.25739
874.9987, 25.90653
875.4808, 25.51329
875.9630, 24.44081
876.4451, 23.77133
876.9272, 23.77005
877.4093, 23.73523
877.8914, 23.41384
878.3735, 23.13550
878.8557, 23.17384
879.3378, 23.35797
879.8199, 23.40711
880.3020, 23.26480
880.7841, 23.07800
881.2662, 22.88934
881.7484, 22.76268
882.2305, 22.89327
882.7126, 23.12342
883.1947, 22.98305
883.6768, 22.45981
884.1589, 22.07660
884.6411, 22.18694
885.1232, 22.52755
885.6053, 22.54222
886.0874, 22.21848
886.5695, 22.08947
887.0516, 22.21825
887.5338, 22.32266
888.0159, 22.27016
888.4980, 22.18936
888.9801, 22.24765
889.4622, 22.44460
889.9443, 22.56981
890.4265, 22.81136
890.9086, 22.71146
891.3907, 21.93026
891.8728, 21.08396
892.3549, 20.38216
892.8370, 19.94246
893.3192, 20.01781
893.8013, 20.72723
894.2834, 21.39178
894.7655, 21.72749
895.2476, 21.83760
895.7297, 21.72385
896.2119, 21.48008
896.6940, 21.22666
897.1761, 21.00131
897.6582, 20.83554
898.1403, 20.77354
898.6224, 20.71221
899.1046, 20.43392
899.5867, 20.00062
900.0688, 19.63001
900.5509, 19.34881
901.0330, 19.36565
901.5151, 19.81316
901.9973, 20.42402
902.4794, 20.82623
902.9615, 21.01978
903.4436, 20.99288
903.9257, 20.63814
904.4078, 20.33529
904.8900, 20.09855
905.3721, 20.02018
905.8542, 20.37026
906.3363, 20.92168
906.8184, 20.93378
907.3005, 20.08022
907.7827, 19.46514
908.2648, 19.34237
908.7469, 19.35331
909.2290, 19.39876
909.7111, 19.43541
910.1932, 19.39756
910.6754, 19.29704
911.1575, 19.25795
911.6396, 19.35630
912.1217, 19.51445
912.6038, 19.74767
913.0859, 19.95596
913.5681, 19.94729
914.0502, 19.77103
914.5323, 19.68414
915.0143, 19.79527
915.4965, 19.86695
915.9786, 19.46357
916.4607, 18.81395
916.9428, 18.88845
917.4249, 19.61469
917.9070, 19.95667
918.3892, 19.63998
918.8713, 19.14878
919.3534, 18.84476
919.8355, 18.69372
920.3176, 18.59453
920.7997, 18.53608
921.2819, 18.57512
921.7640, 18.75087
922.2461, 18.95107
922.7282, 19.16107
923.2103, 19.34917
923.6924, 19.49414
924.1746, 19.59411
924.6567, 19.57163
925.1388, 19.33723
925.6209, 19.10160
926.1030, 18.69549
926.5851, 18.49891
927.0673, 18.99455
927.5494, 19.80840
928.0315, 20.26619
928.5136, 20.20102
928.9957, 19.93742
929.4778, 19.48536
929.9600, 19.06308
930.4421, 18.77262
930.9242, 18.66452
931.4063, 18.89355
931.8884, 19.39477
932.3705, 19.84032
932.8527, 20.03894
933.3348, 20.17884
933.8169, 20.67372
934.2990, 21.26561
934.7811, 21.05903
935.2632, 20.16119
935.7454, 19.61368
936.2275, 19.75976
936.7096, 20.05514
937.1917, 19.95231
937.6738, 19.58932
938.1559, 19.50963
938.6381, 19.74578
939.1202, 20.02768
939.6023, 20.37429
940.0844, 20.61062
940.5665, 20.63648
941.0486, 20.51006
941.5308, 20.26575
942.0129, 19.85911
942.4950, 19.82748
942.9771, 20.62242
943.4592, 21.10883
943.9413, 20.92654
944.4235, 20.59921
944.9056, 20.36046
945.3877, 20.23720
945.8698, 20.30731
946.3519, 20.65450
946.8340, 20.85451
947.3162, 20.78649
947.7983, 20.56023
948.2804, 20.00297
948.7625, 19.47140
949.2446, 19.44710
949.7267, 19.85642
950.2089, 20.19676
950.6910, 20.22961
951.1731, 20.20056
951.6552, 20.42019
952.1373, 20.60219
952.6194, 20.24472
953.1016, 19.56957
953.5837, 19.14331
954.0658, 19.12505
954.5479, 19.33512
955.0300, 19.68848
955.5121, 20.06087
955.9943, 20.20310
956.4764, 20.16376
956.9585, 20.16413
957.4406, 20.21498
957.9227, 20.10450
958.4048, 19.72548
958.8870, 19.25032
959.3691, 18.87036
959.8512, 18.60699
960.3333, 18.71856
960.8154, 19.29167
961.2975, 19.56517
961.7797, 19.33053
962.2618, 19.02797
962.7439, 18.95175
963.2260, 18.98405
963.7081, 18.87058
964.1902, 18.58229
964.6724, 18.28638
965.1545, 17.77484
965.6366, 17.61207
966.1187, 18.33388
966.6008, 19.06147
967.0829, 19.04267
967.5651, 18.49584
968.0472, 18.07567
968.5293, 17.79508
969.0114, 17.70282
969.4935, 17.90855
969.9756, 18.18202
970.4578, 18.54275
970.9399, 18.83507
971.4220, 18.91784
971.9041, 18.77924
972.3862, 18.42772
972.8683, 17.71030
973.3505, 17.13523
973.8326, 16.98416
974.3147, 17.06643
974.7968, 17.39526
975.2789, 17.75951
975.7610, 17.72470
976.2432, 17.27637
976.7253, 16.99142
977.2074, 17.36901
977.6895, 17.85046
978.1716, 17.73854
978.6537, 17.35548
979.1359, 17.21489
979.6180, 17.33951
980.1001, 17.65358
980.5822, 18.10497
981.0643, 18.42720
981.5464, 18.32525
982.0286, 17.93159
982.5107, 17.44946
982.9928, 16.93853
983.4749, 16.73952
983.9570, 16.88116
984.4391, 17.02735
984.9213, 17.00419
985.4034, 16.87754
985.8855, 16.72583
986.3676, 16.55701
986.8497, 16.46275
987.3318, 16.45436
987.8140, 16.34244
988.2961, 16.03047
988.7782, 15.91942
989.2603, 16.34089
989.7424, 17.01005
990.2245, 17.33286
990.7067, 17.26510
991.1888, 17.22174
991.6709, 17.27322
992.1530, 17.15035
992.6351, 16.58732
993.1172, 16.14224
993.5994, 16.37761
994.0815, 17.02541
994.5636, 17.24548
995.0457, 16.84257
995.5278, 16.56246
996.0099, 16.42577
996.4921, 16.38192
996.9742, 16.48071
997.4563, 16.61504
997.9384, 16.76097
998.4205, 16.86891
998.9026, 16.75812
999.3848, 16.28183
999.8669, 15.91153
1000.349, 15.59487
1000.831, 15.57126
1001.313, 16.25074
1001.795, 17.07722
1002.277, 17.48545
1002.760, 17.45432
1003.242, 17.18726
1003.724, 16.58975
1004.206, 16.16894
1004.688, 16.39028
1005.170, 16.64484
1005.652, 16.24286
1006.134, 15.67388
1006.617, 15.90709
1007.099, 16.87918
1007.581, 17.37182
1008.063, 16.53756
1008.545, 15.66020
1009.027, 15.92344
1009.509, 16.58793
1009.991, 16.82536
1010.473, 16.73235
1010.956, 16.63781
1011.438, 16.63093
1011.920, 16.65835
1012.402, 16.72523
1012.884, 16.70727
1013.366, 16.26219
1013.848, 15.71222
1014.330, 15.76359
1014.813, 16.29325
1015.295, 16.73606
1015.777, 16.90657
1016.259, 16.90757
1016.741, 16.79864
1017.223, 16.64134
1017.705, 16.52948
1018.187, 16.46770
1018.669, 16.50159
1019.152, 16.61700
1019.634, 16.69586
1020.116, 16.69423
1020.598, 16.63707
1021.080, 16.54492
1021.562, 16.42521
1022.044, 16.31310
1022.526, 16.20139
1023.008, 15.92308
1023.491, 15.46066
1023.973, 15.41951
1024.455, 16.09887
1024.937, 16.85002
1025.419, 16.88940
1025.901, 16.40308
1026.383, 16.30275
1026.865, 16.63040
1027.348, 16.66375
1027.830, 16.28137
1028.312, 15.89538
1028.794, 15.66067
1029.276, 15.61966
1029.758, 15.88427
1030.240, 16.38132
1030.722, 16.47640
1031.204, 16.04402
1031.687, 15.78038
1032.169, 15.78897
1032.651, 15.87145
1033.133, 15.99388
1033.615, 16.03791
1034.097, 15.80364
1034.579, 15.32158
1035.061, 15.07912
1035.544, 15.15830
1036.026, 15.26091
1036.508, 15.31598
1036.990, 15.49637
1037.472, 16.04460
1037.954, 16.58892
1038.436, 16.60473
1038.918, 16.11123
1039.401, 15.65520
1039.883, 15.12060
1040.365, 14.85013
1040.847, 14.99369
1041.329, 15.23450
1041.811, 15.56153
1042.293, 15.82549
1042.775, 15.72679
1043.257, 15.28349
1043.740, 15.20433
1044.222, 15.85578
1044.704, 16.30444
1045.186, 16.51440
1045.668, 16.50219
1046.150, 16.06552
1046.632, 15.54460
1047.114, 15.36152
1047.596, 15.50772
1048.079, 15.67827
1048.561, 15.81617
1049.043, 16.02340
1049.525, 16.52777
1050.007, 16.85526
1050.489, 16.67946
1050.971, 16.26925
1051.453, 15.89067
1051.936, 15.57603
1052.418, 15.39847
1052.900, 15.55506
1053.382, 15.52796
1053.864, 14.86517
1054.346, 14.39618
1054.828, 14.85378
1055.310, 15.54239
1055.792, 15.57611
1056.275, 14.99420
1056.757, 14.46604
1057.239, 13.96482
1057.721, 13.89149
1058.203, 14.83145
1058.685, 15.68521
1059.167, 15.65798
1059.649, 15.33866
1060.131, 15.55262
1060.614, 16.19088
1061.096, 16.39251
1061.578, 15.74747
1062.060, 15.14747
1062.542, 14.85747
1063.024, 14.74090
1063.506, 14.82991
1063.988, 14.97323
1064.471, 14.97567
1064.953, 14.87484
1065.435, 14.88205
1065.917, 15.08453
1066.399, 15.28909
1066.881, 15.45821
1067.363, 15.56308
1067.845, 15.49523
1068.328, 15.42243
1068.810, 15.64009
1069.292, 16.01274
1069.774, 16.05221
1070.256, 15.56700
1070.738, 15.08297
1071.220, 14.80364
1071.702, 14.61960
1072.184, 14.41294
1072.667, 14.31373
1073.149, 14.56887
1073.631, 15.03457
1074.113, 15.31735
1074.595, 15.30333
1075.077, 15.23714
1075.559, 15.13697
1076.041, 15.12402
1076.523, 15.46363
1077.006, 15.75676
1077.488, 15.46631
1077.970, 14.85452
1078.452, 14.57777
1078.934, 14.79056
1079.416, 15.01739
1079.898, 15.08002
1080.380, 15.06364
1080.862, 15.02840
1081.345, 14.92047
1081.827, 14.58169
1082.309, 14.17643
1082.791, 14.01004
1083.273, 14.13365
1083.755, 14.36311
1084.237, 14.74095
1084.719, 15.03934
1085.202, 15.19373
1085.684, 15.18178
1086.166, 14.81247
1086.648, 14.35402
1087.130, 14.24826
1087.612, 14.51548
1088.094, 14.75400
1088.576, 14.79787
1089.058, 14.82343
1089.541, 14.99022
1090.023, 15.07749
1090.505, 14.85996
1090.987, 14.51228
1091.469, 14.17815
1091.951, 13.93599
1092.433, 14.01946
1092.915, 14.69061
1093.397, 15.12964
1093.880, 14.70629
1094.362, 14.31366
1094.844, 14.60151
1095.326, 15.10395
1095.808, 15.38835
1096.290, 15.39672
1096.772, 15.07539
1097.254, 14.29357
1097.737, 13.78375
1098.219, 14.00828
1098.701, 14.28720
1099.183, 14.28719
1099.665, 14.22906
1100.147, 14.44565
1100.629, 14.73226
1101.111, 14.52353
1101.594, 13.66944
1102.076, 13.11300
1102.558, 13.36860
1103.040, 13.58840
1103.522, 13.32157
1104.004, 13.10072
1104.486, 13.39016
1104.968, 13.93743
1105.450, 14.32161
1105.932, 14.50142
1106.415, 14.64883
1106.897, 14.93036
1107.379, 14.97910
1107.861, 14.47605
1108.343, 14.00839
1108.825, 13.93631
1109.307, 14.02733
1109.789, 13.98330
1110.272, 13.81615
1110.754, 13.72385
1111.236, 13.73854
1111.718, 13.80360
1112.200, 13.96797
1112.682, 14.11292
1113.164, 14.12231
1113.646, 14.16003
1114.129, 14.44269
1114.611, 14.87421
1115.093, 15.13391
1115.575, 15.21346
1116.057, 15.12897
1116.539, 14.66043
1117.021, 14.36451
1117.503, 14.50295
1117.985, 14.66003
1118.468, 14.53897
1118.950, 14.27096
1119.432, 14.08303
1119.914, 13.96916
1120.396, 14.02949
1120.878, 14.47603
1121.360, 14.62035
1121.842, 14.20125
1122.324, 13.79950
1122.807, 13.66411
1123.289, 13.74450
1123.771, 14.06425
1124.253, 14.55196
1124.735, 14.54997
1125.217, 13.79585
1125.699, 13.53460
1126.181, 14.04527
1126.664, 14.33713
1127.146, 14.00974
1127.628, 13.50297
1128.110, 13.18503
1128.592, 13.04068
1129.074, 13.03267
1129.556, 13.16529
1130.038, 13.41723
1130.521, 13.82094
1131.003, 14.12450
1131.485, 14.28219
1131.967, 14.23934
1132.449, 13.92843
1132.931, 13.52358
1133.413, 13.28963
1133.895, 13.22446
1134.377, 13.36280
1134.859, 13.69506
1135.342, 13.88768
1135.824, 13.89796
1136.306, 13.86423
1136.788, 13.84637
1137.270, 13.80944
1137.752, 13.69734
1138.234, 13.58078
1138.716, 13.67841
1139.199, 13.92612
1139.681, 14.04816
1140.163, 14.04066
1140.645, 13.96436
1141.127, 13.85230
1141.609, 13.84381
1142.091, 14.05501
1142.573, 14.27265
1143.056, 14.12750
1143.538, 13.81419
1144.020, 13.69129
1144.502, 13.74222
1144.984, 13.98287
1145.466, 14.33582
1145.948, 14.52673
1146.430, 14.43993
1146.912, 14.20983
1147.395, 13.85632
1147.877, 13.53338
1148.359, 13.41606
1148.841, 13.43781
1149.323, 13.60449
1149.805, 13.79685
1150.287, 13.72584
1150.769, 13.37724
1151.251, 13.13078
1151.734, 13.23626
1152.216, 13.36225
1152.698, 13.22876
1153.180, 13.08947
1153.662, 13.19399
1154.144, 13.39483
1154.626, 13.50215
1155.108, 13.51080
1155.591, 13.46505
1156.073, 13.34432
1156.555, 13.38281
1157.037, 13.94210
1157.519, 14.30514
1158.001, 13.84964
1158.483, 13.41235
1158.965, 13.91089
1159.448, 14.74314
1159.930, 14.70366
1160.412, 13.71688
1160.894, 13.17265
1161.376, 13.55785
1161.858, 13.86214
1162.340, 14.00981
1162.822, 14.05144
1163.304, 13.87008
1163.786, 13.72764
1164.269, 13.96449
1164.751, 14.41658
1165.233, 14.49394
1165.715, 14.07195
1166.197, 13.83494
1166.679, 13.86256
1167.161, 13.85054
1167.643, 13.72829
1168.126, 13.57547
1168.608, 13.41540
1169.090, 13.31296
1169.572, 13.40338
1170.054, 13.63065
1170.536, 13.47246
1171.018, 12.89217
1171.500, 12.89031
1171.983, 13.58167
1172.465, 13.84938
1172.947, 13.28325
1173.429, 12.76525
1173.911, 13.06909
1174.393, 13.72470
1174.875, 13.83307
1175.357, 13.53304
1175.839, 13.27022
1176.322, 13.09514
1176.804, 13.25371
1177.286, 13.71494
1177.768, 14.10485
1178.250, 14.24896
1178.732, 14.11888
1179.214, 13.42559
1179.696, 12.80121
1180.178, 13.41608
1180.661, 14.44242
1181.143, 14.54412
1181.625, 13.98377
1182.107, 13.48110
1182.589, 13.23643
1183.071, 13.28592
1183.553, 13.75576
1184.035, 14.07801
1184.518, 13.66781
1185.000, 13.24329
1185.482, 13.45792
1185.964, 13.80228
1186.446, 13.60312
1186.928, 13.10777
1187.410, 13.02713
1187.892, 13.49215
1188.375, 13.83835
1188.857, 13.82010
1189.339, 13.80406
1189.821, 13.99383
1190.303, 14.05129
1190.785, 13.52620
1191.267, 13.01746
1191.749, 13.32120
1192.231, 14.17114
1192.714, 14.51363
1193.196, 14.18700
1193.678, 13.98777
1194.160, 14.00671
1194.642, 13.87836
1195.124, 13.44094
1195.606, 13.12116
1196.088, 13.19693
1196.570, 13.43208
1197.053, 13.49866
1197.535, 13.43476
1198.017, 13.41960
1198.499, 13.45349
1198.981, 13.55610
1199.463, 13.72476
1199.945, 13.85093
1200.427, 13.90801
1200.910, 14.04447
1201.392, 14.38710
1201.874, 14.64992
1202.356, 14.26776
1202.838, 13.60262
1203.320, 13.49622
1203.802, 13.70380
1204.284, 13.64054
1204.766, 13.33442
1205.249, 13.09817
1205.731, 13.04218
1206.213, 13.18589
1206.695, 13.68360
1207.177, 14.04130
1207.659, 13.66696
1208.141, 13.20616
1208.623, 13.26216
1209.105, 13.54846
1209.588, 13.71781
1210.070, 13.74816
1210.552, 13.68833
1211.034, 13.51991
1211.516, 13.54525
1211.998, 14.12386
1212.480, 14.47992
1212.962, 14.23641
1213.445, 13.94806
1213.927, 13.89038
1214.409, 13.95311
1214.891, 14.08055
1215.373, 14.21960
1215.855, 14.08676
1216.337, 13.51612
1216.819, 13.47239
1217.302, 14.17554
1217.784, 14.53325
1218.266, 14.28356
1218.748, 13.80191
1219.230, 13.23441
1219.712, 12.83405
1220.194, 12.97810
1220.676, 13.46686
1221.158, 13.58432
1221.641, 13.44855
1222.123, 13.83510
1222.605, 14.61931
1223.087, 14.84771
1223.569, 14.38125
1224.051, 13.98724
1224.533, 14.09878
1225.015, 14.31807
1225.497, 14.20858
1225.980, 14.02443
1226.462, 14.10728
1226.944, 14.26367
1227.426, 14.24241
1227.908, 14.08385
1228.390, 13.84700
1228.872, 13.59422
1229.354, 13.59547
1229.837, 14.11131
1230.319, 14.39192
1230.801, 13.89429
1231.283, 13.48558
1231.765, 13.81292
1232.247, 14.09833
1232.729, 13.43419
1233.211, 12.45485
1233.693, 12.37970
1234.176, 13.17243
1234.658, 13.76195
1235.140, 14.13860
1235.622, 14.35235
1236.104, 14.41998
1236.586, 14.21196
1237.068, 13.60009
1237.550, 13.13633
1238.032, 13.24228
1238.515, 13.64217
1238.997, 13.91096
1239.479, 14.06203
1239.961, 14.13999
1240.443, 14.15338
1240.925, 14.13134
1241.407, 14.08309
1241.889, 14.02018
1242.372, 13.95217
1242.854, 13.90797
1243.336, 13.90027
1243.818, 13.95338
1244.300, 14.20161
1244.782, 14.40443
1245.264, 14.20057
1245.746, 13.91661
1246.229, 14.03124
1246.711, 14.34972
1247.193, 14.36136
1247.675, 14.02726
1248.157, 13.89815
1248.639, 14.40398
1249.121, 14.52267
1249.603, 13.42669
1250.085, 12.82739
1250.568, 13.66749
1251.050, 14.65791
1251.532, 15.00916
1252.014, 14.92919
1252.496, 14.73922
1252.978, 14.44584
1253.460, 14.06347
1253.942, 13.54638
1254.424, 13.52579
1254.907, 14.06154
1255.389, 14.40703
1255.871, 14.35774
1256.353, 14.16771
1256.835, 13.98913
1257.317, 13.88320
1257.799, 14.00048
1258.281, 14.16948
1258.764, 13.99393
1259.246, 13.69678
1259.728, 13.73340
1260.210, 13.97602
1260.692, 14.05738
1261.174, 13.92559
1261.656, 13.72965
1262.138, 13.49371
1262.620, 13.38584
1263.103, 13.60980
1263.585, 13.80988
1264.067, 13.91036
1264.549, 13.84280
1265.031, 13.21371
1265.513, 12.62433
1265.995, 13.16297
1266.477, 14.50751
1266.959, 14.89966
1267.442, 13.98319
1267.924, 13.64786
1268.406, 14.08303
1268.888, 14.14510
1269.370, 13.54277
1269.852, 13.21382
1270.334, 13.65775
1270.816, 14.22995
1271.299, 14.23376
1271.781, 13.92982
1272.263, 13.75432
1272.745, 13.73042
1273.227, 14.05863
1273.709, 14.53404
1274.191, 14.63132
1274.673, 14.36888
1275.156, 14.01420
1275.638, 13.68846
1276.120, 13.79034
1276.602, 15.15566
1277.084, 15.91123
1277.566, 14.34188
1278.048, 12.82174
1278.530, 12.84595
1279.012, 13.54767
1279.495, 14.39118
1279.977, 15.07415
1280.459, 14.87372
1280.941, 13.76116
1281.423, 13.44158
1281.905, 14.26998
1282.387, 14.48636
1282.869, 13.80558
1283.351, 13.60883
1283.834, 14.37011
1284.316, 14.93937
1284.798, 14.50036
1285.280, 13.76391
1285.762, 13.58785
1286.244, 13.97950
##END=



