##NAMES=Braunite
##RRUFFID=R050385
##IDEAL CHEMISTRY=Mn^2+^Mn^3+^_6_SiO_12_
##LOCALITY=Jhabua District, Madhya Pradesh, India
##OWNER=RRUFF
##SOURCE=University of Arizona Mineral Museum
##DESCRIPTION=Black prismatic crystals
##STATUS=The identification of this mineral has been confirmed by X-ray diffraction and chemical analysis
##URL=rruff.info/R050385
##MEASURED CHEMISTRY=(Fe^2+^_0.61_Mn^2+^_0.39_)_Σ=1_(Mn^3+^_5.94_Al_0.06_)_Σ=6_Si_1.00_O_12_
93.48767, 430.9674
93.96979, 426.7722
94.45190, 423.6786
94.93402, 422.1033
95.41614, 415.0321
95.89825, 402.7524
96.38037, 388.0675
96.86249, 372.1407
97.34460, 358.9556
97.82672, 349.8738
98.30884, 341.8179
98.79095, 334.5737
99.27307, 327.4982
99.75519, 320.1694
100.2373, 313.5676
100.7194, 307.5982
101.2015, 300.7961
101.6837, 293.0827
102.1658, 284.5853
102.6479, 274.4240
103.1300, 262.2217
103.6121, 251.5721
104.0942, 245.5426
104.5764, 242.7389
105.0585, 242.0108
105.5406, 245.1768
106.0227, 250.2780
106.5048, 250.8265
106.9869, 243.4338
107.4691, 235.9132
107.9512, 232.4666
108.4333, 232.0009
108.9154, 231.6713
109.3975, 228.7608
109.8796, 222.6336
110.3617, 218.0377
110.8439, 215.5828
111.3260, 214.0587
111.8081, 213.1945
112.2902, 212.8536
112.7723, 212.9152
113.2544, 213.3294
113.7366, 215.0990
114.2187, 215.1560
114.7008, 213.4184
115.1829, 210.2099
115.6650, 205.2957
116.1471, 198.5487
116.6293, 191.1050
117.1114, 185.7210
117.5935, 182.7940
118.0756, 180.7157
118.5577, 179.1681
119.0398, 178.1987
119.5220, 178.0635
120.0041, 179.2922
120.4862, 181.0715
120.9683, 181.5824
121.4504, 180.2473
121.9325, 178.6465
122.4147, 178.1380
122.8968, 178.8152
123.3789, 179.4313
123.8610, 179.0960
124.3431, 178.4591
124.8252, 178.1834
125.3074, 178.6180
125.7895, 179.3444
126.2716, 179.5182
126.7537, 179.0746
127.2358, 178.0957
127.7179, 176.2462
128.2001, 174.0664
128.6822, 172.3185
129.1643, 171.6039
129.6464, 171.7821
130.1285, 171.0835
130.6106, 168.9360
131.0928, 166.3684
131.5749, 163.2312
132.0570, 159.8246
132.5391, 156.6642
133.0212, 154.2401
133.5033, 152.6539
133.9855, 151.1692
134.4676, 149.6274
134.9497, 148.2842
135.4318, 147.6487
135.9139, 147.6261
136.3960, 147.2390
136.8782, 145.1972
137.3603, 141.0466
137.8424, 137.5689
138.3245, 135.4885
138.8066, 133.9462
139.2887, 131.8500
139.7709, 128.8569
140.2530, 125.7655
140.7351, 123.6713
141.2172, 122.4727
141.6993, 121.3870
142.1814, 120.0059
142.6636, 118.4609
143.1457, 117.2968
143.6278, 117.0144
144.1099, 116.7088
144.5920, 115.4359
145.0741, 113.2172
145.5563, 111.0740
146.0384, 109.9028
146.5205, 109.7810
147.0026, 109.9803
147.4847, 111.2395
147.9668, 112.2260
148.4490, 112.0293
148.9311, 110.5043
149.4132, 108.3595
149.8953, 106.6360
150.3774, 105.4779
150.8595, 104.4770
151.3417, 103.4045
151.8238, 102.5402
152.3059, 102.2687
152.7880, 102.7053
153.2701, 103.4619
153.7522, 103.5519
154.2344, 102.3167
154.7165, 101.0792
155.1986, 99.70547
155.6807, 98.39709
156.1628, 97.43705
156.6449, 96.98921
157.1271, 96.92300
157.6092, 96.71663
158.0913, 96.51694
158.5734, 96.05863
159.0555, 94.99776
159.5376, 93.57711
160.0198, 92.42734
160.5019, 91.90388
160.9840, 91.94662
161.4661, 92.15614
161.9482, 92.81119
162.4303, 93.34278
162.9125, 93.30058
163.3946, 92.70525
163.8767, 92.01353
164.3588, 91.44594
164.8409, 90.96919
165.3230, 90.49366
165.8052, 89.85837
166.2873, 89.35612
166.7694, 89.64691
167.2515, 91.14406
167.7336, 91.99515
168.2157, 90.47739
168.6979, 88.04813
169.1800, 86.47483
169.6621, 86.81364
170.1442, 88.26516
170.6263, 88.51755
171.1084, 86.82356
171.5906, 85.03925
172.0727, 83.48301
172.5548, 82.27415
173.0369, 81.60702
173.5190, 81.67751
174.0011, 82.38358
174.4833, 82.86604
174.9654, 83.08134
175.4475, 83.07648
175.9296, 82.70072
176.4117, 82.11243
176.8938, 81.57561
177.3760, 81.29246
177.8581, 81.26994
178.3402, 81.23415
178.8223, 81.17582
179.3044, 81.11542
179.7865, 81.07534
180.2687, 81.04335
180.7508, 80.99529
181.2329, 80.92586
181.7150, 80.83955
182.1971, 80.55199
182.6792, 79.72633
183.1614, 79.00466
183.6435, 78.78571
184.1256, 79.07246
184.6077, 79.59666
185.0898, 80.20409
185.5719, 80.88663
186.0540, 81.27934
186.5362, 81.28294
187.0183, 81.04318
187.5004, 80.61236
187.9825, 79.98177
188.4646, 79.37392
188.9467, 78.92387
189.4289, 78.64689
189.9110, 78.67078
190.3931, 79.24080
190.8752, 80.06594
191.3573, 80.71159
191.8394, 81.12929
192.3216, 81.41316
192.8037, 81.64314
193.2858, 81.80711
193.7679, 81.85099
194.2500, 81.58573
194.7321, 81.16393
195.2143, 81.16725
195.6964, 82.04643
196.1785, 82.64183
196.6606, 81.88537
197.1427, 80.38178
197.6248, 79.49981
198.1070, 80.56258
198.5891, 83.28856
199.0712, 84.77306
199.5533, 83.98466
200.0354, 82.98299
200.5175, 82.37372
200.9997, 82.17003
201.4818, 82.29865
201.9639, 82.77699
202.4460, 83.61831
202.9281, 84.27188
203.4102, 84.59165
203.8924, 84.83685
204.3745, 85.09003
204.8566, 85.33345
205.3387, 85.49208
205.8208, 85.48930
206.3029, 85.30275
206.7851, 85.16414
207.2672, 84.90309
207.7493, 84.83672
208.2314, 85.30394
208.7135, 86.14221
209.1956, 86.82584
209.6778, 86.82813
210.1599, 86.00249
210.6420, 85.65737
211.1241, 85.96115
211.6062, 86.49023
212.0883, 87.05587
212.5705, 87.64159
213.0526, 88.34226
213.5347, 89.31248
214.0168, 90.60579
214.4989, 91.36948
214.9810, 91.38309
215.4632, 91.09596
215.9453, 90.63464
216.4274, 90.06010
216.9095, 89.67500
217.3916, 89.78698
217.8737, 90.42260
218.3559, 90.97611
218.8380, 91.48660
219.3201, 91.88598
219.8022, 92.01073
220.2843, 91.84999
220.7664, 91.80486
221.2486, 92.33266
221.7307, 93.28050
222.2128, 93.95979
222.6949, 93.97324
223.1770, 93.82970
223.6591, 94.20469
224.1413, 95.20115
224.6234, 96.11752
225.1055, 96.22382
225.5876, 95.89919
226.0697, 95.83588
226.5518, 96.40087
227.0340, 97.22657
227.5161, 97.78326
227.9982, 98.03461
228.4803, 98.13604
228.9624, 98.15435
229.4445, 98.08738
229.9267, 97.88003
230.4088, 97.36775
230.8909, 96.82442
231.3730, 96.85088
231.8551, 97.68254
232.3372, 98.49422
232.8194, 98.93053
233.3015, 99.16461
233.7836, 99.36185
234.2657, 99.55151
234.7478, 99.80490
235.2299, 100.3284
235.7121, 101.3249
236.1942, 102.1866
236.6763, 102.9644
237.1584, 103.4587
237.6405, 103.3486
238.1227, 102.4278
238.6048, 101.0779
239.0869, 100.2510
239.5690, 100.0378
240.0511, 100.2605
240.5332, 101.2726
241.0154, 102.4550
241.4975, 103.1776
241.9796, 103.1700
242.4617, 102.6494
242.9438, 102.1236
243.4259, 101.4337
243.9081, 101.0149
244.3902, 101.0336
244.8723, 101.2551
245.3544, 101.5102
245.8365, 101.7272
246.3186, 101.8578
246.8007, 101.7958
247.2829, 101.5276
247.7650, 101.0426
248.2471, 100.0735
248.7292, 99.03944
249.2113, 98.40859
249.6934, 98.32033
250.1756, 98.44019
250.6577, 98.10014
251.1398, 96.75683
251.6219, 95.72704
252.1040, 94.96204
252.5861, 94.52309
253.0683, 94.71101
253.5504, 95.54869
254.0325, 96.42091
254.5146, 96.29151
254.9967, 94.41985
255.4788, 92.82859
255.9610, 91.35333
256.4431, 90.24979
256.9252, 89.94413
257.4073, 90.48566
257.8894, 91.23379
258.3716, 91.31319
258.8537, 90.37331
259.3358, 89.61195
259.8179, 89.24532
260.3000, 88.92577
260.7821, 88.22146
261.2643, 87.08717
261.7464, 86.04463
262.2285, 85.71989
262.7106, 86.32909
263.1927, 86.66254
263.6748, 86.58450
264.1570, 86.29817
264.6391, 85.94751
265.1212, 85.55348
265.6033, 85.09184
266.0854, 84.48050
266.5675, 83.72336
267.0497, 83.26826
267.5318, 83.35492
268.0139, 83.58921
268.4960, 83.51834
268.9781, 83.15354
269.4602, 83.14787
269.9424, 84.24976
270.4245, 86.22578
270.9066, 87.34845
271.3887, 87.13167
271.8708, 86.38910
272.3529, 85.53738
272.8351, 84.61473
273.3172, 83.92376
273.7993, 83.67848
274.2814, 83.82587
274.7635, 84.06276
275.2456, 84.47266
275.7278, 84.87199
276.2099, 85.06877
276.6920, 85.09698
277.1741, 85.24678
277.6562, 85.70554
278.1383, 86.34528
278.6204, 86.88735
279.1025, 87.34636
279.5847, 87.68784
280.0668, 87.83846
280.5489, 87.82832
281.0310, 87.81237
281.5131, 87.76625
281.9952, 87.83305
282.4774, 88.25711
282.9595, 89.12025
283.4416, 89.85557
283.9237, 90.04378
284.4058, 89.79690
284.8879, 89.57715
285.3701, 89.47960
285.8522, 89.46753
286.3343, 89.48223
286.8164, 89.52352
287.2985, 89.63843
287.7806, 89.86619
288.2628, 90.18977
288.7449, 90.56187
289.2270, 91.00578
289.7091, 91.44566
290.1912, 91.84297
290.6733, 92.19427
291.1555, 92.48506
291.6376, 92.77995
292.1197, 93.00198
292.6018, 92.96517
293.0839, 92.63956
293.5660, 92.09277
294.0482, 91.21474
294.5303, 90.17210
295.0124, 89.25186
295.4945, 88.52621
295.9766, 88.01694
296.4587, 87.92424
296.9409, 88.47578
297.4230, 88.65619
297.9051, 87.60046
298.3872, 85.96691
298.8693, 84.47791
299.3514, 83.35677
299.8336, 82.42297
300.3157, 81.37096
300.7978, 80.12886
301.2799, 79.17854
301.7620, 79.18877
302.2441, 79.32092
302.7263, 78.73338
303.2084, 77.18839
303.6905, 75.43385
304.1726, 74.14768
304.6547, 73.33983
305.1368, 72.86671
305.6190, 72.97469
306.1011, 73.19392
306.5832, 73.21386
307.0653, 73.00827
307.5474, 72.60555
308.0295, 71.83527
308.5117, 70.75979
308.9938, 70.15289
309.4759, 70.36468
309.9580, 70.80038
310.4401, 71.15013
310.9222, 71.38860
311.4044, 71.45040
311.8865, 70.98903
312.3686, 70.24272
312.8507, 70.38727
313.3328, 72.04645
313.8149, 73.54482
314.2971, 73.93374
314.7792, 73.56615
315.2613, 73.05223
315.7434, 72.57092
316.2255, 72.17651
316.7076, 72.00227
317.1898, 72.09651
317.6719, 72.27761
318.1540, 72.50299
318.6361, 72.75468
319.1182, 72.99801
319.6003, 73.20082
320.0825, 73.45729
320.5646, 73.99564
321.0467, 74.90308
321.5288, 75.53255
322.0109, 75.45151
322.4930, 75.13584
322.9752, 74.86575
323.4573, 74.67993
323.9394, 74.69996
324.4215, 75.24916
324.9036, 76.30568
325.3857, 76.85674
325.8679, 76.41045
326.3500, 75.69792
326.8321, 75.24069
327.3142, 75.01668
327.7963, 74.79455
328.2784, 74.27029
328.7606, 73.57365
329.2427, 73.37620
329.7248, 73.92827
330.2069, 74.62415
330.6890, 75.24862
331.1711, 75.73380
331.6533, 75.90536
332.1354, 75.53266
332.6175, 74.87447
333.0996, 74.45445
333.5817, 74.31641
334.0638, 74.27077
334.5460, 74.52269
335.0281, 74.71083
335.5102, 74.26447
335.9923, 72.76958
336.4744, 71.21519
336.9565, 71.05348
337.4387, 72.40418
337.9208, 73.08802
338.4029, 71.81187
338.8850, 69.95100
339.3671, 68.86022
339.8492, 68.67506
340.3314, 68.74004
340.8135, 68.56404
341.2956, 68.20132
341.7777, 68.01398
342.2598, 68.13362
342.7419, 68.35230
343.2241, 68.55125
343.7062, 68.71349
344.1883, 68.72664
344.6704, 68.39212
345.1525, 67.89429
345.6346, 67.67400
346.1168, 67.83217
346.5989, 68.01384
347.0810, 67.99191
347.5631, 67.81431
348.0452, 67.52443
348.5273, 67.03275
349.0095, 66.52376
349.4916, 66.26112
349.9737, 66.25323
350.4558, 66.12901
350.9379, 65.47679
351.4200, 64.76653
351.9022, 64.79701
352.3843, 65.85732
352.8664, 66.95313
353.3485, 67.37086
353.8306, 67.25898
354.3127, 67.25728
354.7949, 67.67827
355.2770, 68.03111
355.7591, 67.43732
356.2412, 65.90636
356.7233, 64.92868
357.2054, 65.52432
357.6876, 66.84964
358.1697, 67.50303
358.6518, 67.23619
359.1339, 66.81239
359.6160, 66.96794
360.0981, 67.56741
360.5803, 67.86362
361.0624, 67.37434
361.5445, 66.84527
362.0266, 66.85950
362.5087, 67.39769
362.9908, 68.29266
363.4730, 69.69198
363.9551, 71.22966
364.4372, 71.82811
364.9193, 70.99510
365.4014, 70.13391
365.8835, 69.85752
366.3657, 69.95596
366.8478, 69.99635
367.3299, 69.82548
367.8120, 69.59757
368.2941, 69.57233
368.7762, 69.79884
369.2584, 69.99119
369.7405, 70.09771
370.2226, 70.16009
370.7047, 70.21117
371.1868, 70.25739
371.6689, 70.29765
372.1511, 70.32104
372.6332, 70.32760
373.1153, 70.41373
373.5974, 70.80092
374.0795, 71.04648
374.5616, 70.83364
375.0438, 70.30135
375.5259, 69.80325
376.0080, 69.53096
376.4901, 69.43855
376.9722, 69.37199
377.4543, 69.41151
377.9365, 69.37340
378.4186, 69.08815
378.9007, 68.78334
379.3828, 68.84080
379.8649, 69.32844
380.3470, 69.78405
380.8292, 69.53373
381.3113, 68.27512
381.7934, 67.16578
382.2755, 65.97626
382.7576, 65.10539
383.2397, 64.98940
383.7219, 65.44781
384.2040, 65.88171
384.6861, 65.80377
385.1682, 65.25532
385.6503, 64.89109
386.1324, 65.11152
386.6146, 65.07293
387.0967, 64.34975
387.5788, 63.37964
388.0609, 62.70756
388.5430, 62.56814
389.0251, 62.80032
389.5073, 63.13801
389.9894, 63.81684
390.4715, 64.08144
390.9536, 63.64861
391.4357, 63.04232
391.9178, 62.59129
392.4000, 62.31997
392.8821, 62.03387
393.3642, 61.44521
393.8463, 60.52849
394.3284, 60.18552
394.8105, 60.99675
395.2927, 61.73271
395.7748, 62.00698
396.2569, 61.92112
396.7390, 61.64817
397.2211, 61.23895
397.7032, 60.76713
398.1854, 60.44065
398.6675, 60.36366
399.1496, 60.11060
399.6317, 59.01449
400.1138, 58.03088
400.5959, 58.10146
401.0780, 59.36097
401.5602, 60.73957
402.0423, 61.31510
402.5244, 61.12881
403.0065, 60.54087
403.4886, 59.17867
403.9707, 58.03649
404.4529, 57.98167
404.9350, 58.69036
405.4171, 59.25986
405.8992, 59.24422
406.3813, 58.89761
406.8634, 58.59306
407.3456, 58.33303
407.8277, 58.09331
408.3098, 57.91447
408.7919, 57.71648
409.2740, 57.32304
409.7561, 56.58475
410.2383, 56.01707
410.7204, 56.15593
411.2025, 56.72588
411.6846, 56.85275
412.1667, 56.21333
412.6488, 55.37611
413.1310, 55.03937
413.6131, 55.17788
414.0952, 55.40365
414.5773, 55.62109
415.0594, 55.91795
415.5415, 56.45649
416.0237, 57.20406
416.5058, 57.89509
416.9879, 58.41115
417.4700, 58.70595
417.9521, 58.53878
418.4342, 57.21727
418.9164, 56.33775
419.3985, 56.68566
419.8806, 57.63487
420.3627, 58.25905
420.8448, 58.26362
421.3269, 57.98533
421.8091, 57.92861
422.2912, 58.23304
422.7733, 58.35524
423.2554, 58.23674
423.7375, 58.00414
424.2196, 57.62901
424.7018, 57.19105
425.1839, 56.91304
425.6660, 56.98915
426.1481, 57.33161
426.6302, 57.32035
427.1123, 56.22345
427.5945, 55.68980
428.0766, 56.41266
428.5587, 57.53316
429.0408, 58.14962
429.5229, 58.00550
430.0050, 57.56170
430.4872, 57.45189
430.9693, 57.74179
431.4514, 58.09048
431.9335, 58.63480
432.4156, 59.11079
432.8977, 59.45869
433.3799, 59.65262
433.8620, 59.61436
434.3441, 59.14475
434.8262, 58.52951
435.3083, 58.76022
435.7904, 60.28733
436.2726, 61.40593
436.7547, 60.93930
437.2368, 60.08961
437.7189, 59.95107
438.2010, 60.75545
438.6831, 61.81825
439.1653, 62.58137
439.6474, 63.10069
440.1295, 63.76818
440.6116, 64.85593
441.0937, 65.67590
441.5758, 65.18905
442.0580, 63.87361
442.5401, 63.25341
443.0222, 64.38538
443.5043, 65.96404
443.9864, 66.53242
444.4685, 66.21215
444.9507, 66.21843
445.4328, 67.24905
445.9149, 68.82250
446.3970, 69.80669
446.8791, 70.03317
447.3612, 70.28181
447.8434, 70.72169
448.3255, 71.31773
448.8076, 72.04391
449.2897, 72.89433
449.7718, 73.82244
450.2539, 74.76830
450.7361, 75.73006
451.2182, 76.92005
451.7003, 78.87453
452.1824, 80.44160
452.6645, 80.71632
453.1466, 80.43023
453.6288, 80.92336
454.1109, 82.78746
454.5930, 85.28510
455.0751, 86.92054
455.5572, 87.02867
456.0393, 87.55935
456.5215, 88.59536
457.0036, 89.90540
457.4857, 91.60069
457.9678, 93.48671
458.4499, 95.04121
458.9320, 95.73824
459.4142, 95.81108
459.8963, 96.73824
460.3784, 99.23723
460.8605, 101.3036
461.3426, 102.2468
461.8247, 102.6655
462.3069, 102.9649
462.7890, 103.2500
463.2711, 103.9199
463.7532, 105.6623
464.2353, 108.3814
464.7174, 110.5626
465.1996, 111.9380
465.6817, 112.8903
466.1638, 113.7037
466.6459, 114.3420
467.1280, 114.6636
467.6101, 114.3063
468.0923, 113.8944
468.5744, 114.1958
469.0565, 115.1451
469.5386, 116.1131
470.0207, 116.9844
470.5028, 117.5781
470.9850, 117.4325
471.4671, 116.4131
471.9492, 115.5950
472.4313, 115.6013
472.9134, 115.7339
473.3955, 115.0418
473.8777, 113.5442
474.3598, 112.2902
474.8419, 112.2406
475.3240, 113.1697
475.8061, 112.8115
476.2882, 109.9661
476.7704, 107.4952
477.2525, 106.2224
477.7346, 105.5228
478.2167, 104.7030
478.6988, 103.5508
479.1809, 102.2131
479.6631, 100.8234
480.1452, 99.33805
480.6273, 98.07229
481.1094, 97.21414
481.5915, 96.39029
482.0736, 95.54946
482.5558, 94.64602
483.0379, 93.59120
483.5200, 92.31646
484.0021, 90.97519
484.4842, 89.81224
484.9663, 88.79155
485.4485, 88.10367
485.9306, 88.07179
486.4127, 88.15312
486.8948, 88.06593
487.3769, 87.78554
487.8590, 87.30132
488.3412, 86.36947
488.8233, 85.30386
489.3054, 84.80039
489.7875, 84.92248
490.2696, 85.05178
490.7517, 84.89118
491.2339, 84.52953
491.7160, 84.10613
492.1981, 83.48016
492.6802, 83.20921
493.1623, 83.85326
493.6444, 84.88123
494.1266, 85.38474
494.6087, 85.22795
495.0908, 85.15690
495.5729, 85.93413
496.0550, 87.53887
496.5371, 88.45400
497.0193, 88.03146
497.5014, 87.78184
497.9835, 88.11546
498.4656, 88.91963
498.9477, 90.16446
499.4298, 91.79806
499.9120, 93.42904
500.3941, 94.45708
500.8762, 94.73508
501.3583, 95.01688
501.8404, 95.19534
502.3225, 95.48604
502.8047, 96.07510
503.2868, 96.81709
503.7689, 97.40688
504.2510, 97.66856
504.7331, 97.83900
505.2152, 98.42892
505.6974, 99.54415
506.1795, 100.4385
506.6616, 100.9757
507.1437, 101.2054
507.6258, 101.0033
508.1079, 100.4756
508.5901, 100.1696
509.0722, 100.7084
509.5543, 101.4443
510.0364, 101.2465
510.5185, 100.1282
511.0006, 99.26513
511.4828, 99.33853
511.9649, 99.88264
512.4470, 99.95079
512.9291, 99.55701
513.4112, 98.78606
513.8933, 97.42542
514.3754, 95.83945
514.8575, 94.34866
515.3397, 93.00471
515.8218, 91.82140
516.3039, 90.80373
516.7860, 89.94778
517.2681, 89.24054
517.7502, 89.40914
518.2324, 88.79678
518.7145, 86.53731
519.1966, 83.85164
519.6787, 81.88049
520.1608, 80.80645
520.6429, 80.08029
521.1251, 79.23338
521.6072, 78.25565
522.0893, 76.94243
522.5714, 74.88850
523.0535, 73.14829
523.5356, 72.13385
524.0178, 71.55755
524.4999, 71.16428
524.9820, 70.91074
525.4641, 70.60304
525.9462, 69.96904
526.4283, 69.10658
526.9105, 68.54903
527.3926, 68.55724
527.8747, 68.30531
528.3568, 66.78348
528.8389, 64.43992
529.3210, 62.82196
529.8032, 62.50457
530.2853, 62.46646
530.7674, 62.23156
531.2495, 61.87374
531.7316, 61.56055
532.2137, 61.34090
532.6959, 61.08369
533.1780, 60.61951
533.6601, 59.90942
534.1422, 59.22318
534.6243, 58.50219
535.1064, 57.85857
535.5886, 57.35757
536.0707, 56.95602
536.5528, 56.54425
537.0349, 56.08693
537.5170, 55.73914
537.9991, 55.85518
538.4813, 56.59728
538.9634, 56.96108
539.4455, 56.66476
539.9276, 56.23254
540.4097, 55.85402
540.8918, 55.52795
541.3740, 55.22842
541.8561, 54.93514
542.3382, 54.68655
542.8203, 54.46215
543.3024, 54.28693
543.7845, 54.49327
544.2667, 55.37288
544.7488, 56.24267
545.2309, 56.24037
545.7130, 55.46658
546.1951, 54.73394
546.6772, 53.92519
547.1594, 53.41581
547.6415, 53.70350
548.1236, 54.48107
548.6057, 54.88970
549.0878, 54.56188
549.5699, 54.08947
550.0521, 54.49830
550.5342, 56.20870
551.0163, 57.51993
551.4984, 58.52369
551.9805, 59.09816
552.4626, 58.85783
552.9448, 58.21144
553.4269, 57.88621
553.9090, 58.23347
554.3911, 58.98179
554.8732, 59.72687
555.3553, 60.49792
555.8375, 61.07809
556.3196, 61.38253
556.8017, 61.54266
557.2838, 61.63985
557.7659, 61.67516
558.2480, 61.65010
558.7302, 61.58216
559.2123, 61.43380
559.6944, 61.09404
560.1765, 60.61962
560.6586, 60.27563
561.1407, 60.15430
561.6229, 60.14898
562.1050, 60.12138
562.5871, 60.05769
563.0692, 60.11250
563.5513, 60.59668
564.0334, 60.88824
564.5156, 60.49087
564.9977, 59.71225
565.4798, 59.11808
565.9619, 58.93473
566.4440, 58.97081
566.9261, 58.93469
567.4083, 58.81351
567.8904, 58.67006
568.3725, 58.34845
568.8546, 58.17283
569.3367, 58.34299
569.8188, 58.71171
570.3010, 59.07559
570.7831, 59.39063
571.2652, 59.53505
571.7473, 59.23375
572.2294, 58.56401
572.7115, 58.14837
573.1937, 58.10735
573.6758, 58.29387
574.1579, 58.87578
574.6400, 59.62944
575.1221, 59.65789
575.6042, 58.11417
576.0864, 56.69628
576.5685, 56.29134
577.0506, 56.55619
577.5327, 57.03217
578.0148, 57.57872
578.4969, 58.04508
578.9791, 58.27011
579.4612, 58.24928
579.9433, 58.10366
580.4254, 57.83561
580.9075, 57.43216
581.3896, 56.63229
581.8718, 55.82637
582.3539, 55.48336
582.8360, 55.68293
583.3181, 56.06073
583.8002, 56.27654
584.2823, 56.35276
584.7645, 56.44205
585.2466, 56.52949
585.7287, 56.68044
586.2108, 57.04762
586.6929, 57.43946
587.1750, 57.53945
587.6572, 57.25180
588.1393, 56.99606
588.6214, 56.89561
589.1035, 56.97015
589.5856, 57.37674
590.0677, 58.06784
590.5499, 58.60238
591.0320, 58.69456
591.5141, 58.42013
591.9962, 58.05240
592.4783, 57.31647
592.9604, 56.88987
593.4426, 56.96821
593.9247, 57.19752
594.4068, 57.38884
594.8889, 57.50863
595.3710, 57.55940
595.8531, 57.52284
596.3353, 57.45861
596.8174, 57.43134
597.2995, 57.37246
597.7816, 57.80931
598.2637, 59.36470
598.7458, 60.90275
599.2280, 61.22845
599.7101, 60.59854
600.1922, 60.42583
600.6743, 61.88731
601.1564, 63.34636
601.6385, 63.07578
602.1207, 61.65334
602.6028, 60.89061
603.0849, 61.42299
603.5670, 62.39894
604.0491, 62.70632
604.5313, 62.18980
605.0134, 61.96843
605.4955, 62.00909
605.9776, 62.33778
606.4597, 63.29391
606.9418, 64.40096
607.4240, 64.98576
607.9061, 64.88401
608.3882, 64.59197
608.8703, 64.74774
609.3524, 65.29453
609.8345, 65.39623
610.3167, 64.83146
610.7988, 64.34862
611.2809, 64.31897
611.7630, 64.59468
612.2451, 65.02437
612.7272, 65.63982
613.2094, 66.20429
613.6915, 66.68768
614.1736, 67.01852
614.6557, 67.10478
615.1378, 66.94486
615.6199, 66.51903
616.1021, 65.75854
616.5842, 64.87373
617.0663, 64.49665
617.5484, 65.19314
618.0305, 65.43095
618.5126, 64.72558
618.9948, 64.05372
619.4769, 64.22925
619.9590, 64.87370
620.4411, 64.95806
620.9232, 63.85894
621.4053, 62.38784
621.8875, 61.92333
622.3696, 62.44595
622.8517, 62.76861
623.3338, 62.69473
623.8159, 62.37937
624.2980, 61.75823
624.7802, 60.97982
625.2623, 60.55858
625.7444, 60.81651
626.2265, 61.10326
626.7086, 61.28458
627.1907, 61.24437
627.6729, 60.62203
628.1550, 59.44713
628.6371, 58.43659
629.1192, 58.26789
629.6013, 58.81194
630.0834, 59.00627
630.5656, 58.63857
631.0477, 58.26445
631.5298, 57.78179
632.0119, 57.46340
632.4940, 57.76670
632.9761, 58.51796
633.4583, 58.81578
633.9404, 57.73989
634.4225, 56.22780
634.9046, 55.94204
635.3867, 56.77801
635.8688, 57.36344
636.3510, 57.22100
636.8331, 56.79729
637.3152, 56.61859
637.7973, 56.71571
638.2794, 56.73225
638.7615, 56.59913
639.2437, 56.45728
639.7258, 56.44335
640.2079, 56.42371
640.6900, 56.12569
641.1721, 55.52219
641.6542, 54.96794
642.1364, 54.85377
642.6185, 55.15026
643.1006, 55.51665
643.5827, 56.05552
644.0648, 56.43399
644.5469, 56.54507
645.0291, 56.42830
645.5112, 55.98686
645.9933, 55.22515
646.4754, 54.65788
646.9575, 54.64561
647.4396, 54.85077
647.9218, 54.93000
648.4039, 54.89896
648.8860, 54.89494
649.3681, 54.97913
649.8502, 55.07075
650.3323, 55.05294
650.8145, 54.92468
651.2966, 54.68655
651.7787, 54.22347
652.2608, 53.78857
652.7429, 53.38544
653.2250, 53.08807
653.7072, 53.05979
654.1893, 53.32032
654.6714, 53.54332
655.1535, 53.32642
655.6356, 52.82708
656.1177, 52.60877
656.5999, 52.71943
657.0820, 52.82040
657.5641, 52.68298
658.0462, 52.51268
658.5283, 52.77958
659.0104, 53.60115
659.4926, 54.17205
659.9747, 54.31874
660.4568, 54.24056
660.9389, 53.88892
661.4210, 53.43986
661.9031, 53.27435
662.3853, 53.52897
662.8674, 53.85395
663.3495, 53.72095
663.8316, 53.09327
664.3137, 52.54510
664.7958, 51.96945
665.2780, 51.67052
665.7601, 51.87800
666.2422, 52.39004
666.7243, 53.18721
667.2064, 54.36570
667.6885, 54.88892
668.1707, 53.54343
668.6528, 51.77490
669.1349, 51.42784
669.6170, 52.27256
670.0991, 52.83784
670.5812, 52.40912
671.0634, 51.64108
671.5455, 51.74219
672.0276, 53.08794
672.5097, 53.87092
672.9918, 53.68195
673.4739, 53.36000
673.9561, 53.09462
674.4382, 52.86117
674.9203, 52.52068
675.4024, 52.04287
675.8845, 51.83344
676.3666, 52.53946
676.8488, 53.66026
677.3309, 54.05623
677.8130, 53.68238
678.2951, 53.10626
678.7772, 52.48032
679.2593, 52.01628
679.7415, 52.17510
680.2236, 53.35308
680.7057, 53.90800
681.1878, 53.27583
681.6699, 52.64203
682.1520, 52.42339
682.6342, 52.59365
683.1163, 53.27405
683.5984, 54.43713
684.0805, 55.31797
684.5626, 54.76168
685.0447, 53.12536
685.5269, 52.47369
686.0090, 53.01743
686.4911, 53.48147
686.9732, 53.22516
687.4553, 52.67459
687.9374, 52.49339
688.4196, 52.68287
688.9017, 53.06413
689.3838, 54.05015
689.8659, 54.78292
690.3480, 54.66489
690.8301, 53.95927
691.3123, 52.97590
691.7944, 51.87812
692.2765, 51.09352
692.7586, 51.27818
693.2407, 52.32711
693.7228, 52.69682
694.2050, 52.16117
694.6871, 51.54873
695.1692, 50.91888
695.6513, 50.52625
696.1334, 50.86509
696.6155, 51.92083
697.0977, 52.39677
697.5798, 51.24914
698.0619, 50.01237
698.5440, 49.88105
699.0261, 50.49573
699.5082, 51.21392
699.9904, 51.80488
700.4725, 52.04373
700.9546, 51.62587
701.4367, 50.60356
701.9188, 49.70576
702.4009, 48.73133
702.8831, 48.29285
703.3652, 49.05390
703.8473, 50.02698
704.3294, 50.54972
704.8115, 50.61311
705.2936, 50.44574
705.7758, 49.89588
706.2579, 49.38437
706.7400, 49.36139
707.2221, 49.62130
707.7042, 49.69340
708.1863, 49.47239
708.6685, 49.15009
709.1505, 48.85964
709.6326, 48.64033
710.1147, 48.85226
710.5969, 50.01663
711.0790, 50.64625
711.5611, 50.20254
712.0432, 49.50082
712.5253, 48.86808
713.0074, 48.40724
713.4896, 48.31182
713.9717, 48.74961
714.4538, 49.40049
714.9359, 50.27495
715.4180, 51.09289
715.9001, 51.03843
716.3823, 50.03113
716.8644, 48.98011
717.3465, 48.53722
717.8286, 48.57455
718.3107, 48.63577
718.7928, 48.87184
719.2750, 48.83735
719.7571, 48.06797
720.2392, 47.49308
720.7213, 47.83540
721.2034, 48.65202
721.6855, 49.00058
722.1677, 48.47857
722.6498, 47.96413
723.1319, 48.43483
723.6140, 49.36266
724.0961, 49.60444
724.5782, 49.10987
725.0604, 48.50163
725.5425, 48.06564
726.0246, 47.86963
726.5067, 48.11398
726.9888, 49.13306
727.4709, 49.56678
727.9531, 48.90986
728.4352, 48.25640
728.9173, 47.97899
729.3994, 47.90610
729.8815, 47.81637
730.3636, 47.66001
730.8458, 47.50086
731.3279, 47.29650
731.8100, 47.16127
732.2921, 47.30231
732.7742, 47.69938
733.2563, 48.22656
733.7385, 48.85398
734.2206, 49.50276
734.7027, 50.13240
735.1848, 50.78013
735.6669, 50.83734
736.1490, 49.51881
736.6312, 48.61517
737.1133, 48.66232
737.5954, 49.04900
738.0775, 49.37100
738.5596, 49.53400
739.0417, 49.43267
739.5239, 48.86974
740.0060, 48.19326
740.4881, 47.83852
740.9702, 47.70121
741.4523, 47.34060
741.9344, 46.66922
742.4166, 46.38394
742.8987, 47.18675
743.3808, 48.76105
743.8629, 49.49985
744.3450, 48.85172
744.8271, 48.36164
745.3093, 48.06380
745.7914, 47.98395
746.2735, 48.27452
746.7556, 48.76733
747.2377, 49.15482
747.7198, 49.35104
748.2020, 49.37643
748.6841, 49.12568
749.1662, 48.76720
749.6483, 48.69845
750.1304, 48.87251
750.6125, 48.71291
751.0947, 47.88060
751.5768, 46.83489
752.0589, 46.38919
752.5410, 46.61164
753.0231, 47.14118
753.5052, 48.44341
753.9874, 49.42231
754.4695, 49.62009
754.9516, 49.42817
755.4337, 49.21246
755.9158, 49.02324
756.3979, 48.84143
756.8801, 48.62567
757.3622, 48.43893
757.8443, 48.26710
758.3264, 48.18250
758.8085, 48.49037
759.2906, 49.22248
759.7728, 49.79253
760.2549, 49.57986
760.7370, 48.73682
761.2191, 48.21671
761.7012, 48.10513
762.1833, 48.08935
762.6655, 48.24829
763.1476, 48.35277
763.6297, 48.01118
764.1118, 47.50108
764.5939, 47.67727
765.0760, 49.23984
765.5582, 50.42722
766.0403, 49.90335
766.5224, 48.87981
767.0045, 48.91384
767.4866, 49.79618
767.9688, 50.11471
768.4509, 49.12901
768.9330, 47.78076
769.4151, 47.82270
769.8972, 49.33249
770.3793, 50.05775
770.8615, 49.68591
771.3436, 49.26115
771.8257, 49.22331
772.3078, 49.39019
772.7899, 49.50134
773.2720, 49.55265
773.7542, 49.60579
774.2363, 49.59227
774.7184, 49.66997
775.2005, 50.07763
775.6826, 50.54417
776.1647, 50.64171
776.6469, 50.35602
777.1290, 50.10536
777.6111, 50.27702
778.0932, 50.60893
778.5753, 50.39938
779.0574, 49.67643
779.5396, 49.24956
780.0217, 49.29440
780.5038, 49.60648
780.9859, 50.17470
781.4680, 50.85215
781.9501, 50.98593
782.4323, 50.09167
782.9144, 49.46691
783.3965, 49.25627
783.8786, 49.23996
784.3607, 49.40402
784.8428, 49.63862
785.3250, 49.72762
785.8071, 49.60119
786.2892, 49.58876
786.7713, 50.12077
787.2534, 50.89092
787.7355, 51.36461
788.2177, 51.53436
788.6998, 51.50972
789.1819, 51.33078
789.6640, 50.94003
790.1461, 50.17703
790.6282, 49.04619
791.1104, 48.60444
791.5925, 49.37060
792.0746, 49.95522
792.5567, 50.06028
793.0388, 49.96454
793.5209, 49.75521
794.0031, 49.50108
794.4852, 49.37925
794.9673, 49.44335
795.4494, 49.64642
795.9315, 50.01015
796.4136, 50.46506
796.8958, 51.04024
797.3779, 51.63962
797.8600, 51.89800
798.3421, 51.61592
798.8242, 51.13689
799.3063, 51.04961
799.7885, 51.37006
800.2706, 51.58508
800.7527, 51.66701
801.2348, 51.71774
801.7169, 51.76816
802.1990, 51.81535
802.6812, 51.88710
803.1633, 51.98790
803.6454, 51.94335
804.1275, 51.66673
804.6096, 51.32985
805.0917, 50.87702
805.5739, 50.47742
806.0560, 50.23914
806.5381, 50.21760
807.0202, 50.57436
807.5023, 51.54179
807.9844, 52.50365
808.4666, 52.42703
808.9487, 51.59358
809.4308, 51.05055
809.9129, 50.92049
810.3950, 51.21264
810.8771, 52.04139
811.3593, 53.03508
811.8414, 53.40937
812.3235, 52.94810
812.8056, 52.68714
813.2877, 52.96206
813.7698, 53.01350
814.2520, 52.22176
814.7341, 51.38646
815.2162, 51.56196
815.6983, 52.68952
816.1804, 53.34779
816.6625, 52.37008
817.1447, 51.33018
817.6268, 51.60518
818.1089, 52.48870
818.5910, 52.81643
819.0731, 52.49821
819.5552, 52.22175
820.0374, 52.45586
820.5195, 52.89145
821.0016, 52.85460
821.4837, 52.33060
821.9658, 51.80048
822.4479, 51.16813
822.9301, 51.01690
823.4122, 52.02770
823.8943, 53.35722
824.3764, 53.34270
824.8585, 51.56477
825.3406, 50.66484
825.8228, 51.32552
826.3049, 52.15453
826.7870, 52.91427
827.2691, 53.45158
827.7512, 53.54915
828.2333, 53.26296
828.7155, 52.91924
829.1976, 52.66007
829.6797, 52.47902
830.1618, 52.47450
830.6439, 52.52058
831.1260, 52.18721
831.6082, 51.49180
832.0903, 51.06898
832.5724, 51.29899
833.0545, 51.92535
833.5366, 52.49373
834.0187, 53.03412
834.5009, 53.29572
834.9830, 53.15549
835.4651, 52.98188
835.9472, 52.87691
836.4293, 52.82592
836.9114, 52.83672
837.3936, 52.90317
837.8757, 52.90340
838.3578, 52.54568
838.8399, 52.46023
839.3220, 53.22285
839.8041, 54.12288
840.2863, 54.46105
840.7684, 54.26228
841.2505, 53.87183
841.7326, 53.43518
842.2147, 53.01582
842.6968, 52.68135
843.1790, 52.42512
843.6611, 52.19017
844.1432, 51.98524
844.6253, 52.00491
845.1074, 52.36019
845.5895, 52.79954
846.0717, 53.00261
846.5538, 52.96854
847.0359, 52.74048
847.5180, 52.00146
848.0001, 51.70156
848.4822, 52.50048
848.9644, 53.35368
849.4465, 53.41034
849.9286, 52.94353
850.4107, 52.81638
850.8928, 53.33012
851.3749, 53.81876
851.8571, 54.33077
852.3392, 54.47668
852.8213, 53.51308
853.3034, 52.04202
853.7855, 51.32481
854.2676, 51.72649
854.7498, 52.44572
855.2319, 52.86462
855.7140, 52.98555
856.1961, 52.70157
856.6782, 52.07993
857.1603, 51.60241
857.6425, 51.39651
858.1246, 51.20566
858.6067, 50.75295
859.0888, 50.22831
859.5709, 50.45474
860.0530, 52.04321
860.5352, 52.73386
861.0173, 51.70269
861.4994, 50.74641
861.9815, 50.73912
862.4636, 51.22326
862.9457, 51.72449
863.4279, 52.22847
863.9100, 52.33934
864.3921, 51.45865
864.8742, 50.72845
865.3563, 51.03643
865.8384, 51.65718
866.3206, 51.63597
866.8027, 50.99578
867.2848, 50.42751
867.7669, 50.32126
868.2490, 50.47097
868.7311, 50.73975
869.2133, 51.03301
869.6954, 51.03227
870.1775, 50.73536
870.6596, 50.45270
871.1417, 50.33146
871.6238, 50.21604
872.1060, 49.84645
872.5881, 49.22763
873.0702, 48.96874
873.5523, 49.23171
874.0344, 49.43585
874.5165, 49.36158
874.9987, 49.29844
875.4808, 49.63720
875.9629, 50.17553
876.4450, 50.26931
876.9271, 49.61554
877.4092, 49.08915
877.8914, 48.99085
878.3735, 48.93690
878.8556, 48.77592
879.3377, 48.46253
879.8198, 47.79466
880.3019, 46.80817
880.7841, 46.18206
881.2662, 46.58266
881.7483, 47.38998
882.2304, 48.06089
882.7125, 48.48904
883.1946, 48.27593
883.6768, 47.44824
884.1589, 46.61204
884.6410, 46.14626
885.1231, 45.98260
885.6052, 46.10303
886.0873, 46.52555
886.5695, 46.48532
887.0516, 45.84422
887.5337, 45.22596
888.0158, 44.79323
888.4979, 44.60984
888.9800, 44.78941
889.4622, 45.33213
889.9443, 45.92727
890.4264, 46.91579
890.9085, 47.46496
891.3906, 47.24602
891.8727, 46.81148
892.3549, 46.39906
892.8370, 46.05161
893.3191, 45.79549
893.8012, 45.63295
894.2833, 45.58244
894.7654, 45.72277
895.2476, 45.91207
895.7297, 46.07345
896.2118, 46.18250
896.6939, 46.25121
897.1760, 46.25097
897.6581, 45.99529
898.1403, 45.24913
898.6224, 44.49305
899.1045, 44.78444
899.5866, 45.78646
900.0687, 45.79658
900.5508, 44.69123
901.0330, 44.07623
901.5151, 44.79894
901.9972, 45.86175
902.4793, 45.71260
902.9614, 44.34953
903.4435, 43.64230
903.9257, 43.78841
904.4078, 44.08827
904.8899, 44.56670
905.3720, 44.94658
905.8541, 45.01370
906.3362, 44.81204
906.8184, 44.42866
907.3005, 43.59388
907.7826, 43.25198
908.2647, 44.18199
908.7468, 44.88618
909.2289, 44.38443
909.7111, 43.39045
910.1932, 42.83125
910.6753, 42.78979
911.1574, 42.70024
911.6395, 42.13082
912.1216, 41.65030
912.6038, 41.80764
913.0859, 42.28779
913.5680, 42.76472
914.0501, 43.13398
914.5322, 43.26636
915.0143, 43.10534
915.4965, 42.69560
915.9786, 41.83465
916.4607, 40.81164
916.9428, 40.91235
917.4249, 42.02432
917.9070, 42.47489
918.3892, 41.79559
918.8713, 41.13609
919.3534, 41.46529
919.8355, 42.39838
920.3176, 42.70162
920.7997, 42.10952
921.2819, 41.92873
921.7640, 42.48725
922.2461, 42.84112
922.7282, 42.45763
923.2103, 41.82161
923.6924, 41.43914
924.1746, 41.30809
924.6567, 41.53836
925.1388, 42.62600
925.6209, 43.37961
926.1030, 43.31484
926.5851, 43.10862
927.0673, 43.26930
927.5494, 43.60437
928.0315, 43.61001
928.5136, 43.14877
928.9957, 42.99634
929.4778, 44.11632
929.9600, 45.14943
930.4421, 44.59579
930.9242, 43.41583
931.4063, 43.27102
931.8884, 44.15853
932.3705, 44.83756
932.8527, 44.59756
933.3348, 43.99706
933.8169, 43.63929
934.2990, 43.52135
934.7811, 43.71911
935.2632, 44.18656
935.7454, 44.61832
936.2275, 44.91442
936.7096, 45.13492
937.1917, 45.34560
937.6738, 45.51791
938.1559, 45.50266
938.6381, 45.26052
939.1202, 45.12765
939.6023, 45.08927
940.0844, 45.37511
940.5665, 46.34165
941.0486, 47.37051
941.5308, 47.39622
942.0129, 46.29268
942.4950, 45.57075
942.9771, 45.24265
943.4592, 45.28157
943.9413, 46.11127
944.4235, 46.87506
944.9056, 46.99072
945.3877, 46.66093
945.8698, 46.28890
946.3519, 45.84906
946.8340, 45.71803
947.3162, 46.33895
947.7983, 46.89378
948.2804, 46.77999
948.7625, 46.48430
949.2446, 46.66471
949.7267, 47.25166
950.2089, 47.66919
950.6910, 47.68752
951.1731, 47.39687
951.6552, 46.57056
952.1373, 45.69251
952.6194, 45.50746
953.1016, 45.76415
953.5837, 45.74664
954.0658, 45.27213
954.5479, 44.66148
955.0300, 44.08568
955.5121, 43.70719
955.9943, 44.07737
956.4763, 44.91729
956.9584, 45.01365
957.4406, 44.28831
957.9227, 43.54901
958.4048, 43.16339
958.8869, 42.97522
959.3690, 42.78605
959.8511, 42.60310
960.3333, 42.44205
960.8154, 42.26467
961.2975, 42.49371
961.7796, 43.40597
962.2617, 44.03433
962.7438, 43.64017
963.2260, 42.67414
963.7081, 42.07336
964.1902, 41.86113
964.6723, 41.90744
965.1544, 42.58592
965.6365, 42.89595
966.1187, 42.33622
966.6008, 41.58773
967.0829, 41.12777
967.5650, 40.89981
968.0471, 40.76171
968.5292, 40.83813
969.0114, 40.65008
969.4935, 39.63363
969.9756, 38.92643
970.4577, 39.53120
970.9398, 40.35489
971.4219, 39.93039
971.9041, 38.48112
972.3862, 37.71163
972.8683, 38.57064
973.3504, 39.36557
973.8325, 39.07038
974.3146, 38.47995
974.7968, 38.18172
975.2789, 38.16474
975.7610, 38.43712
976.2431, 38.91069
976.7252, 39.11416
977.2073, 38.58004
977.6895, 37.92957
978.1716, 37.95303
978.6537, 38.27001
979.1358, 38.09794
979.6179, 37.57399
980.1000, 37.58782
980.5822, 38.41589
981.0643, 39.06964
981.5464, 38.37522
982.0285, 36.99377
982.5106, 36.48823
982.9927, 36.70380
983.4749, 36.98999
983.9570, 37.23071
984.4391, 37.13938
984.9212, 36.53065
985.4033, 35.88392
985.8854, 35.95903
986.3676, 36.64834
986.8497, 37.03179
987.3318, 37.10059
987.8139, 36.92403
988.2960, 36.46519
988.7781, 35.97990
989.2603, 35.59667
989.7424, 35.36419
990.2245, 35.41626
990.7066, 35.81232
991.1887, 35.99424
991.6708, 35.85888
992.1530, 35.78305
992.6351, 36.00837
993.1172, 36.07787
993.5993, 35.48934
994.0814, 34.51210
994.5635, 33.97638
995.0457, 33.99326
995.5278, 34.13966
996.0099, 34.60344
996.4920, 34.95127
996.9741, 34.99241
997.4562, 34.94299
997.9384, 34.98363
998.4205, 35.08935
998.9026, 35.13638
999.3847, 35.03038
999.8668, 35.07094
1000.349, 35.63430
1000.831, 35.98487
1001.313, 35.50472
1001.795, 34.81364
1002.277, 34.66608
1002.760, 34.99437
1003.242, 35.13601
1003.724, 34.76572
1004.206, 34.48451
1004.688, 34.79737
1005.170, 35.07729
1005.652, 34.59892
1006.134, 33.88974
1006.616, 33.92313
1007.099, 34.67657
1007.581, 35.12137
1008.063, 34.64336
1008.545, 33.96791
1009.027, 33.52161
1009.509, 33.31639
1009.991, 33.48386
1010.473, 33.86745
1010.956, 34.16616
1011.438, 34.30042
1011.920, 34.30732
1012.402, 34.13049
1012.884, 34.04062
1013.366, 34.56578
1013.848, 35.32456
1014.330, 35.71268
1014.812, 35.64861
1015.295, 34.85166
1015.777, 33.34398
1016.259, 32.13771
1016.741, 32.15563
1017.223, 32.88354
1017.705, 33.53097
1018.187, 34.06630
1018.669, 34.33538
1019.151, 34.35147
1019.634, 34.30124
1020.116, 34.25462
1020.598, 34.11526
1021.080, 33.71685
1021.562, 33.27346
1022.044, 33.63577
1022.526, 34.66407
1023.008, 34.64468
1023.491, 33.40700
1023.973, 32.67797
1024.455, 33.21696
1024.937, 34.20914
1025.419, 34.76894
1025.901, 34.93950
1026.383, 34.89001
1026.865, 34.60765
1027.348, 34.23068
1027.830, 33.70275
1028.312, 33.57070
1028.794, 34.19762
1029.276, 34.93940
1029.758, 34.95901
1030.240, 34.36024
1030.722, 33.94400
1031.204, 33.72456
1031.687, 33.64377
1032.169, 33.73438
1032.651, 33.87891
1033.133, 34.11660
1033.615, 34.19499
1034.097, 33.64042
1034.579, 32.54268
1035.061, 32.42424
1035.543, 34.01288
1036.026, 34.61207
1036.508, 33.36565
1036.990, 32.30875
1037.472, 32.51759
1037.954, 33.27677
1038.436, 33.72842
1038.918, 33.87402
1039.400, 33.72338
1039.883, 32.71569
1040.365, 32.48942
1040.847, 34.02592
1041.329, 35.17502
1041.811, 34.62863
1042.293, 33.43472
1042.775, 32.93950
1043.257, 33.12481
1043.740, 33.21335
1044.222, 33.05182
1044.704, 33.03093
1045.186, 33.41129
1045.668, 33.65628
1046.150, 33.36065
1046.632, 32.91222
1047.114, 32.80325
1047.596, 33.02149
1048.078, 33.18428
1048.561, 33.34517
1049.043, 33.31633
1049.525, 33.03265
1050.007, 32.60322
1050.489, 31.86494
1050.971, 31.14871
1051.453, 30.86049
1051.935, 30.98885
1052.418, 31.22512
1052.900, 31.61823
1053.382, 31.94528
1053.864, 32.20456
1054.346, 32.34502
1054.828, 32.31397
1055.310, 32.16812
1055.792, 31.85934
1056.275, 31.46653
1056.757, 31.42720
1057.239, 32.15780
1057.721, 32.57845
1058.203, 32.02955
1058.685, 31.51217
1059.167, 31.75191
1059.649, 32.20733
1060.131, 32.24830
1060.614, 31.87009
1061.096, 31.32143
1061.578, 30.39459
1062.060, 30.03746
1062.542, 31.17251
1063.024, 32.28199
1063.506, 32.51086
1063.988, 32.23901
1064.470, 31.78144
1064.953, 31.27389
1065.435, 30.96854
1065.917, 30.96767
1066.399, 31.03867
1066.881, 31.16148
1067.363, 31.24665
1067.845, 31.22081
1068.327, 31.14574
1068.810, 31.03763
1069.292, 30.94770
1069.774, 31.02086
1070.256, 31.33465
1070.738, 31.59170
1071.220, 31.58850
1071.702, 31.57930
1072.184, 31.75238
1072.667, 31.96207
1073.149, 32.01480
1073.631, 31.97231
1074.113, 32.05414
1074.595, 32.33281
1075.077, 32.54310
1075.559, 32.63801
1076.041, 32.54192
1076.523, 32.09049
1077.005, 31.53066
1077.488, 30.94859
1077.970, 30.49612
1078.452, 30.50215
1078.934, 31.04232
1079.416, 31.52844
1079.898, 31.77830
1080.380, 31.81188
1080.862, 31.59208
1081.344, 31.20565
1081.827, 30.50230
1082.309, 29.78165
1082.791, 29.62461
1083.273, 30.10815
1083.755, 30.65696
1084.237, 31.13919
1084.719, 31.48123
1085.201, 31.65999
1085.684, 31.67112
1086.166, 31.44508
1086.648, 31.08358
1087.130, 30.62946
1087.612, 30.15625
1088.094, 30.03898
1088.576, 30.65646
1089.058, 31.17398
1089.541, 31.34162
1090.023, 31.16733
1090.505, 30.29419
1090.987, 29.31253
1091.469, 29.00995
1091.951, 29.36108
1092.433, 29.80082
1092.915, 30.23315
1093.397, 30.51242
1093.880, 30.62862
1094.362, 30.51874
1094.844, 29.80737
1095.326, 29.10224
1095.808, 29.16873
1096.290, 29.82770
1096.772, 30.36591
1097.254, 30.62218
1097.736, 30.70316
1098.219, 30.43850
1098.701, 30.26530
1099.183, 30.64820
1099.665, 30.97512
1100.147, 30.44854
1100.629, 29.50145
1101.111, 29.23473
1101.593, 29.89538
1102.076, 30.29978
1102.558, 29.95803
1103.040, 29.56217
1103.522, 29.22434
1104.004, 29.02322
1104.486, 29.12723
1104.968, 29.34713
1105.450, 29.32167
1105.932, 29.03172
1106.415, 28.96751
1106.897, 29.54507
1107.379, 29.87085
1107.861, 29.51884
1108.343, 29.16661
1108.825, 29.20801
1109.307, 29.41237
1109.789, 29.48362
1110.271, 29.43188
1110.754, 29.45962
1111.236, 29.76521
1111.718, 29.79535
1112.200, 29.33777
1112.682, 28.80777
1113.164, 28.08467
1113.646, 27.56989
1114.128, 27.78156
1114.611, 28.48984
1115.093, 28.90012
1115.575, 28.85996
1116.057, 28.97491
1116.539, 29.70835
1117.021, 29.87663
1117.503, 28.55587
1117.985, 27.44192
1118.468, 27.95779
1118.950, 29.23146
1119.432, 29.54068
1119.914, 28.77313
1120.396, 28.40767
1120.878, 28.55836
1121.360, 28.89206
1121.842, 29.56126
1122.324, 30.04420
1122.807, 29.99172
1123.289, 29.76168
1123.771, 29.88877
1124.253, 30.27171
1124.735, 29.97073
1125.217, 28.60256
1125.699, 27.95598
1126.181, 28.36848
1126.663, 28.66665
1127.146, 28.33528
1127.628, 28.08405
1128.110, 28.64305
1128.592, 29.67031
1129.074, 30.17130
1129.556, 30.11465
1130.038, 29.79931
1130.520, 29.17698
1131.003, 28.61180
1131.485, 28.16291
1131.967, 27.94302
1132.449, 28.05020
1132.931, 28.32695
1133.413, 28.53656
1133.895, 28.67677
1134.377, 28.70383
1134.859, 28.62415
1135.342, 28.63535
1135.824, 28.76281
1136.306, 28.96672
1136.788, 29.23563
1137.270, 29.37672
1137.752, 29.16422
1138.234, 28.72101
1138.716, 28.31726
1139.198, 27.95063
1139.681, 27.56774
1140.163, 27.19941
1140.645, 27.01902
1141.127, 27.07589
1141.609, 27.37743
1142.091, 27.96418
1142.573, 28.54925
1143.055, 28.78127
1143.538, 28.69394
1144.020, 28.22661
1144.502, 27.52839
1144.984, 26.84652
1145.466, 26.30805
1145.948, 26.22489
1146.430, 26.72028
1146.912, 27.36734
1147.395, 27.78103
1147.877, 28.16401
1148.359, 28.98770
1148.841, 29.76032
1149.323, 29.60540
1149.805, 28.86856
1150.287, 28.43505
1150.769, 28.48791
1151.251, 28.63342
1151.734, 28.73028
1152.216, 28.70508
1152.698, 28.51925
1153.180, 28.18074
1153.662, 27.55222
1154.144, 26.87431
1154.626, 26.33564
1155.108, 26.04149
1155.590, 26.24866
1156.073, 27.11256
1156.555, 27.90601
1157.037, 28.47008
1157.519, 28.78530
1158.001, 28.67441
1158.483, 28.48059
1158.965, 28.43034
1159.447, 28.49450
1159.930, 28.66324
1160.412, 28.92757
1160.894, 28.94530
1161.376, 28.39980
1161.858, 28.04749
1162.340, 27.93761
1162.822, 28.05610
1163.304, 28.66271
1163.786, 29.22842
1164.269, 29.13951
1164.751, 28.63730
1165.233, 28.58219
1165.715, 29.12539
1166.197, 29.47553
1166.679, 29.71507
1167.161, 29.42938
1167.643, 28.18240
1168.125, 27.40847
1168.608, 28.12945
1169.090, 29.40605
1169.572, 29.86011
1170.054, 29.57440
1170.536, 29.11909
1171.018, 28.48475
1171.500, 27.79240
1171.982, 27.03710
1172.465, 26.59109
1172.947, 26.58022
1173.429, 27.06501
1173.911, 28.19189
1174.393, 29.40741
1174.875, 29.59970
1175.357, 28.99603
1175.839, 28.29803
1176.322, 27.61735
1176.804, 27.41840
1177.286, 27.69963
1177.768, 27.96924
1178.250, 28.00496
1178.732, 28.04433
1179.214, 28.32685
1179.696, 28.72130
1180.178, 29.26834
1180.661, 29.66838
1181.143, 29.08526
1181.625, 28.08361
1182.107, 28.18183
1182.589, 29.42490
1183.071, 30.25477
1183.553, 29.84370
1184.035, 29.26587
1184.517, 29.00030
1185.000, 29.03172
1185.482, 29.72882
1185.964, 30.40445
1186.446, 30.20448
1186.928, 29.42727
1187.410, 28.89961
1187.892, 28.77100
1188.374, 28.49875
1188.857, 27.46892
1189.339, 27.01930
1189.821, 28.10018
1190.303, 29.01652
1190.785, 28.63758
1191.267, 27.93711
1191.749, 28.20404
1192.231, 29.03515
1192.714, 28.71447
1193.196, 26.54397
1193.678, 26.07793
1194.160, 28.27769
1194.642, 29.47301
1195.124, 28.62217
1195.606, 27.60669
1196.088, 27.49311
1196.570, 27.80399
1197.052, 27.86913
1197.535, 27.77807
1198.017, 28.10406
1198.499, 28.82374
1198.981, 28.80063
1199.463, 28.00703
1199.945, 27.67033
1200.427, 28.11724
1200.909, 28.43365
1201.392, 27.96006
1201.874, 27.29782
1202.356, 27.30579
1202.838, 27.74615
1203.320, 28.24685
1203.802, 28.71764
1204.284, 28.92690
1204.766, 28.91626
1205.249, 28.85011
1205.731, 28.80379
1206.213, 28.91595
1206.695, 29.38696
1207.177, 29.76736
1207.659, 29.69108
1208.141, 29.39432
1208.623, 28.87571
1209.105, 28.41364
1209.588, 28.56390
1210.070, 29.03637
1210.552, 28.73714
1211.034, 27.29081
1211.516, 26.58042
1211.998, 27.67792
1212.480, 28.62630
1212.962, 28.88593
1213.444, 28.96435
1213.927, 28.99856
1214.409, 29.10153
1214.891, 29.49293
1215.373, 30.04922
1215.855, 30.21166
1216.337, 29.92880
1216.819, 29.42028
1217.301, 28.54618
1217.784, 28.02130
1218.266, 28.03944
1218.748, 28.21382
1219.230, 28.35491
1219.712, 28.43001
1220.194, 28.38702
1220.676, 28.26166
1221.158, 28.15694
1221.641, 28.07397
1222.123, 27.92185
1222.605, 27.77965
1223.087, 28.22907
1223.569, 29.27269
1224.051, 29.96471
1224.533, 29.77237
1225.015, 29.18171
1225.497, 28.40345
1225.979, 27.76786
1226.462, 27.85157
1226.944, 28.16699
1227.426, 27.92780
1227.908, 27.45549
1228.390, 27.63841
1228.872, 28.48425
1229.354, 28.98163
1229.836, 28.66135
1230.319, 28.33207
1230.801, 28.26515
1231.283, 28.25010
1231.765, 28.27683
1232.247, 28.24239
1232.729, 28.09134
1233.211, 27.80751
1233.693, 27.20272
1234.176, 26.31610
1234.658, 26.39571
1235.140, 28.00857
1235.622, 28.83451
1236.104, 28.60910
1236.586, 28.13823
1237.068, 27.56281
1237.550, 27.23881
1238.032, 27.44298
1238.515, 27.98836
1238.997, 28.70313
1239.479, 29.41175
1239.961, 29.21873
1240.443, 28.37117
1240.925, 27.99134
1241.407, 28.10793
1241.889, 28.29098
1242.371, 28.41097
1242.854, 28.57729
1243.336, 28.88098
1243.818, 29.10617
1244.300, 28.94930
1244.782, 28.72493
1245.264, 28.87176
1245.746, 29.02474
1246.228, 28.57394
1246.711, 27.84121
1247.193, 27.44065
1247.675, 27.50070
1248.157, 28.10725
1248.639, 29.93673
1249.121, 30.98372
1249.603, 30.25693
1250.085, 29.58220
1250.568, 29.64221
1251.050, 29.79658
1251.532, 29.65284
1252.014, 29.30278
1252.496, 28.84676
1252.978, 28.31927
1253.460, 28.13626
1253.942, 28.32901
1254.424, 28.61687
1254.906, 29.00051
1255.389, 28.64205
1255.871, 27.33448
1256.353, 26.71154
1256.835, 27.88754
1257.317, 29.31916
1257.799, 28.80895
1258.281, 27.45818
1258.763, 27.30230
1259.246, 27.72456
1259.728, 27.45061
1260.210, 26.84752
1260.692, 27.17302
1261.174, 28.41229
1261.656, 29.25762
1262.138, 29.16186
1262.620, 28.80669
1263.103, 28.22580
1263.585, 27.83228
1264.067, 27.84518
1264.549, 28.07259
1265.031, 28.66582
1265.513, 29.19832
1265.995, 29.01133
1266.477, 28.24037
1266.959, 27.54982
1267.442, 26.81239
1267.924, 26.73820
1268.406, 27.48910
1268.888, 28.20541
1269.370, 28.75994
1269.852, 28.94080
1270.334, 28.60137
1270.816, 28.27028
1271.298, 28.57246
1271.781, 29.09032
1272.263, 28.87545
1272.745, 28.25670
1273.227, 27.99642
1273.709, 28.03276
1274.191, 28.21020
1274.673, 28.43203
1275.155, 28.54032
1275.638, 28.48017
1276.120, 28.26038
1276.602, 27.63222
1277.084, 27.29085
1277.566, 27.80999
1278.048, 28.44676
1278.530, 28.79414
1279.012, 29.00920
1279.495, 29.29493
1279.977, 29.56773
1280.459, 29.65483
1280.941, 29.55854
1281.423, 29.04989
1281.905, 27.84669
1282.387, 27.36828
##END=



