##NAMES=Braunite
##RRUFFID=R090057
##IDEAL CHEMISTRY=Mn^2+^Mn^3+^_6_SiO_12_
##LOCALITY=N'Chwaning III Mine, N'Chwaning Mines, Kalahari manganese field, Northern Cape Province, South Africa
##OWNER=RRUFF
##SOURCE=Marshall Sussman
##DESCRIPTION=Blocky lustrous black crystals on fine-grained matrix of the same material. Note that this is braunite II, as defined in de Villiers (1980)
##STATUS=The identification of this mineral has been confirmed by X-ray diffraction.
##URL=rruff.info/R090057
90.26367, 14.14258
90.74579, 14.43037
91.22791, 14.28030
91.71002, 13.74616
92.19214, 13.30341
92.67426, 13.49142
93.15637, 14.09365
93.63850, 14.52959
94.12061, 14.53432
94.60273, 14.26785
95.08485, 14.05513
95.56696, 13.88860
96.04908, 13.83959
96.53120, 14.16546
97.01331, 14.83016
97.49543, 15.21563
97.97755, 14.86124
98.45966, 13.82547
98.94178, 13.17639
99.42390, 12.99265
99.90602, 13.09408
100.3881, 13.18129
100.8703, 13.27962
101.3524, 13.27109
101.8345, 13.04882
102.3166, 12.53963
102.7987, 12.15381
103.2808, 11.98857
103.7630, 11.96511
104.2451, 11.69228
104.7272, 10.89192
105.2093, 10.20667
105.6914, 10.12883
106.1735, 11.30252
106.6557, 11.95970
107.1378, 11.59061
107.6199, 10.14002
108.1020, 9.474566
108.5841, 10.30799
109.0662, 11.54910
109.5484, 12.22969
110.0305, 11.81519
110.5126, 11.37967
110.9947, 11.08659
111.4768, 10.94639
111.9590, 10.90272
112.4411, 11.08488
112.9232, 11.32875
113.4053, 11.41798
113.8874, 11.12680
114.3695, 10.82820
114.8517, 10.68665
115.3338, 10.80528
115.8159, 10.86688
116.2980, 10.80223
116.7801, 10.61553
117.2622, 10.32045
117.7444, 9.586324
118.2265, 8.942226
118.7086, 8.796161
119.1907, 9.588253
119.6728, 10.34990
120.1549, 10.31003
120.6371, 9.692843
121.1192, 9.406521
121.6013, 10.36216
122.0834, 11.80199
122.5655, 12.88498
123.0477, 13.31019
123.5298, 13.31839
124.0119, 12.92114
124.4940, 12.15471
124.9761, 11.52928
125.4582, 11.42450
125.9404, 11.75320
126.4225, 12.35125
126.9046, 13.46000
127.3867, 14.70618
127.8688, 15.44104
128.3509, 15.63260
128.8331, 15.62431
129.3152, 15.71092
129.7973, 15.89388
130.2794, 16.17511
130.7615, 16.65608
131.2436, 17.25145
131.7258, 17.63211
132.2079, 17.74810
132.6900, 17.75991
133.1721, 17.78633
133.6542, 17.82471
134.1364, 18.21299
134.6185, 19.34221
135.1006, 21.17917
135.5827, 22.63316
136.0648, 23.50764
136.5469, 24.10456
137.0291, 25.26542
137.5112, 27.14132
137.9933, 28.92236
138.4754, 30.20002
138.9575, 30.98663
139.4396, 31.04041
139.9218, 30.04087
140.4039, 28.29519
140.8860, 27.36888
141.3681, 27.51365
141.8502, 28.04705
142.3323, 28.47898
142.8145, 28.84246
143.2966, 29.01865
143.7787, 28.86789
144.2608, 28.40090
144.7429, 28.34918
145.2251, 28.86825
145.7072, 29.66417
146.1893, 30.46845
146.6714, 31.27076
147.1535, 32.10004
147.6356, 33.02940
148.1178, 34.12117
148.5999, 34.86151
149.0820, 34.86412
149.5641, 34.67463
150.0462, 34.94072
150.5283, 36.51574
151.0105, 37.69252
151.4926, 37.58960
151.9747, 36.04362
152.4568, 35.07029
152.9389, 35.03903
153.4210, 35.51735
153.9032, 35.90519
154.3853, 36.22772
154.8674, 36.38347
155.3495, 36.32853
155.8316, 36.00733
156.3138, 35.61240
156.7959, 35.05772
157.2780, 34.45581
157.7601, 34.02215
158.2422, 33.92467
158.7243, 33.90698
159.2065, 33.84473
159.6886, 33.70116
160.1707, 33.54261
160.6528, 33.38400
161.1349, 33.22372
161.6170, 33.05816
162.0992, 33.04382
162.5813, 32.93052
163.0634, 32.53640
163.5455, 31.63631
164.0276, 30.70592
164.5097, 29.85616
164.9919, 29.11766
165.4740, 28.61744
165.9561, 28.39869
166.4382, 28.45052
166.9203, 28.77959
167.4025, 29.71025
167.8846, 30.58669
168.3667, 31.03088
168.8488, 31.07146
169.3309, 30.87699
169.8130, 30.26773
170.2952, 29.55929
170.7773, 29.15814
171.2594, 29.56405
171.7415, 30.04602
172.2236, 29.81833
172.7057, 28.93577
173.1879, 28.21622
173.6700, 28.47930
174.1521, 29.29094
174.6342, 29.91625
175.1163, 30.00646
175.5984, 29.81013
176.0806, 29.54888
176.5627, 29.21987
177.0448, 28.95280
177.5269, 28.89334
178.0090, 28.98620
178.4911, 29.09917
178.9733, 29.26224
179.4554, 29.38493
179.9375, 29.26030
180.4196, 28.86379
180.9017, 28.46188
181.3839, 28.34511
181.8660, 28.46208
182.3481, 28.62722
182.8302, 28.73005
183.3123, 28.82287
183.7944, 29.08379
184.2766, 29.55931
184.7587, 29.99510
185.2408, 29.99048
185.7229, 29.61814
186.2050, 29.31966
186.6871, 29.40837
187.1693, 29.76361
187.6514, 29.95137
188.1335, 29.95691
188.6156, 29.79918
189.0977, 29.38075
189.5798, 28.72366
190.0620, 28.22518
190.5441, 28.10459
191.0262, 28.33056
191.5083, 28.54749
191.9904, 28.83812
192.4725, 29.02184
192.9547, 29.10441
193.4368, 28.78283
193.9189, 28.98312
194.4010, 28.97427
194.8831, 28.95684
195.3652, 29.23057
195.8474, 28.96779
196.3295, 29.23690
196.8116, 29.29369
197.2937, 29.44766
197.7758, 28.77275
198.2579, 28.77871
198.7401, 28.57550
199.2222, 28.36374
199.7043, 28.23451
200.1864, 28.49486
200.6685, 28.64831
201.1507, 28.70060
201.6328, 28.34874
202.1149, 28.51875
202.5970, 28.47962
203.0791, 28.43192
203.5612, 28.67537
204.0434, 28.38231
204.5255, 28.62115
205.0076, 28.64766
205.4897, 28.77134
205.9718, 28.68460
206.4539, 27.63720
206.9361, 27.90562
207.4182, 28.06713
207.9003, 28.12748
208.3824, 27.78369
208.8645, 27.96176
209.3466, 27.93069
209.8288, 27.89105
210.3109, 28.14257
210.7930, 27.85756
211.2751, 28.10447
211.7572, 28.13904
212.2393, 28.27079
212.7215, 28.19212
213.2036, 28.17844
213.6857, 28.14995
214.1678, 27.70698
214.6499, 27.37191
215.1321, 27.59503
215.6142, 27.71126
216.0963, 27.72632
216.5784, 27.33725
217.0605, 27.47005
217.5426, 27.39370
218.0248, 27.30877
218.5069, 27.51501
218.9890, 27.18472
219.4711, 27.38635
219.9532, 27.44750
220.4353, 27.43693
220.9175, 27.32517
221.3996, 26.80930
221.8817, 26.81529
222.3638, 27.23392
222.8459, 27.47363
223.3280, 27.61219
223.8102, 27.34663
224.2923, 27.60291
224.7744, 27.65005
225.2565, 27.68862
225.7386, 28.43747
226.2208, 28.79578
226.7029, 28.61072
227.1850, 28.02455
227.6671, 27.81379
228.1492, 28.19821
228.6313, 28.64530
229.1135, 28.78772
229.5956, 28.35341
230.0777, 28.24131
230.5598, 28.63441
231.0419, 29.41832
231.5240, 30.05002
232.0062, 30.54308
232.4883, 30.86767
232.9704, 30.97772
233.4525, 30.74196
233.9346, 30.58578
234.4167, 30.57882
234.8989, 30.68044
235.3810, 30.67146
235.8631, 30.37131
236.3452, 30.19802
236.8273, 30.42571
237.3095, 31.30205
237.7916, 32.05715
238.2737, 32.75088
238.7558, 33.30017
239.2379, 33.31012
239.7200, 32.38782
240.2022, 31.45626
240.6843, 31.05079
241.1664, 31.54092
241.6485, 31.73499
242.1306, 31.45342
242.6127, 30.83814
243.0949, 30.44627
243.5770, 30.39979
244.0591, 30.40787
244.5412, 30.31187
245.0233, 30.01404
245.5054, 29.84520
245.9876, 29.92103
246.4697, 30.11959
246.9518, 30.02059
247.4339, 29.40469
247.9160, 28.81733
248.3981, 28.55326
248.8803, 28.81054
249.3624, 28.90932
249.8445, 28.79563
250.3266, 28.52613
250.8087, 28.23144
251.2909, 27.83104
251.7730, 27.53814
252.2551, 27.50958
252.7372, 27.98964
253.2193, 28.07221
253.7014, 27.55589
254.1836, 26.73056
254.6657, 26.26898
255.1478, 26.28912
255.6299, 26.46734
256.1120, 26.72367
256.5941, 27.16253
257.0763, 27.31116
257.5584, 27.02246
258.0405, 26.53811
258.5226, 26.37106
259.0047, 26.67711
259.4868, 26.97700
259.9690, 27.09401
260.4511, 27.00564
260.9332, 26.80767
261.4153, 26.38752
261.8974, 25.95365
262.3795, 25.93334
262.8617, 26.56697
263.3438, 27.02980
263.8259, 26.96647
264.3080, 26.26579
264.7901, 25.84408
265.2722, 25.76715
265.7544, 25.88960
266.2365, 26.04902
266.7186, 26.30558
267.2007, 26.40479
267.6829, 26.17328
268.1650, 25.56983
268.6471, 25.39768
269.1292, 25.83470
269.6113, 26.41807
270.0934, 26.49619
270.5756, 25.88999
271.0577, 25.48692
271.5398, 25.64289
272.0219, 26.33280
272.5040, 26.56626
272.9861, 26.23415
273.4683, 25.68063
273.9504, 25.18361
274.4325, 24.70658
274.9146, 24.54176
275.3967, 24.91737
275.8788, 25.71574
276.3610, 25.88309
276.8431, 25.26652
277.3252, 24.48215
277.8073, 24.11543
278.2894, 24.20266
278.7715, 24.28764
279.2537, 24.26889
279.7358, 24.18170
280.2179, 24.17938
280.7000, 24.27408
281.1821, 24.40077
281.6642, 24.55468
282.1464, 24.73702
282.6285, 24.74921
283.1106, 24.50545
283.5927, 24.11584
284.0748, 23.87070
284.5569, 23.77604
285.0391, 23.76562
285.5212, 23.79577
286.0033, 23.86753
286.4854, 24.02044
286.9675, 24.30268
287.4496, 24.60098
287.9318, 24.63782
288.4139, 24.40878
288.8960, 24.20060
289.3781, 24.23050
289.8602, 24.44377
290.3424, 24.55463
290.8245, 24.52323
291.3066, 24.42407
291.7887, 24.37634
292.2708, 24.37343
292.7530, 24.35331
293.2351, 24.22745
293.7172, 24.05426
294.1993, 24.03273
294.6814, 24.18742
295.1635, 24.41899
295.6457, 24.66375
296.1278, 24.89878
296.6099, 25.02003
297.0920, 24.89496
297.5741, 24.63941
298.0562, 24.48642
298.5384, 24.44585
299.0205, 24.43627
299.5026, 24.41282
299.9847, 24.36128
300.4668, 24.23756
300.9489, 23.87881
301.4311, 23.51514
301.9132, 23.57585
302.3953, 24.04350
302.8774, 24.46746
303.3595, 24.38850
303.8416, 24.03211
304.3238, 23.79323
304.8059, 23.84465
305.2880, 24.02542
305.7701, 24.23980
306.2522, 24.47079
306.7343, 24.60196
307.2165, 24.36174
307.6986, 23.86057
308.1807, 24.12279
308.6628, 24.27811
309.1449, 24.33226
309.6270, 23.98228
310.1092, 24.15417
310.5913, 24.11691
311.0734, 24.07108
311.5555, 24.31641
312.0376, 24.02521
312.5197, 24.26592
313.0019, 24.29431
313.4840, 24.41987
313.9661, 24.33501
314.4482, 24.31513
314.9304, 24.50576
315.4125, 24.57983
315.8946, 24.47074
316.3767, 24.03281
316.8588, 23.77349
317.3409, 23.72675
317.8231, 23.84563
318.3052, 24.06723
318.7873, 24.57795
319.2694, 25.01030
319.7515, 25.22842
320.2336, 25.22141
320.7158, 24.83085
321.1979, 25.17173
321.6800, 25.40571
322.1621, 25.53853
322.6442, 25.26721
323.1263, 25.51775
323.6085, 25.55917
324.0906, 25.59200
324.5727, 25.91599
325.0548, 25.70346
325.5369, 26.02283
326.0190, 26.12988
326.5012, 26.33412
326.9833, 26.32791
327.4654, 26.38670
327.9475, 26.65599
328.4296, 26.33378
328.9117, 26.29762
329.3939, 26.30309
329.8760, 26.32352
330.3581, 26.37055
330.8402, 26.41167
331.3223, 26.46042
331.8044, 26.49913
332.2866, 26.49544
332.7687, 26.23728
333.2508, 26.56253
333.7329, 26.78088
334.2150, 26.89807
334.6971, 26.61112
335.1793, 26.84605
335.6614, 26.87182
336.1435, 26.88902
336.6256, 27.19738
337.1077, 26.96921
337.5899, 27.27297
338.0720, 27.36439
338.5541, 27.55298
339.0362, 27.10358
339.5183, 27.32543
340.0005, 27.44036
340.4826, 27.45415
340.9647, 27.06379
341.4468, 27.19530
341.9289, 27.11767
342.4110, 27.03146
342.8932, 27.23642
343.3753, 26.90484
343.8574, 27.10519
344.3395, 27.77918
344.8216, 27.70453
345.3037, 27.86610
345.7859, 27.92076
346.2680, 27.87426
346.7501, 27.42364
347.2322, 27.49487
347.7143, 27.35697
348.1964, 27.21048
348.6786, 27.35515
349.1607, 26.96330
349.6428, 27.10337
350.1249, 27.03110
350.6070, 27.05601
351.0891, 26.87049
351.5713, 26.74996
352.0534, 26.83993
352.5355, 26.79389
353.0176, 26.78111
353.4997, 26.66717
353.9818, 26.14908
354.4640, 26.15283
354.9461, 25.94746
355.4282, 25.73353
355.9103, 25.81074
356.3924, 25.65827
356.8745, 25.56414
357.3567, 25.06586
357.8388, 25.08945
358.3209, 24.90391
358.8030, 24.70979
359.2851, 24.68779
359.7672, 24.51172
360.2494, 24.59727
360.7315, 24.79265
361.2136, 24.81735
361.6957, 24.37288
362.1779, 23.88978
362.6600, 23.57440
363.1421, 23.45438
363.6242, 23.42144
364.1063, 23.48292
364.5884, 23.59964
365.0706, 23.73096
365.5527, 23.94383
366.0348, 24.09131
366.5169, 24.13876
366.9990, 24.08735
367.4811, 23.97178
367.9633, 23.70085
368.4454, 23.43035
368.9275, 23.25145
369.4096, 23.24325
369.8917, 23.21909
370.3738, 23.17207
370.8560, 23.10711
371.3381, 23.04705
371.8202, 23.06080
372.3023, 22.98401
372.7844, 22.72410
373.2665, 22.20862
373.7487, 21.81330
374.2308, 21.56485
374.7129, 21.40992
375.1950, 21.28266
375.6771, 21.19345
376.1592, 21.09734
376.6414, 20.97560
377.1235, 20.83338
377.6056, 20.70179
378.0877, 20.56249
378.5698, 20.49010
379.0519, 20.64257
379.5341, 21.02191
380.0162, 21.11148
380.4983, 20.72964
380.9804, 20.12181
381.4625, 19.89340
381.9446, 20.03345
382.4268, 20.19243
382.9089, 20.09000
383.3910, 19.82963
383.8731, 19.78878
384.3553, 20.03495
384.8374, 20.31483
385.3195, 20.29480
385.8016, 20.05897
386.2837, 19.85467
386.7658, 19.94052
387.2480, 20.04707
387.7301, 19.71366
388.2122, 18.96354
388.6943, 18.32032
389.1764, 18.21951
389.6585, 18.43962
390.1407, 18.73856
390.6228, 19.22301
391.1049, 19.51667
391.5870, 19.12406
392.0691, 18.29044
392.5512, 17.75475
393.0334, 18.18826
393.5155, 18.79688
393.9976, 19.05602
394.4797, 18.80178
394.9618, 18.51635
395.4439, 18.32902
395.9261, 18.20541
396.4082, 18.10026
396.8903, 17.92121
397.3724, 17.84045
397.8545, 17.94590
398.3366, 18.24707
398.8188, 18.50070
399.3009, 18.70175
399.7830, 18.84243
400.2651, 18.91979
400.7472, 18.97305
401.2293, 18.89427
401.7115, 18.57706
402.1936, 18.13296
402.6757, 17.91688
403.1578, 18.04836
403.6399, 18.20560
404.1220, 18.30735
404.6042, 18.40409
405.0863, 17.70821
405.5684, 17.79555
406.0505, 17.77597
406.5326, 17.65524
407.0147, 17.13036
407.4969, 18.54879
407.9790, 18.80593
408.4611, 18.36881
408.9432, 17.87062
409.4254, 17.29491
409.9075, 16.86256
410.3896, 16.81288
410.8717, 17.07141
411.3538, 17.31311
411.8359, 17.49071
412.3181, 17.62896
412.8002, 17.75381
413.2823, 17.86455
413.7644, 17.96783
414.2465, 18.21320
414.7286, 18.02798
415.2108, 18.13594
415.6929, 18.13702
416.1750, 18.03694
416.6571, 17.53272
417.1392, 17.55036
417.6213, 18.33937
418.1035, 18.27176
418.5856, 18.04295
419.0677, 17.90822
419.5498, 17.85422
420.0319, 17.83633
420.5140, 17.86152
420.9962, 17.89879
421.4783, 17.94228
421.9604, 18.02304
422.4425, 18.02328
422.9246, 17.76242
423.4067, 17.44978
423.8889, 17.36992
424.3710, 17.88904
424.8531, 18.29778
425.3352, 18.38370
425.8173, 18.14568
426.2994, 18.04542
426.7816, 18.23991
427.2637, 18.41381
427.7458, 18.32375
428.2279, 17.75207
428.7100, 17.46046
429.1921, 17.58854
429.6743, 17.96470
430.1564, 18.20341
430.6385, 18.29780
431.1206, 18.27938
431.6028, 18.11749
432.0849, 17.82039
432.5670, 17.60503
433.0491, 17.46574
433.5312, 17.43078
434.0133, 17.65036
434.4955, 18.06002
434.9776, 18.18254
435.4597, 17.76718
435.9418, 17.17383
436.4239, 17.10168
436.9060, 17.48020
437.3882, 17.85240
437.8703, 17.87922
438.3524, 17.73873
438.8345, 17.68126
439.3166, 17.73789
439.7987, 17.84447
440.2809, 17.98611
440.7630, 18.13790
441.2451, 18.25970
441.7272, 18.35313
442.2093, 18.39724
442.6914, 18.30630
443.1736, 18.11760
443.6557, 18.07405
444.1378, 18.43521
444.6199, 18.85449
445.1020, 19.13214
445.5841, 19.30092
446.0663, 19.20998
446.5484, 18.47452
447.0305, 17.54120
447.5126, 17.16224
447.9947, 17.82488
448.4768, 18.46979
448.9590, 18.92300
449.4411, 19.18299
449.9232, 19.14700
450.4053, 18.67416
450.8874, 18.10707
451.3695, 17.65386
451.8517, 17.27037
452.3338, 17.23768
452.8159, 17.73212
453.2980, 18.41467
453.7801, 18.50562
454.2622, 17.95881
454.7444, 17.49208
455.2265, 17.49469
455.7086, 17.85205
456.1907, 18.09240
456.6729, 18.21555
457.1550, 18.25725
457.6371, 18.28041
458.1192, 18.25039
458.6013, 18.04477
459.0834, 17.52618
459.5656, 17.02513
460.0477, 16.97286
460.5298, 17.24866
461.0119, 17.49671
461.4940, 17.55987
461.9761, 17.50688
462.4583, 17.35242
462.9404, 17.08687
463.4225, 16.87356
463.9046, 16.74498
464.3867, 16.72268
464.8688, 16.82968
465.3510, 17.27788
465.8331, 17.62290
466.3152, 17.62611
466.7973, 17.42389
467.2794, 17.37635
467.7615, 17.55396
468.2437, 17.62464
468.7258, 17.59419
469.2079, 17.15960
469.6900, 17.24686
470.1721, 17.12500
470.6542, 16.99455
471.1364, 17.15525
471.6185, 17.04237
472.1006, 17.22461
472.5827, 17.55893
473.0648, 17.93623
473.5469, 17.93324
474.0291, 17.50970
474.5112, 17.18035
474.9933, 17.33090
475.4754, 17.84268
475.9575, 18.21655
476.4396, 18.43299
476.9218, 18.52826
477.4039, 18.49554
477.8860, 18.37082
478.3681, 18.23333
478.8503, 18.08585
479.3324, 17.96328
479.8145, 17.90383
480.2966, 17.89949
480.7787, 17.92215
481.2608, 17.92804
481.7430, 17.97499
482.2251, 18.15174
482.7072, 18.51300
483.1893, 18.73470
483.6714, 18.70648
484.1535, 18.48212
484.6357, 17.66839
485.1178, 18.03596
485.5999, 18.29663
486.0820, 18.45614
486.5641, 18.21152
487.0462, 19.32200
487.5284, 18.72550
488.0105, 18.07976
488.4926, 17.88604
488.9747, 18.22918
489.4568, 18.49485
489.9389, 18.67524
490.4211, 18.78840
490.9032, 18.84225
491.3853, 18.83484
491.8674, 18.79623
492.3495, 18.70752
492.8316, 18.62060
493.3138, 18.69749
493.7959, 18.91978
494.2780, 19.07717
494.7601, 18.93953
495.2422, 18.67938
495.7243, 18.69757
496.2065, 19.02547
496.6886, 19.27242
497.1707, 18.96726
497.6528, 18.43929
498.1349, 18.14800
498.6170, 18.34402
499.0992, 18.62378
499.5813, 18.77726
500.0634, 18.84795
500.5455, 18.94463
501.0276, 19.15361
501.5097, 19.34967
501.9919, 19.43654
502.4740, 19.36740
502.9561, 19.48627
503.4382, 19.91403
503.9203, 20.27114
504.4025, 20.52137
504.8846, 20.67043
505.3667, 20.41534
505.8488, 20.68211
506.3309, 20.73975
506.8130, 20.78881
507.2952, 21.12905
507.7773, 20.93275
508.2594, 21.26835
508.7415, 21.39163
509.2236, 21.61209
509.7057, 21.72378
510.1879, 21.86053
510.6700, 21.59313
511.1521, 21.84758
511.6342, 21.89289
512.1163, 21.92962
512.5984, 22.25753
513.0806, 22.04894
513.5627, 22.37222
514.0448, 22.83267
514.5269, 23.06882
515.0090, 23.09199
515.4911, 22.72675
515.9733, 23.03621
516.4554, 23.23874
516.9375, 23.34013
517.4196, 23.03737
517.9017, 23.25646
518.3839, 23.26644
518.8660, 23.26783
519.3481, 23.56037
519.8302, 23.85792
520.3123, 23.98162
520.7944, 23.29556
521.2766, 22.77471
521.7587, 22.62890
522.2408, 22.74899
522.7229, 22.71354
523.2050, 22.51255
523.6871, 22.19526
524.1693, 21.66222
524.6514, 20.96344
525.1335, 20.71825
525.6156, 20.98503
526.0977, 21.32191
526.5798, 21.21804
527.0620, 20.81667
527.5441, 20.56269
528.0262, 20.61927
528.5083, 20.73742
528.9904, 20.63495
529.4725, 20.38405
529.9547, 20.16062
530.4368, 20.09476
530.9189, 20.05097
531.4010, 19.96270
531.8831, 19.82369
532.3652, 19.61359
532.8474, 19.19185
533.3295, 18.78641
533.8116, 18.54327
534.2937, 18.59556
534.7758, 18.61435
535.2579, 18.50497
535.7401, 18.40136
536.2222, 18.54723
536.7043, 19.18075
537.1865, 19.48520
537.6686, 19.14312
538.1507, 18.35562
538.6328, 18.15599
539.1149, 18.64261
539.5970, 19.09173
540.0792, 18.94574
540.5613, 18.35840
541.0434, 18.12254
541.5255, 18.30230
542.0076, 18.48022
542.4897, 18.06949
542.9719, 17.37709
543.4540, 17.05220
543.9361, 17.46492
544.4182, 17.96052
544.9003, 17.93147
545.3824, 17.59635
545.8646, 17.44124
546.3467, 17.93704
546.8288, 18.41027
547.3109, 18.48310
547.7930, 18.13115
548.2751, 17.91074
548.7573, 18.09763
549.2394, 18.28706
549.7215, 18.23779
550.2036, 17.73112
550.6857, 17.48310
551.1678, 17.54087
551.6500, 17.77574
552.1321, 17.99431
552.6142, 18.10598
553.0963, 18.11649
553.5784, 17.72286
554.0605, 17.85110
554.5427, 17.39325
555.0248, 17.63634
555.5069, 17.93227
555.9890, 18.12131
556.4711, 18.20918
556.9532, 17.89291
557.4354, 18.09852
557.9175, 18.09498
558.3996, 18.08286
558.8817, 18.36191
559.3638, 18.10442
559.8459, 18.37885
560.3281, 18.44096
560.8102, 18.60023
561.2923, 18.54908
561.7744, 18.56293
562.2565, 17.94878
562.7386, 17.60981
563.2208, 17.69166
563.7029, 18.13098
564.1850, 18.50173
564.6671, 18.79375
565.1492, 19.03080
565.6313, 19.26902
566.1135, 19.52892
566.5956, 19.41972
567.0777, 18.85328
567.5598, 18.23046
568.0419, 17.94932
568.5240, 17.97551
569.0062, 18.14422
569.4883, 18.45968
569.9704, 18.81397
570.4525, 19.14874
570.9346, 19.41784
571.4167, 19.49017
571.8989, 18.89829
572.3810, 18.42887
572.8631, 18.84598
573.3452, 19.07216
573.8273, 19.19144
574.3094, 19.20956
574.7916, 18.82354
575.2737, 18.95939
575.7558, 18.88610
576.2379, 18.80423
576.7200, 19.01353
577.2021, 18.68629
577.6843, 18.73657
578.1664, 18.72950
578.6485, 18.78497
579.1306, 18.94239
579.6127, 19.12790
580.0948, 19.21513
580.5770, 19.20440
581.0591, 19.07145
581.5412, 18.73162
582.0233, 18.30558
582.5054, 18.02664
582.9875, 17.89720
583.4697, 17.91351
583.9518, 18.15200
584.4340, 18.49572
584.9161, 18.89347
585.3982, 19.36996
585.8803, 19.59466
586.3624, 19.18064
586.8445, 18.54922
587.3267, 18.08760
587.8088, 17.94219
588.2909, 17.88346
588.7730, 17.93855
589.2551, 18.05145
589.7372, 18.12234
590.2194, 18.09861
590.7015, 18.14150
591.1836, 18.31685
591.6657, 18.58935
592.1478, 18.77805
592.6299, 18.87844
593.1121, 18.91607
593.5942, 18.90568
594.0763, 18.84446
594.5584, 18.70472
595.0405, 18.48420
595.5226, 18.25159
596.0048, 17.94162
596.4869, 17.70001
596.9690, 17.78943
597.4511, 18.42123
597.9332, 18.99261
598.4153, 19.10054
598.8975, 18.94192
599.3796, 18.81697
599.8617, 18.79975
600.3438, 18.82624
600.8259, 18.92238
601.3080, 19.05893
601.7902, 19.11946
602.2723, 19.08758
602.7544, 19.00248
603.2365, 18.84520
603.7186, 18.61999
604.2007, 18.53363
604.6829, 18.60465
605.1650, 18.72698
605.6471, 18.85525
606.1292, 18.96815
606.6113, 18.94631
607.0934, 18.75228
607.5756, 18.57093
608.0577, 18.57399
608.5398, 18.72509
609.0219, 18.97908
609.5040, 19.48181
609.9861, 19.86364
610.4683, 19.83195
610.9504, 19.53724
611.4325, 19.30211
611.9146, 19.14084
612.3967, 19.12516
612.8788, 19.41599
613.3610, 19.96041
613.8431, 20.10671
614.3252, 19.62003
614.8073, 19.12915
615.2894, 18.95799
615.7715, 19.12598
616.2537, 19.27869
616.7358, 19.41387
617.2179, 19.42875
617.7000, 19.72208
618.1821, 19.90850
618.6642, 19.99376
619.1464, 19.67490
619.6285, 19.87788
620.1106, 19.87173
620.5927, 19.85701
621.0748, 20.13345
621.5569, 19.87335
622.0391, 20.14518
622.5212, 20.20467
623.0033, 20.36134
623.4854, 20.30758
623.9675, 20.31882
624.4496, 20.53668
624.9318, 20.24364
625.4139, 20.55214
625.8960, 20.75375
626.3781, 20.85421
626.8602, 20.55052
627.3423, 20.76869
627.8245, 20.77774
628.3066, 20.77819
628.7887, 21.06982
629.2708, 21.03427
629.7529, 20.96723
630.2350, 20.76561
630.7172, 20.64515
631.1993, 20.64568
631.6815, 20.75558
632.1636, 21.08246
632.6457, 21.48604
633.1278, 21.74849
633.6099, 21.71704
634.0920, 21.61753
634.5742, 21.42609
635.0563, 21.20748
635.5384, 21.20465
636.0205, 21.64773
636.5026, 21.97923
636.9847, 21.98990
637.4669, 21.70560
637.9490, 21.56392
638.4311, 21.60233
638.9132, 21.61053
639.3953, 21.41553
639.8774, 21.06215
640.3596, 20.73273
640.8417, 20.42899
641.3238, 20.22156
641.8059, 20.19122
642.2880, 20.29674
642.7701, 20.51965
643.2523, 20.94637
643.7344, 21.24373
644.2165, 21.10396
644.6986, 20.78172
645.1807, 20.61727
645.6628, 20.86524
646.1450, 21.05023
646.6271, 21.08410
647.1092, 21.01895
647.5913, 20.99074
648.0734, 21.02479
648.5555, 21.01954
649.0377, 20.91527
649.5198, 20.75026
650.0019, 20.68229
650.4840, 20.71014
650.9661, 20.83587
651.4482, 21.22776
651.9304, 21.66091
652.4125, 21.63072
652.8946, 21.12987
653.3767, 20.75187
653.8588, 21.06417
654.3409, 21.56225
654.8231, 21.80217
655.3052, 21.59773
655.7873, 21.45258
656.2694, 21.54384
656.7515, 21.70594
657.2336, 21.78075
657.7158, 21.73876
658.1979, 21.65532
658.6800, 21.47696
659.1621, 21.32476
659.6442, 21.49959
660.1263, 22.00628
660.6085, 22.31187
661.0906, 22.17826
661.5727, 21.84036
662.0548, 21.69401
662.5369, 21.70313
663.0190, 21.73026
663.5012, 21.64114
663.9833, 21.58932
664.4654, 21.74951
664.9475, 22.09031
665.4296, 22.35119
665.9117, 22.46589
666.3939, 22.46511
666.8760, 22.31046
667.3581, 21.95755
667.8402, 21.76809
668.3223, 21.74542
668.8044, 21.87812
669.2866, 22.22327
669.7687, 22.79761
670.2508, 23.18820
670.7329, 23.35717
671.2150, 23.41477
671.6971, 23.43957
672.1793, 23.45414
672.6614, 23.51378
673.1435, 23.62807
673.6256, 23.79922
674.1077, 24.09788
674.5898, 24.43990
675.0720, 24.69140
675.5541, 24.79581
676.0362, 24.82524
676.5183, 24.73992
677.0004, 24.59344
677.4825, 24.50430
677.9647, 24.34903
678.4468, 24.52264
678.9290, 25.32022
679.4111, 26.51410
679.8932, 26.90421
680.3753, 26.43674
680.8574, 26.02539
681.3395, 26.36909
681.8217, 27.08918
682.3038, 27.33823
682.7859, 27.14107
683.2680, 26.92005
683.7501, 26.84646
684.2322, 26.94458
684.7144, 27.30928
685.1965, 28.01434
685.6786, 28.55615
686.1607, 28.58914
686.6428, 28.55610
687.1249, 28.80874
687.6071, 29.65264
688.0892, 30.02842
688.5713, 29.74514
689.0534, 29.30101
689.5355, 29.28852
690.0176, 29.69564
690.4998, 30.30350
690.9819, 31.17487
691.4640, 31.93992
691.9461, 31.94775
692.4282, 31.45926
692.9103, 31.04926
693.3925, 31.04182
693.8746, 31.04727
694.3567, 30.80913
694.8388, 30.41654
695.3209, 30.07941
695.8030, 29.81480
696.2852, 29.65123
696.7673, 29.63885
697.2494, 29.73648
697.7315, 29.72673
698.2136, 29.58310
698.6957, 29.42015
699.1779, 29.30428
699.6600, 29.20831
700.1421, 29.01397
700.6242, 28.72307
701.1063, 28.37558
701.5884, 27.98138
702.0706, 27.55639
702.5527, 27.08329
703.0348, 26.56281
703.5169, 26.14149
703.9990, 25.87720
704.4811, 25.75243
704.9633, 25.80581
705.4454, 26.19781
705.9275, 26.29200
706.4096, 25.89538
706.8917, 25.41537
707.3738, 25.25386
707.8560, 25.47333
708.3381, 25.43286
708.8202, 25.05357
709.3023, 24.51966
709.7844, 23.93491
710.2665, 23.38247
710.7487, 23.13065
711.2308, 23.37560
711.7129, 23.61167
712.1950, 23.36179
712.6771, 22.86416
713.1592, 22.47727
713.6414, 22.48572
714.1235, 22.41669
714.6056, 22.04287
715.0877, 21.54622
715.5698, 21.31306
716.0519, 21.45323
716.5341, 21.57723
717.0162, 21.61770
717.4983, 21.55980
717.9804, 21.26773
718.4625, 20.76564
718.9446, 20.42996
719.4268, 20.58752
719.9089, 20.91711
720.3910, 21.01232
720.8731, 20.90848
721.3552, 20.75973
721.8373, 20.66078
722.3195, 20.52235
722.8016, 20.19386
723.2837, 19.67561
723.7658, 19.54670
724.2479, 20.20367
724.7300, 20.73301
725.2122, 20.65551
725.6943, 19.96096
726.1765, 19.43479
726.6586, 19.08057
727.1407, 18.83662
727.6228, 18.60501
728.1049, 18.44894
728.5870, 18.62968
729.0692, 19.17952
729.5513, 19.58123
730.0334, 19.26148
730.5155, 18.73657
730.9976, 18.51654
731.4797, 18.80600
731.9619, 19.01630
732.4440, 19.06828
732.9261, 18.98396
733.4082, 18.74734
733.8903, 18.28765
734.3724, 17.89868
734.8546, 17.57170
735.3367, 17.37915
735.8188, 17.46689
736.3009, 17.78607
736.7830, 18.13892
737.2651, 18.52043
737.7473, 18.80649
738.2294, 18.84041
738.7115, 18.70588
739.1936, 18.52246
739.6757, 18.21328
740.1578, 18.00734
740.6400, 18.04553
741.1221, 18.20614
741.6042, 18.28193
742.0863, 18.26894
742.5684, 18.16120
743.0505, 17.89978
743.5327, 17.60190
744.0148, 17.63181
744.4969, 17.94989
744.9790, 18.00653
745.4611, 17.37235
745.9432, 16.65584
746.4254, 16.80857
746.9075, 17.52681
747.3896, 18.02432
747.8717, 17.72360
748.3538, 17.36001
748.8359, 17.28148
749.3181, 17.42599
749.8002, 17.42928
750.2823, 17.15598
750.7644, 16.96179
751.2465, 16.98436
751.7286, 17.16936
752.2108, 17.24084
752.6929, 17.19673
753.1750, 17.17048
753.6571, 17.23009
754.1392, 17.35818
754.6213, 17.58754
755.1035, 17.88697
755.5856, 18.06852
756.0677, 18.01839
756.5498, 17.83257
757.0319, 17.44126
757.5140, 16.83868
757.9962, 16.65700
758.4783, 17.30652
758.9604, 17.82617
759.4425, 17.67163
759.9246, 16.87152
760.4067, 16.64387
760.8889, 17.04705
761.3710, 17.50326
761.8531, 17.56442
762.3352, 17.38778
762.8173, 17.22087
763.2994, 17.08257
763.7816, 17.06136
764.2637, 17.38040
764.7458, 17.71823
765.2279, 17.81518
765.7100, 17.59170
766.1921, 17.40539
766.6743, 17.26952
767.1564, 17.18564
767.6385, 17.15875
768.1206, 17.19172
768.6027, 17.25261
769.0848, 17.34092
769.5670, 17.46096
770.0491, 17.72613
770.5312, 18.00009
771.0133, 17.95022
771.4954, 17.50902
771.9775, 17.08566
772.4597, 16.95003
772.9418, 16.93906
773.4240, 16.90196
773.9061, 16.74808
774.3882, 16.76508
774.8703, 17.08757
775.3524, 17.43749
775.8345, 17.56617
776.3167, 17.45349
776.7988, 17.35053
777.2809, 17.26204
777.7630, 17.24131
778.2451, 17.41228
778.7272, 17.67975
779.2094, 17.85715
779.6915, 17.90210
780.1736, 17.87951
780.6557, 17.69571
781.1378, 17.53331
781.6199, 17.58280
782.1021, 18.14824
782.5842, 18.45149
783.0663, 18.38628
783.5484, 18.17636
784.0305, 18.06560
784.5126, 18.05737
784.9948, 18.01818
785.4769, 17.93652
785.9590, 17.80471
786.4411, 17.57054
786.9232, 17.29077
787.4053, 17.05336
787.8875, 16.85780
788.3696, 16.76803
788.8517, 16.85851
789.3338, 17.04710
789.8159, 17.25051
790.2980, 17.56630
790.7802, 17.67939
791.2623, 17.45582
791.7444, 17.19195
792.2265, 17.35326
792.7086, 17.90864
793.1907, 18.26296
793.6729, 18.28617
794.1550, 18.23174
794.6371, 18.50630
795.1192, 18.86436
795.6013, 18.87093
796.0834, 18.16520
796.5656, 17.58781
797.0477, 17.57831
797.5298, 17.79068
798.0119, 17.78599
798.4940, 17.41509
798.9761, 17.16282
799.4583, 17.07940
799.9404, 17.09298
800.4225, 17.11231
800.9046, 17.14109
801.3867, 17.20078
801.8688, 17.29473
802.3510, 17.42257
802.8331, 17.65088
803.3152, 17.88855
803.7973, 18.00633
804.2794, 17.94507
804.7615, 17.80756
805.2437, 17.52115
805.7258, 17.21992
806.2079, 17.04477
806.6900, 17.01328
807.1721, 17.04499
807.6542, 17.13936
808.1364, 17.27387
808.6185, 17.46436
809.1006, 17.67146
809.5827, 17.75732
810.0648, 17.65193
810.5469, 17.55473
811.0291, 17.59704
811.5112, 17.73764
811.9933, 17.93916
812.4754, 18.47009
812.9575, 18.59198
813.4396, 17.98642
813.9218, 17.24833
814.4039, 17.14124
814.8860, 17.72023
815.3681, 17.98319
815.8502, 17.77423
816.3323, 17.44228
816.8145, 17.39181
817.2966, 17.50954
817.7787, 17.58314
818.2608, 17.53668
818.7429, 17.54316
819.2251, 17.83785
819.7072, 18.14070
820.1893, 18.14741
820.6714, 17.62525
821.1536, 17.29865
821.6357, 17.18945
822.1178, 17.23692
822.5999, 17.45198
823.0820, 17.79420
823.5641, 17.99333
824.0463, 18.01614
824.5284, 17.92237
825.0105, 17.62153
825.4926, 17.30722
825.9747, 17.23522
826.4568, 17.53770
826.9390, 17.78862
827.4211, 17.93737
827.9032, 17.96323
828.3853, 17.76233
828.8674, 17.18006
829.3495, 17.26297
829.8317, 18.17575
830.3138, 19.05645
830.7959, 18.85119
831.2780, 18.03833
831.7601, 17.68573
832.2422, 17.92662
832.7244, 18.17492
833.2065, 17.82358
833.6886, 17.34866
834.1707, 17.70936
834.6528, 17.96314
835.1349, 18.11578
835.6171, 17.86431
836.0992, 18.13466
836.5813, 18.19588
837.0634, 18.24854
837.5455, 18.59234
838.0276, 17.90840
838.5098, 17.43709
838.9919, 17.51958
839.4740, 17.79891
839.9561, 17.89561
840.4382, 17.78412
840.9203, 17.64023
841.4025, 17.32991
841.8846, 17.19912
842.3667, 17.47599
842.8488, 18.14772
843.3309, 18.52211
843.8130, 18.57082
844.2952, 18.48125
844.7773, 18.28146
845.2594, 18.04650
845.7415, 17.98596
846.2236, 18.06770
846.7057, 18.12033
847.1879, 17.95522
847.6700, 17.82063
848.1521, 17.90003
848.6342, 18.16590
849.1163, 18.33955
849.5984, 18.42478
850.0806, 18.38554
850.5627, 18.16746
851.0448, 17.83953
851.5269, 17.62484
852.0090, 17.51605
852.4911, 17.45107
852.9733, 17.33219
853.4554, 17.30973
853.9375, 17.68303
854.4196, 18.25810
854.9017, 18.55702
855.3839, 18.15484
855.8660, 17.80656
856.3481, 17.68244
856.8302, 17.69037
857.3123, 17.62591
857.7944, 17.48267
858.2766, 17.33660
858.7587, 17.18574
859.2408, 17.08426
859.7229, 16.89159
860.2050, 17.07796
860.6871, 17.15744
861.1693, 17.13574
861.6514, 16.51597
862.1335, 16.80085
862.6156, 16.97884
863.0977, 17.05566
863.5798, 16.72834
864.0620, 16.92290
864.5441, 16.90831
865.0262, 17.22846
865.5083, 17.09275
865.9904, 16.71455
866.4726, 16.66645
866.9547, 17.10945
867.4368, 17.53114
867.9189, 17.58823
868.4011, 17.44324
868.8832, 17.22436
869.3653, 16.84958
869.8474, 16.67982
870.3295, 16.81561
870.8116, 16.99598
871.2938, 17.03888
871.7759, 16.94728
872.2580, 16.72668
872.7401, 16.37426
873.2222, 16.02878
873.7043, 15.75541
874.1865, 15.57246
874.6686, 15.51581
875.1507, 15.58765
875.6328, 15.69187
876.1149, 15.92759
876.5970, 16.05090
877.0792, 15.91871
877.5613, 15.56869
878.0434, 15.41467
878.5255, 15.46498
879.0076, 15.28207
879.4897, 15.48267
879.9719, 15.57635
880.4540, 15.56888
880.9361, 15.15728
881.4182, 15.26753
881.9003, 15.16865
882.3824, 15.06119
882.8646, 15.24488
883.3467, 14.85405
883.8288, 14.77859
884.3109, 15.06808
884.7930, 15.25066
885.2751, 15.33208
885.7573, 15.00937
886.2394, 15.20851
886.7215, 15.19851
887.2036, 15.17994
887.6857, 15.45253
888.1678, 15.18859
888.6500, 15.59092
889.1321, 15.47534
889.6142, 15.33386
890.0963, 15.14625
890.5784, 15.00939
891.0605, 14.93282
891.5427, 14.89865
892.0248, 14.92900
892.5069, 14.98185
892.9890, 14.88304
893.4711, 14.58448
893.9532, 14.38762
894.4354, 14.58743
894.9175, 14.91458
895.3996, 15.18713
895.8817, 15.41156
896.3638, 15.40203
896.8459, 15.06038
897.3281, 14.68886
897.8102, 14.48453
898.2923, 14.41633
898.7744, 14.32794
899.2565, 14.22159
899.7386, 14.12333
900.2208, 14.00269
900.7029, 13.93520
901.1850, 13.98169
901.6671, 14.13596
902.1492, 14.35444
902.6313, 14.75706
903.1135, 14.97360
903.5956, 14.53586
904.0777, 14.73412
904.5598, 14.82548
905.0419, 14.81569
905.5240, 14.40175
906.0062, 14.50966
906.4883, 14.40845
906.9704, 14.29866
907.4525, 14.48003
907.9346, 14.12487
908.4167, 14.30163
908.8989, 14.26604
909.3810, 14.32764
909.8631, 14.18771
910.3452, 14.22027
910.8273, 14.31616
911.3094, 14.36426
911.7916, 14.35637
912.2737, 14.25583
912.7558, 13.84169
913.2380, 13.42354
913.7201, 13.41587
914.2022, 13.99692
914.6843, 14.30626
915.1664, 13.93788
915.6486, 13.62279
916.1307, 13.81868
916.6128, 14.48033
917.0949, 14.81186
917.5770, 14.81473
918.0591, 14.71852
918.5413, 14.56708
919.0234, 14.46908
919.5055, 14.69457
919.9876, 15.11312
920.4697, 15.18396
920.9518, 14.22213
921.4340, 13.56231
921.9161, 13.58277
922.3982, 14.03245
922.8803, 14.33091
923.3624, 14.47644
923.8445, 14.46550
924.3267, 14.23970
924.8088, 13.99523
925.2909, 14.07951
925.7730, 14.23884
926.2551, 14.22897
926.7372, 14.58387
927.2194, 14.83191
927.7015, 14.97876
928.1836, 14.72149
928.6657, 14.98609
929.1478, 14.80974
929.6299, 14.77672
930.1121, 14.50432
930.5942, 14.28744
931.0763, 14.49560
931.5584, 14.81991
932.0405, 14.88676
932.5226, 14.66625
933.0048, 14.56311
933.4869, 14.89940
933.9690, 15.06772
934.4511, 14.73787
934.9332, 14.07407
935.4153, 14.00579
935.8975, 14.50444
936.3796, 14.97040
936.8617, 15.17311
937.3438, 15.16241
937.8259, 14.77492
938.3080, 14.24300
938.7902, 14.03918
939.2723, 14.78832
939.7544, 15.16114
940.2365, 14.84707
940.7186, 14.30572
941.2007, 14.23566
941.6829, 14.58347
942.1650, 14.71067
942.6471, 14.52287
943.1292, 14.18714
943.6113, 13.63535
944.0934, 13.15182
944.5756, 13.05481
945.0577, 13.46389
945.5398, 13.84003
946.0219, 14.26999
946.5040, 14.44280
946.9861, 14.08954
947.4683, 13.32862
947.9504, 12.89644
948.4325, 12.76632
948.9146, 12.73327
949.3967, 12.68544
949.8788, 12.68294
950.3610, 12.87842
950.8431, 13.15824
951.3252, 13.15739
951.8073, 12.59102
952.2894, 12.24116
952.7715, 12.22982
953.2537, 12.46706
953.7358, 12.93135
954.2179, 13.53451
954.7000, 13.91020
955.1821, 13.95627
955.6642, 13.88150
956.1464, 13.86771
956.6285, 13.77543
957.1106, 13.42090
957.5927, 12.68506
958.0748, 12.21318
958.5569, 12.05590
959.0391, 12.02496
959.5212, 11.98983
960.0033, 11.98466
960.4855, 12.15055
960.9676, 12.45964
961.4497, 12.74841
961.9318, 12.92546
962.4139, 13.06841
962.8961, 13.26933
963.3782, 13.45608
963.8603, 13.40545
964.3424, 13.03741
964.8245, 12.78703
965.3066, 12.76833
965.7888, 12.82585
966.2709, 12.62460
966.7530, 12.36197
967.2351, 12.51822
967.7172, 13.41947
968.1993, 13.95140
968.6815, 13.30950
969.1636, 12.46671
969.6457, 12.11007
970.1278, 12.29016
970.6099, 12.35096
971.0920, 12.29395
971.5742, 12.10094
972.0563, 11.42968
972.5384, 10.83320
973.0205, 11.29557
973.5026, 12.52644
973.9847, 13.31038
974.4669, 12.62400
974.9490, 12.27160
975.4311, 12.83887
975.9132, 13.78956
976.3953, 14.04698
976.8774, 13.64530
977.3596, 12.97322
977.8417, 12.00636
978.3238, 11.28969
978.8059, 11.48951
979.2880, 12.11572
979.7701, 12.71647
980.2523, 13.36120
980.7344, 13.35447
981.2165, 12.25955
981.6986, 11.31120
982.1807, 11.44725
982.6628, 12.35687
983.1450, 12.55678
983.6271, 12.16597
984.1092, 11.92918
984.5913, 12.64347
985.0734, 13.25131
985.5555, 12.91276
986.0377, 12.04889
986.5198, 11.85746
987.0019, 12.63948
987.4840, 13.06083
987.9661, 12.83377
988.4482, 12.42645
988.9304, 12.59190
989.4125, 13.00719
989.8946, 12.99217
990.3767, 12.35221
990.8588, 11.79973
991.3409, 11.58637
991.8231, 11.60008
992.3052, 11.83459
992.7873, 12.27133
993.2694, 12.43282
993.7515, 12.30532
994.2336, 12.30990
994.7158, 12.94725
995.1979, 13.59529
995.6800, 13.28696
996.1621, 12.44829
996.6442, 12.07555
997.1263, 13.09130
997.6085, 13.66813
998.0906, 13.50921
998.5727, 13.01395
999.0548, 12.58909
999.5369, 12.25777
1000.019, 12.23305
1000.501, 12.55531
1000.983, 12.87383
1001.465, 12.91480
1001.948, 12.86830
1002.430, 12.87713
1002.912, 12.95160
1003.394, 13.00839
1003.876, 13.08175
1004.358, 13.00462
1004.840, 12.60394
1005.322, 12.14484
1005.804, 12.24569
1006.287, 12.69988
1006.769, 12.99834
1007.251, 12.84686
1007.733, 12.67555
1008.215, 12.61211
1008.697, 12.59112
1009.179, 12.55062
1009.661, 12.48531
1010.144, 12.46103
1010.626, 12.47952
1011.108, 12.54540
1011.590, 12.73694
1012.072, 12.92271
1012.554, 12.98610
1013.036, 12.92178
1013.518, 12.73944
1014.000, 12.28585
1014.483, 11.99240
1014.965, 11.99017
1015.447, 12.16931
1015.929, 12.39486
1016.411, 12.61663
1016.893, 12.61084
1017.375, 12.24277
1017.857, 11.92231
1018.340, 12.07099
1018.822, 12.25371
1019.304, 11.97411
1019.786, 11.08329
1020.268, 11.04485
1020.750, 12.00377
1021.232, 12.88794
1021.714, 12.96714
1022.196, 12.58924
1022.679, 12.05876
1023.161, 11.51531
1023.643, 11.36874
1024.125, 12.30089
1024.607, 12.90645
1025.089, 12.84828
1025.571, 12.50132
1026.053, 12.34492
1026.536, 12.37149
1027.018, 12.59994
1027.500, 13.05734
1027.982, 13.27158
1028.464, 12.43584
1028.946, 11.56147
1029.428, 11.61030
1029.910, 12.61168
1030.392, 13.03837
1030.875, 12.74877
1031.357, 12.39550
1031.839, 12.17065
1032.321, 12.06737
1032.803, 12.17057
1033.285, 12.37158
1033.767, 12.42630
1034.249, 12.14164
1034.732, 11.94422
1035.214, 11.97524
1035.696, 12.09250
1036.178, 12.22137
1036.660, 12.36009
1037.142, 12.38566
1037.624, 12.30331
1038.106, 12.26697
1038.589, 12.39074
1039.071, 12.59046
1039.553, 12.86778
1040.035, 13.17077
1040.517, 13.34032
1040.999, 13.34761
1041.481, 13.27490
1041.963, 13.09639
1042.445, 12.94511
1042.927, 13.14281
1043.410, 13.44989
1043.892, 13.33197
1044.374, 12.66643
1044.856, 12.09832
1045.338, 11.84233
1045.820, 11.78197
1046.302, 11.93813
1046.784, 12.24244
1047.267, 12.26118
1047.749, 12.03236
1048.231, 12.03543
1048.713, 12.68102
1049.195, 13.23185
1049.677, 12.96143
1050.159, 12.30752
1050.641, 11.86571
1051.124, 11.73987
1051.606, 11.67285
1052.088, 11.67266
1052.570, 11.70264
1053.052, 11.65859
1053.534, 11.65955
1054.016, 12.08395
1054.498, 12.80553
1054.980, 13.22018
1055.463, 12.79874
1055.945, 12.40902
1056.427, 12.27749
1056.909, 12.26659
1057.391, 12.10938
1057.873, 11.84254
1058.355, 11.81701
1058.837, 12.11059
1059.319, 12.36820
1059.802, 12.23634
1060.284, 12.02169
1060.766, 11.95240
1061.248, 12.03104
1061.730, 12.12214
1062.212, 12.22576
1062.694, 12.35530
1063.176, 12.56148
1063.659, 12.71443
1064.141, 12.48402
1064.623, 12.11071
1065.105, 12.04269
1065.587, 12.71623
1066.069, 12.95177
1066.551, 12.45180
1067.033, 11.80574
1067.516, 11.35880
1067.998, 11.11487
1068.480, 11.22786
1068.962, 11.62639
1069.444, 11.91005
1069.926, 11.66659
1070.408, 11.46768
1070.890, 11.72010
1071.372, 12.12080
1071.854, 12.19617
1072.337, 11.91217
1072.819, 11.59387
1073.301, 11.25680
1073.783, 11.06038
1074.265, 11.30028
1074.747, 11.65380
1075.229, 11.80988
1075.711, 11.75280
1076.194, 11.63711
1076.676, 11.45763
1077.158, 11.25974
1077.640, 11.01825
1078.122, 10.83539
1078.604, 10.89987
1079.086, 11.15587
1079.568, 11.53383
1080.051, 12.09469
1080.533, 12.45942
1081.015, 12.40388
1081.497, 12.20179
1081.979, 11.94765
1082.461, 11.65682
1082.943, 11.37919
1083.425, 11.12773
1083.907, 11.02278
1084.390, 11.21937
1084.872, 11.43984
1085.354, 11.53811
1085.836, 11.53989
1086.318, 11.45918
1086.800, 11.22437
1087.282, 11.27333
1087.764, 11.65562
1088.247, 11.97818
1088.729, 11.78869
1089.211, 11.47179
1089.693, 11.56096
1090.175, 11.93333
1090.657, 12.05090
1091.139, 11.60850
1091.621, 11.29813
1092.104, 11.20380
1092.586, 11.28380
1093.068, 11.64636
1093.550, 12.10096
1094.032, 12.13657
1094.514, 11.69304
1094.996, 11.32722
1095.478, 11.34934
1095.960, 11.42512
1096.443, 11.40875
1096.925, 11.36151
1097.407, 11.53979
1097.889, 11.89187
1098.371, 12.01887
1098.853, 11.77336
1099.335, 11.43646
1099.817, 10.97958
1100.299, 10.69512
1100.782, 10.99342
1101.264, 11.90296
1101.746, 12.01059
1102.228, 11.24639
1102.710, 10.63757
1103.192, 10.81802
1103.674, 11.24631
1104.156, 11.34621
1104.639, 11.25425
1105.121, 11.19460
1105.603, 11.25341
1106.085, 11.25807
1106.567, 11.21191
1107.049, 11.10185
1107.531, 10.80231
1108.013, 10.48229
1108.495, 10.60147
1108.978, 11.02636
1109.460, 11.20962
1109.942, 10.66046
1110.424, 10.24253
1110.906, 10.10491
1111.388, 10.15190
1111.870, 10.23338
1112.352, 10.38581
1112.834, 10.96744
1113.317, 11.97960
1113.799, 12.46421
1114.281, 11.24085
1114.763, 10.01355
1115.245, 9.633010
1115.727, 9.852163
1116.209, 10.13880
1116.691, 10.49125
1117.174, 10.81297
1117.656, 11.11650
1118.138, 11.20176
1118.620, 10.68801
1119.102, 10.03900
1119.584, 9.626552
1120.066, 9.467752
1120.548, 9.518894
1121.031, 9.802632
1121.513, 10.14394
1121.995, 10.49524
1122.477, 10.84101
1122.959, 11.33337
1123.441, 11.74226
1123.923, 11.68527
1124.405, 10.80455
1124.887, 10.37011
1125.370, 10.57785
1125.852, 10.72090
1126.334, 10.19531
1126.816, 9.460925
1127.298, 9.570330
1127.780, 10.24430
1128.262, 10.81745
1128.744, 11.09217
1129.227, 11.17444
1129.709, 11.00062
1130.191, 10.78307
1130.673, 10.70868
1131.155, 10.74378
1131.637, 10.83232
1132.119, 10.93106
1132.601, 10.81225
1133.083, 9.993754
1133.566, 9.395807
1134.048, 9.429679
1134.530, 9.741919
1135.012, 9.877823
1135.494, 9.856823
1135.976, 9.968903
1136.458, 10.23613
1136.940, 10.29342
1137.422, 9.576094
1137.905, 8.884823
1138.387, 8.664597
1138.869, 8.844296
1139.351, 9.390355
1139.833, 10.33616
1140.315, 10.92286
1140.797, 10.99888
1141.279, 10.82228
1141.762, 10.46345
1142.244, 10.07951
1142.726, 9.752540
1143.208, 9.510455
1143.690, 9.560102
1144.172, 9.962569
1144.654, 10.31177
1145.136, 10.50958
1145.619, 10.52695
1146.101, 10.13171
1146.583, 9.637496
1147.065, 9.449799
1147.547, 9.708463
1148.029, 9.885008
1148.511, 9.935469
1148.993, 10.01794
1149.475, 10.20196
1149.958, 10.45463
1150.440, 10.92032
1150.922, 11.36101
1151.404, 11.28404
1151.886, 10.13408
1152.368, 9.595559
1152.850, 10.01718
1153.332, 10.50721
1153.814, 10.47708
1154.297, 10.13660
1154.779, 9.924846
1155.261, 9.851462
1155.743, 9.952579
1156.225, 10.61658
1156.707, 10.87368
1157.189, 10.50734
1157.671, 9.909868
1158.154, 9.199575
1158.636, 8.539032
1159.118, 8.886426
1159.600, 10.01156
1160.082, 10.72833
1160.564, 9.818613
1161.046, 9.288770
1161.528, 10.00699
1162.010, 11.00248
1162.493, 11.03764
1162.975, 10.29452
1163.457, 10.06057
1163.939, 10.36592
1164.421, 10.67436
1164.903, 10.76605
1165.385, 10.67512
1165.867, 10.29690
1166.349, 9.826592
1166.832, 9.609208
1167.314, 9.620498
1167.796, 9.517197
1168.278, 9.257772
1168.760, 9.140935
1169.242, 9.483691
1169.724, 9.929106
1170.206, 10.39452
1170.689, 10.76416
1171.171, 10.65107
1171.653, 10.06430
1172.135, 9.655506
1172.617, 9.550399
1173.099, 9.608865
1173.581, 9.926212
1174.063, 10.18491
1174.546, 10.03781
1175.028, 9.597745
1175.510, 9.373358
1175.992, 9.364706
1176.474, 9.597653
1176.956, 10.16903
1177.438, 10.60742
1177.920, 10.35156
1178.402, 9.846905
1178.885, 9.445754
1179.367, 9.174986
1179.849, 9.141908
1180.331, 9.369863
1180.813, 9.596326
1181.295, 9.764472
1181.777, 9.811337
1182.259, 9.519412
1182.742, 9.163531
1183.224, 9.108341
1183.706, 9.425989
1184.188, 9.425075
1184.670, 9.034522
1185.152, 8.853090
1185.634, 9.242053
1186.116, 9.795798
1186.599, 10.18002
1187.081, 10.37860
1187.563, 10.31227
1188.045, 9.876936
1188.527, 9.641545
1189.009, 9.633023
1189.491, 9.674556
1189.973, 9.672450
1190.455, 9.667573
1190.938, 9.642909
1191.420, 9.674352
1191.902, 9.943702
1192.384, 10.76938
1192.866, 10.85222
1193.348, 10.01933
1193.830, 9.279432
1194.312, 9.428327
1194.794, 9.923198
1195.277, 10.09177
1195.759, 10.06612
1196.241, 10.12602
1196.723, 10.48724
1197.205, 10.49256
1197.687, 10.06077
1198.169, 9.598102
1198.651, 9.430389
1199.134, 9.411808
1199.616, 9.336400
1200.098, 9.256362
1200.580, 9.313007
1201.062, 9.519424
1201.544, 9.954555
1202.026, 10.73685
1202.508, 11.26360
1202.990, 10.71291
1203.473, 9.803380
1203.955, 9.508942
1204.437, 9.676581
1204.919, 9.693954
1205.401, 9.325213
1205.883, 9.169357
1206.365, 9.288742
1206.847, 9.551959
1207.329, 9.940517
1207.812, 10.32231
1208.294, 10.51964
1208.776, 10.55708
1209.258, 10.56437
1209.740, 10.59590
1210.222, 10.49219
1210.704, 10.20179
1211.186, 9.905857
1211.669, 9.864842
1212.151, 9.869657
1212.633, 9.580510
1213.115, 9.063086
1213.597, 8.783935
1214.079, 8.800364
1214.561, 8.984709
1215.043, 9.344679
1215.526, 9.756446
1216.008, 10.30360
1216.490, 10.68386
1216.972, 10.35438
1217.454, 9.424430
1217.936, 8.880600
1218.418, 8.831558
1218.900, 8.998428
1219.382, 9.379288
1219.865, 9.775941
1220.347, 10.00865
1220.829, 10.10927
1221.311, 10.06642
1221.793, 9.903275
1222.275, 9.805429
1222.757, 9.784385
1223.239, 9.810452
1223.722, 9.880689
1224.204, 9.983924
1224.686, 10.10784
1225.168, 10.25851
1225.650, 10.52742
1226.132, 10.86893
1226.614, 10.85876
1227.096, 10.43568
1227.578, 9.933595
1228.061, 9.373626
1228.543, 8.996338
1229.025, 9.254752
1229.507, 9.672532
1229.989, 9.775738
1230.471, 9.566575
1230.953, 9.412242
1231.435, 9.310223
1231.917, 9.266206
1232.400, 9.270981
1232.882, 9.388751
1233.364, 9.917855
1233.846, 10.39980
1234.328, 10.28765
1234.810, 9.704907
1235.292, 9.533544
1235.774, 9.798297
1236.257, 9.903919
1236.739, 9.663361
1237.221, 9.469305
1237.703, 9.771307
1238.185, 10.16016
1238.667, 10.28397
1239.149, 10.19966
1239.631, 10.15084
1240.114, 10.13764
1240.596, 10.16428
1241.078, 10.25229
1241.560, 10.26065
1242.042, 9.868958
1242.524, 9.577859
1243.006, 9.849193
1243.488, 10.46525
1243.970, 10.54689
1244.453, 10.16176
1244.935, 9.876369
1245.417, 9.854186
1245.899, 9.760433
1246.381, 9.131220
1246.863, 8.657686
1247.345, 8.755969
1247.827, 9.252166
1248.309, 9.655112
1248.792, 9.953856
1249.274, 10.09832
1249.756, 10.06665
1250.238, 9.934605
1250.720, 9.503142
1251.202, 9.283300
1251.684, 9.606330
1252.166, 10.16762
1252.649, 10.07974
1253.131, 9.575869
1253.613, 9.372725
1254.095, 9.668100
1254.577, 9.947901
1255.059, 10.12556
1255.541, 10.12700
1256.023, 9.842799
1256.505, 9.473022
1256.988, 9.509553
1257.470, 9.757769
1257.952, 9.717427
1258.434, 9.210834
1258.916, 9.227474
1259.398, 10.27898
1259.880, 10.98277
1260.362, 10.82297
1260.844, 10.19577
1261.327, 9.474655
1261.809, 8.857823
1262.291, 8.731435
1262.773, 9.214426
1263.255, 9.387763
1263.737, 9.065660
1264.219, 8.961899
1264.701, 9.390171
1265.184, 9.881535
1265.666, 9.718654
1266.148, 9.359890
1266.630, 9.361027
1267.112, 9.793291
1267.594, 10.22470
1268.076, 10.69001
1268.558, 10.86440
1269.041, 10.58873
1269.523, 10.24286
1270.005, 10.20691
1270.487, 10.26492
1270.969, 10.23863
1271.451, 10.12476
1271.933, 9.856005
1272.415, 9.439789
1272.897, 9.323210
1273.380, 9.664698
1273.862, 10.02227
1274.344, 10.10679
1274.826, 10.05382
1275.308, 9.884171
1275.790, 9.684707
1276.272, 9.829650
1276.754, 10.22494
1277.237, 10.34694
1277.719, 10.06883
1278.201, 9.688130
1278.683, 9.174732
1279.165, 8.823897
1279.647, 8.739568
1280.129, 8.886763
1280.611, 9.367116
1281.094, 9.987131
1281.576, 10.16100
1282.058, 9.777380
1282.540, 9.465920
1283.022, 9.339499
1283.504, 9.470729
1283.986, 9.982486
1284.468, 10.54744
1284.950, 10.67468
1285.432, 10.49908
1285.915, 10.12523
1286.397, 9.585811
1286.879, 9.374455
1287.361, 9.597076
1287.843, 9.907319
1288.325, 10.26639
1288.807, 10.53681
1289.289, 10.58885
1289.772, 10.44690
1290.254, 9.966733
1290.736, 9.271987
1291.218, 9.123092
1291.700, 9.584074
1292.182, 10.01476
1292.664, 10.32235
1293.146, 10.44424
1293.629, 10.17350
1294.111, 9.846388
1294.593, 9.725646
1295.075, 9.711390
1295.557, 9.561667
1296.039, 9.300563
1296.521, 9.218214
1297.003, 9.347674
1297.485, 9.481755
1297.968, 9.552852
1298.450, 9.508668
1298.932, 9.242192
1299.414, 8.984590
1299.896, 9.178441
1300.378, 9.659333
1300.860, 9.950617
1301.342, 10.01634
1301.824, 9.962680
1302.307, 9.793400
##END=



