##NAMES=Braunite
##RRUFFID=R050390
##IDEAL CHEMISTRY=Mn^2+^Mn^3+^_6_SiO_12_
##LOCALITY=Oehrenstock, Thuringia, Germany
##OWNER=RRUFF
##SOURCE=University of Arizona Mineral Museum
##DESCRIPTION=Mass of black octahedra
##STATUS=The identification of this mineral has been confirmed by X-ray diffraction and chemical analysis
##URL=rruff.info/R050390
##MEASURED CHEMISTRY=(Mn^2+^_0.83_Ca_0.17_)_Î£=1_Mn^3+^_6.00_Si_1.00_O_12_
92.35352, 9.006450
92.83563, 9.604237
93.31775, 9.859251
93.79987, 9.495025
94.28198, 8.751462
94.76410, 8.339741
95.24622, 8.470972
95.72833, 8.933320
96.21045, 9.314148
96.69257, 9.613342
97.17468, 9.866816
97.65680, 10.11570
98.13892, 10.36002
98.62103, 10.51558
99.10315, 10.47605
99.58527, 10.30469
100.0674, 10.44510
100.5495, 10.91945
101.0316, 11.65542
101.5137, 12.66098
101.9958, 14.08667
102.4780, 15.26553
102.9601, 15.85324
103.4422, 15.68819
103.9243, 16.00467
104.4064, 16.89615
104.8885, 18.20926
105.3707, 19.70887
105.8528, 21.42854
106.3349, 23.27218
106.8170, 25.24825
107.2991, 27.72038
107.7813, 29.61768
108.2634, 30.51021
108.7455, 30.77245
109.2276, 31.62476
109.7097, 33.79630
110.1918, 36.03948
110.6740, 37.84063
111.1561, 38.76124
111.6382, 39.71757
112.1203, 40.49134
112.6024, 41.22054
113.0845, 42.70729
113.5667, 45.72276
114.0488, 49.17122
114.5309, 52.34936
115.0130, 54.82484
115.4951, 57.24465
115.9772, 59.80431
116.4594, 62.52639
116.9415, 65.25296
117.4236, 68.10540
117.9057, 70.87764
118.3878, 73.33875
118.8699, 75.01306
119.3521, 76.67072
119.8342, 78.64796
120.3163, 80.94135
120.7984, 83.83282
121.2805, 87.76414
121.7626, 92.39327
122.2448, 97.13543
122.7269, 103.1164
123.2090, 108.4015
123.6911, 110.5107
124.1732, 108.5575
124.6553, 106.0480
125.1375, 106.2852
125.6196, 108.6744
126.1017, 111.3331
126.5838, 113.1277
127.0659, 114.4514
127.5480, 116.0560
128.0302, 118.1458
128.5123, 120.3690
128.9944, 122.4775
129.4765, 124.4233
129.9586, 125.7561
130.4407, 126.0158
130.9229, 125.3501
131.4050, 124.2964
131.8871, 122.8453
132.3692, 121.1953
132.8513, 119.6531
133.3334, 118.0018
133.8156, 116.3282
134.2977, 115.2921
134.7798, 115.2594
135.2619, 115.4826
135.7440, 115.7819
136.2261, 116.1983
136.7083, 117.0138
137.1904, 118.2890
137.6725, 119.7690
138.1546, 121.5503
138.6367, 123.9369
139.1188, 125.0566
139.6010, 124.3123
140.0831, 121.7198
140.5652, 118.5764
141.0473, 114.4799
141.5294, 110.3307
142.0115, 107.3768
142.4937, 105.8623
142.9758, 104.8442
143.4579, 104.0254
143.9400, 103.3487
144.4221, 103.1335
144.9042, 103.4089
145.3864, 104.1089
145.8685, 105.2005
146.3506, 107.3502
146.8327, 108.9985
147.3148, 109.5144
147.7969, 108.0348
148.2791, 107.3737
148.7612, 107.9224
149.2433, 109.2389
149.7254, 110.3260
150.2075, 110.9539
150.6896, 111.5509
151.1718, 112.2813
151.6539, 113.4667
152.1360, 114.3250
152.6181, 114.5977
153.1002, 114.4986
153.5823, 114.6646
154.0645, 116.0002
154.5466, 116.9919
155.0287, 116.9335
155.5108, 114.9937
155.9929, 112.9170
156.4750, 110.6819
156.9572, 108.4221
157.4393, 106.7539
157.9214, 106.2351
158.4035, 106.0655
158.8856, 105.7440
159.3677, 104.7861
159.8499, 104.0377
160.3320, 103.7949
160.8141, 103.9977
161.2962, 104.3063
161.7783, 104.8089
162.2604, 105.2697
162.7426, 105.4939
163.2247, 105.2883
163.7068, 104.9564
164.1889, 104.5576
164.6710, 104.1082
165.1531, 103.7653
165.6353, 103.5707
166.1174, 103.5333
166.5995, 103.6627
167.0816, 104.1526
167.5637, 104.6672
168.0458, 105.0288
168.5280, 105.2296
169.0101, 105.2588
169.4922, 105.0561
169.9743, 104.6868
170.4564, 104.2422
170.9385, 103.7981
171.4207, 103.2727
171.9028, 102.5135
172.3849, 101.5055
172.8670, 100.5704
173.3491, 99.94639
173.8312, 99.56518
174.3134, 99.29524
174.7955, 99.05784
175.2776, 98.90992
175.7597, 98.99432
176.2418, 99.35234
176.7239, 99.66670
177.2061, 99.60678
177.6882, 99.26575
178.1703, 98.89908
178.6524, 98.49960
179.1345, 98.18201
179.6166, 98.16899
180.0988, 98.49541
180.5809, 99.00008
181.0630, 99.62153
181.5451, 100.3101
182.0272, 100.8402
182.5093, 100.9089
182.9915, 100.7459
183.4736, 100.9496
183.9557, 101.6185
184.4378, 102.4456
184.9199, 103.0577
185.4020, 103.4634
185.8842, 103.8077
186.3663, 104.2261
186.8484, 104.6567
187.3305, 104.8183
187.8126, 104.6401
188.2947, 104.3271
188.7769, 104.1127
189.2590, 104.0035
189.7411, 104.1415
190.2232, 104.7477
190.7053, 105.7364
191.1874, 106.5477
191.6696, 107.1086
192.1517, 107.5485
192.6338, 108.0846
193.1159, 108.7169
193.5980, 109.4408
194.0801, 110.2827
194.5623, 111.2303
195.0444, 112.2235
195.5265, 113.3360
196.0086, 114.3668
196.4907, 114.7116
196.9728, 114.2692
197.4550, 113.9820
197.9371, 114.4969
198.4192, 115.8255
198.9013, 117.1690
199.3834, 118.4695
199.8655, 119.7291
200.3477, 120.9313
200.8298, 122.0368
201.3119, 123.2573
201.7940, 124.9388
202.2761, 127.1854
202.7582, 128.5930
203.2404, 128.6655
203.7225, 128.1012
204.2046, 129.0701
204.6867, 132.0095
205.1688, 134.9937
205.6509, 136.6212
206.1331, 136.6213
206.6152, 137.1222
207.0973, 138.3623
207.5794, 140.1860
208.0615, 142.1686
208.5436, 144.3655
209.0258, 146.5848
209.5079, 148.7453
209.9900, 150.8911
210.4721, 152.6944
210.9542, 153.9805
211.4363, 154.9547
211.9185, 156.3497
212.4006, 158.3103
212.8827, 160.3909
213.3648, 162.3265
213.8469, 164.1803
214.3290, 165.7407
214.8112, 166.9888
215.2933, 167.9269
215.7754, 168.5989
216.2575, 168.9920
216.7396, 169.1415
217.2217, 169.0435
217.7038, 168.6473
218.1860, 168.1511
218.6681, 167.5269
219.1502, 166.8214
219.6323, 166.1648
220.1144, 165.4180
220.5965, 164.9702
221.0787, 165.2422
221.5608, 166.8775
222.0429, 167.4359
222.5250, 166.4249
223.0071, 164.2712
223.4892, 162.5704
223.9714, 161.4462
224.4535, 160.5584
224.9356, 159.7124
225.4177, 158.8730
225.8998, 158.1890
226.3819, 157.7399
226.8641, 157.4400
227.3462, 156.9691
227.8283, 156.1198
228.3104, 155.4133
228.7925, 155.1849
229.2746, 155.7883
229.7568, 156.0457
230.2389, 155.7950
230.7210, 155.1914
231.2031, 154.7695
231.6852, 154.7482
232.1673, 154.5844
232.6495, 153.9757
233.1316, 152.6582
233.6137, 151.4985
234.0958, 150.6328
234.5779, 149.9256
235.0600, 148.9621
235.5422, 147.4192
236.0243, 146.0736
236.5064, 145.3469
236.9885, 145.7448
237.4706, 145.6206
237.9527, 144.7643
238.4349, 143.4425
238.9170, 142.3049
239.3991, 141.3451
239.8812, 140.5790
240.3633, 140.0514
240.8454, 139.9198
241.3276, 139.6191
241.8097, 139.0170
242.2918, 138.2988
242.7739, 137.8839
243.2560, 137.8799
243.7381, 138.0138
244.2203, 138.2022
244.7024, 138.4807
245.1845, 138.6984
245.6666, 138.7448
246.1487, 138.7837
246.6308, 139.1906
247.1130, 140.3118
247.5951, 141.2331
248.0772, 141.5606
248.5593, 141.0730
249.0414, 140.8409
249.5235, 141.0958
250.0057, 141.4591
250.4878, 141.2746
250.9699, 140.2734
251.4520, 139.1975
251.9341, 138.3055
252.4162, 137.6570
252.8984, 136.8876
253.3805, 136.0569
253.8626, 135.0488
254.3447, 133.6704
254.8268, 131.6655
255.3089, 129.7774
255.7911, 128.2835
256.2732, 127.2412
256.7553, 126.0144
257.2374, 124.4333
257.7195, 122.8307
258.2017, 121.6711
258.6838, 121.2090
259.1659, 120.5690
259.6480, 119.3732
260.1301, 117.5865
260.6122, 116.5594
261.0944, 116.7326
261.5765, 117.1170
262.0586, 116.5001
262.5407, 114.3138
263.0228, 112.7387
263.5049, 112.4856
263.9871, 113.4784
264.4692, 113.7670
264.9513, 113.1202
265.4334, 112.1467
265.9155, 111.3818
266.3976, 110.9000
266.8798, 110.4095
267.3619, 109.8103
267.8440, 109.1409
268.3261, 108.7902
268.8082, 108.8517
269.2903, 109.0342
269.7725, 109.0952
270.2546, 108.9928
270.7367, 108.9694
271.2188, 109.1055
271.7009, 109.3370
272.1830, 109.3705
272.6652, 109.1469
273.1473, 108.8841
273.6294, 108.7032
274.1115, 108.5978
274.5936, 108.6192
275.0757, 108.7616
275.5579, 109.0390
276.0400, 109.5697
276.5221, 110.4432
277.0042, 111.2046
277.4863, 111.5664
277.9684, 111.5067
278.4506, 111.3202
278.9327, 110.9856
279.4148, 110.5861
279.8969, 110.2447
280.3790, 109.9400
280.8611, 109.8487
281.3433, 110.2660
281.8254, 111.1856
282.3075, 111.4493
282.7896, 110.8751
283.2717, 109.9769
283.7538, 109.5290
284.2360, 109.5398
284.7181, 109.7851
285.2002, 110.3589
285.6823, 111.1826
286.1644, 111.4558
286.6465, 111.0829
287.1287, 110.4967
287.6108, 110.1003
288.0929, 109.9057
288.5750, 110.1740
289.0571, 111.2641
289.5392, 112.9058
290.0214, 113.9414
290.5035, 114.3148
290.9856, 114.5211
291.4677, 115.0981
291.9498, 115.9863
292.4319, 116.7861
292.9141, 117.3170
293.3962, 117.7222
293.8783, 118.4441
294.3604, 119.4871
294.8425, 120.3794
295.3246, 120.6372
295.8068, 120.4045
296.2889, 120.1733
296.7710, 120.1212
297.2531, 120.0544
297.7352, 119.6205
298.2173, 118.8490
298.6995, 117.9622
299.1816, 117.1272
299.6637, 116.2948
300.1458, 115.3796
300.6279, 114.3482
301.1100, 113.2461
301.5922, 112.1400
302.0743, 111.0205
302.5564, 109.8595
303.0385, 108.5517
303.5206, 107.2124
304.0027, 105.9381
304.4849, 104.7165
304.9670, 103.7100
305.4491, 103.1996
305.9312, 103.0472
306.4133, 102.9228
306.8954, 102.6865
307.3776, 102.3863
307.8597, 102.0374
308.3418, 101.6289
308.8239, 101.3018
309.3060, 101.2136
309.7881, 101.2673
310.2703, 101.3120
310.7524, 101.2311
311.2345, 101.1602
311.7166, 101.2069
312.1987, 101.3697
312.6808, 101.5594
313.1630, 101.8503
313.6451, 102.0953
314.1272, 102.1340
314.6093, 101.4849
315.0914, 101.0183
315.5735, 101.3698
316.0557, 102.3739
316.5378, 103.1558
317.0199, 103.1206
317.5020, 102.8489
317.9841, 102.7625
318.4662, 103.0310
318.9484, 103.3863
319.4305, 103.8318
319.9126, 104.3078
320.3947, 104.6573
320.8768, 104.5914
321.3589, 104.5723
321.8411, 104.8811
322.3232, 105.7534
322.8053, 106.4511
323.2874, 106.4958
323.7695, 106.3409
324.2516, 106.7047
324.7338, 108.5310
325.2159, 110.1234
325.6980, 110.8302
326.1801, 110.3675
326.6622, 110.1787
327.1443, 110.5033
327.6265, 111.0849
328.1086, 111.6692
328.5907, 112.2010
329.0728, 112.7853
329.5549, 113.4560
330.0370, 114.2175
330.5192, 114.9562
331.0013, 115.6607
331.4834, 116.3580
331.9655, 117.0964
332.4476, 118.0812
332.9297, 118.7383
333.4119, 118.8412
333.8940, 118.5570
334.3761, 118.6756
334.8582, 119.5148
335.3403, 120.2463
335.8224, 120.3496
336.3046, 119.4435
336.7867, 119.1126
337.2688, 119.6920
337.7509, 120.6264
338.2330, 120.8132
338.7151, 120.1695
339.1973, 119.0145
339.6794, 117.1698
340.1615, 114.5752
340.6436, 113.1354
341.1257, 113.2050
341.6078, 113.6920
342.0899, 113.0753
342.5721, 111.2722
343.0542, 109.6698
343.5363, 108.7506
344.0184, 108.3647
344.5005, 107.8329
344.9826, 107.1400
345.4648, 106.4478
345.9469, 105.9417
346.4290, 105.5889
346.9111, 105.1989
347.3932, 104.7480
347.8753, 104.2145
348.3575, 103.4132
348.8396, 102.3880
349.3217, 101.6301
349.8038, 101.7412
350.2859, 102.3593
350.7680, 102.5377
351.2502, 102.0753
351.7323, 101.5099
352.2144, 101.5938
352.6965, 102.1133
353.1786, 102.4197
353.6607, 101.8377
354.1429, 101.0274
354.6250, 100.9033
355.1071, 101.5230
355.5892, 102.2187
356.0713, 102.4689
356.5534, 102.4668
357.0356, 102.4996
357.5177, 102.8734
357.9998, 103.1517
358.4819, 102.8405
358.9640, 102.0619
359.4461, 101.5060
359.9283, 101.9626
360.4104, 102.5664
360.8925, 102.5003
361.3746, 100.9677
361.8567, 99.80656
362.3388, 100.1008
362.8210, 101.3232
363.3031, 102.2821
363.7852, 102.4006
364.2673, 102.3330
364.7494, 102.3834
365.2315, 102.6282
365.7137, 102.8280
366.1958, 102.8562
366.6779, 102.8414
367.1600, 102.9353
367.6421, 103.4137
368.1242, 103.7348
368.6064, 103.6943
369.0885, 103.2659
369.5706, 103.0402
370.0527, 103.1477
370.5348, 103.3565
371.0169, 103.5142
371.4991, 103.5317
371.9812, 103.6574
372.4633, 103.9933
372.9454, 104.4480
373.4275, 104.6767
373.9096, 104.5676
374.3918, 104.4327
374.8739, 104.4365
375.3560, 104.6384
375.8381, 104.6925
376.3202, 104.5335
376.8023, 104.3100
377.2845, 104.2715
377.7666, 104.4558
378.2487, 104.6136
378.7308, 104.6398
379.2129, 104.5618
379.6950, 104.5745
380.1772, 104.6890
380.6593, 104.8338
381.1414, 105.0263
381.6235, 105.2366
382.1056, 105.1552
382.5877, 104.6028
383.0699, 103.8855
383.5520, 103.6737
384.0341, 103.9132
384.5162, 104.0707
384.9983, 103.6833
385.4804, 102.9858
385.9626, 102.4818
386.4447, 102.2326
386.9268, 102.1131
387.4089, 102.0217
387.8910, 101.9622
388.3731, 101.9456
388.8553, 102.1637
389.3374, 102.3089
389.8195, 101.9495
390.3016, 101.1241
390.7837, 100.4144
391.2658, 100.3078
391.7480, 100.4599
392.2301, 100.5069
392.7122, 100.2480
393.1943, 100.0092
393.6764, 100.0293
394.1585, 100.2048
394.6407, 100.2400
395.1228, 99.72326
395.6049, 99.28759
396.0870, 99.36842
396.5691, 100.3105
397.0512, 100.7982
397.5334, 100.0664
398.0155, 98.90971
398.4976, 98.33172
398.9797, 99.26997
399.4618, 99.88870
399.9439, 99.72081
400.4261, 98.76989
400.9082, 97.96992
401.3903, 97.18398
401.8724, 96.67609
402.3545, 96.67800
402.8366, 97.56576
403.3188, 98.13843
403.8009, 98.27991
404.2830, 98.08932
404.7651, 97.76687
405.2472, 97.23695
405.7293, 96.80059
406.2115, 96.58512
406.6936, 96.59592
407.1757, 96.75016
407.6578, 97.11365
408.1399, 97.44456
408.6220, 97.45135
409.1042, 97.13936
409.5863, 96.70499
410.0684, 96.08987
410.5505, 95.47229
411.0326, 95.32545
411.5147, 95.63638
411.9969, 96.00242
412.4790, 96.15757
412.9611, 96.15488
413.4432, 96.14388
413.9253, 96.17243
414.4074, 96.08604
414.8896, 95.60121
415.3717, 94.86718
415.8538, 94.23692
416.3359, 93.81184
416.8180, 93.61366
417.3001, 93.76997
417.7823, 94.26868
418.2644, 94.72008
418.7465, 94.93464
419.2286, 94.98347
419.7107, 94.92596
420.1928, 94.69402
420.6750, 94.46915
421.1571, 94.24380
421.6392, 94.06925
422.1213, 94.08688
422.6034, 94.51388
423.0855, 94.98495
423.5677, 95.38224
424.0498, 95.71953
424.5319, 95.89021
425.0140, 95.81660
425.4961, 95.60866
425.9782, 95.37260
426.4604, 95.06045
426.9425, 94.79526
427.4246, 94.61155
427.9067, 94.49549
428.3888, 94.30579
428.8709, 93.83967
429.3531, 93.65600
429.8352, 94.28623
430.3173, 96.05214
430.7994, 96.82377
431.2815, 96.25774
431.7636, 95.14278
432.2458, 94.81571
432.7279, 95.32580
433.2100, 95.76953
433.6921, 95.75993
434.1742, 95.44768
434.6563, 95.39793
435.1385, 95.61488
435.6206, 95.91644
436.1027, 96.16933
436.5848, 96.38594
437.0669, 96.60123
437.5490, 96.82662
438.0312, 97.04459
438.5133, 97.24551
438.9954, 97.42782
439.4775, 97.58517
439.9596, 97.55863
440.4417, 97.60665
440.9239, 98.06921
441.4060, 98.96672
441.8881, 99.75748
442.3702, 99.99328
442.8523, 100.0284
443.3344, 100.2067
443.8166, 100.7412
444.2987, 101.2872
444.7808, 101.7642
445.2629, 102.1742
445.7450, 102.5275
446.2271, 102.6525
446.7093, 102.8615
447.1914, 103.3101
447.6735, 104.1168
448.1556, 104.7787
448.6377, 105.1012
449.1198, 105.4024
449.6020, 106.0498
450.0841, 107.3149
450.5662, 108.3282
451.0483, 108.9251
451.5304, 109.1743
452.0125, 109.3576
452.4947, 108.8777
452.9768, 110.0285
453.4589, 110.7708
453.9410, 111.1264
454.4231, 109.9377
454.9052, 110.7432
455.3874, 110.7496
455.8695, 110.7232
456.3516, 111.8094
456.8337, 110.8453
457.3158, 111.9139
457.7979, 112.1711
458.2801, 112.7996
458.7622, 112.6240
459.2443, 112.6968
459.7264, 113.5740
460.2085, 114.0057
460.6906, 113.5803
461.1728, 114.6641
461.6549, 115.6194
462.1370, 115.9463
462.6191, 115.8876
463.1012, 115.7882
463.5833, 115.6508
464.0655, 115.6175
464.5476, 115.7118
465.0297, 115.9446
465.5118, 116.4122
465.9939, 117.3549
466.4760, 118.3735
466.9582, 119.2300
467.4403, 119.7102
467.9224, 120.3930
468.4045, 121.3063
468.8866, 122.4125
469.3687, 123.7242
469.8509, 125.4776
470.3330, 126.9635
470.8151, 127.9777
471.2972, 128.5611
471.7793, 129.0853
472.2614, 129.4935
472.7436, 130.0152
473.2257, 131.2004
473.7078, 133.0841
474.1899, 133.1087
474.6720, 130.5501
475.1541, 127.5614
475.6363, 128.0192
476.1184, 131.3154
476.6005, 133.5270
477.0826, 132.4659
477.5647, 129.7453
478.0468, 127.8525
478.5290, 126.7419
479.0111, 126.0005
479.4932, 125.5269
479.9753, 125.1778
480.4574, 124.7934
480.9395, 124.3489
481.4217, 123.8516
481.9038, 123.2754
482.3859, 122.6640
482.8680, 122.0884
483.3501, 121.7852
483.8322, 121.3126
484.3144, 120.2707
484.7965, 118.7375
485.2786, 117.7362
485.7607, 118.0969
486.2428, 118.5003
486.7249, 118.2407
487.2071, 116.7922
487.6892, 115.8265
488.1713, 115.5387
488.6534, 115.5999
489.1355, 115.5809
489.6176, 115.5462
490.0998, 115.2205
490.5819, 114.4352
491.0640, 113.3109
491.5461, 112.4201
492.0282, 111.7465
492.5103, 111.3906
492.9925, 111.6287
493.4746, 112.3131
493.9567, 112.6542
494.4388, 112.5802
494.9209, 112.2683
495.4030, 111.7371
495.8852, 111.1181
496.3673, 110.7394
496.8494, 110.8721
497.3315, 111.1558
497.8136, 111.2361
498.2957, 111.1616
498.7779, 111.1340
499.2600, 111.2645
499.7421, 111.4751
500.2242, 111.7651
500.7063, 112.1986
501.1884, 112.4290
501.6706, 112.0700
502.1527, 111.5841
502.6348, 111.4450
503.1169, 112.0363
503.5990, 112.5957
504.0811, 113.0161
504.5633, 113.3395
505.0454, 113.7344
505.5275, 114.2383
506.0096, 114.7389
506.4917, 115.1926
506.9738, 115.6020
507.4560, 115.9600
507.9381, 116.2405
508.4202, 116.5384
508.9023, 116.9966
509.3844, 117.6006
509.8665, 118.0772
510.3487, 118.3240
510.8308, 118.5172
511.3129, 118.9733
511.7950, 119.6496
512.2772, 120.3452
512.7593, 121.0772
513.2414, 121.7041
513.7235, 122.0215
514.2056, 122.0360
514.6877, 121.9719
515.1699, 121.8732
515.6520, 121.8122
516.1341, 121.8731
516.6162, 122.1668
517.0983, 122.3982
517.5804, 122.6581
518.0626, 122.7575
518.5447, 122.3872
519.0268, 120.9334
519.5089, 119.6017
519.9910, 118.6810
520.4731, 118.1458
520.9553, 117.6986
521.4374, 117.4792
521.9195, 117.1488
522.4016, 116.4639
522.8837, 115.3337
523.3658, 114.3731
523.8480, 113.6124
524.3301, 112.9700
524.8122, 112.3406
525.2943, 111.7315
525.7764, 111.2181
526.2585, 110.8560
526.7407, 110.5631
527.2228, 110.1358
527.7049, 109.6077
528.1870, 109.1852
528.6691, 109.1791
529.1512, 109.2448
529.6334, 108.8794
530.1155, 108.0272
530.5976, 107.2986
531.0797, 107.0978
531.5618, 107.1713
532.0439, 107.2783
532.5261, 107.4329
533.0082, 107.5077
533.4903, 107.4173
533.9724, 107.2299
534.4545, 107.0904
534.9366, 107.0986
535.4188, 107.0531
535.9009, 106.8389
536.3830, 106.4667
536.8651, 106.4237
537.3472, 106.8809
537.8293, 107.3349
538.3115, 107.4115
538.7936, 107.0794
539.2757, 106.8556
539.7578, 106.7941
540.2399, 106.7667
540.7220, 106.5997
541.2042, 106.3104
541.6863, 105.9575
542.1684, 105.4146
542.6505, 104.9847
543.1326, 105.3024
543.6147, 106.1692
544.0969, 106.8370
544.5790, 106.7489
545.0611, 106.3424
545.5432, 105.8370
546.0253, 105.2346
546.5074, 104.9827
546.9896, 105.7589
547.4717, 106.6927
547.9538, 107.0685
548.4359, 106.0652
548.9180, 105.4608
549.4001, 105.5682
549.8823, 106.0974
550.3644, 106.5806
550.8465, 107.0491
551.3286, 107.4303
551.8107, 107.7453
552.2928, 107.9688
552.7750, 107.8113
553.2571, 107.1724
553.7392, 106.6430
554.2213, 106.7347
554.7034, 107.3172
555.1855, 107.5745
555.6677, 107.4248
556.1498, 107.2708
556.6319, 107.6854
557.1140, 108.3953
557.5961, 108.7699
558.0782, 108.3141
558.5604, 108.0018
559.0425, 109.0154
559.5246, 110.7706
560.0067, 111.9607
560.4888, 111.1610
560.9709, 110.4755
561.4531, 111.1704
561.9352, 113.2769
562.4173, 114.6494
562.8994, 114.2441
563.3815, 113.6459
563.8636, 113.6647
564.3458, 114.5881
564.8279, 115.3789
565.3100, 116.0846
565.7921, 116.6107
566.2742, 116.6964
566.7563, 116.2616
567.2385, 116.1990
567.7206, 116.7661
568.2027, 117.7298
568.6848, 118.6794
569.1669, 119.6028
569.6490, 120.3082
570.1312, 120.4509
570.6133, 120.4342
571.0954, 120.8990
571.5775, 121.8361
572.0596, 122.7936
572.5417, 123.5427
573.0239, 124.1591
573.5060, 124.7246
573.9881, 125.3378
574.4702, 125.6846
574.9523, 125.5223
575.4344, 125.1006
575.9166, 124.7352
576.3987, 124.3811
576.8808, 124.1810
577.3629, 124.2565
577.8450, 124.4850
578.3271, 124.4309
578.8093, 123.9923
579.2914, 123.5731
579.7735, 123.3637
580.2556, 123.3308
580.7377, 123.2298
581.2198, 123.0645
581.7020, 122.7676
582.1841, 122.3015
582.6662, 121.6613
583.1483, 120.7007
583.6304, 119.3212
584.1125, 118.1450
584.5947, 117.9790
585.0768, 118.3079
585.5589, 118.3761
586.0410, 117.7783
586.5231, 117.0421
587.0052, 116.2100
587.4873, 115.3985
587.9694, 114.9307
588.4515, 115.5817
588.9337, 115.8307
589.4158, 114.9657
589.8979, 112.9754
590.3800, 112.0070
590.8621, 112.5435
591.3442, 113.2454
591.8264, 113.1698
592.3085, 112.2413
592.7906, 111.7237
593.2727, 111.6941
593.7548, 111.9293
594.2369, 112.3947
594.7191, 112.9472
595.2012, 112.9387
595.6833, 111.9246
596.1654, 110.8665
596.6475, 110.9856
597.1296, 111.8848
597.6118, 112.6453
598.0939, 112.7690
598.5760, 112.7178
599.0581, 112.6712
599.5402, 112.6520
600.0223, 112.7515
600.5045, 113.1040
600.9866, 113.4862
601.4687, 113.7911
601.9508, 113.9873
602.4329, 114.2558
602.9150, 114.6355
603.3972, 115.0312
603.8793, 115.2788
604.3614, 115.3310
604.8435, 115.8098
605.3256, 116.9047
605.8077, 118.1598
606.2899, 118.6710
606.7720, 118.6311
607.2541, 118.9577
607.7362, 120.2836
608.2183, 121.8335
608.7004, 122.6902
609.1826, 122.9836
609.6647, 123.1351
610.1468, 122.9951
610.6289, 123.0833
611.1110, 123.8993
611.5931, 125.5057
612.0753, 126.7566
612.5574, 127.0142
613.0395, 127.1874
613.5216, 127.8262
614.0037, 129.2384
614.4858, 130.3304
614.9680, 131.0130
615.4501, 131.4947
615.9322, 131.9865
616.4143, 132.4816
616.8964, 133.0639
617.3785, 133.7777
617.8607, 134.5207
618.3428, 135.2027
618.8249, 135.7844
619.3070, 136.1001
619.7891, 135.7547
620.2712, 135.3343
620.7534, 135.6573
621.2355, 136.5189
621.7176, 136.9484
622.1997, 135.9476
622.6818, 134.8148
623.1639, 134.3570
623.6461, 134.7679
624.1282, 134.9633
624.6103, 134.8087
625.0924, 134.4330
625.5745, 133.8729
626.0566, 132.9844
626.5388, 132.3468
627.0209, 132.1053
627.5030, 131.8963
627.9851, 131.1065
628.4672, 129.7784
628.9493, 128.6951
629.4315, 128.0888
629.9136, 127.7204
630.3957, 127.3990
630.8778, 127.0388
631.3599, 126.3829
631.8420, 124.9734
632.3242, 123.4932
632.8063, 122.4832
633.2884, 121.8869
633.7705, 121.2956
634.2526, 120.5102
634.7347, 119.7488
635.2169, 119.1080
635.6990, 118.6085
636.1811, 118.1688
636.6632, 117.8194
637.1453, 117.4891
637.6274, 117.1261
638.1096, 116.7176
638.5917, 116.3320
639.0738, 115.9600
639.5559, 115.6351
640.0380, 115.4149
640.5201, 115.2786
641.0023, 115.1488
641.4844, 115.0196
641.9665, 114.8575
642.4486, 114.5217
642.9307, 114.1262
643.4128, 113.9226
643.8950, 114.1731
644.3771, 114.4867
644.8592, 114.7473
645.3413, 114.9356
645.8234, 114.9815
646.3055, 114.7076
646.7877, 114.4602
647.2698, 114.3490
647.7519, 114.3763
648.2340, 114.4770
648.7161, 114.7141
649.1982, 114.8499
649.6804, 114.5863
650.1625, 113.9915
650.6446, 113.7501
651.1267, 113.9192
651.6088, 114.2557
652.0909, 114.5336
652.5731, 114.7955
653.0552, 115.1668
653.5373, 115.8002
654.0194, 116.2382
654.5015, 115.9735
654.9836, 115.4040
655.4658, 115.1128
655.9479, 115.5096
656.4300, 115.9024
656.9121, 116.1835
657.3942, 116.3655
657.8763, 116.4537
658.3585, 116.3607
658.8406, 116.3901
659.3227, 116.7141
659.8048, 117.2331
660.2869, 117.3652
660.7690, 117.0940
661.2512, 116.8107
661.7333, 116.7781
662.2154, 116.9020
662.6975, 117.1187
663.1796, 117.4102
663.6617, 117.4099
664.1439, 116.4887
664.6260, 115.3872
665.1081, 114.8345
665.5902, 115.1674
666.0723, 115.3134
666.5544, 114.8118
667.0366, 114.1321
667.5187, 113.7297
668.0008, 113.8702
668.4829, 113.7173
668.9650, 113.0984
669.4471, 112.3252
669.9293, 111.8129
670.4114, 111.5603
670.8935, 111.7476
671.3756, 112.6150
671.8577, 113.6473
672.3398, 113.8740
672.8220, 113.5157
673.3041, 113.3253
673.7862, 113.8192
674.2683, 114.4924
674.7504, 114.9609
675.2325, 115.2768
675.7147, 115.7189
676.1968, 116.4618
676.6789, 117.2763
677.1610, 118.1059
677.6431, 118.9674
678.1252, 119.5796
678.6074, 119.8036
679.0895, 120.0293
679.5716, 120.4685
680.0537, 121.1254
680.5358, 122.0198
681.0179, 123.1721
681.5001, 124.3844
681.9822, 125.4631
682.4643, 126.4497
682.9464, 127.3645
683.4285, 128.1761
683.9106, 129.1025
684.3928, 130.5240
684.8749, 132.0690
685.3570, 133.3085
685.8391, 133.4671
686.3212, 134.1454
686.8033, 136.1388
687.2855, 138.6310
687.7676, 140.2547
688.2497, 140.5150
688.7318, 141.2446
689.2139, 142.9732
689.6960, 145.2859
690.1782, 147.0901
690.6603, 148.3966
691.1424, 149.3837
691.6245, 150.0160
692.1066, 150.4676
692.5887, 151.0046
693.0709, 151.6001
693.5530, 152.1421
694.0351, 152.8243
694.5172, 153.2140
694.9993, 152.9601
695.4814, 152.0289
695.9636, 151.0198
696.4457, 149.7983
696.9278, 148.7375
697.4099, 148.1527
697.8920, 148.2319
698.3741, 147.4449
698.8563, 145.6379
699.3384, 143.4369
699.8205, 141.2729
700.3026, 139.1801
700.7847, 137.2362
701.2668, 135.4577
701.7490, 133.7760
702.2311, 132.1223
702.7132, 130.5261
703.1953, 129.0766
703.6774, 128.0014
704.1595, 126.6312
704.6417, 124.2469
705.1238, 121.5594
705.6059, 119.6230
706.0880, 119.1215
706.5701, 118.2506
707.0522, 116.5885
707.5344, 114.6470
708.0165, 113.6326
708.4986, 113.6188
708.9807, 113.4160
709.4628, 112.6039
709.9449, 111.4865
710.4271, 110.5481
710.9092, 109.7888
711.3913, 109.1747
711.8734, 108.9568
712.3555, 108.6607
712.8376, 107.9090
713.3198, 106.7600
713.8019, 105.5552
714.2840, 104.0959
714.7661, 102.8828
715.2482, 102.1239
715.7303, 101.8078
716.2125, 101.6638
716.6946, 101.7921
717.1767, 101.8164
717.6588, 101.4193
718.1409, 100.6786
718.6230, 100.3113
719.1052, 100.3243
719.5873, 100.2295
720.0694, 99.35770
720.5515, 98.27442
721.0336, 97.82163
721.5157, 98.19031
721.9979, 98.35397
722.4800, 97.49548
722.9621, 96.44798
723.4442, 95.91464
723.9263, 96.35242
724.4084, 96.43216
724.8906, 95.96990
725.3727, 95.36538
725.8548, 95.01382
726.3369, 94.92439
726.8190, 94.95051
727.3011, 95.12630
727.7833, 95.23000
728.2654, 94.80756
728.7475, 94.09659
729.2296, 93.66708
729.7117, 93.72900
730.1938, 94.00819
730.6760, 94.62289
731.1581, 95.25439
731.6402, 95.42262
732.1223, 94.58302
732.6044, 93.79520
733.0865, 93.13227
733.5687, 92.64722
734.0508, 92.53103
734.5329, 92.92325
735.0150, 93.08647
735.4971, 92.76078
735.9792, 92.16783
736.4614, 91.73916
736.9435, 91.47487
737.4256, 91.37510
737.9077, 91.57138
738.3898, 91.83044
738.8719, 91.98305
739.3541, 92.02482
739.8362, 91.93782
740.3183, 91.47780
740.8004, 91.12255
741.2825, 91.12849
741.7646, 91.44186
742.2468, 91.63946
742.7289, 91.70695
743.2110, 91.69308
743.6931, 91.62159
744.1752, 91.48743
744.6573, 91.19709
745.1395, 90.76027
745.6216, 90.42514
746.1037, 90.42513
746.5858, 90.59704
747.0679, 90.81667
747.5500, 91.06528
748.0322, 91.13691
748.5143, 90.76871
748.9964, 90.32860
749.4785, 89.99252
749.9606, 89.73936
750.4427, 89.81828
750.9249, 90.44880
751.4070, 91.04173
751.8891, 91.16199
752.3712, 90.81691
752.8533, 90.34841
753.3354, 89.73328
753.8176, 89.27225
754.2997, 89.45425
754.7818, 89.89766
755.2639, 89.96925
755.7460, 89.51550
756.2281, 89.06306
756.7103, 88.87234
757.1924, 88.81873
757.6745, 88.79188
758.1566, 88.68929
758.6387, 88.82476
759.1208, 89.38564
759.6030, 89.95878
760.0851, 90.08074
760.5672, 89.73668
761.0493, 89.36935
761.5314, 88.99796
762.0135, 88.73235
762.4957, 88.77185
762.9778, 88.99711
763.4599, 89.17415
763.9420, 89.19778
764.4241, 89.27691
764.9063, 89.53687
765.3884, 89.91323
765.8705, 90.33257
766.3526, 91.14820
766.8347, 91.43485
767.3168, 90.89259
767.7990, 90.04581
768.2811, 89.73129
768.7632, 89.98016
769.2453, 90.11025
769.7274, 89.95621
770.2095, 89.70310
770.6917, 89.53854
771.1738, 89.48090
771.6559, 89.59444
772.1380, 90.15950
772.6201, 90.53268
773.1022, 90.15557
773.5844, 89.39924
774.0665, 88.92078
774.5486, 88.81788
775.0307, 89.01327
775.5128, 89.71264
775.9949, 90.56417
776.4771, 90.67259
776.9592, 90.00903
777.4413, 89.50919
777.9234, 89.49607
778.4055, 89.70266
778.8876, 89.74845
779.3698, 89.68224
779.8519, 89.62877
780.3340, 89.72136
780.8161, 89.75984
781.2982, 89.62178
781.7803, 89.35806
782.2625, 89.10035
782.7446, 88.79807
783.2267, 88.60522
783.7088, 88.56702
784.1909, 88.64980
784.6730, 88.73518
785.1552, 88.82394
785.6373, 89.06447
786.1194, 89.63035
786.6015, 90.24661
787.0836, 90.53049
787.5657, 90.52851
788.0479, 90.36194
788.5300, 89.74897
789.0121, 89.33070
789.4942, 89.59180
789.9763, 90.31768
790.4584, 90.64306
790.9406, 90.39696
791.4227, 90.02892
791.9048, 89.56716
792.3869, 89.12002
792.8690, 89.09956
793.3511, 89.48141
793.8333, 89.89259
794.3154, 90.18287
794.7975, 90.38960
795.2796, 90.54354
795.7617, 90.64902
796.2438, 90.71111
796.7260, 90.68175
797.2081, 90.66565
797.6902, 90.74208
798.1723, 90.87190
798.6544, 90.86763
799.1365, 90.62013
799.6187, 90.55028
800.1008, 90.89225
800.5829, 91.44694
801.0650, 91.55320
801.5471, 91.27730
802.0292, 91.05113
802.5114, 91.16492
802.9935, 91.38536
803.4756, 91.53667
803.9577, 91.61910
804.4398, 91.63686
804.9219, 91.43775
805.4041, 91.34872
805.8862, 91.51427
806.3683, 91.86114
806.8504, 92.07584
807.3325, 92.13033
807.8146, 92.19106
808.2968, 92.31681
808.7789, 92.49374
809.2610, 92.74463
809.7431, 93.03427
810.2252, 93.21835
810.7073, 93.18362
811.1895, 93.05517
811.6716, 92.88676
812.1537, 92.68755
812.6358, 92.48138
813.1179, 92.21690
813.6000, 92.01495
814.0822, 91.86205
814.5643, 91.80362
815.0464, 92.11229
815.5285, 92.79762
816.0106, 93.27551
816.4927, 93.26820
816.9749, 92.95850
817.4570, 92.43914
817.9391, 91.83337
818.4212, 91.48125
818.9033, 91.63505
819.3854, 91.97552
819.8676, 92.55000
820.3497, 93.21532
820.8318, 93.50927
821.3139, 93.30337
821.7960, 93.00639
822.2781, 92.67042
822.7603, 92.34873
823.2424, 92.13628
823.7245, 92.03642
824.2066, 92.09316
824.6887, 92.51911
825.1708, 92.86540
825.6530, 92.49748
826.1351, 91.75290
826.6172, 91.39136
827.0993, 92.08976
827.5814, 92.62514
828.0635, 92.64564
828.5457, 92.41113
829.0278, 92.53674
829.5099, 93.11732
829.9920, 93.40640
830.4741, 93.17349
830.9562, 92.66195
831.4384, 92.14668
831.9205, 91.66560
832.4026, 91.30769
832.8847, 91.07872
833.3668, 91.01124
833.8489, 91.14661
834.3311, 91.44576
834.8132, 91.86792
835.2953, 92.60613
835.7774, 93.07301
836.2595, 93.17418
836.7416, 93.01652
837.2238, 92.67602
837.7059, 92.18340
838.1880, 91.88749
838.6701, 91.91500
839.1522, 91.99890
839.6343, 91.80876
840.1165, 91.52129
840.5986, 91.40220
841.0807, 91.69500
841.5628, 91.87266
842.0449, 91.66174
842.5270, 91.40601
843.0092, 91.52541
843.4913, 92.15444
843.9734, 92.34200
844.4555, 91.92445
844.9376, 91.35613
845.4197, 91.18136
845.9019, 91.25904
846.3840, 91.29491
846.8661, 91.23119
847.3482, 91.13770
847.8303, 91.02756
848.3124, 90.92217
848.7946, 90.83714
849.2767, 90.75703
849.7588, 90.73599
850.2409, 90.75436
850.7230, 90.86825
851.2051, 91.23546
851.6873, 91.77943
852.1694, 91.92159
852.6515, 91.60579
853.1336, 91.37711
853.6157, 91.85960
854.0978, 92.53346
854.5800, 92.93713
855.0621, 93.01215
855.5442, 92.81399
856.0263, 92.07565
856.5084, 91.35803
856.9905, 90.93471
857.4727, 90.80730
857.9548, 90.80138
858.4369, 90.93952
858.9190, 90.96087
859.4011, 90.49603
859.8832, 89.88661
860.3654, 89.75994
860.8475, 90.07051
861.3296, 90.29094
861.8117, 90.00354
862.2938, 89.73495
862.7759, 89.83500
863.2581, 90.23130
863.7402, 90.30818
864.2223, 89.92255
864.7044, 89.72211
865.1865, 90.12875
865.6686, 90.80093
866.1508, 90.73533
866.6329, 90.09653
867.1150, 89.60003
867.5971, 89.82906
868.0792, 90.10983
868.5613, 89.89635
869.0435, 89.40196
869.5256, 89.35204
870.0077, 90.23684
870.4898, 90.74458
870.9719, 90.55177
871.4540, 89.93555
871.9362, 89.44082
872.4183, 89.06705
872.9004, 88.80629
873.3825, 88.65397
873.8646, 88.61967
874.3467, 88.90450
874.8289, 89.25723
875.3110, 89.29221
875.7931, 88.57453
876.2752, 87.96322
876.7573, 87.45351
877.2394, 87.14725
877.7216, 87.26840
878.2037, 87.85526
878.6858, 88.16135
879.1679, 88.07604
879.6500, 87.82211
880.1321, 87.61687
880.6143, 87.40978
881.0964, 87.06346
881.5785, 86.46622
882.0606, 86.14670
882.5427, 86.61732
883.0248, 87.17625
883.5070, 87.32365
883.9891, 86.98110
884.4712, 86.68505
884.9533, 86.42326
885.4354, 86.27939
885.9175, 86.44783
886.3997, 86.74136
886.8818, 86.69740
887.3639, 86.33247
887.8460, 86.08765
888.3281, 86.30483
888.8102, 86.61765
889.2924, 86.91382
889.7745, 87.16699
890.2566, 87.04855
890.7387, 86.42250
891.2208, 85.83169
891.7029, 85.45928
892.1851, 85.30244
892.6672, 85.45681
893.1493, 85.84492
893.6314, 86.12713
894.1135, 86.05673
894.5956, 85.90998
895.0778, 85.86167
895.5599, 85.85469
896.0420, 85.71520
896.5241, 85.21870
897.0062, 85.07813
897.4883, 85.55196
897.9705, 86.22935
898.4526, 86.30789
898.9347, 85.90300
899.4168, 85.53321
899.8989, 85.30805
900.3810, 85.20482
900.8632, 85.37412
901.3453, 85.57188
901.8274, 85.50294
902.3095, 84.83168
902.7916, 84.39994
903.2737, 84.21986
903.7559, 84.26688
904.2380, 84.61485
904.7201, 85.21917
905.2022, 85.59569
905.6843, 85.70702
906.1664, 85.80181
906.6486, 86.22897
907.1307, 86.62763
907.6128, 86.58562
908.0949, 86.03532
908.5770, 85.67320
909.0591, 85.75081
909.5413, 85.80711
910.0234, 85.59821
910.5055, 85.20380
910.9876, 85.20044
911.4697, 85.56335
911.9518, 85.81680
912.4340, 85.59507
912.9161, 85.21439
913.3982, 84.96325
913.8803, 84.81414
914.3624, 84.69228
914.8445, 84.49729
915.3267, 84.44264
915.8088, 84.62237
916.2909, 84.91435
916.7730, 85.08609
917.2551, 85.13877
917.7372, 85.07182
918.2194, 84.78960
918.7015, 84.69939
919.1836, 85.61578
919.6657, 86.85578
920.1478, 87.44061
920.6299, 86.77388
921.1121, 86.24503
921.5942, 86.00169
922.0763, 86.00505
922.5584, 86.28281
923.0405, 86.84598
923.5226, 87.36314
924.0048, 87.82307
924.4869, 88.24574
924.9690, 88.66875
925.4511, 89.05506
925.9332, 89.32684
926.4153, 89.48882
926.8975, 89.69775
927.3796, 90.10647
927.8617, 90.43680
928.3438, 90.54045
928.8259, 90.49193
929.3080, 90.69468
929.7902, 91.14551
930.2723, 91.67612
930.7544, 92.28047
931.2365, 92.84172
931.7186, 93.08925
932.2007, 93.20353
932.6829, 93.55293
933.1650, 94.73851
933.6471, 95.47435
934.1292, 95.23091
934.6113, 94.80797
935.0934, 95.54146
935.5756, 97.41972
936.0577, 98.59043
936.5398, 98.73215
937.0219, 98.52670
937.5040, 98.48478
937.9861, 98.54897
938.4683, 98.60603
938.9504, 98.57192
939.4325, 98.91099
939.9146, 100.0733
940.3967, 101.1150
940.8788, 101.4314
941.3610, 101.1061
941.8431, 101.3264
942.3252, 102.0754
942.8073, 102.8187
943.2894, 103.2422
943.7715, 103.4743
944.2537, 103.5780
944.7358, 103.5826
945.2179, 103.5861
945.7000, 103.5934
946.1821, 103.6137
946.6642, 103.5925
947.1464, 103.6394
947.6285, 104.0826
948.1106, 104.8555
948.5927, 105.4299
949.0748, 105.6426
949.5569, 105.7249
950.0391, 105.8225
950.5212, 105.9339
951.0033, 106.0754
951.4854, 106.3633
951.9675, 106.3507
952.4496, 105.7979
952.9318, 105.3564
953.4139, 105.6995
953.8960, 106.6422
954.3781, 107.0955
954.8602, 107.0511
955.3423, 106.8135
955.8245, 106.5138
956.3066, 106.1540
956.7887, 105.7022
957.2708, 105.1745
957.7529, 104.7251
958.2350, 104.4634
958.7172, 104.0091
959.1993, 103.1852
959.6814, 102.2003
960.1635, 101.5650
960.6456, 101.1645
961.1277, 100.6380
961.6099, 99.84007
962.0920, 98.94072
962.5741, 97.84370
963.0562, 96.80033
963.5383, 96.13445
964.0204, 96.01485
964.5026, 95.79283
964.9847, 95.48047
965.4668, 95.01840
965.9489, 94.23153
966.4310, 93.29626
966.9131, 92.48796
967.3953, 91.84269
967.8774, 91.46581
968.3595, 91.72910
968.8416, 91.96249
969.3237, 91.79900
969.8058, 91.33091
970.2880, 90.99096
970.7701, 90.80092
971.2522, 90.49540
971.7343, 89.85303
972.2164, 89.26949
972.6985, 89.39644
973.1807, 89.98109
973.6628, 90.54049
974.1449, 91.03544
974.6270, 91.31333
975.1091, 91.06005
975.5912, 90.84782
976.0734, 91.34991
976.5555, 92.58949
977.0376, 93.13795
977.5197, 92.88217
978.0018, 92.73344
978.4839, 93.65740
978.9661, 94.90601
979.4482, 95.60637
979.9303, 95.76055
980.4124, 96.40508
980.8945, 97.87216
981.3766, 99.58025
981.8588, 101.4370
982.3409, 103.3833
982.8230, 105.3509
983.3051, 107.2874
983.7872, 108.8912
984.2693, 109.9051
984.7515, 110.8450
985.2336, 112.5655
985.7157, 114.2069
986.1978, 114.5984
986.6799, 113.5831
987.1620, 111.5435
987.6442, 108.2735
988.1263, 104.5452
988.6084, 100.7718
989.0905, 97.15613
989.5726, 94.35616
990.0547, 92.34911
990.5369, 90.67839
991.0190, 89.17820
991.5011, 87.89202
991.9832, 86.80005
992.4653, 85.93790
992.9474, 85.52274
993.4296, 85.61282
993.9117, 85.62569
994.3938, 85.35342
994.8759, 85.01079
995.3580, 84.89164
995.8401, 84.89896
996.3223, 84.89069
996.8044, 84.92735
997.2865, 84.70723
997.7686, 83.96423
998.2507, 83.23208
998.7328, 82.97703
999.2150, 83.17139
999.6971, 83.10688
1000.179, 82.78713
1000.661, 82.46827
1001.143, 82.31319
1001.626, 82.24191
1002.108, 82.21921
1002.590, 82.23103
1003.072, 82.22057
1003.554, 82.18663
1004.036, 82.11928
1004.518, 81.99285
1005.000, 81.87672
1005.482, 81.91166
1005.965, 82.05230
1006.447, 82.17999
1006.929, 82.26506
1007.411, 82.34219
1007.893, 82.50318
1008.375, 82.59875
1008.857, 82.54209
1009.339, 82.33459
1009.822, 81.79353
1010.304, 80.85233
1010.786, 80.31821
1011.268, 81.05906
1011.750, 82.25322
1012.232, 82.98959
1012.714, 83.31171
1013.196, 83.37304
1013.678, 83.02068
1014.161, 82.64818
1014.643, 82.22205
1015.125, 81.91418
1015.607, 82.20345
1016.089, 82.91928
1016.571, 82.80690
1017.053, 81.59044
1017.535, 80.62349
1018.018, 81.32968
1018.500, 82.40130
1018.982, 82.81796
1019.464, 82.49886
1019.946, 82.02695
1020.428, 81.27328
1020.910, 80.85976
1021.392, 81.15813
1021.874, 81.84484
1022.357, 82.42247
1022.839, 82.87358
1023.321, 83.14639
1023.803, 83.08499
1024.285, 83.04007
1024.767, 83.21947
1025.249, 83.34393
1025.731, 83.05143
1026.214, 82.33304
1026.696, 82.01735
1027.178, 82.15078
1027.660, 82.36562
1028.142, 82.41468
1028.624, 82.38694
1029.106, 82.32063
1029.588, 82.23624
1030.070, 82.24455
1030.553, 82.36857
1031.035, 82.55672
1031.517, 82.85163
1031.999, 83.11263
1032.481, 82.94097
1032.963, 82.54897
1033.445, 82.55297
1033.927, 83.27015
1034.410, 83.76082
1034.892, 83.34002
1035.374, 82.76162
1035.856, 82.58964
1036.338, 82.83745
1036.820, 82.64771
1037.302, 82.00843
1037.784, 81.70082
1038.266, 82.71677
1038.749, 83.86730
1039.231, 83.74810
1039.713, 82.83508
1040.195, 82.28787
1040.677, 82.65525
1041.159, 82.76015
1041.641, 82.37866
1042.123, 81.96153
1042.605, 82.20197
1043.088, 82.83689
1043.570, 83.06906
1044.052, 82.81516
1044.534, 82.53184
1045.016, 82.44807
1045.498, 82.41231
1045.980, 82.29659
1046.462, 82.15954
1046.945, 82.34206
1047.427, 82.86015
1047.909, 83.29636
1048.391, 83.52197
1048.873, 83.58665
1049.355, 83.54520
1049.837, 83.37387
1050.319, 83.01325
1050.802, 82.26249
1051.284, 81.79173
1051.766, 81.68519
1052.248, 81.69398
1052.730, 81.56520
1053.212, 81.42639
1053.694, 81.83784
1054.176, 82.65921
1054.658, 83.24059
1055.141, 82.99978
1055.623, 82.76753
1056.105, 82.94875
1056.587, 83.25365
1057.069, 83.20862
1057.551, 82.79964
1058.033, 82.52669
1058.515, 82.45509
1058.997, 82.48479
1059.480, 82.53976
1059.962, 82.64123
1060.444, 82.87892
1060.926, 83.25134
1061.408, 83.34378
1061.890, 83.03643
1062.372, 82.74631
1062.854, 82.61056
1063.337, 82.57943
1063.819, 82.55453
1064.301, 82.56346
1064.783, 82.69451
1065.265, 83.09077
1065.747, 83.32005
1066.229, 83.20773
1066.711, 82.92091
1067.193, 82.45501
1067.676, 81.84049
1068.158, 81.69912
1068.640, 82.00259
1069.122, 82.33316
1069.604, 82.48914
1070.086, 82.53414
1070.568, 82.36689
1071.050, 82.15762
1071.532, 82.32097
1072.015, 83.08404
1072.497, 83.39220
1072.979, 83.07023
1073.461, 82.61269
1073.943, 82.51641
1074.425, 82.63233
1074.907, 82.83033
1075.389, 83.08208
1075.872, 83.12619
1076.354, 82.57959
1076.836, 82.30686
1077.318, 82.70773
1077.800, 83.35258
1078.282, 83.13476
1078.764, 82.30267
1079.246, 81.77794
1079.729, 81.83252
1080.211, 82.08727
1080.693, 82.49723
1081.175, 82.89439
1081.657, 83.16512
1082.139, 83.31088
1082.621, 83.28814
1083.103, 83.09422
1083.585, 82.88783
1084.068, 82.73414
1084.550, 82.62949
1085.032, 82.54121
1085.514, 82.50809
1085.996, 82.61734
1086.478, 82.97447
1086.960, 83.26100
1087.442, 83.47665
1087.924, 83.59171
1088.406, 83.53016
1088.889, 83.36996
1089.371, 83.20686
1089.853, 83.06543
1090.335, 83.05464
1090.817, 83.37892
1091.299, 83.63313
1091.781, 83.73125
1092.263, 83.70358
1092.746, 83.58604
1093.228, 83.38844
1093.710, 83.10353
1094.192, 82.70256
1094.674, 82.49171
1095.156, 82.83647
1095.638, 83.29317
1096.120, 83.57832
1096.603, 83.70284
1097.085, 83.76022
1097.567, 83.74657
1098.049, 83.74222
1098.531, 83.77512
1099.013, 83.83060
1099.495, 83.90798
1099.977, 83.99207
1100.459, 84.07027
1100.942, 84.16055
1101.424, 84.17452
1101.906, 84.09908
1102.388, 83.99248
1102.870, 83.97132
1103.352, 83.90133
1103.834, 83.33629
1104.316, 82.49781
1104.798, 82.02448
1105.281, 82.46970
1105.763, 82.83409
1106.245, 82.96432
1106.727, 82.99937
1107.209, 83.14379
1107.691, 83.32899
1108.173, 83.16832
1108.655, 82.67113
1109.138, 82.29253
1109.620, 82.30844
1110.102, 82.48632
1110.584, 82.84400
1111.066, 83.23001
1111.548, 83.30540
1112.030, 83.07578
1112.512, 82.80484
1112.995, 82.51730
1113.477, 82.33292
1113.959, 82.45426
1114.441, 82.64690
1114.923, 82.73496
1115.405, 82.70380
1115.887, 82.48233
1116.369, 81.98949
1116.851, 81.77352
1117.333, 82.10172
1117.816, 82.64060
1118.298, 82.97916
1118.780, 83.22678
1119.262, 83.59657
1119.744, 84.34219
1120.226, 84.46069
1120.708, 83.68124
1121.190, 82.88346
1121.673, 82.56712
1122.155, 82.60721
1122.637, 82.91700
1123.119, 83.31918
1123.601, 83.32357
1124.083, 82.05141
1124.565, 81.36342
1125.047, 81.79222
1125.530, 82.52310
1126.012, 82.78895
1126.494, 82.68752
1126.976, 82.82506
1127.458, 83.17319
1127.940, 83.33169
1128.422, 82.84002
1128.904, 82.36858
1129.386, 82.21914
1129.869, 82.26695
1130.351, 82.36295
1130.833, 82.50526
1131.315, 82.57806
1131.797, 82.56034
1132.279, 82.60891
1132.761, 82.86281
1133.243, 83.21485
1133.725, 83.69278
1134.208, 84.21325
1134.690, 84.38156
1135.172, 84.14157
1135.654, 83.97948
1136.136, 84.02733
1136.618, 84.11911
1137.100, 84.06860
1137.582, 83.96418
1138.065, 83.92569
1138.547, 83.98925
1139.029, 83.88355
1139.511, 83.55140
1139.993, 83.22762
1140.475, 82.97808
1140.957, 82.82940
1141.439, 82.87563
1141.922, 83.03439
1142.404, 83.16032
1142.886, 83.18184
1143.368, 83.28826
1143.850, 83.58317
1144.332, 83.76326
1144.814, 83.62310
1145.296, 83.24059
1145.778, 82.60764
1146.260, 81.89827
1146.743, 81.60362
1147.225, 82.53826
1147.707, 83.01765
1148.189, 82.59191
1148.671, 81.94837
1149.153, 81.61674
1149.635, 81.58635
1150.117, 81.97049
1150.600, 82.68459
1151.082, 83.14606
1151.564, 82.90915
1152.046, 82.53815
1152.528, 82.09234
1153.010, 81.73685
1153.492, 81.76749
1153.974, 82.14197
1154.457, 82.39057
1154.939, 82.47002
1155.421, 82.46815
1155.903, 82.33809
1156.385, 82.24850
1156.867, 82.33130
1157.349, 82.52020
1157.831, 82.70667
1158.313, 82.89200
1158.796, 82.93735
1159.278, 82.81184
1159.760, 82.60925
1160.242, 82.22954
1160.724, 81.95231
1161.206, 82.13232
1161.688, 82.68122
1162.170, 82.86510
1162.652, 82.64388
1163.135, 82.50536
1163.617, 82.60440
1164.099, 82.76765
1164.581, 82.81321
1165.063, 82.82718
1165.545, 82.93044
1166.027, 83.15054
1166.509, 83.19817
1166.992, 83.04763
1167.474, 82.87173
1167.956, 82.75684
1168.438, 82.61871
1168.920, 82.20210
1169.402, 81.75303
1169.884, 81.65205
1170.366, 82.13133
1170.849, 82.43079
1171.331, 82.50060
1171.813, 82.57656
1172.295, 82.87849
1172.777, 83.18781
1173.259, 83.06906
1173.741, 82.70567
1174.223, 82.46373
1174.705, 82.56814
1175.188, 82.56992
1175.670, 82.45034
1176.152, 82.26189
1176.634, 81.91598
1177.116, 81.58959
1177.598, 81.74993
1178.080, 82.22892
1178.562, 82.51347
1179.044, 82.17130
1179.527, 82.04947
1180.009, 82.30395
1180.491, 82.60038
1180.973, 82.58362
1181.455, 82.38113
1181.937, 82.31518
1182.419, 82.35458
1182.901, 82.28228
1183.384, 81.71272
1183.866, 81.50085
1184.348, 81.93113
1184.830, 82.49834
1185.312, 82.45618
1185.794, 82.07119
1186.276, 82.11780
1186.758, 82.60638
1187.240, 82.97445
1187.723, 82.88343
1188.205, 82.75376
1188.687, 82.66707
1189.169, 82.61780
1189.651, 82.59823
1190.133, 82.60751
1190.615, 82.66782
1191.097, 82.78133
1191.579, 82.83591
1192.062, 82.66551
1192.544, 82.57205
1193.026, 82.65014
1193.508, 82.86547
1193.990, 83.29704
1194.472, 83.80729
1194.954, 83.82536
1195.436, 83.19221
1195.919, 82.63000
1196.401, 82.49352
1196.883, 82.48122
1197.365, 82.50374
1197.847, 82.53341
1198.329, 82.41271
1198.811, 82.21905
1199.293, 82.31475
1199.776, 82.89428
1200.258, 83.26954
1200.740, 82.89232
1201.222, 82.46127
1201.704, 82.30900
1202.186, 82.38429
1202.668, 82.53195
1203.150, 82.73538
1203.632, 82.95745
1204.115, 83.25742
1204.597, 83.36594
1205.079, 82.86465
1205.561, 82.43984
1206.043, 82.60015
1206.525, 83.16202
1207.007, 83.06072
1207.489, 82.46019
1207.971, 82.10341
1208.454, 82.38857
1208.936, 82.74634
1209.418, 83.19759
1209.900, 83.36057
1210.382, 82.73254
1210.864, 81.54431
1211.346, 81.71378
1211.828, 82.93058
1212.311, 83.65834
1212.793, 82.73088
1213.275, 81.93873
1213.757, 82.03419
1214.239, 82.42761
1214.721, 82.76479
1215.203, 83.03852
1215.685, 83.22914
1216.167, 83.31828
1216.650, 83.21509
1217.132, 82.57624
1217.614, 82.13301
1218.096, 82.21600
1218.578, 82.47393
1219.060, 82.65587
1219.542, 82.75469
1220.024, 82.66381
1220.506, 82.42591
1220.989, 82.28265
1221.471, 82.46611
1221.953, 82.60661
1222.435, 82.49496
1222.917, 82.41836
1223.399, 82.78783
1223.881, 83.46762
1224.363, 83.68082
1224.846, 83.49259
1225.328, 83.45047
1225.810, 84.36936
1226.292, 84.66477
1226.774, 83.59724
1227.256, 82.29710
1227.738, 82.22337
1228.220, 83.03188
1228.703, 83.53864
1229.185, 83.69418
1229.667, 83.65740
1230.149, 83.24187
1230.631, 83.01157
1231.113, 83.19199
1231.595, 83.43840
1232.077, 83.13581
1232.559, 82.57773
1233.042, 82.74231
1233.524, 83.58581
1234.006, 84.20374
1234.488, 83.98620
1234.970, 83.83041
1235.452, 83.94949
1235.934, 84.11998
1236.416, 83.96630
1236.898, 83.66104
1237.381, 83.65518
1237.863, 83.94254
1238.345, 84.08379
1238.827, 83.75497
1239.309, 83.55179
1239.791, 83.59881
1240.273, 83.74821
1240.755, 83.77043
1241.238, 83.76762
1241.720, 84.02709
1242.202, 84.52805
1242.684, 84.69911
1243.166, 84.22701
1243.648, 83.86804
1244.130, 83.79387
1244.612, 83.78603
1245.094, 83.46982
1245.577, 83.07481
1246.059, 83.00075
1246.541, 83.25192
1247.023, 83.36362
1247.505, 83.22864
1247.987, 83.15520
1248.469, 83.23324
1248.951, 83.29903
1249.433, 83.03289
1249.916, 82.71461
1250.398, 82.73360
1250.880, 83.09593
1251.362, 83.28015
1251.844, 83.22315
1252.326, 83.21674
1252.808, 83.35230
1253.290, 83.43818
1253.773, 83.10378
1254.255, 82.73933
1254.737, 82.77133
1255.219, 83.19154
1255.701, 83.56386
1256.183, 83.89478
1256.665, 84.12855
1257.147, 84.25565
1257.630, 84.25621
1258.112, 84.00695
1258.594, 83.70923
1259.076, 83.53660
1259.558, 83.46857
1260.040, 83.40880
1260.522, 83.35768
1261.004, 83.27319
1261.486, 83.11628
1261.969, 83.13135
1262.451, 83.73025
1262.933, 84.34618
1263.415, 84.65111
1263.897, 84.66503
1264.379, 84.30521
1264.861, 83.65114
1265.343, 83.34203
1265.825, 83.55320
1266.308, 83.81736
1266.790, 83.97389
1267.272, 83.96996
1267.754, 83.70866
1268.236, 83.35033
1268.718, 83.32127
1269.200, 83.55956
1269.682, 83.89227
1270.165, 84.31374
1270.647, 84.55600
1271.129, 84.32839
1271.611, 84.11954
1272.093, 84.09180
1272.575, 84.16161
1273.057, 84.22958
1273.539, 84.24523
1274.021, 84.03015
1274.504, 83.51824
1274.986, 83.24891
1275.468, 83.45288
1275.950, 83.57706
1276.432, 83.38938
1276.914, 83.19425
1277.396, 83.66997
1277.878, 84.35228
1278.360, 84.47923
1278.843, 83.91846
1279.325, 83.48994
1279.807, 83.23906
1280.289, 83.15166
1280.771, 83.27225
1281.253, 83.39550
1281.735, 83.08971
1282.217, 82.78037
1282.700, 83.07635
1283.182, 83.95101
1283.664, 84.27845
1284.146, 83.99818
1284.628, 83.88326
1285.110, 84.16226
1285.592, 84.46114
1286.074, 84.35949
1286.557, 84.22301
1287.039, 84.43675
1287.521, 84.85182
1288.003, 84.84868
1288.485, 84.46597
1288.967, 84.15835
1289.449, 84.02543
1289.931, 83.97808
1290.413, 84.03915
1290.896, 84.07849
1291.378, 83.95739
1291.860, 83.83456
1292.342, 84.37267
1292.824, 85.24991
1293.306, 85.16354
1293.788, 83.81165
1294.270, 82.84905
1294.752, 83.20491
1295.235, 83.76025
1295.717, 84.35337
1296.199, 84.78149
1296.681, 84.47610
1297.163, 83.83640
1297.645, 83.57939
1298.127, 83.79815
1298.609, 84.18180
1299.092, 84.79225
1299.574, 85.24465
1300.056, 85.47343
1300.538, 85.45794
1301.020, 84.92760
1301.502, 84.31594
1301.984, 84.17907
1302.466, 84.51421
1302.948, 84.74822
1303.431, 84.87540
1303.913, 84.93081
1304.395, 84.93241
1304.877, 84.82977
##END=



