##NAMES=Braunite
##RRUFFID=R050385
##IDEAL CHEMISTRY=Mn^2+^Mn^3+^_6_SiO_12_
##LOCALITY=Jhabua District, Madhya Pradesh, India
##OWNER=RRUFF
##SOURCE=University of Arizona Mineral Museum
##DESCRIPTION=Black prismatic crystals
##STATUS=The identification of this mineral has been confirmed by X-ray diffraction and chemical analysis
##URL=rruff.info/R050385
##MEASURED CHEMISTRY=(Fe^2+^_0.61_Mn^2+^_0.39_)_Σ=1_(Mn^3+^_5.94_Al_0.06_)_Σ=6_Si_1.00_O_12_
92.35352, 13.35223
92.83563, 14.40508
93.31775, 14.85415
93.79987, 14.22239
94.28198, 12.92376
94.76410, 12.20091
95.24622, 12.46230
95.72833, 13.25786
96.21045, 13.61747
96.69257, 13.51955
97.17468, 13.36450
97.65680, 13.59352
98.13892, 14.19658
98.62103, 14.60646
99.10315, 14.65024
99.58527, 14.37009
100.0674, 13.92335
100.5495, 13.16678
101.0316, 12.56842
101.5137, 12.78185
101.9958, 13.99231
102.4780, 15.37273
102.9601, 16.73490
103.4422, 18.12074
103.9243, 19.15957
104.4064, 19.63880
104.8885, 19.91185
105.3707, 20.64520
105.8528, 22.02217
106.3349, 23.59547
106.8170, 25.20829
107.2991, 26.91479
107.7813, 28.56023
108.2634, 30.16706
108.7455, 31.72383
109.2276, 33.13505
109.7097, 34.34301
110.1918, 35.45884
110.6740, 36.53020
111.1561, 37.30538
111.6382, 38.32009
112.1203, 39.65267
112.6024, 41.28522
113.0845, 43.03674
113.5667, 44.85483
114.0488, 46.78772
114.5309, 48.89009
115.0130, 51.73495
115.4951, 54.19838
115.9772, 55.64206
116.4594, 56.11341
116.9415, 57.02444
117.4236, 59.14125
117.9057, 61.89074
118.3878, 64.64738
118.8699, 67.12084
119.3521, 69.62089
119.8342, 72.30370
120.3163, 75.16934
120.7984, 78.32285
121.2805, 81.68530
121.7626, 85.38781
122.2448, 89.65456
122.7269, 96.39839
123.2090, 102.8837
123.6911, 105.9701
124.1732, 104.7728
124.6553, 102.4985
125.1375, 101.7993
125.6196, 102.3991
126.1017, 103.4237
126.5838, 104.5930
127.0659, 105.8074
127.5480, 106.9598
128.0302, 108.1436
128.5123, 109.0505
128.9944, 109.0359
129.4765, 108.1878
129.9586, 107.3299
130.4407, 107.5809
130.9229, 108.4763
131.4050, 107.9339
131.8871, 105.0365
132.3692, 100.9622
132.8513, 98.36473
133.3334, 97.15448
133.8156, 96.29245
134.2977, 95.30718
134.7798, 94.53267
135.2619, 94.18266
135.7440, 94.38762
136.2261, 95.03908
136.7083, 95.49166
137.1904, 95.53549
137.6725, 96.01884
138.1546, 98.66257
138.6367, 104.3382
139.1188, 107.3948
139.6010, 105.7651
140.0831, 99.46370
140.5652, 94.39772
141.0473, 90.73284
141.5294, 87.93368
142.0115, 85.32455
142.4937, 82.68844
142.9758, 80.65549
143.4579, 79.40599
143.9400, 79.00874
144.4221, 79.06294
144.9042, 79.69635
145.3864, 80.69355
145.8685, 81.68073
146.3506, 82.64870
146.8327, 83.62917
147.3148, 84.68659
147.7969, 86.02644
148.2791, 86.97201
148.7612, 87.49486
149.2433, 87.63647
149.7254, 87.47049
150.2075, 86.16878
150.6896, 85.28056
151.1718, 85.41975
151.6539, 87.70116
152.1360, 89.37199
152.6181, 90.10143
153.1002, 90.14746
153.5823, 90.27380
154.0645, 91.25130
154.5466, 91.80862
155.0287, 91.34996
155.5108, 88.97535
155.9929, 86.58742
156.4750, 84.39864
156.9572, 82.39902
157.4393, 80.60905
157.9214, 78.92374
158.4035, 77.49086
158.8856, 76.39584
159.3677, 75.48766
159.8499, 75.08031
160.3320, 75.49092
160.8141, 76.59200
161.2962, 77.63908
161.7783, 78.60362
162.2604, 79.28822
162.7426, 79.53038
163.2247, 78.87016
163.7068, 78.12199
164.1889, 77.62450
164.6710, 77.37383
165.1531, 77.20406
165.6353, 76.88774
166.1174, 76.65755
166.5995, 76.76401
167.0816, 77.77910
167.5637, 78.80055
168.0458, 79.05534
168.5280, 78.53651
169.0101, 78.25169
169.4922, 79.37450
169.9743, 81.02930
170.4564, 81.98487
170.9385, 81.56483
171.4207, 80.33994
171.9028, 78.53114
172.3849, 76.11962
172.8670, 73.92027
173.3491, 72.44414
173.8312, 71.61163
174.3134, 71.27193
174.7955, 71.83010
175.2776, 72.63909
175.7597, 72.82152
176.2418, 72.26580
176.7239, 71.67786
177.2061, 71.79040
177.6882, 72.40427
178.1703, 72.97337
178.6524, 73.17390
179.1345, 73.18085
179.6166, 73.29744
180.0988, 73.55905
180.5809, 73.83796
181.0630, 74.04715
181.5451, 74.17097
182.0272, 74.13749
182.5093, 73.62214
182.9915, 72.93205
183.4736, 72.80652
183.9557, 73.30772
184.4378, 74.31590
184.9199, 76.01104
185.4020, 78.24538
185.8842, 80.19405
186.3663, 81.37825
186.8484, 81.89634
187.3305, 82.00288
187.8126, 81.66325
188.2947, 81.06590
188.7769, 80.26911
189.2590, 79.30318
189.7411, 78.81802
190.2232, 79.44734
190.7053, 81.00333
191.1874, 82.23505
191.6696, 82.95942
192.1517, 83.50799
192.6338, 84.62382
193.1159, 86.33368
193.5980, 87.89922
194.0801, 88.84447
194.5623, 89.20136
195.0444, 89.39072
195.5265, 89.34686
196.0086, 89.29191
196.4907, 89.65184
196.9728, 90.42559
197.4550, 91.60790
197.9371, 93.48022
198.4192, 96.06371
198.9013, 97.92689
199.3834, 98.77232
199.8655, 99.00655
200.3477, 99.57662
200.8298, 100.5002
201.3119, 101.6869
201.7940, 103.1975
202.2761, 105.0780
202.7582, 106.7557
203.2404, 108.1419
203.7225, 109.3256
204.2046, 110.5124
204.6867, 111.6716
205.1688, 112.9473
205.6509, 114.4429
206.1331, 116.1983
206.6152, 117.9593
207.0973, 119.7014
207.5794, 121.4376
208.0615, 123.1854
208.5436, 124.9112
209.0258, 126.7463
209.5079, 128.8647
209.9900, 131.4066
210.4721, 133.4999
210.9542, 134.9366
211.4363, 135.9230
211.9185, 137.1740
212.4006, 138.7905
212.8827, 140.4634
213.3648, 142.0282
213.8469, 143.5765
214.3290, 144.7680
214.8112, 145.6355
215.2933, 146.1113
215.7754, 145.8957
216.2575, 144.7295
216.7396, 143.3555
217.2217, 142.1875
217.7038, 141.2400
218.1860, 140.5035
218.6681, 140.1737
219.1502, 140.0314
219.6323, 139.1942
220.1144, 137.3324
220.5965, 135.3571
221.0787, 133.8059
221.5608, 132.8203
222.0429, 131.8687
222.5250, 130.8410
223.0071, 129.8369
223.4892, 129.3324
223.9714, 129.6732
224.4535, 129.9648
224.9356, 129.6351
225.4177, 128.2235
225.8998, 127.3095
226.3819, 127.0120
226.8641, 127.2558
227.3462, 127.8684
227.8283, 129.1622
228.3104, 130.3452
228.7925, 131.0160
229.2746, 131.1306
229.7568, 130.7955
230.2389, 129.7820
230.7210, 128.3528
231.2031, 127.3895
231.6852, 127.0747
232.1673, 126.9531
232.6495, 126.8317
233.1316, 126.7588
233.6137, 126.5832
234.0958, 126.3300
234.5779, 125.9690
235.0600, 125.4028
235.5422, 124.5265
236.0243, 123.5884
236.5064, 122.7246
236.9885, 122.1090
237.4706, 121.1522
237.9527, 119.6328
238.4349, 117.8434
238.9170, 116.5263
239.3991, 115.7799
239.8812, 115.3602
240.3633, 115.2724
240.8454, 115.9199
241.3276, 115.8394
241.8097, 114.5754
242.2918, 112.7536
242.7739, 111.8211
243.2560, 112.3672
243.7381, 112.8882
244.2203, 112.7071
244.7024, 111.3075
245.1845, 110.7004
245.6666, 111.2168
246.1487, 112.3681
246.6308, 113.2566
247.1130, 113.8804
247.5951, 114.2393
248.0772, 114.2394
248.5593, 113.6745
249.0414, 113.5490
249.5235, 114.1832
250.0057, 115.0534
250.4878, 115.3151
250.9699, 114.8598
251.4520, 113.9704
251.9341, 112.6059
252.4162, 110.5646
252.8984, 109.0664
253.3805, 108.4475
253.8626, 108.1047
254.3447, 107.1655
254.8268, 105.4304
255.3089, 103.4737
255.7911, 101.3877
256.2732, 99.10817
256.7553, 97.15642
257.2374, 95.56361
257.7195, 94.26378
258.2017, 93.21783
258.6838, 92.55821
259.1659, 91.83002
259.6480, 90.89788
260.1301, 89.76231
260.6122, 88.60550
261.0944, 87.31173
261.5765, 86.13629
262.0586, 85.39561
262.5407, 85.26225
263.0228, 85.08515
263.5049, 84.68843
263.9871, 84.08438
264.4692, 83.69827
264.9513, 83.63774
265.4334, 83.61816
265.9155, 83.34412
266.3976, 82.72594
266.8798, 82.16378
267.3619, 81.69699
267.8440, 81.33620
268.3261, 81.17850
268.8082, 81.18317
269.2903, 81.47292
269.7725, 82.33208
270.2546, 83.99928
270.7367, 85.04769
271.2188, 85.08624
271.7009, 84.38213
272.1830, 84.10543
272.6652, 84.40095
273.1473, 84.73166
273.6294, 84.61579
274.1115, 83.90813
274.5936, 83.72501
275.0757, 84.37295
275.5579, 85.47525
276.0400, 85.81499
276.5221, 85.19138
277.0042, 84.61334
277.4863, 84.80241
277.9684, 85.83761
278.4506, 86.53291
278.9327, 86.77017
279.4148, 86.67796
279.8969, 86.45419
280.3790, 86.06994
280.8611, 85.76160
281.3433, 85.67169
281.8254, 85.79943
282.3075, 85.96008
282.7896, 86.16129
283.2717, 86.36839
283.7538, 86.51195
284.2360, 86.58916
284.7181, 86.68548
285.2002, 86.81474
285.6823, 86.98438
286.1644, 87.30857
286.6465, 87.82646
287.1287, 88.34402
287.6108, 88.43968
288.0929, 88.15410
288.5750, 88.26343
289.0571, 89.26291
289.5392, 90.89694
290.0214, 92.04408
290.5035, 92.63989
290.9856, 93.24169
291.4677, 94.50645
291.9498, 96.34402
292.4319, 98.17409
292.9141, 99.98187
293.3962, 101.5995
293.8783, 102.5330
294.3604, 102.7707
294.8425, 102.7975
295.3246, 102.9820
295.8068, 103.2914
296.2889, 103.6551
296.7710, 104.2087
297.2531, 104.6343
297.7352, 104.4828
298.2173, 103.7564
298.6995, 102.4243
299.1816, 99.97671
299.6637, 96.94471
300.1458, 94.57067
300.6279, 93.22145
301.1100, 92.22298
301.5922, 90.85920
302.0743, 89.16283
302.5564, 87.27831
303.0385, 85.05315
303.5206, 82.75896
304.0027, 80.69557
304.4849, 78.88951
304.9670, 77.44503
305.4491, 76.60259
305.9312, 76.22900
306.4133, 76.00484
306.8954, 76.17036
307.3776, 76.19552
307.8597, 75.27762
308.3418, 73.25874
308.8239, 71.51365
309.3060, 71.29513
309.7881, 71.97813
310.2703, 72.58000
310.7524, 72.77165
311.2345, 72.69305
311.7166, 72.16106
312.1987, 71.21600
312.6808, 70.79003
313.1630, 72.01258
313.6451, 73.80116
314.1272, 74.99962
314.6093, 74.79243
315.0914, 74.30658
315.5735, 74.00774
316.0557, 73.87321
316.5378, 73.78539
317.0199, 73.41844
317.5020, 73.23805
317.9841, 73.62518
318.4662, 75.05440
318.9484, 76.46788
319.4305, 77.52934
319.9126, 78.31379
320.3947, 79.01784
320.8768, 79.75386
321.3589, 80.38268
321.8411, 80.78423
322.3232, 80.76152
322.8053, 80.95107
323.2874, 81.49479
323.7695, 82.31932
324.2516, 83.30862
324.7338, 84.88835
325.2159, 86.22163
325.6980, 86.95685
326.1801, 86.91483
326.6622, 87.02493
327.1443, 87.37707
327.6265, 87.89968
328.1086, 88.52370
328.5907, 89.15549
329.0728, 89.98270
329.5549, 90.99932
330.0370, 92.21067
330.5192, 93.76245
331.0013, 96.02715
331.4834, 98.32857
331.9655, 100.2430
332.4476, 101.7929
332.9297, 102.9019
333.4119, 103.3919
333.8940, 103.4130
334.3761, 103.6709
334.8582, 104.4809
335.3403, 105.0202
335.8224, 104.7453
336.3046, 103.2012
336.7867, 102.2932
337.2688, 102.4782
337.7509, 102.9925
338.2330, 102.1481
338.7151, 99.56900
339.1973, 96.82643
339.6794, 94.49439
340.1615, 92.61290
340.6436, 90.66776
341.1257, 88.60654
341.6078, 86.64259
342.0899, 85.11385
342.5721, 84.07946
343.0542, 83.02284
343.5363, 81.69710
344.0184, 80.25033
344.5005, 79.40089
344.9826, 79.22139
345.4648, 79.16051
345.9469, 78.68356
346.4290, 77.84267
346.9111, 77.12263
347.3932, 76.66115
347.8753, 76.29514
348.3575, 75.65844
348.8396, 74.78111
349.3217, 73.98734
349.8038, 73.58178
350.2859, 73.42361
350.7680, 73.12066
351.2502, 72.56818
351.7323, 72.09267
352.2144, 72.26444
352.6965, 72.86342
353.1786, 73.21891
353.6607, 72.74056
354.1429, 71.95274
354.6250, 71.57213
355.1071, 71.64331
355.5892, 71.67190
356.0713, 71.10527
356.5534, 70.28795
357.0356, 69.72800
357.5177, 69.64999
357.9998, 69.86094
358.4819, 70.34956
358.9640, 71.06535
359.4461, 71.71491
359.9283, 72.31551
360.4104, 72.69203
360.8925, 72.62837
361.3746, 71.67924
361.8567, 70.97209
362.3388, 71.18991
362.8210, 71.99147
363.3031, 72.60638
363.7852, 72.72330
364.2673, 72.65409
364.7494, 72.48372
365.2315, 72.14268
365.7137, 71.99275
366.1958, 72.20785
366.6779, 72.61607
367.1600, 73.01740
367.6421, 73.56142
368.1242, 73.91927
368.6064, 73.92012
369.0885, 73.53816
369.5706, 73.37171
370.0527, 73.63065
370.5348, 73.94234
371.0169, 74.05085
371.4991, 73.71288
371.9812, 73.59817
372.4633, 73.89691
372.9454, 74.44627
373.4275, 74.63095
373.9096, 74.22533
374.3918, 73.85301
374.8739, 73.86604
375.3560, 74.41972
375.8381, 74.61336
376.3202, 74.29236
376.8023, 73.80915
377.2845, 73.78776
377.7666, 74.34800
378.2487, 74.69561
378.7308, 74.43746
379.2129, 73.70612
379.6950, 73.55350
380.1772, 74.10005
380.6593, 74.59526
381.1414, 74.21274
381.6235, 73.05368
382.1056, 71.98872
382.5877, 71.12276
383.0699, 70.55467
383.5520, 70.71618
384.0341, 71.52457
384.5162, 72.12206
384.9983, 71.69484
385.4804, 70.70280
385.9626, 70.20253
386.4447, 70.36929
386.9268, 70.64375
387.4089, 70.35182
387.8910, 69.72671
388.3731, 69.30003
388.8553, 69.41012
389.3374, 69.76158
389.8195, 70.20232
390.3016, 70.70232
390.7837, 70.96483
391.2658, 70.63910
391.7480, 70.04470
392.2301, 69.50946
392.7122, 69.12860
393.1943, 68.81703
393.6764, 68.50856
394.1585, 68.23704
394.6407, 68.10197
395.1228, 68.17553
395.6049, 68.36162
396.0870, 68.69311
396.5691, 69.32079
397.0512, 69.60002
397.5334, 69.16850
398.0155, 68.39822
398.4976, 67.76141
398.9797, 67.42662
399.4618, 67.09097
399.9439, 66.60809
400.4261, 65.97924
400.9082, 65.70072
401.3903, 66.03672
401.8724, 66.47018
402.3545, 66.69287
402.8366, 66.71588
403.3188, 66.47031
403.8009, 65.80000
404.2830, 64.92508
404.7651, 64.44131
405.2472, 64.48153
405.7293, 64.54544
406.2115, 64.38200
406.6936, 63.98003
407.1757, 63.85340
407.6578, 64.07915
408.1399, 64.37231
408.6220, 64.48150
409.1042, 64.40425
409.5863, 63.93986
410.0684, 62.77441
410.5505, 61.39365
411.0326, 61.11098
411.5147, 61.89034
411.9969, 62.62952
412.4790, 62.37814
412.9611, 61.51363
413.4432, 60.92513
413.9253, 60.73068
414.4074, 60.79995
414.8896, 61.06211
415.3717, 61.48000
415.8538, 61.96695
416.3359, 62.59341
416.8180, 63.19517
417.3001, 63.67266
417.7823, 64.02139
418.2644, 64.10133
418.7465, 63.43745
419.2286, 62.65260
419.7107, 62.38866
420.1928, 63.32533
420.6750, 64.10513
421.1571, 63.93232
421.6392, 63.18832
422.1213, 62.86791
422.6034, 63.72306
423.0855, 64.63610
423.5677, 65.15337
424.0498, 65.15228
424.5319, 65.05743
425.0140, 64.80264
425.4961, 64.51601
425.9782, 64.32925
426.4604, 64.33865
426.9425, 64.30234
427.4246, 64.11272
427.9067, 63.82222
428.3888, 63.86023
428.8709, 64.46584
429.3531, 64.97826
429.8352, 64.97059
430.3173, 64.31150
430.7994, 63.76799
431.2815, 63.31559
431.7636, 63.05385
432.2458, 63.28768
432.7279, 64.05733
433.2100, 64.62508
433.6921, 64.66133
434.1742, 64.30453
434.6563, 64.03830
435.1385, 63.85944
435.6206, 63.74426
436.1027, 63.75983
436.5848, 63.82582
437.0669, 63.66201
437.5490, 63.10337
438.0312, 62.58498
438.5133, 62.58383
438.9954, 63.01998
439.4775, 63.67095
439.9596, 64.62816
440.4417, 65.62005
440.9239, 66.48871
441.4060, 67.22572
441.8881, 67.60994
442.3702, 67.16063
442.8523, 66.45608
443.3344, 66.05244
443.8166, 66.34279
444.2987, 66.66608
444.7808, 66.64778
445.2629, 66.48426
445.7450, 66.75471
446.2271, 68.05236
446.7093, 69.38167
447.1914, 70.35541
447.6735, 70.85638
448.1556, 71.33568
448.6377, 71.75338
449.1198, 72.17104
449.6020, 72.63522
450.0841, 73.06007
450.5662, 73.70955
451.0483, 74.73439
451.5304, 76.01369
452.0125, 76.98138
452.4947, 77.60909
452.9768, 78.03803
453.4589, 78.16771
453.9410, 77.98161
454.4231, 78.52120
454.9052, 79.94717
455.3874, 81.66372
455.8695, 82.91740
456.3516, 83.77180
456.8337, 84.64046
457.3158, 85.60471
457.7979, 86.71887
458.2801, 88.21143
458.7622, 90.01753
459.2443, 91.73443
459.7264, 92.81659
460.2085, 93.73669
460.6906, 95.20111
461.1728, 97.43408
461.6549, 99.61979
462.1370, 100.9251
462.6191, 101.8348
463.1012, 103.0287
463.5833, 104.7280
464.0655, 106.7964
464.5476, 109.4324
465.0297, 112.5146
465.5118, 115.1949
465.9939, 116.7618
466.4760, 118.1611
466.9582, 119.9532
467.4403, 122.8683
467.9224, 124.9463
468.4045, 125.4060
468.8866, 125.3229
469.3687, 126.3000
469.8509, 128.9335
470.3330, 131.5423
470.8151, 133.8843
471.2972, 135.9281
471.7793, 137.1898
472.2614, 137.4201
472.7436, 137.5856
473.2257, 138.6026
473.7078, 140.5019
474.1899, 141.3947
474.6720, 140.9564
475.1541, 140.0062
475.6363, 140.0249
476.1184, 140.7781
476.6005, 140.7450
477.0826, 138.9636
477.5647, 136.2421
478.0468, 133.7852
478.5290, 131.5778
479.0111, 129.4809
479.4932, 127.5082
479.9753, 125.5433
480.4574, 123.4647
480.9395, 121.2671
481.4217, 118.8794
481.9038, 116.0529
482.3859, 113.0923
482.8680, 110.4824
483.3501, 108.6867
483.8322, 106.9717
484.3144, 104.9649
484.7965, 102.7167
485.2786, 100.8014
485.7607, 99.58720
486.2428, 98.52805
486.7249, 97.36021
487.2071, 96.09724
487.6892, 94.69867
488.1713, 92.95584
488.6534, 91.22704
489.1355, 90.06441
489.6176, 89.66972
490.0998, 89.24052
490.5819, 88.56409
491.0640, 87.69348
491.5461, 86.89673
492.0282, 86.17033
492.5103, 85.51881
492.9925, 84.84087
493.4746, 84.20656
493.9567, 84.14194
494.4388, 84.77566
494.9209, 85.47139
495.4030, 85.27214
495.8852, 84.55534
496.3673, 84.29631
496.8494, 85.30348
497.3315, 86.49574
497.8136, 86.62303
498.2957, 85.95994
498.7779, 85.63396
499.2600, 86.47145
499.7421, 87.69286
500.2242, 88.79780
500.7063, 89.73936
501.1884, 90.54095
501.6706, 91.10837
502.1527, 91.58234
502.6348, 92.09477
503.1169, 92.47359
503.5990, 93.12782
504.0811, 94.25671
504.5633, 95.70082
505.0454, 96.84802
505.5275, 97.36736
506.0096, 98.13397
506.4917, 99.61405
506.9738, 101.9153
507.4560, 103.7379
507.9381, 104.9980
508.4202, 106.0052
508.9023, 106.9684
509.3844, 107.9030
509.8665, 109.1092
510.3487, 110.7064
510.8308, 112.4830
511.3129, 114.2180
511.7950, 115.8667
512.2772, 117.2187
512.7593, 118.0714
513.2414, 118.6129
513.7235, 119.0565
514.2056, 119.4086
514.6877, 119.6655
515.1699, 119.9937
515.6520, 120.1366
516.1341, 119.8370
516.6162, 118.9065
517.0983, 117.7833
517.5804, 116.4506
518.0626, 115.0417
518.5447, 113.7762
519.0268, 113.1643
519.5089, 112.1776
519.9910, 110.5313
520.4731, 108.2576
520.9553, 105.8760
521.4374, 103.2609
521.9195, 100.7658
522.4016, 98.66105
522.8837, 97.09511
523.3658, 95.16180
523.8480, 92.68742
524.3301, 90.19463
524.8122, 88.47926
525.2943, 87.50468
525.7764, 86.58469
526.2585, 85.55678
526.7407, 84.45700
527.2228, 83.22438
527.7049, 81.90553
528.1870, 80.80655
528.6691, 80.33154
529.1512, 80.04924
529.6334, 79.37303
530.1155, 78.24006
530.5976, 77.22711
531.0797, 76.83181
531.5618, 76.64046
532.0439, 76.22854
532.5261, 75.10877
533.0082, 74.30008
533.4903, 74.43305
533.9724, 75.01403
534.4545, 74.98172
534.9366, 73.56750
535.4188, 72.30949
535.9009, 71.61494
536.3830, 71.46927
536.8651, 71.22578
537.3472, 70.91063
537.8293, 70.45245
538.3115, 69.63156
538.7936, 68.37578
539.2757, 67.94250
539.7578, 68.59017
540.2399, 69.51371
540.7220, 69.53999
541.2042, 68.82473
541.6863, 68.29309
542.1684, 68.37798
542.6505, 68.60350
543.1326, 68.19936
543.6147, 67.31316
544.0969, 66.49690
544.5790, 66.00014
545.0611, 65.77361
545.5432, 65.89059
546.0253, 66.37537
546.5074, 66.73097
546.9896, 66.64030
547.4717, 66.39059
547.9538, 66.21465
548.4359, 66.24958
548.9180, 66.22529
549.4001, 66.06417
549.8823, 65.84940
550.3644, 65.70213
550.8465, 65.53327
551.3286, 65.60765
551.8107, 66.04652
552.2928, 66.80159
552.7750, 67.59603
553.2571, 68.51630
553.7392, 69.08170
554.2213, 68.65856
554.7034, 67.49556
555.1855, 67.04462
555.6677, 67.40822
556.1498, 68.23027
556.6319, 69.39363
557.1140, 70.70517
557.5961, 71.75218
558.0782, 72.37146
558.5604, 72.76759
559.0425, 72.87053
559.5246, 72.87227
560.0067, 73.20403
560.4888, 74.40676
560.9709, 75.64516
561.4531, 76.45768
561.9352, 76.83452
562.4173, 77.39658
562.8994, 78.36058
563.3815, 79.42362
563.8636, 80.44160
564.3458, 81.35518
564.8279, 82.39804
565.3100, 83.70518
565.7921, 84.98695
566.2742, 85.75670
566.7563, 85.94273
567.2385, 86.37535
567.7206, 87.26962
568.2027, 88.45937
568.6848, 89.59552
569.1669, 90.69102
569.6490, 91.72614
570.1312, 92.65789
570.6133, 93.55305
571.0954, 94.51720
571.5775, 95.55676
572.0596, 96.54525
572.5417, 97.46121
573.0239, 98.27163
573.5060, 98.87273
573.9881, 99.08415
574.4702, 99.55569
574.9523, 100.8542
575.4344, 102.3925
575.9166, 103.4183
576.3987, 103.8776
576.8808, 103.8368
577.3629, 103.1235
577.8450, 101.9317
578.3271, 100.8779
578.8093, 99.98116
579.2914, 99.17219
579.7735, 98.45805
580.2556, 97.82807
580.7377, 97.13882
581.2198, 96.39286
581.7020, 95.57442
582.1841, 94.62686
582.6662, 93.60374
583.1483, 92.67645
583.6304, 91.93092
584.1125, 91.00379
584.5947, 89.31995
585.0768, 87.31933
585.5589, 85.64568
586.0410, 84.62553
586.5231, 83.85797
587.0052, 83.29315
587.4873, 82.86913
587.9694, 82.42739
588.4515, 81.85622
588.9337, 81.34853
589.4158, 81.01025
589.8979, 80.84361
590.3800, 80.46611
590.8621, 79.71913
591.3442, 79.03758
591.8264, 78.77000
592.3085, 78.95224
592.7906, 78.88730
593.2727, 78.49283
593.7548, 78.06133
594.2369, 77.93678
594.7191, 78.06532
595.2012, 78.24565
595.6833, 78.42992
596.1654, 78.64146
596.6475, 79.01488
597.1296, 79.43575
597.6118, 79.64821
598.0939, 79.06870
598.5760, 78.66695
599.0581, 79.05444
599.5402, 80.17220
600.0223, 81.38402
600.5045, 82.96848
600.9866, 84.24299
601.4687, 84.76537
601.9508, 84.20213
602.4329, 84.42065
602.9150, 85.80016
603.3972, 87.43470
603.8793, 88.39742
604.3614, 88.58526
604.8435, 89.32130
605.3256, 90.88475
605.8077, 92.73132
606.2899, 93.93419
606.7720, 94.62431
607.2541, 95.34969
607.7362, 96.15726
608.2183, 97.26092
608.7004, 99.24797
609.1826, 101.8264
609.6647, 103.9114
610.1468, 104.2269
610.6289, 104.5044
611.1110, 106.0503
611.5931, 109.0070
612.0753, 111.3293
612.5574, 112.2480
613.0395, 112.7149
613.5216, 113.2097
614.0037, 113.5132
614.4858, 114.4850
614.9680, 116.3858
615.4501, 118.6016
615.9322, 120.4825
616.4143, 122.0248
616.8964, 123.1870
617.3785, 123.9334
617.8607, 124.3214
618.3428, 124.2619
618.8249, 123.8740
619.3070, 123.6575
619.7891, 124.0601
620.2712, 124.5938
620.7534, 124.8513
621.2355, 124.8360
621.7176, 124.5442
622.1997, 123.9206
622.6818, 123.0682
623.1639, 121.9577
623.6461, 120.5273
624.1282, 119.2891
624.6103, 118.4602
625.0924, 117.6914
625.5745, 116.8123
626.0566, 115.9219
626.5388, 114.5352
627.0209, 112.4822
627.5030, 110.2235
627.9851, 108.4762
628.4672, 107.2181
628.9493, 105.6801
629.4315, 103.5719
629.9136, 101.2944
630.3957, 99.41090
630.8778, 97.88054
631.3599, 96.60954
631.8420, 95.77296
632.3242, 95.00146
632.8063, 93.95174
633.2884, 92.69567
633.7705, 91.59053
634.2526, 90.86635
634.7347, 90.23577
635.2169, 89.60258
635.6990, 88.99993
636.1811, 88.13338
636.6632, 86.67613
637.1453, 85.36330
637.6274, 84.87453
638.1096, 85.39902
638.5917, 85.30907
639.0738, 84.36875
639.5559, 83.27302
640.0380, 82.96541
640.5201, 83.28242
641.0023, 83.51582
641.4844, 83.47829
641.9665, 83.30820
642.4486, 83.02641
642.9307, 82.72985
643.4128, 82.63171
643.8950, 83.16965
644.3771, 83.58849
644.8592, 83.35433
645.3413, 82.62534
645.8234, 82.25899
646.3055, 82.62396
646.7877, 83.15297
647.2698, 83.78700
647.7519, 84.55121
648.2340, 84.68907
648.7161, 83.95596
649.1982, 83.26590
649.6804, 83.42437
650.1625, 84.31975
650.6446, 84.89748
651.1267, 85.08842
651.6088, 85.06798
652.0909, 84.80810
652.5731, 84.50589
653.0552, 84.55016
653.5373, 85.16633
654.0194, 85.82443
654.5015, 86.33942
654.9836, 86.65717
655.4658, 86.70328
655.9479, 86.07388
656.4300, 85.61848
656.9121, 85.64414
657.3942, 85.95690
657.8763, 86.01064
658.3585, 85.66659
658.8406, 85.39774
659.3227, 85.41882
659.8048, 85.63092
660.2869, 85.42390
660.7690, 84.77556
661.2512, 84.25963
661.7333, 84.52357
662.2154, 85.09245
662.6975, 84.91940
663.1796, 83.99108
663.6617, 83.14353
664.1439, 82.91956
664.6260, 83.05782
665.1081, 83.43748
665.5902, 84.22697
666.0723, 84.58794
666.5544, 84.10146
667.0366, 83.21678
667.5187, 82.30296
668.0008, 80.99165
668.4829, 80.46688
668.9650, 80.99929
669.4471, 82.10899
669.9293, 83.18841
670.4114, 84.24216
670.8935, 84.87306
671.3756, 84.81665
671.8577, 84.53065
672.3398, 84.75976
672.8220, 85.40967
673.3041, 86.15323
673.7862, 86.85954
674.2683, 87.56872
674.7504, 88.26436
675.2325, 88.97333
675.7147, 89.80510
676.1968, 91.03316
676.6789, 92.18156
677.1610, 92.95547
677.6431, 93.33795
678.1252, 93.88493
678.6074, 94.44085
679.0895, 95.44524
679.5716, 97.47295
680.0537, 100.5399
680.5358, 102.5394
681.0179, 103.3363
681.5001, 103.7712
681.9822, 104.4605
682.4643, 105.4209
682.9464, 106.7073
683.4285, 108.3909
683.9106, 110.1870
684.3928, 112.0860
684.8749, 113.9221
685.3570, 115.5253
685.8391, 116.5761
686.3212, 117.7478
686.8033, 119.3480
687.2855, 121.0758
687.7676, 122.4486
688.2497, 123.3811
688.7318, 124.1829
689.2139, 124.8176
689.6960, 125.4566
690.1782, 126.8599
690.6603, 128.9550
691.1424, 130.2950
691.6245, 129.7395
692.1066, 128.3477
692.5887, 127.8814
693.0709, 128.1027
693.5530, 127.9740
694.0351, 126.8267
694.5172, 125.2290
694.9993, 123.3592
695.4814, 121.2238
695.9636, 119.4166
696.4457, 118.6143
696.9278, 117.5735
697.4099, 115.6116
697.8920, 112.5283
698.3741, 109.8611
698.8563, 107.6488
699.3384, 105.7345
699.8205, 104.2422
700.3026, 102.9988
700.7847, 100.9490
701.2668, 97.87576
701.7490, 94.82333
702.2311, 92.70188
702.7132, 91.25323
703.1953, 90.21777
703.6774, 89.91491
704.1595, 89.18974
704.6417, 87.20724
705.1238, 84.66783
705.6059, 82.56086
706.0880, 80.90010
706.5701, 79.73406
707.0522, 79.28065
707.5344, 79.16873
708.0165, 78.59398
708.4986, 77.52515
708.9807, 76.53324
709.4628, 75.82797
709.9449, 75.24778
710.4271, 74.55935
710.9092, 73.75059
711.3913, 72.74918
711.8734, 71.04828
712.3555, 69.55610
712.8376, 69.02058
713.3198, 69.29718
713.8019, 69.62910
714.2840, 70.10943
714.7661, 70.30110
715.2482, 70.04869
715.7303, 69.36008
716.2125, 68.31001
716.6946, 66.67307
717.1767, 65.27040
717.6588, 64.64078
718.1409, 64.70000
718.6230, 65.01494
719.1052, 65.60174
719.5873, 65.87935
720.0694, 65.04993
720.5515, 63.80311
721.0336, 63.05351
721.5157, 62.96628
721.9979, 62.91730
722.4800, 62.69705
722.9621, 62.34021
723.4442, 61.83693
723.9263, 60.95223
724.4084, 60.46639
724.8906, 60.56306
725.3727, 60.83666
725.8548, 60.83007
726.3369, 60.50970
726.8190, 60.50577
727.3011, 60.99625
727.7833, 61.43682
728.2654, 60.98137
728.7475, 59.92905
729.2296, 58.94406
729.7117, 58.08878
730.1938, 57.61549
730.6760, 58.18827
731.1581, 59.13339
731.6402, 59.42223
732.1223, 57.95971
732.6044, 56.88944
733.0865, 56.71583
733.5687, 57.04238
734.0508, 57.02998
734.5329, 56.59666
735.0150, 56.15681
735.4971, 55.79470
735.9792, 55.51582
736.4614, 55.33055
736.9435, 55.23896
737.4256, 55.24108
737.9077, 55.32872
738.3898, 55.51707
738.8719, 56.00102
739.3541, 56.63404
739.8362, 56.89207
740.3183, 56.20621
740.8004, 55.48941
741.2825, 55.07598
741.7646, 54.94126
742.2468, 54.94341
742.7289, 55.21318
743.2110, 55.28167
743.6931, 54.79164
744.1752, 53.89785
744.6573, 53.56568
745.1395, 53.78284
745.6216, 54.02961
746.1037, 53.78338
746.5858, 53.44875
747.0679, 53.64037
747.5500, 54.35826
748.0322, 54.89330
748.5143, 54.91092
748.9964, 54.65416
749.4785, 54.12441
749.9606, 53.14817
750.4427, 52.94011
750.9249, 53.97430
751.4070, 54.96915
751.8891, 54.85708
752.3712, 53.66246
752.8533, 53.02404
753.3354, 53.01464
753.8176, 53.23077
754.2997, 53.54337
754.7818, 53.74148
755.2639, 53.33839
755.7460, 52.12746
756.2281, 51.21862
756.7103, 51.39741
757.1924, 52.02649
757.6745, 52.57437
758.1566, 52.97988
758.6387, 53.31163
759.1208, 53.67700
759.6030, 53.84102
760.0851, 53.40105
760.5672, 52.31957
761.0493, 51.76861
761.5314, 51.96461
762.0135, 52.33433
762.4957, 52.03196
762.9778, 51.44197
763.4599, 51.36217
763.9420, 52.25312
764.4241, 53.03532
764.9063, 53.03478
765.3884, 52.62263
765.8705, 52.24926
766.3526, 51.84180
766.8347, 51.71084
767.3168, 52.06421
767.7990, 52.52241
768.2811, 52.34031
768.7632, 51.45940
769.2453, 51.29308
769.7274, 52.38564
770.2095, 53.64157
770.6917, 53.13688
771.1738, 51.63411
771.6559, 50.85937
772.1380, 52.14528
772.6201, 53.30183
773.1022, 52.87474
773.5844, 51.59145
774.0665, 50.73420
774.5486, 50.52265
775.0307, 50.70404
775.5128, 51.48152
775.9949, 52.48151
776.4771, 52.81261
776.9592, 52.45588
777.4413, 52.05822
777.9234, 51.76301
778.4055, 51.59522
778.8876, 51.62453
779.3698, 51.81351
779.8519, 52.06667
780.3340, 52.60992
780.8161, 52.92542
781.2982, 52.52044
781.7803, 51.70389
782.2625, 51.34560
782.7446, 51.93679
783.2267, 52.23699
783.7088, 51.83548
784.1909, 51.07304
784.6730, 50.98531
785.1552, 51.56486
785.6373, 52.19424
786.1194, 52.75209
786.6015, 53.08542
787.0836, 52.79454
787.5657, 52.07354
788.0479, 51.45883
788.5300, 51.09237
789.0121, 51.00790
789.4942, 51.49017
789.9763, 52.31480
790.4584, 52.58698
790.9406, 51.93995
791.4227, 51.41886
791.9048, 51.29546
792.3869, 51.50502
792.8690, 52.03303
793.3511, 52.83842
793.8333, 53.20999
794.3154, 52.49937
794.7975, 51.44936
795.2796, 50.88277
795.7617, 50.72884
796.2438, 50.78558
796.7260, 51.32139
797.2081, 51.68475
797.6902, 51.48869
798.1723, 50.89193
798.6544, 50.50605
799.1365, 50.39106
799.6187, 50.32460
800.1008, 50.18299
800.5829, 50.07117
801.0650, 50.43792
801.5471, 51.19500
802.0292, 51.78383
802.5114, 51.83456
802.9935, 51.63110
803.4756, 51.28754
803.9577, 50.88534
804.4398, 50.69577
804.9219, 50.85509
805.4041, 51.19241
805.8862, 51.79897
806.3683, 52.54006
806.8504, 52.78813
807.3325, 52.42956
807.8146, 52.15075
808.2968, 52.31293
808.7789, 52.63270
809.2610, 52.40128
809.7431, 51.73711
810.2252, 51.12254
810.7073, 50.72218
811.1895, 50.53574
811.6716, 50.59464
812.1537, 50.86980
812.6358, 51.26863
813.1179, 52.10911
813.6000, 52.59705
814.0822, 52.40087
814.5643, 51.76650
815.0464, 51.60590
815.5285, 51.92576
816.0106, 52.34432
816.4927, 52.86132
816.9749, 53.22705
817.4570, 52.82689
817.9391, 51.93851
818.4212, 51.35064
818.9033, 51.82237
819.3854, 52.25213
819.8676, 52.01762
820.3497, 51.36783
820.8318, 51.19218
821.3139, 51.73179
821.7960, 52.17485
822.2781, 52.29141
822.7603, 52.21766
823.2424, 52.33284
823.7245, 52.59390
824.2066, 52.71244
824.6887, 52.45736
825.1708, 52.15626
825.6530, 52.22889
826.1351, 52.47549
826.6172, 52.45210
827.0993, 51.74071
827.5814, 51.09102
828.0635, 50.50772
828.5457, 50.13221
829.0278, 50.41528
829.5099, 51.52055
829.9920, 52.12233
830.4741, 51.74413
830.9562, 51.01286
831.4384, 50.87399
831.9205, 51.19283
832.4026, 51.64482
832.8847, 52.38855
833.3668, 52.84374
833.8489, 52.47755
834.3311, 51.68946
834.8132, 51.16399
835.2953, 51.01091
835.7774, 51.00673
836.2595, 51.23608
836.7416, 51.46613
837.2238, 51.18389
837.7059, 50.46832
838.1880, 50.09808
838.6701, 50.29644
839.1522, 50.72460
839.6343, 51.22654
840.1165, 51.67414
840.5986, 51.86622
841.0807, 51.59777
841.5628, 51.31918
842.0449, 50.98719
842.5270, 50.77808
843.0092, 50.97967
843.4913, 51.74639
843.9734, 51.94372
844.4555, 51.33197
844.9376, 50.66409
845.4197, 51.08776
845.9019, 52.07476
846.3840, 52.44975
846.8661, 51.87093
847.3482, 51.26707
847.8303, 51.17445
848.3124, 51.28801
848.7946, 51.33891
849.2767, 51.27919
849.7588, 51.22462
850.2409, 51.18659
850.7230, 51.13160
851.2051, 50.98664
851.6873, 50.78242
852.1694, 50.76036
852.6515, 50.94363
853.1336, 51.08865
853.6157, 50.81352
854.0978, 50.51765
854.5800, 50.67683
855.0621, 51.42030
855.5442, 51.93797
856.0263, 51.93172
856.5084, 51.79459
856.9905, 51.66225
857.4727, 51.53486
857.9548, 51.68938
858.4369, 52.16963
858.9190, 52.46117
859.4011, 52.03868
859.8832, 51.27787
860.3654, 50.74997
860.8475, 50.45810
861.3296, 50.24467
861.8117, 50.07317
862.2938, 49.92570
862.7759, 49.75463
863.2581, 49.57957
863.7402, 49.60658
864.2223, 49.91428
864.7044, 50.14902
865.1865, 50.11756
865.6686, 49.94279
866.1508, 50.01834
866.6329, 50.26066
867.1150, 50.30679
867.5971, 49.64463
868.0792, 49.04115
868.5613, 49.01543
869.0435, 49.41749
869.5256, 49.79805
870.0077, 50.34822
870.4898, 50.40602
870.9719, 49.59771
871.4540, 48.47820
871.9362, 48.47356
872.4183, 49.41460
872.9004, 49.91424
873.3825, 49.35562
873.8646, 48.60757
874.3467, 48.52072
874.8289, 48.79643
875.3110, 48.98541
875.7931, 48.98745
876.2752, 48.83784
876.7573, 48.38535
877.2394, 47.93545
877.7216, 47.95343
878.2037, 48.48530
878.6858, 48.58676
879.1679, 48.07136
879.6500, 47.50114
880.1321, 47.57232
880.6143, 47.94468
881.0964, 48.09692
881.5785, 47.87410
882.0606, 47.71295
882.5427, 47.85371
883.0248, 48.04232
883.5070, 48.09344
883.9891, 47.97376
884.4712, 47.95606
884.9533, 48.07726
885.4354, 48.11169
885.9175, 47.85538
886.3997, 47.39046
886.8818, 46.76691
887.3639, 46.02316
887.8460, 45.56450
888.3281, 45.75064
888.8102, 46.16239
889.2924, 46.78709
889.7745, 47.55668
890.2566, 47.48113
890.7387, 46.17655
891.2208, 45.20639
891.7029, 45.35654
892.1851, 46.19124
892.6672, 46.70951
893.1493, 46.91879
893.6314, 46.84588
894.1135, 46.21270
894.5956, 45.59684
895.0778, 45.26999
895.5599, 45.21218
896.0420, 45.39779
896.5241, 46.00623
897.0062, 46.44791
897.4883, 46.58462
897.9705, 46.56942
898.4526, 46.73859
898.9347, 47.01797
899.4168, 47.01250
899.8989, 46.51185
900.3810, 46.04648
900.8632, 46.09473
901.3453, 46.38549
901.8274, 46.60303
902.3095, 46.55288
902.7916, 46.68613
903.2737, 47.08057
903.7559, 47.54966
904.2380, 48.07177
904.7201, 48.58923
905.2022, 48.28069
905.6843, 47.07997
906.1664, 46.11489
906.6486, 46.83412
907.1307, 47.86243
907.6128, 47.68916
908.0949, 46.07771
908.5770, 45.32390
909.0591, 46.47478
909.5413, 47.47772
910.0234, 47.37813
910.5055, 46.40715
910.9876, 46.03868
911.4697, 46.24334
911.9518, 46.46365
912.4340, 46.36309
912.9161, 46.14795
913.3982, 46.05933
913.8803, 46.02810
914.3624, 45.86149
914.8445, 45.12152
915.3267, 44.76678
915.8088, 45.15136
916.2909, 45.86096
916.7730, 46.03934
917.2551, 45.69802
917.7372, 45.35429
918.2194, 45.11018
918.7015, 44.94671
919.1836, 44.75507
919.6657, 44.66616
920.1478, 44.88455
920.6299, 45.63026
921.1121, 46.31890
921.5942, 46.96616
922.0763, 47.43975
922.5584, 47.59997
923.0405, 47.43769
923.5226, 47.17508
924.0048, 46.80339
924.4869, 46.59116
924.9690, 46.86674
925.4511, 47.35053
925.9332, 47.73435
926.4153, 48.00178
926.8975, 48.27523
927.3796, 48.68252
927.8617, 48.97333
928.3438, 48.91523
928.8259, 48.67633
929.3080, 49.36273
929.7902, 50.95301
930.2723, 52.08252
930.7544, 51.85524
931.2365, 51.20243
931.7186, 51.02724
932.2007, 51.26254
932.6829, 51.76819
933.1650, 52.69422
933.6471, 53.66424
934.1292, 54.75320
934.6113, 55.73957
935.0934, 56.17645
935.5756, 56.07570
936.0577, 56.27178
936.5398, 56.88897
937.0219, 57.72085
937.5040, 58.78680
937.9861, 59.82708
938.4683, 60.45060
938.9504, 60.47509
939.4325, 60.73544
939.9146, 61.59459
940.3967, 62.40821
940.8788, 62.79957
941.3610, 62.80889
941.8431, 62.92704
942.3252, 63.15956
942.8073, 63.64190
943.2894, 64.79613
943.7715, 65.95627
944.2537, 66.45155
944.7358, 66.41827
945.2179, 66.41206
945.7000, 66.62431
946.1821, 66.77184
946.6642, 66.78594
947.1464, 66.73078
947.6285, 66.71525
948.1106, 66.74472
948.5927, 66.92390
949.0748, 67.38887
949.5569, 67.64696
950.0391, 66.99909
950.5212, 66.02901
951.0033, 65.40761
951.4854, 65.34715
951.9675, 65.45598
952.4496, 65.83526
952.9318, 66.18868
953.4139, 66.27385
953.8960, 66.12691
954.3781, 65.88676
954.8602, 65.57407
955.3423, 65.41771
955.8245, 65.93039
956.3066, 66.34115
956.7887, 65.89989
957.2708, 64.74147
957.7529, 64.17348
958.2350, 64.61279
958.7172, 64.73907
959.1993, 64.14234
959.6814, 63.09490
960.1635, 62.07487
960.6456, 61.10264
961.1277, 60.28411
961.6099, 59.78230
962.0920, 59.17086
962.5741, 58.05138
963.0562, 56.77509
963.5383, 55.75747
964.0204, 55.05659
964.5026, 54.45513
964.9847, 53.95947
965.4668, 53.55425
965.9489, 53.27342
966.4310, 53.06229
966.9131, 52.82433
967.3953, 52.54833
967.8774, 52.15607
968.3595, 51.51061
968.8416, 50.83763
969.3237, 50.17112
969.8058, 49.56297
970.2880, 49.35569
970.7701, 49.62149
971.2522, 49.64664
971.7343, 49.11211
972.2164, 48.34876
972.6985, 47.67250
973.1807, 47.14269
973.6628, 46.89687
974.1449, 47.34230
974.6270, 47.44838
975.1091, 46.72552
975.5912, 45.86341
976.0734, 45.51130
976.5555, 45.68032
977.0376, 45.91546
977.5197, 46.21170
978.0018, 46.18883
978.4839, 45.07333
978.9661, 43.80533
979.4482, 43.49206
979.9303, 44.12963
980.4124, 44.36378
980.8945, 43.64100
981.3766, 43.07148
981.8588, 43.06557
982.3409, 43.35539
982.8230, 43.11509
983.3051, 42.45194
983.7872, 41.93293
984.2693, 41.79531
984.7515, 41.79088
985.2336, 41.90395
985.7157, 41.97775
986.1978, 41.77127
986.6799, 41.01003
987.1620, 40.62690
987.6442, 40.73092
988.1263, 40.90830
988.6084, 40.62994
989.0905, 40.17521
989.5726, 40.39970
990.0547, 41.26213
990.5369, 41.86833
991.0190, 41.68243
991.5011, 41.19617
991.9832, 40.41171
992.4653, 39.52766
992.9474, 39.34308
993.4296, 39.96786
993.9117, 40.22084
994.3938, 39.59722
994.8759, 38.79869
995.3580, 38.85433
995.8401, 39.35371
996.3223, 39.62218
996.8044, 39.33410
997.2865, 39.16268
997.7686, 39.37708
998.2507, 39.53165
998.7328, 39.17097
999.2150, 38.33793
999.6971, 37.98847
1000.179, 38.12546
1000.661, 38.42217
1001.143, 38.90241
1001.626, 39.24082
1002.108, 39.07679
1002.590, 38.51729
1003.072, 38.12852
1003.554, 38.00475
1004.036, 37.92387
1004.518, 37.85604
1005.000, 37.78625
1005.482, 37.61904
1005.965, 37.43472
1006.447, 37.47507
1006.929, 37.84462
1007.411, 38.24088
1007.893, 38.64400
1008.375, 38.91015
1008.857, 38.93348
1009.339, 38.69972
1009.822, 38.38418
1010.304, 37.96973
1010.786, 37.66966
1011.268, 37.61827
1011.750, 37.76395
1012.232, 38.24970
1012.714, 38.88790
1013.196, 39.14776
1013.678, 38.48100
1014.161, 37.93002
1014.643, 37.63858
1015.125, 37.54063
1015.607, 37.61581
1016.089, 37.82391
1016.571, 37.91440
1017.053, 37.84644
1017.535, 37.70664
1018.018, 37.50301
1018.500, 37.29951
1018.982, 37.10482
1019.464, 36.92068
1019.946, 37.01341
1020.428, 37.50223
1020.910, 37.80996
1021.392, 37.55711
1021.874, 37.11771
1022.357, 37.30744
1022.839, 37.88223
1023.321, 38.26960
1023.803, 38.13900
1024.285, 37.97072
1024.767, 37.99154
1025.249, 37.92703
1025.731, 37.38578
1026.214, 36.35571
1026.696, 35.85767
1027.178, 35.94455
1027.660, 36.32246
1028.142, 37.15288
1028.624, 37.86085
1029.106, 37.70574
1029.588, 36.82735
1030.070, 36.58885
1030.553, 37.48409
1031.035, 37.97715
1031.517, 37.53399
1031.999, 36.78268
1032.481, 36.99516
1032.963, 37.79307
1033.445, 38.15716
1033.927, 37.69768
1034.410, 37.32834
1034.892, 37.53703
1035.374, 37.92310
1035.856, 38.28782
1036.338, 38.64236
1036.820, 38.42537
1037.302, 37.62867
1037.784, 36.87611
1038.266, 36.35841
1038.749, 36.23162
1039.231, 37.05482
1039.713, 38.36715
1040.195, 39.02285
1040.677, 38.36138
1041.159, 37.84278
1041.641, 37.60047
1042.123, 37.50021
1042.605, 37.32254
1043.088, 37.15735
1043.570, 37.45082
1044.052, 38.24669
1044.534, 38.57628
1045.016, 37.21842
1045.498, 35.97437
1045.980, 35.96951
1046.462, 36.86185
1046.945, 36.99256
1047.427, 36.33067
1047.909, 35.84733
1048.391, 35.90634
1048.873, 36.17031
1049.355, 36.42407
1049.837, 36.59905
1050.319, 36.57325
1050.802, 36.10311
1051.284, 36.01430
1051.766, 36.50530
1052.248, 36.94978
1052.730, 36.75161
1053.212, 36.17593
1053.694, 36.11515
1054.176, 36.46819
1054.658, 36.75517
1055.141, 36.62688
1055.623, 36.52378
1056.105, 36.68871
1056.587, 36.92367
1057.069, 36.93262
1057.551, 36.71082
1058.033, 36.37390
1058.515, 35.90930
1058.997, 35.56141
1059.480, 35.54963
1059.962, 35.75437
1060.444, 36.24562
1060.926, 37.00410
1061.408, 37.04812
1061.890, 36.03255
1062.372, 35.16869
1062.854, 34.85964
1063.337, 34.94717
1063.819, 35.34023
1064.301, 35.86763
1064.783, 36.13932
1065.265, 35.96724
1065.747, 35.71537
1066.229, 35.39557
1066.711, 35.12306
1067.193, 34.95937
1067.676, 34.90597
1068.158, 35.03014
1068.640, 35.31664
1069.122, 35.53408
1069.604, 35.52350
1070.086, 35.41613
1070.568, 35.21725
1071.050, 35.00518
1071.532, 34.98150
1072.015, 35.28721
1072.497, 35.19145
1072.979, 34.49527
1073.461, 33.94576
1073.943, 34.70784
1074.425, 35.91293
1074.907, 36.28604
1075.389, 35.74770
1075.872, 35.22334
1076.354, 34.82345
1076.836, 34.66768
1077.318, 34.90645
1077.800, 35.29399
1078.282, 35.24377
1078.764, 34.85654
1079.246, 34.47483
1079.729, 34.13572
1080.211, 33.99253
1080.693, 34.25986
1081.175, 34.65601
1081.657, 34.99572
1082.139, 35.27974
1082.621, 35.32219
1083.103, 35.11863
1083.585, 34.95862
1084.068, 35.06705
1084.550, 35.21761
1085.032, 35.16552
1085.514, 35.00761
1085.996, 34.91988
1086.478, 34.95632
1086.960, 34.99660
1087.442, 35.04779
1087.924, 35.06882
1088.406, 35.02760
1088.889, 34.92691
1089.371, 34.74126
1089.853, 34.48743
1090.335, 34.27107
1090.817, 34.08559
1091.299, 34.02086
1091.781, 34.16817
1092.263, 34.36726
1092.746, 34.28212
1093.228, 33.97626
1093.710, 33.72824
1094.192, 33.57666
1094.674, 33.57861
1095.156, 33.94971
1095.638, 34.32808
1096.120, 34.43312
1096.603, 34.31036
1097.085, 34.35081
1097.567, 34.56771
1098.049, 34.56600
1098.531, 34.09314
1099.013, 33.57231
1099.495, 33.32756
1099.977, 33.35595
1100.459, 33.71271
1100.942, 34.62653
1101.424, 35.18749
1101.906, 35.41925
1102.388, 35.21622
1102.870, 34.15584
1103.352, 32.80634
1103.834, 32.20689
1104.316, 32.23883
1104.798, 32.58540
1105.281, 33.58682
1105.763, 34.25991
1106.245, 34.47672
1106.727, 34.34712
1107.209, 33.77000
1107.691, 32.93154
1108.173, 32.74852
1108.655, 33.22795
1109.138, 33.70589
1109.620, 33.89447
1110.102, 33.89378
1110.584, 33.60148
1111.066, 33.22303
1111.548, 33.25648
1112.030, 33.69099
1112.512, 33.91895
1112.995, 33.81129
1113.477, 33.63150
1113.959, 33.64848
1114.441, 33.66366
1114.923, 33.46262
1115.405, 33.04794
1115.887, 32.77970
1116.369, 32.68535
1116.851, 32.54549
1117.333, 32.20353
1117.816, 31.94491
1118.298, 32.26428
1118.780, 32.86604
1119.262, 33.35891
1119.744, 33.74043
1120.226, 33.67792
1120.708, 32.97392
1121.190, 32.30877
1121.673, 32.08863
1122.155, 32.18507
1122.637, 32.42015
1123.119, 32.70344
1123.601, 32.78487
1124.083, 32.32848
1124.565, 32.00385
1125.047, 32.00545
1125.530, 32.04568
1126.012, 31.73922
1126.494, 31.21067
1126.976, 31.28640
1127.458, 31.90670
1127.940, 32.35701
1128.422, 31.87450
1128.904, 31.54169
1129.386, 32.17327
1129.869, 33.05088
1130.351, 32.86253
1130.833, 31.63712
1131.315, 31.18949
1131.797, 31.76876
1132.279, 32.40979
1132.761, 32.26333
1133.243, 31.96466
1133.725, 32.00257
1134.208, 32.31365
1134.690, 32.49326
1135.172, 32.53007
1135.654, 32.51174
1136.136, 32.44625
1136.618, 32.38067
1137.100, 32.37394
1137.582, 32.39125
1138.065, 32.41908
1138.547, 32.46631
1139.029, 32.36639
1139.511, 32.09118
1139.993, 31.73032
1140.475, 31.20821
1140.957, 30.79737
1141.439, 31.04656
1141.922, 31.67605
1142.404, 32.23698
1142.886, 32.68797
1143.368, 32.83723
1143.850, 32.62649
1144.332, 32.23757
1144.814, 31.66202
1145.296, 31.05586
1145.778, 30.84782
1146.260, 30.95350
1146.743, 31.12055
1147.225, 31.34891
1147.707, 31.48612
1148.189, 31.52660
1148.671, 31.46351
1149.153, 31.17353
1149.635, 30.76164
1150.117, 30.87875
1150.600, 31.44206
1151.082, 31.78181
1151.564, 31.38632
1152.046, 30.90313
1152.528, 30.48992
1153.010, 30.17453
1153.492, 30.00795
1153.974, 29.98353
1154.457, 30.04115
1154.939, 30.17443
1155.421, 30.32521
1155.903, 30.39219
1156.385, 30.52642
1156.867, 31.06283
1157.349, 31.66626
1157.831, 31.42473
1158.313, 30.31934
1158.796, 29.48600
1159.278, 29.10038
1159.760, 29.08806
1160.242, 29.67044
1160.724, 30.36761
1161.206, 30.77893
1161.688, 30.92906
1162.170, 31.14517
1162.652, 31.45404
1163.135, 31.52367
1163.617, 31.19328
1164.099, 30.82324
1164.581, 30.81858
1165.063, 30.95368
1165.545, 31.04973
1166.027, 31.10089
1166.509, 30.70170
1166.992, 29.72258
1167.474, 29.01607
1167.956, 28.99366
1168.438, 29.28924
1168.920, 29.53156
1169.402, 29.73386
1169.884, 29.90905
1170.366, 30.02482
1170.849, 30.27657
1171.331, 30.76577
1171.813, 31.02230
1172.295, 30.58691
1172.777, 29.94784
1173.259, 29.88235
1173.741, 30.22093
1174.223, 30.64083
1174.705, 31.38572
1175.188, 31.54663
1175.670, 30.90694
1176.152, 30.23452
1176.634, 30.16199
1177.116, 30.42756
1177.598, 30.55079
1178.080, 30.55783
1178.562, 30.54538
1179.044, 30.61180
1179.527, 30.52133
1180.009, 30.14877
1180.491, 29.84082
1180.973, 30.12941
1181.455, 30.66191
1181.937, 30.40863
1182.419, 29.55276
1182.901, 29.14227
1183.384, 30.19126
1183.866, 30.84861
1184.348, 30.73817
1184.830, 30.28615
1185.312, 30.00704
1185.794, 29.81520
1186.276, 29.34630
1186.758, 28.63255
1187.240, 28.33706
1187.723, 29.15106
1188.205, 29.90447
1188.687, 30.33568
1189.169, 30.53916
1189.651, 30.72126
1190.133, 30.80136
1190.615, 30.35944
1191.097, 29.33894
1191.579, 28.69654
1192.062, 29.21000
1192.544, 29.74699
1193.026, 29.93275
1193.508, 29.91546
1193.990, 30.06338
1194.472, 30.28910
1194.954, 30.22525
1195.436, 29.76474
1195.919, 29.41222
1196.401, 29.22657
1196.883, 29.45770
1197.365, 30.46042
1197.847, 31.75677
1198.329, 31.78937
1198.811, 30.86551
1199.293, 30.15474
1199.776, 29.93983
1200.258, 29.97420
1200.740, 30.40148
1201.222, 30.78289
1201.704, 30.92618
1202.186, 30.84085
1202.668, 30.43212
1203.150, 29.80771
1203.632, 29.40105
1204.115, 29.38807
1204.597, 29.49694
1205.079, 29.76949
1205.561, 29.95427
1206.043, 29.84546
1206.525, 29.53180
1207.007, 29.60770
1207.489, 29.93280
1207.971, 29.81232
1208.454, 28.51812
1208.936, 27.66515
1209.418, 28.50145
1209.900, 29.50167
1210.382, 29.61175
1210.864, 28.99813
1211.346, 28.82178
1211.828, 28.99649
1212.311, 29.10181
1212.793, 28.74625
1213.275, 28.60625
1213.757, 29.28604
1214.239, 29.92604
1214.721, 29.71084
1215.203, 28.81926
1215.685, 28.80246
1216.167, 29.47750
1216.650, 29.86614
1217.132, 29.03283
1217.614, 28.43132
1218.096, 28.67993
1218.578, 29.16240
1219.060, 29.33891
1219.542, 29.26707
1220.024, 29.38015
1220.506, 29.64315
1220.989, 29.82402
1221.471, 29.50840
1221.953, 29.52209
1222.435, 30.41761
1222.917, 31.35166
1223.399, 31.37318
1223.881, 30.66238
1224.363, 29.99234
1224.846, 29.42462
1225.328, 29.15834
1225.810, 29.69611
1226.292, 29.98073
1226.774, 29.57162
1227.256, 29.07114
1227.738, 29.32434
1228.220, 30.07630
1228.703, 30.34654
1229.185, 30.15789
1229.667, 30.04956
1230.149, 30.45799
1230.631, 30.69469
1231.113, 30.51423
1231.595, 30.25356
1232.077, 30.48302
1232.559, 30.95186
1233.042, 30.82570
1233.524, 30.14175
1234.006, 29.67391
1234.488, 29.96903
1234.970, 30.21296
1235.452, 30.26521
1235.934, 30.17984
1236.416, 29.99245
1236.898, 29.73455
1237.381, 29.42809
1237.863, 29.09741
1238.345, 28.91198
1238.827, 28.90316
1239.309, 29.14584
1239.791, 29.78006
1240.273, 30.40356
1240.755, 30.37803
1241.238, 30.00683
1241.720, 29.87539
1242.202, 30.00861
1242.684, 30.00344
1243.166, 29.65637
1243.648, 29.43831
1244.130, 29.46544
1244.612, 29.56906
1245.094, 29.48690
1245.577, 29.35755
1246.059, 29.47756
1246.541, 29.83537
1247.023, 29.83558
1247.505, 29.25247
1247.987, 28.86077
1248.469, 28.85435
1248.951, 28.97351
1249.433, 28.87448
1249.916, 28.73088
1250.398, 28.73893
1250.880, 28.92057
1251.362, 29.23515
1251.844, 29.77134
1252.326, 29.98841
1252.808, 29.70754
1253.290, 29.32704
1253.773, 29.20286
1254.255, 29.25195
1254.737, 29.54825
1255.219, 30.00221
1255.701, 29.82949
1256.183, 28.92073
1256.665, 28.37041
1257.147, 28.47055
1257.630, 28.74387
1258.112, 28.83545
1258.594, 28.83859
1259.076, 28.73283
1259.558, 28.60139
1260.040, 28.91132
1260.522, 29.65101
1261.004, 29.97865
1261.486, 29.65234
1261.969, 29.28827
1262.451, 29.56167
1262.933, 29.74037
1263.415, 29.18755
1263.897, 28.20537
1264.379, 27.78407
1264.861, 27.88031
1265.343, 28.28456
1265.825, 29.00307
1266.308, 29.57761
1266.790, 29.60902
1267.272, 29.57126
1267.754, 29.74137
1268.236, 29.97701
1268.718, 29.91093
1269.200, 29.58535
1269.682, 29.05931
1270.165, 28.28958
1270.647, 27.86435
1271.129, 28.32064
1271.611, 28.85015
1272.093, 29.32825
1272.575, 29.55639
1273.057, 28.74534
1273.539, 27.48047
1274.021, 27.27368
1274.504, 28.50229
1274.986, 29.08653
1275.468, 28.28051
1275.950, 27.63428
1276.432, 27.67950
1276.914, 27.93671
1277.396, 27.39574
1277.878, 26.69822
1278.360, 27.03074
1278.843, 28.60745
1279.325, 29.35541
1279.807, 28.98046
1280.289, 28.50135
1280.771, 28.16302
1281.253, 27.92924
1281.735, 27.74336
1282.217, 27.64168
1282.700, 27.70929
1283.182, 27.93217
1283.664, 28.09592
1284.146, 28.22994
1284.628, 27.81970
1285.110, 26.56100
1285.592, 25.57976
1286.074, 26.13619
1286.557, 27.13131
1287.039, 27.82352
1287.521, 28.20576
1288.003, 28.18202
1288.485, 27.80708
1288.967, 27.83924
1289.449, 28.51796
1289.931, 28.94827
1290.413, 28.15311
1290.896, 27.45115
1291.378, 27.54792
1291.860, 28.11717
1292.342, 28.43365
1292.824, 28.51351
1293.306, 28.37836
1293.788, 28.01941
1294.270, 27.67278
1294.752, 27.28496
1295.235, 27.15956
1295.717, 27.47036
1296.199, 27.93211
1296.681, 28.02020
1297.163, 27.91585
1297.645, 27.98464
1298.127, 28.27202
1298.609, 28.36126
1299.092, 28.14186
1299.574, 27.90079
1300.056, 27.67908
1300.538, 27.54173
1301.020, 27.57705
1301.502, 27.73288
1301.984, 28.00908
1302.466, 28.37277
1302.948, 28.55839
1303.431, 28.53753
1303.913, 28.53555
1304.395, 28.59449
1304.877, 28.69699
##END=



