##NAMES=Brazilianite
##RRUFFID=R050126
##IDEAL CHEMISTRY=NaAl_3_(PO_4_)_2_(OH)_4_
##LOCALITY=Linopolis, Minas Gerais, Brazil
##OWNER=RRUFF
##SOURCE=Carlos and Paulo Vasconcelos
##DESCRIPTION=Pair of greenish yellow elongated crystals
##STATUS=The identification of this mineral has been confirmed by X-ray diffraction and chemical analysis
##URL=rruff.info/R050126
##MEASURED CHEMISTRY=Na_1.00_Al_3.00_(P_1.00_O_4_)_2_((OH)_3.80_F_0.20_)_Î£=4_
94.09991, 0.0000000E+00
94.58203, 857.6555
95.06415, 856.1512
95.54626, 864.4695
96.02838, 875.0212
96.51050, 881.7038
96.99261, 886.0946
97.47473, 890.5261
97.95685, 895.9587
98.43896, 902.4763
98.92108, 911.1298
99.40320, 920.9238
99.88531, 932.5207
100.3674, 952.1558
100.8495, 977.2235
101.3317, 1011.965
101.8138, 1062.465
102.2959, 1127.023
102.7780, 1200.734
103.2601, 1283.663
103.7422, 1392.287
104.2244, 1456.458
104.7065, 1488.872
105.1886, 1483.375
105.6707, 1427.491
106.1528, 1321.272
106.6349, 1184.885
107.1171, 1051.763
107.5992, 910.0603
108.0813, 790.4151
108.5634, 697.6417
109.0455, 626.8900
109.5276, 572.9628
110.0098, 535.1504
110.4919, 510.8259
110.9740, 492.6657
111.4561, 480.6682
111.9382, 472.9772
112.4203, 469.4346
112.9025, 469.8525
113.3846, 472.5449
113.8667, 480.1439
114.3488, 488.0054
114.8309, 489.9162
115.3130, 484.2705
115.7952, 472.8643
116.2773, 457.2127
116.7594, 435.6178
117.2415, 413.9418
117.7236, 393.1486
118.2057, 373.9300
118.6879, 357.5658
119.1700, 344.7534
119.6521, 335.3250
120.1342, 328.5107
120.6163, 326.0139
121.0984, 324.8130
121.5806, 324.6870
122.0627, 325.3151
122.5448, 326.2919
123.0269, 327.2991
123.5090, 328.3626
123.9911, 329.2518
124.4732, 329.4171
124.9554, 329.8757
125.4375, 331.5470
125.9196, 334.3347
126.4017, 337.1194
126.8838, 338.6125
127.3659, 338.4438
127.8481, 337.5404
128.3302, 335.1320
128.8123, 332.3083
129.2944, 330.2892
129.7765, 329.4510
130.2586, 329.2422
130.7408, 328.8249
131.2229, 328.1533
131.7050, 327.7643
132.1871, 327.7618
132.6692, 328.1868
133.1513, 329.2432
133.6335, 331.2900
134.1156, 333.7440
134.5977, 335.8734
135.0798, 337.6069
135.5619, 339.4938
136.0440, 341.9630
136.5262, 345.0156
137.0083, 348.6772
137.4904, 353.4607
137.9725, 358.5883
138.4546, 363.4554
138.9367, 367.8458
139.4189, 372.2563
139.9010, 377.6300
140.3831, 384.2681
140.8652, 391.4145
141.3473, 398.3851
141.8294, 405.8827
142.3116, 414.6624
142.7937, 425.1713
143.2758, 436.9923
143.7579, 448.7018
144.2400, 460.5528
144.7221, 471.9119
145.2043, 482.9000
145.6864, 493.3407
146.1685, 502.9148
146.6506, 511.5244
147.1327, 519.0931
147.6148, 525.0345
148.0970, 529.0390
148.5791, 532.1483
149.0612, 534.1377
149.5433, 535.3348
150.0254, 537.2520
150.5075, 541.3691
150.9896, 547.4836
151.4718, 552.3432
151.9539, 554.5766
152.4360, 556.3206
152.9181, 559.4393
153.4002, 564.0461
153.8823, 569.8340
154.3645, 577.1891
154.8466, 585.6044
155.3287, 593.9840
155.8108, 601.9200
156.2929, 609.6014
156.7750, 617.5372
157.2572, 625.9688
157.7393, 634.2847
158.2214, 641.8797
158.7035, 649.0472
159.1856, 656.4532
159.6677, 663.9005
160.1499, 671.4988
160.6320, 681.6646
161.1141, 695.3347
161.5962, 711.0403
162.0783, 728.3985
162.5604, 747.3227
163.0426, 767.5634
163.5247, 789.1750
164.0068, 812.3785
164.4889, 835.3894
164.9710, 859.8950
165.4531, 882.9221
165.9353, 902.1716
166.4174, 917.9539
166.8995, 932.7796
167.3816, 948.9286
167.8637, 963.9201
168.3458, 988.6223
168.8280, 1021.790
169.3101, 1063.694
169.7922, 1117.510
170.2743, 1182.983
170.7564, 1253.131
171.2385, 1320.894
171.7207, 1396.019
172.2028, 1440.583
172.6849, 1451.043
173.1670, 1430.680
173.6491, 1377.936
174.1312, 1289.741
174.6133, 1181.640
175.0955, 1075.920
175.5776, 969.5450
176.0597, 874.4308
176.5418, 794.2669
177.0239, 727.8242
177.5060, 671.5821
177.9882, 625.6603
178.4703, 588.8771
178.9524, 558.5115
179.4345, 534.5316
179.9166, 514.2632
180.3987, 496.3445
180.8809, 480.7879
181.3630, 468.5237
181.8451, 461.6272
182.3272, 456.8435
182.8093, 450.8560
183.2914, 443.3444
183.7736, 436.5992
184.2557, 433.0195
184.7378, 432.9109
185.2199, 433.5338
185.7020, 434.5458
186.1841, 435.9895
186.6663, 437.9575
187.1484, 440.4645
187.6305, 443.4103
188.1126, 446.7201
188.5947, 450.4433
189.0768, 454.3582
189.5590, 458.7173
190.0411, 463.0503
190.5232, 466.9423
191.0053, 470.2911
191.4874, 473.4965
191.9695, 477.3412
192.4517, 481.9764
192.9338, 487.0839
193.4159, 492.5448
193.8980, 498.4783
194.3801, 504.9659
194.8622, 512.0732
195.3443, 519.8033
195.8265, 528.1812
196.3086, 539.1532
196.7907, 548.4858
197.2728, 554.8653
197.7549, 560.0121
198.2370, 566.1394
198.7192, 574.2028
199.2013, 583.1045
199.6834, 589.6246
200.1655, 591.4401
200.6476, 594.3951
201.1297, 599.8796
201.6119, 607.0169
202.0940, 614.1411
202.5761, 620.2988
203.0582, 626.5253
203.5403, 635.7514
204.0224, 648.3983
204.5046, 662.1895
204.9867, 676.9464
205.4688, 692.2482
205.9509, 707.7236
206.4330, 724.4706
206.9151, 739.3929
207.3973, 747.7454
207.8794, 749.9830
208.3615, 745.7928
208.8436, 733.0062
209.3257, 712.7239
209.8078, 690.6848
210.2900, 667.4813
210.7721, 644.8983
211.2542, 624.7892
211.7363, 607.2923
212.2184, 592.0501
212.7005, 578.9559
213.1827, 567.9902
213.6648, 558.9537
214.1469, 551.3032
214.6290, 546.1737
215.1111, 544.8304
215.5932, 547.6047
216.0754, 552.5618
216.5575, 557.8262
217.0396, 563.2888
217.5217, 569.6249
218.0038, 578.9875
218.4859, 588.0851
218.9680, 595.1952
219.4502, 599.9166
219.9323, 602.1555
220.4144, 601.4125
220.8965, 596.9196
221.3786, 591.8818
221.8607, 585.4371
222.3429, 579.4654
222.8250, 575.2819
223.3071, 573.1234
223.7892, 572.2179
224.2713, 571.2938
224.7534, 569.6556
225.2356, 569.8004
225.7177, 571.7203
226.1998, 575.1841
226.6819, 580.3039
227.1640, 586.9861
227.6461, 594.8015
228.1283, 603.2496
228.6104, 613.6495
229.0925, 622.0543
229.5746, 629.3825
230.0567, 634.5198
230.5388, 637.0153
231.0210, 636.6236
231.5031, 633.0264
231.9852, 625.6084
232.4673, 613.3718
232.9494, 598.5196
233.4315, 578.5101
233.9137, 557.7748
234.3958, 539.1674
234.8779, 523.5230
235.3600, 510.3961
235.8421, 499.1678
236.3242, 489.9772
236.8064, 483.1576
237.2885, 479.4279
237.7706, 477.5283
238.2527, 476.2591
238.7348, 475.4001
239.2169, 475.7928
239.6991, 478.6380
240.1812, 484.7399
240.6633, 491.0670
241.1454, 498.4674
241.6275, 505.5587
242.1096, 511.2971
242.5918, 515.4523
243.0739, 518.0532
243.5560, 519.1882
244.0381, 518.8602
244.5202, 515.8222
245.0023, 508.6844
245.4845, 499.4044
245.9666, 489.3511
246.4487, 478.6236
246.9308, 468.7574
247.4129, 461.2973
247.8950, 456.1163
248.3772, 452.5163
248.8593, 449.8589
249.3414, 449.0027
249.8235, 451.0693
250.3056, 456.2183
250.7877, 463.5777
251.2699, 473.9374
251.7520, 486.1642
252.2341, 496.7558
252.7162, 505.8747
253.1983, 512.5533
253.6804, 514.9925
254.1626, 512.7836
254.6447, 508.5298
255.1268, 502.5901
255.6089, 495.9438
256.0910, 490.2409
256.5731, 485.0791
257.0552, 481.6102
257.5374, 481.8217
258.0195, 486.2151
258.5016, 491.7237
258.9837, 496.9392
259.4658, 502.2391
259.9479, 508.1566
260.4301, 514.9536
260.9122, 522.2556
261.3943, 529.4556
261.8764, 536.4462
262.3585, 544.0043
262.8406, 551.9704
263.3228, 560.8958
263.8049, 571.6075
264.2870, 584.5300
264.7691, 598.6344
265.2512, 612.4783
265.7333, 625.9708
266.2155, 639.8990
266.6976, 654.5482
267.1797, 669.8072
267.6618, 685.6898
268.1439, 702.1619
268.6260, 719.2562
269.1082, 736.9961
269.5903, 755.4366
270.0724, 774.4761
270.5545, 792.2982
271.0366, 811.9324
271.5187, 835.3062
272.0009, 862.7350
272.4830, 893.3426
272.9651, 925.7963
273.4472, 959.4926
273.9293, 998.5258
274.4114, 1045.703
274.8936, 1097.066
275.3757, 1153.796
275.8578, 1214.350
276.3399, 1273.995
276.8220, 1331.196
277.3041, 1387.693
277.7863, 1427.408
278.2684, 1448.622
278.7505, 1452.044
279.2326, 1434.631
279.7147, 1398.175
280.1968, 1347.019
280.6790, 1282.370
281.1611, 1203.483
281.6432, 1127.746
282.1253, 1053.678
282.6074, 984.3572
283.0895, 920.0571
283.5717, 861.1475
284.0538, 808.9462
284.5359, 764.7016
285.0180, 728.0168
285.5001, 694.3309
285.9822, 664.4897
286.4644, 637.3945
286.9465, 613.2449
287.4286, 591.5933
287.9107, 571.8053
288.3928, 553.3150
288.8749, 536.5622
289.3571, 523.5999
289.8392, 516.8580
290.3213, 511.1581
290.8034, 505.5098
291.2855, 500.4174
291.7676, 496.3615
292.2498, 493.5681
292.7319, 492.1898
293.2140, 492.6787
293.6961, 495.8596
294.1782, 499.8553
294.6603, 505.0370
295.1425, 510.5627
295.6246, 515.7559
296.1067, 520.3900
296.5888, 524.6060
297.0709, 528.6759
297.5530, 532.6547
298.0351, 536.3180
298.5172, 539.0800
298.9994, 541.9775
299.4815, 545.6816
299.9636, 550.3353
300.4457, 555.7343
300.9278, 561.7680
301.4099, 568.8032
301.8921, 575.2850
302.3742, 579.6270
302.8563, 584.9163
303.3384, 592.9485
303.8205, 603.5824
304.3026, 615.4006
304.7848, 627.0043
305.2669, 638.3217
305.7490, 651.2674
306.2311, 665.0067
306.7132, 681.0755
307.1953, 700.0740
307.6775, 721.8980
308.1596, 745.9481
308.6417, 771.7564
309.1238, 799.4573
309.6059, 830.5446
310.0880, 866.6042
310.5702, 904.6006
311.0523, 944.1242
311.5344, 985.1238
312.0165, 1028.897
312.4986, 1076.352
312.9807, 1124.879
313.4629, 1167.486
313.9450, 1205.382
314.4271, 1233.911
314.9092, 1254.646
315.3913, 1265.312
315.8734, 1262.984
316.3556, 1246.794
316.8377, 1219.160
317.3198, 1183.586
317.8019, 1133.753
318.2840, 1087.257
318.7661, 1043.035
319.2483, 1002.313
319.7304, 966.1754
320.2125, 934.6132
320.6946, 906.6148
321.1767, 881.2433
321.6588, 858.7829
322.1410, 837.4784
322.6231, 816.7888
323.1052, 797.4211
323.5873, 780.0737
324.0694, 764.3621
324.5515, 749.5147
325.0337, 734.7689
325.5158, 720.1829
325.9979, 706.2916
326.4800, 692.6561
326.9621, 680.2499
327.4442, 669.9989
327.9264, 661.1340
328.4085, 652.2897
328.8906, 642.6023
329.3727, 632.7045
329.8548, 625.2718
330.3369, 622.0585
330.8191, 619.3783
331.3012, 616.8781
331.7833, 614.7067
332.2654, 613.0134
332.7475, 611.8630
333.2296, 611.2328
333.7118, 611.1913
334.1939, 612.4570
334.6760, 612.8953
335.1581, 611.4564
335.6402, 610.0261
336.1223, 610.3300
336.6045, 612.3392
337.0866, 614.3180
337.5687, 614.1955
338.0508, 611.4618
338.5329, 609.0280
339.0150, 607.3173
339.4972, 605.5072
339.9793, 603.0437
340.4614, 600.1815
340.9435, 597.5438
341.4256, 595.5856
341.9077, 594.2980
342.3898, 593.5830
342.8719, 594.1391
343.3541, 594.4951
343.8362, 593.4657
344.3183, 592.3002
344.8004, 592.6581
345.2825, 595.3611
345.7646, 599.9576
346.2468, 605.3053
346.7289, 611.3243
347.2110, 618.3654
347.6931, 626.3928
348.1752, 635.2787
348.6573, 644.7600
349.1395, 654.8470
349.6216, 665.9708
350.1037, 678.7921
350.5858, 693.3004
351.0679, 709.2852
351.5500, 726.7654
352.0322, 745.6064
352.5143, 765.9427
352.9964, 787.6700
353.4785, 810.7383
353.9606, 835.1900
354.4427, 860.9660
354.9249, 887.9819
355.4070, 918.9462
355.8891, 947.4822
356.3712, 972.5870
356.8533, 993.9058
357.3354, 1011.550
357.8176, 1026.183
358.2997, 1036.091
358.7818, 1036.962
359.2639, 1027.982
359.7460, 1011.519
360.2281, 986.2938
360.7103, 955.5516
361.1924, 920.7256
361.6745, 882.1285
362.1566, 841.8824
362.6387, 801.7727
363.1208, 761.3714
363.6030, 724.2813
364.0851, 691.4296
364.5672, 661.8928
365.0493, 635.4865
365.5314, 612.0475
366.0135, 590.5964
366.4957, 570.3196
366.9778, 551.5309
367.4599, 535.7335
367.9420, 523.9700
368.4241, 513.5330
368.9063, 503.2816
369.3884, 493.1275
369.8705, 482.7626
370.3526, 471.7178
370.8347, 460.8414
371.3168, 451.3677
371.7990, 443.4031
372.2811, 435.9660
372.7632, 428.3599
373.2453, 421.2961
373.7274, 415.6323
374.2095, 411.5045
374.6917, 408.4718
375.1738, 406.4150
375.6559, 405.2470
376.1380, 404.4029
376.6201, 403.4474
377.1022, 403.3362
377.5844, 405.5536
378.0665, 409.8031
378.5486, 413.6991
379.0307, 416.3401
379.5128, 418.1158
379.9949, 419.4525
380.4771, 420.3492
380.9592, 421.1913
381.4413, 422.0275
381.9234, 423.0587
382.4055, 424.8950
382.8876, 428.3555
383.3698, 431.9048
383.8519, 434.6964
384.3340, 436.7463
384.8161, 438.0398
385.2982, 438.3417
385.7803, 438.1955
386.2624, 438.7632
386.7445, 439.9888
387.2267, 441.7983
387.7088, 444.4547
388.1909, 447.5860
388.6730, 450.3607
389.1551, 452.6131
389.6372, 455.6529
390.1194, 461.1777
390.6015, 469.7350
391.0836, 477.1419
391.5657, 482.0886
392.0478, 487.0102
392.5299, 493.1043
393.0121, 500.4390
393.4942, 508.7851
393.9763, 518.0379
394.4584, 528.2148
394.9405, 539.5909
395.4226, 553.5109
395.9048, 566.7858
396.3869, 578.0256
396.8690, 588.7557
397.3511, 600.9036
397.8332, 615.0212
398.3153, 630.5347
398.7975, 646.3751
399.2796, 662.3474
399.7617, 679.6829
400.2438, 699.5812
400.7259, 719.5870
401.2080, 738.0861
401.6902, 755.3306
402.1723, 772.4008
402.6544, 790.1788
403.1365, 808.6008
403.6186, 826.8695
404.1007, 845.3279
404.5829, 863.1578
405.0650, 880.7184
405.5471, 897.3243
406.0292, 912.0571
406.5113, 924.5859
406.9934, 935.5416
407.4756, 946.5480
407.9577, 958.6494
408.4398, 967.4496
408.9219, 971.0729
409.4040, 972.5222
409.8861, 973.1724
410.3683, 973.1000
410.8504, 971.7524
411.3325, 968.7685
411.8146, 964.1382
412.2967, 957.8155
412.7788, 949.3929
413.2610, 939.8180
413.7431, 929.8712
414.2252, 919.0468
414.7073, 906.4600
415.1894, 891.5140
415.6715, 875.2842
416.1537, 858.8512
416.6358, 842.1837
417.1179, 826.0037
417.6000, 810.6478
418.0821, 795.6772
418.5642, 780.2451
419.0464, 764.3531
419.5285, 749.3807
420.0106, 736.3320
420.4927, 724.6601
420.9748, 713.1838
421.4569, 701.6297
421.9391, 690.8663
422.4212, 682.2377
422.9033, 674.9257
423.3854, 666.2496
423.8675, 654.5927
424.3496, 642.7865
424.8318, 633.1037
425.3139, 624.9857
425.7960, 616.6027
426.2781, 607.3941
426.7602, 597.2519
427.2423, 585.5934
427.7245, 571.8120
428.2066, 558.8757
428.6887, 547.3189
429.1708, 536.8759
429.6529, 527.4940
430.1350, 519.1066
430.6172, 511.1273
431.0992, 502.9294
431.5814, 494.5498
432.0635, 487.3042
432.5456, 481.1515
433.0277, 475.9263
433.5098, 471.7450
433.9919, 468.3771
434.4741, 465.3864
434.9562, 462.5753
435.4383, 460.2408
435.9204, 459.0861
436.4025, 460.3322
436.8846, 460.4193
437.3668, 458.8434
437.8489, 456.7128
438.3310, 454.6014
438.8131, 452.5674
439.2952, 450.5091
439.7773, 448.4486
440.2595, 446.2997
440.7416, 443.1543
441.2237, 438.5088
441.7058, 433.5347
442.1879, 428.5664
442.6700, 423.4847
443.1522, 417.8869
443.6343, 411.6048
444.1164, 405.6021
444.5985, 401.3485
445.0806, 399.0462
445.5627, 396.0675
446.0449, 390.8610
446.5270, 386.2702
447.0091, 384.2314
447.4912, 384.3620
447.9733, 385.0169
448.4554, 385.5384
448.9376, 386.0023
449.4197, 386.5982
449.9018, 387.3607
450.3839, 387.9380
450.8660, 387.8122
451.3481, 387.5951
451.8303, 388.4144
452.3124, 390.6774
452.7945, 392.8803
453.2766, 394.1135
453.7587, 394.7487
454.2408, 395.6490
454.7230, 397.0475
455.2051, 398.2765
455.6872, 398.6128
456.1693, 397.9754
456.6514, 397.3177
457.1335, 395.8932
457.6157, 395.1573
458.0978, 396.3758
458.5799, 398.9746
459.0620, 401.4922
459.5441, 403.2313
460.0262, 404.4063
460.5084, 405.4768
460.9905, 406.0358
461.4726, 407.1618
461.9547, 408.7964
462.4368, 411.0244
462.9189, 414.3586
463.4011, 418.5047
463.8832, 422.2780
464.3653, 424.5766
464.8474, 425.5103
465.3295, 426.8315
465.8116, 428.2736
466.2938, 430.5390
466.7759, 434.8332
467.2580, 439.4614
467.7401, 442.4624
468.2222, 443.2148
468.7043, 443.0699
469.1865, 443.7338
469.6686, 445.2718
470.1507, 446.7269
470.6328, 448.0895
471.1149, 449.2492
471.5970, 449.9648
472.0792, 450.4398
472.5613, 451.1779
473.0434, 452.2661
473.5255, 453.8608
474.0076, 456.3066
474.4897, 459.6185
474.9719, 463.1017
475.4540, 466.0723
475.9361, 469.5245
476.4182, 475.0144
476.9003, 482.8145
477.3824, 490.5462
477.8645, 496.8652
478.3466, 502.8475
478.8288, 509.5513
479.3109, 517.1754
479.7930, 526.3592
480.2751, 538.0436
480.7572, 551.7711
481.2393, 564.4040
481.7215, 575.4310
482.2036, 586.0222
482.6857, 595.7592
483.1678, 605.5535
483.6499, 617.3305
484.1320, 631.4327
484.6142, 645.4495
485.0963, 656.0303
485.5784, 662.1741
486.0605, 669.5468
486.5426, 680.5436
487.0247, 690.2234
487.5069, 695.8678
487.9890, 699.0637
488.4711, 702.5787
488.9532, 707.7228
489.4353, 714.1526
489.9174, 721.2223
490.3996, 729.0324
490.8817, 737.0196
491.3638, 744.1068
491.8459, 752.2029
492.3280, 762.5861
492.8102, 775.0717
493.2923, 788.5100
493.7744, 802.1950
494.2565, 817.1957
494.7386, 831.9952
495.2207, 849.1536
495.7029, 866.7086
496.1850, 884.4427
496.6671, 902.1663
497.1492, 919.8534
497.6313, 937.6075
498.1134, 954.7044
498.5956, 970.7373
499.0777, 985.9214
499.5598, 1000.415
500.0419, 1014.246
500.5240, 1028.152
501.0061, 1043.137
501.4883, 1058.858
501.9704, 1071.279
502.4525, 1078.980
502.9346, 1085.382
503.4167, 1090.724
503.8988, 1095.637
504.3810, 1101.089
504.8631, 1107.319
505.3452, 1113.397
505.8273, 1117.859
506.3094, 1119.995
506.7915, 1124.221
507.2737, 1133.211
507.7558, 1141.462
508.2379, 1146.238
508.7200, 1149.297
509.2021, 1153.693
509.6842, 1160.872
510.1664, 1169.316
510.6485, 1176.281
511.1306, 1181.376
511.6127, 1187.579
512.0948, 1196.466
512.5769, 1205.396
513.0590, 1212.173
513.5411, 1217.384
514.0233, 1223.208
514.5054, 1231.666
514.9875, 1240.485
515.4696, 1245.784
515.9517, 1247.776
516.4338, 1250.684
516.9160, 1256.261
517.3981, 1263.479
517.8802, 1270.726
518.3623, 1277.820
518.8444, 1285.666
519.3265, 1294.289
519.8087, 1303.852
520.2908, 1314.488
520.7729, 1326.225
521.2550, 1339.206
521.7371, 1353.570
522.2192, 1369.171
522.7014, 1385.421
523.1835, 1401.042
523.6656, 1419.199
524.1477, 1441.960
524.6298, 1465.835
525.1119, 1487.710
525.5941, 1507.816
526.0762, 1528.666
526.5583, 1552.742
527.0404, 1579.550
527.5225, 1606.017
528.0046, 1632.333
528.4868, 1658.102
528.9689, 1684.087
529.4510, 1708.971
529.9331, 1730.755
530.4152, 1749.107
530.8973, 1767.175
531.3795, 1789.504
531.8616, 1813.312
532.3437, 1829.827
532.8258, 1837.636
533.3079, 1842.014
533.7900, 1846.496
534.2722, 1849.847
534.7543, 1849.087
535.2364, 1843.577
535.7185, 1834.988
536.2006, 1824.032
536.6827, 1810.371
537.1649, 1793.305
537.6470, 1772.712
538.1291, 1749.816
538.6112, 1725.617
539.0933, 1700.122
539.5754, 1672.938
540.0576, 1640.848
540.5397, 1611.172
541.0218, 1585.289
541.5039, 1562.570
541.9860, 1542.971
542.4681, 1526.185
542.9503, 1510.503
543.4324, 1493.355
543.9145, 1474.494
544.3966, 1459.337
544.8787, 1448.452
545.3608, 1440.652
545.8430, 1435.233
546.3251, 1432.204
546.8072, 1431.861
547.2893, 1434.467
547.7714, 1438.909
548.2535, 1444.443
548.7357, 1451.022
549.2178, 1458.933
549.6999, 1468.444
550.1820, 1478.038
550.6641, 1486.131
551.1462, 1493.041
551.6284, 1501.573
552.1105, 1511.805
552.5926, 1523.611
553.0747, 1537.380
553.5568, 1552.544
554.0389, 1568.214
554.5211, 1584.234
555.0032, 1601.016
555.4853, 1619.229
555.9674, 1639.058
556.4495, 1658.037
556.9316, 1678.498
557.4138, 1695.483
557.8959, 1708.123
558.3780, 1716.462
558.8601, 1720.358
559.3422, 1719.821
559.8243, 1715.647
560.3065, 1708.385
560.7886, 1698.084
561.2707, 1685.650
561.7528, 1670.196
562.2349, 1654.444
562.7170, 1639.720
563.1992, 1625.896
563.6813, 1613.402
564.1634, 1603.542
564.6455, 1592.163
565.1276, 1575.764
565.6097, 1556.307
566.0919, 1538.386
566.5740, 1522.859
567.0561, 1505.317
567.5382, 1481.532
568.0203, 1451.782
568.5024, 1421.704
568.9846, 1391.537
569.4667, 1360.784
569.9488, 1328.755
570.4309, 1296.088
570.9130, 1262.927
571.3951, 1229.537
571.8773, 1197.629
572.3594, 1168.841
572.8415, 1141.017
573.3236, 1117.894
573.8057, 1092.214
574.2878, 1069.609
574.7700, 1050.843
575.2521, 1035.648
575.7342, 1024.487
576.2163, 1017.431
576.6984, 1012.946
577.1805, 1009.542
577.6627, 1008.072
578.1448, 1010.452
578.6269, 1016.869
579.1090, 1026.273
579.5911, 1038.414
580.0732, 1052.891
580.5554, 1068.955
581.0375, 1086.698
581.5196, 1105.417
582.0017, 1124.163
582.4838, 1144.348
582.9659, 1167.572
583.4481, 1193.505
583.9302, 1219.782
584.4123, 1244.784
584.8944, 1269.279
585.3765, 1296.682
585.8586, 1328.003
586.3408, 1359.953
586.8229, 1390.783
587.3050, 1423.066
587.7871, 1459.242
588.2692, 1498.645
588.7513, 1538.382
589.2334, 1575.844
589.7155, 1613.650
590.1976, 1656.281
590.6797, 1703.839
591.1619, 1753.259
591.6440, 1803.140
592.1261, 1854.809
592.6082, 1911.098
593.0903, 1972.050
593.5724, 2030.884
594.0546, 2086.216
594.5367, 2139.641
595.0188, 2192.583
595.5009, 2244.641
595.9830, 2295.656
596.4651, 2345.735
596.9473, 2391.375
597.4294, 2427.893
597.9115, 2455.659
598.3936, 2472.284
598.8757, 2479.231
599.3578, 2472.027
599.8400, 2449.084
600.3221, 2411.144
600.8042, 2358.309
601.2863, 2290.524
601.7684, 2210.856
602.2505, 2119.334
602.7327, 2018.149
603.2148, 1917.326
603.6969, 1816.716
604.1790, 1718.742
604.6611, 1623.025
605.1432, 1531.480
605.6254, 1447.229
606.1075, 1371.021
606.5896, 1300.478
607.0717, 1235.748
607.5538, 1176.000
608.0359, 1120.753
608.5181, 1070.031
609.0002, 1024.171
609.4823, 983.6426
609.9644, 947.8641
610.4465, 913.9534
610.9286, 881.4588
611.4108, 851.9129
611.8929, 826.5789
612.3750, 803.1476
612.8571, 779.8899
613.3392, 757.2468
613.8214, 736.7131
614.3035, 719.6592
614.7856, 704.6857
615.2677, 689.8074
615.7498, 675.0613
616.2319, 661.3868
616.7141, 649.2772
617.1962, 637.7867
617.6783, 625.7913
618.1604, 613.2919
618.6425, 601.5966
619.1246, 591.1140
619.6068, 581.0654
620.0889, 570.5847
620.5710, 560.4355
621.0531, 552.2874
621.5352, 546.3837
622.0173, 540.4651
622.4995, 531.5728
622.9816, 519.7033
623.4637, 510.4631
623.9458, 504.4747
624.4279, 500.1585
624.9100, 498.2789
625.3922, 496.9398
625.8743, 493.8297
626.3564, 488.6711
626.8385, 484.3026
627.3206, 483.1276
627.8027, 483.5749
628.2849, 482.9771
628.7670, 481.3164
629.2491, 479.7474
629.7312, 478.6523
630.2133, 478.3123
630.6954, 479.3976
631.1776, 482.7206
631.6597, 485.3848
632.1418, 486.7997
632.6239, 488.1209
633.1060, 491.0685
633.5881, 494.1233
634.0703, 494.2568
634.5524, 490.1986
635.0345, 484.1921
635.5166, 479.1333
635.9987, 475.0304
636.4808, 471.8667
636.9630, 470.6530
637.4451, 468.4955
637.9272, 462.9008
638.4093, 455.5984
638.8914, 448.9936
639.3735, 443.3460
639.8557, 438.3353
640.3378, 433.7392
640.8199, 429.6818
641.3020, 426.5797
641.7841, 424.2984
642.2662, 421.8518
642.7484, 418.5523
643.2305, 414.8974
643.7126, 412.3696
644.1947, 411.7252
644.6768, 410.7955
645.1589, 409.1620
645.6411, 407.6587
646.1232, 406.6696
646.6053, 406.1493
647.0874, 405.9454
647.5695, 406.0174
648.0516, 406.2925
648.5338, 406.4424
649.0159, 406.6323
649.4980, 408.0941
649.9801, 411.3552
650.4622, 414.4565
650.9443, 415.7567
651.4265, 415.7065
651.9086, 416.4772
652.3907, 418.3405
652.8728, 420.5338
653.3549, 423.4385
653.8370, 426.2238
654.3192, 427.7271
654.8013, 428.2755
655.2834, 429.5103
655.7655, 432.6576
656.2476, 436.6328
656.7297, 438.5825
657.2119, 438.1595
657.6940, 437.2642
658.1761, 435.8623
658.6582, 434.3633
659.1403, 433.2215
659.6224, 432.1992
660.1046, 430.7749
660.5867, 429.3001
661.0688, 426.5553
661.5509, 420.7573
662.0330, 413.4219
662.5151, 407.7769
662.9973, 404.1645
663.4794, 400.0077
663.9615, 393.2237
664.4436, 384.2937
664.9257, 375.4294
665.4078, 366.7086
665.8900, 358.0197
666.3721, 348.9292
666.8542, 340.2615
667.3363, 332.8026
667.8184, 326.2039
668.3005, 319.2429
668.7827, 310.9853
669.2648, 302.8930
669.7469, 297.3560
670.2290, 293.8192
670.7111, 289.5133
671.1932, 283.8381
671.6754, 277.6465
672.1575, 271.3497
672.6396, 265.0824
673.1217, 259.8069
673.6038, 256.2303
674.0859, 252.5841
674.5681, 248.1980
675.0502, 243.9137
675.5323, 240.5708
676.0144, 238.0444
676.4965, 235.6577
676.9786, 232.9815
677.4608, 230.2153
677.9428, 227.6728
678.4249, 225.3439
678.9070, 223.5553
679.3892, 222.6635
679.8713, 221.7948
680.3534, 220.4084
680.8355, 218.5116
681.3176, 215.9893
681.7997, 212.2220
682.2819, 208.8333
682.7640, 206.6385
683.2461, 205.0135
683.7282, 203.0993
684.2103, 200.9530
684.6924, 199.5165
685.1746, 199.5241
685.6567, 200.1915
686.1388, 199.1911
686.6209, 195.8854
687.1030, 193.2406
687.5851, 191.9546
688.0673, 190.9019
688.5494, 189.5967
689.0315, 188.0433
689.5136, 186.1807
689.9957, 183.7684
690.4778, 181.6548
690.9600, 180.6270
691.4421, 180.1484
691.9242, 179.3096
692.4063, 178.0728
692.8884, 177.0715
693.3705, 176.7487
693.8527, 176.7953
694.3348, 176.3864
694.8169, 175.5045
695.2990, 174.1973
695.7811, 171.6646
696.2632, 169.5184
696.7454, 168.5237
697.2275, 168.3572
697.7096, 168.5449
698.1917, 169.0205
698.6738, 169.3267
699.1559, 168.9055
699.6381, 168.1002
700.1202, 167.7085
700.6023, 167.7676
701.0844, 167.7237
701.5665, 167.3247
702.0486, 166.5060
702.5308, 165.0043
703.0129, 161.9293
703.4950, 160.4650
703.9771, 161.7012
704.4592, 163.1675
704.9413, 164.0758
705.4235, 164.4794
705.9056, 164.4760
706.3877, 164.1042
706.8698, 163.5996
707.3519, 162.9183
707.8340, 162.3121
708.3162, 162.7605
708.7983, 164.2986
709.2804, 165.0100
709.7625, 163.8229
710.2446, 161.8781
710.7267, 161.0085
711.2089, 161.5375
711.6910, 161.8357
712.1731, 161.6785
712.6552, 161.5611
713.1373, 161.7290
713.6194, 162.0045
714.1016, 162.1227
714.5837, 162.0511
715.0658, 162.0359
715.5479, 162.4398
716.0300, 162.9923
716.5121, 162.9546
716.9943, 162.3221
717.4764, 161.3781
717.9585, 160.0094
718.4406, 158.8081
718.9227, 158.4819
719.4048, 159.0806
719.8870, 159.8899
720.3691, 161.0892
720.8512, 162.2670
721.3333, 163.7861
721.8154, 164.9157
722.2975, 164.4883
722.7797, 162.7738
723.2618, 161.4509
723.7439, 161.7913
724.2260, 163.0525
724.7081, 163.8513
725.1902, 164.1881
725.6724, 164.0398
726.1545, 163.1128
726.6366, 162.5484
727.1187, 163.5641
727.6008, 165.7980
728.0829, 167.1152
728.5651, 166.9012
729.0472, 166.7483
729.5293, 166.5736
730.0114, 166.8421
730.4935, 168.3932
730.9756, 170.6990
731.4578, 172.2071
731.9399, 172.0664
732.4220, 171.5403
732.9041, 172.8744
733.3862, 175.7307
733.8683, 176.8452
734.3505, 175.5089
734.8326, 174.4617
735.3147, 175.5354
735.7968, 177.7144
736.2789, 178.5942
736.7610, 177.6877
737.2432, 177.2331
737.7253, 177.8169
738.2074, 178.5037
738.6895, 178.6666
739.1716, 178.6215
739.6537, 178.8943
740.1359, 179.6470
740.6180, 180.7307
741.1001, 182.0448
741.5822, 183.5635
742.0643, 185.2692
742.5464, 187.2007
743.0286, 188.7686
743.5107, 189.6046
743.9928, 190.3247
744.4749, 191.8333
744.9570, 194.2359
745.4391, 195.8454
745.9213, 195.8988
746.4034, 196.1515
746.8855, 197.4684
747.3676, 198.9740
747.8497, 199.5451
748.3318, 199.3184
748.8140, 199.4976
749.2961, 200.9914
749.7782, 203.0426
750.2603, 204.1879
750.7424, 204.6111
751.2245, 205.9530
751.7067, 208.6287
752.1888, 211.5997
752.6709, 214.2485
753.1530, 216.5147
753.6351, 218.0891
754.1172, 217.8291
754.5994, 218.7398
755.0815, 222.4827
755.5636, 225.8625
756.0457, 226.4211
756.5278, 225.4360
757.0099, 225.5571
757.4921, 227.7178
757.9742, 230.3380
758.4563, 231.8539
758.9384, 232.7363
759.4205, 234.3126
759.9026, 236.5792
760.3848, 238.3437
760.8669, 238.9492
761.3490, 239.3390
761.8311, 241.0489
762.3132, 244.4090
762.7953, 246.6886
763.2775, 246.8963
763.7596, 247.2353
764.2417, 248.6533
764.7238, 250.0317
765.2059, 250.0276
765.6880, 248.8072
766.1702, 247.9417
766.6523, 248.3567
767.1344, 249.3581
767.6165, 250.2990
768.0986, 251.2195
768.5807, 252.3901
769.0628, 253.8200
769.5449, 254.7541
770.0270, 254.5259
770.5092, 253.5169
770.9913, 253.1510
771.4734, 253.9498
771.9555, 254.0868
772.4376, 252.2495
772.9197, 251.0770
773.4019, 252.4088
773.8840, 254.9412
774.3661, 256.4900
774.8482, 256.5384
775.3303, 256.2954
775.8124, 256.1662
776.2946, 256.1985
776.7767, 256.1772
777.2588, 256.3730
777.7409, 257.7608
778.2230, 260.6280
778.7051, 263.6684
779.1873, 265.3004
779.6694, 265.6308
780.1515, 265.9980
780.6336, 266.2750
781.1157, 267.0082
781.5978, 268.5270
782.0800, 270.3754
782.5621, 272.1312
783.0442, 273.8308
783.5263, 275.7420
784.0084, 278.6671
784.4905, 280.8091
784.9727, 280.1438
785.4548, 279.3825
785.9369, 281.8947
786.4190, 286.9716
786.9011, 291.2805
787.3832, 293.0201
787.8654, 293.6006
788.3475, 295.1731
788.8296, 297.5712
789.3117, 299.2074
789.7938, 299.8461
790.2759, 300.6261
790.7581, 302.0059
791.2402, 303.9890
791.7223, 306.8578
792.2044, 311.1904
792.6865, 313.6918
793.1686, 312.8740
793.6508, 312.0879
794.1329, 312.5352
794.6150, 313.4378
795.0971, 313.9150
795.5792, 313.9186
796.0613, 314.0444
796.5435, 314.9671
797.0256, 315.7220
797.5077, 314.7767
797.9898, 312.7114
798.4719, 311.3310
798.9540, 310.9197
799.4362, 310.5338
799.9183, 309.5410
800.4004, 308.0314
800.8825, 306.2274
801.3646, 304.0077
801.8467, 301.8482
802.3289, 300.0211
802.8110, 297.9045
803.2931, 295.3863
803.7752, 292.3813
804.2573, 288.4735
804.7394, 283.5435
805.2216, 279.3454
805.7037, 277.3148
806.1858, 275.4806
806.6679, 271.9354
807.1500, 267.6704
807.6321, 264.6253
808.1143, 263.0969
808.5964, 261.8606
809.0785, 259.9304
809.5606, 257.4600
810.0427, 254.8389
810.5248, 252.0740
811.0070, 249.0273
811.4891, 245.6341
811.9712, 241.9858
812.4533, 237.8614
812.9354, 233.5994
813.4175, 230.3798
813.8997, 228.7670
814.3818, 226.7575
814.8639, 223.8623
815.3460, 220.9456
815.8281, 218.3085
816.3102, 215.9560
816.7924, 214.0329
817.2745, 212.4980
817.7566, 210.6913
818.2387, 207.9301
818.7208, 204.7512
819.2029, 201.5199
819.6851, 198.5207
820.1672, 197.0811
820.6493, 197.4572
821.1314, 197.7974
821.6135, 196.4997
822.0956, 194.0148
822.5778, 192.1138
823.0599, 191.0303
823.5420, 189.7965
824.0241, 188.0684
824.5062, 186.5502
824.9883, 185.8970
825.4705, 185.5708
825.9526, 184.6247
826.4347, 182.8166
826.9168, 181.4049
827.3989, 181.0679
827.8810, 180.9122
828.3632, 180.3498
828.8453, 179.5898
829.3274, 179.2331
829.8095, 179.2358
830.2916, 178.5180
830.7737, 175.8325
831.2559, 172.5165
831.7380, 171.6936
832.2201, 172.9948
832.7022, 173.2294
833.1843, 171.7790
833.6664, 170.0546
834.1486, 168.9769
834.6307, 168.3750
835.1128, 167.8015
835.5949, 167.1855
836.0770, 166.7809
836.5591, 166.9639
837.0413, 166.9199
837.5234, 166.1468
838.0055, 165.1686
838.4876, 164.7400
838.9697, 164.8725
839.4518, 164.5327
839.9340, 162.7849
840.4161, 160.9680
840.8982, 159.9366
841.3803, 159.4770
841.8624, 159.4278
842.3445, 159.6368
842.8267, 159.7234
843.3088, 159.4514
843.7909, 158.9105
844.2730, 158.2490
844.7551, 157.4634
845.2372, 156.3727
845.7194, 154.8210
846.2015, 153.9459
846.6836, 154.4870
847.1657, 155.6267
847.6478, 156.1163
848.1299, 155.8451
848.6121, 155.7939
849.0942, 156.6335
849.5763, 156.7970
850.0584, 155.2505
850.5405, 153.5353
851.0226, 152.9992
851.5048, 153.3988
851.9869, 153.5980
852.4690, 153.1447
852.9511, 152.5850
853.4332, 152.3121
853.9153, 152.1205
854.3975, 151.5925
854.8796, 150.9028
855.3617, 150.9167
855.8438, 151.9151
856.3259, 152.5508
856.8080, 150.7407
857.2901, 147.2144
857.7722, 146.1935
858.2543, 147.9594
858.7365, 148.6552
859.2186, 146.8826
859.7007, 145.0682
860.1828, 145.6158
860.6649, 147.8825
861.1470, 148.5145
861.6292, 145.6064
862.1113, 144.1101
862.5934, 145.2340
863.0755, 146.4162
863.5576, 146.5359
864.0397, 145.9468
864.5219, 145.0447
865.0040, 143.9263
865.4861, 143.2042
865.9682, 143.4874
866.4503, 143.9962
866.9324, 144.1639
867.4146, 144.0742
867.8967, 143.8533
868.3788, 143.5450
868.8609, 143.1937
869.3430, 142.8269
869.8251, 142.4336
870.3073, 141.8818
870.7894, 141.2251
871.2715, 141.1292
871.7536, 141.7113
872.2357, 142.1284
872.7178, 141.9534
873.2000, 141.5201
873.6821, 141.3515
874.1642, 141.4943
874.6463, 141.2057
875.1284, 139.8792
875.6105, 139.0449
876.0927, 139.3105
876.5748, 139.7722
877.0569, 139.6648
877.5390, 139.2708
878.0211, 139.5110
878.5032, 140.9513
878.9854, 141.9001
879.4675, 141.4290
879.9496, 140.3621
880.4317, 138.7650
880.9138, 137.2991
881.3959, 137.3908
881.8781, 139.1952
882.3602, 140.8916
882.8423, 140.8365
883.3244, 139.8527
883.8065, 139.5005
884.2886, 139.6410
884.7708, 139.6501
885.2529, 139.4216
885.7350, 138.7885
886.2171, 137.5249
886.6992, 136.1820
887.1813, 136.0379
887.6635, 137.3708
888.1456, 138.2119
888.6277, 138.4121
889.1098, 138.4031
889.5919, 138.1327
890.0740, 137.8874
890.5562, 138.0351
891.0383, 138.5147
891.5204, 138.8665
892.0025, 139.2410
892.4846, 139.2207
892.9667, 137.9974
893.4489, 137.0226
893.9310, 137.7708
894.4131, 139.4270
894.8952, 140.2851
895.3773, 139.8736
895.8594, 139.3195
896.3416, 139.5841
896.8237, 139.9978
897.3058, 139.5506
897.7879, 138.6675
898.2700, 138.3343
898.7521, 138.7413
899.2343, 139.6674
899.7164, 141.0405
900.1985, 142.4456
900.6806, 142.9748
901.1627, 142.6617
901.6448, 142.0408
902.1270, 141.0040
902.6091, 140.7328
903.0912, 141.8408
903.5733, 143.7441
904.0554, 145.9773
904.5375, 148.5392
905.0197, 149.1789
905.5018, 146.1317
905.9839, 144.1199
906.4660, 144.3824
906.9481, 145.1428
907.4302, 145.3315
907.9124, 145.3466
908.3945, 146.1278
908.8766, 147.9906
909.3587, 149.5928
909.8408, 150.5298
910.3229, 151.1113
910.8051, 151.2117
911.2872, 151.2517
911.7693, 151.8516
912.2514, 152.9731
912.7335, 154.0063
913.2156, 154.6198
913.6978, 154.9888
914.1799, 155.0124
914.6620, 155.0422
915.1441, 155.9281
915.6262, 157.5541
916.1083, 159.1505
916.5905, 160.4058
917.0726, 161.3022
917.5547, 161.6667
918.0368, 161.7377
918.5189, 162.8051
919.0010, 164.9510
919.4832, 166.7763
919.9653, 167.9127
920.4474, 169.1880
920.9295, 171.2284
921.4116, 173.6916
921.8937, 175.8069
922.3759, 177.5498
922.8580, 179.0257
923.3401, 179.5856
923.8222, 180.8027
924.3043, 184.2706
924.7864, 187.5630
925.2686, 187.5041
925.7507, 185.2482
926.2328, 186.1485
926.7149, 193.3276
927.1970, 199.3256
927.6791, 200.7473
928.1613, 201.3125
928.6434, 203.4327
929.1255, 206.6315
929.6076, 209.7713
930.0897, 212.6624
930.5718, 216.1697
931.0540, 221.3757
931.5361, 226.8010
932.0182, 230.8170
932.5003, 233.9639
932.9824, 236.8139
933.4645, 239.7531
933.9467, 243.9538
934.4288, 249.9768
934.9109, 256.7132
935.3930, 262.6355
935.8751, 267.9805
936.3572, 273.7602
936.8394, 280.0010
937.3215, 286.5566
937.8036, 293.4306
938.2857, 300.4369
938.7678, 307.4189
939.2499, 314.4445
939.7321, 321.7712
940.2142, 329.5135
940.6963, 336.9287
941.1784, 343.5729
941.6605, 350.7743
942.1426, 359.0789
942.6248, 368.0114
943.1069, 377.2038
943.5890, 386.6323
944.0711, 395.8152
944.5532, 404.1686
945.0353, 413.0985
945.5175, 423.6825
945.9996, 433.8477
946.4817, 442.1974
946.9637, 449.5923
947.4459, 457.4464
947.9280, 465.9205
948.4101, 474.0541
948.8922, 481.0226
949.3743, 488.1259
949.8564, 497.0199
950.3386, 505.8477
950.8207, 512.5009
951.3028, 517.1663
951.7849, 520.7331
952.2670, 523.5256
952.7491, 526.5413
953.2313, 530.8540
953.7134, 535.8001
954.1955, 540.3156
954.6776, 544.6077
955.1597, 549.1711
955.6418, 554.1533
956.1240, 559.8107
956.6061, 566.4156
957.0882, 573.2385
957.5703, 578.5626
958.0524, 582.8095
958.5345, 588.9874
959.0167, 597.1910
959.4988, 606.3205
959.9809, 616.1085
960.4630, 626.1666
960.9451, 635.9669
961.4272, 646.0132
961.9094, 658.6377
962.3915, 674.5016
962.8736, 689.9388
963.3557, 704.3154
963.8378, 719.4573
964.3199, 736.2659
964.8021, 753.9991
965.2842, 771.5666
965.7663, 790.3828
966.2484, 809.8870
966.7305, 829.1977
967.2126, 850.5214
967.6948, 870.9939
968.1769, 892.0247
968.6590, 914.2034
969.1411, 937.5302
969.6232, 962.7377
970.1053, 990.0232
970.5875, 1015.819
971.0696, 1038.694
971.5517, 1060.960
972.0338, 1084.237
972.5159, 1106.889
972.9980, 1127.088
973.4802, 1145.614
973.9623, 1164.604
974.4444, 1184.826
974.9265, 1202.573
975.4086, 1214.003
975.8907, 1223.613
976.3729, 1235.575
976.8550, 1248.418
977.3371, 1259.796
977.8192, 1269.551
978.3013, 1278.041
978.7834, 1285.241
979.2656, 1294.007
979.7477, 1307.990
980.2298, 1325.457
980.7119, 1342.922
981.1940, 1360.671
981.6761, 1380.063
982.1583, 1401.494
982.6404, 1425.523
983.1225, 1452.852
983.6046, 1482.737
984.0867, 1514.957
984.5688, 1548.994
985.0510, 1580.348
985.5331, 1608.967
986.0152, 1635.731
986.4973, 1661.203
986.9794, 1682.576
987.4615, 1697.519
987.9437, 1705.914
988.4258, 1707.770
988.9079, 1703.760
989.3900, 1687.985
989.8721, 1658.769
990.3542, 1622.451
990.8364, 1580.910
991.3185, 1534.075
991.8006, 1481.107
992.2827, 1422.745
992.7648, 1365.816
993.2469, 1309.280
993.7291, 1256.920
994.2112, 1209.780
994.6933, 1165.923
995.1754, 1124.264
995.6575, 1085.424
996.1396, 1049.887
996.6218, 1017.695
997.1039, 990.3846
997.5860, 968.2853
998.0681, 950.4700
998.5502, 938.2599
999.0323, 928.6509
999.5145, 920.0284
999.9966, 912.9637
1000.479, 908.5610
1000.961, 906.8873
1001.443, 907.0076
1001.925, 907.8074
1002.407, 911.4950
1002.889, 920.0511
1003.371, 930.7159
1003.854, 941.0002
1004.336, 951.8672
1004.818, 965.4333
1005.300, 982.1312
1005.782, 1001.008
1006.264, 1021.686
1006.746, 1044.242
1007.228, 1068.912
1007.710, 1095.233
1008.193, 1122.893
1008.675, 1151.698
1009.157, 1180.877
1009.639, 1210.475
1010.121, 1242.514
1010.603, 1279.811
1011.085, 1319.468
1011.567, 1357.819
1012.049, 1396.320
1012.532, 1437.075
1013.014, 1480.004
1013.496, 1523.497
1013.978, 1566.952
1014.460, 1609.583
1014.942, 1650.542
1015.424, 1689.932
1015.906, 1729.573
1016.389, 1767.506
1016.871, 1798.564
1017.353, 1822.017
1017.835, 1839.330
1018.317, 1851.226
1018.799, 1858.087
1019.281, 1861.361
1019.763, 1859.541
1020.245, 1846.483
1020.728, 1823.340
1021.210, 1797.530
1021.692, 1770.321
1022.174, 1740.486
1022.656, 1707.487
1023.138, 1671.451
1023.620, 1632.439
1024.102, 1590.782
1024.584, 1548.441
1025.067, 1505.435
1025.549, 1465.242
1026.031, 1428.645
1026.513, 1393.963
1026.995, 1360.345
1027.477, 1327.380
1027.959, 1294.146
1028.441, 1260.751
1028.924, 1230.881
1029.406, 1205.008
1029.888, 1180.223
1030.370, 1155.805
1030.852, 1133.238
1031.334, 1113.814
1031.816, 1095.572
1032.298, 1074.392
1032.781, 1050.116
1033.263, 1028.351
1033.745, 1009.130
1034.227, 992.5406
1034.709, 979.7034
1035.191, 967.3127
1035.673, 952.9137
1036.155, 941.8458
1036.637, 926.6141
1037.120, 918.6431
1037.602, 909.1136
1038.084, 897.2193
1038.566, 885.3766
1039.048, 873.8665
1039.530, 862.5679
1040.012, 851.0202
1040.494, 839.8660
1040.976, 830.5308
1041.459, 823.3297
1041.941, 815.1764
1042.423, 805.2438
1042.905, 795.5861
1043.387, 786.4614
1043.869, 777.5484
1044.351, 768.8829
1044.833, 760.1641
1045.316, 750.6023
1045.798, 739.9874
1046.280, 730.6945
1046.762, 722.6151
1047.244, 716.1276
1047.726, 712.4356
1048.208, 709.1230
1048.690, 704.6335
1049.172, 699.7899
1049.655, 695.6429
1050.137, 692.2691
1050.619, 690.4378
1051.101, 691.6166
1051.583, 692.4171
1052.065, 690.5248
1052.547, 689.8011
1053.029, 693.1902
1053.511, 698.8588
1053.994, 704.1176
1054.476, 708.7465
1054.958, 713.7904
1055.440, 719.2460
1055.922, 725.4494
1056.404, 732.7493
1056.886, 740.5225
1057.368, 748.8411
1057.851, 757.1736
1058.333, 765.0331
1058.815, 772.2978
1059.297, 778.5787
1059.779, 783.0828
1060.261, 787.8087
1060.743, 794.0141
1061.225, 799.9271
1061.708, 805.1570
1062.190, 808.9770
1062.672, 810.2316
1063.154, 809.1221
1063.636, 807.3734
1064.118, 805.2037
1064.600, 803.1065
1065.082, 801.2100
1065.564, 799.5046
1066.047, 798.1969
1066.529, 796.9365
1067.011, 795.2994
1067.493, 793.2863
1067.975, 791.1319
1068.457, 788.8911
1068.939, 786.5659
1069.421, 783.7871
1069.903, 781.3170
1070.386, 779.6906
1070.868, 778.6108
1071.350, 778.2237
1071.832, 778.0351
1072.314, 776.7071
1072.796, 773.8181
1073.278, 769.9288
1073.760, 764.2706
1074.243, 758.8840
1074.725, 755.2498
1075.207, 752.3981
1075.689, 749.5664
1076.171, 746.5029
1076.653, 742.9760
1077.135, 738.9330
1077.617, 734.3720
1078.099, 728.6392
1078.582, 723.1891
1079.064, 719.3046
1079.546, 715.6795
1080.028, 711.2339
1080.510, 705.8881
1080.992, 699.6990
1081.474, 692.6884
1081.956, 685.3461
1082.438, 677.3201
1082.921, 669.7891
1083.403, 663.6823
1083.885, 658.0676
1084.367, 652.6467
1084.849, 646.9729
1085.331, 640.3472
1085.813, 632.7078
1086.295, 624.6194
1086.777, 616.5072
1087.260, 607.7316
1087.742, 597.4578
1088.224, 586.9547
1088.706, 576.7949
1089.188, 567.3276
1089.670, 559.1083
1090.152, 552.0734
1090.634, 545.3205
1091.117, 539.1896
1091.599, 531.8722
1092.081, 521.3073
1092.563, 510.7526
1093.045, 501.6787
1093.527, 494.1234
1094.009, 488.8200
1094.491, 484.9009
1094.974, 479.2036
1095.456, 470.2338
1095.938, 461.8262
1096.420, 455.2378
1096.902, 449.7112
1097.384, 445.1194
1097.866, 441.1823
1098.348, 437.8765
1098.830, 434.9959
1099.313, 432.1088
1099.795, 429.1288
1100.277, 426.2988
1100.759, 423.2459
1101.241, 420.9613
1101.723, 420.5197
1102.205, 420.3318
1102.687, 418.8704
1103.169, 416.9157
1103.652, 415.9535
1104.134, 416.1701
1104.616, 416.8809
1105.098, 417.9378
1105.580, 419.4749
1106.062, 421.5966
1106.544, 424.1227
1107.026, 426.7948
1107.509, 429.9214
1107.991, 433.9100
1108.473, 438.7443
1108.955, 444.1758
1109.437, 450.6382
1109.919, 456.8187
1110.401, 460.8330
1110.883, 466.6588
1111.365, 477.8066
1111.848, 489.9160
1112.330, 498.2567
1112.812, 503.9990
1113.294, 511.8079
1113.776, 522.6739
1114.258, 533.2570
1114.740, 546.5505
1115.222, 555.2379
1115.704, 554.6837
1116.187, 552.1088
1116.669, 553.4135
1117.151, 555.4883
1117.633, 551.9860
1118.115, 542.4137
1118.597, 531.5096
1119.079, 519.0041
1119.561, 505.7503
1120.044, 491.4889
1120.526, 477.0399
1121.008, 462.3659
1121.490, 448.3235
1121.972, 436.1989
1122.454, 423.9337
1122.936, 412.5178
1123.418, 402.5966
1123.901, 391.8510
1124.383, 383.1470
1124.865, 374.7217
1125.347, 365.7219
1125.829, 357.2988
1126.311, 350.4717
1126.793, 345.0100
1127.275, 340.4222
1127.757, 337.0385
1128.240, 331.7861
1128.722, 324.0435
1129.204, 317.3826
1129.686, 312.6908
1130.168, 308.9078
1130.650, 305.6073
1131.132, 302.0732
1131.614, 296.9098
1132.096, 290.4209
1132.579, 285.8622
1133.061, 283.2882
1133.543, 280.2176
1134.025, 276.2928
1134.507, 272.6991
1134.989, 269.9493
1135.471, 267.7221
1135.953, 265.7738
1136.436, 263.8265
1136.918, 260.5972
1137.400, 256.5169
1137.882, 254.7877
1138.364, 255.2934
1138.846, 255.5762
1139.328, 254.9559
1139.810, 253.7177
1140.292, 251.9693
1140.775, 250.4478
1141.257, 250.3606
1141.739, 251.3109
1142.221, 252.6322
1142.703, 254.0443
1143.185, 254.6875
1143.667, 254.5429
1144.149, 254.0860
1144.631, 253.5531
1145.114, 253.4463
1145.596, 254.5737
1146.078, 255.8827
1146.560, 256.2246
1147.042, 255.6255
1147.524, 253.8936
1148.006, 251.3138
1148.488, 248.6031
1148.971, 245.8412
1149.453, 242.4286
1149.935, 238.0509
1150.417, 232.8832
1150.899, 226.4545
1151.381, 219.9085
1151.863, 214.0967
1152.345, 208.9490
1152.828, 204.5740
1153.310, 200.6704
1153.792, 196.3502
1154.274, 191.3047
1154.756, 186.7792
1155.238, 183.3396
1155.720, 180.5896
1156.202, 178.8659
1156.684, 177.2368
1157.167, 175.0668
1157.649, 172.4435
1158.131, 169.2723
1158.613, 165.7144
1159.095, 163.0863
1159.577, 162.1462
1160.059, 161.1818
1160.541, 160.2021
1161.023, 158.7891
1161.506, 156.5419
1161.988, 153.9957
1162.470, 151.3145
1162.952, 148.7685
1163.434, 147.0882
1163.916, 146.4275
1164.398, 145.8178
1164.880, 145.2589
1165.363, 144.7817
1165.845, 144.6214
1166.327, 144.0966
1166.809, 142.8408
1167.291, 141.0295
1167.773, 138.7085
1168.255, 136.0993
1168.737, 134.6991
1169.219, 134.7867
1169.702, 134.2406
1170.184, 132.9008
1170.666, 131.4709
1171.148, 130.1662
1171.630, 128.7188
1172.112, 126.9184
1172.594, 124.9333
1173.076, 122.9850
1173.558, 121.1463
1174.041, 119.9268
1174.523, 119.2574
1175.005, 118.7004
1175.487, 118.1627
1175.969, 117.4182
1176.451, 116.3885
1176.933, 115.3676
1177.415, 114.6426
1177.897, 114.0261
1178.380, 113.2695
1178.862, 112.3769
1179.344, 111.3248
1179.826, 110.1433
1180.308, 108.6910
1180.790, 107.1446
1181.272, 106.3194
1181.754, 106.6301
1182.237, 107.1118
1182.719, 107.1616
1183.201, 106.9169
1183.683, 106.7760
1184.165, 106.1704
1184.647, 103.6785
1185.129, 100.5572
1185.611, 99.51279
1186.094, 100.7461
1186.576, 101.6200
1187.058, 101.2606
1187.540, 100.4351
1188.022, 98.79770
1188.504, 97.48148
1188.986, 97.07706
1189.468, 97.20854
1189.950, 97.89079
1190.432, 98.73536
1190.915, 98.76186
1191.397, 97.79845
1191.879, 96.77637
1192.361, 95.50495
1192.843, 94.51137
1193.325, 93.80334
1193.807, 93.50253
1194.289, 93.86868
1194.772, 94.30608
1195.254, 94.10976
1195.736, 93.50636
1196.218, 93.38297
1196.700, 93.81261
1197.182, 94.08401
1197.664, 94.24033
1198.146, 93.43362
1198.629, 91.41676
1199.111, 89.85507
1199.593, 89.69758
1200.075, 90.17334
1200.557, 90.41882
1201.039, 90.41508
1201.521, 89.85612
1202.003, 89.05124
1202.485, 89.33295
1202.968, 90.35977
1203.450, 90.38036
1203.932, 89.14269
1204.414, 88.06107
1204.896, 87.94456
1205.378, 88.19568
1205.860, 88.57412
1206.342, 88.70161
1206.824, 87.85425
1207.307, 86.74857
1207.789, 86.27743
1208.271, 86.35545
1208.753, 86.72053
1209.235, 87.24598
1209.717, 87.48947
1210.199, 87.24455
1210.681, 86.78727
1211.164, 86.03539
1211.646, 85.31653
1212.128, 84.38417
1212.610, 83.92722
1213.092, 85.20647
1213.574, 87.28836
1214.056, 87.66909
1214.538, 86.14883
1215.021, 84.79932
1215.503, 83.23937
1215.985, 82.84882
1216.467, 84.47509
1216.949, 85.39344
1217.431, 84.22799
1217.913, 82.83031
1218.395, 82.95566
1218.877, 84.03735
1219.359, 84.80238
1219.842, 85.22927
1220.324, 84.63341
1220.806, 83.09707
1221.288, 82.00137
1221.770, 81.51727
1222.252, 80.92595
1222.734, 79.93395
1223.216, 78.98215
1223.699, 78.42556
1224.181, 78.24573
1224.663, 78.74067
1225.145, 79.36495
1225.627, 79.07693
1226.109, 78.27296
1226.591, 77.69418
1227.073, 77.47289
1227.556, 77.56133
1228.038, 77.94089
1228.520, 78.43467
1229.002, 79.31221
1229.484, 79.77278
1229.966, 79.03889
1230.448, 78.16466
1230.930, 77.94023
1231.412, 77.95747
1231.895, 77.56483
1232.377, 77.67176
1232.859, 76.83394
1233.341, 77.63158
1233.823, 77.97889
1234.305, 77.69599
1234.787, 77.32265
1235.269, 76.87302
1235.751, 76.48894
1236.234, 76.25258
1236.716, 76.07235
1237.198, 75.85310
1237.680, 75.60044
1238.162, 75.29264
1238.644, 74.94156
1239.126, 74.85766
1239.608, 75.00117
1240.091, 74.68508
1240.573, 73.91661
1241.055, 73.99021
1241.537, 75.46120
1242.019, 77.09824
1242.501, 77.90047
1242.983, 78.00414
1243.465, 77.37009
1243.948, 76.31333
1244.430, 74.90747
1244.912, 73.61044
1245.394, 73.24140
1245.876, 73.64883
1246.358, 74.06560
1246.840, 74.27934
1247.322, 74.29643
1247.804, 73.93163
1248.286, 73.64820
1248.769, 73.83359
1249.251, 73.86378
1249.733, 72.25286
1250.215, 71.29891
1250.697, 74.38760
1251.179, 79.74596
1251.661, 82.38862
1252.143, 82.19170
1252.626, 80.07132
1253.108, 75.18704
1253.590, 72.31271
1254.072, 72.28622
1254.554, 72.77760
1255.036, 72.91579
1255.518, 72.77251
1256.000, 72.38391
1256.483, 71.87888
1256.965, 71.38956
1257.447, 71.02213
1257.929, 71.08926
1258.411, 71.54515
1258.893, 72.60503
1259.375, 73.90111
1259.857, 74.01421
1260.339, 72.74091
1260.822, 71.95940
1261.304, 72.97157
1261.786, 73.99695
1262.268, 74.03115
1262.750, 73.53293
1263.232, 72.19273
1263.714, 71.02715
1264.196, 71.29658
1264.678, 72.31457
1265.161, 72.56991
1265.643, 71.96796
1266.125, 71.77537
1266.607, 72.57335
1267.089, 72.37873
1267.571, 70.40598
1268.053, 69.57687
1268.535, 70.92300
1269.017, 72.64333
1269.500, 73.71391
1269.982, 74.09449
1270.464, 73.58815
1270.946, 72.55981
1271.428, 72.17943
1271.910, 72.30279
1272.392, 72.45178
1272.874, 72.52147
1273.357, 72.15113
1273.839, 71.40669
1274.321, 70.83491
1274.803, 70.67712
1275.285, 71.18239
1275.767, 73.31526
1276.249, 75.11027
1276.731, 74.95937
1277.214, 74.16371
1277.696, 73.66649
1278.178, 73.23071
1278.660, 72.13936
1279.142, 70.79986
1279.624, 70.80120
1280.106, 72.67570
1280.588, 73.30283
1281.070, 71.82202
1281.552, 71.12231
1282.035, 71.59827
1282.517, 72.54082
1282.999, 73.94137
1283.481, 74.70048
1283.963, 73.79984
1284.445, 74.38840
1284.927, 72.30352
1285.409, 73.12589
1285.892, 71.99499
1286.374, 69.70468
1286.856, 68.43745
##END=



