##NAMES=Brazilianite
##RRUFFID=R050126
##IDEAL CHEMISTRY=NaAl_3_(PO_4_)_2_(OH)_4_
##LOCALITY=Linopolis, Minas Gerais, Brazil
##OWNER=RRUFF
##SOURCE=Carlos and Paulo Vasconcelos
##DESCRIPTION=Pair of greenish yellow elongated crystals
##STATUS=The identification of this mineral has been confirmed by X-ray diffraction and chemical analysis
##URL=rruff.info/R050126
##MEASURED CHEMISTRY=Na_1.00_Al_3.00_(P_1.00_O_4_)_2_((OH)_3.80_F_0.20_)_Î£=4_
94.30859, 38.31829
94.79071, 36.47242
95.27283, 36.17144
95.75494, 37.56845
96.23706, 40.02398
96.71918, 42.75167
97.20129, 45.70616
97.68341, 48.95118
98.16553, 52.55370
98.64764, 56.47260
99.12976, 60.64322
99.61188, 65.14885
100.0940, 69.82410
100.5761, 74.14670
101.0582, 77.87196
101.5403, 82.05758
102.0225, 87.57465
102.5046, 94.48215
102.9867, 102.1354
103.4688, 110.3899
103.9509, 119.2089
104.4330, 129.5308
104.9152, 142.1209
105.3973, 155.0033
105.8794, 166.2822
106.3615, 177.3083
106.8436, 184.4897
107.3257, 186.6599
107.8079, 183.0352
108.2900, 177.9961
108.7721, 169.3347
109.2542, 160.1581
109.7363, 154.5987
110.2184, 154.4792
110.7006, 156.3608
111.1827, 159.2564
111.6648, 162.6074
112.1469, 168.0962
112.6290, 176.3419
113.1111, 186.6863
113.5933, 198.1082
114.0754, 211.5304
114.5575, 225.1567
115.0396, 238.3851
115.5217, 253.6556
116.0038, 265.2055
116.4860, 271.1743
116.9681, 272.1846
117.4502, 270.4605
117.9323, 264.5922
118.4144, 257.4080
118.8965, 250.9472
119.3786, 245.5317
119.8608, 241.1785
120.3429, 237.9130
120.8250, 235.7368
121.3071, 234.7512
121.7892, 235.3720
122.2713, 237.0933
122.7535, 239.3087
123.2356, 242.5680
123.7177, 245.7476
124.1998, 247.6401
124.6819, 248.2170
125.1640, 248.7896
125.6462, 250.2025
126.1283, 252.3935
126.6104, 255.2313
127.0925, 258.9250
127.5746, 263.1688
128.0567, 267.3323
128.5389, 271.3299
129.0210, 275.7139
129.5031, 281.3643
129.9852, 288.0527
130.4673, 294.6418
130.9494, 300.6631
131.4316, 306.0098
131.9137, 309.2633
132.3958, 309.9594
132.8779, 310.4385
133.3600, 311.9208
133.8421, 314.3742
134.3243, 317.1328
134.8064, 319.7265
135.2885, 322.1794
135.7706, 325.0219
136.2527, 328.2455
136.7348, 331.9461
137.2170, 336.4259
137.6991, 341.8070
138.1812, 347.5038
138.6633, 353.1971
139.1454, 358.9530
139.6275, 364.3247
140.1097, 368.9672
140.5918, 373.1128
141.0739, 378.0324
141.5560, 383.6877
142.0381, 390.0523
142.5202, 397.1280
143.0023, 404.7071
143.4845, 413.4141
143.9666, 423.5949
144.4487, 435.3666
144.9308, 446.3817
145.4129, 456.3341
145.8951, 465.9408
146.3772, 476.5804
146.8593, 490.4197
147.3414, 501.7239
147.8235, 509.1752
148.3056, 512.5930
148.7878, 513.5206
149.2699, 510.5048
149.7520, 505.6290
150.2341, 501.6620
150.7162, 498.2041
151.1983, 495.9421
151.6805, 495.0973
152.1626, 495.9619
152.6447, 497.4565
153.1268, 498.9438
153.6089, 501.1560
154.0910, 505.2522
154.5732, 512.4020
155.0553, 520.4881
155.5374, 528.8740
156.0195, 537.7526
156.5016, 546.3951
156.9837, 554.4744
157.4659, 562.2139
157.9480, 570.1163
158.4301, 577.9747
158.9122, 586.1688
159.3943, 594.6381
159.8764, 602.4141
160.3586, 612.0608
160.8407, 624.3752
161.3228, 639.0771
161.8049, 655.4042
162.2870, 672.5905
162.7691, 691.6041
163.2513, 713.1724
163.7334, 738.5595
164.2155, 765.0161
164.6976, 792.3862
165.1797, 820.2009
165.6618, 846.7238
166.1440, 871.6201
166.6261, 894.3878
167.1082, 914.3063
167.5903, 928.2536
168.0724, 942.3732
168.5545, 957.8419
169.0367, 975.4225
169.5188, 999.9809
170.0009, 1034.517
170.4830, 1077.387
170.9651, 1127.979
171.4472, 1195.532
171.9293, 1262.993
172.4115, 1325.182
172.8936, 1380.600
173.3757, 1410.135
173.8578, 1397.285
174.3399, 1350.001
174.8220, 1279.723
175.3042, 1173.198
175.7863, 1055.914
176.2684, 950.8758
176.7505, 858.0292
177.2326, 777.3828
177.7147, 711.8082
178.1969, 658.7618
178.6790, 614.3360
179.1611, 578.9224
179.6432, 550.3400
180.1253, 526.1287
180.6074, 506.5455
181.0896, 490.3801
181.5717, 477.3578
182.0538, 467.1168
182.5359, 458.0309
183.0180, 449.2956
183.5001, 441.3937
183.9823, 435.6838
184.4644, 432.3354
184.9465, 430.3569
185.4286, 428.8488
185.9107, 427.8168
186.3928, 427.3677
186.8750, 427.9511
187.3571, 429.1779
187.8392, 429.5778
188.3213, 428.9012
188.8034, 428.4025
189.2855, 430.0063
189.7677, 433.5286
190.2498, 437.2236
190.7319, 439.8618
191.2140, 441.8146
191.6961, 445.3216
192.1782, 450.7142
192.6604, 456.7226
193.1425, 460.9517
193.6246, 463.4016
194.1067, 466.6864
194.5888, 472.5718
195.0709, 480.7324
195.5531, 488.1664
196.0352, 494.8276
196.5173, 500.8602
196.9994, 506.4132
197.4815, 511.4516
197.9636, 516.4127
198.4458, 521.8014
198.9279, 527.6187
199.4100, 532.3539
199.8921, 535.7769
200.3742, 538.4606
200.8563, 541.3375
201.3385, 544.4149
201.8206, 547.7747
202.3027, 551.5851
202.7848, 555.9147
203.2669, 559.7603
203.7490, 562.6225
204.2311, 565.6037
204.7133, 571.0220
205.1954, 579.1266
205.6775, 588.6498
206.1596, 599.6416
206.6417, 612.6379
207.1238, 623.8896
207.6060, 633.8066
208.0881, 641.5731
208.5702, 645.4033
209.0523, 645.1585
209.5344, 641.4347
210.0165, 634.0336
210.4987, 622.2828
210.9808, 609.4695
211.4629, 594.9172
211.9450, 579.9478
212.4271, 567.7384
212.9092, 558.5822
213.3914, 551.4268
213.8735, 545.7550
214.3556, 541.5347
214.8377, 539.0767
215.3198, 538.3766
215.8019, 539.4724
216.2841, 542.5247
216.7662, 547.7587
217.2483, 554.4806
217.7304, 562.8117
218.2125, 573.6101
218.6946, 583.1176
219.1768, 591.5342
219.6589, 598.4704
220.1410, 603.5058
220.6231, 607.0615
221.1052, 607.9408
221.5873, 605.1820
222.0695, 597.3992
222.5516, 589.8945
223.0337, 582.4837
223.5158, 575.4947
223.9979, 569.1483
224.4800, 562.7949
224.9622, 558.2969
225.4443, 556.6965
225.9264, 558.8865
226.4085, 561.6545
226.8906, 564.9341
227.3727, 568.8117
227.8549, 573.7432
228.3370, 580.0015
228.8191, 586.7945
229.3012, 594.1008
229.7833, 602.5998
230.2654, 609.7979
230.7476, 616.2338
231.2297, 621.1237
231.7118, 622.7927
232.1939, 621.4633
232.6760, 616.5892
233.1581, 607.3798
233.6402, 592.0803
234.1224, 577.2927
234.6045, 562.5067
235.0866, 548.2615
235.5687, 535.6497
236.0508, 524.0900
236.5329, 514.9354
237.0151, 509.0238
237.4972, 507.2443
237.9793, 506.0508
238.4614, 505.2723
238.9435, 505.1456
239.4256, 506.0490
239.9078, 507.6216
240.3899, 510.8045
240.8720, 516.3655
241.3541, 525.4562
241.8362, 532.9636
242.3183, 538.8297
242.8005, 543.2271
243.2826, 546.6985
243.7647, 550.2656
244.2468, 551.1840
244.7289, 548.2621
245.2110, 540.7083
245.6932, 532.6042
246.1753, 524.2966
246.6574, 515.2125
247.1395, 503.9292
247.6216, 487.9701
248.1037, 474.3058
248.5859, 465.2309
249.0680, 461.5089
249.5501, 458.4319
250.0322, 455.0904
250.5143, 453.0961
250.9964, 454.8983
251.4786, 462.2364
251.9607, 470.2753
252.4428, 478.3671
252.9249, 486.7262
253.4070, 492.9976
253.8891, 498.3268
254.3713, 500.5117
254.8534, 496.3280
255.3355, 482.9912
255.8176, 468.9563
256.2997, 455.4297
256.7818, 442.4259
257.2639, 431.9142
257.7461, 424.0270
258.2282, 418.4597
258.7103, 414.9814
259.1924, 413.6098
259.6745, 414.2625
260.1566, 417.2250
260.6388, 422.4809
261.1209, 428.0545
261.6030, 433.9518
262.0851, 440.2348
262.5672, 446.9094
263.0493, 454.1175
263.5315, 461.4918
264.0136, 468.7981
264.4957, 476.1145
264.9778, 484.6966
265.4599, 494.9913
265.9420, 505.6666
266.4242, 515.2360
266.9063, 523.0351
267.3884, 532.3608
267.8705, 544.1738
268.3526, 557.8311
268.8347, 570.2371
269.3169, 580.7000
269.7990, 591.1830
270.2811, 603.1387
270.7632, 616.6865
271.2453, 630.7350
271.7274, 644.9629
272.2096, 659.7626
272.6917, 676.8549
273.1738, 696.2498
273.6559, 718.3943
274.1380, 743.4639
274.6201, 771.6931
275.1023, 802.8942
275.5844, 837.3604
276.0665, 874.3571
276.5486, 914.9766
277.0307, 960.3865
277.5128, 1003.734
277.9950, 1043.759
278.4771, 1081.186
278.9592, 1105.793
279.4413, 1117.599
279.9234, 1116.291
280.4055, 1099.695
280.8877, 1066.693
281.3698, 1026.706
281.8519, 981.6995
282.3340, 931.7148
282.8161, 884.4951
283.2982, 839.8904
283.7804, 798.2582
284.2625, 760.7616
284.7446, 727.2326
285.2267, 697.1208
285.7088, 670.6437
286.1909, 647.5574
286.6731, 626.1514
287.1552, 606.3796
287.6373, 588.4006
288.1194, 573.0151
288.6015, 560.0559
289.0836, 547.9471
289.5658, 535.9600
290.0479, 524.4606
290.5300, 514.5815
291.0121, 506.3878
291.4942, 500.0180
291.9763, 495.9793
292.4585, 494.1053
292.9406, 493.2158
293.4227, 493.1605
293.9048, 493.7921
294.3869, 494.8689
294.8690, 496.3947
295.3512, 498.2184
295.8333, 499.9432
296.3154, 501.8175
296.7975, 504.9870
297.2796, 510.3113
297.7617, 516.0552
298.2439, 519.1462
298.7260, 519.8270
299.2081, 520.2205
299.6902, 521.2896
300.1723, 523.1553
300.6544, 526.3113
301.1366, 531.0780
301.6187, 536.4147
302.1008, 540.9818
302.5829, 544.9789
303.0650, 549.3265
303.5471, 554.1232
304.0293, 559.6942
304.5114, 566.5690
304.9935, 574.9336
305.4756, 584.1619
305.9577, 593.2546
306.4398, 602.8091
306.9220, 614.2308
307.4041, 628.3230
307.8862, 644.5608
308.3683, 662.9041
308.8504, 683.1884
309.3326, 705.4232
309.8147, 729.3585
310.2968, 755.3276
310.7789, 782.6413
311.2610, 812.7924
311.7431, 844.5488
312.2252, 877.9514
312.7073, 912.8474
313.1895, 947.3188
313.6716, 981.9446
314.1537, 1015.018
314.6358, 1044.473
315.1179, 1072.613
315.6000, 1093.922
316.0822, 1105.991
316.5643, 1108.964
317.0464, 1103.396
317.5285, 1085.280
318.0106, 1061.258
318.4927, 1035.686
318.9749, 1007.516
319.4570, 980.7144
319.9391, 956.6805
320.4212, 935.1311
320.9033, 914.8221
321.3854, 895.3962
321.8676, 877.1233
322.3497, 860.2619
322.8318, 845.1575
323.3139, 830.5156
323.7960, 816.6539
324.2781, 803.0016
324.7603, 788.5101
325.2424, 771.7810
325.7245, 755.3708
326.2066, 739.9669
326.6887, 725.6531
327.1708, 712.1151
327.6530, 699.1863
328.1351, 687.1326
328.6172, 676.0365
329.0993, 665.9954
329.5814, 656.8210
330.0635, 648.3300
330.5457, 640.5368
331.0278, 633.9772
331.5099, 629.1768
331.9920, 625.1404
332.4741, 621.3127
332.9562, 617.3233
333.4384, 614.1018
333.9205, 612.1459
334.4026, 611.0162
334.8847, 608.9178
335.3668, 605.0004
335.8489, 601.3324
336.3311, 598.9197
336.8132, 598.0810
337.2953, 597.5614
337.7774, 597.5201
338.2595, 597.6727
338.7416, 597.4293
339.2238, 596.6085
339.7059, 595.9140
340.1880, 595.5548
340.6701, 595.5297
341.1522, 595.8954
341.6343, 596.6075
342.1165, 597.8248
342.5986, 599.9710
343.0807, 603.1838
343.5628, 606.0740
344.0449, 607.9489
344.5270, 609.2801
345.0092, 612.2228
345.4913, 616.8840
345.9734, 622.5837
346.4555, 628.7629
346.9376, 635.4322
347.4197, 643.2084
347.9019, 652.1935
348.3840, 662.2291
348.8661, 673.2554
349.3482, 685.2552
349.8303, 698.5514
350.3124, 713.7131
350.7946, 730.3979
351.2767, 747.6201
351.7588, 765.3417
352.2409, 784.2946
352.7230, 805.5282
353.2051, 828.8522
353.6873, 854.2024
354.1694, 882.4811
354.6515, 912.1286
355.1336, 941.4725
355.6157, 970.8595
356.0978, 998.8997
356.5800, 1025.976
357.0621, 1051.101
357.5442, 1072.934
358.0263, 1093.694
358.5084, 1108.464
358.9905, 1113.706
359.4727, 1109.754
359.9548, 1098.673
360.4369, 1081.425
360.9190, 1057.756
361.4011, 1026.762
361.8832, 985.2854
362.3654, 942.2313
362.8475, 899.8172
363.3296, 858.6600
363.8117, 819.8987
364.2938, 784.2662
364.7759, 751.3198
365.2581, 720.8782
365.7402, 692.8348
366.2223, 667.6754
366.7044, 645.6620
367.1865, 626.5941
367.6686, 609.8555
368.1508, 597.2000
368.6329, 585.2031
369.1150, 572.9842
369.5971, 560.5120
370.0792, 549.3888
370.5613, 541.1106
371.0435, 533.1748
371.5256, 524.0321
372.0077, 512.0787
372.4898, 501.3312
372.9719, 491.7551
373.4540, 483.4145
373.9361, 476.4677
374.4182, 470.9029
374.9004, 466.8732
375.3825, 464.7331
375.8646, 465.0157
376.3467, 464.8804
376.8288, 464.0585
377.3109, 463.1418
377.7931, 462.9620
378.2752, 463.5822
378.7573, 464.6680
379.2394, 466.2986
379.7215, 468.3469
380.2036, 469.9348
380.6858, 470.9412
381.1679, 471.9228
381.6500, 473.4704
382.1321, 475.5383
382.6142, 477.3807
383.0963, 478.9354
383.5785, 480.1314
384.0606, 480.9690
384.5427, 481.4154
385.0248, 481.1958
385.5069, 479.5211
385.9890, 477.1072
386.4712, 475.6111
386.9533, 475.1809
387.4354, 475.5703
387.9175, 476.7911
388.3996, 478.6316
388.8817, 480.6386
389.3639, 482.4704
389.8460, 484.4302
390.3281, 486.6375
390.8102, 489.1298
391.2923, 492.4409
391.7744, 497.2658
392.2566, 502.9697
392.7387, 508.9096
393.2208, 514.5984
393.7029, 520.9460
394.1850, 528.5141
394.6671, 537.1437
395.1493, 546.4807
395.6314, 557.0482
396.1135, 567.7768
396.5956, 577.9063
397.0777, 586.9971
397.5598, 597.2989
398.0420, 609.5890
398.5241, 623.2634
399.0062, 637.6257
399.4883, 653.4109
399.9704, 669.0645
400.4525, 683.7088
400.9347, 697.4642
401.4168, 712.4671
401.8989, 729.5003
402.3810, 747.0631
402.8631, 764.3597
403.3452, 781.7340
403.8274, 798.1653
404.3095, 813.1242
404.7916, 827.2033
405.2737, 841.7690
405.7558, 857.3987
406.2379, 872.1835
406.7201, 885.5844
407.2022, 897.6014
407.6843, 908.5716
408.1664, 918.5991
408.6485, 927.1066
409.1306, 933.0779
409.6128, 936.5490
410.0949, 938.8801
410.5770, 940.3500
411.0591, 940.9388
411.5412, 940.7902
412.0233, 939.8934
412.5055, 937.5414
412.9876, 933.1147
413.4697, 926.8733
413.9518, 919.4408
414.4339, 910.9382
414.9160, 901.3536
415.3982, 890.5864
415.8803, 878.8295
416.3624, 866.0414
416.8445, 851.2116
417.3266, 836.0084
417.8087, 821.6115
418.2909, 808.1666
418.7730, 795.5601
419.2551, 784.5170
419.7372, 774.0383
420.2193, 763.1888
420.7014, 751.0289
421.1836, 739.5485
421.6657, 729.9301
422.1478, 721.7589
422.6299, 713.8715
423.1120, 705.9490
423.5941, 698.2736
424.0763, 691.2167
424.5584, 684.8342
425.0405, 678.4385
425.5226, 672.7294
426.0047, 666.5845
426.4868, 658.9525
426.9690, 648.7061
427.4511, 638.4731
427.9332, 628.7648
428.4153, 619.4724
428.8974, 609.8864
429.3795, 599.8122
429.8617, 589.8568
430.3438, 580.2001
430.8259, 570.4899
431.3080, 562.2416
431.7901, 555.6744
432.2722, 550.2998
432.7544, 545.1849
433.2365, 540.3192
433.7186, 536.1222
434.2007, 532.7816
434.6828, 530.2039
435.1649, 528.0675
435.6470, 526.3730
436.1292, 525.0670
436.6113, 524.1394
437.0934, 523.5621
437.5755, 523.4081
438.0576, 523.9127
438.5397, 524.2180
439.0219, 523.2817
439.5040, 521.2712
439.9861, 518.7296
440.4682, 515.7484
440.9503, 512.4609
441.4324, 509.1338
441.9146, 505.7733
442.3967, 501.8049
442.8788, 496.5400
443.3609, 490.6042
443.8430, 484.7508
444.3251, 478.8868
444.8073, 473.3751
445.2894, 468.3021
445.7715, 463.6718
446.2536, 459.4968
446.7357, 455.2060
447.2178, 451.8510
447.7000, 449.9849
448.1821, 449.9347
448.6642, 450.1114
449.1463, 450.4588
449.6284, 451.0037
450.1105, 451.8014
450.5927, 453.0562
451.0748, 454.1425
451.5569, 454.6871
452.0390, 455.0262
452.5211, 456.7245
453.0032, 460.2459
453.4854, 463.8578
453.9675, 466.7049
454.4496, 468.7912
454.9317, 470.3774
455.4138, 471.3223
455.8959, 472.1878
456.3781, 473.8348
456.8602, 476.1672
457.3423, 478.1887
457.8244, 479.4256
458.3065, 480.3162
458.7886, 481.6738
459.2708, 483.4742
459.7529, 485.3536
460.2350, 487.0767
460.7171, 488.7488
461.1992, 490.4810
461.6813, 492.2205
462.1635, 494.2948
462.6456, 497.3592
463.1277, 500.8488
463.6098, 503.9217
464.0919, 506.0575
464.5740, 507.8707
465.0562, 509.5959
465.5383, 511.2379
466.0204, 512.8395
466.5025, 514.4914
466.9846, 516.0734
467.4667, 517.5314
467.9489, 518.9796
468.4310, 520.0735
468.9131, 520.5356
469.3952, 520.7286
469.8773, 521.0898
470.3594, 521.4986
470.8416, 522.2804
471.3237, 523.4772
471.8058, 525.0906
472.2879, 527.2509
472.7700, 530.0294
473.2521, 533.1758
473.7343, 536.4357
474.2164, 539.7822
474.6985, 543.8235
475.1806, 548.7021
475.6627, 554.0480
476.1448, 559.1889
476.6270, 564.2426
477.1091, 570.1967
477.5912, 577.3587
478.0733, 585.6689
478.5554, 595.1461
479.0375, 605.7930
479.5197, 617.1550
480.0018, 629.3994
480.4839, 642.0883
480.9660, 654.6287
481.4481, 666.8557
481.9302, 679.2198
482.4124, 692.1703
482.8945, 705.4297
483.3766, 718.6126
483.8587, 731.5246
484.3408, 744.5286
484.8229, 757.9509
485.3051, 771.7594
485.7872, 785.0952
486.2693, 798.4967
486.7514, 811.0072
487.2335, 821.8366
487.7156, 830.2136
488.1978, 838.8777
488.6799, 847.6573
489.1620, 856.9186
489.6441, 866.9517
490.1262, 877.6777
490.6083, 889.5778
491.0905, 902.8561
491.5726, 917.2595
492.0547, 931.8875
492.5368, 946.4935
493.0189, 962.0294
493.5010, 979.3435
493.9832, 998.1371
494.4653, 1017.258
494.9474, 1036.467
495.4295, 1056.567
495.9116, 1078.841
496.3937, 1102.883
496.8758, 1126.896
497.3579, 1150.908
497.8401, 1174.240
498.3222, 1196.682
498.8043, 1218.103
499.2864, 1238.428
499.7685, 1256.736
500.2506, 1274.513
500.7328, 1293.045
501.2149, 1312.743
501.6970, 1330.817
502.1791, 1346.386
502.6612, 1359.611
503.1433, 1370.651
503.6255, 1378.894
504.1076, 1385.674
504.5897, 1390.657
505.0718, 1394.340
505.5539, 1398.178
506.0360, 1402.410
506.5182, 1406.564
507.0003, 1410.206
507.4824, 1413.237
507.9645, 1417.903
508.4466, 1424.748
508.9287, 1431.904
509.4109, 1437.355
509.8930, 1441.117
510.3751, 1445.674
510.8572, 1451.696
511.3393, 1458.151
511.8214, 1463.588
512.3036, 1468.053
512.7857, 1471.861
513.2678, 1474.854
513.7499, 1477.398
514.2321, 1480.264
514.7142, 1483.338
515.1963, 1485.614
515.6784, 1486.253
516.1605, 1485.873
516.6426, 1484.964
517.1248, 1483.413
517.6069, 1481.962
518.0890, 1480.377
518.5711, 1479.243
519.0532, 1479.407
519.5353, 1480.385
520.0175, 1483.390
520.4996, 1489.389
520.9817, 1497.985
521.4638, 1506.543
521.9459, 1513.982
522.4280, 1522.844
522.9102, 1534.449
523.3923, 1549.436
523.8744, 1564.141
524.3565, 1577.789
524.8386, 1592.821
525.3207, 1613.208
525.8029, 1638.744
526.2849, 1663.675
526.7670, 1686.283
527.2491, 1707.828
527.7313, 1730.237
528.2134, 1753.413
528.6955, 1776.358
529.1776, 1797.919
529.6597, 1818.948
530.1418, 1841.667
530.6240, 1865.709
531.1061, 1886.928
531.5882, 1902.208
532.0703, 1913.203
532.5524, 1921.427
533.0345, 1927.313
533.5167, 1930.136
533.9988, 1929.295
534.4809, 1925.256
534.9630, 1918.839
535.4451, 1910.440
535.9272, 1899.292
536.4094, 1885.372
536.8915, 1868.687
537.3736, 1848.449
537.8557, 1823.407
538.3378, 1796.549
538.8199, 1769.069
539.3021, 1740.770
539.7842, 1713.415
540.2663, 1686.784
540.7484, 1660.983
541.2305, 1636.269
541.7126, 1612.359
542.1948, 1588.339
542.6769, 1563.354
543.1590, 1539.560
543.6411, 1520.762
544.1232, 1506.511
544.6053, 1495.164
545.0875, 1485.870
545.5696, 1478.888
546.0517, 1474.563
546.5338, 1472.867
547.0159, 1473.437
547.4980, 1476.138
547.9802, 1481.026
548.4623, 1488.019
548.9444, 1496.214
549.4265, 1508.110
549.9086, 1526.143
550.3907, 1547.412
550.8729, 1567.809
551.3550, 1585.084
551.8371, 1605.221
552.3192, 1629.832
552.8013, 1658.140
553.2834, 1685.983
553.7656, 1713.085
554.2477, 1740.921
554.7298, 1770.797
555.2119, 1802.629
555.6940, 1834.689
556.1761, 1867.265
556.6583, 1898.646
557.1404, 1928.577
557.6225, 1956.054
558.1046, 1978.323
558.5867, 1995.042
559.0688, 2006.377
559.5510, 2012.080
560.0331, 2012.555
560.5152, 2008.705
560.9973, 1999.214
561.4794, 1987.036
561.9615, 1973.094
562.4437, 1957.619
562.9258, 1941.556
563.4079, 1925.630
563.8900, 1908.605
564.3721, 1889.863
564.8542, 1868.649
565.3364, 1847.931
565.8185, 1828.927
566.3006, 1809.520
566.7827, 1787.862
567.2648, 1764.208
567.7469, 1737.966
568.2291, 1708.863
568.7112, 1677.400
569.1933, 1643.597
569.6754, 1607.650
570.1575, 1570.105
570.6396, 1529.852
571.1218, 1488.935
571.6039, 1451.089
572.0860, 1416.318
572.5681, 1382.000
573.0502, 1345.005
573.5323, 1309.103
574.0145, 1276.701
574.4966, 1248.524
574.9787, 1223.470
575.4608, 1201.597
575.9429, 1182.598
576.4250, 1166.463
576.9072, 1153.152
577.3893, 1142.809
577.8714, 1136.086
578.3535, 1132.206
578.8356, 1129.465
579.3177, 1127.132
579.7999, 1127.739
580.2820, 1132.116
580.7641, 1140.133
581.2462, 1151.202
581.7283, 1165.451
582.2104, 1181.641
582.6926, 1199.176
583.1747, 1217.967
583.6568, 1237.379
584.1389, 1257.441
584.6210, 1279.386
585.1031, 1304.224
585.5853, 1331.553
586.0674, 1360.682
586.5495, 1391.461
587.0316, 1423.787
587.5137, 1457.849
587.9958, 1493.611
588.4780, 1531.254
588.9601, 1570.038
589.4422, 1611.522
589.9243, 1656.901
590.4064, 1705.843
590.8885, 1756.181
591.3707, 1807.298
591.8528, 1860.799
592.3349, 1917.610
592.8170, 1978.135
593.2991, 2040.173
593.7813, 2104.083
594.2634, 2169.609
594.7455, 2236.453
595.2276, 2304.404
595.7097, 2371.668
596.1918, 2438.552
596.6740, 2503.031
597.1561, 2565.133
597.6382, 2622.633
598.1203, 2669.272
598.6024, 2703.331
599.0845, 2725.639
599.5667, 2738.813
600.0488, 2741.169
600.5309, 2726.243
601.0130, 2689.507
601.4951, 2637.556
601.9772, 2572.384
602.4594, 2493.798
602.9415, 2404.372
603.4236, 2298.730
603.9057, 2189.015
604.3878, 2080.702
604.8699, 1975.395
605.3521, 1872.700
605.8342, 1771.249
606.3163, 1675.398
606.7984, 1588.907
607.2805, 1512.126
607.7626, 1443.022
608.2448, 1381.583
608.7269, 1326.562
609.2090, 1274.761
609.6911, 1226.747
610.1732, 1182.537
610.6553, 1143.188
611.1375, 1107.306
611.6196, 1074.496
612.1017, 1044.734
612.5838, 1018.065
613.0659, 995.7102
613.5480, 975.4451
614.0302, 956.5781
614.5123, 939.3529
614.9944, 922.4296
615.4765, 905.7383
615.9586, 889.6669
616.4407, 874.3130
616.9229, 859.8890
617.4050, 846.3831
617.8871, 833.9830
618.3692, 821.7313
618.8513, 807.5335
619.3334, 791.9923
619.8156, 777.4811
620.2977, 765.4686
620.7798, 754.5155
621.2619, 742.9318
621.7440, 731.1199
622.2261, 720.0284
622.7083, 710.7273
623.1904, 701.9205
623.6725, 692.5370
624.1546, 682.6498
624.6367, 674.0561
625.1188, 667.4617
625.6010, 661.9651
626.0831, 657.0566
626.5652, 652.5103
627.0473, 649.6148
627.5294, 648.9717
628.0115, 649.0283
628.4937, 647.9797
628.9758, 645.7911
629.4579, 644.7819
629.9400, 645.4089
630.4221, 646.8867
630.9042, 648.4512
631.3864, 649.9806
631.8685, 651.0670
632.3506, 651.4167
632.8327, 651.4350
633.3148, 651.5568
633.7969, 651.6429
634.2791, 651.2860
634.7612, 651.0306
635.2433, 649.6531
635.7254, 646.4368
636.2075, 641.3284
636.6896, 635.7128
637.1718, 629.8409
637.6539, 623.2204
638.1360, 615.3557
638.6181, 606.0355
639.1002, 597.4063
639.5823, 589.5480
640.0645, 582.0573
640.5466, 574.5439
641.0287, 567.0092
641.5108, 559.4241
641.9929, 551.6550
642.4750, 544.5821
642.9572, 539.6057
643.4393, 536.0851
643.9214, 532.7839
644.4035, 529.2567
644.8856, 525.8760
645.3677, 522.3474
645.8499, 519.1157
646.3320, 517.3544
646.8141, 519.2355
647.2962, 520.4996
647.7783, 519.5589
648.2604, 516.8143
648.7426, 515.4971
649.2247, 515.9546
649.7068, 517.0657
650.1888, 518.5598
650.6710, 520.3563
651.1531, 521.1868
651.6352, 520.9384
652.1173, 520.9772
652.5994, 522.8726
653.0815, 525.7977
653.5637, 528.0760
654.0458, 529.4255
654.5279, 530.6482
655.0100, 532.1269
655.4921, 533.8970
655.9742, 536.0504
656.4564, 539.5248
656.9385, 542.0558
657.4206, 542.6002
657.9027, 542.0582
658.3848, 541.9911
658.8669, 543.2073
659.3491, 543.2937
659.8312, 541.7150
660.3133, 538.7971
660.7954, 535.4168
661.2775, 531.5927
661.7596, 527.1293
662.2418, 521.9191
662.7239, 515.9946
663.2060, 509.3135
663.6881, 501.9496
664.1702, 494.5591
664.6523, 488.1010
665.1345, 481.4570
665.6166, 473.3942
666.0987, 463.7436
666.5808, 454.2970
667.0629, 445.8822
667.5450, 437.8486
668.0272, 429.7025
668.5093, 420.9029
668.9914, 413.3933
669.4735, 407.8017
669.9556, 402.7129
670.4377, 396.1061
670.9199, 387.8105
671.4020, 381.6604
671.8841, 378.6741
672.3662, 376.6004
672.8483, 371.7770
673.3304, 365.0818
673.8126, 359.3252
674.2947, 356.0392
674.7768, 353.2891
675.2589, 349.1089
675.7410, 344.1541
676.2231, 339.9200
676.7053, 337.7194
677.1874, 335.5971
677.6695, 332.8288
678.1516, 329.4966
678.6337, 326.3131
679.1158, 323.1711
679.5980, 320.3235
680.0801, 317.8643
680.5622, 315.7984
681.0443, 313.9010
681.5264, 312.1976
682.0085, 310.5942
682.4907, 309.1958
682.9728, 307.8436
683.4549, 306.0454
683.9370, 303.7768
684.4191, 301.5571
684.9012, 299.9970
685.3834, 298.5902
685.8655, 296.7110
686.3476, 293.8268
686.8297, 291.6747
687.3118, 291.4756
687.7939, 291.8276
688.2761, 291.2718
688.7582, 289.3560
689.2403, 287.4805
689.7224, 285.6768
690.2045, 284.0536
690.6866, 282.8320
691.1688, 282.0071
691.6509, 281.0566
692.1330, 279.7910
692.6151, 278.4164
693.0972, 277.2780
693.5793, 276.3092
694.0615, 275.3427
694.5436, 274.1229
695.0257, 273.0167
695.5078, 272.3599
695.9899, 272.0406
696.4720, 271.5879
696.9542, 270.8280
697.4363, 269.9712
697.9184, 268.9403
698.4005, 267.7735
698.8826, 267.3715
699.3647, 267.9823
699.8469, 268.6409
700.3290, 268.7404
700.8111, 268.3690
701.2932, 268.1597
701.7753, 268.1132
702.2574, 268.1767
702.7396, 268.2993
703.2217, 268.5099
703.7038, 268.9817
704.1859, 269.8021
704.6680, 270.2307
705.1501, 269.7258
705.6323, 268.7740
706.1144, 267.7283
706.5965, 266.2704
707.0786, 265.4584
707.5607, 265.5245
708.0428, 266.0261
708.5250, 266.5651
709.0071, 267.1909
709.4892, 267.4985
709.9713, 267.3984
710.4534, 267.0770
710.9355, 266.6526
711.4177, 266.2148
711.8998, 266.1236
712.3819, 266.7638
712.8640, 267.3262
713.3461, 267.0420
713.8282, 266.1906
714.3104, 265.2852
714.7925, 263.9466
715.2746, 263.1884
715.7567, 263.7010
716.2388, 265.0196
716.7209, 265.8254
717.2031, 266.0170
717.6852, 265.9055
718.1673, 265.4919
718.6494, 264.8813
719.1315, 264.4923
719.6136, 264.3190
720.0958, 264.1007
720.5779, 263.6276
721.0600, 263.0513
721.5421, 262.5679
722.0242, 262.1734
722.5063, 261.8573
722.9885, 260.9742
723.4706, 260.6819
723.9527, 262.2627
724.4348, 266.1928
724.9169, 268.0622
725.3990, 266.3876
725.8812, 264.3342
726.3633, 263.7118
726.8454, 264.6740
727.3275, 265.2425
727.8096, 265.3867
728.2917, 265.2985
728.7739, 264.9321
729.2560, 264.4959
729.7381, 264.4839
730.2202, 264.9558
730.7023, 265.8543
731.1844, 267.7035
731.6666, 269.6747
732.1487, 270.8798
732.6308, 270.7972
733.1129, 270.6548
733.5950, 270.3382
734.0771, 270.2461
734.5593, 270.8339
735.0414, 272.3928
735.5235, 273.6358
736.0056, 274.3693
736.4877, 274.9145
736.9698, 275.8204
737.4520, 276.9902
737.9341, 277.9203
738.4162, 278.4330
738.8983, 278.7997
739.3804, 279.2601
739.8625, 279.7791
740.3447, 280.3029
740.8268, 280.7764
741.3089, 281.2994
741.7910, 281.9216
742.2731, 282.6143
742.7552, 283.3016
743.2374, 283.9345
743.7195, 284.6424
744.2016, 285.3934
744.6837, 286.2726
745.1658, 287.6754
745.6479, 289.5648
746.1301, 291.1069
746.6122, 291.8233
747.0943, 292.1608
747.5764, 292.4533
748.0585, 292.8381
748.5406, 293.7418
749.0228, 295.8560
749.5049, 298.0659
749.9870, 299.6835
750.4691, 300.8319
750.9512, 302.5497
751.4333, 305.4908
751.9155, 307.9101
752.3976, 308.9110
752.8797, 308.8495
753.3618, 310.4362
753.8439, 313.7395
754.3260, 316.5894
754.8082, 316.8670
755.2903, 316.1498
755.7724, 317.2266
756.2545, 319.9489
756.7366, 322.8332
757.2188, 325.3359
757.7009, 327.5341
758.1830, 329.4032
758.6651, 330.9030
759.1472, 332.6369
759.6293, 335.1387
760.1115, 337.1849
760.5936, 337.8481
761.0757, 337.0992
761.5578, 337.8243
762.0399, 340.1827
762.5220, 342.6847
763.0042, 344.1073
763.4863, 344.8795
763.9684, 346.0280
764.4505, 347.6263
764.9326, 348.7519
765.4147, 348.1421
765.8969, 347.3114
766.3790, 347.6057
766.8611, 349.7179
767.3432, 350.7575
767.8253, 349.8901
768.3074, 348.7455
768.7896, 348.5319
769.2717, 349.4169
769.7538, 349.6893
770.2359, 349.2748
770.7180, 348.5279
771.2001, 347.3903
771.6823, 346.2657
772.1644, 346.2055
772.6465, 347.4780
773.1285, 348.5837
773.6107, 348.4787
774.0928, 347.7899
774.5749, 347.0238
775.0570, 346.0217
775.5391, 345.5167
776.0212, 345.8591
776.5034, 346.3447
776.9855, 346.3346
777.4676, 345.7922
777.9497, 345.1362
778.4318, 344.3480
778.9139, 343.7279
779.3961, 343.6726
779.8782, 344.0230
780.3603, 344.4250
780.8424, 344.7545
781.3245, 345.3702
781.8066, 346.6493
782.2888, 348.2427
782.7709, 349.8168
783.2530, 351.2910
783.7351, 352.8256
784.2172, 354.6417
784.6993, 356.2882
785.1815, 356.9491
785.6636, 356.5644
786.1457, 357.2924
786.6278, 359.5390
787.1099, 362.3564
787.5920, 364.7716
788.0742, 366.9497
788.5563, 369.3202
789.0384, 372.2365
789.5205, 374.7049
790.0026, 375.5333
790.4847, 375.9688
790.9669, 377.4756
791.4490, 381.1436
791.9311, 384.1901
792.4132, 386.5262
792.8953, 388.2543
793.3774, 389.3478
793.8596, 389.8289
794.3417, 390.5459
794.8238, 391.6361
795.3059, 392.9695
795.7880, 394.5918
796.2701, 396.3094
796.7523, 397.8895
797.2344, 399.3858
797.7165, 400.4232
798.1986, 400.7863
798.6807, 400.6529
799.1628, 400.2476
799.6450, 399.4350
800.1271, 398.7560
800.6092, 398.4327
801.0913, 397.9230
801.5734, 396.2640
802.0555, 393.6725
802.5377, 391.4229
803.0198, 389.7950
803.5019, 388.3717
803.9840, 386.9793
804.4661, 385.4393
804.9482, 383.5006
805.4304, 380.7894
805.9125, 378.1986
806.3946, 376.1536
806.8767, 374.2013
807.3588, 371.8612
807.8409, 369.0105
808.3231, 366.2646
808.8052, 363.7085
809.2873, 361.1530
809.7694, 358.1537
810.2515, 354.9113
810.7336, 352.1237
811.2158, 350.1070
811.6979, 347.9149
812.1800, 344.4243
812.6621, 340.5807
813.1442, 337.4166
813.6263, 335.8152
814.1085, 333.7842
814.5906, 331.1291
815.0727, 328.1383
815.5548, 325.0292
816.0369, 321.8027
816.5190, 318.8164
817.0012, 316.1376
817.4833, 313.5033
817.9654, 310.2191
818.4475, 306.8690
818.9296, 304.7248
819.4117, 304.4169
819.8939, 303.8407
820.3760, 301.7762
820.8581, 299.0915
821.3402, 296.5508
821.8223, 294.1130
822.3044, 291.9734
822.7866, 290.1015
823.2687, 288.5424
823.7508, 287.4181
824.2329, 286.6848
824.7150, 286.1329
825.1971, 285.7750
825.6793, 285.2740
826.1614, 284.4531
826.6435, 283.2692
827.1256, 281.5020
827.6077, 278.8409
828.0898, 276.7552
828.5720, 276.1498
829.0541, 275.7851
829.5362, 274.8412
830.0183, 273.0905
830.5004, 272.0368
830.9825, 271.8228
831.4647, 271.6174
831.9468, 270.4850
832.4289, 268.8605
832.9110, 267.7661
833.3931, 267.2917
833.8752, 266.8201
834.3574, 266.0643
834.8395, 265.1123
835.3216, 263.9831
835.8037, 262.6280
836.2858, 261.3507
836.7679, 259.9598
837.2501, 258.9727
837.7322, 259.0342
838.2143, 259.9657
838.6964, 259.6431
839.1785, 258.0632
839.6606, 256.1186
840.1428, 253.9063
840.6249, 252.0084
841.1070, 251.2721
841.5891, 251.6546
842.0712, 251.7817
842.5533, 250.8318
843.0355, 249.9080
843.5176, 249.4924
843.9997, 249.5371
844.4818, 249.4213
844.9639, 249.1284
845.4460, 248.7651
845.9282, 248.4778
846.4103, 248.1155
846.8924, 247.0817
847.3745, 245.5919
847.8566, 244.6106
848.3387, 245.4659
848.8209, 246.1868
849.3030, 245.5066
849.7851, 243.6820
850.2672, 242.2951
850.7493, 241.4337
851.2314, 240.9827
851.7136, 241.0942
852.1957, 241.4606
852.6778, 241.0756
853.1599, 240.0560
853.6420, 239.1898
854.1241, 238.7837
854.6063, 238.7173
855.0884, 239.1761
855.5705, 239.8610
856.0526, 240.1586
856.5347, 239.7236
857.0168, 239.0644
857.4990, 238.0191
857.9811, 236.9543
858.4632, 236.7643
858.9453, 237.5296
859.4274, 237.7201
859.9095, 236.8830
860.3917, 235.6975
860.8738, 234.8354
861.3559, 234.3286
861.8380, 234.3249
862.3201, 235.4163
862.8022, 235.9160
863.2844, 234.4933
863.7665, 232.5191
864.2486, 231.5930
864.7307, 232.0940
865.2128, 232.5078
865.6949, 232.7599
866.1771, 232.9353
866.6592, 233.2982
867.1413, 233.6603
867.6234, 233.3923
868.1055, 232.3506
868.5876, 231.2281
869.0698, 230.1340
869.5519, 229.4024
870.0340, 229.4916
870.5161, 230.9727
870.9982, 231.2033
871.4803, 229.3864
871.9625, 227.6913
872.4446, 227.9570
872.9267, 229.8927
873.4088, 230.3425
873.8909, 229.3326
874.3730, 228.4950
874.8552, 229.3809
875.3373, 230.7234
875.8194, 231.3715
876.3015, 231.2868
876.7836, 231.1424
877.2657, 231.1862
877.7479, 231.0753
878.2300, 230.5732
878.7121, 229.8157
879.1942, 229.7425
879.6763, 230.3760
880.1584, 230.9070
880.6406, 230.9325
881.1227, 230.6548
881.6048, 230.1489
882.0869, 229.5537
882.5690, 229.2418
883.0511, 229.7561
883.5333, 230.1106
884.0154, 229.7291
884.4975, 229.0862
884.9796, 229.2659
885.4617, 230.5088
885.9438, 231.0677
886.4260, 230.3602
886.9081, 229.4138
887.3902, 230.0712
887.8723, 231.6088
888.3544, 232.3694
888.8365, 231.4719
889.3187, 230.7084
889.8008, 231.0635
890.2829, 231.8465
890.7650, 232.3314
891.2471, 232.4421
891.7292, 232.3616
892.2114, 231.9868
892.6935, 231.7403
893.1756, 232.1584
893.6577, 233.0313
894.1398, 233.8565
894.6219, 234.5819
895.1041, 235.0694
895.5862, 235.3197
896.0683, 235.2237
896.5504, 234.3620
897.0325, 232.5277
897.5146, 232.2924
897.9967, 234.3786
898.4788, 236.4720
898.9609, 237.4613
899.4431, 237.4932
899.9252, 236.7478
900.4073, 235.4265
900.8894, 234.8221
901.3715, 236.3455
901.8536, 238.2749
902.3358, 239.4815
902.8179, 240.0851
903.3000, 240.6202
903.7821, 241.3065
904.2642, 241.5873
904.7463, 241.0812
905.2285, 240.3851
905.7106, 241.0263
906.1927, 242.7771
906.6748, 244.0934
907.1569, 244.2621
907.6390, 244.4651
908.1212, 246.2215
908.6033, 248.4446
909.0854, 249.6655
909.5675, 248.4172
910.0496, 248.0236
910.5317, 248.9646
911.0139, 250.2607
911.4960, 250.8872
911.9781, 250.9137
912.4602, 251.1282
912.9423, 251.5836
913.4244, 252.3488
913.9066, 253.8600
914.3887, 255.4807
914.8708, 256.3896
915.3529, 256.4362
915.8350, 257.0814
916.3171, 258.9922
916.7993, 260.9041
917.2814, 262.2223
917.7635, 263.0707
918.2456, 264.3830
918.7277, 266.1173
919.2098, 267.7033
919.6920, 268.7141
920.1741, 269.5096
920.6562, 270.3354
921.1383, 271.2297
921.6204, 272.2988
922.1025, 273.3041
922.5847, 274.8960
923.0668, 277.4633
923.5489, 280.4178
924.0310, 282.6140
924.5131, 284.0964
924.9952, 285.6135
925.4774, 287.3017
925.9595, 289.2080
926.4416, 291.5152
926.9237, 294.0257
927.4058, 296.4738
927.8879, 298.5874
928.3701, 301.2852
928.8522, 305.0380
929.3343, 308.8932
929.8164, 312.0386
930.2985, 314.4785
930.7806, 317.3908
931.2628, 320.7961
931.7449, 324.4857
932.2270, 328.6810
932.7091, 332.8558
933.1912, 336.0962
933.6733, 338.5692
934.1555, 342.3857
934.6376, 349.1651
935.1197, 355.8839
935.6018, 361.7373
936.0839, 367.0493
936.5660, 373.0756
937.0482, 379.7747
937.5303, 386.4908
938.0124, 393.1645
938.4945, 399.6865
938.9766, 405.4398
939.4587, 411.2254
939.9409, 418.2599
940.4230, 428.4169
940.9051, 437.6743
941.3872, 445.3463
941.8693, 452.6552
942.3514, 460.6164
942.8336, 469.1855
943.3157, 478.5470
943.7978, 488.7089
944.2799, 498.8044
944.7620, 507.9348
945.2441, 516.7004
945.7263, 525.3937
946.2084, 534.0385
946.6905, 542.9504
947.1726, 552.5180
947.6547, 561.6160
948.1368, 569.5149
948.6190, 578.3364
949.1011, 584.9483
949.5832, 594.2187
950.0653, 602.7570
950.5474, 609.6764
951.0295, 615.7009
951.5117, 621.2572
951.9938, 626.3086
952.4759, 630.6600
952.9580, 634.2412
953.4401, 637.2958
953.9222, 639.5388
954.4044, 641.8613
954.8865, 645.9133
955.3686, 651.0404
955.8507, 654.5192
956.3328, 655.8926
956.8149, 657.5879
957.2971, 660.9418
957.7792, 665.4459
958.2613, 670.7500
958.7434, 676.7596
959.2255, 683.9852
959.7076, 692.6292
960.1898, 701.9106
960.6719, 711.4492
961.1540, 721.4218
961.6361, 732.5930
962.1182, 744.7960
962.6003, 757.4993
963.0825, 769.7395
963.5646, 783.0268
964.0467, 798.2301
964.5288, 814.8855
965.0109, 832.4156
965.4930, 850.9033
965.9752, 870.0945
966.4573, 889.9714
966.9394, 911.1042
967.4215, 934.1664
967.9036, 958.5634
968.3857, 982.6170
968.8679, 1006.211
969.3500, 1030.225
969.8321, 1054.703
970.3142, 1080.358
970.7963, 1108.486
971.2784, 1138.425
971.7606, 1166.459
972.2427, 1192.352
972.7248, 1216.901
973.2069, 1239.722
973.6890, 1261.778
974.1711, 1284.190
974.6533, 1306.293
975.1354, 1327.406
975.6175, 1347.131
976.0996, 1365.538
976.5817, 1381.929
977.0638, 1397.621
977.5460, 1414.238
978.0281, 1431.886
978.5102, 1450.036
978.9923, 1468.266
979.4744, 1488.318
979.9565, 1511.957
980.4387, 1537.594
980.9208, 1563.461
981.4029, 1589.005
981.8850, 1618.051
982.3671, 1650.499
982.8492, 1685.790
983.3314, 1723.991
983.8135, 1764.615
984.2956, 1806.758
984.7777, 1850.109
985.2598, 1893.400
985.7419, 1937.958
986.2241, 1980.154
986.7062, 2020.426
987.1883, 2056.101
987.6704, 2084.269
988.1525, 2105.937
988.6346, 2116.627
989.1168, 2115.848
989.5989, 2104.526
990.0810, 2083.551
990.5631, 2052.972
991.0452, 2011.513
991.5273, 1959.026
992.0095, 1900.771
992.4916, 1835.144
992.9737, 1767.443
993.4558, 1699.559
993.9379, 1631.721
994.4200, 1568.438
994.9022, 1509.440
995.3843, 1454.692
995.8664, 1404.240
996.3485, 1357.769
996.8306, 1314.757
997.3127, 1276.153
997.7949, 1242.940
998.2770, 1217.896
998.7591, 1195.402
999.2412, 1174.523
999.7233, 1157.254
1000.205, 1146.478
1000.688, 1141.248
1001.170, 1137.274
1001.652, 1134.314
1002.134, 1133.390
1002.616, 1134.051
1003.098, 1138.011
1003.580, 1147.236
1004.062, 1161.312
1004.544, 1175.543
1005.027, 1189.598
1005.509, 1205.671
1005.991, 1224.401
1006.473, 1245.680
1006.955, 1270.001
1007.437, 1296.849
1007.919, 1325.942
1008.401, 1356.770
1008.884, 1389.504
1009.366, 1422.880
1009.848, 1459.053
1010.330, 1500.391
1010.812, 1546.883
1011.294, 1592.983
1011.776, 1639.243
1012.258, 1687.455
1012.740, 1740.297
1013.223, 1795.235
1013.705, 1849.378
1014.187, 1903.110
1014.669, 1957.824
1015.151, 2016.664
1015.633, 2072.708
1016.115, 2125.008
1016.597, 2173.116
1017.080, 2217.440
1017.562, 2256.883
1018.044, 2286.481
1018.526, 2305.169
1019.008, 2316.296
1019.490, 2321.926
1019.972, 2320.156
1020.454, 2309.384
1020.936, 2290.054
1021.419, 2265.021
1021.901, 2234.318
1022.383, 2197.602
1022.865, 2152.677
1023.347, 2104.157
1023.829, 2057.560
1024.311, 2011.621
1024.793, 1963.887
1025.276, 1911.675
1025.758, 1860.248
1026.240, 1808.914
1026.722, 1759.816
1027.204, 1716.517
1027.686, 1678.009
1028.168, 1637.858
1028.650, 1596.212
1029.132, 1557.724
1029.615, 1527.349
1030.097, 1499.511
1030.579, 1470.447
1031.061, 1440.857
1031.543, 1414.480
1032.025, 1391.959
1032.507, 1369.821
1032.989, 1347.359
1033.471, 1325.120
1033.954, 1303.199
1034.436, 1282.563
1034.918, 1264.386
1035.400, 1249.558
1035.882, 1234.771
1036.364, 1217.968
1036.846, 1202.357
1037.328, 1190.039
1037.811, 1180.463
1038.293, 1169.395
1038.775, 1156.857
1039.257, 1144.126
1039.739, 1131.161
1040.221, 1118.839
1040.703, 1108.035
1041.185, 1098.073
1041.667, 1087.533
1042.150, 1076.314
1042.632, 1064.744
1043.114, 1052.908
1043.596, 1040.711
1044.078, 1027.618
1044.560, 1014.182
1045.042, 1000.568
1045.524, 987.0743
1046.006, 975.2901
1046.489, 967.4758
1046.971, 959.2872
1047.453, 949.0674
1047.935, 937.7786
1048.417, 927.5748
1048.899, 918.4984
1049.381, 911.0363
1049.863, 905.6364
1050.346, 900.6326
1050.828, 894.1554
1051.310, 887.8822
1051.792, 883.5037
1052.274, 881.0508
1052.756, 880.6802
1053.238, 882.8493
1053.720, 884.9659
1054.203, 884.7614
1054.685, 884.0431
1055.167, 885.8351
1055.649, 889.6492
1056.131, 894.2093
1056.613, 899.4734
1057.095, 904.8145
1057.577, 909.8862
1058.059, 915.2953
1058.542, 922.1261
1059.024, 930.0576
1059.506, 937.2249
1059.988, 943.4168
1060.470, 948.2645
1060.952, 950.7803
1061.434, 952.5466
1061.916, 954.4885
1062.398, 956.5261
1062.881, 958.2686
1063.363, 959.8345
1063.845, 960.2162
1064.327, 958.8974
1064.809, 957.0867
1065.291, 956.7870
1065.773, 956.6747
1066.255, 954.7482
1066.738, 950.1569
1067.220, 945.8904
1067.702, 942.1396
1068.184, 939.0047
1068.666, 936.7985
1069.148, 935.1669
1069.630, 932.9415
1070.112, 930.2877
1070.594, 927.7175
1071.077, 925.2500
1071.559, 923.2518
1072.041, 922.6486
1072.523, 922.0505
1073.005, 919.7411
1073.487, 915.5100
1073.969, 912.6337
1074.451, 911.2610
1074.933, 910.3088
1075.416, 910.7765
1075.898, 909.7814
1076.380, 903.4020
1076.862, 893.0459
1077.344, 885.3357
1077.826, 881.5765
1078.308, 877.9213
1078.790, 873.9700
1079.273, 869.4431
1079.755, 864.0703
1080.237, 857.9241
1080.719, 850.6847
1081.201, 842.2313
1081.683, 834.6189
1082.165, 829.9608
1082.647, 824.4143
1083.129, 816.2714
1083.612, 806.4144
1084.094, 797.8542
1084.576, 790.2416
1085.058, 781.3741
1085.540, 769.8372
1086.022, 758.6053
1086.504, 750.0374
1086.986, 741.9550
1087.469, 732.0497
1087.951, 719.9760
1088.433, 709.6466
1088.915, 701.2031
1089.397, 692.4335
1089.879, 681.2885
1090.361, 669.8243
1090.843, 660.7321
1091.325, 652.9130
1091.807, 643.9443
1092.290, 632.6912
1092.772, 621.5926
1093.254, 610.4041
1093.736, 600.3249
1094.218, 593.2836
1094.700, 587.8122
1095.182, 580.5398
1095.664, 571.5961
1096.147, 563.5773
1096.629, 558.4449
1097.111, 553.2141
1097.593, 546.9210
1098.075, 540.2308
1098.557, 534.2195
1099.039, 528.9397
1099.521, 524.9939
1100.004, 522.6763
1100.486, 520.1089
1100.968, 515.4421
1101.450, 510.6390
1101.932, 506.8297
1102.414, 504.0327
1102.896, 502.8515
1103.378, 503.3528
1103.860, 504.1692
1104.343, 504.9763
1104.825, 505.5754
1105.307, 505.0721
1105.789, 504.6125
1106.271, 505.6738
1106.753, 508.8349
1107.235, 512.3206
1107.717, 516.1417
1108.199, 520.3870
1108.682, 525.1711
1109.164, 530.3547
1109.646, 535.4633
1110.128, 540.8142
1110.610, 547.3197
1111.092, 555.9477
1111.574, 564.6933
1112.056, 572.8007
1112.539, 581.5484
1113.021, 592.7840
1113.503, 605.6473
1113.985, 617.6989
1114.467, 628.7079
1114.949, 638.1844
1115.431, 646.3008
1115.913, 652.2792
1116.396, 655.9404
1116.878, 657.3772
1117.360, 656.7366
1117.842, 653.9761
1118.324, 648.1078
1118.806, 638.9451
1119.288, 627.9498
1119.770, 615.7567
1120.252, 602.5487
1120.734, 587.5090
1121.217, 571.3743
1121.699, 557.9139
1122.181, 547.4506
1122.663, 536.9809
1123.145, 525.7974
1123.627, 514.7670
1124.109, 504.7126
1124.591, 495.4833
1125.074, 486.9826
1125.556, 479.2967
1126.038, 471.9639
1126.520, 465.0580
1127.002, 458.2002
1127.484, 451.0953
1127.966, 444.0448
1128.448, 437.3565
1128.931, 431.1646
1129.413, 425.7676
1129.895, 421.7544
1130.377, 417.4270
1130.859, 412.4016
1131.341, 407.4048
1131.823, 402.7301
1132.305, 398.4921
1132.787, 395.5102
1133.270, 393.3722
1133.752, 390.5970
1134.234, 385.6938
1134.716, 381.1450
1135.198, 377.4618
1135.680, 374.4892
1136.162, 372.3963
1136.644, 371.0474
1137.126, 368.8556
1137.609, 365.9028
1138.091, 363.4670
1138.573, 362.9115
1139.055, 362.3749
1139.537, 360.3807
1140.019, 360.2329
1140.501, 359.6677
1140.983, 358.8908
1141.466, 359.3325
1141.948, 358.5830
1142.430, 358.4503
1142.912, 360.6847
1143.394, 363.8106
1143.876, 367.5314
1144.358, 371.2222
1144.840, 372.2480
1145.323, 370.1278
1145.805, 368.9160
1146.287, 369.5557
1146.769, 370.4809
1147.251, 370.2351
1147.733, 369.2820
1148.215, 368.3969
1148.697, 367.6108
1149.179, 364.6725
1149.661, 359.0769
1150.144, 353.1401
1150.626, 347.5166
1151.108, 342.0571
1151.590, 336.8806
1152.072, 331.6839
1152.554, 325.6699
1153.036, 318.1451
1153.518, 312.6147
1154.001, 309.9362
1154.483, 307.5705
1154.965, 304.7100
1155.447, 301.0137
1155.929, 295.1434
1156.411, 288.1356
1156.893, 282.1980
1157.375, 278.2207
1157.858, 274.7916
1158.340, 271.8321
1158.822, 269.0674
1159.304, 266.2493
1159.786, 263.5263
1160.268, 261.4185
1160.750, 259.7570
1161.232, 257.9910
1161.714, 255.3653
1162.197, 253.4287
1162.679, 252.9732
1163.161, 252.6666
1163.643, 251.2287
1164.125, 248.9187
1164.607, 247.2489
1165.089, 246.1676
1165.571, 245.1477
1166.053, 244.1420
1166.536, 242.8572
1167.018, 240.9683
1167.500, 238.9638
1167.982, 237.3898
1168.464, 236.2078
1168.946, 235.1357
1169.428, 234.1384
1169.910, 232.8205
1170.393, 230.4075
1170.875, 228.2130
1171.357, 227.1862
1171.839, 226.6634
1172.321, 225.6141
1172.803, 224.0631
1173.285, 222.5068
1173.767, 221.0083
1174.250, 219.4029
1174.732, 217.1490
1175.214, 215.1357
1175.696, 214.2146
1176.178, 213.9200
1176.660, 212.9528
1177.142, 211.3004
1177.624, 210.0188
1178.106, 209.3492
1178.589, 208.7572
1179.071, 207.9315
1179.553, 206.9054
1180.035, 205.5530
1180.517, 203.9957
1180.999, 202.7863
1181.481, 201.9524
1181.963, 201.0526
1182.445, 199.8889
1182.928, 198.9622
1183.410, 199.1452
1183.892, 199.5006
1184.374, 199.0803
1184.856, 197.8800
1185.338, 196.6584
1185.820, 195.3747
1186.302, 194.5530
1186.785, 194.5509
1187.267, 194.5429
1187.749, 193.3954
1188.231, 191.9226
1188.713, 191.1772
1189.195, 191.3060
1189.677, 190.8537
1190.159, 189.7278
1190.641, 188.7464
1191.124, 188.3699
1191.606, 188.0210
1192.088, 186.7003
1192.570, 185.1631
1193.052, 184.4621
1193.534, 184.8973
1194.016, 185.1105
1194.498, 185.0793
1194.980, 184.9870
1195.463, 185.0379
1195.945, 184.9311
1196.427, 184.0769
1196.909, 182.9138
1197.391, 182.1316
1197.873, 181.9638
1198.355, 181.6935
1198.837, 181.3434
1199.320, 180.7488
1199.802, 179.4038
1200.284, 178.1748
1200.766, 178.3253
1201.248, 179.2826
1201.730, 180.0658
1202.212, 180.7786
1202.694, 180.5632
1203.177, 179.2510
1203.659, 177.8387
1204.141, 176.8121
1204.623, 176.2536
1205.105, 176.6436
1205.587, 177.5213
1206.069, 177.8474
1206.551, 177.3753
1207.033, 176.5803
1207.516, 175.3581
1207.998, 174.4057
1208.480, 174.5223
1208.962, 175.0413
1209.444, 175.2321
1209.926, 175.1531
1210.408, 174.9631
1210.890, 174.5452
1211.372, 174.5460
1211.854, 175.1440
1212.337, 175.3857
1212.819, 173.8865
1213.301, 172.0136
1213.783, 171.4508
1214.265, 171.8829
1214.747, 172.0754
1215.229, 171.9183
1215.711, 171.4693
1216.194, 170.6494
1216.676, 170.0580
1217.158, 170.6356
1217.640, 171.4540
1218.122, 171.5156
1218.604, 170.9087
1219.086, 170.1040
1219.568, 169.0260
1220.051, 168.1864
1220.533, 167.6370
1221.015, 167.3706
1221.497, 167.6135
1221.979, 167.9483
1222.461, 167.9651
1222.943, 167.6857
1223.425, 167.3181
1223.907, 166.8054
1224.390, 166.5809
1224.872, 166.7705
1225.354, 166.7707
1225.836, 165.5634
1226.318, 164.2562
1226.800, 164.0421
1227.282, 164.7357
1227.764, 164.9965
1228.246, 164.7140
1228.729, 164.6831
1229.211, 165.0744
1229.693, 165.3404
1230.175, 164.8126
1230.657, 164.0704
1231.139, 163.6328
1231.621, 163.4406
1232.103, 163.1044
1232.586, 162.6244
1233.068, 161.8847
1233.550, 160.7817
1234.032, 160.1355
1234.514, 161.2829
1234.996, 162.6535
1235.478, 162.9479
1235.960, 162.3702
1236.443, 161.6852
1236.925, 160.8798
1237.407, 160.3066
1237.889, 160.0569
1238.371, 159.6881
1238.853, 158.5732
1239.335, 157.4593
1239.817, 156.7623
1240.299, 156.5245
1240.781, 157.3089
1241.264, 158.9936
1241.746, 159.3065
1242.228, 157.7089
1242.710, 156.0249
1243.192, 155.3926
1243.674, 155.2427
1244.156, 155.2839
1244.638, 155.5010
1245.121, 156.0859
1245.603, 156.9147
1246.085, 157.0137
1246.567, 156.1234
1247.049, 155.3405
1247.531, 155.6171
1248.013, 155.7376
1248.495, 154.8997
1248.978, 155.3235
1249.460, 154.0113
1249.942, 155.3583
1250.424, 156.1440
1250.906, 156.0598
1251.388, 155.8152
1251.870, 155.7735
1252.352, 155.5491
1252.834, 154.9271
1253.317, 154.1492
1253.799, 153.6958
1254.281, 153.5269
1254.763, 153.5788
1255.245, 153.8531
1255.727, 154.0816
1256.209, 154.2442
1256.691, 154.2391
1257.173, 154.0206
1257.656, 153.6409
1258.138, 152.9760
1258.620, 152.3063
1259.102, 152.3026
1259.584, 153.1055
1260.066, 153.4934
1260.548, 153.2066
1261.030, 152.6753
1261.513, 151.8731
1261.995, 151.2534
1262.477, 151.7594
1262.959, 152.7112
1263.441, 153.1425
1263.923, 152.9268
1264.405, 152.7760
1264.887, 152.7690
1265.370, 152.6854
1265.852, 152.4659
1266.334, 152.1513
1266.816, 151.5634
1267.298, 151.0674
1267.780, 151.1741
1268.262, 151.8676
1268.744, 152.3287
1269.226, 152.5782
1269.708, 152.2994
1270.191, 151.3029
1270.673, 150.3563
1271.155, 150.1899
1271.637, 150.3532
1272.119, 150.5709
1272.601, 150.7872
1273.083, 150.8122
1273.565, 150.6599
1274.048, 150.7523
1274.530, 151.2271
1275.012, 151.5027
1275.494, 150.7667
1275.976, 150.1588
1276.458, 150.4787
1276.940, 151.2621
1277.422, 151.2304
1277.905, 150.5696
1278.387, 150.1926
1278.869, 150.2573
1279.351, 150.6153
1279.833, 151.6545
1280.315, 152.3639
1280.797, 152.3212
1281.279, 151.8763
1281.761, 151.6419
1282.244, 151.5368
1282.726, 151.2953
1283.208, 150.8906
1283.690, 150.7238
1284.172, 151.3457
1284.654, 151.3717
1285.136, 150.2830
1285.618, 149.0005
1286.100, 148.7484
1286.583, 149.1853
1287.065, 150.0558
1287.547, 151.2279
1288.029, 151.5518
1288.511, 150.6330
1288.993, 149.9455
1289.475, 149.7458
1289.957, 149.9146
1290.440, 150.7451
1290.922, 151.5378
1291.404, 151.4163
1291.886, 150.5660
1292.368, 150.1689
1292.850, 150.2610
1293.332, 150.4976
1293.814, 150.8389
1294.297, 151.1677
1294.779, 151.5674
1295.261, 151.7487
1295.743, 151.2842
1296.225, 150.5569
1296.707, 150.2456
1297.189, 150.3213
1297.671, 150.6239
1298.153, 151.1154
1298.635, 151.3583
1299.118, 150.9458
1299.600, 150.4017
1300.082, 149.7492
1300.564, 149.2486
1301.046, 149.4654
1301.528, 150.1201
1302.010, 150.2540
1302.492, 149.9186
1302.975, 149.8732
1303.457, 151.3029
1303.939, 151.4639
1304.421, 149.6810
1304.903, 147.7119
1305.385, 147.0329
##END=



