##NAMES=Brenkite
##RRUFFID=R060247
##IDEAL CHEMISTRY=Ca_2_(CO_3_)F_2_
##LOCALITY=Schellkopf, Brenk, Eifel, Germany
##OWNER=RRUFF
##SOURCE=Michael Scott
##DESCRIPTION=Colorless prismatic crystals in radial aggregates
##STATUS=The identification of this mineral is confirmed by single-crystal X-ray diffraction and chemical analysis.
##URL=rruff.info/R060247
##MEASURED CHEMISTRY=Ca_2.00_(CO_3_)F_2.00_ ; C not measured but estimated by difference and stoichiometry
91.00781, 9.579600
91.48993, 9.558962
91.97205, 9.551005
92.45416, 9.570962
92.93628, 9.602967
93.41840, 9.611309
93.90051, 9.587446
94.38263, 9.543135
94.86475, 9.452704
95.34686, 9.317547
95.82898, 9.269928
96.31110, 9.463925
96.79321, 9.877072
97.27533, 10.26243
97.75745, 10.53313
98.23956, 10.73409
98.72168, 11.03108
99.20380, 11.41523
99.68591, 11.91302
100.1680, 12.56182
100.6501, 13.36522
101.1323, 14.27197
101.6144, 15.23744
102.0965, 16.24759
102.5786, 17.44592
103.0607, 18.73415
103.5428, 20.30382
104.0250, 22.51846
104.5071, 25.45443
104.9892, 28.87912
105.4713, 32.73767
105.9534, 37.25263
106.4355, 41.67459
106.9177, 45.74071
107.3998, 49.69809
107.8819, 54.49321
108.3640, 60.65394
108.8461, 67.17253
109.3282, 73.67589
109.8104, 80.17890
110.2925, 86.50355
110.7746, 92.60555
111.2567, 98.46282
111.7388, 104.1539
112.2209, 108.8698
112.7031, 113.7932
113.1852, 119.8013
113.6673, 127.7609
114.1494, 136.1010
114.6315, 144.4053
115.1136, 152.7193
115.5958, 161.3870
116.0779, 170.3569
116.5600, 179.7939
117.0421, 189.8391
117.5242, 200.0680
118.0063, 211.3806
118.4885, 224.5109
118.9706, 239.6762
119.4527, 255.7880
119.9348, 271.7718
120.4169, 288.2188
120.8990, 306.5017
121.3812, 327.7530
121.8633, 350.8726
122.3454, 374.7876
122.8275, 399.8116
123.3096, 424.8131
123.7917, 450.1328
124.2739, 475.0536
124.7560, 496.9451
125.2381, 515.0059
125.7202, 528.8378
126.2023, 537.4377
126.6844, 540.2309
127.1666, 538.3571
127.6487, 533.0383
128.1308, 524.2543
128.6129, 512.4552
129.0950, 497.2808
129.5771, 479.1465
130.0593, 459.3017
130.5414, 437.4301
131.0235, 414.5257
131.5056, 392.7973
131.9877, 371.2187
132.4698, 349.4676
132.9520, 329.0263
133.4341, 309.8709
133.9162, 292.3185
134.3983, 276.4174
134.8804, 262.2278
135.3625, 250.1521
135.8447, 240.1933
136.3268, 232.0641
136.8089, 225.4065
137.2910, 220.2723
137.7731, 215.9866
138.2552, 212.4431
138.7374, 209.7801
139.2195, 206.7666
139.7016, 203.3042
140.1837, 199.5406
140.6658, 195.7338
141.1479, 191.6111
141.6301, 187.9513
142.1122, 185.1263
142.5943, 183.3558
143.0764, 181.7167
143.5585, 179.9976
144.0406, 178.3826
144.5228, 177.4846
145.0049, 177.3718
145.4870, 177.8757
145.9691, 178.9610
146.4512, 181.2153
146.9333, 183.1066
147.4155, 184.3636
147.8976, 185.0935
148.3797, 186.1570
148.8618, 187.2941
149.3439, 188.9547
149.8260, 191.4173
150.3082, 195.7880
150.7903, 199.7511
151.2724, 202.8292
151.7545, 204.9677
152.2366, 207.8767
152.7188, 212.1646
153.2009, 216.9685
153.6830, 221.5488
154.1651, 225.5075
154.6472, 229.5699
155.1293, 233.8627
155.6115, 238.4395
156.0936, 242.9876
156.5757, 247.0434
157.0578, 251.1926
157.5399, 256.0237
158.0220, 261.9211
158.5042, 268.3358
158.9863, 275.2943
159.4684, 283.0719
159.9505, 290.1341
160.4326, 295.2593
160.9147, 299.4673
161.3969, 304.2709
161.8790, 311.0505
162.3611, 317.9488
162.8432, 324.0473
163.3253, 329.1354
163.8074, 333.5085
164.2896, 337.2808
164.7717, 340.4243
165.2538, 342.8825
165.7359, 344.3947
166.2180, 345.3400
166.7001, 346.0923
167.1823, 346.9525
167.6644, 347.0674
168.1465, 345.3813
168.6286, 342.4138
169.1107, 339.6290
169.5928, 337.6732
170.0750, 336.3770
170.5571, 335.6205
171.0392, 335.6699
171.5213, 335.7909
172.0034, 334.7777
172.4855, 333.0473
172.9677, 332.4503
173.4498, 334.8493
173.9319, 338.9374
174.4140, 342.8557
174.8961, 346.0094
175.3782, 348.9337
175.8604, 352.7647
176.3425, 357.3262
176.8246, 360.9938
177.3067, 363.2815
177.7888, 363.8185
178.2709, 361.8232
178.7531, 356.8295
179.2352, 349.3634
179.7173, 339.4783
180.1994, 327.2188
180.6815, 314.5751
181.1636, 303.0156
181.6458, 292.4442
182.1279, 282.9742
182.6100, 274.5874
183.0921, 267.2666
183.5742, 260.6135
184.0563, 254.7135
184.5385, 249.9707
185.0206, 247.3534
185.5027, 246.5081
185.9848, 245.8669
186.4669, 244.7036
186.9490, 243.3480
187.4312, 242.7470
187.9133, 242.9305
188.3954, 243.7156
188.8775, 245.1568
189.3596, 247.1701
189.8417, 249.0287
190.3239, 250.3422
190.8060, 251.2402
191.2881, 252.3985
191.7702, 253.8929
192.2523, 255.3165
192.7344, 256.2523
193.2166, 256.6973
193.6987, 256.5935
194.1808, 255.9773
194.6629, 254.8311
195.1450, 252.8299
195.6271, 249.8588
196.1093, 246.3315
196.5914, 242.8264
197.0735, 239.3578
197.5556, 235.7151
198.0377, 231.8683
198.5198, 227.7839
199.0020, 223.2262
199.4841, 217.9840
199.9662, 212.6194
200.4483, 208.0807
200.9304, 204.5142
201.4125, 200.8754
201.8947, 196.4738
202.3768, 191.1816
202.8589, 186.8089
203.3410, 183.5350
203.8231, 180.9460
204.3052, 178.2846
204.7874, 175.4380
205.2695, 172.9298
205.7516, 171.1496
206.2337, 170.2593
206.7158, 168.9079
207.1979, 166.8231
207.6801, 164.5192
208.1622, 163.1595
208.6443, 162.9606
209.1264, 163.0005
209.6085, 162.7661
210.0906, 162.0568
210.5728, 162.0368
211.0549, 162.8975
211.5370, 164.3305
212.0191, 165.6070
212.5012, 166.6427
212.9833, 167.7580
213.4655, 169.0715
213.9476, 170.5804
214.4297, 172.3453
214.9118, 174.4581
215.3939, 176.7792
215.8760, 179.0052
216.3581, 181.0304
216.8403, 183.1388
217.3224, 185.4090
217.8045, 187.8039
218.2866, 190.5407
218.7687, 193.7061
219.2508, 197.1725
219.7330, 200.5173
220.2151, 203.6857
220.6972, 206.8105
221.1793, 209.8749
221.6614, 212.7919
222.1435, 215.9370
222.6257, 219.3477
223.1078, 222.9838
223.5899, 226.8394
224.0720, 230.9717
224.5541, 235.2547
225.0362, 239.7940
225.5184, 244.8499
226.0005, 249.3962
226.4826, 253.1840
226.9647, 256.5300
227.4468, 260.4840
227.9289, 265.3659
228.4111, 270.3357
228.8932, 275.0567
229.3753, 279.5894
229.8574, 283.7008
230.3395, 287.2100
230.8216, 290.3047
231.3038, 293.6125
231.7859, 297.4442
232.2680, 300.9941
232.7501, 303.8966
233.2322, 306.0176
233.7143, 307.8136
234.1965, 309.5217
234.6786, 310.8624
235.1607, 311.0247
235.6428, 309.5504
236.1249, 307.5541
236.6070, 305.4893
237.0892, 303.3446
237.5713, 301.1994
238.0534, 299.3990
238.5355, 297.5053
239.0176, 294.3352
239.4997, 289.2379
239.9819, 283.7209
240.4640, 278.4733
240.9461, 273.6767
241.4282, 268.6706
241.9103, 263.5575
242.3924, 258.2072
242.8746, 252.2114
243.3567, 245.0237
243.8388, 238.0292
244.3209, 231.8454
244.8030, 227.0031
245.2851, 221.6938
245.7673, 215.6165
246.2494, 209.1980
246.7315, 203.3317
247.2136, 198.0372
247.6957, 193.2652
248.1778, 189.0569
248.6600, 185.6515
249.1421, 182.1507
249.6242, 178.3611
250.1063, 174.5532
250.5884, 171.2933
251.0705, 168.8492
251.5527, 166.4770
252.0348, 163.8455
252.5169, 160.6777
252.9990, 158.2146
253.4811, 156.7129
253.9632, 155.7209
254.4454, 154.4463
254.9275, 152.6871
255.4096, 151.0097
255.8917, 149.5612
256.3738, 148.3249
256.8560, 147.4621
257.3381, 147.0719
257.8202, 146.9647
258.3023, 146.9007
258.7844, 147.0145
259.2665, 146.8774
259.7487, 146.2793
260.2308, 145.1289
260.7129, 144.1507
261.1950, 143.3084
261.6771, 142.6770
262.1592, 142.4131
262.6414, 142.6602
263.1235, 142.9200
263.6056, 143.0701
264.0877, 143.1115
264.5698, 142.9982
265.0519, 142.5764
265.5341, 142.2099
266.0162, 142.4413
266.4983, 143.5614
266.9804, 144.3540
267.4625, 144.3496
267.9446, 143.5690
268.4268, 143.4572
268.9089, 144.2164
269.3910, 145.2892
269.8731, 146.0585
270.3552, 146.3749
270.8373, 146.9917
271.3195, 148.1944
271.8016, 149.9003
272.2837, 151.2314
272.7658, 152.0611
273.2479, 152.8363
273.7300, 154.0165
274.2122, 155.6624
274.6943, 157.3024
275.1764, 158.8098
275.6585, 160.2312
276.1406, 161.8234
276.6227, 163.6185
277.1049, 165.4838
277.5870, 167.4014
278.0691, 169.4048
278.5512, 171.0558
279.0333, 172.1909
279.5154, 172.9752
279.9976, 174.0573
280.4797, 175.5416
280.9618, 176.7956
281.4439, 177.2571
281.9260, 176.9132
282.4081, 176.7421
282.8903, 176.9167
283.3724, 177.2761
283.8545, 177.3920
284.3366, 177.2355
284.8187, 177.1392
285.3008, 177.4597
285.7830, 178.1382
286.2651, 178.3798
286.7472, 178.0034
287.2293, 177.3789
287.7114, 177.1305
288.1935, 177.2566
288.6757, 177.6313
289.1578, 178.3073
289.6399, 179.2132
290.1220, 179.9254
290.6041, 180.3847
291.0862, 180.7751
291.5684, 181.5871
292.0505, 182.7299
292.5326, 183.3367
293.0147, 182.6293
293.4968, 181.0529
293.9789, 180.0117
294.4611, 179.6297
294.9432, 179.3127
295.4253, 178.4964
295.9074, 177.1882
296.3895, 175.4514
296.8716, 173.1839
297.3538, 170.5222
297.8359, 167.6956
298.3180, 164.6775
298.8001, 161.5732
299.2822, 158.0157
299.7643, 154.3649
300.2465, 151.6492
300.7286, 150.8935
301.2107, 150.8258
301.6928, 149.5363
302.1749, 147.1129
302.6570, 144.7196
303.1392, 143.3450
303.6213, 142.6318
304.1034, 142.0188
304.5855, 141.4211
305.0676, 140.7583
305.5497, 139.7740
306.0319, 138.5664
306.5140, 137.5948
306.9961, 137.3575
307.4782, 137.4651
307.9603, 137.4799
308.4424, 137.3524
308.9246, 137.0100
309.4067, 136.2152
309.8888, 135.1279
310.3709, 134.1924
310.8530, 133.8188
311.3351, 133.6159
311.8173, 133.2452
312.2994, 132.6085
312.7815, 131.9258
313.2636, 131.3002
313.7457, 130.7279
314.2278, 130.1977
314.7100, 129.5829
315.1921, 129.1066
315.6742, 129.0185
316.1563, 129.4384
316.6384, 129.6467
317.1205, 129.2402
317.6027, 128.4697
318.0848, 127.6523
318.5669, 126.8574
319.0490, 126.0605
319.5311, 125.2166
320.0132, 124.3183
320.4954, 123.5241
320.9775, 122.8321
321.4596, 122.2890
321.9417, 121.9470
322.4238, 122.0564
322.9059, 122.1169
323.3881, 122.1479
323.8702, 122.1129
324.3523, 121.6284
324.8344, 119.8507
325.3165, 118.1275
325.7986, 117.2387
326.2808, 118.4954
326.7629, 119.1174
327.2450, 118.4469
327.7271, 116.8842
328.2092, 116.0110
328.6913, 116.4892
329.1735, 117.0866
329.6556, 117.3257
330.1377, 117.0245
330.6198, 116.7050
331.1019, 116.3507
331.5840, 115.9820
332.0662, 115.6362
332.5483, 115.3627
333.0304, 115.0259
333.5125, 114.4839
333.9946, 113.5705
334.4767, 113.3424
334.9589, 114.1429
335.4410, 115.2932
335.9231, 115.9329
336.4052, 115.9098
336.8873, 115.7655
337.3694, 115.6447
337.8516, 115.5376
338.3336, 115.1626
338.8158, 114.3802
339.2979, 113.6288
339.7800, 113.3996
340.2621, 113.8080
340.7442, 113.9063
341.2263, 113.3562
341.7085, 112.4721
342.1906, 112.4635
342.6727, 113.4623
343.1548, 114.5115
343.6369, 114.9541
344.1190, 114.8173
344.6012, 114.5469
345.0833, 114.0948
345.5654, 113.7115
346.0475, 113.9884
346.5296, 114.8785
347.0117, 115.6755
347.4939, 115.8979
347.9760, 115.7146
348.4581, 115.6392
348.9402, 115.6908
349.4223, 115.8714
349.9044, 116.3582
350.3866, 117.0190
350.8687, 117.4051
351.3508, 117.1232
351.8329, 116.5537
352.3150, 116.2697
352.7971, 116.2666
353.2793, 116.3916
353.7614, 116.6190
354.2435, 116.8764
354.7256, 117.0513
355.2077, 117.1178
355.6898, 117.0809
356.1720, 116.8846
356.6541, 116.5652
357.1362, 116.2812
357.6183, 116.3045
358.1004, 116.3058
358.5826, 115.9039
359.0647, 114.8013
359.5468, 113.8766
360.0289, 113.8223
360.5110, 114.2652
360.9931, 114.4947
361.4753, 114.1946
361.9574, 113.6410
362.4395, 112.8791
362.9216, 111.8550
363.4037, 111.0175
363.8858, 110.5632
364.3680, 110.3389
364.8501, 110.1832
365.3322, 110.0618
365.8143, 110.0110
366.2964, 110.1336
366.7785, 110.4207
367.2607, 110.4771
367.7428, 110.1586
368.2249, 109.6741
368.7070, 109.1400
369.1891, 108.2979
369.6712, 107.7621
370.1534, 107.6396
370.6355, 107.8343
371.1176, 108.0567
371.5997, 108.3403
372.0818, 108.6059
372.5639, 108.8660
373.0461, 109.2284
373.5282, 109.1859
374.0103, 108.5783
374.4924, 107.7109
374.9745, 107.0327
375.4566, 106.5489
375.9388, 106.2328
376.4209, 106.1439
376.9030, 106.2593
377.3851, 106.1317
377.8672, 105.6481
378.3493, 105.2787
378.8315, 105.6878
379.3136, 106.9033
379.7957, 107.5528
380.2778, 107.2163
380.7599, 106.3400
381.2420, 106.0304
381.7242, 106.2918
382.2063, 106.6013
382.6884, 106.5527
383.1705, 106.2628
383.6526, 106.1576
384.1347, 106.3011
384.6169, 106.5243
385.0990, 106.5917
385.5811, 106.5530
386.0632, 106.5706
386.5453, 106.8726
387.0274, 107.2052
387.5096, 107.1213
387.9917, 106.6234
388.4738, 106.2117
388.9559, 106.5414
389.4380, 107.1225
389.9201, 107.2743
390.4023, 106.3325
390.8844, 105.4210
391.3665, 105.4079
391.8486, 106.0894
392.3307, 106.7173
392.8128, 107.0255
393.2950, 107.0929
393.7771, 106.9300
394.2592, 106.4290
394.7413, 105.9906
395.2234, 105.6829
395.7055, 105.5301
396.1877, 105.5698
396.6698, 106.1209
397.1519, 106.5686
397.6340, 106.6374
398.1161, 106.2524
398.5982, 106.1086
399.0804, 106.4892
399.5625, 106.9861
400.0446, 107.3121
400.5267, 107.4767
401.0088, 107.4488
401.4909, 107.0763
401.9731, 106.4979
402.4552, 106.3304
402.9373, 106.8808
403.4194, 107.3421
403.9015, 107.2153
404.3836, 106.2015
404.8658, 105.8464
405.3479, 106.3607
405.8300, 107.2494
406.3121, 107.8372
406.7942, 108.1163
407.2763, 108.1102
407.7585, 107.6588
408.2406, 106.9050
408.7227, 106.7455
409.2048, 107.2343
409.6869, 107.8496
410.1690, 108.2223
410.6512, 108.3456
411.1333, 108.1344
411.6154, 107.4252
412.0975, 106.6481
412.5796, 106.4641
413.0617, 106.8034
413.5439, 107.3043
414.0260, 108.0410
414.5081, 108.7129
414.9902, 108.7478
415.4723, 108.0469
415.9544, 107.3710
416.4366, 107.4753
416.9187, 107.9777
417.4008, 108.3034
417.8829, 108.0309
418.3650, 107.6984
418.8471, 107.6927
419.3293, 107.9454
419.8114, 108.0422
420.2935, 107.5206
420.7756, 106.9637
421.2577, 106.7970
421.7398, 107.2934
422.2220, 107.7737
422.7041, 108.1637
423.1862, 108.4374
423.6683, 108.5527
424.1504, 108.1944
424.6325, 107.9894
425.1147, 108.2133
425.5968, 108.9578
426.0789, 109.3167
426.5610, 109.0879
427.0431, 108.6582
427.5252, 108.3228
428.0074, 108.0700
428.4895, 107.9508
428.9716, 108.0345
429.4537, 108.2346
429.9358, 108.2409
430.4179, 107.9803
430.9001, 107.7800
431.3822, 107.8346
431.8643, 108.1482
432.3464, 108.4482
432.8285, 108.7488
433.3106, 108.9891
433.7928, 109.0689
434.2749, 109.0031
434.7570, 108.9111
435.2391, 108.7911
435.7212, 108.6982
436.2033, 108.8499
436.6855, 109.2075
437.1676, 109.3887
437.6497, 108.9053
438.1318, 108.1345
438.6139, 107.6216
439.0960, 107.4367
439.5782, 107.5773
440.0603, 108.3823
440.5424, 109.4865
441.0245, 110.1964
441.5066, 109.8124
441.9887, 109.2896
442.4709, 109.2311
442.9530, 109.6366
443.4351, 109.9772
443.9172, 110.0464
444.3993, 109.9739
444.8814, 109.8490
445.3636, 109.6275
445.8457, 109.4324
446.3278, 109.2551
446.8099, 109.1165
447.2920, 109.0650
447.7741, 109.1600
448.2563, 109.2779
448.7384, 109.3783
449.2205, 109.4555
449.7026, 109.5892
450.1847, 109.8474
450.6668, 110.0780
451.1490, 110.1073
451.6311, 109.8590
452.1132, 109.7027
452.5953, 109.6778
453.0774, 109.7884
453.5595, 110.1422
454.0417, 110.7839
454.5238, 111.2528
455.0059, 111.2171
455.4880, 110.7682
455.9701, 110.3687
456.4522, 110.0328
456.9344, 109.7485
457.4165, 109.4341
457.8986, 109.1525
458.3807, 109.1066
458.8628, 109.4811
459.3449, 109.9813
459.8271, 110.2713
460.3092, 110.3908
460.7913, 110.5158
461.2734, 110.7369
461.7555, 111.0153
462.2376, 111.3934
462.7198, 111.9483
463.2019, 112.2425
463.6840, 111.8391
464.1661, 111.1331
464.6482, 110.6023
465.1303, 110.3379
465.6125, 110.2936
466.0946, 110.6418
466.5767, 111.3105
467.0588, 111.6222
467.5409, 111.1436
468.0230, 110.6381
468.5052, 110.4557
468.9873, 110.7787
469.4694, 110.9668
469.9515, 110.9472
470.4336, 110.8578
470.9157, 110.9052
471.3979, 111.1346
471.8800, 111.3483
472.3621, 111.4854
472.8442, 111.5687
473.3263, 111.7335
473.8084, 111.9942
474.2906, 112.2224
474.7727, 112.2959
475.2548, 112.2468
475.7369, 112.2643
476.2190, 112.3985
476.7011, 112.4707
477.1833, 112.0622
477.6654, 111.3947
478.1475, 111.0821
478.6296, 111.7350
479.1117, 112.6187
479.5938, 112.9122
480.0760, 112.7036
480.5581, 112.5729
481.0402, 113.0993
481.5223, 113.6954
482.0044, 113.8356
482.4865, 113.2395
482.9687, 112.6927
483.4508, 112.5222
483.9329, 112.5430
484.4150, 112.4932
484.8971, 112.1522
485.3792, 111.9175
485.8614, 111.9453
486.3435, 111.2763
486.8256, 112.4756
487.3077, 113.1660
487.7898, 113.3750
488.2719, 111.6603
488.7541, 112.4296
489.2362, 112.2035
489.7183, 111.9365
490.2004, 113.0553
490.6825, 111.6205
491.1646, 112.7174
491.6468, 112.8037
492.1289, 113.3525
492.6110, 112.8997
493.0931, 112.7563
493.5752, 113.6148
494.0573, 113.9185
494.5395, 113.3504
495.0216, 113.9286
495.5037, 112.4588
495.9858, 112.7861
496.4679, 113.8889
496.9500, 113.3712
497.4322, 113.9677
497.9143, 114.1398
498.3964, 112.3835
498.8785, 113.9810
499.3606, 114.1281
499.8427, 112.7858
500.3249, 114.2685
500.8070, 113.1316
501.2891, 112.9297
501.7712, 113.4314
502.2533, 113.1996
502.7354, 114.1244
503.2176, 113.9350
503.6997, 113.6460
504.1818, 113.7914
504.6639, 112.7059
505.1460, 113.9041
505.6281, 113.5423
506.1103, 113.9560
506.5924, 114.5454
507.0745, 113.7890
507.5566, 114.4574
508.0387, 112.9162
508.5208, 113.2239
509.0030, 113.3325
509.4851, 114.6227
509.9672, 113.0924
510.4493, 113.3486
510.9314, 114.3657
511.4135, 114.3182
511.8957, 114.7159
512.3778, 113.7960
512.8599, 114.1138
513.3420, 114.0904
513.8242, 115.2460
514.3063, 115.4709
514.7884, 114.5733
515.2705, 113.6805
515.7526, 114.9209
516.2347, 114.1395
516.7169, 114.4488
517.1990, 113.6316
517.6811, 113.7870
518.1632, 113.9271
518.6453, 114.5657
519.1274, 113.6924
519.6096, 114.7804
520.0917, 114.7348
520.5738, 115.0231
521.0559, 115.2742
521.5380, 114.0043
522.0201, 113.9813
522.5023, 115.7425
522.9844, 114.7827
523.4665, 114.3721
523.9486, 114.3519
524.4307, 116.1742
524.9128, 116.2839
525.3950, 114.3465
525.8771, 116.0877
526.3592, 115.5657
526.8413, 115.7163
527.3234, 115.8591
527.8055, 116.1092
528.2877, 116.0993
528.7698, 115.6628
529.2519, 114.9241
529.7340, 114.3970
530.2161, 114.5159
530.6982, 114.8612
531.1804, 115.1073
531.6625, 115.1784
532.1446, 115.3576
532.6267, 115.9447
533.1088, 116.5817
533.5909, 116.9301
534.0731, 116.7744
534.5552, 116.5441
535.0373, 116.2404
535.5194, 115.8918
536.0015, 115.5200
536.4836, 115.0052
536.9658, 114.7224
537.4479, 114.8606
537.9300, 115.3966
538.4121, 115.8494
538.8942, 116.1978
539.3763, 116.5353
539.8585, 117.0775
540.3406, 117.7288
540.8227, 117.8676
541.3048, 117.3236
541.7869, 116.5903
542.2690, 116.2180
542.7512, 116.1361
543.2333, 116.1685
543.7154, 116.2955
544.1975, 116.4629
544.6796, 116.7300
545.1617, 117.0371
545.6439, 117.1070
546.1260, 116.5036
546.6081, 115.8636
547.0902, 115.5509
547.5723, 115.6455
548.0544, 115.9141
548.5366, 116.6381
549.0187, 117.3452
549.5008, 117.6148
549.9829, 117.2044
550.4650, 116.7747
550.9471, 116.2663
551.4293, 115.8322
551.9114, 115.9098
552.3935, 116.6206
552.8756, 117.2575
553.3577, 117.5383
553.8398, 117.5279
554.3220, 117.5057
554.8041, 117.4714
555.2862, 117.4297
555.7683, 117.4214
556.2504, 117.4008
556.7325, 117.2281
557.2147, 116.8451
557.6968, 116.5307
558.1789, 116.4499
558.6610, 116.6059
559.1431, 117.0033
559.6252, 118.1472
560.1074, 119.0126
560.5895, 118.9675
561.0716, 118.2770
561.5537, 117.8324
562.0358, 118.1367
562.5179, 118.3924
563.0001, 118.2647
563.4822, 117.7001
563.9643, 117.3327
564.4464, 117.1799
564.9285, 117.2013
565.4106, 117.4173
565.8928, 117.8763
566.3749, 118.2231
566.8570, 118.4351
567.3391, 118.5267
567.8212, 118.4874
568.3033, 118.3316
568.7855, 118.1728
569.2676, 118.0803
569.7497, 117.9723
570.2318, 117.5589
570.7139, 116.9639
571.1960, 116.6959
571.6782, 117.3678
572.1603, 118.2840
572.6424, 118.8496
573.1245, 118.9962
573.6066, 119.1649
574.0887, 119.8041
574.5709, 120.3694
575.0530, 120.4318
575.5351, 119.3168
576.0172, 118.5979
576.4993, 118.4952
576.9814, 118.7226
577.4636, 118.8114
577.9457, 118.6671
578.4278, 118.6479
578.9099, 118.8944
579.3920, 119.3105
579.8741, 119.5093
580.3563, 119.4745
580.8384, 119.4252
581.3205, 119.5505
581.8026, 119.7594
582.2847, 119.7087
582.7668, 119.3814
583.2490, 119.1536
583.7311, 119.4958
584.2132, 120.0661
584.6953, 120.4268
585.1774, 120.4437
585.6595, 120.3096
586.1416, 119.9808
586.6237, 119.6013
587.1058, 119.3834
587.5880, 119.4138
588.0701, 119.5722
588.5522, 119.9919
589.0343, 120.5629
589.5164, 120.7374
589.9985, 120.2775
590.4807, 119.8180
590.9628, 119.6046
591.4449, 119.6399
591.9270, 119.7880
592.4091, 120.0703
592.8912, 120.3698
593.3734, 120.5636
593.8555, 120.6784
594.3376, 120.8519
594.8197, 121.1202
595.3018, 121.3770
595.7839, 121.4645
596.2661, 121.4612
596.7482, 121.5244
597.2303, 122.0152
597.7124, 122.2839
598.1945, 121.7077
598.6766, 120.5807
599.1588, 119.7582
599.6409, 119.4759
600.1230, 119.5671
600.6051, 120.1978
601.0872, 121.4204
601.5693, 122.0149
602.0515, 121.6588
602.5336, 121.1039
603.0157, 120.7735
603.4978, 120.6805
603.9799, 120.7704
604.4620, 121.1056
604.9442, 121.4410
605.4263, 121.4171
605.9084, 121.0909
606.3905, 120.7674
606.8726, 120.4321
607.3547, 120.2929
607.8369, 120.8150
608.3190, 121.7482
608.8011, 122.4692
609.2832, 122.4601
609.7653, 122.3237
610.2474, 122.4767
610.7296, 122.8771
611.2117, 123.1201
611.6938, 122.9422
612.1759, 122.7085
612.6580, 122.6002
613.1401, 122.6494
613.6223, 122.6958
614.1044, 122.7902
614.5865, 122.8137
615.0686, 122.6162
615.5507, 122.1600
616.0328, 121.8292
616.5150, 121.6700
616.9971, 121.6359
617.4792, 121.6090
617.9613, 121.6309
618.4434, 121.9272
618.9255, 122.8195
619.4077, 123.7219
619.8898, 123.9731
620.3719, 123.6754
620.8540, 123.1567
621.3361, 122.1344
621.8182, 121.3261
622.3004, 121.3264
622.7825, 122.1414
623.2646, 122.6303
623.7467, 122.1706
624.2288, 121.6626
624.7109, 121.5664
625.1931, 122.0195
625.6752, 122.3992
626.1573, 122.6497
626.6394, 122.9183
627.1215, 123.4246
627.6036, 124.1738
628.0858, 124.7425
628.5679, 125.0828
629.0500, 125.1753
629.5321, 124.8165
630.0142, 124.1566
630.4963, 123.6919
630.9785, 123.7940
631.4606, 123.9960
631.9427, 123.7266
632.4248, 123.1929
632.9069, 123.0547
633.3890, 124.2018
633.8712, 125.2503
634.3533, 125.3881
634.8354, 124.4859
635.3175, 124.2311
635.7996, 125.3234
636.2817, 126.3313
636.7639, 126.3515
637.2460, 125.0492
637.7281, 124.5481
638.2102, 125.0600
638.6923, 125.7552
639.1744, 125.5278
639.6566, 124.5844
640.1387, 124.1924
640.6208, 124.6729
641.1029, 125.5100
641.5850, 126.4252
642.0671, 127.2288
642.5493, 127.5602
643.0314, 126.9596
643.5135, 126.1498
643.9956, 125.2527
644.4777, 124.4135
644.9598, 124.0658
645.4420, 124.7831
645.9241, 125.5228
646.4062, 126.0121
646.8883, 126.2546
647.3704, 126.3130
647.8525, 126.1384
648.3347, 125.8864
648.8168, 125.5811
649.2989, 125.2270
649.7810, 125.1515
650.2631, 125.3680
650.7452, 125.7471
651.2274, 126.3555
651.7095, 126.9982
652.1916, 127.2216
652.6737, 126.8466
653.1558, 126.4012
653.6379, 126.2004
654.1201, 126.1819
654.6022, 126.2617
655.0843, 126.5530
655.5664, 126.7795
656.0485, 126.7863
656.5306, 126.6942
657.0128, 126.7863
657.4949, 127.1694
657.9770, 127.5561
658.4591, 127.9817
658.9412, 128.3400
659.4233, 127.9665
659.9055, 126.7695
660.3876, 125.8487
660.8697, 126.0025
661.3518, 126.8339
661.8339, 127.4296
662.3160, 127.7879
662.7982, 127.9742
663.2803, 128.0277
663.7624, 127.9363
664.2445, 127.6002
664.7266, 126.9300
665.2087, 126.5037
665.6909, 126.6966
666.1730, 127.1063
666.6551, 127.4050
667.1372, 127.6167
667.6193, 127.6183
668.1014, 127.2187
668.5836, 126.8037
669.0657, 127.0433
669.5478, 128.0214
670.0299, 128.5933
670.5120, 128.4144
670.9941, 127.9154
671.4763, 127.8434
671.9584, 128.1152
672.4405, 128.4025
672.9226, 128.4998
673.4047, 128.5997
673.8868, 129.0309
674.3690, 129.6405
674.8511, 129.8998
675.3332, 129.1030
675.8153, 128.3781
676.2974, 128.2811
676.7795, 128.8571
677.2617, 129.2562
677.7438, 129.3825
678.2259, 129.4829
678.7080, 129.7451
679.1901, 130.1982
679.6722, 130.2639
680.1544, 129.8927
680.6365, 129.4351
681.1186, 129.1525
681.6007, 129.0394
682.0828, 129.1389
682.5649, 129.5043
683.0471, 129.7937
683.5292, 129.5659
684.0113, 129.1568
684.4934, 128.9789
684.9755, 129.2850
685.4576, 129.6033
685.9398, 129.8561
686.4219, 130.0384
686.9040, 130.1360
687.3861, 130.0326
687.8682, 130.0925
688.3503, 130.4356
688.8325, 130.9331
689.3146, 131.2622
689.7967, 131.4229
690.2788, 131.4756
690.7609, 131.4100
691.2430, 131.2777
691.7252, 131.0920
692.2073, 130.8941
692.6894, 130.8780
693.1715, 131.6199
693.6536, 132.2130
694.1357, 131.6704
694.6179, 130.0302
695.1000, 129.1445
695.5821, 130.1437
696.0642, 131.4019
696.5463, 132.1874
697.0284, 132.4432
697.5106, 132.5643
697.9927, 132.4744
698.4748, 132.4316
698.9569, 132.7316
699.4390, 133.3173
699.9211, 133.6161
700.4033, 133.5448
700.8854, 133.5467
701.3675, 134.2304
701.8496, 135.2371
702.3317, 135.9480
702.8138, 136.0306
703.2960, 136.2881
703.7781, 137.2527
704.2602, 138.5681
704.7423, 139.7978
705.2244, 140.5627
705.7065, 141.6476
706.1887, 143.2170
706.6708, 145.0596
707.1529, 146.8750
707.6350, 148.6673
708.1171, 150.3832
708.5992, 151.9793
709.0814, 153.5262
709.5635, 155.1570
710.0456, 156.8945
710.5277, 158.8059
711.0098, 160.9895
711.4919, 163.3078
711.9741, 165.5775
712.4562, 167.8468
712.9383, 170.3896
713.4204, 173.1221
713.9025, 176.3343
714.3846, 180.1980
714.8668, 184.7178
715.3489, 189.7582
715.8310, 196.1225
716.3131, 201.4870
716.7952, 204.5850
717.2773, 205.5116
717.7595, 205.4445
718.2416, 204.2803
718.7237, 203.9608
719.2058, 206.6954
719.6879, 211.0551
720.1700, 215.9916
720.6522, 221.6894
721.1343, 222.9370
721.6164, 213.7863
722.0985, 200.7932
722.5806, 188.7852
723.0627, 177.9826
723.5449, 169.7324
724.0270, 164.9394
724.5091, 161.7166
724.9912, 158.4195
725.4733, 154.9654
725.9554, 151.6523
726.4376, 148.4538
726.9197, 145.5130
727.4018, 142.9207
727.8839, 140.7757
728.3660, 139.4972
728.8481, 139.4584
729.3303, 139.6380
729.8124, 139.1506
730.2945, 138.3122
730.7766, 137.6104
731.2587, 137.2703
731.7408, 136.9765
732.2230, 136.5291
732.7051, 136.1142
733.1872, 136.1728
733.6693, 136.9797
734.1514, 137.4441
734.6335, 137.2207
735.1157, 136.5816
735.5978, 136.2280
736.0799, 136.1244
736.5620, 135.9620
737.0441, 135.4279
737.5262, 134.8996
738.0084, 134.8679
738.4905, 135.2191
738.9726, 135.5659
739.4547, 135.8075
739.9368, 135.9438
740.4189, 135.9059
740.9011, 135.7122
741.3832, 135.6758
741.8653, 135.8951
742.3474, 136.0909
742.8295, 136.1584
743.3116, 136.1014
743.7938, 135.8672
744.2759, 135.4447
744.7580, 135.1927
745.2401, 135.5590
745.7222, 136.1684
746.2043, 136.4396
746.6865, 136.3602
747.1686, 136.1949
747.6507, 135.9483
748.1328, 135.7788
748.6149, 135.8702
749.0970, 136.3549
749.5792, 136.4758
750.0613, 135.8815
750.5434, 135.3426
751.0255, 135.3824
751.5076, 136.0524
751.9897, 136.7512
752.4719, 137.5147
752.9540, 138.0856
753.4361, 138.1302
753.9182, 137.8397
754.4003, 137.5703
754.8824, 137.3625
755.3646, 137.2508
755.8467, 137.4515
756.3288, 137.6527
756.8109, 137.4983
757.2930, 136.4393
757.7751, 136.0911
758.2573, 137.0237
758.7394, 138.2222
759.2215, 138.6851
759.7036, 138.3014
760.1857, 137.9682
760.6678, 137.7548
761.1500, 137.6579
761.6321, 137.7887
762.1142, 138.0299
762.5963, 138.0590
763.0784, 137.7109
763.5605, 137.3827
764.0427, 137.3605
764.5248, 137.5193
765.0069, 137.7028
765.4890, 137.9201
765.9711, 138.0967
766.4532, 138.1675
766.9354, 138.2401
767.4175, 138.5614
767.8996, 139.2362
768.3817, 139.4228
768.8638, 138.8251
769.3459, 138.0414
769.8281, 138.1417
770.3102, 138.8584
770.7923, 139.3937
771.2744, 139.3728
771.7565, 139.2473
772.2386, 139.3037
772.7208, 139.4735
773.2029, 139.6374
773.6850, 139.6568
774.1671, 139.8302
774.6492, 140.4204
775.1313, 141.0783
775.6135, 140.9080
776.0956, 139.7460
776.5777, 138.9621
777.0598, 139.0228
777.5419, 139.4983
778.0240, 139.6827
778.5062, 139.6348
778.9883, 139.5338
779.4704, 139.1806
779.9525, 139.0850
780.4346, 139.9910
780.9167, 141.3863
781.3989, 142.0210
781.8810, 140.8005
782.3631, 139.8110
782.8452, 139.3843
783.3273, 139.4493
783.8094, 139.9573
784.2916, 140.9870
784.7737, 141.6623
785.2558, 141.5746
785.7379, 141.0715
786.2200, 140.6736
786.7021, 140.3938
787.1843, 140.2918
787.6664, 140.5209
788.1485, 140.8095
788.6306, 141.0278
789.1127, 141.1852
789.5948, 141.3089
790.0770, 141.2677
790.5591, 141.4107
791.0412, 141.9306
791.5233, 142.6558
792.0054, 142.9713
792.4875, 142.8684
792.9697, 142.5705
793.4518, 142.0229
793.9339, 141.4691
794.4160, 141.2619
794.8981, 141.3801
795.3802, 141.7545
795.8624, 142.6871
796.3445, 143.5347
796.8266, 144.0083
797.3087, 144.1246
797.7908, 144.0594
798.2729, 143.7614
798.7551, 143.3814
799.2372, 142.8804
799.7193, 142.3625
800.2014, 142.2059
800.6835, 142.3987
801.1656, 142.7724
801.6478, 143.5126
802.1299, 144.1793
802.6120, 144.1414
803.0941, 143.5813
803.5762, 143.0793
804.0583, 142.9233
804.5405, 142.8135
805.0226, 142.5780
805.5047, 142.2831
805.9868, 142.2080
806.4689, 142.3723
806.9510, 142.7013
807.4332, 143.2153
807.9153, 143.8444
808.3974, 144.5393
808.8795, 145.2231
809.3616, 145.4555
809.8438, 144.4648
810.3259, 143.3872
810.8080, 143.2293
811.2901, 143.7664
811.7722, 144.2328
812.2543, 144.5770
812.7365, 144.6272
813.2186, 144.1460
813.7007, 143.3716
814.1828, 143.2519
814.6649, 143.8735
815.1470, 144.4474
815.6292, 144.6546
816.1113, 144.6590
816.5934, 144.7359
817.0755, 144.8666
817.5576, 144.9900
818.0397, 144.9935
818.5219, 145.0647
819.0040, 145.3859
819.4861, 145.8614
819.9682, 146.1766
820.4503, 146.3634
820.9324, 146.2861
821.4146, 145.7628
821.8967, 145.0792
822.3788, 145.0712
822.8609, 145.6957
823.3430, 146.2713
823.8251, 146.4963
824.3073, 146.6204
824.7894, 147.0317
825.2715, 147.5653
825.7536, 147.8814
826.2357, 147.6012
826.7178, 147.3691
827.2000, 147.3079
827.6821, 147.4328
828.1642, 147.8389
828.6463, 148.6577
829.1284, 149.2779
829.6105, 149.5092
830.0927, 149.6124
830.5748, 150.2379
831.0569, 151.1719
831.5390, 151.6810
832.0211, 151.4371
832.5032, 150.8290
832.9854, 149.9085
833.4675, 148.8695
833.9496, 148.0269
834.4317, 147.5115
834.9138, 147.1086
835.3959, 146.7848
835.8781, 146.5933
836.3602, 146.6800
836.8423, 147.0423
837.3244, 147.2852
837.8065, 147.3042
838.2886, 147.2772
838.7708, 147.5407
839.2529, 147.8655
839.7350, 147.8276
840.2171, 147.0004
840.6992, 146.4346
841.1813, 146.6629
841.6635, 147.2136
842.1456, 147.6039
842.6277, 147.8197
843.1098, 147.8910
843.5919, 147.7878
844.0740, 147.6283
844.5562, 147.5184
845.0383, 147.4702
845.5204, 147.5555
846.0025, 147.8102
846.4846, 148.0231
846.9667, 147.9781
847.4489, 147.8579
847.9310, 147.8429
848.4131, 148.0211
848.8952, 148.1435
849.3773, 148.2375
849.8594, 148.2274
850.3416, 148.0332
850.8237, 147.6586
851.3058, 147.1632
851.7879, 146.5190
852.2700, 146.1773
852.7521, 146.8196
853.2343, 147.7932
853.7164, 148.2874
854.1985, 148.1982
854.6806, 148.1531
855.1627, 148.2407
855.6448, 148.5517
856.1270, 149.2113
856.6091, 150.2355
857.0912, 150.8947
857.5733, 151.1560
858.0554, 151.2004
858.5375, 151.0179
859.0197, 150.7346
859.5018, 150.5976
859.9839, 150.6092
860.4660, 150.7681
860.9481, 151.4228
861.4302, 151.9017
861.9124, 151.6716
862.3945, 150.8101
862.8766, 150.3685
863.3587, 150.5003
863.8408, 150.7309
864.3229, 150.9546
864.8051, 151.1282
865.2872, 151.0493
865.7693, 150.7638
866.2514, 150.5423
866.7335, 150.6061
867.2156, 150.6997
867.6978, 150.5912
868.1799, 150.3652
868.6620, 150.2135
869.1441, 150.4535
869.6262, 150.3736
870.1083, 149.6535
870.5905, 148.7349
871.0726, 148.6352
871.5547, 149.3252
872.0368, 149.6710
872.5189, 149.2461
873.0010, 148.7861
873.4832, 149.2525
873.9653, 150.2348
874.4474, 151.0544
874.9295, 151.4171
875.4116, 151.7924
875.8937, 152.5043
876.3759, 153.1285
876.8580, 153.1802
877.3401, 152.5148
877.8222, 152.0089
878.3043, 151.6601
878.7864, 151.7453
879.2686, 153.1093
879.7507, 154.9446
880.2328, 155.6922
880.7149, 155.0512
881.1970, 154.1469
881.6791, 153.3315
882.1613, 152.6125
882.6434, 151.9971
883.1255, 151.4925
883.6076, 150.9869
884.0897, 150.4171
884.5718, 150.0564
885.0540, 150.1992
885.5361, 150.6890
886.0182, 151.1067
886.5003, 151.4307
886.9824, 151.5081
887.4645, 150.9485
887.9467, 150.3758
888.4288, 150.1394
888.9109, 150.2551
889.3930, 150.5922
889.8751, 151.2745
890.3572, 151.8973
890.8394, 152.3874
891.3215, 152.6831
891.8036, 152.5303
892.2857, 151.9881
892.7678, 151.3464
893.2499, 150.4422
893.7321, 149.8509
894.2142, 150.2218
894.6963, 151.1700
895.1784, 151.9520
895.6605, 152.4411
896.1426, 152.7334
896.6248, 152.7636
897.1069, 152.6920
897.5890, 152.7569
898.0711, 152.9476
898.5532, 153.1627
899.0353, 153.3904
899.5175, 153.6104
899.9996, 153.8308
900.4817, 154.0212
900.9638, 154.1917
901.4459, 154.4959
901.9280, 154.2954
902.4102, 153.1122
902.8923, 151.9223
903.3744, 151.4177
903.8565, 151.6061
904.3386, 151.9436
904.8207, 152.4319
905.3029, 152.7977
905.7850, 152.7888
906.2671, 152.5620
906.7492, 152.2379
907.2313, 151.8368
907.7134, 151.4648
908.1956, 151.0181
908.6777, 150.7671
909.1598, 150.8155
909.6419, 151.1291
910.1240, 151.6655
910.6061, 152.4334
911.0883, 152.8411
911.5704, 152.4013
912.0525, 151.7436
912.5346, 151.7812
913.0167, 152.2155
913.4988, 152.3987
913.9810, 151.6758
914.4631, 151.2327
914.9452, 151.5190
915.4273, 152.0625
915.9094, 152.0122
916.3915, 151.2615
916.8737, 151.5559
917.3558, 153.3690
917.8379, 155.2167
918.3200, 155.2574
918.8021, 154.3056
919.2842, 153.5024
919.7664, 153.0699
920.2485, 152.7871
920.7306, 152.5257
921.2127, 152.4620
921.6948, 152.7939
922.1769, 153.5742
922.6591, 153.9045
923.1412, 153.7551
923.6233, 153.4407
924.1054, 153.0389
924.5875, 152.6877
925.0696, 152.6514
925.5518, 152.8735
926.0339, 153.0204
926.5160, 152.7988
926.9981, 152.6655
927.4802, 152.8077
927.9623, 153.1366
928.4445, 153.4018
928.9266, 153.6057
929.4087, 153.7171
929.8908, 153.6959
930.3729, 153.6454
930.8550, 153.6545
931.3372, 153.7477
931.8193, 153.9876
932.3014, 154.6353
932.7835, 155.0244
933.2656, 154.6575
933.7477, 154.2345
934.2299, 154.4837
934.7120, 155.5160
935.1941, 156.1512
935.6762, 156.3148
936.1583, 156.2251
936.6404, 155.9433
937.1226, 155.6014
937.6047, 155.4137
938.0868, 155.3972
938.5689, 155.2803
939.0510, 154.8740
939.5331, 154.4455
940.0153, 154.0383
940.4974, 153.6831
940.9795, 153.6433
941.4616, 153.9221
941.9437, 154.2087
942.4258, 154.3671
942.9080, 154.4501
943.3901, 154.5135
943.8722, 154.5493
944.3543, 154.5396
944.8364, 154.2302
945.3185, 154.2426
945.8007, 154.9001
946.2828, 155.6841
946.7649, 155.7513
947.2470, 155.1328
947.7291, 155.1844
948.2112, 156.2017
948.6934, 157.0356
949.1755, 156.1873
949.6576, 154.7977
950.1397, 154.1553
950.6218, 154.5675
951.1039, 154.9063
951.5861, 155.0093
952.0682, 155.0305
952.5503, 155.0401
953.0324, 155.0328
953.5145, 154.9042
953.9966, 154.6776
954.4788, 154.6188
954.9609, 155.0559
955.4430, 155.5622
955.9251, 155.8733
956.4072, 155.9841
956.8893, 155.8551
957.3715, 155.0031
957.8536, 154.8306
958.3357, 155.8090
958.8178, 157.1001
959.2999, 157.1703
959.7820, 156.3289
960.2642, 156.0989
960.7463, 156.8944
961.2284, 157.5557
961.7105, 156.9312
962.1926, 156.0047
962.6747, 155.6612
963.1569, 156.0964
963.6390, 156.5744
964.1211, 157.1876
964.6032, 157.6002
965.0853, 157.4938
965.5674, 157.0560
966.0496, 156.7700
966.5317, 156.6364
967.0138, 156.6406
967.4959, 156.8902
967.9780, 157.1600
968.4601, 157.2747
968.9423, 157.3477
969.4244, 157.6931
969.9065, 158.4685
970.3886, 158.7879
970.8707, 158.3731
971.3528, 157.8465
971.8350, 158.2554
972.3171, 159.0875
972.7992, 159.3855
973.2813, 158.8758
973.7634, 158.2596
974.2455, 157.3819
974.7277, 156.8715
975.2098, 157.2463
975.6919, 158.5229
976.1740, 159.2662
976.6561, 159.4549
977.1382, 159.5595
977.6204, 160.0203
978.1025, 160.4517
978.5846, 160.2582
979.0667, 159.6405
979.5488, 159.1934
980.0309, 159.1707
980.5131, 159.2793
980.9952, 159.5974
981.4773, 159.8902
981.9594, 159.5354
982.4415, 158.6754
982.9236, 158.6929
983.4058, 159.9880
983.8879, 161.1624
984.3700, 160.7677
984.8521, 159.8651
985.3342, 159.4276
985.8163, 159.6647
986.2985, 160.0383
986.7806, 160.6893
987.2627, 161.1384
987.7448, 161.0771
988.2269, 160.6568
988.7090, 160.2510
989.1912, 159.8850
989.6733, 159.6581
990.1554, 159.6101
990.6375, 159.7298
991.1196, 160.2853
991.6017, 160.9065
992.0839, 160.8573
992.5660, 159.8590
993.0481, 159.4629
993.5302, 159.9055
994.0123, 160.7232
994.4944, 161.7792
994.9766, 162.6867
995.4587, 162.6308
995.9408, 161.4352
996.4229, 160.5932
996.9050, 161.0385
997.3871, 161.4611
997.8693, 161.1895
998.3514, 160.4177
998.8335, 160.3662
999.3156, 161.0041
999.7977, 161.8332
1000.280, 162.8829
1000.762, 163.6831
1001.244, 163.5576
1001.726, 162.9478
1002.208, 162.5961
1002.690, 162.7309
1003.173, 162.9951
1003.655, 163.4036
1004.137, 163.8937
1004.619, 164.4795
1005.101, 165.0912
1005.583, 165.4492
1006.065, 165.5438
1006.547, 165.4913
1007.029, 165.0726
1007.512, 164.7915
1007.994, 164.9625
1008.476, 165.5233
1008.958, 166.3517
1009.440, 167.5551
1009.922, 168.2872
1010.404, 168.1348
1010.886, 167.7428
1011.369, 168.1879
1011.851, 168.9767
1012.333, 169.2103
1012.815, 168.2705
1013.297, 167.7490
1013.779, 168.1799
1014.261, 168.7931
1014.743, 169.0854
1015.225, 169.0748
1015.708, 169.0410
1016.190, 168.9789
1016.672, 168.7860
1017.154, 168.4719
1017.636, 167.9332
1018.118, 166.7563
1018.600, 165.2868
1019.082, 164.6706
1019.565, 165.3712
1020.047, 165.7613
1020.529, 165.4858
1021.011, 165.0489
1021.493, 165.2619
1021.975, 165.8059
1022.457, 165.9127
1022.939, 165.3756
1023.421, 165.1080
1023.904, 165.9458
1024.386, 166.7178
1024.868, 166.7622
1025.350, 166.1785
1025.832, 165.8642
1026.314, 165.8192
1026.796, 165.9360
1027.278, 166.2738
1027.760, 166.6131
1028.243, 166.7205
1028.725, 166.6853
1029.207, 166.6529
1029.689, 166.7031
1030.171, 166.6924
1030.653, 166.6781
1031.135, 166.4778
1031.617, 165.5887
1032.100, 164.4160
1032.582, 164.3201
1033.064, 165.2696
1033.546, 166.0371
1034.028, 165.6132
1034.510, 165.2269
1034.992, 165.5821
1035.474, 166.3977
1035.957, 166.8285
1036.439, 166.8524
1036.921, 166.9728
1037.403, 167.3164
1037.885, 167.7746
1038.367, 168.4518
1038.849, 169.0553
1039.331, 169.1629
1039.813, 168.5790
1040.296, 167.9824
1040.778, 167.2807
1041.260, 166.8445
1041.742, 166.8975
1042.224, 167.3685
1042.706, 168.3028
1043.188, 169.4897
1043.670, 170.1610
1044.152, 169.2587
1044.635, 168.5452
1045.117, 168.9292
1045.599, 169.8088
1046.081, 170.5704
1046.563, 171.3156
1047.045, 170.8911
1047.527, 169.1128
1048.009, 167.4964
1048.492, 167.4938
1048.974, 168.3010
1049.456, 169.4051
1049.938, 170.6750
1050.420, 171.1051
1050.902, 170.0049
1051.384, 169.3493
1051.866, 169.7303
1052.349, 170.6397
1052.831, 171.2191
1053.313, 171.5188
1053.795, 171.6395
1054.277, 171.5458
1054.759, 171.5090
1055.241, 171.7226
1055.723, 171.9664
1056.205, 172.0045
1056.688, 171.8546
1057.170, 172.4222
1057.652, 173.7104
1058.134, 174.7987
1058.616, 175.0586
1059.098, 175.0783
1059.580, 175.3823
1060.062, 175.8452
1060.544, 176.2196
1061.027, 176.2987
1061.509, 176.6815
1061.991, 177.4696
1062.473, 178.3316
1062.955, 178.7160
1063.437, 179.0072
1063.919, 180.2626
1064.401, 182.3907
1064.884, 184.2389
1065.366, 184.8406
1065.848, 185.6390
1066.330, 187.3125
1066.812, 189.2851
1067.294, 190.2595
1067.776, 190.2941
1068.258, 189.9323
1068.740, 189.1619
1069.223, 188.7314
1069.705, 189.1678
1070.187, 190.2495
1070.669, 191.9114
1071.151, 194.1609
1071.633, 196.2718
1072.115, 198.0328
1072.597, 200.7634
1073.079, 204.9602
1073.562, 210.5424
1074.044, 216.6639
1074.526, 224.2863
1075.008, 235.2790
1075.490, 249.3669
1075.972, 268.7032
1076.454, 293.7509
1076.936, 322.7304
1077.419, 356.9378
1077.901, 394.2822
1078.383, 425.5578
1078.865, 451.2478
1079.347, 473.8008
1079.829, 491.5258
1080.311, 509.8603
1080.793, 530.1600
1081.275, 553.1658
1081.758, 578.9987
1082.240, 607.4985
1082.722, 644.9137
1083.204, 691.8974
1083.686, 750.2744
1084.168, 822.6418
1084.650, 907.9197
1085.132, 1007.057
1085.615, 1120.091
1086.097, 1238.910
1086.579, 1363.743
1087.061, 1501.314
1087.543, 1673.180
1088.025, 1813.936
1088.507, 1822.650
1088.989, 1719.613
1089.471, 1523.542
1089.953, 1203.840
1090.436, 923.7131
1090.918, 714.1906
1091.400, 556.8262
1091.882, 448.8976
1092.364, 383.5690
1092.846, 334.8000
1093.328, 301.5063
1093.810, 276.6988
1094.293, 260.3197
1094.775, 247.5526
1095.257, 237.1358
1095.739, 228.5060
1096.221, 221.0476
1096.703, 214.7663
1097.185, 209.4753
1097.667, 205.1487
1098.150, 201.6746
1098.632, 199.4991
1099.114, 197.7288
1099.596, 195.4633
1100.078, 192.9520
1100.560, 191.0733
1101.042, 190.0715
1101.524, 189.1367
1102.006, 188.2027
1102.489, 187.1750
1102.971, 185.7568
1103.453, 184.2316
1103.935, 183.0773
1104.417, 182.3215
1104.899, 181.6331
1105.381, 180.9467
1105.863, 180.2822
1106.345, 179.6365
1106.828, 179.0306
1107.310, 178.4894
1107.792, 178.0352
1108.274, 177.7852
1108.756, 177.8168
1109.238, 177.8016
1109.720, 177.4754
1110.202, 177.1671
1110.685, 177.1098
1111.167, 177.2436
1111.649, 177.1467
1112.131, 176.8258
1112.613, 176.3016
1113.095, 175.3629
1113.577, 174.6226
1114.059, 174.7413
1114.542, 175.1868
1115.024, 175.2641
1115.506, 174.7718
1115.988, 175.0585
1116.470, 176.2491
1116.952, 176.9543
1117.434, 175.6352
1117.916, 173.8348
1118.398, 173.2295
1118.880, 173.4743
1119.363, 173.7087
1119.845, 173.7275
1120.327, 173.9444
1120.809, 174.4775
1121.291, 174.9160
1121.773, 174.6447
1122.255, 174.0913
1122.737, 174.0926
1123.220, 174.5947
1123.702, 174.9402
1124.184, 174.7990
1124.666, 174.6291
1125.148, 174.5536
1125.630, 174.4207
1126.112, 173.8702
1126.594, 173.0684
1127.077, 172.4374
1127.559, 172.0261
1128.041, 172.1109
1128.523, 173.4065
1129.005, 174.5908
1129.487, 175.1098
1129.969, 175.0911
1130.451, 174.6931
1130.933, 174.0310
1131.416, 174.1510
1131.898, 175.5875
1132.380, 176.7636
1132.862, 176.3281
1133.344, 175.4250
1133.826, 174.8975
1134.308, 174.7533
1134.790, 174.9120
1135.272, 175.3830
1135.755, 175.8106
1136.237, 176.1861
1136.719, 176.2294
1137.201, 175.1096
1137.683, 173.7865
1138.165, 173.6588
1138.647, 175.1650
1139.129, 176.3072
1139.612, 177.1624
1140.094, 177.1455
1140.576, 174.9571
1141.058, 172.4718
1141.540, 172.2874
1142.022, 173.5999
1142.504, 174.7179
1142.986, 175.5069
1143.469, 175.5813
1143.951, 174.6932
1144.433, 173.8214
1144.915, 174.0457
1145.397, 174.7455
1145.879, 174.6142
1146.361, 173.8812
1146.843, 173.6154
1147.325, 174.5967
1147.807, 175.4979
1148.290, 176.2764
1148.772, 176.7024
1149.254, 176.1988
1149.736, 175.1850
1150.218, 174.7286
1150.700, 174.8838
1151.182, 175.2803
1151.664, 176.2375
1152.147, 176.7707
1152.629, 176.5027
1153.111, 175.8044
1153.593, 175.2567
1154.075, 174.8761
1154.557, 174.7089
1155.039, 174.7625
1155.521, 175.0308
1156.004, 175.8127
1156.486, 176.4778
1156.968, 176.7375
1157.450, 176.6774
1157.932, 176.5204
1158.414, 176.2808
1158.896, 176.0475
1159.378, 175.8352
1159.860, 175.6733
1160.343, 175.5638
1160.825, 175.5383
1161.307, 175.6881
1161.789, 175.9563
1162.271, 175.7914
1162.753, 175.2212
1163.235, 174.8941
1163.717, 175.0491
1164.199, 175.4936
1164.682, 176.3040
1165.164, 177.1552
1165.646, 177.7437
1166.128, 178.0674
1166.610, 178.0389
1167.092, 177.6397
1167.574, 177.3845
1168.056, 177.7271
1168.539, 178.0245
1169.021, 177.5298
1169.503, 176.7075
1169.985, 176.2294
1170.467, 176.2372
1170.949, 176.0480
1171.431, 175.6215
1171.913, 175.4023
1172.396, 176.0672
1172.878, 176.7338
1173.360, 176.1822
1173.842, 175.0355
1174.324, 174.5031
1174.806, 174.7506
1175.288, 175.5149
1175.770, 176.9045
1176.252, 178.1868
1176.734, 178.9536
1177.217, 179.1568
1177.699, 178.0939
1178.181, 176.4165
1178.663, 176.1641
1179.145, 178.6115
1179.627, 179.8781
1180.109, 179.5083
1180.591, 178.6639
1181.074, 178.3216
1181.556, 178.2846
1182.038, 178.3567
1182.520, 178.4980
1183.002, 178.5977
1183.484, 178.8881
1183.966, 178.4649
1184.448, 176.9113
1184.931, 175.5714
1185.413, 176.5002
1185.895, 178.3896
1186.377, 179.1084
1186.859, 178.6347
1187.341, 178.0922
1187.823, 177.5597
1188.305, 177.2324
1188.787, 177.1185
1189.270, 177.2907
1189.752, 178.1671
1190.234, 179.2580
1190.716, 179.6460
1191.198, 179.2592
1191.680, 178.9760
1192.162, 179.1477
1192.644, 179.0994
1193.126, 178.5764
1193.609, 177.9558
1194.091, 177.9410
1194.573, 178.2410
1195.055, 178.2691
1195.537, 177.9196
1196.019, 177.7879
1196.501, 178.0867
1196.983, 178.4915
1197.466, 179.0180
1197.948, 179.4176
1198.430, 179.0235
1198.912, 178.2271
1199.394, 177.8231
1199.876, 178.0013
1200.358, 178.2794
1200.840, 178.6762
1201.323, 178.9397
1201.805, 178.9695
1202.287, 178.8253
1202.769, 178.4018
1203.251, 177.9536
1203.733, 178.1251
1204.215, 179.2676
1204.697, 180.0654
1205.179, 180.2559
1205.661, 180.1983
1206.144, 180.0297
1206.626, 179.7364
1207.108, 179.0278
1207.590, 178.2248
1208.072, 178.1180
1208.554, 179.2254
1209.036, 179.9875
1209.518, 180.1238
1210.001, 179.9684
1210.483, 179.4471
1210.965, 178.9593
1211.447, 179.8297
1211.929, 181.4300
1212.411, 182.3815
1212.893, 182.0317
1213.375, 181.6557
1213.858, 181.3479
1214.340, 181.1812
1214.822, 181.2453
1215.304, 181.4432
1215.786, 181.4762
1216.268, 181.4657
1216.750, 181.7214
1217.232, 182.7180
1217.714, 183.0900
1218.197, 182.5621
1218.679, 181.8269
1219.161, 181.1746
1219.643, 180.7254
1220.125, 180.8884
1220.607, 181.4260
1221.089, 181.7891
1221.571, 181.7290
1222.053, 181.6341
1222.536, 181.5462
1223.018, 181.3720
1223.500, 180.8437
1223.982, 180.3192
1224.464, 180.7763
1224.946, 181.7700
1225.428, 182.2851
1225.910, 181.5422
1226.393, 181.0954
1226.875, 180.9700
1227.357, 181.1313
1227.839, 182.0452
1228.321, 182.9189
1228.803, 181.9041
1229.285, 179.8842
1229.767, 178.9249
1230.250, 180.3062
1230.732, 181.1645
1231.214, 181.3714
1231.696, 181.4437
1232.178, 181.7151
1232.660, 182.1326
1233.142, 182.8551
1233.624, 183.6324
1234.106, 183.8197
1234.589, 182.9817
1235.071, 182.5886
1235.553, 182.7859
1236.035, 182.8255
1236.517, 181.6287
1236.999, 180.3728
1237.481, 180.7648
1237.963, 182.0838
1238.445, 182.5794
1238.928, 181.6927
1239.410, 181.6403
1239.892, 182.5878
1240.374, 183.5279
1240.856, 183.8455
1241.338, 183.6658
1241.820, 182.6577
1242.302, 181.3730
1242.785, 180.9724
1243.267, 181.6691
1243.749, 182.3108
1244.231, 182.8633
1244.713, 183.1744
1245.195, 182.8247
1245.677, 182.5057
1246.159, 182.7780
1246.641, 183.4373
1247.124, 184.1553
1247.606, 184.9822
1248.088, 185.1336
1248.570, 184.5843
1249.052, 184.0559
1249.534, 184.1743
1250.016, 184.2970
1250.498, 183.7783
1250.980, 183.1934
1251.463, 183.4697
1251.945, 184.5848
1252.427, 184.8787
1252.909, 184.3576
1253.391, 183.8471
1253.873, 184.0734
1254.355, 184.1491
1254.837, 183.2927
1255.320, 182.4368
1255.802, 182.9447
1256.284, 184.4838
1256.766, 184.6940
1257.248, 183.6941
1257.730, 183.0278
1258.212, 183.9159
1258.694, 184.6731
1259.177, 184.8036
1259.659, 184.7114
1260.141, 184.8026
1260.623, 185.0172
1261.105, 185.1900
1261.587, 185.3018
1262.069, 185.3026
1262.551, 185.0112
1263.033, 184.8583
1263.516, 184.9548
1263.998, 185.0700
1264.480, 184.8401
1264.962, 184.5278
1265.444, 184.7683
1265.926, 185.4304
1266.408, 185.9910
1266.890, 186.4663
1267.372, 186.4579
1267.855, 185.7702
1268.337, 185.2042
1268.819, 185.7560
1269.301, 186.6345
1269.783, 186.7142
1270.265, 186.2075
1270.747, 185.7096
1271.229, 185.1275
1271.712, 185.1635
1272.194, 185.9329
1272.676, 186.6708
1273.158, 186.6281
1273.640, 186.4281
1274.122, 186.7345
1274.604, 187.2723
1275.086, 187.4997
1275.568, 187.3771
1276.051, 187.0091
1276.533, 186.3934
1277.015, 186.1527
1277.497, 187.3120
1277.979, 188.2841
1278.461, 187.6428
1278.943, 186.5540
1279.425, 186.6295
1279.907, 187.8362
1280.390, 187.8519
1280.872, 186.8096
1281.354, 186.0702
1281.836, 186.5943
1282.318, 187.2905
1282.800, 188.0615
1283.282, 188.5372
1283.764, 188.1189
1284.247, 187.0971
1284.729, 187.0688
1285.211, 187.7950
1285.693, 188.3605
1286.175, 188.1971
1286.657, 188.1162
1287.139, 188.1370
1287.621, 188.4045
1288.104, 189.3164
1288.586, 190.3898
1289.068, 190.6676
1289.550, 190.2872
1290.032, 189.5467
1290.514, 187.9157
1290.996, 187.1898
1291.478, 187.4990
1291.960, 188.2028
1292.443, 189.2658
1292.925, 190.1176
1293.407, 189.8750
1293.889, 189.0095
1294.371, 188.2035
1294.853, 187.4006
1295.335, 187.4295
1295.817, 188.3163
1296.299, 188.9533
1296.782, 188.5237
1297.264, 188.0360
1297.746, 188.3101
1298.228, 188.8745
1298.710, 189.3661
1299.192, 189.7571
1299.674, 189.2251
1300.156, 187.9520
1300.639, 187.0586
1301.121, 187.0007
1301.603, 187.3854
1302.085, 188.5959
1302.567, 189.6714
1303.049, 190.1808
1303.531, 190.0872
##END=



