##NAMES=Brewsterite-Ba
##RRUFFID=R070120
##IDEAL CHEMISTRY=Ba(Al_2_Si_6_)O_16_&#183;5H_2_O
##LOCALITY=Strontian, North West Highlands (Argyllshire), Scotland, UK
##OWNER=RRUFF
##SOURCE=Michael Scott
##DESCRIPTION=Colorless crystal fragment
##STATUS=The identification of this mineral has been confirmed only by single crystal X-ray diffraction.
##URL=rruff.info/R070120
160.8436, 3804.552
161.3257, 3806.112
161.8078, 3822.384
162.2899, 3878.113
162.7720, 3969.770
163.2542, 4035.764
163.7363, 4058.119
164.2184, 4065.179
164.7005, 4079.554
165.1826, 4102.474
165.6647, 4124.835
166.1469, 4138.738
166.6290, 4145.997
167.1111, 4156.296
167.5932, 4167.195
168.0753, 4183.576
168.5574, 4215.868
169.0396, 4265.519
169.5217, 4308.548
170.0038, 4324.331
170.4859, 4319.932
170.9680, 4315.166
171.4501, 4315.708
171.9323, 4315.764
172.4144, 4308.322
172.8965, 4292.798
173.3786, 4274.901
173.8607, 4254.117
174.3428, 4234.277
174.8250, 4223.552
175.3071, 4229.973
175.7892, 4241.896
176.2713, 4243.862
176.7534, 4234.086
177.2355, 4225.599
177.7177, 4230.239
178.1998, 4239.921
178.6819, 4243.060
179.1640, 4234.829
179.6461, 4220.863
180.1282, 4206.725
180.6104, 4191.538
181.0925, 4180.779
181.5746, 4178.096
182.0567, 4181.402
182.5388, 4190.884
183.0209, 4211.126
183.5031, 4230.901
183.9852, 4231.279
184.4673, 4206.903
184.9494, 4187.978
185.4315, 4192.123
185.9136, 4206.868
186.3958, 4223.282
186.8779, 4241.252
187.3600, 4254.918
187.8421, 4252.779
188.3242, 4230.302
188.8063, 4212.995
189.2885, 4216.329
189.7706, 4226.229
190.2527, 4231.505
190.7348, 4229.060
191.2169, 4222.536
191.6990, 4214.918
192.1812, 4204.816
192.6633, 4200.208
193.1454, 4206.436
193.6275, 4217.746
194.1096, 4231.597
194.5917, 4247.697
195.0739, 4263.302
195.5560, 4275.608
196.0381, 4284.737
196.5202, 4289.627
197.0023, 4280.840
197.4844, 4273.302
197.9665, 4279.698
198.4487, 4302.159
198.9308, 4326.695
199.4129, 4337.313
199.8950, 4332.542
200.3771, 4323.545
200.8592, 4303.288
201.3414, 4285.366
201.8235, 4277.253
202.3056, 4279.868
202.7877, 4289.292
203.2698, 4305.132
203.7519, 4329.373
204.2341, 4343.542
204.7162, 4333.133
205.1983, 4321.605
205.6804, 4323.394
206.1625, 4337.404
206.6446, 4349.772
207.1268, 4344.186
207.6089, 4318.616
208.0910, 4302.500
208.5731, 4307.927
209.0552, 4313.396
209.5373, 4308.850
210.0195, 4295.324
210.5016, 4279.392
210.9837, 4263.197
211.4658, 4246.634
211.9479, 4242.730
212.4300, 4261.156
212.9122, 4283.089
213.3943, 4307.929
213.8764, 4330.770
214.3585, 4340.566
214.8406, 4323.235
215.3227, 4283.274
215.8049, 4263.659
216.2870, 4275.306
216.7691, 4295.431
217.2512, 4319.835
217.7333, 4345.698
218.2154, 4369.260
218.6976, 4389.108
219.1797, 4404.546
219.6618, 4411.278
220.1439, 4399.349
220.6260, 4394.174
221.1081, 4405.209
221.5903, 4426.076
222.0724, 4449.572
222.5545, 4473.257
223.0366, 4495.233
223.5187, 4510.149
224.0008, 4514.518
224.4830, 4518.259
224.9651, 4523.507
225.4472, 4529.735
225.9293, 4536.170
226.4114, 4542.444
226.8935, 4549.476
227.3756, 4559.745
227.8578, 4575.342
228.3399, 4588.391
228.8220, 4593.616
229.3041, 4597.847
229.7862, 4608.521
230.2683, 4627.524
230.7505, 4645.795
231.2326, 4647.710
231.7147, 4626.995
232.1968, 4616.679
232.6789, 4630.590
233.1610, 4650.806
233.6432, 4669.236
234.1253, 4684.178
234.6074, 4695.342
235.0895, 4701.458
235.5716, 4702.009
236.0537, 4702.606
236.5359, 4700.971
237.0180, 4702.097
237.5001, 4710.961
237.9822, 4726.021
238.4643, 4739.723
238.9464, 4743.232
239.4286, 4737.201
239.9107, 4740.148
240.3928, 4765.935
240.8749, 4783.777
241.3570, 4771.945
241.8391, 4740.568
242.3213, 4715.083
242.8034, 4715.224
243.2855, 4733.928
243.7676, 4740.212
244.2497, 4725.034
244.7318, 4712.951
245.2140, 4718.442
245.6961, 4732.837
246.1782, 4743.933
246.6603, 4747.834
247.1424, 4743.469
247.6245, 4724.866
248.1067, 4684.798
248.5888, 4651.794
249.0709, 4639.177
249.5530, 4638.441
250.0351, 4644.045
250.5172, 4656.515
250.9994, 4668.243
251.4815, 4667.148
251.9636, 4651.146
252.4457, 4638.028
252.9278, 4636.316
253.4099, 4638.226
253.8921, 4637.071
254.3742, 4631.712
254.8563, 4626.093
255.3384, 4623.786
255.8205, 4624.637
256.3026, 4626.210
256.7848, 4630.103
257.2669, 4632.124
257.7490, 4627.088
258.2311, 4615.504
258.7132, 4606.166
259.1953, 4606.749
259.6775, 4614.241
260.1596, 4617.662
260.6417, 4614.652
261.1238, 4609.411
261.6059, 4603.167
262.0880, 4596.944
262.5702, 4595.170
263.0523, 4608.771
263.5344, 4625.067
264.0165, 4615.644
264.4986, 4572.657
264.9807, 4537.611
265.4629, 4550.452
265.9450, 4591.335
266.4271, 4618.908
266.9092, 4619.350
267.3913, 4608.783
267.8734, 4602.551
268.3556, 4600.403
268.8377, 4594.233
269.3198, 4576.378
269.8019, 4553.800
270.2840, 4541.790
270.7661, 4543.979
271.2483, 4550.264
271.7304, 4555.950
272.2125, 4561.139
272.6946, 4566.596
273.1767, 4573.453
273.6588, 4579.229
274.1409, 4578.657
274.6230, 4570.430
275.1052, 4563.829
275.5873, 4562.844
276.0694, 4564.977
276.5515, 4565.686
277.0336, 4563.697
277.5157, 4562.885
277.9979, 4569.028
278.4800, 4583.162
278.9621, 4593.414
279.4442, 4592.331
279.9263, 4591.158
280.4084, 4603.609
280.8906, 4628.813
281.3727, 4650.011
281.8548, 4652.548
282.3369, 4636.639
282.8190, 4626.026
283.3011, 4625.536
283.7833, 4624.915
284.2654, 4616.400
284.7475, 4603.690
285.2296, 4597.448
285.7117, 4604.341
286.1938, 4620.267
286.6760, 4629.333
287.1581, 4625.187
287.6402, 4622.585
288.1223, 4624.421
288.6044, 4628.634
289.0865, 4632.193
289.5687, 4634.118
290.0508, 4636.786
290.5329, 4645.120
291.0150, 4668.543
291.4971, 4678.137
291.9792, 4657.868
292.4614, 4636.448
292.9435, 4638.803
293.4256, 4664.417
293.9077, 4691.777
294.3898, 4697.951
294.8719, 4679.238
295.3541, 4666.803
295.8362, 4663.033
296.3183, 4662.681
296.8004, 4667.505
297.2825, 4674.257
297.7646, 4676.148
298.2468, 4667.667
298.7289, 4652.055
299.2110, 4646.523
299.6931, 4659.400
300.1752, 4671.503
300.6573, 4676.064
301.1395, 4679.547
301.6216, 4690.086
302.1037, 4710.825
302.5858, 4735.694
303.0679, 4754.449
303.5500, 4765.930
304.0322, 4774.776
304.5143, 4781.380
304.9964, 4785.772
305.4785, 4787.654
305.9606, 4787.071
306.4427, 4784.518
306.9249, 4780.176
307.4070, 4774.071
307.8891, 4766.180
308.3712, 4749.653
308.8533, 4740.899
309.3354, 4752.708
309.8176, 4778.081
310.2997, 4800.769
310.7818, 4814.166
311.2639, 4818.609
311.7460, 4810.222
312.2281, 4783.134
312.7103, 4765.631
313.1924, 4780.661
313.6745, 4810.843
314.1566, 4836.775
314.6387, 4856.696
315.1208, 4867.903
315.6030, 4863.529
316.0851, 4845.763
316.5672, 4831.851
317.0493, 4827.927
317.5314, 4829.214
318.0135, 4827.834
318.4957, 4822.896
318.9778, 4823.496
319.4599, 4838.603
319.9420, 4859.814
320.4241, 4874.346
320.9063, 4880.308
321.3884, 4878.620
321.8705, 4865.955
322.3526, 4842.835
322.8347, 4832.372
323.3168, 4844.971
323.7990, 4862.706
324.2811, 4872.360
324.7632, 4875.831
325.2453, 4884.392
325.7274, 4906.577
326.2095, 4936.929
326.6917, 4951.227
327.1738, 4933.255
327.6559, 4921.686
328.1380, 4922.905
328.6201, 4934.638
329.1022, 4957.889
329.5844, 4992.333
330.0665, 5027.947
330.5486, 5048.766
331.0307, 5047.318
331.5128, 5048.854
331.9949, 5057.772
332.4771, 5065.643
332.9592, 5065.220
333.4413, 5058.350
333.9234, 5053.287
334.4055, 5057.343
334.8876, 5070.014
335.3697, 5078.876
335.8518, 5078.573
336.3340, 5080.576
336.8161, 5093.671
337.2982, 5108.382
337.7803, 5096.080
338.2624, 5117.071
338.7445, 5131.042
339.2267, 5138.369
339.7088, 5119.150
340.1909, 5134.208
340.6730, 5135.530
341.1551, 5136.288
341.6372, 5156.171
342.1194, 5140.814
342.6015, 5160.394
343.0836, 5166.026
343.5657, 5178.042
344.0478, 5176.237
344.5299, 5178.700
345.0121, 5194.991
345.4942, 5203.625
345.9763, 5200.228
346.4584, 5212.650
346.9405, 5196.809
347.4226, 5205.769
347.9048, 5225.430
348.3869, 5222.729
348.8690, 5235.403
349.3511, 5242.222
349.8332, 5222.426
350.3153, 5259.793
350.7975, 5262.489
351.2796, 5264.901
351.7617, 5280.602
352.2438, 5301.895
352.7259, 5313.426
353.2080, 5311.085
353.6902, 5306.925
354.1723, 5315.209
354.6544, 5338.991
355.1365, 5355.755
355.6186, 5359.293
356.1007, 5361.248
356.5829, 5368.011
357.0650, 5379.483
357.5471, 5394.378
358.0292, 5412.502
358.5113, 5432.277
358.9934, 5446.317
359.4756, 5445.049
359.9577, 5449.703
360.4398, 5466.034
360.9219, 5487.028
361.4040, 5505.644
361.8861, 5520.074
362.3683, 5533.257
362.8504, 5550.283
363.3325, 5574.300
363.8146, 5588.904
364.2967, 5584.201
364.7788, 5579.250
365.2610, 5580.219
365.7431, 5586.851
366.2252, 5597.124
366.7073, 5610.320
367.1894, 5625.737
367.6715, 5640.224
368.1537, 5650.271
368.6358, 5668.450
369.1179, 5704.593
369.6000, 5747.548
370.0821, 5791.142
370.5642, 5835.004
371.0464, 5868.296
371.5285, 5874.617
372.0106, 5859.226
372.4927, 5852.598
372.9748, 5860.029
373.4569, 5876.429
373.9391, 5902.911
374.4212, 5936.251
374.9033, 5962.016
375.3854, 5972.510
375.8675, 5976.449
376.3496, 5978.554
376.8318, 5980.146
377.3139, 5989.900
377.7960, 6013.787
378.2781, 6047.943
378.7602, 6080.969
379.2423, 6121.791
379.7245, 6147.774
380.2066, 6142.490
380.6887, 6125.017
381.1708, 6118.301
381.6529, 6127.138
382.1350, 6141.282
382.6172, 6149.892
383.0993, 6153.232
383.5814, 6148.968
384.0635, 6128.179
384.5456, 6110.151
385.0277, 6106.785
385.5099, 6111.055
385.9920, 6108.839
386.4741, 6092.228
386.9562, 6066.738
387.4383, 6046.811
387.9204, 6035.334
388.4026, 6022.984
388.8847, 6008.688
389.3668, 5993.014
389.8489, 5972.991
390.3310, 5950.015
390.8131, 5932.876
391.2953, 5935.542
391.7774, 5952.976
392.2595, 5952.929
392.7416, 5927.021
393.2237, 5899.898
393.7058, 5885.502
394.1880, 5879.569
394.6701, 5877.089
395.1522, 5881.452
395.6343, 5881.761
396.1164, 5864.672
396.5985, 5833.952
397.0806, 5806.231
397.5627, 5785.468
398.0449, 5772.492
398.5270, 5773.163
399.0091, 5790.448
399.4912, 5796.827
399.9733, 5779.125
400.4554, 5755.219
400.9376, 5739.462
401.4197, 5732.373
401.9018, 5728.968
402.3839, 5726.144
402.8660, 5723.891
403.3481, 5722.319
403.8303, 5726.521
404.3124, 5724.990
404.7945, 5707.917
405.2766, 5689.000
405.7587, 5684.582
406.2408, 5697.390
406.7230, 5713.995
407.2051, 5717.538
407.6872, 5706.005
408.1693, 5696.390
408.6514, 5689.643
409.1335, 5683.998
409.6157, 5677.014
410.0978, 5670.939
410.5799, 5671.518
411.0620, 5684.932
411.5441, 5698.513
412.0262, 5684.460
412.5084, 5639.176
412.9905, 5616.218
413.4726, 5642.967
413.9547, 5686.991
414.4368, 5712.081
414.9189, 5717.934
415.4011, 5723.089
415.8832, 5743.358
416.3653, 5763.327
416.8474, 5754.332
417.3295, 5715.629
417.8116, 5685.558
418.2938, 5692.194
418.7759, 5727.706
419.2580, 5750.095
419.7401, 5759.473
420.2222, 5758.157
420.7043, 5734.839
421.1865, 5706.278
421.6686, 5694.837
422.1507, 5705.258
422.6328, 5724.107
423.1149, 5736.355
423.5970, 5742.205
424.0792, 5739.679
424.5613, 5720.338
425.0434, 5701.526
425.5255, 5685.289
426.0076, 5673.963
426.4897, 5673.106
426.9719, 5686.899
427.4540, 5702.602
427.9361, 5695.381
428.4182, 5660.886
428.9003, 5629.901
429.3824, 5606.228
429.8646, 5589.660
430.3467, 5583.485
430.8288, 5585.595
431.3109, 5583.831
431.7930, 5565.830
432.2751, 5543.551
432.7573, 5536.782
433.2394, 5545.791
433.7215, 5556.211
434.2036, 5562.440
434.6857, 5563.976
435.1678, 5559.084
435.6500, 5545.130
436.1321, 5531.689
436.6142, 5520.784
437.0963, 5511.826
437.5784, 5504.275
438.0605, 5498.048
438.5427, 5493.882
439.0248, 5492.993
439.5069, 5495.292
439.9890, 5493.322
440.4711, 5486.781
440.9532, 5476.027
441.4354, 5453.970
441.9175, 5430.896
442.3996, 5421.610
442.8817, 5429.785
443.3638, 5440.358
443.8459, 5431.502
444.3281, 5401.669
444.8102, 5381.342
445.2923, 5380.449
445.7744, 5378.041
446.2565, 5359.981
446.7386, 5332.462
447.2208, 5307.703
447.7029, 5286.833
448.1850, 5255.686
448.6671, 5269.166
449.1492, 5275.624
449.6313, 5275.437
450.1135, 5248.705
450.5956, 5256.250
451.0777, 5250.060
451.5598, 5243.305
452.0419, 5255.675
452.5240, 5232.804
453.0062, 5244.870
453.4883, 5257.428
453.9704, 5273.323
454.4525, 5276.286
454.9346, 5253.382
455.4167, 5218.728
455.8989, 5214.122
456.3810, 5266.137
456.8631, 5301.293
457.3452, 5312.430
457.8273, 5311.921
458.3094, 5301.927
458.7915, 5286.545
459.2737, 5274.789
459.7558, 5271.676
460.2379, 5277.804
460.7200, 5298.752
461.2021, 5340.368
461.6842, 5375.454
462.1664, 5392.891
462.6485, 5398.715
463.1306, 5397.095
463.6127, 5386.787
464.0948, 5380.793
464.5769, 5386.528
465.0591, 5400.151
465.5412, 5417.787
466.0233, 5438.779
466.5054, 5457.616
466.9875, 5469.838
467.4696, 5476.672
467.9518, 5486.047
468.4339, 5494.647
468.9160, 5509.667
469.3981, 5533.685
469.8802, 5563.945
470.3623, 5602.872
470.8445, 5647.974
471.3266, 5685.439
471.8087, 5696.997
472.2908, 5683.554
472.7729, 5692.971
473.2550, 5741.706
473.7372, 5789.689
474.2193, 5830.985
474.7014, 5862.225
475.1835, 5875.972
475.6656, 5869.314
476.1477, 5859.700
476.6299, 5861.857
477.1120, 5873.843
477.5941, 5888.814
478.0762, 5906.192
478.5583, 5925.656
479.0404, 5950.484
479.5226, 5977.670
480.0047, 5992.292
480.4868, 5977.741
480.9689, 5969.083
481.4510, 5989.133
481.9331, 6020.984
482.4153, 6035.477
482.8974, 6026.212
483.3795, 6015.950
483.8616, 6033.599
484.3437, 6084.210
484.8258, 6116.347
485.3080, 6107.226
485.7901, 6104.062
486.2722, 6119.964
486.7543, 6147.506
487.2364, 6179.333
487.7185, 6213.171
488.2007, 6241.368
488.6828, 6250.196
489.1649, 6241.818
489.6470, 6243.317
490.1291, 6258.652
490.6112, 6281.740
491.0934, 6318.624
491.5755, 6359.943
492.0576, 6380.163
492.5397, 6356.832
493.0218, 6335.547
493.5039, 6347.251
493.9861, 6378.448
494.4682, 6408.508
494.9503, 6431.833
495.4324, 6436.689
495.9145, 6406.426
496.3966, 6335.701
496.8788, 6280.460
497.3609, 6257.623
497.8430, 6230.071
498.3251, 6190.815
498.8072, 6139.756
499.2893, 6073.460
499.7715, 5991.705
500.2536, 5907.711
500.7357, 5838.819
501.2178, 5784.636
501.6999, 5726.053
502.1820, 5653.964
502.6642, 5592.535
503.1463, 5567.176
503.6284, 5560.704
504.1105, 5543.978
504.5926, 5511.743
505.0747, 5468.744
505.5569, 5403.164
506.0390, 5332.129
506.5211, 5294.591
507.0032, 5298.390
507.4853, 5306.326
507.9674, 5280.296
508.4496, 5219.982
508.9317, 5179.230
509.4138, 5176.187
509.8959, 5169.373
510.3780, 5147.067
510.8601, 5118.112
511.3423, 5091.203
511.8244, 5068.804
512.3065, 5050.580
512.7886, 5038.727
513.2707, 5032.226
513.7528, 5016.437
514.2349, 4984.253
514.7170, 4959.607
515.1992, 4962.883
515.6813, 4977.750
516.1634, 4981.613
516.6455, 4968.596
517.1276, 4957.220
517.6097, 4964.052
518.0919, 4975.363
518.5740, 4967.315
519.0561, 4938.618
519.5382, 4910.160
520.0203, 4897.446
520.5024, 4897.500
520.9846, 4893.349
521.4667, 4873.801
521.9488, 4864.844
522.4309, 4881.106
522.9130, 4898.958
523.3951, 4897.731
523.8773, 4877.779
524.3594, 4853.693
524.8415, 4832.694
525.3236, 4817.914
525.8057, 4822.554
526.2878, 4850.583
526.7700, 4877.527
527.2521, 4897.632
527.7342, 4910.314
528.2163, 4914.869
528.6984, 4910.978
529.1805, 4904.976
529.6627, 4897.901
530.1448, 4890.255
530.6269, 4879.423
531.1090, 4867.903
531.5911, 4866.303
532.0732, 4880.905
532.5554, 4900.930
533.0375, 4902.770
533.5196, 4872.830
534.0017, 4855.701
534.4838, 4862.139
534.9659, 4869.689
535.4481, 4865.683
535.9302, 4855.269
536.4123, 4851.149
536.8944, 4860.558
537.3765, 4873.279
537.8586, 4872.953
538.3408, 4861.338
538.8229, 4859.364
539.3050, 4874.362
539.7871, 4891.037
540.2692, 4895.786
540.7513, 4889.591
541.2335, 4882.473
541.7156, 4874.216
542.1977, 4865.885
542.6798, 4855.585
543.1619, 4846.385
543.6440, 4844.780
544.1262, 4851.275
544.6083, 4857.300
545.0904, 4853.082
545.5725, 4838.958
546.0546, 4829.032
546.5367, 4821.770
547.0189, 4821.630
547.5010, 4836.085
547.9831, 4853.898
548.4652, 4864.096
548.9473, 4865.029
549.4294, 4863.044
549.9116, 4857.211
550.3937, 4853.061
550.8758, 4862.809
551.3579, 4886.090
551.8400, 4909.605
552.3221, 4928.541
552.8043, 4939.879
553.2864, 4935.726
553.7685, 4901.801
554.2506, 4879.767
554.7327, 4869.320
555.2148, 4871.189
555.6970, 4894.762
556.1791, 4930.279
556.6612, 4956.322
557.1433, 4961.186
557.6254, 4956.785
558.1075, 4968.337
558.5897, 4997.798
559.0718, 5002.803
559.5539, 4965.439
560.0360, 4922.358
560.5181, 4902.456
561.0002, 4899.092
561.4824, 4895.805
561.9645, 4889.544
562.4466, 4883.642
562.9287, 4877.942
563.4108, 4874.373
563.8929, 4877.806
564.3751, 4888.313
564.8572, 4898.956
565.3393, 4903.593
565.8214, 4902.445
566.3035, 4897.183
566.7856, 4881.320
567.2678, 4872.234
567.7499, 4878.860
568.2320, 4888.464
568.7141, 4894.309
569.1962, 4894.248
569.6783, 4883.134
570.1605, 4841.617
570.6426, 4795.953
571.1247, 4796.092
571.6068, 4835.900
572.0889, 4856.902
572.5710, 4833.468
573.0532, 4793.056
573.5353, 4776.599
574.0174, 4792.943
574.4995, 4797.232
574.9816, 4770.922
575.4637, 4753.202
575.9459, 4772.403
576.4280, 4806.196
576.9101, 4816.735
577.3922, 4792.695
577.8743, 4764.025
578.3564, 4770.563
578.8386, 4807.368
579.3207, 4826.080
579.8028, 4820.398
580.2849, 4812.465
580.7670, 4816.004
581.2491, 4823.508
581.7313, 4818.466
582.2134, 4794.774
582.6955, 4777.884
583.1776, 4777.996
583.6597, 4785.648
584.1418, 4797.647
584.6240, 4809.846
585.1061, 4811.691
585.5882, 4796.953
586.0703, 4772.688
586.5524, 4751.568
587.0345, 4730.430
587.5167, 4726.075
587.9988, 4751.177
588.4809, 4780.184
588.9630, 4803.588
589.4451, 4820.515
589.9272, 4829.172
590.4094, 4827.683
590.8915, 4821.222
591.3736, 4814.588
591.8557, 4804.989
592.3378, 4783.512
592.8199, 4750.200
593.3021, 4721.019
593.7842, 4708.780
594.2663, 4709.845
594.7484, 4706.905
595.2305, 4694.416
595.7126, 4687.236
596.1948, 4691.118
596.6769, 4695.897
597.1590, 4693.987
597.6411, 4687.062
598.1232, 4682.143
598.6053, 4683.219
599.0875, 4686.902
599.5696, 4690.907
600.0517, 4694.281
600.5338, 4690.515
601.0159, 4676.783
601.4980, 4664.458
601.9802, 4665.023
602.4623, 4677.874
602.9444, 4686.589
603.4265, 4691.152
603.9086, 4692.106
604.3907, 4686.802
604.8729, 4679.790
605.3550, 4674.088
605.8371, 4663.057
606.3192, 4677.630
606.8013, 4685.182
607.2834, 4686.088
607.7656, 4660.450
608.2477, 4669.089
608.7298, 4663.992
609.2119, 4658.331
609.6940, 4671.795
610.1761, 4650.018
610.6583, 4663.178
611.1404, 4662.393
611.6224, 4667.990
612.1046, 4659.766
612.5867, 4655.811
613.0688, 4665.681
613.5509, 4667.896
614.0330, 4658.081
614.5151, 4664.084
614.9973, 4639.459
615.4794, 4648.004
615.9615, 4646.675
616.4436, 4632.794
616.9257, 4623.694
617.4078, 4629.290
617.8900, 4636.542
618.3721, 4625.500
618.8542, 4597.861
619.3363, 4585.735
619.8184, 4608.589
620.3005, 4633.308
620.7827, 4644.492
621.2648, 4644.800
621.7469, 4636.152
622.2290, 4620.529
622.7111, 4605.753
623.1932, 4599.393
623.6754, 4600.962
624.1575, 4607.786
624.6396, 4621.996
625.1217, 4635.500
625.6038, 4650.052
626.0859, 4659.091
626.5681, 4651.992
627.0502, 4629.834
627.5323, 4617.196
628.0144, 4634.886
628.4965, 4650.062
628.9786, 4631.003
629.4608, 4596.187
629.9429, 4583.592
630.4250, 4602.239
630.9071, 4628.163
631.3892, 4636.298
631.8713, 4627.868
632.3535, 4615.019
632.8356, 4591.951
633.3177, 4578.474
633.7998, 4592.137
634.2819, 4608.938
634.7640, 4600.757
635.2462, 4569.606
635.7283, 4556.457
636.2104, 4600.745
636.6925, 4642.335
637.1746, 4625.412
637.6567, 4575.801
638.1389, 4546.891
638.6210, 4552.749
639.1031, 4571.076
639.5852, 4579.753
640.0673, 4579.280
640.5494, 4574.911
641.0316, 4562.172
641.5137, 4555.693
641.9958, 4569.285
642.4779, 4582.946
642.9600, 4577.612
643.4421, 4554.894
643.9243, 4534.847
644.4064, 4523.559
644.8885, 4517.611
645.3706, 4514.888
645.8527, 4515.717
646.3348, 4522.768
646.8170, 4535.871
647.2991, 4547.886
647.7812, 4551.565
648.2633, 4548.033
648.7454, 4546.941
649.2275, 4552.875
649.7097, 4549.415
650.1918, 4522.866
650.6739, 4494.202
651.1560, 4480.417
651.6381, 4479.632
652.1202, 4479.385
652.6024, 4477.433
653.0845, 4473.606
653.5666, 4463.125
654.0487, 4452.455
654.5308, 4454.984
655.0129, 4471.352
655.4951, 4486.887
655.9772, 4489.075
656.4593, 4480.898
656.9414, 4474.026
657.4235, 4467.219
657.9056, 4466.372
658.3878, 4480.037
658.8699, 4491.575
659.3520, 4485.174
659.8341, 4466.218
660.3162, 4453.548
660.7983, 4456.770
661.2805, 4458.623
661.7626, 4445.203
662.2447, 4428.738
662.7268, 4424.850
663.2089, 4434.473
663.6910, 4451.828
664.1732, 4474.834
664.6553, 4496.229
665.1374, 4494.977
665.6195, 4466.915
666.1016, 4444.310
666.5837, 4434.201
667.0659, 4424.910
667.5480, 4401.328
668.0301, 4373.428
668.5122, 4367.136
668.9943, 4398.238
669.4764, 4422.239
669.9586, 4420.717
670.4407, 4409.419
670.9228, 4399.732
671.4049, 4393.340
671.8870, 4389.005
672.3691, 4386.011
672.8513, 4386.711
673.3334, 4399.129
673.8155, 4422.521
674.2976, 4429.834
674.7797, 4414.097
675.2618, 4399.619
675.7440, 4400.270
676.2261, 4410.391
676.7082, 4418.380
677.1903, 4424.815
677.6724, 4427.552
678.1545, 4424.374
678.6367, 4419.305
679.1188, 4411.885
679.6009, 4405.151
680.0830, 4405.602
680.5651, 4414.852
681.0472, 4423.132
681.5294, 4419.277
682.0115, 4406.177
682.4936, 4391.629
682.9757, 4375.264
683.4578, 4369.311
683.9399, 4382.059
684.4221, 4399.681
684.9042, 4401.516
685.3863, 4383.672
685.8684, 4375.041
686.3505, 4384.521
686.8326, 4391.570
687.3148, 4387.020
687.7969, 4379.466
688.2790, 4380.915
688.7611, 4390.715
689.2432, 4394.045
689.7253, 4376.179
690.2075, 4351.404
690.6896, 4339.602
691.1717, 4338.890
691.6538, 4342.421
692.1359, 4348.710
692.6180, 4355.101
693.1002, 4359.101
693.5823, 4361.010
694.0644, 4363.439
694.5465, 4368.223
695.0286, 4370.194
695.5107, 4365.167
695.9929, 4360.626
696.4750, 4363.182
696.9571, 4369.834
697.4392, 4371.785
697.9213, 4364.611
698.4034, 4355.941
698.8856, 4351.833
699.3677, 4348.996
699.8498, 4339.201
700.3319, 4324.467
700.8140, 4318.948
701.2961, 4331.417
701.7783, 4353.302
702.2604, 4370.147
702.7425, 4383.698
703.2246, 4378.202
703.7067, 4339.522
704.1888, 4307.356
704.6710, 4303.814
705.1531, 4317.844
705.6352, 4335.159
706.1173, 4357.590
706.5994, 4370.552
707.0815, 4367.142
707.5637, 4356.465
708.0458, 4340.250
708.5279, 4322.370
709.0100, 4307.571
709.4921, 4297.486
709.9742, 4292.081
710.4564, 4292.932
710.9385, 4297.901
711.4206, 4299.772
711.9027, 4298.468
712.3848, 4297.092
712.8669, 4296.180
713.3491, 4296.698
713.8312, 4301.063
714.3133, 4292.004
714.7954, 4316.730
715.2775, 4330.924
715.7596, 4335.151
716.2418, 4299.561
716.7239, 4315.387
717.2060, 4310.607
717.6881, 4304.983
718.1702, 4328.045
718.6523, 4298.246
719.1345, 4320.854
719.6166, 4322.542
720.0987, 4333.804
720.5808, 4324.333
721.0629, 4321.267
721.5450, 4338.939
722.0272, 4345.128
722.5093, 4333.271
722.9914, 4345.142
723.4735, 4314.619
723.9556, 4321.297
724.4377, 4344.026
724.9199, 4333.211
725.4020, 4345.461
725.8841, 4348.927
726.3662, 4312.472
726.8483, 4345.443
727.3304, 4348.390
727.8126, 4320.508
728.2947, 4351.101
728.7768, 4327.469
729.2589, 4323.191
729.7410, 4333.480
730.2231, 4328.584
730.7053, 4347.628
731.1874, 4333.261
731.6695, 4328.837
732.1516, 4326.151
732.6337, 4325.178
733.1158, 4325.450
733.5980, 4327.069
734.0801, 4329.405
734.5622, 4333.172
735.0443, 4337.146
735.5264, 4318.575
736.0085, 4342.555
736.4906, 4356.002
736.9727, 4359.483
737.4548, 4323.146
737.9370, 4338.225
738.4191, 4332.699
738.9012, 4326.328
739.3833, 4348.644
739.8654, 4318.098
740.3475, 4339.959
740.8297, 4340.900
741.3118, 4351.416
741.7939, 4341.199
742.2760, 4337.386
742.7581, 4354.312
743.2402, 4359.754
743.7224, 4347.151
744.2045, 4351.773
744.6866, 4355.799
745.1687, 4337.990
745.6508, 4328.727
746.1329, 4342.261
746.6151, 4360.960
747.0972, 4366.159
747.5793, 4358.723
748.0614, 4352.281
748.5435, 4346.735
749.0256, 4342.943
749.5078, 4341.325
749.9899, 4341.371
750.4720, 4342.741
750.9541, 4345.378
751.4362, 4348.990
751.9183, 4353.124
752.4005, 4359.722
752.8826, 4377.577
753.3647, 4397.436
753.8468, 4392.488
754.3289, 4364.603
754.8110, 4347.415
755.2932, 4358.086
755.7753, 4379.093
756.2574, 4378.489
756.7395, 4332.602
757.2216, 4357.513
757.7037, 4371.892
758.1859, 4376.305
758.6680, 4340.900
759.1501, 4356.911
759.6322, 4352.317
760.1143, 4346.877
760.5964, 4370.125
761.0786, 4340.512
761.5607, 4363.305
762.0428, 4365.178
762.5249, 4376.625
763.0070, 4367.340
763.4891, 4353.200
763.9713, 4342.202
764.4534, 4340.285
764.9355, 4345.902
765.4176, 4361.731
765.8997, 4383.095
766.3818, 4396.611
766.8640, 4401.119
767.3461, 4394.973
767.8282, 4374.928
768.3103, 4355.845
768.7924, 4365.638
769.2745, 4409.737
769.7567, 4435.487
770.2388, 4436.289
770.7209, 4430.416
771.2030, 4417.371
771.6851, 4404.487
772.1672, 4400.770
772.6494, 4404.917
773.1315, 4403.432
773.6136, 4388.094
774.0957, 4373.831
774.5778, 4364.963
775.0599, 4360.813
775.5421, 4363.174
776.0242, 4369.531
776.5063, 4372.576
776.9884, 4368.138
777.4705, 4363.124
777.9526, 4366.917
778.4348, 4376.284
778.9169, 4383.229
779.3990, 4387.096
779.8811, 4385.546
780.3632, 4376.401
780.8453, 4370.318
781.3275, 4385.921
781.8096, 4424.535
782.2917, 4438.238
782.7738, 4411.994
783.2559, 4394.610
783.7380, 4405.323
784.2202, 4422.604
784.7023, 4428.553
785.1844, 4424.479
785.6665, 4416.534
786.1486, 4397.433
786.6307, 4385.892
787.1129, 4395.478
787.5950, 4407.145
788.0771, 4407.170
788.5592, 4396.464
789.0413, 4376.050
789.5234, 4345.419
790.0056, 4325.921
790.4877, 4353.483
790.9698, 4396.792
791.4519, 4391.341
791.9340, 4348.050
792.4161, 4324.986
792.8983, 4341.348
793.3804, 4372.037
793.8625, 4391.723
794.3446, 4401.706
794.8267, 4411.080
795.3088, 4422.913
795.7910, 4417.495
796.2731, 4381.386
796.7552, 4346.005
797.2373, 4336.757
797.7194, 4346.328
798.2015, 4348.150
798.6837, 4336.270
799.1658, 4329.888
799.6479, 4337.015
800.1300, 4342.705
800.6121, 4333.827
801.0942, 4321.779
801.5764, 4328.245
802.0585, 4355.379
802.5406, 4369.561
803.0227, 4336.156
803.5048, 4296.078
803.9869, 4288.981
804.4691, 4301.819
804.9512, 4314.093
805.4333, 4319.940
805.9154, 4314.056
806.3975, 4278.252
806.8796, 4289.991
807.3618, 4294.706
807.8439, 4292.778
808.3260, 4264.305
808.8081, 4270.109
809.2902, 4262.177
809.7723, 4253.682
810.2545, 4264.309
810.7366, 4239.697
811.2187, 4250.022
811.7008, 4246.401
812.1829, 4249.163
812.6650, 4238.104
813.1472, 4231.312
813.6293, 4238.348
814.1114, 4237.727
814.5935, 4224.020
815.0756, 4221.261
815.5577, 4210.826
816.0399, 4199.428
816.5220, 4184.406
817.0041, 4173.739
817.4862, 4178.733
817.9683, 4192.393
818.4504, 4199.139
818.9326, 4193.672
819.4147, 4185.383
819.8968, 4181.682
820.3789, 4180.811
820.8610, 4179.980
821.3431, 4179.416
821.8253, 4181.266
822.3074, 4185.711
822.7895, 4187.279
823.2716, 4180.622
823.7537, 4169.092
824.2358, 4163.487
824.7180, 4164.482
825.2001, 4163.336
825.6822, 4157.932
826.1643, 4155.220
826.6464, 4162.555
827.1285, 4170.939
827.6107, 4159.861
828.0928, 4118.663
828.5749, 4104.744
829.0570, 4153.922
829.5391, 4184.238
830.0212, 4156.228
830.5034, 4118.613
830.9855, 4117.114
831.4676, 4146.468
831.9497, 4168.800
832.4318, 4174.468
832.9139, 4170.425
833.3961, 4149.561
833.8782, 4128.724
834.3603, 4125.301
834.8424, 4134.526
835.3245, 4143.983
835.8066, 4149.230
836.2888, 4150.443
836.7709, 4147.307
837.2530, 4140.530
837.7351, 4128.464
838.2172, 4113.725
838.6993, 4106.344
839.1815, 4108.261
839.6636, 4110.618
840.1457, 4105.365
840.6278, 4098.763
841.1099, 4111.787
841.5920, 4146.315
842.0742, 4162.842
842.5563, 4155.889
843.0384, 4140.762
843.5205, 4122.617
844.0026, 4103.232
844.4847, 4083.500
844.9669, 4061.840
845.4490, 4055.186
845.9311, 4079.424
846.4132, 4095.161
846.8953, 4083.946
847.3774, 4072.888
847.8596, 4085.881
848.3417, 4114.604
848.8238, 4132.646
849.3059, 4134.667
849.7880, 4128.585
850.2701, 4111.363
850.7523, 4092.246
851.2344, 4073.323
851.7165, 4058.654
852.1986, 4055.408
852.6807, 4063.889
853.1628, 4073.346
853.6450, 4075.051
854.1271, 4076.348
854.6092, 4088.115
855.0913, 4104.006
855.5734, 4110.547
856.0555, 4107.863
856.5377, 4107.059
857.0198, 4114.488
857.5019, 4122.763
857.9840, 4117.900
858.4661, 4103.721
858.9482, 4101.440
859.4303, 4111.290
859.9124, 4123.827
860.3945, 4137.488
860.8766, 4142.227
861.3588, 4125.684
861.8409, 4093.009
862.3230, 4072.241
862.8051, 4064.591
863.2872, 4065.341
863.7693, 4078.168
864.2515, 4091.964
864.7336, 4104.662
865.2157, 4112.203
865.6978, 4104.408
866.1799, 4075.614
866.6620, 4059.152
867.1442, 4059.323
867.6263, 4066.310
868.1084, 4088.337
868.5905, 4107.526
869.0726, 4100.986
869.5547, 4078.616
870.0369, 4076.722
870.5190, 4114.241
871.0011, 4146.254
871.4832, 4150.672
871.9653, 4145.779
872.4474, 4147.066
872.9296, 4148.732
873.4117, 4136.234
873.8938, 4108.558
874.3759, 4083.938
874.8580, 4074.753
875.3401, 4074.142
875.8223, 4076.338
876.3044, 4080.685
876.7865, 4087.177
877.2686, 4094.802
877.7507, 4099.557
878.2328, 4099.381
878.7150, 4097.823
879.1971, 4098.794
879.6792, 4102.391
880.1613, 4109.960
880.6434, 4121.199
881.1255, 4132.258
881.6077, 4142.300
882.0898, 4149.614
882.5719, 4152.910
883.0540, 4151.924
883.5361, 4145.322
884.0182, 4132.439
884.5004, 4116.398
884.9825, 4092.460
885.4646, 4081.116
885.9467, 4095.858
886.4288, 4120.460
886.9109, 4134.049
887.3931, 4136.433
887.8752, 4138.302
888.3573, 4141.360
888.8394, 4141.108
889.3215, 4133.447
889.8036, 4125.945
890.2858, 4125.014
890.7679, 4126.428
891.2500, 4118.900
891.7321, 4096.366
892.2142, 4091.129
892.6964, 4131.152
893.1785, 4162.519
893.6606, 4155.566
894.1427, 4134.993
894.6248, 4125.796
895.1069, 4127.304
895.5891, 4125.384
896.0712, 4113.714
896.5533, 4102.110
897.0354, 4096.171
897.5175, 4092.832
897.9996, 4086.338
898.4818, 4081.360
898.9639, 4089.439
899.4460, 4111.188
899.9281, 4130.941
900.4102, 4137.299
900.8923, 4137.403
901.3745, 4140.452
901.8566, 4143.130
902.3387, 4136.524
902.8208, 4122.542
903.3029, 4111.854
903.7850, 4109.140
904.2672, 4113.388
904.7493, 4127.968
905.2314, 4146.715
905.7135, 4149.542
906.1956, 4138.617
906.6777, 4127.171
907.1599, 4118.038
907.6420, 4114.009
908.1241, 4117.698
908.6062, 4124.618
909.0883, 4124.200
909.5704, 4116.164
910.0526, 4117.716
910.5347, 4131.278
911.0168, 4138.112
911.4989, 4131.371
911.9810, 4119.067
912.4631, 4106.763
912.9453, 4096.558
913.4274, 4099.995
913.9095, 4124.870
914.3916, 4137.812
914.8737, 4128.920
915.3558, 4124.829
915.8380, 4141.396
916.3201, 4164.413
916.8022, 4174.731
917.2843, 4172.031
917.7664, 4172.778
918.2485, 4187.571
918.7307, 4189.995
919.2128, 4157.767
919.6949, 4133.824
920.1770, 4154.164
920.6591, 4193.065
921.1412, 4202.464
921.6234, 4173.677
922.1055, 4158.846
922.5876, 4185.913
923.0697, 4203.597
923.5518, 4183.297
924.0339, 4155.763
924.5161, 4145.480
924.9982, 4150.928
925.4803, 4162.908
925.9624, 4180.929
926.4445, 4196.300
926.9266, 4213.416
927.4088, 4218.068
927.8909, 4185.565
928.3730, 4144.216
928.8551, 4132.711
929.3372, 4150.449
929.8193, 4169.019
930.3015, 4174.561
930.7836, 4181.826
931.2657, 4216.566
931.7478, 4246.904
932.2299, 4228.249
932.7120, 4179.978
933.1942, 4136.928
933.6763, 4111.542
934.1584, 4117.154
934.6405, 4178.694
935.1226, 4241.371
935.6047, 4223.385
936.0869, 4167.170
936.5690, 4150.525
937.0511, 4171.451
937.5332, 4199.486
938.0153, 4222.384
938.4974, 4235.519
938.9796, 4232.233
939.4617, 4219.065
939.9438, 4204.965
940.4259, 4192.330
940.9080, 4192.920
941.3901, 4206.067
941.8723, 4213.949
942.3544, 4207.783
942.8365, 4201.886
943.3186, 4219.971
943.8007, 4251.960
944.2828, 4250.198
944.7650, 4218.750
945.2471, 4207.340
945.7292, 4225.227
946.2113, 4247.248
946.6934, 4259.004
947.1755, 4261.002
947.6577, 4250.850
948.1398, 4229.600
948.6219, 4221.183
949.1040, 4226.907
949.5861, 4228.737
950.0682, 4221.794
950.5504, 4213.238
951.0325, 4207.705
951.5146, 4205.574
951.9967, 4208.039
952.4788, 4215.487
952.9609, 4225.333
953.4431, 4238.796
953.9252, 4250.093
954.4073, 4257.797
954.8894, 4261.944
955.3715, 4261.439
955.8536, 4258.113
956.3358, 4259.099
956.8179, 4266.572
957.3000, 4271.278
957.7821, 4272.462
958.2642, 4272.503
958.7463, 4272.414
959.2285, 4271.004
959.7106, 4265.133
960.1927, 4256.621
960.6748, 4257.627
961.1569, 4275.174
961.6390, 4287.260
962.1212, 4291.871
962.6033, 4293.404
963.0854, 4294.635
963.5675, 4292.577
964.0496, 4278.880
964.5317, 4255.392
965.0139, 4250.273
965.4960, 4279.771
965.9781, 4301.926
966.4602, 4316.242
966.9423, 4322.162
967.4244, 4307.886
967.9066, 4292.104
968.3887, 4304.514
968.8708, 4344.588
969.3529, 4364.535
969.8350, 4349.860
970.3171, 4332.143
970.7993, 4310.628
971.2814, 4291.894
971.7635, 4269.137
972.2456, 4256.725
972.7277, 4286.664
973.2098, 4360.574
973.6920, 4400.727
974.1741, 4369.852
974.6562, 4340.656
975.1383, 4323.791
975.6204, 4318.677
976.1025, 4329.936
976.5847, 4350.186
977.0668, 4369.623
977.5489, 4387.167
978.0310, 4398.449
978.5131, 4398.121
978.9952, 4397.245
979.4774, 4399.953
979.9595, 4402.586
980.4416, 4400.917
980.9237, 4397.838
981.4058, 4399.365
981.8879, 4406.578
982.3700, 4412.788
982.8521, 4417.200
983.3342, 4418.700
983.8163, 4415.734
984.2985, 4410.710
984.7806, 4400.875
985.2627, 4391.988
985.7448, 4397.415
986.2269, 4420.324
986.7090, 4438.034
987.1912, 4436.716
987.6733, 4435.766
988.1554, 4449.966
988.6375, 4462.984
989.1196, 4431.997
989.6017, 4457.666
990.0839, 4472.803
990.5660, 4477.973
991.0481, 4443.325
991.5302, 4460.094
992.0123, 4456.257
992.4944, 4451.575
992.9766, 4475.581
993.4587, 4446.725
993.9408, 4470.275
994.4229, 4472.905
994.9050, 4485.110
995.3871, 4476.583
995.8693, 4474.459
996.3514, 4493.074
996.8335, 4500.206
997.3156, 4489.292
997.7977, 4502.105
998.2798, 4472.524
998.7620, 4480.146
999.2441, 4503.817
999.7262, 4493.946
1000.208, 4507.137
1000.690, 4511.545
1001.173, 4476.036
1001.655, 4509.950
1002.137, 4513.839
1002.619, 4486.899
1003.101, 4518.434
1003.583, 4495.744
1004.065, 4492.409
1004.547, 4520.481
1005.029, 4529.455
1005.512, 4498.623
1005.994, 4519.195
1006.476, 4519.162
1006.958, 4518.285
1007.440, 4546.094
1007.922, 4521.041
1008.404, 4548.396
1008.886, 4554.830
1009.369, 4570.851
1009.851, 4566.127
1010.333, 4567.807
1010.815, 4590.226
1011.297, 4601.162
1011.779, 4594.051
1012.261, 4610.668
1012.743, 4584.892
1013.225, 4596.317
1013.708, 4604.733
1014.190, 4622.966
1014.672, 4643.163
1015.154, 4644.584
1015.636, 4636.600
1016.118, 4641.175
1016.600, 4661.941
1017.082, 4674.824
1017.565, 4659.730
1018.047, 4650.157
1018.529, 4666.048
1019.011, 4686.318
1019.493, 4693.801
1019.975, 4694.163
1020.457, 4701.852
1020.939, 4718.167
1021.421, 4722.227
1021.904, 4690.623
1022.386, 4669.357
1022.868, 4678.777
1023.350, 4698.119
1023.832, 4717.356
1024.314, 4734.982
1024.796, 4750.013
1025.278, 4762.488
1025.760, 4773.884
1026.243, 4783.578
1026.725, 4793.670
1027.207, 4808.306
1027.689, 4819.526
1028.171, 4818.812
1028.653, 4814.397
1029.135, 4819.230
1029.617, 4832.649
1030.100, 4838.988
1030.582, 4830.159
1031.064, 4823.348
1031.546, 4813.662
1032.028, 4815.484
1032.510, 4853.903
1032.992, 4894.403
1033.474, 4889.044
1033.957, 4845.681
1034.439, 4827.929
1034.921, 4859.483
1035.403, 4881.071
1035.885, 4880.983
1036.367, 4879.895
1036.849, 4880.745
1037.331, 4887.281
1037.813, 4910.853
1038.296, 4944.277
1038.778, 4953.924
1039.260, 4923.649
1039.742, 4909.369
1040.224, 4921.536
1040.706, 4934.165
1041.188, 4941.184
1041.670, 4945.483
1042.152, 4945.928
1042.635, 4946.581
1043.117, 4960.331
1043.599, 4992.095
1044.081, 5016.521
1044.563, 5035.096
1045.045, 5042.826
1045.527, 5036.411
1046.009, 5021.488
1046.491, 4994.447
1046.974, 4969.377
1047.456, 4979.156
1047.938, 5027.936
1048.420, 5056.717
1048.902, 5060.576
1049.384, 5061.534
1049.866, 5062.832
1050.348, 5062.259
1050.831, 5056.969
1051.313, 5052.800
1051.795, 5059.676
1052.277, 5076.566
1052.759, 5086.894
1053.241, 5088.150
1053.723, 5110.952
1054.205, 5164.617
1054.688, 5195.897
1055.170, 5177.062
1055.652, 5143.600
1056.134, 5136.912
1056.616, 5151.262
1057.098, 5167.822
1057.580, 5186.028
1058.062, 5189.801
1058.544, 5178.534
1059.026, 5181.784
1059.509, 5210.256
1059.991, 5240.325
1060.473, 5251.424
1060.955, 5247.967
1061.437, 5232.442
1061.919, 5210.693
1062.401, 5208.156
1062.883, 5224.078
1063.366, 5253.436
1063.848, 5291.964
1064.330, 5313.226
1064.812, 5298.033
1065.294, 5269.133
1065.776, 5250.254
1066.258, 5244.550
1066.740, 5267.347
1067.223, 5306.750
1067.705, 5333.470
1068.187, 5343.436
1068.669, 5344.110
1069.151, 5338.779
1069.633, 5335.902
1070.115, 5340.894
1070.597, 5354.996
1071.079, 5387.484
1071.562, 5425.403
1072.044, 5448.478
1072.526, 5458.377
1073.008, 5466.759
1073.490, 5476.999
1073.972, 5482.478
1074.454, 5472.953
1074.936, 5465.189
1075.418, 5463.310
1075.901, 5475.524
1076.383, 5527.569
1076.865, 5590.983
1077.347, 5614.670
1077.829, 5594.726
1078.311, 5575.748
1078.793, 5569.846
1079.275, 5574.093
1079.758, 5590.994
1080.240, 5613.685
1080.722, 5644.370
1081.204, 5674.196
1081.686, 5691.335
1082.168, 5698.460
1082.650, 5709.530
1083.132, 5730.071
1083.615, 5743.994
1084.097, 5732.950
1084.579, 5737.507
1085.061, 5788.715
1085.543, 5840.012
1086.025, 5854.675
1086.507, 5847.445
1086.989, 5849.232
1087.471, 5861.260
1087.953, 5872.507
1088.436, 5882.892
1088.918, 5893.115
1089.400, 5905.463
1089.882, 5911.331
1090.364, 5900.865
1090.846, 5892.647
1091.328, 5914.347
1091.810, 5960.334
1092.293, 5987.477
1092.775, 5993.148
1093.257, 6011.022
1093.739, 6046.560
1094.221, 6055.767
1094.703, 6019.918
1095.185, 5985.386
1095.667, 5993.809
1096.150, 6027.271
1096.632, 6045.161
1097.114, 6052.397
1097.596, 6082.150
1098.078, 6129.024
1098.560, 6153.326
1099.042, 6149.105
1099.524, 6140.615
1100.006, 6141.313
1100.489, 6146.787
1100.971, 6149.319
1101.453, 6154.943
1101.935, 6182.000
1102.417, 6216.253
1102.899, 6222.961
1103.381, 6210.123
1103.863, 6216.486
1104.345, 6252.182
1104.828, 6281.928
1105.310, 6277.221
1105.792, 6262.502
1106.274, 6294.839
1106.756, 6316.641
1107.238, 6328.478
1107.720, 6300.495
1108.202, 6323.931
1108.685, 6326.779
1109.167, 6328.762
1109.649, 6359.435
1110.131, 6337.244
1110.613, 6367.461
1111.095, 6376.757
1111.577, 6395.629
1112.059, 6393.767
1112.542, 6398.327
1113.024, 6423.610
1113.506, 6437.407
1113.988, 6433.160
1114.470, 6452.639
1114.952, 6429.726
1115.434, 6444.012
1115.916, 6474.351
1116.398, 6471.145
1116.880, 6491.004
1117.363, 6457.829
1117.845, 6476.239
1118.327, 6508.549
1118.809, 6528.380
1119.291, 6534.345
1119.773, 6538.548
1120.255, 6540.982
1120.737, 6546.175
1121.220, 6555.117
1121.702, 6572.701
1122.184, 6603.893
1122.666, 6639.449
1123.148, 6665.285
1123.630, 6681.173
1124.112, 6678.717
1124.594, 6665.288
1125.077, 6675.780
1125.559, 6708.245
1126.041, 6723.002
1126.523, 6705.322
1127.005, 6688.858
1127.487, 6703.622
1127.969, 6732.117
1128.451, 6758.147
1128.933, 6782.881
1129.416, 6807.566
1129.898, 6832.044
1130.380, 6859.004
1130.862, 6886.102
1131.344, 6900.590
1131.826, 6892.429
1132.308, 6889.280
1132.790, 6910.770
1133.272, 6931.382
1133.755, 6933.055
1134.237, 6932.259
1134.719, 6944.484
1135.201, 6965.893
1135.683, 6984.989
1136.165, 6999.958
1136.647, 7024.493
1137.129, 7074.793
1137.612, 7105.132
1138.094, 7104.724
1138.576, 7095.368
1139.058, 7077.452
1139.540, 7070.000
1140.022, 7096.511
1140.504, 7146.059
1140.986, 7179.045
1141.469, 7194.169
1141.951, 7213.102
1142.433, 7236.589
1142.915, 7244.150
1143.397, 7231.270
1143.879, 7229.572
1144.361, 7258.125
1144.843, 7291.691
1145.325, 7294.160
1145.807, 7283.478
1146.290, 7311.030
1146.772, 7352.900
1147.254, 7338.895
1147.736, 7287.323
1148.218, 7275.029
1148.700, 7316.607
1149.182, 7358.468
1149.664, 7367.670
1150.147, 7378.342
1150.629, 7432.727
1151.111, 7480.695
1151.593, 7473.275
1152.075, 7443.284
1152.557, 7416.619
1153.039, 7404.423
1153.521, 7432.231
1154.004, 7509.800
1154.486, 7554.011
1154.968, 7520.098
1155.450, 7496.435
1155.932, 7496.086
1156.414, 7511.663
1156.896, 7556.214
1157.378, 7596.503
1157.860, 7593.032
1158.343, 7558.402
1158.825, 7540.256
1159.307, 7539.256
1159.789, 7551.503
1160.271, 7578.050
1160.753, 7609.382
1161.235, 7643.843
1161.717, 7675.501
1162.199, 7701.444
1162.682, 7713.062
1163.164, 7689.663
1163.646, 7657.986
1164.128, 7687.384
1164.610, 7752.824
1165.092, 7799.692
1165.574, 7823.406
1166.056, 7816.956
1166.539, 7788.223
1167.021, 7784.182
1167.503, 7834.703
1167.985, 7881.795
1168.467, 7881.351
1168.949, 7866.701
1169.431, 7850.284
1169.913, 7841.463
1170.395, 7848.796
1170.878, 7869.949
1171.360, 7905.083
1171.842, 7953.576
1172.324, 7982.919
1172.806, 7988.643
1173.288, 7974.006
1173.770, 7909.772
1174.252, 7879.238
1174.734, 7924.863
1175.217, 7982.543
1175.699, 8002.914
1176.181, 7995.489
1176.663, 7972.471
1177.145, 7938.015
1177.627, 7967.997
1178.109, 8058.163
1178.591, 8108.777
1179.073, 8109.663
1179.556, 8098.616
1180.038, 8090.503
1180.520, 8086.815
1181.002, 8086.686
1181.484, 8098.735
1181.966, 8148.773
1182.448, 8205.898
1182.930, 8228.862
1183.413, 8227.034
1183.895, 8203.047
1184.377, 8174.096
1184.859, 8184.832
1185.341, 8247.999
1185.823, 8306.059
1186.305, 8344.555
1186.787, 8364.367
1187.270, 8353.296
1187.752, 8338.084
1188.234, 8321.701
1188.716, 8318.350
1189.198, 8349.807
1189.680, 8402.157
1190.162, 8431.174
1190.644, 8433.311
1191.126, 8441.895
1191.609, 8457.995
1192.091, 8473.342
1192.573, 8486.599
1193.055, 8502.137
1193.537, 8522.226
1194.019, 8536.875
1194.501, 8533.836
1194.983, 8525.908
1195.465, 8538.188
1195.948, 8561.886
1196.430, 8581.602
1196.912, 8596.561
1197.394, 8603.258
1197.876, 8605.745
1198.358, 8622.098
1198.840, 8658.425
1199.322, 8678.557
1199.805, 8641.200
1200.287, 8614.946
1200.769, 8641.799
1201.251, 8675.225
1201.733, 8685.124
1202.215, 8686.483
1202.697, 8696.154
1203.179, 8713.338
1203.661, 8734.931
1204.144, 8761.844
1204.626, 8788.622
1205.108, 8818.977
1205.590, 8828.635
1206.072, 8809.729
1206.554, 8804.634
1207.036, 8832.393
1207.518, 8867.059
1208.000, 8884.112
1208.483, 8890.471
1208.965, 8895.748
1209.447, 8901.964
1209.929, 8914.457
1210.411, 8931.333
1210.893, 8948.548
1211.375, 8965.640
1211.857, 8984.691
1212.340, 9006.018
1212.822, 9024.408
1213.304, 9036.425
1213.786, 9046.125
1214.268, 9046.070
1214.750, 9055.176
1215.232, 9099.492
1215.714, 9144.218
##END=



