##NAMES=Brewsterite-Sr
##RRUFFID=R070227
##IDEAL CHEMISTRY=Sr(Al_2_Si_6_)O_16_&#183;5H_2_O
##LOCALITY=Strontian, North West Highlands (Argyllshire), Scotland, UK
##OWNER=RRUFF
##SOURCE=Michael Scott
##DESCRIPTION=Colorless to off-white striated prismatic crystals associated with calcite and pyrite on gneissic matrix
##STATUS=The identification of this mineral has been confirmed only by single crystal X-ray diffraction.
##URL=rruff.info/R070227
130.3772, 1242.145
130.8593, 1290.610
131.3414, 1338.424
131.8235, 1391.816
132.3056, 1450.590
132.7877, 1513.544
133.2699, 1580.266
133.7520, 1651.231
134.2341, 1721.740
134.7162, 1792.504
135.1983, 1863.880
135.6804, 1922.888
136.1626, 1966.232
136.6447, 2000.798
137.1268, 2041.414
137.6089, 2091.383
138.0910, 2134.620
138.5731, 2159.946
139.0553, 2163.732
139.5374, 2168.679
140.0195, 2177.625
140.5016, 2188.389
140.9837, 2190.858
141.4658, 2179.679
141.9480, 2168.667
142.4301, 2168.343
142.9122, 2185.743
143.3943, 2198.613
143.8764, 2202.086
144.3585, 2196.441
144.8407, 2197.050
145.3228, 2204.923
145.8049, 2218.314
146.2870, 2235.834
146.7691, 2259.749
147.2512, 2284.517
147.7334, 2309.077
148.2155, 2333.672
148.6976, 2358.009
149.1797, 2380.647
149.6618, 2403.515
150.1439, 2428.917
150.6261, 2456.408
151.1082, 2486.544
151.5903, 2518.873
152.0724, 2551.772
152.5545, 2590.325
153.0366, 2641.694
153.5188, 2698.561
154.0009, 2746.331
154.4830, 2779.223
154.9651, 2805.844
155.4472, 2829.929
155.9293, 2849.004
156.4115, 2869.849
156.8936, 2895.114
157.3757, 2923.587
157.8578, 2951.420
158.3399, 2971.458
158.8221, 2993.938
159.3042, 3025.794
159.7863, 3083.776
160.2684, 3136.574
160.7505, 3170.581
161.2326, 3188.289
161.7148, 3206.455
162.1969, 3230.120
162.6790, 3258.576
163.1611, 3290.791
163.6432, 3335.123
164.1253, 3376.530
164.6075, 3404.205
165.0896, 3417.660
165.5717, 3432.517
166.0538, 3464.353
166.5359, 3501.886
167.0180, 3529.116
167.5002, 3529.923
167.9823, 3524.136
168.4644, 3528.707
168.9465, 3546.679
169.4286, 3562.445
169.9107, 3564.942
170.3929, 3556.808
170.8750, 3543.637
171.3571, 3529.163
171.8392, 3510.848
172.3213, 3485.215
172.8034, 3451.102
173.2856, 3412.953
173.7677, 3372.372
174.2498, 3330.336
174.7319, 3290.934
175.2140, 3259.284
175.6961, 3231.162
176.1783, 3199.136
176.6604, 3159.479
177.1425, 3120.514
177.6246, 3098.072
178.1067, 3089.262
178.5888, 3073.692
179.0710, 3030.747
179.5531, 2970.523
180.0352, 2915.369
180.5173, 2870.608
180.9994, 2833.995
181.4815, 2805.729
181.9637, 2785.318
182.4458, 2765.202
182.9279, 2737.903
183.4100, 2705.072
183.8921, 2672.139
184.3742, 2638.483
184.8564, 2606.596
185.3385, 2584.811
185.8206, 2573.517
186.3027, 2565.324
186.7848, 2553.806
187.2669, 2539.058
187.7491, 2521.443
188.2312, 2499.329
188.7133, 2474.460
189.1954, 2452.764
189.6775, 2434.543
190.1596, 2418.796
190.6418, 2403.013
191.1239, 2387.397
191.6060, 2376.605
192.0881, 2375.710
192.5702, 2383.085
193.0524, 2383.616
193.5345, 2375.962
194.0166, 2364.982
194.4987, 2358.383
194.9808, 2356.449
195.4629, 2354.557
195.9451, 2351.203
196.4272, 2346.333
196.9093, 2337.818
197.3914, 2323.657
197.8735, 2308.891
198.3556, 2305.768
198.8378, 2316.620
199.3199, 2324.390
199.8020, 2315.790
200.2841, 2289.046
200.7662, 2274.686
201.2483, 2277.663
201.7305, 2291.043
202.2126, 2297.591
202.6947, 2295.810
203.1768, 2292.792
203.6589, 2292.217
204.1410, 2294.043
204.6232, 2299.132
205.1053, 2309.106
205.5874, 2321.724
206.0695, 2328.802
206.5516, 2328.540
207.0337, 2327.466
207.5159, 2329.632
207.9980, 2335.050
208.4801, 2344.043
208.9622, 2359.064
209.4443, 2377.647
209.9264, 2386.145
210.4086, 2380.225
210.8907, 2372.914
211.3728, 2375.328
211.8549, 2391.131
212.3370, 2403.850
212.8191, 2409.337
213.3013, 2409.021
213.7834, 2415.539
214.2655, 2430.031
214.7476, 2449.619
215.2297, 2472.999
215.7118, 2503.413
216.1940, 2529.128
216.6761, 2547.174
217.1582, 2557.968
217.6403, 2567.510
218.1224, 2571.806
218.6045, 2580.007
219.0867, 2603.708
219.5688, 2652.707
220.0509, 2693.301
220.5330, 2715.085
221.0151, 2717.813
221.4972, 2726.657
221.9794, 2740.395
222.4615, 2761.664
222.9436, 2795.564
223.4257, 2850.753
223.9078, 2901.129
224.3899, 2938.690
224.8721, 2962.670
225.3542, 2990.771
225.8363, 3025.736
226.3184, 3062.448
226.8005, 3094.733
227.2827, 3118.198
227.7648, 3145.266
228.2469, 3179.531
228.7290, 3221.653
229.2111, 3264.782
229.6932, 3308.877
230.1754, 3353.496
230.6575, 3400.035
231.1396, 3454.542
231.6217, 3499.237
232.1038, 3524.818
232.5859, 3524.462
233.0681, 3542.616
233.5502, 3586.766
234.0323, 3643.854
234.5144, 3696.144
234.9965, 3741.960
235.4786, 3785.166
235.9608, 3827.130
236.4429, 3867.643
236.9250, 3906.003
237.4071, 3944.707
237.8892, 3979.395
238.3713, 4001.396
238.8535, 4000.481
239.3356, 4004.169
239.8177, 4024.112
240.2998, 4068.439
240.7819, 4097.440
241.2640, 4106.769
241.7462, 4103.777
242.2283, 4101.015
242.7104, 4099.626
243.1925, 4096.624
243.6746, 4091.567
244.1567, 4085.492
244.6389, 4073.345
245.1210, 4053.595
245.6031, 4028.766
246.0852, 4004.160
246.5673, 3983.903
247.0494, 3956.733
247.5316, 3916.661
248.0137, 3857.707
248.4958, 3805.714
248.9779, 3761.455
249.4600, 3724.020
249.9421, 3694.912
250.4243, 3682.968
250.9064, 3663.145
251.3885, 3623.786
251.8706, 3556.186
252.3527, 3497.544
252.8348, 3450.258
253.3170, 3410.523
253.7991, 3371.750
254.2812, 3334.471
254.7633, 3297.940
255.2454, 3262.170
255.7275, 3228.228
256.2097, 3191.340
256.6918, 3147.839
257.1739, 3104.324
257.6560, 3075.229
258.1381, 3070.397
258.6202, 3059.445
259.1024, 3027.448
259.5845, 2966.695
260.0666, 2918.280
260.5487, 2884.155
261.0308, 2861.026
261.5129, 2842.978
261.9951, 2832.943
262.4772, 2821.336
262.9593, 2804.001
263.4414, 2779.261
263.9235, 2756.068
264.4056, 2734.427
264.8878, 2714.062
265.3699, 2694.322
265.8520, 2675.557
266.3341, 2655.909
266.8162, 2633.743
267.2983, 2608.459
267.7805, 2585.270
268.2626, 2563.372
268.7447, 2544.717
269.2268, 2534.627
269.7089, 2536.221
270.1910, 2535.219
270.6732, 2525.433
271.1553, 2506.018
271.6374, 2485.740
272.1195, 2463.726
272.6016, 2442.092
273.0837, 2426.067
273.5659, 2416.941
274.0480, 2406.457
274.5301, 2390.537
275.0122, 2368.998
275.4943, 2348.607
275.9764, 2328.594
276.4586, 2311.180
276.9407, 2299.816
277.4228, 2294.876
277.9049, 2293.835
278.3870, 2298.514
278.8691, 2308.350
279.3513, 2309.603
279.8334, 2300.843
280.3155, 2287.167
280.7976, 2274.294
281.2798, 2262.294
281.7619, 2252.070
282.2440, 2244.272
282.7261, 2238.692
283.2082, 2233.769
283.6903, 2229.485
284.1725, 2225.926
284.6546, 2224.776
285.1367, 2225.820
285.6188, 2222.761
286.1009, 2209.608
286.5830, 2190.186
287.0652, 2182.499
287.5473, 2187.929
288.0294, 2197.237
288.5115, 2201.873
288.9936, 2201.905
289.4757, 2197.653
289.9579, 2185.952
290.4400, 2170.841
290.9221, 2163.703
291.4042, 2164.888
291.8863, 2169.682
292.3684, 2174.234
292.8506, 2178.610
293.3327, 2183.296
293.8148, 2189.576
294.2969, 2195.647
294.7790, 2197.828
295.2611, 2196.110
295.7433, 2192.592
296.2254, 2188.278
296.7075, 2183.475
297.1896, 2178.922
297.6717, 2172.980
298.1538, 2168.865
298.6360, 2174.658
299.1181, 2189.406
299.6002, 2201.210
300.0823, 2196.675
300.5644, 2183.284
301.0465, 2175.507
301.5287, 2179.491
302.0108, 2187.643
302.4929, 2192.280
302.9750, 2193.743
303.4571, 2193.718
303.9392, 2191.914
304.4214, 2189.753
304.9035, 2189.895
305.3856, 2195.959
305.8677, 2199.634
306.3498, 2187.468
306.8319, 2164.904
307.3141, 2150.982
307.7962, 2163.623
308.2783, 2187.404
308.7604, 2208.589
309.2425, 2225.834
309.7246, 2236.053
310.2068, 2232.790
310.6889, 2220.389
311.1710, 2210.132
311.6531, 2206.140
312.1352, 2207.164
312.6173, 2213.593
313.0995, 2227.687
313.5816, 2240.470
314.0637, 2245.930
314.5458, 2247.310
315.0279, 2250.766
315.5100, 2262.784
315.9922, 2274.390
316.4743, 2279.137
316.9564, 2273.566
317.4385, 2272.439
317.9206, 2285.113
318.4027, 2304.126
318.8849, 2319.051
319.3670, 2324.150
319.8491, 2327.273
320.3312, 2330.805
320.8133, 2334.831
321.2954, 2340.001
321.7776, 2345.492
322.2597, 2352.571
322.7418, 2362.590
323.2239, 2380.748
323.7060, 2396.871
324.1881, 2408.808
324.6703, 2416.397
325.1524, 2420.922
325.6345, 2414.948
326.1166, 2409.870
326.5987, 2414.848
327.0808, 2437.927
327.5630, 2461.728
328.0451, 2487.353
328.5272, 2514.281
329.0093, 2530.934
329.4914, 2531.799
329.9735, 2527.080
330.4557, 2522.948
330.9378, 2518.527
331.4199, 2516.289
331.9020, 2517.035
332.3841, 2520.202
332.8662, 2522.683
333.3484, 2522.574
333.8305, 2524.635
334.3126, 2531.863
334.7947, 2545.632
335.2768, 2560.899
335.7589, 2580.371
336.2411, 2599.541
336.7232, 2604.251
337.2053, 2587.754
337.6874, 2576.435
338.1695, 2585.881
338.6516, 2619.184
339.1338, 2645.865
339.6159, 2665.117
340.0980, 2677.744
340.5801, 2679.802
341.0622, 2669.085
341.5443, 2669.087
342.0265, 2697.113
342.5086, 2748.525
342.9907, 2781.455
343.4728, 2793.987
343.9549, 2794.419
344.4370, 2785.035
344.9192, 2767.987
345.4013, 2764.591
345.8834, 2789.101
346.3655, 2830.817
346.8476, 2861.122
347.3297, 2879.702
347.8119, 2893.411
348.2940, 2906.692
348.7761, 2919.853
349.2582, 2933.262
349.7403, 2946.204
350.2225, 2960.635
350.7046, 2981.355
351.1867, 3007.606
351.6688, 3032.090
352.1509, 3044.754
352.6331, 3053.577
353.1152, 3071.084
353.5973, 3102.373
354.0794, 3138.620
354.5615, 3177.020
355.0436, 3214.988
355.5258, 3244.661
356.0079, 3248.943
356.4900, 3250.122
356.9721, 3268.876
357.4542, 3311.946
357.9363, 3360.495
358.4185, 3407.723
358.9006, 3452.894
359.3827, 3494.737
359.8648, 3526.180
360.3469, 3559.382
360.8290, 3600.796
361.3112, 3651.750
361.7933, 3706.578
362.2754, 3770.198
362.7575, 3834.662
363.2396, 3891.571
363.7217, 3921.402
364.2039, 3960.338
364.6860, 4021.119
365.1681, 4104.443
365.6502, 4186.336
366.1323, 4263.354
366.6144, 4339.119
367.0966, 4416.386
367.5787, 4492.593
368.0608, 4572.621
368.5429, 4658.615
369.0250, 4749.619
369.5071, 4837.935
369.9893, 4916.744
370.4714, 5000.307
370.9535, 5097.358
371.4356, 5217.029
371.9177, 5326.790
372.3998, 5423.216
372.8820, 5511.445
373.3641, 5601.625
373.8462, 5694.598
374.3283, 5786.782
374.8104, 5876.208
375.2925, 5963.767
375.7747, 6048.489
376.2568, 6133.617
376.7389, 6210.938
377.2210, 6264.085
377.7031, 6291.211
378.1852, 6321.271
378.6674, 6368.348
379.1495, 6425.255
379.6316, 6461.810
380.1137, 6476.562
380.5958, 6481.305
381.0779, 6487.503
381.5601, 6493.336
382.0422, 6489.344
382.5243, 6472.064
383.0064, 6445.640
383.4885, 6416.263
383.9706, 6383.602
384.4528, 6347.306
384.9349, 6312.148
385.4170, 6271.643
385.8991, 6210.770
386.3812, 6121.234
386.8633, 6029.082
387.3455, 5960.994
387.8276, 5909.092
388.3097, 5854.171
388.7918, 5778.068
389.2739, 5701.172
389.7560, 5642.967
390.2382, 5606.580
390.7203, 5568.939
391.2024, 5515.258
391.6845, 5454.488
392.1666, 5396.223
392.6487, 5348.719
393.1309, 5299.910
393.6130, 5239.751
394.0951, 5170.079
394.5772, 5115.198
395.0593, 5094.404
395.5414, 5081.969
396.0236, 5062.012
396.5057, 5017.901
396.9878, 4983.226
397.4699, 4969.279
397.9520, 4968.234
398.4341, 4955.285
398.9163, 4913.396
399.3984, 4877.337
399.8805, 4861.724
400.3626, 4876.830
400.8447, 4881.568
401.3268, 4871.611
401.8090, 4854.473
402.2911, 4840.296
402.7732, 4830.008
403.2553, 4820.574
403.7374, 4810.907
404.2195, 4801.147
404.7017, 4794.172
405.1838, 4790.511
405.6659, 4788.164
406.1480, 4786.414
406.6301, 4785.328
407.1122, 4779.855
407.5944, 4766.773
408.0765, 4751.154
408.5586, 4747.486
409.0407, 4755.503
409.5228, 4762.423
410.0049, 4760.286
410.4871, 4750.525
410.9692, 4734.064
411.4513, 4708.287
411.9334, 4686.673
412.4155, 4686.509
412.8976, 4703.227
413.3798, 4723.300
413.8619, 4750.232
414.3440, 4772.087
414.8261, 4773.250
415.3082, 4753.500
415.7903, 4731.212
416.2725, 4715.964
416.7546, 4705.640
417.2367, 4697.865
417.7188, 4699.316
418.2009, 4695.225
418.6830, 4673.648
419.1652, 4639.471
419.6473, 4611.458
420.1294, 4599.329
420.6115, 4592.223
421.0937, 4585.913
421.5758, 4586.639
422.0579, 4573.608
422.5400, 4530.378
423.0221, 4474.629
423.5042, 4434.590
423.9864, 4425.050
424.4685, 4416.128
424.9506, 4401.774
425.4327, 4381.986
425.9148, 4359.659
426.3969, 4337.876
426.8791, 4310.082
427.3612, 4267.888
427.8433, 4203.395
428.3254, 4150.612
428.8075, 4118.557
429.2896, 4099.928
429.7718, 4070.052
430.2539, 4027.277
430.7360, 3982.005
431.2181, 3941.648
431.7002, 3905.601
432.1823, 3864.345
432.6645, 3816.594
433.1466, 3766.159
433.6287, 3717.794
434.1108, 3671.569
434.5929, 3627.679
435.0750, 3588.639
435.5572, 3551.370
436.0393, 3510.011
436.5214, 3464.726
437.0035, 3418.788
437.4856, 3376.659
437.9677, 3335.344
438.4499, 3289.646
438.9320, 3232.468
439.4141, 3180.458
439.8962, 3150.736
440.3783, 3136.099
440.8604, 3117.107
441.3426, 3077.646
441.8247, 3037.414
442.3068, 3008.559
442.7889, 2994.671
443.2710, 2981.229
443.7531, 2967.101
444.2353, 2950.427
444.7174, 2928.895
445.1995, 2886.703
445.6816, 2856.925
446.1637, 2851.485
446.6458, 2867.507
447.1280, 2873.790
447.6101, 2864.182
448.0922, 2851.583
448.5743, 2843.073
449.0564, 2840.096
449.5385, 2837.181
450.0207, 2834.091
450.5028, 2831.090
450.9849, 2828.165
451.4670, 2824.838
451.9491, 2824.126
452.4312, 2827.482
452.9134, 2834.598
453.3955, 2843.161
453.8776, 2853.114
454.3597, 2864.637
454.8418, 2879.396
455.3239, 2896.277
455.8061, 2909.492
456.2882, 2916.135
456.7703, 2921.322
457.2524, 2930.031
457.7345, 2942.866
458.2166, 2962.700
458.6988, 2995.106
459.1809, 3033.362
459.6630, 3070.097
460.1451, 3104.828
460.6272, 3138.746
461.1093, 3167.938
461.5915, 3198.042
462.0736, 3235.554
462.5557, 3291.239
463.0378, 3346.289
463.5199, 3386.300
464.0020, 3414.972
464.4842, 3462.053
464.9663, 3554.068
465.4484, 3650.617
465.9305, 3730.049
466.4126, 3777.672
466.8947, 3834.071
467.3769, 3899.730
467.8590, 3973.623
468.3411, 4056.403
468.8232, 4153.128
469.3053, 4247.777
469.7874, 4334.719
470.2696, 4414.818
470.7517, 4504.054
471.2338, 4602.621
471.7159, 4708.824
472.1980, 4823.828
472.6801, 4947.740
473.1623, 5063.183
473.6444, 5166.630
474.1265, 5264.468
474.6086, 5367.187
475.0907, 5474.189
475.5728, 5581.598
476.0550, 5688.231
476.5371, 5794.098
477.0192, 5896.159
477.5013, 5994.686
477.9834, 6095.591
478.4655, 6203.892
478.9477, 6317.634
479.4298, 6432.673
479.9119, 6547.438
480.3940, 6665.599
480.8761, 6788.567
481.3582, 6915.851
481.8404, 7044.626
482.3225, 7164.952
482.8046, 7293.929
483.2867, 7442.190
483.7688, 7615.808
484.2509, 7790.555
484.7331, 7954.182
485.2152, 8122.822
485.6973, 8316.605
486.1794, 8550.553
486.6615, 8785.594
487.1436, 9022.520
487.6258, 9257.809
488.1079, 9472.014
488.5900, 9656.088
489.0721, 9840.717
489.5542, 10054.24
490.0363, 10298.26
490.5185, 10491.58
491.0006, 10626.07
491.4827, 10724.55
491.9648, 10817.86
492.4470, 10901.55
492.9291, 10947.86
493.4112, 10940.34
493.8933, 10895.26
494.3754, 10841.52
494.8575, 10775.16
495.3397, 10674.59
495.8218, 10528.83
496.3039, 10337.69
496.7860, 10097.04
497.2681, 9793.816
497.7502, 9478.065
498.2324, 9174.678
498.7145, 8873.583
499.1966, 8555.146
499.6787, 8192.218
500.1608, 7836.061
500.6429, 7502.042
501.1251, 7189.752
501.6072, 6887.936
502.0893, 6597.540
502.5714, 6311.791
503.0535, 6024.468
503.5356, 5723.159
504.0178, 5452.743
504.4999, 5221.943
504.9820, 5016.546
505.4641, 4810.479
505.9462, 4601.921
506.4283, 4405.422
506.9105, 4226.594
507.3926, 4064.204
507.8747, 3914.675
508.3568, 3777.657
508.8389, 3650.823
509.3210, 3530.932
509.8032, 3417.842
510.2853, 3308.805
510.7674, 3202.582
511.2495, 3104.272
511.7316, 3022.616
512.2137, 2952.256
512.6959, 2883.569
513.1780, 2808.879
513.6601, 2736.684
514.1422, 2672.757
514.6243, 2616.550
515.1064, 2563.887
515.5886, 2510.773
516.0707, 2462.168
516.5528, 2422.874
517.0349, 2400.615
517.5170, 2371.972
517.9991, 2329.814
518.4813, 2282.208
518.9634, 2238.787
519.4455, 2197.128
519.9276, 2164.321
520.4097, 2145.098
520.8918, 2136.935
521.3740, 2120.993
521.8561, 2096.477
522.3382, 2066.815
522.8203, 2028.799
523.3024, 1984.028
523.7845, 1957.385
524.2667, 1953.042
524.7488, 1955.793
525.2309, 1948.066
525.7130, 1931.672
526.1951, 1912.900
526.6772, 1891.262
527.1594, 1870.606
527.6415, 1856.333
528.1236, 1847.516
528.6057, 1839.751
529.0878, 1833.153
529.5699, 1825.026
530.0521, 1813.319
530.5342, 1797.306
531.0163, 1779.384
531.4984, 1752.375
531.9805, 1727.062
532.4626, 1714.751
532.9448, 1736.239
533.4269, 1747.529
533.9090, 1738.841
534.3911, 1715.863
534.8732, 1701.735
535.3553, 1701.528
535.8375, 1700.346
536.3196, 1690.678
536.8017, 1671.796
537.2838, 1657.456
537.7659, 1648.024
538.2480, 1641.503
538.7302, 1635.269
539.2123, 1629.688
539.6944, 1628.828
540.1765, 1636.446
540.6586, 1643.871
541.1407, 1636.761
541.6229, 1618.450
542.1050, 1600.885
542.5871, 1591.094
543.0692, 1584.493
543.5513, 1576.328
544.0334, 1566.467
544.5156, 1560.091
544.9977, 1562.187
545.4798, 1567.303
545.9619, 1571.196
546.4440, 1572.918
546.9261, 1573.621
547.4083, 1573.989
547.8904, 1573.290
548.3725, 1570.024
548.8546, 1561.831
549.3367, 1554.902
549.8188, 1550.784
550.3010, 1549.322
550.7831, 1548.483
551.2652, 1547.859
551.7473, 1549.241
552.2294, 1557.754
552.7115, 1571.739
553.1937, 1572.185
553.6758, 1555.709
554.1579, 1533.498
554.6400, 1515.092
555.1221, 1501.707
555.6042, 1497.551
556.0864, 1511.158
556.5685, 1527.393
557.0506, 1529.951
557.5327, 1522.199
558.0148, 1516.579
558.4969, 1525.536
558.9791, 1533.678
559.4612, 1528.424
559.9433, 1504.057
560.4254, 1489.691
560.9075, 1502.553
561.3896, 1520.973
561.8718, 1525.486
562.3539, 1503.561
562.8360, 1489.190
563.3181, 1487.202
563.8002, 1493.249
564.2823, 1497.232
564.7645, 1498.835
565.2466, 1499.674
565.7287, 1500.585
566.2108, 1501.264
566.6929, 1499.127
567.1750, 1494.008
567.6572, 1490.249
568.1393, 1494.678
568.6214, 1502.609
569.1035, 1503.797
569.5856, 1495.479
570.0677, 1485.191
570.5499, 1477.389
571.0320, 1472.045
571.5141, 1469.038
571.9962, 1469.294
572.4783, 1470.909
572.9604, 1476.120
573.4426, 1483.154
573.9247, 1483.154
574.4068, 1463.914
574.8889, 1447.282
575.3710, 1442.759
575.8531, 1453.395
576.3353, 1459.851
576.8174, 1459.604
577.2995, 1458.831
577.7816, 1466.433
578.2637, 1484.205
578.7458, 1488.322
579.2280, 1470.941
579.7101, 1446.519
580.1922, 1442.278
580.6743, 1455.215
581.1564, 1468.376
581.6385, 1473.120
582.1207, 1474.087
582.6028, 1478.643
583.0849, 1485.852
583.5670, 1488.726
584.0491, 1480.456
584.5313, 1467.903
585.0134, 1454.517
585.4955, 1437.641
585.9776, 1430.544
586.4597, 1447.348
586.9418, 1471.260
587.4240, 1482.816
587.9061, 1472.258
588.3882, 1464.138
588.8703, 1463.197
589.3524, 1465.793
589.8345, 1459.801
590.3167, 1442.432
590.7988, 1427.124
591.2809, 1420.259
591.7630, 1420.445
592.2451, 1421.914
592.7272, 1424.742
593.2094, 1426.955
593.6915, 1427.419
594.1736, 1425.995
594.6557, 1420.911
595.1378, 1410.336
595.6199, 1403.202
596.1021, 1409.543
596.5842, 1422.717
597.0663, 1433.289
597.5485, 1440.401
598.0306, 1441.840
598.5127, 1432.059
598.9948, 1414.676
599.4769, 1405.329
599.9590, 1411.581
600.4412, 1417.688
600.9233, 1417.753
601.4054, 1411.125
601.8875, 1409.003
602.3696, 1412.307
602.8517, 1417.919
603.3339, 1424.157
603.8160, 1430.860
604.2981, 1434.128
604.7802, 1432.410
605.2623, 1431.050
605.7444, 1440.758
606.2266, 1456.671
606.7087, 1465.104
607.1908, 1455.071
607.6729, 1442.074
608.1550, 1436.534
608.6371, 1437.885
609.1193, 1444.093
609.6014, 1456.141
610.0835, 1471.380
610.5656, 1491.248
611.0477, 1517.735
611.5298, 1532.736
612.0120, 1528.599
612.4941, 1519.957
612.9762, 1516.025
613.4583, 1517.524
613.9404, 1521.510
614.4225, 1528.712
614.9047, 1536.891
615.3868, 1543.248
615.8689, 1547.856
616.3510, 1550.693
616.8331, 1550.643
617.3152, 1550.280
617.7974, 1554.485
618.2795, 1562.111
618.7616, 1568.898
619.2437, 1572.592
619.7258, 1574.460
620.2079, 1575.077
620.6901, 1574.497
621.1722, 1573.839
621.6543, 1573.866
622.1364, 1573.678
622.6185, 1573.005
623.1006, 1573.641
623.5828, 1569.553
624.0649, 1558.510
624.5470, 1544.791
625.0291, 1533.221
625.5112, 1523.921
625.9933, 1516.167
626.4755, 1510.042
626.9576, 1505.227
627.4397, 1501.242
627.9218, 1498.070
628.4039, 1495.574
628.8860, 1495.335
629.3682, 1494.858
629.8503, 1489.600
630.3324, 1480.245
630.8145, 1472.091
631.2966, 1468.455
631.7787, 1467.055
632.2609, 1467.414
632.7430, 1471.083
633.2251, 1470.010
633.7072, 1455.731
634.1893, 1440.352
634.6714, 1433.936
635.1536, 1439.929
635.6357, 1447.979
636.1178, 1459.310
636.5999, 1470.223
637.0820, 1472.582
637.5641, 1466.000
638.0463, 1459.911
638.5284, 1457.565
639.0105, 1457.377
639.4926, 1456.474
639.9747, 1454.894
640.4568, 1452.898
640.9390, 1449.506
641.4211, 1446.492
641.9032, 1446.552
642.3853, 1449.859
642.8674, 1450.876
643.3495, 1446.609
643.8317, 1439.794
644.3138, 1432.112
644.7959, 1422.897
645.2780, 1414.331
645.7601, 1405.216
646.2422, 1397.814
646.7244, 1397.080
647.2065, 1406.184
647.6886, 1403.994
648.1707, 1382.663
648.6528, 1354.149
649.1349, 1343.145
649.6171, 1347.750
650.0992, 1354.020
650.5813, 1358.945
651.0634, 1359.815
651.5455, 1350.310
652.0276, 1332.361
652.5098, 1316.807
652.9919, 1312.472
653.4740, 1309.946
653.9561, 1303.267
654.4382, 1291.183
654.9203, 1278.968
655.4025, 1264.328
655.8846, 1252.117
656.3667, 1246.814
656.8488, 1252.721
657.3309, 1251.821
657.8130, 1241.465
658.2952, 1227.869
658.7773, 1219.724
659.2594, 1216.594
659.7415, 1214.027
660.2236, 1210.572
660.7057, 1207.609
661.1879, 1209.994
661.6700, 1214.841
662.1521, 1214.027
662.6342, 1197.448
663.1163, 1179.276
663.5984, 1167.970
664.0806, 1163.182
664.5627, 1160.030
665.0448, 1160.726
665.5269, 1159.658
666.0090, 1153.094
666.4911, 1139.479
666.9733, 1133.491
667.4554, 1139.028
667.9375, 1144.465
668.4196, 1137.444
668.9017, 1118.586
669.3839, 1108.925
669.8660, 1111.270
670.3481, 1118.526
670.8302, 1126.978
671.3123, 1133.771
671.7944, 1131.735
672.2766, 1112.536
672.7587, 1093.937
673.2408, 1090.076
673.7229, 1094.801
674.2050, 1095.970
674.6871, 1082.098
675.1693, 1073.186
675.6514, 1079.217
676.1335, 1096.002
676.6156, 1100.926
677.0977, 1089.579
677.5798, 1076.291
678.0620, 1066.127
678.5441, 1059.166
679.0262, 1057.867
679.5083, 1062.455
679.9904, 1068.856
680.4725, 1077.384
680.9547, 1084.451
681.4368, 1081.438
681.9189, 1066.155
682.4010, 1052.593
682.8831, 1051.483
683.3652, 1056.318
683.8474, 1060.863
684.3295, 1065.927
684.8116, 1067.130
685.2937, 1059.325
685.7758, 1049.338
686.2579, 1047.028
686.7401, 1056.826
687.2222, 1061.946
687.7043, 1058.480
688.1864, 1049.460
688.6685, 1040.217
689.1506, 1031.039
689.6328, 1026.679
690.1149, 1032.774
690.5970, 1042.603
691.0791, 1046.169
691.5612, 1044.302
692.0433, 1041.200
692.5255, 1039.386
693.0076, 1036.824
693.4897, 1030.852
693.9718, 1020.684
694.4539, 1015.163
694.9360, 1020.434
695.4182, 1026.009
695.9003, 1024.743
696.3824, 1012.395
696.8645, 1013.592
697.3466, 1032.824
697.8287, 1053.817
698.3109, 1057.082
698.7930, 1045.876
699.2751, 1037.414
699.7572, 1034.957
700.2393, 1035.010
700.7214, 1034.592
701.2036, 1034.075
701.6857, 1034.097
702.1678, 1035.827
702.6499, 1037.030
703.1320, 1035.712
703.6141, 1033.279
704.0963, 1033.505
704.5784, 1040.603
705.0605, 1043.935
705.5426, 1039.102
706.0247, 1028.917
706.5068, 1026.827
706.9890, 1033.681
707.4711, 1041.377
707.9532, 1046.808
708.4353, 1049.757
708.9174, 1048.015
709.3995, 1042.118
709.8817, 1037.383
710.3638, 1036.334
710.8459, 1038.836
711.3280, 1047.428
711.8101, 1063.866
712.2922, 1072.589
712.7744, 1062.523
713.2565, 1048.167
713.7386, 1038.632
714.2207, 1032.809
714.7028, 1036.420
715.1849, 1054.540
715.6671, 1073.327
716.1492, 1074.358
716.6313, 1059.511
717.1134, 1052.530
717.5955, 1059.267
718.0776, 1069.215
718.5598, 1068.413
719.0419, 1061.575
719.5240, 1057.808
720.0061, 1060.656
720.4882, 1066.888
720.9703, 1079.981
721.4525, 1095.086
721.9346, 1101.141
722.4167, 1086.451
722.8988, 1076.096
723.3809, 1075.753
723.8630, 1083.098
724.3452, 1089.509
724.8273, 1095.126
725.3094, 1098.723
725.7915, 1099.421
726.2736, 1097.746
726.7557, 1093.710
727.2379, 1087.815
727.7200, 1084.018
728.2021, 1085.633
728.6842, 1089.889
729.1663, 1095.851
729.6484, 1103.518
730.1306, 1107.900
730.6127, 1104.513
731.0948, 1099.935
731.5769, 1097.783
732.0590, 1098.612
732.5411, 1099.532
733.0233, 1100.561
733.5054, 1101.637
733.9875, 1103.566
734.4696, 1105.882
734.9517, 1104.097
735.4338, 1096.940
735.9160, 1090.344
736.3981, 1090.862
736.8802, 1095.672
737.3623, 1100.754
737.8444, 1105.438
738.3266, 1109.492
738.8087, 1111.340
739.2908, 1113.052
739.7729, 1117.814
740.2551, 1128.371
740.7372, 1137.503
741.2193, 1145.773
741.7014, 1151.033
742.1835, 1145.823
742.6656, 1130.006
743.1478, 1119.544
743.6299, 1120.595
744.1120, 1128.346
744.5941, 1137.645
745.0762, 1147.558
745.5583, 1155.498
746.0405, 1161.597
746.5226, 1163.935
747.0047, 1156.532
747.4868, 1142.446
747.9689, 1139.636
748.4510, 1161.957
748.9332, 1180.484
749.4153, 1184.678
749.8974, 1176.038
750.3795, 1172.539
750.8616, 1174.547
751.3438, 1178.809
751.8259, 1185.486
752.3080, 1192.451
752.7901, 1192.625
753.2722, 1186.372
753.7543, 1183.298
754.2365, 1194.807
754.7186, 1208.699
755.2007, 1214.183
755.6828, 1208.341
756.1649, 1204.699
756.6470, 1205.840
757.1292, 1209.503
757.6113, 1214.160
758.0934, 1219.157
758.5755, 1228.985
759.0576, 1245.062
759.5397, 1261.535
760.0219, 1272.188
760.5040, 1278.308
760.9861, 1283.657
761.4682, 1288.865
761.9503, 1292.834
762.4324, 1292.093
762.9146, 1290.760
763.3967, 1293.932
763.8788, 1306.894
764.3609, 1317.805
764.8430, 1325.612
765.3251, 1329.824
765.8073, 1328.098
766.2894, 1316.954
766.7715, 1314.452
767.2536, 1325.304
767.7357, 1341.655
768.2178, 1350.510
768.7000, 1353.354
769.1821, 1356.624
769.6642, 1364.805
770.1463, 1370.334
770.6284, 1363.707
771.1105, 1350.119
771.5927, 1339.614
772.0748, 1333.863
772.5569, 1333.356
773.0390, 1340.808
773.5211, 1352.966
774.0032, 1362.305
774.4854, 1369.218
774.9675, 1371.184
775.4496, 1364.812
775.9317, 1355.313
776.4138, 1357.870
776.8959, 1370.259
777.3781, 1380.520
777.8602, 1382.090
778.3423, 1379.091
778.8244, 1372.702
779.3065, 1364.173
779.7886, 1358.472
780.2708, 1362.361
780.7529, 1363.665
781.2350, 1357.229
781.7171, 1344.118
782.1992, 1333.562
782.6813, 1324.995
783.1635, 1321.700
783.6456, 1328.964
784.1277, 1342.277
784.6098, 1347.166
785.0919, 1343.995
785.5740, 1336.871
786.0562, 1322.459
786.5383, 1309.512
787.0204, 1308.234
787.5025, 1319.005
787.9846, 1324.409
788.4667, 1315.126
788.9489, 1304.439
789.4310, 1297.164
789.9131, 1293.371
790.3952, 1294.305
790.8773, 1301.666
791.3594, 1305.781
791.8416, 1295.708
792.3237, 1277.273
792.8058, 1266.507
793.2879, 1264.017
793.7700, 1262.842
794.2521, 1255.932
794.7343, 1249.745
795.2164, 1251.806
795.6985, 1266.721
796.1806, 1271.991
796.6627, 1259.656
797.1448, 1243.714
797.6270, 1232.370
798.1091, 1225.777
798.5912, 1224.680
799.0733, 1230.705
799.5554, 1233.309
800.0375, 1217.499
800.5197, 1192.307
801.0018, 1175.416
801.4839, 1170.020
801.9660, 1166.905
802.4481, 1165.675
802.9302, 1161.072
803.4124, 1147.587
803.8945, 1116.755
804.3766, 1094.531
804.8587, 1083.470
805.3408, 1077.673
805.8229, 1072.601
806.3051, 1068.247
806.7872, 1063.930
807.2693, 1059.895
807.7514, 1053.884
808.2335, 1041.880
808.7156, 1026.896
809.1978, 1012.873
809.6799, 999.6869
810.1620, 990.7075
810.6441, 992.7757
811.1262, 996.6238
811.6083, 992.8009
812.0905, 976.3317
812.5726, 963.2730
813.0547, 954.5497
813.5368, 948.3080
814.0189, 942.4807
814.5010, 937.2429
814.9832, 933.6598
815.4653, 931.9890
815.9474, 931.7025
816.4295, 936.9193
816.9116, 941.2864
817.3937, 935.7936
817.8759, 910.2879
818.3580, 890.6551
818.8401, 885.1733
819.3222, 886.0830
819.8043, 886.9155
820.2864, 887.8311
820.7686, 888.1360
821.2507, 888.0482
821.7328, 886.4870
822.2149, 880.5532
822.6970, 872.1625
823.1791, 866.6050
823.6613, 866.2639
824.1434, 865.0577
824.6255, 855.2786
825.1076, 844.1268
825.5897, 839.7681
826.0718, 853.1936
826.5540, 859.4539
827.0361, 855.9603
827.5182, 848.2905
828.0003, 843.1639
828.4824, 840.5717
828.9645, 835.3944
829.4467, 826.1136
829.9288, 817.4800
830.4109, 815.6799
830.8930, 817.8659
831.3751, 819.7307
831.8572, 820.1561
832.3394, 820.1698
832.8215, 820.6656
833.3036, 820.5939
833.7857, 818.4244
834.2678, 812.1656
834.7499, 810.0583
835.2321, 813.5395
835.7142, 819.1059
836.1963, 823.0533
836.6784, 825.4562
837.1605, 826.4506
837.6426, 826.0526
838.1248, 824.2665
838.6069, 818.6115
839.0890, 812.7495
839.5711, 811.3181
840.0532, 821.6965
840.5353, 823.9701
841.0175, 810.5045
841.4996, 795.4243
841.9817, 795.6559
842.4638, 812.1126
842.9459, 819.0536
843.4280, 812.5860
843.9102, 804.1493
844.3923, 808.6165
844.8744, 818.7927
845.3565, 822.3785
845.8386, 815.0797
846.3207, 808.2677
846.8029, 807.7893
847.2850, 808.9985
847.7671, 807.4319
848.2492, 800.3398
848.7313, 797.8895
849.2134, 800.7016
849.6956, 806.6376
850.1777, 815.9932
850.6598, 826.8800
851.1419, 832.7113
851.6240, 832.6216
852.1061, 828.3359
852.5883, 818.3612
853.0704, 806.5374
853.5525, 795.4756
854.0346, 784.0165
854.5167, 779.2973
854.9988, 784.3814
855.4810, 792.4627
855.9631, 800.0716
856.4452, 807.2836
856.9273, 808.7887
857.4094, 804.2081
857.8915, 797.5534
858.3737, 790.8750
858.8558, 785.0062
859.3379, 781.4321
859.8200, 780.5068
860.3021, 779.4859
860.7842, 776.6004
861.2664, 774.0175
861.7485, 772.4526
862.2306, 771.6321
862.7127, 776.1246
863.1948, 787.8593
863.6769, 796.5662
864.1591, 789.8412
864.6412, 775.8899
865.1233, 777.7533
865.6054, 794.6048
866.0875, 806.0864
866.5696, 794.2444
867.0518, 778.0757
867.5339, 768.3804
868.0160, 766.2339
868.4981, 769.4404
868.9802, 781.0967
869.4623, 791.6205
869.9445, 797.3455
870.4266, 798.1479
870.9087, 791.2407
871.3908, 777.3227
871.8729, 764.7700
872.3550, 755.7739
872.8372, 752.4743
873.3193, 760.7324
873.8014, 777.9011
874.2835, 789.0356
874.7656, 785.1606
875.2477, 781.6195
875.7299, 783.5853
876.2120, 788.4555
876.6941, 783.3095
877.1762, 768.1950
877.6583, 759.4840
878.1404, 768.7546
878.6226, 783.6284
879.1047, 789.0495
879.5869, 786.8237
880.0690, 781.7588
880.5511, 772.2686
881.0332, 764.0746
881.5153, 758.5463
881.9974, 755.4747
882.4796, 754.6749
882.9617, 756.3270
883.4438, 759.5755
883.9259, 764.9203
884.4080, 770.2776
884.8901, 771.9574
885.3723, 771.0581
885.8544, 770.0726
886.3365, 769.4496
886.8186, 769.5867
887.3007, 773.0660
887.7828, 776.3632
888.2650, 774.0563
888.7471, 762.4908
889.2292, 755.3358
889.7113, 754.3815
890.1934, 756.5565
890.6755, 758.1374
891.1577, 759.5247
891.6398, 762.6993
892.1219, 768.6984
892.6040, 772.8255
893.0861, 770.5507
893.5682, 765.5570
894.0504, 760.8151
894.5325, 755.0235
895.0146, 754.8548
895.4967, 763.2673
895.9788, 771.8294
896.4609, 771.3237
896.9431, 763.9097
897.4252, 764.7453
897.9073, 774.7290
898.3894, 783.1427
898.8715, 779.7851
899.3536, 772.9539
899.8358, 769.1635
900.3179, 769.1849
900.8000, 771.6388
901.2821, 779.1047
901.7642, 784.7126
902.2463, 784.5206
902.7285, 779.5285
903.2106, 777.9351
903.6927, 779.5797
904.1748, 780.0901
904.6569, 772.7710
905.1390, 766.0142
905.6212, 770.1680
906.1033, 782.8825
906.5854, 793.5818
907.0675, 799.9048
907.5496, 802.9091
908.0317, 802.5249
908.5139, 799.1874
908.9960, 793.0215
909.4781, 784.0348
909.9602, 777.2885
910.4423, 775.1992
910.9244, 775.2498
911.4066, 775.2486
911.8887, 775.0466
912.3708, 774.3633
912.8529, 767.8789
913.3350, 768.0784
913.8171, 783.4449
914.2993, 801.8277
914.7814, 804.8455
915.2635, 790.8699
915.7456, 784.0569
916.2277, 788.9916
916.7098, 796.5852
917.1920, 795.4551
917.6741, 790.4590
918.1562, 789.3206
918.6383, 795.2841
919.1204, 799.0450
919.6025, 795.1205
920.0847, 790.2135
920.5668, 788.8991
921.0489, 791.7793
921.5310, 794.1469
922.0131, 796.0109
922.4952, 797.2419
922.9774, 797.1295
923.4595, 796.6036
923.9416, 796.8924
924.4237, 798.0870
924.9058, 800.1758
925.3879, 806.7841
925.8701, 810.3477
926.3522, 805.9407
926.8343, 795.1688
927.3164, 791.9744
927.7985, 797.1456
928.2806, 802.4327
928.7628, 803.7643
929.2449, 803.2579
929.7270, 804.4432
930.2091, 806.5543
930.6912, 807.5486
931.1733, 805.3587
931.6555, 803.3722
932.1376, 803.9543
932.6197, 804.7811
933.1018, 800.0391
933.5839, 787.8297
934.0660, 785.7960
934.5482, 799.9014
935.0303, 816.3820
935.5124, 816.6940
935.9945, 807.1715
936.4766, 798.2334
936.9587, 790.7133
937.4409, 788.1202
937.9230, 796.5232
938.4051, 806.5683
938.8872, 809.9750
939.3693, 804.3137
939.8514, 809.0038
940.3336, 825.8182
940.8157, 839.7227
941.2978, 831.7113
941.7799, 816.2117
942.2620, 817.1959
942.7441, 834.8863
943.2263, 847.0942
943.7084, 834.3697
944.1905, 826.0457
944.6726, 837.1395
945.1547, 863.1591
945.6368, 874.5210
946.1190, 870.4776
946.6011, 865.8090
947.0832, 866.7532
947.5653, 871.0421
948.0474, 877.6298
948.5295, 885.0509
949.0117, 889.8967
949.4938, 887.5761
949.9759, 886.8332
950.4580, 888.3125
950.9401, 892.8599
951.4222, 903.4840
951.9044, 920.4071
952.3865, 932.2697
952.8686, 936.6736
953.3507, 938.5445
953.8328, 941.5446
954.3149, 945.8910
954.7971, 952.0814
955.2792, 960.4852
955.7613, 969.2615
956.2434, 977.8887
956.7255, 987.0846
957.2076, 998.1686
957.6898, 1011.012
958.1719, 1017.832
958.6540, 1018.815
959.1361, 1022.831
959.6182, 1039.459
960.1003, 1059.254
960.5825, 1073.272
961.0646, 1082.355
961.5467, 1093.393
962.0288, 1108.467
962.5109, 1124.247
962.9930, 1139.657
963.4752, 1155.183
963.9573, 1173.633
964.4394, 1193.720
964.9215, 1207.704
965.4036, 1209.892
965.8857, 1211.594
966.3679, 1222.040
966.8500, 1237.400
967.3321, 1252.963
967.8142, 1269.401
968.2963, 1283.449
968.7784, 1295.302
969.2606, 1304.115
969.7427, 1306.458
970.2248, 1304.842
970.7069, 1308.972
971.1890, 1319.501
971.6711, 1331.050
972.1533, 1344.000
972.6354, 1353.410
973.1175, 1354.183
973.5996, 1346.485
974.0817, 1340.260
974.5638, 1334.764
975.0460, 1333.962
975.5281, 1343.199
976.0102, 1354.729
976.4923, 1348.456
976.9744, 1330.293
977.4565, 1317.611
977.9387, 1324.318
978.4208, 1330.380
978.9029, 1326.875
979.3850, 1319.667
979.8671, 1316.591
980.3492, 1318.270
980.8314, 1320.974
981.3135, 1324.670
981.7956, 1327.684
982.2777, 1329.302
982.7598, 1328.600
983.2419, 1322.394
983.7241, 1308.962
984.2062, 1301.027
984.6883, 1307.303
985.1704, 1315.245
985.6525, 1321.043
986.1346, 1324.187
986.6168, 1315.595
987.0989, 1295.798
987.5810, 1281.474
988.0631, 1289.606
988.5452, 1301.384
989.0273, 1298.101
989.5095, 1284.376
989.9916, 1271.909
990.4737, 1257.227
990.9558, 1254.361
991.4379, 1269.919
991.9200, 1290.898
992.4022, 1296.179
992.8843, 1288.857
993.3664, 1282.823
993.8485, 1281.159
994.3306, 1277.826
994.8127, 1264.280
995.2949, 1250.199
995.7770, 1245.619
996.2591, 1252.845
996.7412, 1254.450
997.2233, 1249.114
997.7054, 1242.911
998.1876, 1238.304
998.6697, 1235.916
999.1518, 1238.057
999.6339, 1243.832
1000.116, 1249.643
1000.598, 1257.775
1001.080, 1261.106
1001.562, 1253.960
1002.044, 1242.055
1002.527, 1236.202
1003.009, 1237.120
1003.491, 1232.767
1003.973, 1219.109
1004.455, 1207.962
1004.937, 1217.935
1005.419, 1235.656
1005.901, 1243.683
1006.384, 1236.547
1006.866, 1229.846
1007.348, 1225.418
1007.830, 1221.885
1008.312, 1217.114
1008.794, 1212.384
1009.276, 1217.078
1009.758, 1230.181
1010.240, 1243.306
1010.723, 1253.534
1011.205, 1260.293
1011.687, 1261.274
1012.169, 1258.603
1012.651, 1257.966
1013.133, 1259.703
1013.615, 1263.294
1014.097, 1269.454
1014.580, 1275.346
1015.062, 1275.033
1015.544, 1272.105
1016.026, 1274.606
1016.508, 1285.398
1016.990, 1293.192
1017.472, 1289.177
1017.954, 1284.870
1018.436, 1287.628
1018.919, 1296.951
1019.401, 1303.131
1019.883, 1306.174
1020.365, 1304.170
1020.847, 1288.686
1021.329, 1273.725
1021.811, 1273.984
1022.293, 1285.705
1022.776, 1300.000
1023.258, 1324.319
1023.740, 1334.249
1024.222, 1321.594
1024.704, 1303.503
1025.186, 1306.984
1025.668, 1325.026
1026.150, 1330.635
1026.632, 1318.739
1027.115, 1313.210
1027.597, 1342.211
1028.079, 1370.745
1028.561, 1370.151
1029.043, 1342.212
1029.525, 1334.405
1030.007, 1349.578
1030.489, 1362.051
1030.972, 1356.884
1031.454, 1346.084
1031.936, 1346.792
1032.418, 1354.752
1032.900, 1360.808
1033.382, 1363.564
1033.864, 1361.467
1034.346, 1351.313
1034.828, 1340.712
1035.311, 1339.361
1035.793, 1345.789
1036.275, 1350.405
1036.757, 1352.464
1037.239, 1353.965
1037.721, 1356.978
1038.203, 1359.403
1038.685, 1359.073
1039.167, 1356.355
1039.650, 1355.657
1040.132, 1357.806
1040.614, 1358.045
1041.096, 1353.591
1041.578, 1348.446
1042.060, 1351.692
1042.542, 1358.385
1043.024, 1358.576
1043.507, 1342.789
1043.989, 1321.766
1044.471, 1335.818
1044.953, 1343.410
1045.435, 1344.889
1045.917, 1321.949
1046.399, 1330.542
1046.881, 1326.498
1047.364, 1321.934
1047.846, 1334.965
1048.328, 1315.577
1048.810, 1328.329
1049.292, 1328.251
1049.774, 1334.045
1050.256, 1327.124
1050.738, 1324.130
1051.220, 1333.856
1051.703, 1336.537
1052.185, 1328.152
1052.667, 1334.320
1053.149, 1314.487
1053.631, 1317.470
1054.113, 1330.296
1054.595, 1319.654
1055.077, 1323.569
1055.559, 1332.644
1056.042, 1345.291
1056.524, 1350.424
1057.006, 1348.677
1057.488, 1345.244
1057.970, 1339.964
1058.452, 1336.981
1058.934, 1339.580
1059.416, 1346.142
1059.899, 1354.092
1060.381, 1365.594
1060.863, 1370.048
1061.345, 1365.795
1061.827, 1357.828
1062.309, 1345.461
1062.791, 1335.541
1063.273, 1340.997
1063.755, 1362.489
1064.238, 1382.103
1064.720, 1399.465
1065.202, 1407.749
1065.684, 1401.481
1066.166, 1387.061
1066.648, 1381.691
1067.130, 1384.400
1067.612, 1390.853
1068.094, 1401.675
1068.577, 1411.138
1069.059, 1415.641
1069.541, 1417.214
1070.023, 1417.582
1070.505, 1416.229
1070.987, 1417.319
1071.469, 1421.019
1071.951, 1425.584
1072.434, 1428.906
1072.916, 1433.119
1073.398, 1437.809
1073.880, 1445.365
1074.362, 1458.271
1074.844, 1478.665
1075.326, 1492.601
1075.808, 1500.423
1076.291, 1483.838
1076.773, 1498.774
1077.255, 1501.074
1077.737, 1502.855
1078.219, 1522.229
1078.701, 1509.184
1079.183, 1528.279
1079.665, 1534.544
1080.147, 1546.681
1080.630, 1546.115
1081.112, 1549.465
1081.594, 1560.566
1082.076, 1577.946
1082.558, 1590.866
1083.040, 1599.337
1083.522, 1599.664
1084.004, 1597.197
1084.486, 1599.592
1084.969, 1610.707
1085.451, 1617.468
1085.933, 1618.781
1086.415, 1619.647
1086.897, 1624.884
1087.379, 1631.711
1087.861, 1633.257
1088.343, 1631.455
1088.826, 1634.843
1089.308, 1649.743
1089.790, 1666.381
1090.272, 1684.921
1090.754, 1701.910
1091.236, 1711.489
1091.718, 1714.646
1092.200, 1715.825
1092.682, 1715.680
1093.165, 1713.359
1093.647, 1703.959
1094.129, 1696.288
1094.611, 1696.991
1095.093, 1704.644
1095.575, 1706.702
1096.057, 1702.469
1096.539, 1711.992
1097.022, 1750.108
1097.504, 1789.601
1097.986, 1802.530
1098.468, 1799.143
1098.950, 1792.984
1099.432, 1786.427
1099.914, 1774.264
1100.396, 1752.866
1100.879, 1738.253
1101.361, 1746.651
1101.843, 1767.780
1102.325, 1785.578
1102.807, 1798.953
1103.289, 1804.453
1103.771, 1793.101
1104.253, 1784.071
1104.735, 1780.884
1105.218, 1780.964
1105.700, 1780.890
1106.182, 1780.949
1106.664, 1782.704
1107.146, 1786.369
1107.628, 1790.555
1108.110, 1789.642
1108.592, 1794.159
1109.074, 1817.178
1109.557, 1850.175
1110.039, 1853.689
1110.521, 1827.280
1111.003, 1807.609
1111.485, 1805.910
1111.967, 1813.041
1112.449, 1827.691
1112.931, 1842.261
1113.414, 1847.581
1113.896, 1840.742
1114.378, 1835.778
1114.860, 1833.677
1115.342, 1828.817
1115.824, 1812.026
1116.306, 1795.650
1116.788, 1802.858
1117.271, 1825.463
1117.753, 1845.370
1118.235, 1862.631
1118.717, 1866.423
1119.199, 1851.288
1119.681, 1832.373
1120.163, 1824.413
1120.645, 1824.760
1121.127, 1826.492
1121.609, 1829.124
1122.092, 1831.972
1122.574, 1834.922
1123.056, 1837.775
1123.538, 1840.976
1124.020, 1843.691
1124.502, 1843.457
1124.984, 1840.786
1125.466, 1840.272
1125.949, 1842.940
1126.431, 1846.071
1126.913, 1850.561
1127.395, 1852.355
1127.877, 1846.176
1128.359, 1833.693
1128.841, 1828.695
1129.323, 1831.599
1129.806, 1834.400
1130.288, 1833.971
1130.770, 1832.734
1131.252, 1835.031
1131.734, 1837.087
1132.216, 1832.598
1132.698, 1816.536
1133.180, 1812.655
1133.662, 1825.079
1134.145, 1832.312
1134.627, 1815.829
1135.109, 1788.903
1135.591, 1769.287
1136.073, 1756.498
1136.555, 1749.840
1137.037, 1756.180
1137.519, 1758.364
1138.001, 1755.897
1138.484, 1748.051
1138.966, 1727.591
1139.448, 1702.872
1139.930, 1698.774
1140.412, 1713.924
1140.894, 1724.312
1141.376, 1716.268
1141.858, 1706.902
1142.341, 1701.295
1142.823, 1696.436
1143.305, 1686.975
1143.787, 1673.266
1144.269, 1654.040
1144.751, 1627.818
1145.233, 1610.606
1145.715, 1626.873
1146.198, 1638.525
1146.680, 1621.117
1147.162, 1582.530
1147.644, 1561.673
1148.126, 1557.161
1148.608, 1551.488
1149.090, 1539.234
1149.572, 1523.433
1150.054, 1500.761
1150.536, 1479.722
1151.019, 1470.608
1151.501, 1475.092
1151.983, 1465.571
1152.465, 1441.365
1152.947, 1419.251
1153.429, 1409.479
1153.911, 1404.500
1154.393, 1400.284
1154.876, 1395.047
1155.358, 1384.893
1155.840, 1367.074
1156.322, 1353.882
1156.804, 1346.652
1157.286, 1337.938
1157.768, 1317.037
1158.250, 1294.496
1158.733, 1286.731
1159.215, 1289.501
1159.697, 1284.915
1160.179, 1266.750
1160.661, 1248.219
1161.143, 1229.127
1161.625, 1214.805
1162.107, 1216.301
1162.589, 1224.257
1163.072, 1222.218
1163.554, 1209.474
1164.036, 1197.269
1164.518, 1189.457
1165.000, 1179.995
1165.482, 1165.033
1165.964, 1151.633
1166.446, 1159.140
1166.928, 1176.778
1167.411, 1178.778
1167.893, 1158.140
1168.375, 1138.332
1168.857, 1126.121
1169.339, 1117.424
1169.821, 1112.718
1170.303, 1109.231
1170.785, 1095.641
1171.268, 1064.140
1171.750, 1074.345
1172.232, 1078.089
1172.714, 1075.723
1173.196, 1048.936
1173.678, 1053.683
1174.160, 1045.792
1174.642, 1037.383
1175.125, 1046.558
1175.607, 1023.323
1176.089, 1032.229
1176.571, 1028.304
1177.053, 1030.253
1177.535, 1019.485
1178.017, 1012.645
1178.499, 1015.303
1178.981, 1028.405
1179.464, 1025.925
1179.946, 1008.527
1180.428, 991.8458
1180.910, 981.8057
1181.392, 979.3763
1181.874, 991.6975
1182.356, 1008.678
1182.838, 1015.467
1183.320, 1011.917
1183.803, 1001.609
1184.285, 984.5186
1184.767, 970.7837
1185.249, 971.7134
1185.731, 974.9167
1186.213, 971.1407
1186.695, 962.9818
1187.177, 959.2040
1187.660, 960.3738
1188.142, 955.6808
1188.624, 942.4023
1189.106, 931.3510
1189.588, 935.5088
1190.070, 943.0466
1190.552, 944.4521
1191.034, 939.9856
1191.516, 934.4452
1191.999, 927.3598
1192.481, 923.9979
1192.963, 926.3916
1193.445, 929.9734
1193.927, 931.7888
1194.409, 931.3945
1194.891, 927.5646
1195.373, 920.2038
1195.855, 913.1000
1196.338, 905.6558
1196.820, 904.4183
1197.302, 916.4265
1197.784, 926.3391
1198.266, 911.7902
1198.748, 888.0775
1199.230, 875.2047
1199.712, 877.3923
1200.195, 875.9417
1200.677, 870.0352
1201.159, 866.5740
1201.641, 873.3625
1202.123, 879.3367
1202.605, 866.5957
1203.087, 846.2020
1203.569, 836.7497
1204.052, 844.2999
1204.534, 850.0103
1205.016, 853.9450
1205.498, 855.9107
1205.980, 854.6882
1206.462, 852.3464
1206.944, 851.8571
1207.426, 852.0115
1207.908, 849.5504
1208.391, 841.6786
1208.873, 839.8180
1209.355, 845.9709
1209.837, 849.7825
1210.319, 839.7581
1210.801, 824.7135
1211.283, 813.4113
1211.765, 805.8119
1212.247, 800.9160
1212.730, 798.1502
1213.212, 799.2209
1213.694, 805.0106
1214.176, 811.2989
1214.658, 814.0739
1215.140, 815.1541
1215.622, 817.9988
1216.104, 821.5159
1216.587, 818.4106
1217.069, 806.2975
1217.551, 794.4888
1218.033, 783.7683
1218.515, 776.8223
1218.997, 778.9108
1219.479, 784.8873
1219.961, 790.4891
1220.443, 794.7947
1220.926, 792.9186
1221.408, 782.0525
1221.890, 776.7390
1222.372, 781.7476
1222.854, 788.4957
1223.336, 786.4048
1223.818, 780.4872
1224.300, 776.0313
1224.782, 773.7589
1225.265, 772.9947
1225.747, 774.4361
1226.229, 773.1781
1226.711, 766.0211
1227.193, 760.2535
1227.675, 769.3986
1228.157, 782.2285
1228.639, 783.4030
1229.122, 769.7599
1229.604, 765.9157
1230.086, 773.7132
1230.568, 778.3798
1231.050, 772.0626
1231.532, 764.7621
1232.014, 772.0425
1232.496, 782.8015
1232.979, 781.2177
1233.461, 764.0829
1233.943, 757.3844
1234.425, 762.4271
1234.907, 764.8916
1235.389, 754.4736
1235.871, 744.4113
1236.353, 750.0528
1236.835, 762.6690
1237.318, 771.5556
1237.800, 776.7081
1238.282, 773.1547
1238.764, 760.3529
1239.246, 750.5775
1239.728, 751.8440
1240.210, 757.5718
1240.692, 764.5266
1241.175, 771.4536
1241.657, 777.1262
1242.139, 782.2280
1242.621, 780.8116
1243.103, 772.7965
1243.585, 764.6375
1244.067, 761.3043
1244.549, 757.9448
1245.031, 748.0895
1245.514, 738.0759
1245.996, 737.4216
1246.478, 747.3251
1246.960, 750.9501
1247.442, 748.3332
1247.924, 746.0501
1248.406, 748.5778
1248.888, 752.3548
1249.370, 757.5635
1249.853, 761.4883
1250.335, 759.5883
1250.817, 752.1661
1251.299, 748.6539
1251.781, 749.1477
1252.263, 748.6779
1252.745, 739.5642
1253.227, 734.3738
1253.710, 741.6479
1254.192, 753.4862
1254.674, 761.5350
1255.156, 765.6682
1255.638, 763.1967
1256.120, 754.6493
1256.602, 747.6646
1257.084, 748.9131
1257.567, 749.0076
1258.049, 742.7980
1258.531, 736.5916
1259.013, 742.5381
1259.495, 755.8962
1259.977, 756.5877
1260.459, 744.6132
1260.941, 737.6058
1261.423, 748.3048
1261.906, 759.0019
1262.388, 766.5089
1262.870, 770.9532
1263.352, 772.5692
1263.834, 771.2119
1264.316, 764.7402
1264.798, 753.6871
1265.280, 745.9007
1265.762, 744.6072
1266.245, 745.8676
1266.727, 749.8671
1267.209, 754.1752
1267.691, 754.7238
1268.173, 753.6656
1268.655, 756.0819
1269.137, 761.8695
1269.619, 760.7147
1270.102, 747.8901
1270.584, 738.7230
1271.066, 736.5457
1271.548, 738.6038
1272.030, 743.1560
1272.512, 748.8462
1272.994, 754.4782
1273.476, 759.7455
1273.958, 763.9018
1274.441, 767.1760
1274.923, 767.7238
1275.405, 764.6135
1275.887, 761.0451
1276.369, 761.4996
1276.851, 762.2111
1277.333, 757.7243
1277.815, 749.6234
1278.297, 749.6854
1278.780, 758.4420
1279.262, 763.9159
1279.744, 763.1915
1280.226, 759.7456
1280.708, 753.3090
1281.190, 748.0537
1281.672, 747.1782
1282.154, 749.8347
1282.637, 754.4492
1283.119, 760.5943
1283.601, 763.9705
1284.083, 763.5629
1284.565, 761.4832
1285.047, 757.3357
1285.529, 753.8073
1286.011, 752.9014
1286.494, 752.9625
1286.976, 747.7345
1287.458, 739.5240
1287.940, 737.0479
1288.422, 742.9009
1288.904, 747.5458
1289.386, 747.7498
1289.868, 745.2559
1290.350, 739.3180
1290.833, 732.7773
1291.315, 731.2274
1291.797, 733.4103
1292.279, 737.7047
1292.761, 744.3684
1293.243, 747.8609
1293.725, 746.8398
1294.207, 745.0142
1294.689, 743.4031
1295.172, 742.0056
1295.654, 740.3404
1296.136, 739.1546
1296.618, 739.7571
1297.100, 742.5517
1297.582, 744.3764
1298.064, 745.1216
1298.546, 745.5515
1299.029, 745.6821
1299.511, 746.3022
1299.993, 748.9158
1300.475, 751.9102
1300.957, 753.8422
1301.439, 754.6918
1301.921, 754.7944
1302.403, 754.0829
1302.885, 749.6998
1303.368, 738.9963
1303.850, 732.5906
1304.332, 746.6860
1304.814, 758.0336
1305.296, 748.7320
1305.778, 727.6854
1306.260, 729.2771
1306.742, 747.6198
1307.224, 758.9120
1307.707, 756.3693
##END=



