##NAMES=Britvinite
##RRUFFID=R070639
##IDEAL CHEMISTRY=Pb^2+^_14_Mg_9_Si_10_O_28_(BO_3_)_4_(CO_3_)_2_F_2_(OH)_12_
##LOCALITY=Kombat mine, Kombat, Grootfontein District, Otjozondjupa Region, Namibia
##OWNER=RRUFF
##SOURCE=William W. Pinch
##DESCRIPTION=Colorless tabular crystals, associated with barite and red hematophanite R070638 
##STATUS=The identification of this mineral has been confirmed by single-crystal X-ray diffraction.
##URL=rruff.info/R070639
136.0372, 29577.43
136.5193, 30024.62
137.0014, 30529.75
137.4835, 31090.87
137.9656, 31658.11
138.4477, 32212.10
138.9299, 32772.12
139.4120, 33440.70
139.8941, 34255.53
140.3762, 35103.80
140.8583, 35919.70
141.3404, 36684.41
141.8225, 37457.93
142.3047, 38276.48
142.7868, 39138.72
143.2689, 39903.16
143.7510, 40577.03
144.2331, 41145.79
144.7152, 41596.95
145.1974, 41980.24
145.6795, 42182.42
146.1616, 42166.80
146.6437, 41898.50
147.1258, 41504.41
147.6079, 40961.28
148.0901, 40289.89
148.5722, 39571.75
149.0543, 38745.09
149.5364, 37918.27
150.0185, 37144.40
150.5006, 36464.72
150.9828, 35787.65
151.4649, 35141.36
151.9470, 34516.86
152.4291, 33813.48
152.9112, 32946.27
153.3933, 32045.51
153.8755, 31193.10
154.3576, 30452.06
154.8397, 29712.81
155.3218, 28948.18
155.8039, 28142.27
156.2860, 27357.85
156.7682, 26598.07
157.2503, 25875.37
157.7324, 25199.82
158.2145, 24584.93
158.6966, 24015.78
159.1787, 23490.04
159.6609, 23017.97
160.1430, 22563.32
160.6251, 22119.26
161.1072, 21689.24
161.5893, 21277.70
162.0714, 20886.27
162.5536, 20518.70
163.0357, 20178.29
163.5178, 19878.31
163.9999, 19590.75
164.4820, 19300.71
164.9641, 19010.36
165.4463, 18742.44
165.9284, 18533.27
166.4105, 18343.88
166.8926, 18132.18
167.3747, 17849.15
167.8568, 17561.91
168.3390, 17315.27
168.8211, 17116.33
169.3032, 16930.35
169.7853, 16739.73
170.2674, 16547.06
170.7495, 16357.05
171.2317, 16163.27
171.7138, 15976.51
172.1959, 15813.80
172.6780, 15683.73
173.1601, 15556.80
173.6422, 15399.11
174.1244, 15220.91
174.6065, 15058.52
175.0886, 14947.36
175.5707, 14860.55
176.0528, 14755.79
176.5349, 14615.03
177.0171, 14468.61
177.4992, 14350.03
177.9813, 14258.15
178.4634, 14175.79
178.9455, 14101.76
179.4276, 14028.07
179.9098, 13934.32
180.3919, 13804.22
180.8740, 13655.54
181.3561, 13508.93
181.8382, 13365.27
182.3203, 13229.32
182.8025, 13113.84
183.2846, 13014.23
183.7667, 12906.31
184.2488, 12769.02
184.7309, 12615.54
185.2130, 12492.49
185.6951, 12403.05
186.1773, 12328.89
186.6594, 12241.64
187.1415, 12143.71
187.6236, 12055.36
188.1057, 11993.14
188.5878, 11951.63
189.0700, 11900.37
189.5521, 11834.52
190.0342, 11762.50
190.5163, 11696.33
190.9984, 11636.06
191.4805, 11584.83
191.9627, 11550.92
192.4448, 11532.19
192.9269, 11504.89
193.4090, 11462.03
193.8911, 11409.42
194.3732, 11365.17
194.8554, 11329.89
195.3375, 11297.86
195.8196, 11265.93
196.3017, 11234.50
196.7838, 11197.70
197.2659, 11152.92
197.7481, 11101.71
198.2302, 11052.71
198.7123, 11006.54
199.1944, 10961.98
199.6765, 10919.75
200.1586, 10880.71
200.6408, 10835.41
201.1229, 10775.55
201.6050, 10701.16
202.0871, 10643.05
202.5692, 10605.63
203.0513, 10577.20
203.5335, 10537.23
204.0156, 10482.67
204.4977, 10428.22
204.9798, 10383.31
205.4619, 10351.31
205.9440, 10303.40
206.4262, 10231.11
206.9083, 10147.54
207.3904, 10088.48
207.8725, 10060.74
208.3546, 10038.14
208.8367, 10000.90
209.3189, 9939.813
209.8010, 9905.747
210.2831, 9917.107
210.7652, 9957.023
211.2473, 9944.691
211.7294, 9860.737
212.2116, 9763.116
212.6937, 9690.861
213.1758, 9639.671
213.6579, 9631.365
214.1400, 9693.946
214.6221, 9818.129
215.1043, 9851.768
215.5864, 9763.387
216.0685, 9631.519
216.5506, 9534.910
217.0327, 9485.907
217.5148, 9438.746
217.9970, 9383.313
218.4791, 9319.620
218.9612, 9251.707
219.4433, 9175.452
219.9254, 9099.369
220.4075, 9036.630
220.8897, 8995.749
221.3718, 8950.416
221.8539, 8891.864
222.3360, 8815.206
222.8181, 8743.550
223.3002, 8673.437
223.7824, 8610.784
224.2645, 8572.194
224.7466, 8577.808
225.2287, 8572.094
225.7108, 8526.924
226.1929, 8414.096
226.6750, 8342.992
227.1572, 8330.170
227.6393, 8354.905
228.1214, 8364.425
228.6035, 8355.212
229.0856, 8336.042
229.5677, 8307.562
230.0499, 8256.629
230.5320, 8228.451
231.0141, 8235.732
231.4962, 8267.700
231.9783, 8279.282
232.4604, 8259.282
232.9426, 8233.028
233.4247, 8215.455
233.9068, 8211.669
234.3889, 8206.292
234.8710, 8194.949
235.3531, 8179.359
235.8353, 8176.633
236.3174, 8193.623
236.7995, 8215.935
237.2816, 8232.567
237.7637, 8239.524
238.2458, 8248.347
238.7280, 8257.697
239.2101, 8267.810
239.6922, 8295.202
240.1743, 8351.174
240.6564, 8413.161
241.1385, 8459.699
241.6207, 8483.686
242.1028, 8505.550
242.5849, 8529.386
243.0670, 8555.524
243.5491, 8578.531
244.0313, 8596.433
244.5134, 8612.844
244.9955, 8631.256
245.4776, 8649.096
245.9597, 8673.762
246.4418, 8709.259
246.9240, 8758.431
247.4061, 8801.993
247.8882, 8836.162
248.3703, 8867.142
248.8524, 8904.144
249.3345, 8951.532
249.8167, 8997.540
250.2988, 9038.385
250.7809, 9072.182
251.2630, 9109.002
251.7451, 9152.998
252.2272, 9197.058
252.7094, 9228.792
253.1915, 9248.846
253.6736, 9255.155
254.1557, 9247.811
254.6378, 9228.587
255.1199, 9187.931
255.6021, 9115.705
256.0842, 9027.350
256.5663, 8957.907
257.0484, 8915.132
257.5305, 8877.563
258.0126, 8838.056
258.4948, 8800.062
258.9769, 8748.023
259.4590, 8672.242
259.9411, 8585.832
260.4232, 8525.631
260.9053, 8505.707
261.3875, 8486.301
261.8696, 8442.678
262.3517, 8362.312
262.8338, 8301.880
263.3159, 8273.165
263.7980, 8264.231
264.2802, 8233.382
264.7623, 8170.056
265.2444, 8105.056
265.7265, 8054.137
266.2086, 8018.201
266.6907, 7996.084
267.1729, 7989.569
267.6550, 7996.355
268.1371, 8012.837
268.6192, 8047.715
269.1013, 8072.055
269.5834, 8062.505
270.0656, 8012.468
270.5477, 7959.810
271.0298, 7908.354
271.5119, 7858.269
271.9940, 7808.308
272.4761, 7757.933
272.9583, 7710.425
273.4404, 7668.632
273.9225, 7633.798
274.4046, 7599.453
274.8867, 7565.960
275.3688, 7532.176
275.8510, 7486.262
276.3331, 7421.284
276.8152, 7366.106
277.2973, 7349.227
277.7794, 7374.437
278.2615, 7402.432
278.7437, 7428.892
279.2258, 7452.103
279.7079, 7460.084
280.1900, 7448.563
280.6721, 7438.463
281.1542, 7453.726
281.6364, 7495.938
282.1185, 7526.435
282.6006, 7527.446
283.0827, 7512.401
283.5648, 7545.941
284.0469, 7637.294
284.5291, 7729.637
285.0112, 7755.631
285.4933, 7717.912
285.9754, 7704.431
286.4575, 7744.029
286.9396, 7822.269
287.4217, 7893.742
287.9038, 7958.783
288.3860, 8013.358
288.8681, 8043.117
289.3502, 8051.870
289.8323, 8079.458
290.3144, 8146.758
290.7965, 8237.119
291.2787, 8301.644
291.7608, 8338.803
292.2429, 8368.804
292.7250, 8406.614
293.2071, 8452.967
293.6892, 8512.563
294.1714, 8596.037
294.6535, 8689.464
295.1356, 8756.179
295.6177, 8795.202
296.0998, 8839.821
296.5819, 8928.383
297.0641, 9050.896
297.5462, 9172.922
298.0283, 9293.376
298.5104, 9401.035
298.9925, 9470.669
299.4746, 9502.240
299.9568, 9526.721
300.4389, 9569.875
300.9210, 9626.663
301.4031, 9687.109
301.8852, 9753.364
302.3673, 9816.872
302.8495, 9864.665
303.3316, 9896.429
303.8137, 9925.378
304.2958, 9968.271
304.7779, 10014.91
305.2600, 10046.46
305.7422, 10057.55
306.2243, 10049.34
306.7064, 10015.72
307.1885, 9957.610
307.6706, 9899.045
308.1527, 9864.720
308.6349, 9838.719
309.1170, 9799.708
309.5991, 9734.634
310.0812, 9657.328
310.5633, 9581.179
311.0454, 9504.688
311.5276, 9411.385
312.0097, 9273.832
312.4918, 9120.553
312.9739, 8981.589
313.4560, 8879.068
313.9381, 8785.251
314.4203, 8689.808
314.9024, 8591.191
315.3845, 8487.320
315.8666, 8370.679
316.3487, 8250.824
316.8308, 8136.772
317.3130, 8010.167
317.7951, 7908.727
318.2772, 7872.940
318.7593, 7894.249
319.2414, 7880.017
319.7235, 7761.017
320.2057, 7613.866
320.6878, 7499.293
321.1699, 7465.194
321.6520, 7430.282
322.1341, 7375.159
322.6162, 7300.909
323.0984, 7222.430
323.5805, 7134.995
324.0626, 7048.859
324.5447, 6970.949
325.0268, 6920.162
325.5089, 6857.957
325.9911, 6762.279
326.4732, 6639.972
326.9553, 6554.836
327.4374, 6549.899
327.9195, 6556.839
328.4016, 6535.800
328.8838, 6456.006
329.3659, 6386.323
329.8480, 6335.524
330.3301, 6300.006
330.8122, 6255.820
331.2943, 6191.036
331.7765, 6128.891
332.2586, 6083.839
332.7407, 6071.656
333.2228, 6048.216
333.7049, 6010.165
334.1870, 5959.010
334.6692, 5899.126
335.1513, 5825.418
335.6334, 5750.603
336.1155, 5682.410
336.5976, 5621.937
337.0797, 5563.945
337.5619, 5511.062
338.0440, 5459.393
338.5261, 5396.886
339.0082, 5319.065
339.4903, 5244.094
339.9724, 5182.336
340.4546, 5133.781
340.9367, 5094.440
341.4188, 5065.581
341.9009, 5043.456
342.3830, 5023.546
342.8651, 5007.328
343.3473, 4981.687
343.8294, 4932.769
344.3115, 4863.060
344.7936, 4808.844
345.2757, 4771.886
345.7578, 4750.089
346.2400, 4743.960
346.7221, 4752.835
347.2042, 4763.118
347.6863, 4767.652
348.1684, 4768.120
348.6505, 4771.486
349.1327, 4779.065
349.6148, 4784.207
350.0969, 4775.004
350.5790, 4755.060
351.0611, 4738.733
351.5432, 4734.937
352.0254, 4738.136
352.5075, 4746.031
352.9896, 4760.337
353.4717, 4758.567
353.9538, 4710.049
354.4359, 4630.885
354.9181, 4553.914
355.4002, 4485.938
355.8823, 4431.016
356.3644, 4402.741
356.8465, 4401.478
357.3286, 4389.394
357.8108, 4330.635
358.2929, 4249.523
358.7750, 4176.742
359.2571, 4126.210
359.7392, 4084.838
360.2213, 4041.128
360.7035, 3996.323
361.1856, 3969.684
361.6677, 3995.790
362.1498, 4031.236
362.6319, 4038.688
363.1140, 3979.973
363.5962, 3920.606
364.0783, 3877.479
364.5604, 3849.597
365.0425, 3829.083
365.5246, 3816.796
366.0067, 3809.606
366.4889, 3805.556
366.9710, 3817.813
367.4531, 3817.595
367.9352, 3797.050
368.4173, 3760.426
368.8994, 3726.139
369.3815, 3691.231
369.8636, 3661.858
370.3458, 3641.701
370.8279, 3639.920
371.3100, 3630.503
371.7921, 3603.506
372.2742, 3570.925
372.7563, 3566.694
373.2385, 3615.726
373.7206, 3651.876
374.2027, 3641.299
374.6848, 3565.616
375.1669, 3521.771
375.6490, 3520.624
376.1312, 3540.000
376.6133, 3541.228
377.0954, 3518.531
377.5775, 3501.350
378.0596, 3506.974
378.5417, 3534.074
379.0239, 3534.314
379.5060, 3501.238
379.9881, 3460.674
380.4702, 3446.756
380.9523, 3458.515
381.4344, 3471.226
381.9166, 3474.148
382.3987, 3472.389
382.8808, 3485.281
383.3629, 3513.660
383.8450, 3541.151
384.3271, 3544.276
384.8093, 3532.377
385.2914, 3535.683
385.7735, 3573.143
386.2556, 3620.393
386.7377, 3637.476
387.2198, 3628.500
387.7020, 3625.542
388.1841, 3656.719
388.6662, 3706.042
389.1483, 3752.682
389.6304, 3790.049
390.1125, 3825.765
390.5947, 3869.252
391.0768, 3917.238
391.5589, 3957.942
392.0410, 3981.228
392.5231, 3997.751
393.0052, 4014.479
393.4874, 4030.855
393.9695, 4051.777
394.4516, 4081.505
394.9337, 4116.883
395.4158, 4152.155
395.8979, 4180.787
396.3801, 4213.029
396.8622, 4256.875
397.3443, 4320.835
397.8264, 4367.365
398.3085, 4369.502
398.7906, 4358.722
399.2728, 4373.195
399.7549, 4438.704
400.2370, 4501.813
400.7191, 4552.737
401.2012, 4590.849
401.6833, 4627.187
402.1655, 4662.468
402.6476, 4695.041
403.1297, 4722.512
403.6118, 4741.636
404.0939, 4763.514
404.5760, 4787.860
405.0582, 4816.015
405.5403, 4859.147
406.0224, 4923.832
406.5045, 4983.137
406.9866, 5015.530
407.4688, 5019.555
407.9509, 5021.463
408.4330, 5021.407
408.9151, 5024.011
409.3972, 5042.963
409.8793, 5078.182
410.3615, 5110.873
410.8436, 5125.313
411.3257, 5128.301
411.8078, 5146.298
412.2899, 5184.583
412.7720, 5222.279
413.2542, 5226.198
413.7363, 5207.448
414.2184, 5199.029
414.7005, 5225.322
415.1826, 5265.599
415.6647, 5298.745
416.1469, 5323.880
416.6290, 5339.582
417.1111, 5344.943
417.5932, 5339.819
418.0753, 5324.061
418.5574, 5280.285
419.0396, 5241.065
419.5217, 5230.974
420.0038, 5244.631
420.4859, 5245.618
420.9680, 5213.248
421.4501, 5167.163
421.9323, 5121.584
422.4144, 5080.032
422.8965, 5037.075
423.3786, 4979.730
423.8607, 4919.055
424.3428, 4885.756
424.8250, 4919.923
425.3071, 4948.211
425.7892, 4942.483
426.2713, 4883.824
426.7534, 4842.725
427.2355, 4831.353
427.7177, 4829.830
428.1998, 4806.417
428.6819, 4746.134
429.1640, 4697.505
429.6461, 4677.405
430.1282, 4685.200
430.6104, 4682.015
431.0925, 4666.388
431.5746, 4643.057
432.0567, 4611.613
432.5388, 4571.411
433.0209, 4546.390
433.5031, 4547.357
433.9852, 4561.963
434.4673, 4559.383
434.9494, 4540.031
435.4315, 4515.608
435.9136, 4493.333
436.3958, 4472.731
436.8779, 4451.979
437.3600, 4430.526
437.8421, 4410.723
438.3242, 4393.563
438.8063, 4380.009
439.2885, 4372.677
439.7706, 4382.091
440.2527, 4392.868
440.7348, 4387.594
441.2169, 4363.056
441.6990, 4342.061
442.1812, 4342.177
442.6633, 4351.219
443.1454, 4354.660
443.6275, 4346.200
444.1096, 4332.951
444.5917, 4316.592
445.0739, 4297.147
445.5560, 4275.603
446.0381, 4252.365
446.5202, 4227.012
447.0023, 4199.354
447.4844, 4165.858
447.9666, 4134.658
448.4487, 4107.539
448.9308, 4082.579
449.4129, 4054.381
449.8950, 4023.476
450.3771, 3989.575
450.8592, 3950.568
451.3413, 3904.375
451.8235, 3868.704
452.3056, 3847.220
452.7877, 3830.416
453.2698, 3805.833
453.7519, 3773.328
454.2340, 3735.206
454.7162, 3688.273
455.1983, 3636.964
455.6804, 3596.238
456.1625, 3566.281
456.6446, 3540.995
457.1267, 3517.071
457.6089, 3493.760
458.0910, 3466.821
458.5731, 3433.553
459.0552, 3400.250
459.5373, 3377.723
460.0194, 3362.684
460.5016, 3343.657
460.9837, 3314.810
461.4658, 3278.885
461.9479, 3236.632
462.4300, 3187.045
462.9121, 3138.244
463.3943, 3094.432
463.8764, 3054.111
464.3585, 3016.016
464.8406, 2989.988
465.3227, 2956.107
465.8048, 2901.542
466.2870, 2826.333
466.7691, 2764.035
467.2512, 2722.495
467.7333, 2691.599
468.2154, 2665.272
468.6975, 2646.489
469.1797, 2627.374
469.6618, 2607.741
470.1439, 2587.758
470.6260, 2567.157
471.1081, 2543.522
471.5902, 2525.126
472.0724, 2518.540
472.5545, 2524.976
473.0366, 2519.107
473.5187, 2497.580
474.0008, 2473.327
474.4829, 2462.730
474.9651, 2464.908
475.4472, 2469.994
475.9293, 2479.824
476.4114, 2487.441
476.8935, 2472.083
477.3756, 2435.991
477.8578, 2405.108
478.3399, 2405.317
478.8220, 2420.882
479.3041, 2429.501
479.7862, 2427.807
480.2683, 2416.288
480.7505, 2384.049
481.2326, 2342.397
481.7147, 2314.941
482.1968, 2327.934
482.6789, 2343.695
483.1610, 2339.142
483.6432, 2309.326
484.1253, 2288.509
484.6074, 2300.193
485.0895, 2316.921
485.5716, 2314.924
486.0537, 2269.458
486.5359, 2232.187
487.0180, 2211.947
487.5001, 2204.032
487.9822, 2184.577
488.4643, 2142.246
488.9464, 2107.323
489.4286, 2098.438
489.9107, 2123.028
490.3928, 2133.914
490.8749, 2128.532
491.3570, 2113.636
491.8391, 2098.262
492.3213, 2082.570
492.8034, 2064.385
493.2855, 2040.853
493.7676, 2015.410
494.2497, 1997.638
494.7318, 1987.547
495.2140, 1977.803
495.6961, 1958.972
496.1782, 1937.181
496.6603, 1924.933
497.1424, 1928.627
497.6245, 1933.333
498.1067, 1928.277
498.5888, 1915.180
499.0709, 1898.208
499.5530, 1868.140
500.0351, 1843.297
500.5172, 1836.983
500.9994, 1853.401
501.4815, 1864.032
501.9636, 1857.036
502.4457, 1844.089
502.9278, 1835.776
503.4099, 1840.889
503.8921, 1840.184
504.3742, 1827.995
504.8563, 1808.368
505.3384, 1798.964
505.8205, 1804.886
506.3026, 1811.509
506.7848, 1811.725
507.2669, 1804.720
507.7490, 1797.946
508.2311, 1791.792
508.7132, 1785.092
509.1953, 1774.652
509.6775, 1761.064
510.1596, 1750.871
510.6417, 1747.532
511.1238, 1748.054
511.6059, 1746.993
512.0880, 1744.371
512.5701, 1741.098
513.0522, 1736.830
513.5344, 1732.568
514.0165, 1729.694
514.4986, 1728.706
514.9807, 1728.283
515.4628, 1725.549
515.9449, 1723.148
516.4271, 1725.572
516.9092, 1738.265
517.3913, 1752.373
517.8734, 1767.936
518.3555, 1785.312
518.8376, 1791.270
519.3198, 1779.421
519.8019, 1759.171
520.2840, 1734.333
520.7661, 1694.912
521.2482, 1672.293
521.7303, 1675.560
522.2125, 1691.948
522.6946, 1691.258
523.1767, 1669.286
523.6588, 1648.091
524.1409, 1638.222
524.6230, 1637.705
525.1052, 1630.924
525.5873, 1617.801
526.0694, 1598.978
526.5515, 1569.291
527.0336, 1534.048
527.5157, 1509.007
527.9979, 1499.720
528.4800, 1499.763
528.9621, 1511.463
529.4442, 1528.536
529.9263, 1532.735
530.4084, 1500.572
530.8906, 1462.077
531.3727, 1436.792
531.8548, 1426.599
532.3369, 1426.391
532.8190, 1453.537
533.3011, 1480.506
533.7833, 1481.854
534.2654, 1414.177
534.7475, 1369.401
535.2296, 1364.703
535.7117, 1389.307
536.1938, 1406.175
536.6760, 1415.724
537.1581, 1417.240
537.6402, 1407.664
538.1223, 1385.638
538.6044, 1371.052
539.0865, 1364.597
539.5687, 1363.204
540.0508, 1368.964
540.5329, 1379.512
541.0150, 1375.041
541.4971, 1344.938
541.9792, 1304.655
542.4614, 1274.278
542.9435, 1254.137
543.4256, 1245.827
543.9077, 1260.599
544.3898, 1281.738
544.8719, 1293.813
545.3541, 1294.913
545.8362, 1289.294
546.3183, 1268.832
546.8004, 1246.788
547.2825, 1237.458
547.7646, 1262.342
548.2468, 1280.009
548.7289, 1276.938
549.2110, 1258.819
549.6931, 1250.246
550.1752, 1255.016
550.6573, 1264.248
551.1395, 1276.895
551.6216, 1295.517
552.1037, 1299.323
552.5858, 1282.936
553.0679, 1263.546
553.5500, 1262.540
554.0322, 1279.215
554.5143, 1297.071
554.9964, 1315.178
555.4785, 1328.765
555.9606, 1321.976
556.4427, 1299.297
556.9249, 1285.281
557.4070, 1305.709
557.8891, 1337.207
558.3712, 1351.086
558.8533, 1342.657
559.3354, 1336.618
559.8176, 1354.971
560.2997, 1379.024
560.7818, 1389.624
561.2639, 1362.188
561.7460, 1342.820
562.2281, 1344.848
562.7103, 1363.082
563.1924, 1377.307
563.6745, 1385.945
564.1566, 1392.351
564.6387, 1397.858
565.1208, 1402.785
565.6030, 1403.199
566.0851, 1397.115
566.5672, 1391.180
567.0493, 1393.501
567.5314, 1403.602
568.0135, 1411.380
568.4957, 1414.652
568.9778, 1415.243
569.4599, 1414.341
569.9420, 1412.743
570.4241, 1413.857
570.9063, 1420.736
571.3884, 1430.444
571.8705, 1441.902
572.3526, 1454.868
572.8347, 1463.999
573.3168, 1459.964
573.7990, 1454.309
574.2811, 1457.277
574.7632, 1482.562
575.2453, 1500.055
575.7274, 1497.276
576.2095, 1485.051
576.6917, 1484.943
577.1738, 1502.846
577.6559, 1523.331
578.1380, 1543.394
578.6201, 1562.842
579.1022, 1577.731
579.5844, 1586.869
580.0665, 1595.817
580.5486, 1609.469
581.0307, 1627.165
581.5128, 1643.966
581.9949, 1659.831
582.4771, 1672.874
582.9592, 1674.062
583.4413, 1670.289
583.9234, 1678.619
584.4055, 1725.017
584.8876, 1771.344
585.3698, 1781.604
585.8519, 1762.849
586.3340, 1754.106
586.8161, 1784.607
587.2982, 1819.952
587.7803, 1839.511
588.2625, 1832.231
588.7446, 1832.681
589.2267, 1847.821
589.7088, 1867.626
590.1909, 1881.146
590.6730, 1885.652
591.1552, 1891.200
591.6373, 1900.360
592.1194, 1911.036
592.6015, 1915.569
593.0836, 1913.464
593.5657, 1913.432
594.0479, 1928.667
594.5300, 1948.828
595.0121, 1941.934
595.4942, 1906.647
595.9763, 1866.628
596.4584, 1837.278
596.9406, 1816.700
597.4227, 1802.560
597.9048, 1797.338
598.3869, 1793.038
598.8690, 1793.127
599.3511, 1790.749
599.8333, 1772.635
600.3154, 1711.057
600.7975, 1659.567
601.2796, 1635.250
601.7617, 1637.326
602.2438, 1635.500
602.7260, 1629.908
603.2081, 1620.375
603.6902, 1605.192
604.1723, 1583.524
604.6544, 1567.338
605.1365, 1558.566
605.6187, 1551.582
606.1008, 1539.041
606.5829, 1521.908
607.0650, 1503.585
607.5471, 1480.462
608.0292, 1461.725
608.5114, 1463.846
608.9935, 1481.061
609.4756, 1493.049
609.9577, 1480.477
610.4398, 1465.846
610.9219, 1465.286
611.4041, 1482.850
611.8862, 1494.230
612.3683, 1484.832
612.8504, 1473.871
613.3325, 1477.126
613.8146, 1509.688
614.2968, 1525.437
614.7789, 1514.957
615.2610, 1492.886
615.7431, 1491.711
616.2252, 1514.436
616.7073, 1527.365
617.1895, 1513.370
617.6716, 1483.028
618.1537, 1465.127
618.6358, 1458.807
619.1179, 1456.693
619.6000, 1458.195
620.0822, 1458.731
620.5643, 1450.424
621.0464, 1430.119
621.5285, 1413.734
622.0106, 1416.789
622.4927, 1425.509
622.9749, 1425.151
623.4570, 1404.071
623.9391, 1383.756
624.4212, 1364.092
624.9033, 1347.448
625.3854, 1341.120
625.8676, 1349.787
626.3497, 1358.427
626.8318, 1360.666
627.3139, 1357.684
627.7960, 1363.958
628.2781, 1381.137
628.7603, 1393.887
629.2424, 1386.507
629.7245, 1365.160
630.2066, 1344.200
630.6887, 1324.460
631.1708, 1310.176
631.6530, 1307.521
632.1351, 1312.208
632.6172, 1317.774
633.0993, 1326.698
633.5814, 1331.046
634.0635, 1326.554
634.5457, 1314.928
635.0278, 1302.460
635.5099, 1285.830
635.9920, 1273.250
636.4741, 1268.705
636.9562, 1272.844
637.4384, 1272.393
637.9205, 1265.993
638.4026, 1258.728
638.8847, 1254.664
639.3668, 1253.552
639.8489, 1253.390
640.3311, 1253.926
640.8132, 1255.480
641.2953, 1259.117
641.7774, 1264.016
642.2595, 1268.470
642.7416, 1271.077
643.2238, 1273.715
643.7059, 1275.823
644.1880, 1278.587
644.6701, 1286.148
645.1522, 1308.787
645.6343, 1328.104
646.1165, 1332.930
646.5986, 1320.745
647.0807, 1321.479
647.5628, 1341.334
648.0449, 1365.122
648.5270, 1380.946
649.0092, 1387.944
649.4913, 1399.012
649.9734, 1416.182
650.4555, 1434.674
650.9376, 1443.176
651.4197, 1446.614
651.9019, 1462.937
652.3840, 1505.936
652.8661, 1554.974
653.3482, 1590.513
653.8303, 1615.800
654.3124, 1640.660
654.7946, 1661.869
655.2767, 1690.420
655.7588, 1733.160
656.2408, 1791.519
656.7230, 1852.090
657.2051, 1914.998
657.6872, 1978.830
658.1693, 2044.174
658.6514, 2113.396
659.1335, 2169.384
659.6157, 2205.110
660.0978, 2244.694
660.5799, 2326.775
661.0620, 2444.178
661.5441, 2552.778
662.0262, 2633.493
662.5084, 2712.657
662.9905, 2828.921
663.4726, 2970.215
663.9547, 3104.202
664.4368, 3222.776
664.9189, 3321.673
665.4011, 3391.170
665.8832, 3432.267
666.3653, 3476.588
666.8474, 3544.864
667.3295, 3603.153
667.8116, 3638.749
668.2938, 3653.285
668.7759, 3634.208
669.2580, 3576.775
669.7401, 3496.435
670.2222, 3406.045
670.7043, 3306.226
671.1865, 3201.760
671.6686, 3093.755
672.1507, 2983.319
672.6328, 2864.431
673.1149, 2742.813
673.5970, 2633.986
674.0792, 2555.359
674.5613, 2480.253
675.0434, 2389.810
675.5255, 2288.138
676.0076, 2196.487
676.4897, 2116.651
676.9719, 2049.916
677.4540, 1996.894
677.9361, 1958.197
678.4182, 1926.799
678.9003, 1905.431
679.3824, 1884.583
679.8646, 1852.646
680.3467, 1811.534
680.8288, 1783.805
681.3109, 1772.642
681.7930, 1770.199
682.2751, 1770.188
682.7573, 1771.771
683.2394, 1773.333
683.7215, 1775.023
684.2036, 1775.654
684.6857, 1776.473
685.1678, 1775.743
685.6500, 1769.420
686.1321, 1744.224
686.6142, 1726.825
687.0963, 1726.170
687.5784, 1740.542
688.0605, 1754.265
688.5427, 1767.452
689.0248, 1779.450
689.5069, 1788.453
689.9890, 1795.088
690.4711, 1807.567
690.9532, 1826.304
691.4354, 1846.791
691.9175, 1873.811
692.3996, 1897.193
692.8817, 1897.215
693.3638, 1862.335
693.8459, 1827.391
694.3281, 1817.751
694.8102, 1818.006
695.2923, 1807.856
695.7744, 1779.692
696.2565, 1744.413
696.7386, 1695.732
697.2208, 1642.913
697.7029, 1614.400
698.1850, 1619.855
698.6671, 1615.021
699.1492, 1581.820
699.6313, 1527.378
700.1135, 1469.472
700.5956, 1409.180
701.0777, 1365.496
701.5598, 1364.154
702.0419, 1380.221
702.5240, 1384.261
703.0062, 1373.513
703.4883, 1356.601
703.9704, 1329.592
704.4525, 1303.144
704.9346, 1285.725
705.4167, 1285.269
705.8989, 1282.263
706.3810, 1273.015
706.8631, 1264.329
707.3452, 1266.985
707.8273, 1283.932
708.3094, 1292.050
708.7916, 1285.835
709.2737, 1271.456
709.7558, 1256.476
710.2379, 1242.351
710.7200, 1233.855
711.2021, 1234.540
711.6843, 1240.830
712.1664, 1253.603
712.6485, 1270.477
713.1306, 1281.193
713.6127, 1275.347
714.0948, 1268.234
714.5770, 1267.177
715.0591, 1272.665
715.5412, 1277.156
716.0233, 1281.459
716.5054, 1283.238
716.9875, 1280.152
717.4697, 1272.266
717.9518, 1265.264
718.4339, 1259.916
718.9160, 1252.941
719.3981, 1237.386
719.8802, 1218.413
720.3624, 1206.558
720.8445, 1205.530
721.3266, 1208.787
721.8087, 1222.499
722.2908, 1235.112
722.7729, 1229.531
723.2551, 1172.068
723.7372, 1133.448
724.2193, 1132.401
724.7014, 1154.526
725.1835, 1158.081
725.6656, 1137.157
726.1478, 1122.301
726.6299, 1127.437
727.1120, 1145.180
727.5941, 1152.980
728.0762, 1151.771
728.5583, 1150.080
729.0405, 1157.815
729.5226, 1165.043
730.0047, 1159.279
730.4868, 1139.758
730.9689, 1123.999
731.4510, 1123.536
731.9332, 1125.591
732.4153, 1120.914
732.8974, 1104.299
733.3795, 1095.996
733.8616, 1097.942
734.3438, 1105.324
734.8259, 1115.521
735.3080, 1128.381
735.7901, 1135.500
736.2722, 1134.743
736.7543, 1131.322
737.2365, 1134.484
737.7186, 1139.583
738.2007, 1136.483
738.6828, 1111.590
739.1649, 1090.620
739.6470, 1090.790
740.1292, 1104.402
740.6113, 1113.865
741.0934, 1110.531
741.5755, 1109.958
742.0576, 1117.355
742.5397, 1129.724
743.0219, 1133.472
743.5040, 1127.877
743.9861, 1118.004
744.4682, 1101.612
744.9503, 1083.781
745.4324, 1081.440
745.9146, 1093.083
746.3967, 1103.732
746.8788, 1104.897
747.3609, 1099.450
747.8430, 1087.257
748.3251, 1066.793
748.8073, 1051.888
749.2894, 1049.423
749.7715, 1050.575
750.2536, 1049.617
750.7357, 1044.514
751.2178, 1044.342
751.7000, 1050.701
752.1821, 1058.271
752.6642, 1060.939
753.1463, 1059.348
753.6284, 1056.040
754.1105, 1050.476
754.5927, 1046.543
755.0748, 1050.644
755.5569, 1058.293
756.0390, 1062.470
756.5211, 1054.595
757.0032, 1049.835
757.4854, 1056.388
757.9675, 1068.465
758.4496, 1072.070
758.9317, 1061.226
759.4138, 1055.520
759.8959, 1061.690
760.3781, 1074.863
760.8602, 1078.747
761.3423, 1073.977
761.8244, 1070.409
762.3065, 1076.555
762.7886, 1084.933
763.2708, 1084.497
763.7529, 1076.635
764.2350, 1070.903
764.7171, 1070.542
765.1992, 1074.483
765.6813, 1085.391
766.1635, 1105.137
766.6456, 1111.899
767.1277, 1098.332
767.6098, 1083.646
768.0919, 1079.461
768.5740, 1085.650
769.0562, 1096.383
769.5383, 1112.040
770.0204, 1127.924
770.5025, 1138.670
770.9846, 1147.115
771.4667, 1158.895
771.9489, 1176.836
772.4310, 1190.002
772.9131, 1188.140
773.3952, 1181.144
773.8773, 1179.181
774.3594, 1191.801
774.8416, 1195.254
775.3237, 1183.119
775.8058, 1168.073
776.2879, 1171.004
776.7700, 1192.099
777.2521, 1203.280
777.7343, 1197.502
778.2164, 1182.123
778.6985, 1161.314
779.1806, 1139.162
779.6627, 1124.445
780.1448, 1125.476
780.6270, 1130.141
781.1091, 1136.259
781.5912, 1142.093
782.0733, 1142.094
782.5554, 1132.655
783.0375, 1123.185
783.5197, 1117.097
784.0018, 1112.211
784.4839, 1096.475
784.9660, 1069.267
785.4481, 1050.766
785.9302, 1063.316
786.4124, 1084.815
786.8945, 1071.586
787.3766, 1030.752
787.8587, 998.6590
788.3408, 1004.485
788.8229, 1016.267
789.3051, 1014.819
789.7872, 997.7708
790.2693, 989.2736
790.7514, 996.8417
791.2335, 1002.004
791.7156, 991.1154
792.1978, 964.6664
792.6799, 958.1750
793.1620, 972.7849
793.6441, 990.2029
794.1262, 994.1235
794.6083, 991.3406
795.0905, 991.3129
795.5726, 995.1265
796.0547, 1001.493
796.5368, 1013.242
797.0189, 1025.020
797.5010, 1032.550
797.9832, 1035.764
798.4653, 1033.370
798.9474, 1021.286
799.4295, 1010.060
799.9116, 1009.844
800.3937, 1020.399
800.8759, 1041.819
801.3580, 1077.894
801.8401, 1106.722
802.3222, 1094.014
802.8043, 1062.248
803.2864, 1045.662
803.7686, 1060.203
804.2507, 1078.412
804.7328, 1098.778
805.2149, 1114.609
805.6970, 1116.413
806.1791, 1096.904
806.6613, 1081.211
807.1434, 1072.115
807.6255, 1068.161
808.1076, 1070.017
808.5897, 1075.990
809.0718, 1074.569
809.5540, 1054.993
810.0361, 1038.660
810.5182, 1055.991
811.0003, 1090.473
811.4824, 1109.936
811.9645, 1083.354
812.4467, 1064.430
812.9288, 1072.102
813.4109, 1095.423
813.8930, 1106.781
814.3751, 1103.057
814.8572, 1100.500
815.3394, 1103.495
815.8215, 1111.121
816.3036, 1126.582
816.7857, 1146.694
817.2678, 1156.049
817.7499, 1137.630
818.2321, 1114.343
818.7142, 1099.569
819.1963, 1092.950
819.6784, 1091.909
820.1605, 1111.401
820.6426, 1117.477
821.1247, 1095.534
821.6068, 1052.021
822.0889, 1027.043
822.5710, 1022.052
823.0532, 1020.714
823.5353, 1013.428
824.0174, 1004.365
824.4995, 1003.234
824.9816, 1008.409
825.4637, 1009.909
825.9459, 994.7195
826.4280, 981.1190
826.9101, 984.3421
827.3922, 1005.695
827.8743, 1006.757
828.3564, 974.3575
828.8386, 945.4120
829.3207, 939.2420
829.8028, 952.4252
830.2849, 957.9288
830.7670, 955.8260
831.2491, 953.8541
831.7313, 963.6605
832.2134, 972.9359
832.6955, 961.0150
833.1776, 927.1751
833.6597, 910.0278
834.1418, 945.2108
834.6240, 980.0939
835.1061, 984.4246
835.5882, 953.6360
836.0703, 940.7053
836.5524, 949.2419
837.0345, 962.3152
837.5167, 964.4192
837.9988, 961.6025
838.4809, 975.0449
838.9630, 1005.575
839.4451, 1034.238
839.9272, 1044.873
840.4094, 1050.414
840.8915, 1060.772
841.3736, 1077.861
841.8557, 1096.570
842.3378, 1116.226
842.8199, 1137.604
843.3021, 1161.991
843.7842, 1189.610
844.2663, 1215.824
844.7484, 1240.982
845.2305, 1261.298
845.7126, 1271.886
846.1948, 1276.242
846.6769, 1279.754
847.1590, 1283.596
847.6411, 1282.303
848.1232, 1272.710
848.6053, 1257.830
849.0875, 1239.647
849.5696, 1217.752
850.0517, 1196.024
850.5338, 1176.855
851.0159, 1151.235
851.4980, 1099.760
851.9802, 1035.133
852.4623, 1005.045
852.9444, 1016.160
853.4265, 1028.169
853.9086, 1005.495
854.3907, 972.7479
854.8729, 951.9511
855.3550, 950.1735
855.8371, 950.8213
856.3192, 959.6623
856.8013, 961.9669
857.2834, 940.0634
857.7656, 893.0422
858.2477, 870.2329
858.7298, 875.6269
859.2119, 891.0949
859.6940, 905.7150
860.1761, 917.1154
860.6583, 921.4101
861.1404, 917.2044
861.6225, 910.1954
862.1046, 897.0352
862.5867, 886.0034
863.0688, 883.5317
863.5510, 892.0405
864.0331, 900.7266
864.5152, 910.9011
864.9973, 917.0994
865.4794, 910.5515
865.9615, 896.3514
866.4437, 888.3687
866.9258, 888.2577
867.4079, 891.8639
867.8900, 895.9103
868.3721, 902.8627
868.8542, 917.2886
869.3364, 948.6817
869.8185, 958.0424
870.3006, 932.4001
870.7827, 905.6670
871.2648, 909.0612
871.7469, 939.0194
872.2291, 953.8986
872.7112, 950.4765
873.1933, 950.4587
873.6754, 983.3260
874.1575, 1023.295
874.6396, 1040.968
875.1218, 1027.365
875.6039, 1018.521
876.0860, 1023.570
876.5681, 1035.363
877.0502, 1051.673
877.5323, 1073.387
878.0145, 1090.964
878.4966, 1104.044
878.9787, 1115.354
879.4608, 1121.670
879.9429, 1129.865
880.4250, 1156.165
880.9072, 1202.492
881.3893, 1241.440
881.8714, 1249.736
882.3535, 1253.966
882.8356, 1272.100
883.3177, 1306.519
883.7999, 1335.449
884.2820, 1358.322
884.7641, 1377.611
885.2462, 1390.457
885.7283, 1401.585
886.2104, 1428.863
886.6926, 1471.828
887.1747, 1514.164
887.6568, 1545.629
888.1389, 1572.297
888.6210, 1598.700
889.1031, 1625.064
889.5853, 1648.624
890.0674, 1667.955
890.5495, 1686.780
891.0316, 1707.894
891.5137, 1730.347
891.9958, 1746.006
892.4780, 1755.452
892.9601, 1765.657
893.4422, 1777.978
893.9243, 1795.552
894.4064, 1826.888
894.8885, 1869.561
895.3707, 1899.498
895.8528, 1890.723
896.3349, 1894.114
896.8170, 1930.352
897.2991, 1992.224
897.7813, 2040.921
898.2634, 2076.020
898.7455, 2105.535
899.2276, 2127.813
899.7097, 2150.507
900.1918, 2187.770
900.6740, 2234.472
901.1561, 2271.390
901.6382, 2281.629
902.1203, 2292.415
902.6024, 2313.932
903.0845, 2342.054
903.5667, 2362.495
904.0488, 2375.598
904.5309, 2377.501
905.0130, 2363.219
905.4951, 2341.534
905.9772, 2325.071
906.4594, 2312.354
906.9415, 2299.411
907.4236, 2291.597
907.9057, 2275.129
908.3878, 2244.998
908.8699, 2202.640
909.3521, 2148.287
909.8342, 2076.825
910.3163, 2012.011
910.7984, 1958.939
911.2805, 1914.191
911.7626, 1875.479
912.2448, 1841.005
912.7269, 1805.680
913.2090, 1764.072
913.6911, 1728.221
914.1732, 1707.401
914.6553, 1694.419
915.1375, 1678.679
915.6196, 1657.940
916.1017, 1640.940
916.5838, 1630.166
917.0659, 1619.018
917.5480, 1594.764
918.0302, 1562.983
918.5123, 1541.531
918.9944, 1536.475
919.4765, 1531.802
919.9586, 1514.835
920.4407, 1494.837
920.9229, 1481.114
921.4050, 1477.814
921.8871, 1471.129
922.3692, 1459.356
922.8513, 1447.881
923.3334, 1443.385
923.8156, 1443.601
924.2977, 1440.021
924.7798, 1431.988
925.2619, 1421.118
925.7440, 1405.982
926.2261, 1390.454
926.7083, 1378.247
927.1904, 1370.444
927.6725, 1359.264
928.1546, 1338.523
928.6367, 1326.666
929.1188, 1342.838
929.6010, 1378.140
930.0831, 1381.259
930.5652, 1354.987
931.0473, 1329.692
931.5294, 1326.054
932.0115, 1329.867
932.4937, 1332.019
932.9758, 1332.320
933.4579, 1334.761
933.9400, 1347.385
934.4221, 1346.646
934.9042, 1318.572
935.3864, 1275.907
935.8685, 1260.964
936.3506, 1269.597
936.8327, 1275.962
937.3148, 1263.733
937.7969, 1248.501
938.2791, 1242.671
938.7612, 1242.230
939.2433, 1237.281
939.7254, 1220.807
940.2075, 1210.665
940.6896, 1212.467
941.1718, 1217.741
941.6539, 1210.171
942.1360, 1191.726
942.6181, 1171.223
943.1002, 1147.348
943.5823, 1132.031
944.0645, 1143.549
944.5466, 1165.155
945.0287, 1176.143
945.5108, 1165.936
945.9929, 1156.296
946.4750, 1147.222
946.9572, 1138.512
947.4393, 1128.614
947.9214, 1118.504
948.4035, 1112.195
948.8856, 1109.774
949.3677, 1115.840
949.8499, 1141.274
950.3320, 1171.553
950.8141, 1194.587
951.2962, 1207.651
951.7783, 1220.142
952.2604, 1234.580
952.7426, 1243.653
953.2247, 1236.213
953.7068, 1219.309
954.1889, 1232.638
954.6710, 1272.424
955.1531, 1305.050
955.6353, 1298.578
956.1174, 1287.615
956.5995, 1298.754
957.0816, 1328.515
957.5637, 1345.529
958.0458, 1342.009
958.5280, 1341.989
959.0101, 1352.845
959.4922, 1371.131
959.9743, 1389.498
960.4564, 1407.960
960.9385, 1426.963
961.4207, 1448.141
961.9028, 1467.966
962.3849, 1485.732
962.8670, 1500.690
963.3491, 1510.609
963.8312, 1510.924
964.3134, 1519.778
964.7955, 1541.756
965.2776, 1565.539
965.7597, 1571.824
966.2418, 1568.330
966.7239, 1576.363
967.2061, 1601.995
967.6882, 1627.583
968.1703, 1642.617
968.6524, 1654.239
969.1345, 1666.166
969.6166, 1676.140
970.0988, 1700.312
970.5809, 1740.443
971.0630, 1788.092
971.5451, 1841.126
972.0272, 1895.882
972.5093, 1943.783
972.9915, 1986.155
973.4736, 2038.410
973.9557, 2119.318
974.4378, 2200.545
974.9199, 2263.226
975.4020, 2314.891
975.8842, 2394.828
976.3663, 2505.423
976.8484, 2618.087
977.3305, 2717.244
977.8126, 2817.447
978.2947, 2945.969
978.7769, 3092.519
979.2590, 3229.280
979.7411, 3341.923
980.2232, 3451.530
980.7053, 3575.039
981.1874, 3689.462
981.6696, 3760.473
982.1517, 3787.215
982.6338, 3801.028
983.1159, 3802.111
983.5980, 3812.868
984.0801, 3856.425
984.5623, 3921.654
985.0444, 3994.201
985.5264, 4065.596
986.0085, 4171.506
986.4907, 4339.647
986.9728, 4504.690
987.4549, 4629.142
987.9370, 4714.900
988.4191, 4784.279
988.9012, 4835.936
989.3834, 4855.854
989.8655, 4807.396
990.3476, 4747.084
990.8297, 4721.024
991.3118, 4723.586
991.7939, 4709.909
992.2761, 4678.858
992.7582, 4628.719
993.2403, 4556.851
993.7224, 4468.893
994.2045, 4382.463
994.6866, 4292.160
995.1688, 4179.115
995.6509, 4025.640
996.1330, 3870.762
996.6151, 3740.238
997.0972, 3616.876
997.5793, 3476.711
998.0615, 3309.117
998.5436, 3157.498
999.0257, 3024.717
999.5078, 2899.571
999.9899, 2768.019
1000.472, 2638.575
1000.954, 2531.126
1001.436, 2450.044
1001.918, 2362.506
1002.401, 2241.256
1002.883, 2126.278
1003.365, 2037.493
1003.847, 1972.226
1004.329, 1915.385
1004.811, 1866.641
1005.293, 1812.603
1005.775, 1733.589
1006.257, 1656.676
1006.740, 1617.411
1007.222, 1602.574
1007.704, 1578.610
1008.186, 1524.615
1008.668, 1477.209
1009.150, 1438.769
1009.632, 1410.536
1010.114, 1400.168
1010.596, 1403.378
1011.079, 1396.188
1011.561, 1372.642
1012.043, 1347.284
1012.525, 1332.276
1013.007, 1320.257
1013.489, 1303.730
1013.971, 1279.824
1014.453, 1262.229
1014.936, 1250.596
1015.418, 1246.423
1015.900, 1251.749
1016.382, 1264.931
1016.864, 1288.474
1017.346, 1318.596
1017.828, 1336.205
1018.310, 1310.695
1018.792, 1295.256
1019.275, 1314.851
1019.757, 1356.813
1020.239, 1390.666
1020.721, 1415.973
1021.203, 1445.049
1021.685, 1479.834
1022.167, 1522.394
1022.649, 1575.247
1023.132, 1637.541
1023.614, 1707.368
1024.096, 1785.022
1024.578, 1869.927
1025.060, 1959.016
1025.542, 2058.980
1026.024, 2175.800
1026.506, 2308.889
1026.989, 2444.924
1027.471, 2584.749
1027.953, 2752.588
1028.435, 2985.823
1028.917, 3232.658
1029.399, 3445.781
1029.881, 3638.536
1030.363, 3884.071
1030.845, 4195.369
1031.328, 4518.122
1031.810, 4843.691
1032.292, 5170.617
1032.774, 5483.619
1033.256, 5797.633
1033.738, 6151.382
1034.220, 6584.668
1034.702, 7007.496
1035.184, 7411.463
1035.667, 7793.613
1036.149, 8156.098
1036.631, 8500.277
1037.113, 8817.032
1037.595, 9108.631
1038.077, 9374.695
1038.559, 9626.588
1039.041, 9843.994
1039.524, 10004.67
1040.006, 10108.59
1040.488, 10204.83
1040.970, 10310.69
1041.452, 10373.83
1041.934, 10375.14
1042.416, 10327.49
1042.898, 10243.71
1043.380, 10132.32
1043.863, 10016.87
1044.345, 9909.502
1044.827, 9789.311
1045.309, 9625.784
1045.791, 9461.515
1046.273, 9351.570
1046.755, 9310.076
1047.237, 9190.727
1047.719, 8990.504
1048.202, 8699.596
1048.684, 8268.398
1049.166, 7769.505
1049.648, 7271.400
1050.130, 6778.981
1050.612, 6318.848
1051.094, 5905.382
1051.576, 5495.942
1052.059, 5065.190
1052.541, 4639.950
1053.023, 4272.524
1053.505, 3961.841
1053.987, 3697.697
1054.469, 3497.087
1054.951, 3301.893
1055.433, 3085.789
1055.916, 2861.423
1056.398, 2634.807
1056.880, 2396.377
1057.362, 2214.440
1057.844, 2091.750
1058.326, 1994.106
1058.808, 1895.484
1059.290, 1806.137
1059.772, 1739.927
1060.255, 1695.146
1060.737, 1656.286
1061.219, 1622.626
1061.701, 1589.428
1062.183, 1555.626
1062.665, 1521.545
1063.147, 1485.654
1063.629, 1449.955
1064.111, 1421.643
1064.594, 1406.167
1065.076, 1388.749
1065.558, 1352.744
1066.040, 1318.983
1066.522, 1307.774
1067.004, 1324.134
1067.486, 1324.950
1067.968, 1309.227
1068.450, 1291.985
1068.933, 1284.366
1069.415, 1280.646
1069.897, 1274.789
1070.379, 1267.477
1070.861, 1263.129
1071.343, 1266.997
1071.825, 1264.339
1072.307, 1249.592
1072.790, 1232.040
1073.272, 1226.499
1073.754, 1231.286
1074.236, 1244.409
1074.718, 1269.077
1075.200, 1286.656
1075.682, 1280.942
1076.164, 1271.480
1076.646, 1271.432
1077.129, 1280.743
1077.611, 1287.684
1078.093, 1292.287
1078.575, 1293.624
1079.057, 1284.312
1079.539, 1277.523
1080.021, 1288.550
1080.503, 1310.993
1080.985, 1327.754
1081.468, 1335.570
1081.950, 1342.115
1082.432, 1348.397
1082.914, 1353.315
1083.396, 1351.123
1083.878, 1347.893
1084.360, 1357.921
1084.842, 1384.109
1085.325, 1407.564
1085.807, 1421.098
1086.289, 1429.713
1086.771, 1433.892
1087.253, 1435.028
1087.735, 1439.259
1088.217, 1446.629
1088.699, 1457.964
1089.182, 1478.006
1089.664, 1495.852
1090.146, 1497.832
1090.628, 1495.830
1091.110, 1508.228
1091.592, 1542.428
1092.074, 1564.047
1092.556, 1570.473
1093.038, 1572.378
1093.521, 1577.925
1094.003, 1585.568
1094.485, 1596.033
1094.967, 1608.231
1095.449, 1611.561
1095.931, 1598.318
1096.413, 1584.234
1096.895, 1571.186
1097.377, 1561.633
1097.860, 1566.669
1098.342, 1579.964
1098.824, 1580.341
1099.306, 1558.937
1099.788, 1534.555
1100.270, 1514.193
1100.752, 1495.717
1101.234, 1477.907
1101.717, 1460.660
1102.199, 1442.300
1102.681, 1422.759
1103.163, 1401.402
1103.645, 1376.190
1104.127, 1350.721
1104.609, 1330.178
1105.091, 1311.788
1105.573, 1286.356
1106.056, 1247.586
1106.538, 1222.681
1107.020, 1218.744
1107.502, 1216.682
1107.984, 1187.279
1108.466, 1147.739
1108.948, 1126.534
1109.430, 1127.709
1109.912, 1127.415
1110.395, 1125.544
1110.877, 1112.295
1111.359, 1078.706
1111.841, 1034.683
1112.323, 1012.307
1112.805, 1007.229
1113.287, 1004.649
1113.769, 1000.973
1114.252, 995.6088
1114.734, 985.2742
1115.216, 975.3281
1115.698, 971.6840
1116.180, 975.1615
1116.662, 971.8306
1117.144, 961.4951
1117.626, 955.0267
1118.109, 968.7448
1118.591, 981.8239
1119.073, 976.7010
1119.555, 956.2340
1120.037, 932.0490
1120.519, 897.3854
1121.001, 888.5400
1121.483, 917.2490
1121.965, 954.2390
1122.448, 962.1478
1122.930, 954.5483
1123.412, 950.6937
1123.894, 954.1794
1124.376, 954.5218
1124.858, 948.3694
1125.340, 942.5547
1125.822, 938.0789
1126.304, 937.3972
1126.787, 952.4344
1127.269, 977.2637
1127.751, 994.2032
1128.233, 995.2800
1128.715, 988.7759
1129.197, 966.2135
1129.679, 946.8245
1130.161, 953.0637
1130.644, 982.6258
1131.126, 987.5252
1131.608, 967.8494
1132.090, 953.8682
1132.572, 974.2922
1133.054, 998.0186
1133.536, 1004.093
1134.018, 998.8365
1134.500, 1000.884
1134.983, 1011.271
1135.465, 1019.391
1135.947, 1023.173
1136.429, 1025.498
1136.911, 1026.535
1137.393, 1029.469
1137.875, 1040.014
1138.357, 1060.447
1138.839, 1068.749
1139.322, 1060.661
1139.804, 1055.485
1140.286, 1065.777
1140.768, 1078.089
1141.250, 1063.802
1141.732, 1035.692
1142.214, 1017.949
1142.696, 1020.031
1143.179, 1030.579
1143.661, 1052.363
1144.143, 1074.636
1144.625, 1090.091
1145.107, 1098.972
1145.589, 1098.946
1146.071, 1092.030
1146.553, 1089.774
1147.036, 1102.969
1147.518, 1114.995
1148.000, 1121.911
1148.482, 1124.340
1148.964, 1120.622
1149.446, 1112.373
1149.928, 1110.667
1150.410, 1117.463
1150.892, 1125.870
1151.375, 1133.108
1151.857, 1138.809
1152.339, 1141.931
1152.821, 1143.232
1153.303, 1147.258
1153.785, 1153.973
1154.267, 1157.277
1154.749, 1150.404
1155.231, 1150.660
1155.714, 1189.447
1156.196, 1234.954
1156.678, 1244.998
1157.160, 1209.001
1157.642, 1195.708
1158.124, 1207.185
1158.606, 1225.739
1159.088, 1242.113
1159.571, 1257.871
1160.053, 1275.927
1160.535, 1294.876
1161.017, 1311.006
1161.499, 1321.722
1161.981, 1335.211
1162.463, 1353.374
1162.945, 1370.238
1163.427, 1378.980
1163.910, 1382.243
1164.392, 1381.840
1164.874, 1378.665
1165.356, 1379.622
1165.838, 1387.742
1166.320, 1398.333
1166.802, 1411.739
1167.284, 1425.108
1167.766, 1431.866
1168.249, 1435.196
1168.731, 1443.262
1169.213, 1458.728
1169.695, 1472.454
1170.177, 1478.988
1170.659, 1485.901
1171.141, 1493.331
1171.623, 1504.801
1172.106, 1544.354
1172.588, 1600.943
1173.070, 1631.638
1173.552, 1599.557
1174.034, 1573.813
1174.516, 1590.258
1174.998, 1617.144
1175.480, 1627.990
1175.963, 1624.177
1176.445, 1646.938
1176.927, 1693.104
1177.409, 1730.079
1177.891, 1731.358
1178.373, 1724.857
1178.855, 1721.857
1179.337, 1721.143
1179.819, 1720.935
1180.302, 1721.275
1180.784, 1719.958
1181.266, 1716.475
1181.748, 1717.125
1182.230, 1730.444
1182.712, 1746.460
1183.194, 1756.585
1183.676, 1762.989
1184.158, 1778.012
1184.641, 1803.470
1185.123, 1814.286
1185.605, 1801.521
1186.087, 1784.416
1186.569, 1778.723
1187.051, 1779.687
1187.533, 1783.463
1188.015, 1789.709
1188.498, 1794.971
1188.980, 1798.483
1189.462, 1807.440
1189.944, 1831.618
1190.426, 1851.606
1190.908, 1833.530
1191.390, 1800.759
1191.872, 1790.359
1192.354, 1820.933
1192.837, 1828.704
1193.319, 1809.258
1193.801, 1789.331
1194.283, 1789.825
1194.765, 1798.715
1195.247, 1804.176
1195.729, 1804.694
1196.211, 1795.001
1196.693, 1762.406
1197.176, 1748.590
1197.658, 1760.099
1198.140, 1777.276
1198.622, 1784.245
1199.104, 1782.182
1199.586, 1768.363
1200.068, 1745.259
1200.550, 1730.298
1201.033, 1729.382
1201.515, 1729.218
1201.997, 1725.269
1202.479, 1726.490
1202.961, 1760.438
1203.443, 1801.869
1203.925, 1800.746
1204.407, 1747.189
1204.890, 1718.110
1205.372, 1743.244
1205.854, 1757.111
1206.336, 1732.530
1206.818, 1692.795
1207.300, 1686.283
1207.782, 1699.797
1208.264, 1706.741
1208.746, 1697.091
1209.229, 1695.711
1209.711, 1713.617
1210.193, 1725.140
1210.675, 1711.667
1211.157, 1685.875
1211.639, 1681.113
1212.121, 1690.328
1212.603, 1694.738
1213.085, 1680.651
1213.568, 1674.229
1214.050, 1681.515
1214.532, 1691.112
1215.014, 1691.887
1215.496, 1688.375
1215.978, 1695.179
1216.460, 1710.298
1216.942, 1725.243
1217.425, 1740.818
1217.907, 1748.624
1218.389, 1744.454
1218.871, 1737.599
1219.353, 1736.538
1219.835, 1741.775
1220.317, 1759.659
1220.799, 1788.326
1221.281, 1807.440
1221.764, 1802.827
1222.246, 1794.244
1222.728, 1784.349
1223.210, 1775.664
1223.692, 1775.680
1224.174, 1779.717
1224.656, 1773.886
1225.138, 1755.929
1225.620, 1738.283
1226.103, 1721.719
1226.585, 1711.821
1227.067, 1712.101
1227.549, 1718.095
1228.031, 1722.054
1228.513, 1723.316
1228.995, 1718.598
1229.477, 1704.886
1229.960, 1696.818
1230.442, 1706.460
1230.924, 1711.610
1231.406, 1699.923
1231.888, 1678.763
1232.370, 1668.499
1232.852, 1666.357
1233.334, 1665.199
1233.816, 1667.035
1234.299, 1658.663
1234.781, 1629.480
1235.263, 1602.763
1235.745, 1596.388
1236.227, 1603.270
1236.709, 1601.463
1237.191, 1593.217
1237.673, 1585.833
1238.156, 1581.948
1238.638, 1579.691
1239.120, 1580.278
1239.602, 1579.642
1240.084, 1575.453
1240.566, 1566.962
1241.048, 1547.752
1241.530, 1521.344
1242.012, 1502.456
1242.495, 1508.153
1242.977, 1505.082
1243.459, 1486.140
1243.941, 1462.751
1244.423, 1448.424
1244.905, 1439.448
1245.387, 1428.259
1245.869, 1414.641
1246.351, 1400.525
1246.834, 1380.560
1247.316, 1370.499
1247.798, 1375.227
1248.280, 1385.924
1248.762, 1393.970
1249.244, 1397.917
1249.726, 1392.053
1250.208, 1376.125
1250.691, 1369.030
1251.173, 1383.271
1251.655, 1386.257
1252.137, 1367.140
1252.619, 1338.994
1253.101, 1316.941
1253.583, 1302.055
1254.065, 1297.977
1254.547, 1306.232
1255.030, 1313.779
1255.512, 1320.049
1255.994, 1323.753
1256.476, 1324.190
1256.958, 1322.350
1257.440, 1320.479
1257.922, 1317.018
1258.404, 1307.775
1258.886, 1288.454
1259.369, 1283.416
1259.851, 1297.293
1260.333, 1307.251
1260.815, 1300.779
1261.297, 1288.155
1261.779, 1281.814
1262.261, 1278.867
1262.743, 1274.700
1263.226, 1267.492
1263.708, 1264.894
1264.190, 1267.693
1264.672, 1269.832
1265.154, 1266.187
1265.636, 1261.982
1266.118, 1262.408
1266.600, 1266.057
1267.083, 1271.625
1267.565, 1281.638
1268.047, 1279.523
1268.529, 1264.150
1269.011, 1253.068
1269.493, 1267.184
1269.975, 1281.239
1270.457, 1269.963
1270.939, 1247.221
1271.422, 1237.409
1271.904, 1241.253
1272.386, 1257.457
1272.868, 1285.860
1273.350, 1304.682
1273.832, 1285.467
1274.314, 1265.436
1274.796, 1272.780
1275.278, 1291.933
1275.761, 1298.178
1276.243, 1291.987
1276.725, 1285.681
1277.207, 1280.164
1277.689, 1274.083
1278.171, 1265.925
1278.653, 1257.493
1279.135, 1246.538
1279.618, 1238.136
1280.100, 1243.622
1280.582, 1259.865
1281.064, 1269.908
1281.546, 1272.021
1282.028, 1273.073
1282.510, 1278.016
1282.992, 1280.524
1283.474, 1278.244
1283.957, 1273.168
1284.439, 1266.942
1284.921, 1261.129
1285.403, 1259.778
1285.885, 1263.443
1286.367, 1272.829
1286.849, 1293.986
1287.331, 1312.123
1287.813, 1324.558
1288.296, 1329.584
1288.778, 1318.766
1289.260, 1300.489
1289.742, 1291.297
1290.224, 1295.029
1290.706, 1291.288
1291.188, 1271.364
1291.670, 1263.579
1292.153, 1281.245
1292.635, 1305.825
1293.117, 1307.157
1293.599, 1299.981
1294.081, 1306.321
1294.563, 1332.133
1295.045, 1346.826
1295.527, 1349.332
1296.010, 1347.557
1296.492, 1343.769
1296.974, 1338.304
1297.456, 1324.319
1297.938, 1313.411
##END=



