##NAMES=Brochantite
##RRUFFID=R100199
##IDEAL CHEMISTRY=Cu^2+^_4_S^6+^O_4_(OH)_6_
##LOCALITY=Milpillas mine, Municipio de Santa Cruz, Sonora, Mexico
##OWNER=RRUFF
##SOURCE=Donald K Olson
##DESCRIPTION=Loose green acicular crystals, MDO1 polytype
##STATUS=The identification of this mineral has been confirmed by single-crystal X-ray diffraction.
##URL=rruff.info/R100199
122.9073, 82.55624
123.3894, 81.53588
123.8715, 80.05692
124.3536, 77.91866
124.8357, 76.83524
125.3178, 77.20403
125.8000, 77.46522
126.2821, 76.82439
126.7642, 75.52760
127.2463, 74.53922
127.7284, 74.46998
128.2105, 74.86054
128.6927, 74.79896
129.1748, 74.03405
129.6569, 73.18305
130.1390, 73.01336
130.6211, 73.70142
131.1032, 74.00977
131.5854, 72.89871
132.0675, 71.29569
132.5496, 70.03498
133.0317, 69.45187
133.5138, 69.34336
133.9959, 69.27258
134.4781, 69.43571
134.9602, 69.28331
135.4423, 68.37622
135.9244, 67.16950
136.4065, 66.30723
136.8886, 66.24368
137.3708, 66.89298
137.8529, 67.06345
138.3350, 66.24744
138.8171, 65.42574
139.2992, 64.73663
139.7813, 64.21709
140.2635, 63.90583
140.7456, 63.87770
141.2277, 64.19997
141.7098, 64.13980
142.1919, 63.47768
142.6740, 62.70451
143.1561, 62.04610
143.6383, 61.53310
144.1204, 61.10246
144.6025, 60.69300
145.0846, 60.30620
145.5667, 59.98068
146.0488, 59.71608
146.5310, 59.51599
147.0131, 59.41909
147.4952, 59.45265
147.9773, 59.48402
148.4594, 59.39122
148.9415, 59.19143
149.4237, 58.81707
149.9058, 58.02787
150.3879, 57.02616
150.8700, 56.43601
151.3521, 56.58305
151.8342, 56.85832
152.3164, 56.68839
152.7985, 56.12895
153.2806, 55.59945
153.7627, 55.54963
154.2448, 55.99607
154.7269, 56.06842
155.2091, 55.32118
155.6912, 54.39085
156.1733, 53.41680
156.6554, 52.47644
157.1375, 51.81741
157.6196, 51.85649
158.1018, 52.95504
158.5839, 53.69498
159.0660, 53.90163
159.5481, 53.84929
160.0302, 53.58267
160.5123, 53.15685
160.9945, 52.74136
161.4766, 52.66133
161.9587, 53.36575
162.4408, 53.73171
162.9229, 53.50904
163.4050, 53.08895
163.8871, 52.82005
164.3693, 52.83254
164.8514, 53.03487
165.3335, 53.21816
165.8156, 53.56841
166.2977, 53.63901
166.7798, 53.24406
167.2620, 52.56405
167.7441, 51.80851
168.2262, 51.02037
168.7083, 50.32152
169.1904, 50.11949
169.6725, 50.67461
170.1547, 51.14012
170.6368, 51.16777
171.1189, 50.83204
171.6010, 50.35097
172.0831, 49.70477
172.5652, 49.07307
173.0474, 48.76569
173.5295, 48.86988
174.0116, 49.12784
174.4937, 49.46550
174.9758, 49.88343
175.4579, 50.04233
175.9401, 49.60536
176.4222, 48.90786
176.9043, 48.25897
177.3864, 47.65718
177.8685, 47.24572
178.3506, 47.27571
178.8328, 47.87685
179.3149, 48.46158
179.7970, 49.09501
180.2791, 49.50767
180.7612, 49.30325
181.2433, 48.25130
181.7255, 46.85010
182.2076, 46.21556
182.6897, 46.83337
183.1718, 47.36401
183.6539, 47.44808
184.1360, 47.34689
184.6181, 47.36488
185.1003, 47.66250
185.5824, 48.09639
186.0645, 48.14561
186.5466, 47.36111
187.0287, 46.71534
187.5108, 46.34583
187.9930, 46.18346
188.4751, 46.18440
188.9572, 46.33933
189.4393, 46.58033
189.9214, 46.51291
190.4035, 45.61067
190.8857, 44.98529
191.3678, 45.09232
191.8499, 44.49948
192.3320, 45.77440
192.8141, 46.44393
193.2962, 46.54058
193.7784, 44.34855
194.2605, 45.11188
194.7426, 44.69085
195.2247, 44.22124
195.7068, 45.40053
196.1889, 43.54140
196.6711, 44.69451
197.1532, 44.64521
197.6353, 45.14623
198.1174, 44.45557
198.5995, 44.13298
199.0816, 45.00246
199.5638, 45.21186
200.0459, 44.38402
200.5280, 43.68528
201.0101, 44.03559
201.4922, 44.19326
201.9743, 43.98960
202.4565, 43.73806
202.9386, 43.77122
203.4207, 44.10064
203.9028, 44.30107
204.3849, 43.91012
204.8670, 43.33027
205.3492, 43.18409
205.8313, 43.79451
206.3134, 44.60304
206.7955, 44.93406
207.2776, 44.73297
207.7597, 44.30326
208.2419, 43.43644
208.7240, 42.53819
209.2061, 42.05975
209.6882, 42.21572
210.1703, 42.70456
210.6524, 42.99178
211.1346, 42.95603
211.6167, 43.03045
212.0988, 43.33598
212.5809, 43.80743
213.0630, 44.45826
213.5451, 45.32636
214.0273, 46.23008
214.5094, 46.76075
214.9915, 46.85283
215.4736, 46.63314
215.9557, 45.97656
216.4378, 45.15305
216.9200, 44.42823
217.4021, 43.92585
217.8842, 43.55931
218.3663, 43.07191
218.8484, 42.16301
219.3305, 41.59481
219.8127, 41.50298
220.2948, 41.73994
220.7769, 42.26325
221.2590, 43.05453
221.7411, 43.91124
222.2232, 44.22667
222.7054, 43.34035
223.1875, 42.66443
223.6696, 42.40130
224.1517, 42.34637
224.6338, 42.21231
225.1159, 41.86767
225.5980, 41.47527
226.0802, 41.51630
226.5623, 42.47113
227.0444, 43.30151
227.5265, 44.08199
228.0086, 44.65548
228.4907, 44.70781
228.9729, 44.08335
229.4550, 43.09373
229.9371, 42.56210
230.4192, 42.74764
230.9013, 42.94815
231.3834, 43.10289
231.8656, 43.20031
232.3477, 43.21359
232.8298, 43.12689
233.3119, 42.97478
233.7940, 42.84483
234.2761, 42.81729
234.7583, 42.62856
235.2404, 41.95852
235.7225, 41.12182
236.2046, 40.67400
236.6867, 40.82184
237.1688, 41.36440
237.6510, 42.09237
238.1331, 43.10155
238.6152, 43.79392
239.0973, 43.84379
239.5794, 43.44198
240.0615, 42.95918
240.5437, 42.44460
241.0258, 41.97466
241.5079, 41.58401
241.9900, 41.24574
242.4721, 41.19586
242.9542, 41.78232
243.4364, 42.73830
243.9185, 43.33396
244.4006, 43.29657
244.8827, 43.11118
245.3648, 43.37176
245.8469, 44.00552
246.3290, 44.42250
246.8112, 44.11659
247.2933, 43.35179
247.7754, 42.96158
248.2575, 43.19678
248.7396, 43.58289
249.2217, 43.81316
249.7039, 43.89622
250.1860, 43.83606
250.6681, 43.60360
251.1502, 43.22437
251.6323, 42.77026
252.1144, 42.18245
252.5966, 41.62582
253.0787, 41.13630
253.5608, 40.74100
254.0429, 40.50885
254.5250, 40.58426
255.0071, 40.86041
255.4893, 40.88456
255.9714, 40.43553
256.4535, 40.09290
256.9356, 40.25330
257.4177, 40.65741
257.8998, 40.85417
258.3820, 40.49118
258.8641, 39.79202
259.3462, 39.61321
259.8283, 40.43392
260.3104, 40.98108
260.7925, 40.65911
261.2747, 39.91541
261.7568, 39.33057
262.2389, 39.19400
262.7210, 39.38554
263.2031, 39.55701
263.6852, 39.66798
264.1674, 39.83264
264.6495, 40.21322
265.1316, 40.59906
265.6137, 40.74797
266.0958, 40.55023
266.5779, 40.12183
267.0601, 39.71389
267.5422, 39.25881
268.0243, 38.96660
268.5064, 38.84784
268.9885, 38.88168
269.4706, 39.16981
269.9528, 39.72929
270.4349, 40.26752
270.9170, 40.15512
271.3991, 38.87028
271.8812, 37.95995
272.3633, 37.52171
272.8455, 37.43129
273.3276, 37.75627
273.8097, 38.44726
274.2918, 39.16926
274.7739, 39.37625
275.2560, 38.73170
275.7382, 38.27323
276.2202, 38.06570
276.7024, 37.95254
277.1845, 37.81128
277.6666, 37.63857
278.1487, 37.54852
278.6308, 37.73099
279.1129, 38.39397
279.5951, 38.58343
280.0772, 37.81650
280.5593, 37.07760
281.0414, 36.95884
281.5235, 37.40856
282.0056, 37.95802
282.4878, 38.14706
282.9699, 37.90681
283.4520, 37.80900
283.9341, 38.22889
284.4162, 38.41413
284.8983, 37.69604
285.3805, 36.43062
285.8626, 35.60617
286.3447, 36.06366
286.8268, 37.77038
287.3089, 38.81320
287.7910, 38.76032
288.2732, 38.56958
288.7553, 38.47686
289.2374, 38.44189
289.7195, 38.37057
290.2016, 38.21833
290.6837, 37.96034
291.1659, 37.43000
291.6480, 35.90951
292.1301, 34.95937
292.6122, 35.33500
293.0943, 36.31043
293.5764, 36.76040
294.0586, 36.14948
294.5407, 34.99493
295.0228, 34.69866
295.5049, 36.52066
295.9870, 37.68385
296.4691, 37.69315
296.9513, 37.16851
297.4334, 36.69408
297.9155, 36.47147
298.3976, 36.46894
298.8797, 36.67847
299.3618, 37.57953
299.8440, 37.70827
300.3261, 36.14145
300.8082, 34.39496
301.2903, 33.83415
301.7724, 34.65218
302.2545, 35.91027
302.7367, 36.53387
303.2188, 36.35753
303.7009, 36.05275
304.1830, 35.46761
304.6651, 34.88764
305.1472, 34.42909
305.6294, 34.12831
306.1115, 34.04039
306.5936, 34.23208
307.0757, 34.72154
307.5578, 35.21337
308.0399, 35.91555
308.5221, 36.42122
309.0042, 36.43421
309.4863, 36.09113
309.9684, 35.76753
310.4505, 35.72040
310.9326, 35.88448
311.4148, 35.79659
311.8969, 35.14644
312.3790, 34.64210
312.8611, 34.45735
313.3432, 34.52805
313.8253, 34.84219
314.3075, 35.42608
314.7896, 36.03805
315.2717, 36.02828
315.7538, 34.58750
316.2359, 33.69587
316.7180, 33.99943
317.2001, 34.71245
317.6823, 34.92074
318.1644, 34.36945
318.6465, 33.53262
319.1286, 33.10376
319.6107, 33.22538
320.0928, 33.50185
320.5750, 34.28741
321.0571, 34.98251
321.5392, 34.96760
322.0213, 34.25835
322.5034, 33.50122
322.9855, 33.35008
323.4677, 33.90069
323.9498, 34.44054
324.4319, 35.10008
324.9140, 35.63408
325.3961, 35.96256
325.8782, 36.06686
326.3604, 35.89870
326.8425, 35.38137
327.3246, 34.56425
327.8067, 34.00381
328.2888, 33.73685
328.7709, 33.64100
329.2531, 33.79209
329.7352, 34.07790
330.2173, 34.34072
330.6994, 34.50896
331.1815, 34.58631
331.6636, 34.58077
332.1458, 34.40189
332.6279, 34.24815
333.1100, 34.25109
333.5921, 34.22081
334.0742, 33.86076
334.5563, 33.12259
335.0385, 32.35827
335.5206, 32.08736
336.0027, 32.48381
336.4848, 32.98959
336.9669, 33.92786
337.4490, 34.71888
337.9312, 34.89931
338.4133, 34.51085
338.8954, 33.95771
339.3775, 33.59694
339.8596, 33.43343
340.3417, 33.40111
340.8239, 33.66570
341.3060, 33.87174
341.7881, 33.86148
342.2702, 33.69720
342.7523, 33.50224
343.2344, 33.34459
343.7166, 33.23914
344.1987, 33.26165
344.6808, 33.60582
345.1629, 33.86199
345.6450, 34.02779
346.1271, 34.07185
346.6093, 33.90044
347.0914, 33.49317
347.5735, 33.01408
348.0556, 32.79479
348.5377, 33.05387
349.0198, 33.18283
349.5020, 33.08784
349.9841, 32.95111
350.4662, 32.88439
350.9483, 32.90577
351.4304, 32.98380
351.9125, 33.10935
352.3947, 33.31674
352.8768, 33.33808
353.3589, 32.77199
353.8410, 32.41848
354.3231, 32.80988
354.8052, 33.63292
355.2874, 34.18164
355.7695, 33.92348
356.2516, 33.05039
356.7337, 32.67370
357.2158, 33.27192
357.6979, 33.73824
358.1800, 33.89313
358.6621, 33.81489
359.1443, 33.51078
359.6264, 32.98553
360.1085, 32.46008
360.5906, 32.38977
361.0727, 33.03487
361.5548, 33.45480
362.0370, 33.41458
362.5191, 33.24314
363.0012, 33.03852
363.4833, 32.86204
363.9654, 32.86058
364.4475, 33.33059
364.9297, 34.32994
365.4118, 34.81484
365.8939, 34.43196
366.3760, 33.87996
366.8581, 33.23666
367.3402, 32.64901
367.8224, 32.41082
368.3045, 32.81888
368.7866, 33.59272
369.2687, 33.84422
369.7508, 33.28675
370.2329, 32.83691
370.7151, 32.97677
371.1972, 33.28599
371.6793, 33.30087
372.1614, 32.85609
372.6435, 32.35088
373.1256, 32.29560
373.6078, 32.71785
374.0899, 33.20097
374.5720, 33.83894
375.0541, 34.33990
375.5362, 34.46305
376.0183, 34.22866
376.5005, 33.88177
376.9826, 33.53536
377.4647, 33.19807
377.9468, 32.86659
378.4289, 32.46478
378.9110, 32.24317
379.3932, 32.52745
379.8753, 33.09293
380.3574, 33.52326
380.8395, 33.69885
381.3216, 33.67350
381.8037, 33.40228
382.2859, 32.87579
382.7680, 32.54678
383.2501, 32.75770
383.7322, 33.18986
384.2143, 33.29905
384.6964, 32.97812
385.1786, 32.67826
385.6607, 32.74257
386.1428, 33.02808
386.6249, 33.13101
387.1070, 32.91958
387.5891, 32.61858
388.0713, 32.61583
388.5534, 32.87485
389.0355, 32.69551
389.5176, 31.47674
389.9997, 30.04104
390.4818, 29.13434
390.9640, 28.80200
391.4461, 28.93683
391.9282, 29.61604
392.4103, 30.69624
392.8924, 31.38767
393.3745, 31.41676
393.8567, 31.39422
394.3388, 31.53475
394.8209, 31.79351
395.3030, 32.12873
395.7851, 32.54752
396.2672, 32.91081
396.7494, 32.94607
397.2315, 32.43555
397.7136, 32.11416
398.1957, 32.11920
398.6778, 32.25103
399.1599, 32.40522
399.6420, 32.53976
400.1241, 32.57388
400.6063, 32.42801
401.0884, 32.09667
401.5705, 31.74704
402.0526, 31.30481
402.5347, 30.92811
403.0168, 30.53899
403.4990, 30.27308
403.9811, 30.41291
404.4632, 31.09998
404.9453, 32.07625
405.4274, 32.72155
405.9095, 32.93623
406.3917, 32.94542
406.8738, 32.48377
407.3559, 32.04007
407.8380, 32.10533
408.3201, 32.64123
408.8022, 33.08656
409.2844, 32.77127
409.7665, 31.61305
410.2486, 31.05591
410.7307, 31.86793
411.2128, 32.46518
411.6949, 32.27184
412.1771, 31.57931
412.6592, 30.82850
413.1413, 30.19350
413.6234, 29.76371
414.1055, 29.83439
414.5876, 30.65624
415.0698, 31.21323
415.5519, 30.97480
416.0340, 30.58066
416.5161, 30.44831
416.9982, 30.62811
417.4803, 30.92498
417.9625, 31.25046
418.4446, 31.57923
418.9267, 31.74393
419.4088, 31.72345
419.8909, 31.54645
420.3730, 31.12399
420.8552, 30.57611
421.3373, 30.15438
421.8194, 29.97082
422.3015, 29.91990
422.7836, 29.84618
423.2657, 29.75244
423.7479, 29.87395
424.2300, 30.53289
424.7121, 31.24383
425.1942, 31.11777
425.6763, 29.91211
426.1584, 29.12716
426.6406, 29.93876
427.1227, 31.43749
427.6048, 31.92144
428.0869, 31.04877
428.5690, 30.02193
429.0511, 29.99464
429.5333, 30.97755
430.0154, 31.56170
430.4975, 31.40819
430.9796, 31.17017
431.4617, 31.19836
431.9438, 31.43454
432.4260, 31.74561
432.9081, 32.09601
433.3902, 32.37217
433.8723, 32.28378
434.3544, 31.45167
434.8365, 30.87907
435.3187, 30.72914
435.8008, 30.76317
436.2829, 30.82486
436.7650, 30.87552
437.2471, 30.91105
437.7292, 30.92054
438.2114, 30.90173
438.6935, 30.94967
439.1756, 31.12801
439.6577, 31.30401
440.1398, 31.52313
440.6219, 31.69803
441.1040, 31.66978
441.5862, 31.37332
442.0683, 30.98742
442.5504, 30.88116
443.0325, 31.21095
443.5146, 31.33792
443.9967, 30.84364
444.4789, 30.43971
444.9610, 30.66250
445.4431, 31.36367
445.9252, 31.90273
446.4073, 31.66166
446.8894, 30.91517
447.3716, 30.80194
447.8537, 31.60918
448.3358, 32.33231
448.8179, 32.49095
449.3000, 32.35086
449.7821, 32.12163
450.2643, 31.80545
450.7464, 31.59558
451.2285, 31.84754
451.7106, 32.41530
452.1927, 32.45087
452.6748, 31.54120
453.1570, 30.57296
453.6391, 30.72683
454.1212, 31.72012
454.6033, 32.20071
455.0854, 31.24106
455.5675, 30.09244
456.0497, 30.02604
456.5318, 30.89465
457.0139, 31.64730
457.4960, 31.73405
457.9781, 31.38315
458.4602, 31.20090
458.9424, 31.22978
459.4245, 31.30148
459.9066, 31.45414
460.3887, 31.59847
460.8708, 31.60132
461.3529, 31.46419
461.8351, 31.35528
462.3172, 31.45119
462.7993, 31.76250
463.2814, 31.92474
463.7635, 30.86852
464.2456, 31.96274
464.7278, 32.48228
465.2099, 32.45978
465.6920, 30.17937
466.1741, 30.88506
466.6562, 30.43715
467.1383, 29.97143
467.6205, 31.18535
468.1026, 29.39164
468.5847, 30.64096
469.0668, 30.71860
469.5489, 31.37732
470.0310, 30.87513
470.5132, 30.77181
470.9953, 31.89128
471.4774, 32.38146
471.9595, 31.86515
472.4416, 32.74343
472.9237, 31.37995
473.4059, 30.60104
473.8880, 29.74373
474.3701, 29.38464
474.8522, 29.60107
475.3343, 29.92598
475.8164, 30.10721
476.2986, 30.16918
476.7807, 30.12726
477.2628, 29.94820
477.7449, 29.85830
478.2270, 30.09234
478.7091, 30.56796
479.1913, 30.91758
479.6734, 31.15032
480.1555, 31.22300
480.6376, 31.06904
481.1197, 30.74236
481.6018, 30.29471
482.0839, 29.72760
482.5660, 29.23670
483.0482, 29.13787
483.5303, 29.62824
484.0124, 29.77890
484.4945, 29.38956
484.9766, 28.87195
485.4587, 28.30113
485.9409, 27.78351
486.4230, 27.48920
486.9051, 27.51047
487.3872, 27.82454
487.8693, 28.41370
488.3514, 29.66585
488.8336, 30.45558
489.3157, 30.49775
489.7978, 30.29017
490.2799, 30.09638
490.7620, 29.96438
491.2441, 29.86477
491.7263, 29.75706
492.2084, 29.66373
492.6905, 29.71071
493.1726, 29.95439
493.6547, 30.20269
494.1368, 30.46706
494.6190, 30.65097
495.1011, 30.62900
495.5832, 30.36676
496.0653, 30.00273
496.5474, 29.49940
497.0295, 28.97285
497.5117, 28.86696
497.9938, 29.34487
498.4759, 29.82685
498.9580, 29.77164
499.4401, 29.28886
499.9222, 29.00476
500.4044, 29.11569
500.8865, 29.26783
501.3686, 28.42874
501.8507, 29.40660
502.3328, 29.89758
502.8149, 29.92844
503.2971, 28.08616
503.7792, 28.68938
504.2613, 28.32891
504.7434, 27.94010
505.2255, 28.92087
505.7076, 27.41108
506.1898, 28.39364
506.6719, 28.39762
507.1540, 28.86648
507.6361, 28.36563
508.1182, 28.17955
508.6003, 28.98684
509.0825, 29.26223
509.5646, 28.69506
510.0467, 29.26273
510.5288, 27.83532
511.0109, 28.18051
511.4930, 29.29715
511.9752, 28.83767
512.4573, 29.48160
512.9394, 29.72140
513.4215, 28.69030
513.9036, 28.30525
514.3857, 28.06550
514.8679, 28.37987
515.3500, 28.78390
515.8321, 28.56805
516.3142, 27.62059
516.7963, 26.96314
517.2784, 27.41365
517.7606, 28.23475
518.2427, 28.26864
518.7248, 27.45482
519.2069, 26.71055
519.6890, 26.68622
520.1711, 27.21036
520.6533, 27.42656
521.1354, 26.88815
521.6175, 26.68479
522.0996, 27.30026
522.5817, 28.15811
523.0638, 28.71534
523.5460, 28.86741
524.0281, 28.77097
524.5102, 28.55084
524.9923, 28.21202
525.4744, 27.88844
525.9565, 27.47921
526.4387, 27.23324
526.9208, 27.19020
527.4029, 27.32900
527.8850, 27.73690
528.3671, 28.40853
528.8492, 28.97359
529.3314, 28.86613
529.8135, 28.19169
530.2956, 28.11917
530.7777, 29.12621
531.2598, 29.87579
531.7419, 29.08656
532.2241, 27.58526
532.7062, 26.70662
533.1883, 26.87132
533.6704, 27.33011
534.1525, 27.74071
534.6346, 28.04725
535.1168, 28.04023
535.5989, 27.64308
536.0810, 27.23683
536.5631, 27.18958
537.0452, 27.52141
537.5273, 28.01008
538.0095, 29.16235
538.4916, 29.89594
538.9737, 29.39347
539.4558, 28.36160
539.9379, 27.98313
540.4200, 28.60028
540.9022, 29.39301
541.3843, 29.08954
541.8664, 27.34563
542.3485, 26.45982
542.8306, 27.18380
543.3127, 27.99796
543.7948, 28.57570
544.2769, 28.89577
544.7590, 28.94302
545.2411, 28.69988
545.7233, 28.28036
546.2054, 27.62112
546.6875, 26.77496
547.1696, 26.66077
547.6517, 27.72439
548.1339, 28.95585
548.6160, 29.61445
549.0981, 29.77876
549.5802, 29.55665
550.0623, 28.54325
550.5444, 27.59914
551.0266, 27.37134
551.5087, 27.62148
551.9908, 27.74318
552.4729, 27.54211
552.9550, 27.42296
553.4371, 27.95156
553.9193, 29.31278
554.4014, 30.20152
554.8835, 30.53232
555.3656, 30.56234
555.8477, 30.24947
556.3298, 29.74117
556.8120, 29.19472
557.2941, 28.67342
557.7762, 28.24229
558.2583, 28.01874
558.7404, 28.03189
559.2225, 28.00646
559.7047, 27.81253
560.1868, 27.75010
560.6689, 28.11073
561.1510, 28.64402
561.6331, 28.88810
562.1152, 28.60752
562.5974, 28.28008
563.0795, 28.50755
563.5616, 29.07876
564.0437, 29.10085
564.5258, 28.27252
565.0079, 27.47388
565.4901, 27.63035
565.9722, 28.68187
566.4543, 29.18287
566.9364, 28.48202
567.4185, 27.97927
567.9006, 28.51236
568.3828, 29.45123
568.8649, 29.82936
569.3470, 29.42762
569.8291, 28.83422
570.3112, 28.76925
570.7933, 29.28348
571.2755, 29.39095
571.7576, 28.58501
572.2397, 28.00573
572.7218, 28.09742
573.2039, 28.46284
573.6860, 28.61387
574.1682, 28.43574
574.6503, 28.27607
575.1324, 28.58100
575.6145, 29.20709
576.0966, 29.48588
576.5787, 29.31635
577.0609, 29.03250
577.5430, 28.78931
578.0251, 28.58619
578.5072, 28.39130
578.9893, 28.10769
579.4714, 28.05002
579.9536, 28.51337
580.4357, 29.17708
580.9178, 29.64317
581.3999, 29.87374
581.8820, 30.09255
582.3641, 30.49920
582.8463, 31.01289
583.3284, 31.17021
583.8105, 30.91483
584.2926, 30.34871
584.7747, 28.83039
585.2568, 27.50768
585.7390, 27.50065
586.2211, 28.64411
586.7032, 29.76653
587.1853, 30.04482
587.6674, 29.69754
588.1495, 29.19855
588.6317, 28.47515
589.1138, 28.06762
589.5959, 28.30226
590.0780, 28.79165
590.5601, 29.11214
591.0422, 29.26719
591.5244, 29.29263
592.0065, 29.06908
592.4886, 28.82156
592.9707, 28.75899
593.4528, 28.85331
593.9349, 28.99960
594.4171, 29.15869
594.8992, 29.29633
595.3813, 29.36857
595.8634, 29.44159
596.3455, 29.23445
596.8276, 28.29161
597.3098, 27.58481
597.7919, 27.67760
598.2740, 28.24496
598.7561, 28.76088
599.2382, 29.01894
599.7203, 29.03196
600.2025, 28.64772
600.6846, 27.88744
601.1667, 27.68428
601.6488, 28.43877
602.1309, 29.13888
602.6130, 28.87655
603.0952, 28.09181
603.5773, 27.67772
604.0594, 27.89243
604.5415, 28.21185
605.0236, 28.46803
605.5057, 28.62080
605.9879, 28.56082
606.4700, 28.29011
606.9521, 27.97772
607.4342, 27.74815
607.9163, 27.60676
608.3984, 27.59722
608.8806, 27.82949
609.3627, 28.04816
609.8448, 28.25237
610.3269, 28.41987
610.8090, 28.48315
611.2911, 28.47825
611.7733, 28.57714
612.2554, 29.01644
612.7375, 29.53388
613.2196, 29.41854
613.7017, 28.59743
614.1838, 27.89000
614.6660, 27.47384
615.1481, 27.35206
615.6302, 27.67473
616.1123, 28.40337
616.5944, 28.87659
617.0765, 28.90702
617.5587, 28.69219
618.0408, 28.13151
618.5229, 27.45645
619.0050, 27.16910
619.4871, 27.44137
619.9692, 28.02657
620.4514, 28.66755
620.9335, 29.44840
621.4156, 29.64839
621.8977, 28.55774
622.3798, 27.71596
622.8619, 27.72034
623.3441, 28.07664
623.8262, 28.16708
624.3083, 27.85335
624.7904, 27.58579
625.2725, 27.83079
625.7546, 28.40606
626.2367, 28.89568
626.7188, 29.30474
627.2009, 29.27756
627.6830, 28.40519
628.1652, 27.15734
628.6473, 26.63854
629.1294, 26.98410
629.6115, 27.44825
630.0936, 28.12585
630.5757, 28.71371
631.0579, 29.00536
631.5400, 29.01966
632.0221, 28.83473
632.5042, 28.48682
632.9863, 28.04122
633.4684, 27.58025
633.9506, 27.05400
634.4327, 26.76525
634.9148, 26.91828
635.3969, 27.07587
635.8790, 26.85289
636.3611, 26.52979
636.8433, 26.66173
637.3254, 27.53827
637.8075, 28.39161
638.2896, 28.65839
638.7717, 28.51398
639.2538, 28.16518
639.7360, 27.66292
640.2181, 27.43212
640.7002, 27.84708
641.1823, 28.70349
641.6644, 29.17150
642.1465, 28.93843
642.6287, 28.72502
643.1108, 28.53332
643.5929, 28.36946
644.0750, 28.22809
644.5571, 28.11753
645.0392, 28.06440
645.5214, 28.09411
646.0035, 28.15415
646.4856, 28.13241
646.9677, 28.02956
647.4498, 28.04524
647.9319, 28.31305
648.4141, 28.49753
648.8962, 28.18726
649.3783, 27.54598
649.8604, 27.20830
650.3425, 27.40690
650.8246, 27.66489
651.3068, 27.82767
651.7889, 27.93015
652.2710, 28.00856
652.7531, 28.07046
653.2352, 28.10401
653.7173, 28.09062
654.1995, 28.05683
654.6816, 28.16428
655.1637, 28.62961
655.6458, 28.71477
656.1279, 27.78020
656.6100, 26.86939
657.0922, 26.68328
657.5743, 27.05277
658.0564, 27.30085
658.5385, 27.01633
659.0206, 26.72165
659.5027, 26.99986
659.9849, 27.66730
660.4670, 28.28150
660.9491, 28.74808
661.4312, 28.88042
661.9133, 28.42089
662.3954, 27.43352
662.8776, 26.84438
663.3597, 26.81837
663.8418, 26.98813
664.3239, 27.50858
664.8060, 28.07165
665.2881, 28.44623
665.7703, 28.62218
666.2524, 28.70086
666.7345, 28.73769
667.2166, 27.86149
667.6987, 28.89284
668.1808, 29.44473
668.6630, 29.54388
669.1451, 27.77736
669.6272, 28.46372
670.1093, 28.19380
670.5914, 27.90296
671.0735, 28.98911
671.5557, 27.59212
672.0378, 28.69488
672.5199, 28.82649
673.0020, 29.43038
673.4841, 29.07195
673.9662, 29.03574
674.4484, 30.00034
674.9305, 30.44039
675.4126, 30.04532
675.8947, 30.79250
676.3768, 29.53981
676.8589, 29.28118
677.3411, 28.87533
677.8232, 28.54140
678.3053, 28.51940
678.7874, 28.72032
679.2695, 28.81885
679.7516, 28.70991
680.2338, 28.52069
680.7159, 28.18419
681.1980, 27.87008
681.6801, 27.97744
682.1622, 28.50250
682.6443, 28.85374
683.1265, 28.48652
683.6086, 27.61974
684.0907, 27.35258
684.5728, 28.01221
685.0549, 28.55562
685.5370, 28.95945
686.0192, 29.10256
686.5013, 28.67114
686.9834, 27.90731
687.4655, 27.50612
687.9476, 27.88376
688.4297, 28.42013
688.9119, 28.51509
689.3940, 28.35813
689.8761, 28.48329
690.3582, 28.97171
690.8403, 29.23904
691.3224, 28.75352
691.8046, 27.74435
692.2867, 27.31113
692.7688, 28.04345
693.2509, 28.40850
693.7330, 27.95792
694.2151, 27.50376
694.6973, 27.65615
695.1794, 28.19213
695.6615, 28.47818
696.1436, 28.19526
696.6257, 27.74024
697.1078, 27.48483
697.5900, 27.41738
698.0721, 27.56089
698.5542, 27.93744
699.0363, 28.21340
699.5184, 28.09874
700.0005, 27.75763
700.4827, 27.77594
700.9648, 28.55698
701.4469, 29.03840
701.9290, 28.98336
702.4111, 28.83575
702.8932, 28.85433
703.3754, 28.98687
703.8575, 29.08699
704.3396, 29.09534
704.8217, 29.03796
705.3038, 28.93147
705.7859, 28.78346
706.2681, 28.60483
706.7502, 28.38086
707.2323, 28.26742
707.7144, 28.45422
708.1965, 28.71858
708.6786, 28.43940
709.1607, 27.16507
709.6428, 26.69467
710.1249, 27.95193
710.6071, 29.23846
711.0892, 29.55163
711.5713, 29.23467
712.0534, 28.93088
712.5355, 28.86465
713.0176, 28.90096
713.4998, 28.95572
713.9819, 28.99577
714.4640, 28.73701
714.9461, 28.08418
715.4282, 27.76601
715.9103, 28.24133
716.3925, 29.04403
716.8746, 29.43080
717.3567, 29.34370
717.8388, 29.40178
718.3209, 29.98958
718.8030, 30.36759
719.2852, 30.00613
719.7673, 29.30469
720.2494, 28.76073
720.7315, 28.51617
721.2136, 28.50780
721.6957, 28.73946
722.1779, 29.13331
722.6600, 29.38639
723.1421, 29.47613
723.6242, 29.67914
724.1063, 30.24469
724.5884, 30.67740
725.0706, 30.26530
725.5527, 29.09411
726.0348, 28.38092
726.5169, 28.37248
726.9990, 28.60228
727.4811, 29.17527
727.9633, 29.74396
728.4454, 29.80620
728.9275, 29.43716
729.4096, 29.24417
729.8917, 29.69913
730.3738, 30.43237
730.8560, 30.64527
731.3381, 30.32471
731.8202, 29.88272
732.3023, 29.29766
732.7844, 28.80887
733.2665, 28.59389
733.7487, 28.62363
734.2308, 28.77296
734.7129, 29.25987
735.1950, 29.45395
735.6771, 28.83750
736.1592, 28.21081
736.6414, 28.25764
737.1235, 28.82329
737.6056, 29.41809
738.0877, 29.82769
738.5698, 30.10804
739.0519, 30.29272
739.5341, 30.39944
740.0162, 30.66931
740.4983, 31.20814
740.9804, 31.43254
741.4625, 30.90625
741.9446, 30.02671
742.4268, 29.48835
742.9089, 29.28632
743.3910, 29.37876
743.8731, 30.21997
744.3552, 30.86036
744.8373, 30.48737
745.3195, 29.78685
745.8016, 29.89438
746.2837, 30.97092
746.7658, 31.98669
747.2479, 31.94582
747.7300, 31.20650
748.2122, 30.66404
748.6943, 30.31741
749.1764, 30.28714
749.6585, 30.70631
750.1406, 31.19149
750.6227, 31.34493
751.1049, 31.17461
751.5870, 31.05601
752.0691, 31.18570
752.5512, 31.09943
753.0333, 30.38783
753.5154, 29.68350
753.9976, 29.64791
754.4797, 30.11460
754.9618, 30.33850
755.4439, 29.83953
755.9260, 29.30322
756.4081, 29.94176
756.8903, 31.36306
757.3724, 31.81352
757.8545, 31.03623
758.3366, 30.07428
758.8187, 29.50868
759.3008, 29.26843
759.7830, 29.17635
760.2651, 29.23531
760.7472, 29.44627
761.2293, 30.00683
761.7114, 30.48770
762.1935, 30.71065
762.6757, 30.75172
763.1578, 30.69817
763.6399, 30.57521
764.1220, 30.44353
764.6041, 30.22571
765.0862, 30.09509
765.5684, 30.49767
766.0505, 31.28187
766.5326, 31.64787
767.0147, 31.32668
767.4968, 30.79109
767.9789, 30.60379
768.4611, 30.72951
768.9432, 30.30854
769.4253, 28.39926
769.9074, 27.57090
770.3895, 29.24422
770.8716, 31.17018
771.3538, 31.78138
771.8359, 31.36027
772.3180, 31.07581
772.8001, 31.38182
773.2822, 31.73642
773.7643, 31.72187
774.2465, 31.55181
774.7286, 31.64042
775.2107, 31.93216
775.6928, 31.90288
776.1749, 31.23569
776.6570, 30.30936
777.1392, 29.83798
777.6213, 29.85323
778.1034, 30.09780
778.5855, 30.63300
779.0676, 31.28624
779.5497, 32.31543
780.0319, 33.21599
780.5140, 33.20604
780.9961, 32.20402
781.4782, 31.37310
781.9603, 31.05537
782.4424, 30.91828
782.9246, 30.78352
783.4067, 30.69865
783.8888, 30.77136
784.3709, 31.00240
784.8530, 31.27047
785.3351, 31.48097
785.8173, 31.65815
786.2994, 31.92187
786.7815, 32.27184
787.2636, 32.30001
787.7457, 31.83883
788.2278, 31.35105
788.7100, 31.17876
789.1921, 31.26176
789.6742, 31.37370
790.1563, 31.58813
790.6384, 31.69665
791.1205, 31.70361
791.6026, 31.58692
792.0847, 31.20870
792.5668, 30.74258
793.0490, 30.48893
793.5311, 30.53316
794.0132, 30.61860
794.4953, 30.44262
794.9774, 30.21344
795.4595, 30.39141
795.9417, 30.90091
796.4238, 31.23964
796.9059, 31.23829
797.3880, 31.11391
797.8701, 31.11126
798.3522, 31.21485
798.8344, 31.15475
799.3165, 30.69936
799.7986, 30.52507
800.2807, 30.97346
800.7628, 31.52519
801.2449, 31.94627
801.7271, 32.22286
802.2092, 32.31083
802.6913, 32.06421
803.1734, 31.96994
803.6555, 32.50881
804.1376, 33.16100
804.6198, 33.34583
805.1019, 33.13207
805.5840, 32.85676
806.0661, 32.66734
806.5482, 32.48435
807.0303, 32.14490
807.5125, 31.68930
807.9946, 31.52431
808.4767, 31.67932
808.9588, 31.99599
809.4409, 32.56009
809.9230, 33.03787
810.4052, 32.99364
810.8873, 32.42416
811.3694, 31.98791
811.8515, 31.74042
812.3336, 31.54937
812.8157, 31.24493
813.2979, 31.10717
813.7800, 31.46329
814.2621, 32.17799
814.7442, 32.91490
815.2263, 33.58926
815.7084, 33.94942
816.1906, 33.50683
816.6727, 32.64906
817.1548, 32.14705
817.6369, 32.03630
818.1190, 32.15644
818.6011, 32.46020
819.0833, 32.71517
819.5654, 32.53540
820.0475, 31.89434
820.5296, 31.57620
821.0117, 31.66099
821.4938, 31.91255
821.9760, 32.67821
822.4581, 33.22467
822.9402, 32.54044
823.4223, 31.00774
823.9044, 30.45884
824.3865, 32.12104
824.8687, 33.47881
825.3508, 33.19075
825.8329, 32.43631
826.3150, 32.38615
826.7971, 32.90580
827.2792, 33.29794
827.7614, 33.25589
828.2435, 32.96442
828.7256, 32.47117
829.2077, 31.91639
829.6898, 31.97268
830.1719, 32.65310
830.6541, 33.10490
831.1362, 32.97336
831.6183, 32.64646
832.1004, 32.61236
832.5825, 32.86350
833.0646, 32.78125
833.5468, 31.88725
834.0289, 31.41234
834.5110, 31.90985
834.9931, 32.46398
835.4752, 32.35048
835.9573, 31.85055
836.4395, 31.76897
836.9216, 32.44073
837.4037, 33.10002
837.8858, 33.41254
838.3679, 33.46095
838.8500, 33.26344
839.3322, 32.88582
839.8143, 32.39749
840.2964, 31.84521
840.7785, 31.41290
841.2606, 31.28458
841.7427, 31.45219
842.2249, 32.03777
842.7070, 33.07264
843.1891, 33.65851
843.6712, 33.48883
844.1533, 33.08309
844.6354, 32.80773
845.1176, 32.67989
845.5997, 32.80117
846.0818, 33.81586
846.5639, 34.03810
847.0460, 32.65782
847.5281, 31.38715
848.0103, 31.06563
848.4924, 31.34802
848.9745, 31.76162
849.4566, 32.21256
849.9387, 32.48834
850.4208, 32.33718
850.9030, 32.09331
851.3851, 32.01194
851.8672, 32.08052
852.3493, 32.39279
852.8314, 32.87738
853.3135, 33.04161
853.7957, 32.43909
854.2778, 31.50044
854.7599, 31.23812
855.2420, 31.63746
855.7241, 32.05320
856.2062, 32.45335
856.6884, 32.67218
857.1705, 32.53294
857.6526, 32.27591
858.1347, 32.40583
858.6168, 33.12301
859.0989, 33.31102
859.5811, 32.26693
860.0632, 31.61552
860.5453, 32.15051
861.0274, 32.90759
861.5095, 32.94688
861.9916, 32.37142
862.4738, 31.94523
862.9559, 31.85745
863.4380, 32.12466
863.9201, 33.22704
864.4022, 34.37944
864.8843, 34.48981
865.3665, 33.74578
865.8486, 32.95516
866.3307, 32.46891
866.8128, 32.20182
867.2949, 32.11799
867.7770, 32.16640
868.2592, 32.09391
868.7413, 31.89785
869.2234, 31.78609
869.7055, 31.81738
870.1876, 31.95681
870.6697, 32.22252
871.1519, 32.55396
871.6340, 32.60095
872.1161, 32.24072
872.5981, 31.83066
873.0803, 31.02784
873.5624, 30.57158
874.0445, 31.16617
874.5266, 32.11659
875.0087, 32.30086
875.4908, 31.52273
875.9730, 31.07895
876.4551, 31.83849
876.9372, 32.60043
877.4193, 32.63295
877.9014, 32.21255
878.3835, 31.58321
878.8657, 30.89584
879.3478, 30.43036
879.8299, 30.36964
880.3120, 30.54230
880.7941, 30.81828
881.2762, 31.12357
881.7584, 31.12447
882.2405, 30.83478
882.7226, 30.80292
883.2047, 31.30972
883.6868, 31.88325
884.1689, 31.87434
884.6511, 31.29851
885.1332, 30.56606
885.6153, 29.41554
886.0974, 28.86155
886.5795, 29.43908
887.0616, 30.23045
887.5438, 30.61929
888.0259, 30.67141
888.5080, 30.56563
888.9901, 30.16261
889.4722, 29.94685
889.9543, 30.20535
890.4365, 30.42874
890.9186, 30.23769
891.4007, 29.90666
891.8828, 29.90805
892.3649, 30.25147
892.8470, 30.37927
893.3292, 29.71113
893.8113, 29.03022
894.2934, 29.18929
894.7755, 29.81594
895.2576, 30.37961
895.7397, 30.75744
896.2219, 30.82290
896.7040, 30.50136
897.1861, 30.04766
897.6682, 29.82253
898.1503, 29.80751
898.6324, 29.88750
899.1146, 30.07447
899.5967, 30.16483
900.0788, 30.09944
900.5609, 29.88548
901.0430, 29.44617
901.5251, 28.87911
902.0073, 28.84293
902.4894, 29.88964
902.9715, 30.32481
903.4536, 29.47340
903.9357, 28.68791
904.4178, 28.71246
904.9000, 29.08191
905.3821, 29.14735
905.8642, 28.84216
906.3463, 28.57188
906.8284, 28.46794
907.3105, 28.37854
907.7927, 28.22919
908.2748, 28.06499
908.7569, 27.90484
909.2390, 27.77602
909.7211, 27.73899
910.2032, 27.82840
910.6854, 27.97002
911.1675, 28.07190
911.6496, 28.19572
912.1317, 28.53272
912.6138, 28.98661
913.0959, 29.18899
913.5781, 29.04180
914.0602, 28.82307
914.5423, 28.81381
915.0244, 28.89198
915.5065, 28.55761
915.9886, 27.80358
916.4708, 27.68759
916.9529, 28.49085
917.4350, 29.07712
917.9171, 28.74857
918.3992, 27.98027
918.8813, 27.58977
919.3635, 27.60774
919.8456, 27.78153
920.3277, 28.54168
920.8098, 28.74799
921.2919, 27.21362
921.7740, 25.89999
922.2562, 26.69361
922.7383, 28.80326
923.2204, 29.77551
923.7025, 28.88000
924.1846, 28.00321
924.6667, 27.70312
925.1489, 27.45096
925.6310, 26.58265
926.1131, 25.75024
926.5952, 26.13051
927.0773, 27.67797
927.5594, 28.86093
928.0416, 28.65836
928.5237, 28.04932
929.0058, 27.94626
929.4879, 28.01090
929.9700, 27.49393
930.4521, 26.59478
930.9343, 26.33785
931.4164, 27.13553
931.8985, 28.19510
932.3806, 28.60499
932.8627, 28.53105
933.3448, 28.45428
933.8270, 28.38239
934.3091, 28.47045
934.7912, 28.77139
935.2733, 28.85389
935.7554, 28.36379
936.2375, 27.57005
936.7197, 27.08658
937.2018, 26.90467
937.6839, 27.17708
938.1660, 28.27381
938.6481, 28.85381
939.1302, 28.12532
939.6124, 27.14604
940.0945, 27.08498
940.5766, 27.81675
941.0587, 28.15787
941.5408, 27.67156
942.0229, 27.47910
942.5051, 27.96538
942.9872, 28.38969
943.4693, 28.25752
943.9514, 27.91470
944.4335, 27.84753
944.9156, 28.11127
945.3978, 28.43258
945.8799, 28.88977
946.3620, 29.17344
946.8441, 28.93528
947.3262, 28.58825
947.8083, 28.55492
948.2905, 28.79067
948.7726, 29.13376
949.2547, 29.52933
949.7368, 29.66063
950.2189, 28.93316
950.7010, 28.03472
951.1832, 27.92727
951.6653, 28.39657
952.1474, 28.99242
952.6295, 29.56882
953.1116, 29.93636
953.5938, 29.95595
954.0759, 29.83469
954.5580, 29.89017
955.0400, 30.10891
955.5222, 30.46354
956.0043, 30.94884
956.4864, 31.37816
956.9685, 31.70240
957.4506, 31.83304
957.9327, 31.62713
958.4149, 31.22388
958.8970, 31.26769
959.3791, 31.88166
959.8612, 32.32136
960.3433, 32.50400
960.8254, 32.60382
961.3076, 32.73728
961.7897, 32.77095
962.2718, 32.42490
962.7539, 31.68287
963.2360, 31.43659
963.7181, 32.02813
964.2003, 32.59167
964.6824, 33.21667
965.1645, 33.61815
965.6466, 33.38649
966.1287, 32.93381
966.6108, 33.06110
967.0930, 33.92440
967.5751, 34.43884
968.0572, 34.30260
968.5393, 33.86988
969.0214, 32.92022
969.5035, 32.02901
969.9857, 31.87381
970.4678, 32.20682
970.9499, 32.32586
971.4320, 32.02242
971.9141, 31.41205
972.3962, 30.03140
972.8784, 28.88569
973.3605, 29.22278
973.8426, 30.22600
974.3247, 30.63148
974.8068, 30.28966
975.2889, 29.64126
975.7711, 28.86224
976.2532, 28.22655
976.7353, 28.18134
977.2174, 28.41786
977.6995, 28.32707
978.1816, 27.99310
978.6638, 27.75333
979.1459, 27.72396
979.6280, 28.06590
980.1101, 29.00965
980.5922, 30.06939
981.0743, 30.14268
981.5565, 29.37779
982.0386, 28.55300
982.5207, 27.74190
983.0028, 27.37604
983.4849, 27.65981
983.9670, 28.08792
984.4492, 28.09430
984.9313, 27.78576
985.4134, 27.72903
985.8955, 28.00585
986.3776, 27.81427
986.8597, 26.87304
987.3419, 26.25046
987.8240, 26.56859
988.3061, 27.27218
988.7882, 27.56303
989.2703, 27.44324
989.7524, 27.55014
990.2346, 28.11329
990.7167, 28.39409
991.1988, 28.27343
991.6809, 27.88308
992.1630, 26.95761
992.6451, 25.98315
993.1273, 25.94039
993.6094, 26.99219
994.0915, 27.77189
994.5736, 28.35095
995.0557, 28.53567
995.5378, 27.90818
996.0200, 27.24470
996.5021, 27.19836
996.9842, 27.45089
997.4663, 27.20491
997.9484, 26.21261
998.4305, 25.81837
998.9127, 27.05940
999.3948, 28.08749
999.8769, 27.79230
1000.359, 27.18345
1000.841, 27.33105
1001.323, 27.97889
1001.805, 28.19423
1002.287, 27.65577
1002.770, 27.10145
1003.252, 26.74777
1003.734, 26.68645
1004.216, 27.27961
1004.698, 28.02331
1005.180, 28.26710
1005.662, 28.00740
1006.144, 27.53179
1006.627, 26.91241
1007.109, 26.48297
1007.591, 26.58721
1008.073, 26.97362
1008.555, 27.51392
1009.037, 28.04757
1009.519, 28.27358
1010.001, 28.17329
1010.483, 27.91292
1010.966, 27.55465
1011.448, 27.31116
1011.930, 27.54845
1012.412, 28.02427
1012.894, 28.32848
1013.376, 28.43891
1013.858, 28.20172
1014.340, 27.67090
1014.823, 27.53681
1015.305, 28.35811
1015.787, 29.41263
1016.269, 29.35255
1016.751, 28.51677
1017.233, 28.29287
1017.715, 28.62272
1018.197, 28.54696
1018.679, 27.80442
1019.162, 27.03489
1019.644, 26.76015
1020.126, 26.80410
1020.608, 26.70864
1021.090, 26.51162
1021.572, 26.92142
1022.054, 27.99640
1022.536, 28.32964
1023.018, 27.36693
1023.501, 26.52023
1023.983, 27.16595
1024.465, 28.68194
1024.947, 28.99833
1025.429, 27.97379
1025.911, 27.43610
1026.393, 27.50868
1026.875, 27.78024
1027.358, 28.19561
1027.840, 28.48462
1028.322, 28.35615
1028.804, 27.90817
1029.286, 27.51220
1029.768, 27.10313
1030.250, 27.06905
1030.732, 27.63341
1031.214, 27.96078
1031.697, 27.65772
1032.179, 27.17676
1032.661, 26.95636
1033.143, 26.95341
1033.625, 26.94368
1034.107, 26.88061
1034.589, 26.93418
1035.071, 27.16023
1035.553, 27.41529
1036.036, 27.77291
1036.518, 27.98825
1037.000, 27.65397
1037.482, 26.92973
1037.964, 26.76977
1038.446, 27.64674
1038.928, 28.15824
1039.410, 28.07673
1039.893, 27.93544
1040.375, 27.91421
1040.857, 27.90798
1041.339, 27.80879
1041.821, 27.63235
1042.303, 27.45665
1042.785, 27.15400
1043.267, 27.10281
1043.750, 27.69448
1044.232, 28.07137
1044.714, 27.65857
1045.196, 27.10539
1045.678, 27.02752
1046.160, 27.37643
1046.642, 27.84885
1047.124, 28.65783
1047.606, 29.04114
1048.089, 28.68279
1048.571, 28.14462
1049.053, 27.52824
1049.535, 26.93501
1050.017, 26.30902
1050.499, 25.77129
1050.981, 25.77066
1051.463, 26.57968
1051.945, 27.37983
1052.428, 28.33743
1052.910, 28.84286
1053.392, 28.15038
1053.874, 27.24322
1054.356, 27.32968
1054.838, 28.08224
1055.320, 28.03794
1055.802, 26.51179
1056.285, 25.55172
1056.767, 26.18300
1057.249, 26.97543
1057.731, 27.31381
1058.213, 27.41322
1058.695, 27.51431
1059.177, 27.59860
1059.659, 27.44025
1060.141, 27.77353
1060.624, 28.12037
1061.106, 28.41720
1061.588, 28.99965
1062.070, 29.57236
1062.552, 29.70794
1063.034, 29.43334
1063.516, 27.33563
1063.998, 27.73321
1064.480, 27.21707
1064.963, 26.72212
1065.445, 27.64715
1065.927, 26.13150
1066.409, 27.15812
1066.891, 27.25607
1067.373, 27.86883
1067.855, 27.56173
1068.337, 27.61938
1068.820, 28.72089
1069.302, 29.33994
1069.784, 29.16637
1070.266, 29.48663
1070.748, 28.58065
1071.230, 28.69929
1071.712, 27.70526
1072.194, 26.29148
1072.677, 26.10967
1073.159, 27.48821
1073.641, 28.58555
1074.123, 28.51387
1074.605, 28.07667
1075.087, 27.40792
1075.569, 26.80348
1076.051, 26.50230
1076.533, 26.46069
1077.016, 26.62186
1077.498, 26.94795
1077.980, 27.20455
1078.462, 27.34227
1078.944, 27.31890
1079.426, 26.92468
1079.908, 26.54651
1080.390, 26.41122
1080.872, 26.55137
1081.354, 27.25264
1081.837, 28.36756
1082.319, 28.70702
1082.801, 27.29136
1083.283, 26.06852
1083.765, 26.11411
1084.247, 26.50970
1084.729, 26.72917
1085.211, 26.78991
1085.694, 26.66776
1086.176, 26.45584
1086.658, 26.55446
1087.140, 27.27739
1087.622, 27.80319
1088.104, 27.58954
1088.586, 27.29354
1089.068, 27.38460
1089.551, 27.58834
1090.033, 27.53944
1090.515, 27.28366
1090.997, 27.09851
1091.479, 27.05108
1091.961, 27.10541
1092.443, 27.50160
1092.925, 27.68782
1093.407, 27.15882
1093.890, 26.46071
1094.372, 26.05878
1094.854, 25.95459
1095.336, 26.07141
1095.818, 26.42780
1096.300, 26.66146
1096.782, 26.48829
1097.264, 26.39552
1097.746, 26.80424
1098.229, 27.15109
1098.711, 26.75521
1099.193, 26.06239
1099.675, 25.99636
1100.157, 26.68563
1100.639, 27.22078
1101.121, 27.22706
1101.603, 27.26452
1102.086, 27.63175
1102.568, 27.91749
1103.050, 27.84063
1103.532, 27.53765
1104.014, 27.08902
1104.496, 26.55597
1104.978, 26.39746
1105.460, 27.00313
1105.943, 27.46088
1106.425, 27.75773
1106.907, 27.72585
1107.389, 26.87700
1107.871, 25.97195
1108.353, 25.93092
1108.835, 26.57702
1109.317, 26.95323
1109.799, 26.86665
1110.281, 26.81465
1110.764, 26.93085
1111.246, 26.95415
1111.728, 26.69825
1112.210, 26.42437
1112.692, 26.26862
1113.174, 26.26596
1113.656, 26.57300
1114.138, 27.35077
1114.621, 27.69284
1115.103, 27.16354
1115.585, 26.92405
1116.067, 26.49355
1116.549, 27.65601
1117.031, 28.31992
1117.513, 28.51205
1117.995, 26.81940
1118.478, 27.56060
1118.960, 27.32639
1119.442, 27.05219
1119.924, 28.13589
1120.406, 26.71737
1120.888, 27.77954
1121.370, 27.85147
1121.852, 28.37660
1122.334, 27.63955
1122.817, 27.40420
1123.299, 27.06902
1123.781, 26.55794
1124.263, 26.27912
1124.745, 25.41572
1125.227, 26.61384
1125.709, 27.31339
1126.191, 27.54118
1126.673, 25.88417
1127.156, 26.66111
1127.638, 26.46255
1128.120, 26.22401
1128.602, 27.34337
1129.084, 25.96050
1129.566, 27.05834
1130.048, 27.16591
1130.530, 27.72671
1131.013, 27.30623
1131.495, 27.18876
1131.977, 28.05300
1132.459, 27.41993
1132.941, 27.00737
1133.423, 26.04275
1133.905, 25.82818
1134.387, 26.46863
1134.870, 26.98773
1135.352, 27.00050
1135.834, 26.80629
1136.316, 26.66672
1136.798, 26.58018
1137.280, 26.48685
1137.762, 26.45091
1138.244, 26.87079
1138.726, 27.59770
1139.208, 27.04225
1139.691, 27.83370
1140.173, 28.17549
1140.655, 28.09350
1141.137, 26.17484
1141.619, 26.73802
1142.101, 26.37393
1142.583, 26.01789
1143.065, 27.06783
1143.548, 25.66374
1144.030, 26.78839
1144.512, 26.97083
1144.994, 27.65458
1145.476, 27.40496
1145.958, 27.50659
1146.440, 27.84921
1146.922, 27.43067
1147.405, 26.59553
1147.887, 25.78799
1148.369, 25.21656
1148.851, 25.35275
1149.333, 26.11197
1149.815, 26.45412
1150.297, 25.64667
1150.779, 25.00086
1151.261, 25.39353
1151.744, 26.11059
1152.226, 26.92523
1152.708, 27.55048
1153.190, 27.59172
1153.672, 27.18343
1154.154, 26.77614
1154.636, 26.44919
1155.118, 26.26147
1155.600, 26.20902
1156.083, 26.32701
1156.565, 27.03940
1157.047, 27.50529
1157.529, 26.70033
1158.011, 25.48520
1158.493, 25.37507
1158.975, 26.41999
1159.457, 27.14562
1159.940, 27.51190
1160.422, 27.46754
1160.904, 26.57058
1161.386, 25.90804
1161.868, 25.91509
1162.350, 26.23456
1162.832, 26.63812
1163.314, 27.05773
1163.796, 27.27179
1164.279, 27.25002
1164.761, 27.17690
1165.243, 27.02775
1165.725, 26.89819
1166.207, 26.76989
1166.689, 26.84866
1167.171, 27.37101
1167.653, 27.77375
1168.135, 27.09711
1168.618, 27.53529
1169.100, 27.45195
1169.582, 27.07621
1170.064, 27.26087
1170.546, 26.04913
1171.028, 25.24778
1171.510, 25.45825
1171.992, 26.23368
1172.474, 27.32363
1172.957, 28.20613
1173.439, 27.62779
1173.921, 26.21773
1174.403, 25.89476
1174.885, 26.39658
1175.367, 26.83496
1175.849, 27.01851
1176.331, 26.80472
1176.814, 26.16068
1177.296, 25.82973
1177.778, 26.86271
1178.260, 28.01612
1178.742, 27.51982
1179.224, 26.49398
1179.706, 26.62316
1180.188, 27.39608
1180.671, 27.44851
1181.153, 26.67636
1181.635, 26.12905
1182.117, 26.33986
1182.599, 26.54517
1183.081, 26.15632
1183.563, 25.84779
1184.045, 26.30490
1184.527, 26.82128
1185.010, 26.44025
1185.492, 25.61967
1185.974, 25.58164
1186.456, 26.54100
1186.938, 27.32694
1187.420, 27.58574
1187.902, 27.91034
1188.384, 28.74705
1188.866, 29.22015
1189.349, 28.69884
1189.831, 27.88229
1190.313, 27.43551
1190.795, 27.31187
1191.277, 27.36033
1191.759, 27.68271
1192.241, 27.68076
1192.723, 27.19804
1193.206, 26.99075
1193.688, 27.31528
1194.170, 27.47657
1194.652, 26.97700
1195.134, 26.47819
1195.616, 27.03644
1196.098, 26.78081
1196.580, 27.00800
1197.063, 27.42851
1197.545, 27.46880
1198.027, 28.45552
1198.509, 28.72324
1198.991, 27.86379
1199.473, 27.16384
1199.955, 27.53945
1200.437, 27.25802
1200.919, 28.20663
1201.401, 27.91580
1201.884, 28.38993
1202.366, 29.19468
1202.848, 29.49079
1203.330, 29.27867
1203.812, 28.89303
1204.294, 28.44574
1204.776, 27.88483
1205.258, 26.92709
1205.741, 26.35267
1206.223, 27.18334
1206.705, 28.03404
1207.187, 27.48403
1207.669, 26.58874
1208.151, 26.92009
1208.633, 28.10440
1209.115, 28.48710
1209.598, 27.62379
1210.080, 26.96404
1210.562, 26.61476
1211.044, 26.64726
1211.526, 27.64123
1212.008, 28.30992
1212.490, 27.85302
1212.972, 26.97706
1213.454, 26.37914
1213.937, 26.10983
1214.419, 26.56100
1214.901, 28.07795
1215.383, 28.40710
1215.865, 27.26869
1216.347, 26.65637
1216.829, 27.06647
1217.311, 27.65981
1217.793, 27.98428
1218.276, 27.94855
1218.758, 27.27773
1219.240, 26.35726
1219.722, 26.32389
1220.204, 26.98196
1220.686, 27.82851
1221.168, 28.68223
1221.650, 29.06807
1222.133, 28.90909
1222.615, 28.44626
1223.097, 27.76565
1223.579, 27.28022
1224.061, 27.69272
1224.543, 28.12955
1225.025, 27.45433
1225.507, 26.54370
1225.990, 26.44368
1226.472, 26.95454
1226.954, 27.63355
1227.436, 28.32739
1227.918, 28.62497
1228.400, 28.21835
1228.882, 27.80710
1229.364, 27.47699
1229.846, 25.95955
1230.328, 27.00250
1230.811, 27.54670
1231.293, 27.61934
1231.775, 25.80717
1232.257, 26.42884
1232.739, 26.07512
1233.221, 25.68144
1233.703, 26.64564
1234.185, 25.10761
1234.668, 26.96237
1235.150, 27.37413
1235.632, 27.59113
1236.114, 27.58051
1236.596, 27.26423
1237.078, 26.98095
1237.560, 27.54629
1238.042, 27.22829
1238.525, 28.35337
1239.007, 27.43538
1239.489, 27.24185
1239.971, 27.76094
1240.453, 28.34912
1240.935, 28.75317
1241.417, 28.74711
1241.899, 28.02588
1242.381, 27.43863
1242.864, 27.74786
1243.346, 28.37399
1243.828, 29.23390
1244.310, 29.81540
1244.792, 29.24028
1245.274, 28.05866
1245.756, 27.52762
1246.238, 27.83139
1246.720, 28.28302
1247.203, 28.48853
1247.685, 29.43099
1248.167, 29.89309
1248.649, 29.90154
1249.131, 28.04340
1249.613, 28.63720
1250.095, 28.27383
1250.577, 27.88860
1251.059, 28.87946
1251.542, 27.38616
1252.024, 28.39184
1252.506, 28.42544
1252.988, 28.93041
1253.470, 28.47215
1253.952, 28.33518
1254.434, 29.19806
1254.916, 29.53555
1255.399, 29.03720
1255.881, 28.26072
1256.363, 27.91712
1256.845, 27.63124
1257.327, 28.15632
1257.809, 28.95394
1258.291, 29.21000
1258.773, 29.02631
1259.255, 28.74763
1259.738, 28.49105
1260.220, 28.43546
1260.702, 28.80368
1261.184, 28.93249
1261.666, 28.40755
1262.148, 27.87489
1262.630, 27.48695
1263.112, 27.29189
1263.594, 27.42795
1264.077, 27.68828
1264.559, 27.77524
1265.041, 27.70731
1265.523, 27.62258
1266.005, 27.49658
1266.487, 27.53884
1266.969, 27.78845
1267.451, 27.85818
1267.934, 27.65240
1268.416, 27.36716
1268.898, 27.09974
1269.380, 27.02122
1269.862, 27.40387
1270.344, 27.98295
1270.826, 28.32476
1271.308, 28.48306
1271.791, 28.50743
1272.273, 28.45485
1272.755, 28.45681
1273.237, 28.48693
1273.719, 28.35127
1274.201, 27.97349
1274.683, 27.60462
1275.165, 27.17209
1275.647, 27.03199
1276.130, 27.44627
1276.612, 28.03903
1277.094, 28.84906
1277.576, 29.50247
1278.058, 29.49202
1278.540, 29.78835
1279.022, 29.71171
1279.504, 29.42776
1279.986, 29.30595
1280.469, 29.12434
1280.951, 28.98240
1281.433, 28.59475
1281.915, 28.62810
1282.397, 28.00832
1282.879, 27.51173
1283.361, 27.77818
1283.843, 28.29930
1284.326, 28.47356
1284.808, 28.29763
##END=



