##NAMES=Brochantite
##RRUFFID=R060117
##IDEAL CHEMISTRY=Cu^2+^_4_S^6+^O_4_(OH)_6_
##LOCALITY=M'sesa mine, Likasi, Katanga Province, Democratic Republic of the Congo
##OWNER=RRUFF
##SOURCE=University of Arizona Mineral Museum
##DESCRIPTION=Emerald-green thick acicular crystals
##STATUS=The identification of this mineral has been confirmed by X-ray diffraction and chemical analysis
##URL=rruff.info/R060117
##MEASURED CHEMISTRY=Cu_4.00_S_1.00_O_4_(OH)_6_
92.02539, 89.08388
92.50751, 90.50320
92.98962, 91.81977
93.47174, 91.71512
93.95386, 90.92937
94.43597, 89.36094
94.91809, 86.96655
95.40021, 84.08191
95.88232, 81.44266
96.36444, 78.82579
96.84656, 76.77660
97.32867, 75.55529
97.81078, 74.95559
98.29290, 74.68047
98.77502, 74.51446
99.25713, 74.41563
99.73925, 73.85604
100.2214, 72.66689
100.7035, 71.33201
101.1856, 69.97404
101.6677, 68.63760
102.1498, 67.36491
102.6320, 66.16354
103.1141, 64.80628
103.5962, 64.23553
104.0783, 65.05418
104.5604, 66.39523
105.0425, 67.34726
105.5247, 67.65352
106.0068, 67.46267
106.4889, 67.02671
106.9710, 66.44857
107.4531, 65.42013
107.9352, 63.59621
108.4173, 61.10429
108.8995, 58.59820
109.3816, 56.05603
109.8637, 53.81718
110.3458, 52.26010
110.8279, 51.50597
111.3100, 51.09840
111.7922, 50.44233
112.2743, 49.37490
112.7564, 48.60668
113.2385, 48.50531
113.7206, 48.68589
114.2027, 48.86786
114.6849, 48.93903
115.1670, 48.88837
115.6491, 48.67303
116.1312, 48.17165
116.6133, 47.61941
117.0954, 47.00079
117.5776, 46.36391
118.0597, 45.74794
118.5418, 45.16130
119.0239, 44.59932
119.5060, 44.37535
119.9881, 44.64225
120.4703, 45.02311
120.9524, 45.46162
121.4345, 45.90810
121.9166, 46.26051
122.3987, 46.45145
122.8808, 46.45095
123.3630, 46.11628
123.8451, 45.06640
124.3272, 43.87437
124.8093, 43.19055
125.2914, 43.17498
125.7735, 43.28867
126.2557, 42.73073
126.7378, 41.66258
127.2199, 40.93342
127.7020, 41.16578
128.1841, 42.03935
128.6662, 42.49889
129.1483, 42.15360
129.6305, 41.61192
130.1126, 41.42626
130.5947, 41.55836
131.0768, 41.61234
131.5589, 41.11761
132.0410, 39.96523
132.5232, 39.16018
133.0053, 39.20313
133.4874, 39.37640
133.9695, 39.33418
134.4516, 39.00549
134.9337, 38.53346
135.4159, 38.12992
135.8980, 37.83047
136.3801, 37.53522
136.8622, 37.27132
137.3443, 36.99184
137.8264, 36.61676
138.3086, 36.12137
138.7907, 35.59672
139.2728, 35.30616
139.7549, 35.66062
140.2370, 35.78088
140.7191, 35.47960
141.2013, 34.92399
141.6834, 34.32536
142.1655, 33.77189
142.6476, 33.29763
143.1297, 33.06257
143.6118, 33.21171
144.0939, 33.39121
144.5761, 33.55019
145.0582, 33.65632
145.5403, 33.53288
146.0224, 32.93533
146.5045, 32.06597
146.9866, 31.54202
147.4688, 31.67314
147.9509, 31.92260
148.4330, 31.64453
148.9151, 30.71897
149.3972, 30.01814
149.8793, 30.45406
150.3615, 31.36485
150.8436, 31.93444
151.3257, 31.72238
151.8078, 31.06199
152.2899, 30.73455
152.7720, 30.93771
153.2542, 31.13361
153.7363, 31.11661
154.2184, 30.94861
154.7005, 30.72220
155.1826, 30.49798
155.6647, 30.26831
156.1469, 29.95167
156.6290, 29.32499
157.1111, 28.83698
157.5932, 28.69078
158.0753, 28.78388
158.5574, 28.89390
159.0396, 28.83049
159.5217, 28.57060
160.0038, 28.34484
160.4859, 28.08471
160.9680, 27.91101
161.4501, 27.95189
161.9323, 28.16199
162.4144, 28.30645
162.8965, 27.60957
163.3786, 28.01638
163.8607, 28.18874
164.3428, 28.13924
164.8250, 27.20340
165.3071, 27.41208
165.7892, 27.16210
166.2713, 26.89331
166.7534, 27.26308
167.2355, 26.45617
167.7177, 26.81579
168.1998, 26.70976
168.6819, 26.81686
169.1640, 26.46246
169.6461, 26.25061
170.1282, 26.50040
170.6104, 26.49454
171.0925, 26.08702
171.5746, 25.53209
172.0567, 25.59436
172.5388, 25.91409
173.0209, 26.08536
173.5031, 25.93373
173.9852, 25.76051
174.4673, 25.91498
174.9494, 26.35487
175.4315, 26.67133
175.9136, 26.44460
176.3958, 25.69952
176.8779, 25.20548
177.3600, 25.31918
177.8421, 25.51341
178.3242, 25.44960
178.8063, 25.13228
179.2885, 24.81551
179.7706, 24.78455
180.2527, 25.11205
180.7348, 25.41395
181.2169, 25.81794
181.6990, 26.07984
182.1812, 25.97181
182.6633, 25.50022
183.1454, 24.92590
183.6275, 24.62676
184.1096, 24.76951
184.5917, 24.84776
185.0738, 24.77016
185.5560, 24.69534
186.0381, 24.78952
186.5202, 25.07349
187.0023, 25.37808
187.4844, 25.40244
187.9665, 24.81720
188.4487, 24.47119
188.9308, 24.53784
189.4129, 24.74828
189.8950, 24.87307
190.3771, 24.83490
190.8592, 24.67674
191.3414, 24.45916
191.8235, 24.04294
192.3056, 23.83556
192.7877, 24.08854
193.2698, 24.51802
193.7519, 24.71631
194.2341, 24.51464
194.7162, 24.12114
195.1983, 23.98964
195.6804, 24.20316
196.1625, 24.32227
196.6446, 24.17266
197.1268, 23.83218
197.6089, 23.42965
198.0910, 22.92032
198.5731, 22.51557
199.0552, 22.60464
199.5373, 23.27814
200.0195, 23.87900
200.5016, 23.96668
200.9837, 23.64164
201.4658, 23.42760
201.9479, 23.54682
202.4300, 23.77266
202.9122, 23.87142
203.3943, 23.83688
203.8764, 23.68818
204.3585, 23.33790
204.8406, 22.78756
205.3227, 22.45922
205.8048, 22.59644
206.2870, 22.90440
206.7691, 23.20941
207.2512, 23.48855
207.7333, 23.72848
208.2154, 23.95029
208.6975, 24.18430
209.1797, 24.21662
209.6618, 23.71062
210.1439, 23.19172
210.6260, 23.00372
211.1081, 23.18530
211.5902, 23.46202
212.0724, 23.44784
212.5545, 22.99973
213.0366, 22.69677
213.5187, 22.59430
214.0008, 22.62249
214.4829, 22.85325
214.9651, 23.25191
215.4472, 23.59250
215.9293, 23.47257
216.4114, 22.42976
216.8935, 21.90408
217.3756, 22.25297
217.8578, 22.77570
218.3399, 22.96752
218.8220, 22.73013
219.3041, 22.34061
219.7862, 22.23120
220.2683, 22.62068
220.7505, 22.87917
221.2326, 22.92953
221.7147, 22.91370
222.1968, 22.92598
222.6789, 22.99353
223.1610, 23.11052
223.6432, 23.28502
224.1253, 23.65734
224.6074, 23.75677
225.0895, 23.26447
225.5716, 22.67870
226.0537, 22.52484
226.5358, 22.91255
227.0180, 23.44627
227.5001, 23.56173
227.9822, 23.10069
228.4643, 22.69213
228.9464, 22.23981
229.4285, 21.91842
229.9107, 22.01415
230.3928, 22.60259
230.8749, 23.30603
231.3570, 23.61769
231.8391, 23.50404
232.3212, 23.40943
232.8034, 23.43417
233.2855, 23.50133
233.7676, 23.49762
234.2497, 23.39155
234.7318, 23.28238
235.2139, 23.30952
235.6961, 23.45378
236.1782, 23.56136
236.6603, 23.57931
237.1424, 23.54188
237.6245, 23.47672
238.1066, 23.36282
238.5888, 23.30407
239.0709, 23.51389
239.5530, 23.89182
240.0351, 24.09056
240.5172, 23.82311
240.9993, 23.33303
241.4815, 23.10846
241.9636, 23.25237
242.4457, 23.46884
242.9278, 23.50127
243.4099, 23.43882
243.8920, 23.47637
244.3742, 23.83546
244.8563, 24.32876
245.3384, 24.50462
245.8205, 24.26747
246.3026, 23.91673
246.7847, 23.59875
247.2668, 23.29417
247.7490, 22.96823
248.2311, 22.58721
248.7132, 22.18464
249.1953, 21.83067
249.6774, 21.52105
250.1595, 21.27808
250.6417, 21.09263
251.1238, 20.97319
251.6059, 20.95583
252.0880, 21.09571
252.5701, 21.29910
253.0522, 21.31815
253.5344, 21.06170
254.0165, 20.79235
254.4986, 20.62832
254.9807, 20.48322
255.4628, 20.24578
255.9449, 19.85711
256.4271, 19.39467
256.9092, 19.03304
257.3913, 18.79383
257.8734, 18.62928
258.3555, 18.52380
258.8376, 18.47372
259.3198, 18.50265
259.8019, 18.62152
260.2840, 18.75882
260.7661, 18.73344
261.2482, 18.34127
261.7303, 17.71528
262.2125, 18.32905
262.6946, 18.68491
263.1767, 18.79674
263.6588, 17.93361
264.1409, 18.32943
264.6230, 18.22072
265.1052, 18.09133
265.5873, 18.66435
266.0694, 17.94302
266.5515, 18.50490
267.0336, 17.82562
267.5157, 17.59388
267.9979, 17.64908
268.4800, 17.89521
268.9621, 18.50823
269.4442, 18.92105
269.9263, 19.17776
270.4084, 19.24836
270.8906, 19.00802
271.3727, 18.49740
271.8548, 17.95913
272.3369, 17.68640
272.8190, 17.73871
273.3011, 17.88817
273.7833, 18.28633
274.2654, 18.63796
274.7475, 18.78462
275.2296, 18.71900
275.7117, 18.50444
276.1938, 18.17788
276.6760, 17.69018
277.1581, 17.40521
277.6402, 17.43484
278.1223, 17.51196
278.6044, 17.52363
279.0865, 17.47138
279.5686, 17.40853
280.0508, 17.37942
280.5329, 17.38532
281.0150, 17.36239
281.4971, 17.31864
281.9792, 17.24475
282.4613, 17.07320
282.9435, 16.86418
283.4256, 16.76597
283.9077, 16.88954
284.3898, 17.20049
284.8719, 17.38156
285.3540, 17.46033
285.8362, 17.40533
286.3183, 17.02237
286.8004, 16.51672
287.2825, 16.28840
287.7646, 16.56965
288.2467, 17.18874
288.7289, 17.54494
289.2110, 17.51406
289.6931, 17.39974
290.1752, 17.21912
290.6573, 16.98771
291.1394, 16.68849
291.6216, 16.30570
292.1037, 15.94473
292.5858, 15.83415
293.0679, 16.08651
293.5500, 16.37406
294.0321, 16.35117
294.5143, 16.86561
294.9964, 17.14561
295.4785, 17.20375
295.9606, 16.37557
296.4427, 16.69189
296.9248, 16.54955
297.4070, 16.38839
297.8891, 16.86580
298.3712, 16.16653
298.8533, 16.63381
299.3354, 16.63543
299.8175, 16.85017
300.2997, 16.60341
300.7818, 16.49919
301.2639, 16.85662
301.7460, 16.95843
302.2281, 16.65855
302.7102, 16.88683
303.1924, 16.17144
303.6745, 16.28414
304.1566, 16.75412
304.6387, 16.47744
305.1208, 16.71417
305.6029, 16.75536
306.0851, 15.90793
306.5672, 16.60590
307.0493, 16.63554
307.5314, 15.97894
308.0135, 16.62396
308.4956, 16.06197
308.9778, 15.93080
309.4599, 16.12387
309.9420, 15.89098
310.4241, 15.84084
310.9062, 15.88859
311.3883, 15.89842
311.8705, 15.80567
312.3526, 15.67575
312.8347, 15.66905
313.3168, 15.84940
313.7989, 15.98084
314.2810, 15.93769
314.7632, 15.84731
315.2453, 15.92679
315.7274, 16.24466
316.2095, 16.58002
316.6916, 16.60169
317.1737, 16.21237
317.6559, 15.93843
318.1380, 15.94847
318.6201, 16.01559
319.1022, 15.83321
319.5843, 15.38684
320.0664, 15.09443
320.5485, 15.45091
321.0306, 16.51974
321.5128, 17.01243
321.9949, 16.47862
322.4770, 15.77048
322.9591, 15.41633
323.4412, 15.39245
323.9233, 15.39824
324.4055, 15.20819
324.8876, 14.88431
325.3697, 14.86222
325.8518, 15.39238
326.3339, 15.90181
326.8160, 16.24144
327.2982, 16.40297
327.7803, 16.33807
328.2624, 15.98780
328.7445, 15.48567
329.2266, 15.20029
329.7087, 15.25275
330.1909, 15.26824
330.6730, 15.07466
331.1551, 14.84297
331.6372, 14.81271
332.1193, 15.05508
332.6014, 15.44347
333.0836, 15.83672
333.5657, 16.31986
334.0478, 16.49446
334.5299, 16.09452
335.0120, 15.54599
335.4941, 15.18523
335.9763, 15.05506
336.4584, 15.01394
336.9405, 14.93684
337.4226, 14.81882
337.9047, 14.72608
338.3868, 14.61228
338.8690, 14.56146
339.3511, 14.66780
339.8332, 14.88300
340.3153, 15.05391
340.7974, 15.07337
341.2795, 14.97569
341.7617, 14.98399
342.2438, 15.16645
342.7259, 15.35673
343.2080, 15.64236
343.6901, 15.88370
344.1722, 15.79881
344.6544, 15.26239
345.1365, 14.54118
345.6186, 14.19350
346.1007, 14.56326
346.5828, 14.81030
347.0649, 14.85543
347.5471, 14.81901
348.0292, 14.82692
348.5113, 14.89345
348.9934, 14.90617
349.4755, 14.70062
349.9576, 14.15573
350.4398, 13.91498
350.9219, 14.14288
351.4040, 14.47243
351.8861, 14.80655
352.3682, 15.08571
352.8503, 15.19689
353.3325, 15.02419
353.8146, 14.59828
354.2967, 14.40848
354.7788, 14.71125
355.2609, 14.95586
355.7430, 15.00429
356.2252, 14.93079
356.7073, 14.87176
357.1894, 14.89346
357.6715, 14.91022
358.1536, 14.68637
358.6357, 13.87723
359.1179, 13.35959
359.5999, 13.22678
360.0821, 13.33033
360.5642, 13.64214
361.0463, 14.11191
361.5284, 14.56497
362.0105, 14.77633
362.4926, 14.68545
362.9748, 14.58084
363.4569, 14.38685
363.9390, 14.24994
364.4211, 14.31944
364.9032, 14.51149
365.3853, 14.59299
365.8675, 14.35892
366.3496, 13.85671
366.8317, 13.54315
367.3138, 13.51939
367.7959, 13.57538
368.2780, 13.67911
368.7602, 13.82647
369.2423, 14.05463
369.7244, 14.38590
370.2065, 14.70215
370.6886, 14.72229
371.1707, 14.25861
371.6529, 13.97587
372.1350, 14.14747
372.6171, 14.38844
373.0992, 14.42293
373.5813, 14.22686
374.0634, 14.00153
374.5456, 13.97656
375.0277, 14.16452
375.5098, 14.27640
375.9919, 14.26941
376.4740, 14.21736
376.9561, 14.08973
377.4383, 13.94471
377.9204, 13.91882
378.4025, 14.14764
378.8846, 14.51628
379.3667, 14.68585
379.8488, 14.57856
380.3310, 14.47227
380.8131, 14.59810
381.2952, 14.73051
381.7773, 14.56108
382.2594, 13.94399
382.7415, 13.33119
383.2237, 13.30966
383.7058, 13.87465
384.1879, 14.29724
384.6700, 14.37101
385.1521, 14.26697
385.6342, 14.11133
386.1164, 13.91453
386.5985, 13.77311
387.0806, 13.75180
387.5627, 13.82440
388.0448, 13.96974
388.5269, 14.23592
389.0091, 14.40482
389.4912, 14.20554
389.9733, 13.78758
390.4554, 13.47438
390.9375, 13.34403
391.4196, 13.32975
391.9018, 13.41322
392.3839, 13.58264
392.8660, 13.72989
393.3481, 13.81620
393.8302, 13.84262
394.3123, 13.81193
394.7945, 13.71060
395.2766, 13.60392
395.7587, 13.43883
396.2408, 13.30438
396.7229, 13.42285
397.2050, 13.87165
397.6872, 14.31686
398.1693, 14.34393
398.6514, 13.90316
399.1335, 13.64972
399.6156, 13.79834
400.0977, 13.99022
400.5798, 13.95557
401.0620, 13.72190
401.5441, 13.47151
402.0262, 13.31314
402.5083, 13.23054
402.9904, 13.14775
403.4725, 13.01931
403.9547, 12.94594
404.4368, 12.96439
404.9189, 13.04159
405.4010, 13.15893
405.8831, 13.30584
406.3652, 13.43094
406.8474, 13.44882
407.3295, 13.29354
407.8116, 13.22345
408.2937, 13.28523
408.7758, 13.37965
409.2579, 13.50271
409.7401, 13.61569
410.2222, 13.62575
410.7043, 13.44904
411.1864, 13.11517
411.6685, 12.87713
412.1506, 12.69952
412.6328, 12.68019
413.1149, 12.99639
413.5970, 13.40217
414.0791, 13.61868
414.5612, 13.55381
415.0433, 13.34870
415.5255, 13.21165
416.0076, 13.15231
416.4897, 13.12674
416.9718, 13.30118
417.4539, 13.36279
417.9360, 13.00468
418.4182, 12.36099
418.9003, 11.90044
419.3824, 12.02361
419.8645, 12.59277
420.3466, 13.01662
420.8287, 13.31513
421.3109, 13.41121
421.7930, 13.10550
422.2751, 12.66483
422.7572, 12.39995
423.2393, 12.41595
423.7214, 12.52328
424.2036, 12.09674
424.6857, 12.60919
425.1678, 12.88719
425.6499, 12.94333
426.1320, 12.11314
426.6141, 12.42747
427.0963, 12.28312
427.5784, 12.11997
428.0605, 12.59538
428.5426, 11.89411
429.0247, 12.35939
429.5068, 12.35900
429.9890, 12.57174
430.4711, 12.32298
430.9532, 12.21676
431.4353, 12.57219
431.9174, 12.59824
432.3995, 12.97746
432.8817, 13.09792
433.3638, 13.01082
433.8459, 12.76412
434.3280, 12.34543
434.8101, 11.95053
435.2922, 11.87827
435.7744, 12.23223
436.2565, 12.50702
436.7386, 12.66064
437.2207, 12.75050
437.7028, 12.77063
438.1849, 12.75212
438.6671, 12.81054
439.1492, 13.04906
439.6313, 13.40219
440.1134, 13.47635
440.5955, 13.00589
441.0776, 12.57934
441.5598, 12.17263
442.0418, 11.88439
442.5240, 11.87289
443.0061, 12.15323
443.4882, 12.52728
443.9703, 12.73557
444.4524, 12.74152
444.9345, 12.75591
445.4167, 12.70462
445.8988, 12.73634
446.3809, 12.98427
446.8630, 13.34740
447.3451, 13.66032
447.8272, 13.84780
448.3094, 13.87419
448.7915, 13.56801
449.2736, 12.71940
449.7557, 12.14119
450.2378, 12.25463
450.7199, 12.56194
451.2021, 12.76361
451.6842, 12.81386
452.1663, 12.75230
452.6484, 12.54765
453.1305, 12.24274
453.6126, 12.04210
454.0948, 11.98983
454.5769, 11.96836
455.0590, 11.85532
455.5411, 11.72329
456.0232, 11.72187
456.5053, 11.96970
456.9875, 12.23852
457.4696, 12.31971
457.9517, 12.24933
458.4338, 12.18604
458.9159, 12.17027
459.3980, 12.20748
459.8802, 12.35838
460.3623, 12.65336
460.8444, 12.78005
461.3265, 12.45268
461.8086, 12.09036
462.2907, 12.15032
462.7729, 12.59350
463.2550, 12.98560
463.7371, 13.01474
464.2192, 12.75897
464.7013, 12.67231
465.1834, 12.96629
465.6656, 13.14800
466.1477, 13.03998
466.6298, 12.84046
467.1119, 12.79004
467.5940, 12.93187
468.0761, 13.10014
468.5583, 13.08955
469.0404, 12.86671
469.5225, 12.67924
470.0046, 12.53469
470.4867, 12.41885
470.9688, 12.31526
471.4510, 12.24126
471.9331, 12.22716
472.4152, 12.28850
472.8973, 12.40754
473.3794, 12.59804
473.8615, 12.92628
474.3437, 13.03685
474.8258, 12.52981
475.3079, 12.05788
475.7900, 12.12472
476.2721, 12.65476
476.7542, 13.12138
477.2364, 13.12337
477.7185, 12.85157
478.2006, 12.76512
478.6827, 12.90395
479.1648, 12.99950
479.6469, 12.89115
480.1291, 12.65976
480.6112, 12.45383
481.0933, 12.27959
481.5754, 12.13139
482.0575, 11.95459
482.5396, 11.81407
483.0217, 11.87080
483.5038, 12.16475
483.9860, 12.46958
484.4681, 12.03879
484.9502, 12.55012
485.4323, 12.82700
485.9144, 12.88204
486.3965, 12.05074
486.8787, 12.36395
487.3608, 12.21849
487.8429, 12.05423
488.3250, 12.52852
488.8071, 11.82614
489.2892, 12.29031
489.7714, 12.28881
490.2535, 12.50044
490.7356, 12.25056
491.2177, 12.14323
491.6998, 12.49755
492.1819, 12.59625
492.6641, 12.29325
493.1462, 11.74270
493.6283, 11.45396
494.1104, 11.39115
494.5925, 11.68349
495.0746, 11.85055
495.5568, 11.58943
496.0389, 11.29589
496.5210, 11.29077
497.0031, 11.57679
497.4852, 11.85318
497.9673, 11.86041
498.4495, 11.70009
498.9316, 11.66027
499.4137, 11.77036
499.8958, 11.91323
500.3779, 12.09018
500.8600, 12.22931
501.3422, 12.18569
501.8243, 11.89421
502.3064, 11.54671
502.7885, 11.12862
503.2706, 10.74486
503.7527, 10.60747
504.2349, 10.76507
504.7170, 11.05230
505.1991, 11.33638
505.6812, 11.62204
506.1633, 11.77060
506.6454, 11.69106
507.1276, 11.59228
507.6097, 11.53641
508.0918, 11.51505
508.5739, 11.53113
509.0560, 11.58174
509.5381, 11.60701
510.0203, 11.50221
510.5024, 11.22285
510.9845, 10.96548
511.4666, 10.59616
511.9487, 10.38339
512.4308, 10.52430
512.9130, 10.89038
513.3951, 11.24099
513.8772, 11.46692
514.3593, 11.58129
514.8414, 11.57635
515.3235, 11.42981
515.8057, 11.34000
516.2878, 11.42357
516.7699, 11.50413
517.2520, 11.42836
517.7341, 11.21105
518.2162, 10.96983
518.6984, 10.69243
519.1805, 10.45204
519.6626, 10.35011
520.1447, 10.38297
520.6268, 10.48613
521.1089, 10.64792
521.5911, 10.83993
522.0732, 11.00367
522.5553, 11.16690
523.0374, 11.23804
523.5195, 11.04039
524.0016, 10.85632
524.4838, 11.02774
524.9659, 11.49712
525.4480, 11.88513
525.9301, 11.91301
526.4122, 11.63984
526.8943, 11.36022
527.3765, 11.01351
527.8586, 10.75631
528.3407, 10.56982
528.8228, 10.49218
529.3049, 10.63632
529.7870, 10.96118
530.2692, 11.22236
530.7513, 11.16568
531.2334, 10.85569
531.7155, 10.66930
532.1976, 10.61718
532.6797, 10.66661
533.1619, 10.98137
533.6440, 11.30410
534.1261, 11.31109
534.6082, 10.91151
535.0903, 10.54722
535.5724, 10.57546
536.0546, 10.82902
536.5367, 10.90800
537.0188, 10.74644
537.5009, 10.66791
537.9830, 10.97334
538.4651, 11.56412
538.9473, 11.87674
539.4294, 11.77104
539.9115, 11.59340
540.3936, 11.41116
540.8757, 11.22296
541.3578, 10.98201
541.8400, 10.70064
542.3221, 10.51588
542.8042, 10.58437
543.2863, 10.91070
543.7684, 11.20525
544.2505, 11.09912
544.7326, 11.60525
545.2147, 11.87693
545.6968, 11.92677
546.1790, 11.09027
546.6611, 11.39828
547.1432, 11.24763
547.6253, 11.07817
548.1074, 11.54726
548.5895, 10.83969
549.0717, 11.29865
549.5538, 11.29196
550.0359, 11.40544
550.5180, 11.65658
551.0001, 11.68351
551.4822, 11.36102
551.9644, 11.02894
552.4465, 10.90259
552.9286, 10.91687
553.4107, 10.95375
553.8928, 10.99143
554.3749, 11.00718
554.8571, 10.96897
555.3392, 10.87992
555.8213, 10.85837
556.3034, 11.04480
556.7855, 11.11835
557.2676, 10.87156
557.7498, 10.52712
558.2319, 10.33516
558.7140, 10.35926
559.1961, 10.53676
559.6782, 10.84890
560.1603, 11.29855
560.6425, 11.50299
561.1246, 11.32653
561.6067, 11.08957
562.0888, 10.77652
562.5709, 10.51934
563.0530, 10.52784
563.5352, 10.86272
564.0173, 11.17408
564.4994, 11.08488
564.9815, 10.72886
565.4636, 10.57431
565.9457, 10.70205
566.4279, 10.83208
566.9100, 10.75326
567.3921, 10.53315
567.8742, 10.42541
568.3563, 10.50804
568.8384, 10.57205
569.3206, 10.53539
569.8027, 10.44726
570.2848, 10.33153
570.7669, 10.21062
571.2490, 10.17409
571.7311, 10.31776
572.2133, 10.61780
572.6954, 10.80747
573.1775, 10.85179
573.6596, 10.82459
574.1417, 10.66418
574.6238, 10.48728
575.1060, 10.39736
575.5881, 10.40317
576.0702, 10.44210
576.5523, 10.48743
577.0344, 10.52228
577.5165, 10.45544
577.9987, 10.24796
578.4808, 10.11364
578.9629, 10.19494
579.4450, 10.36662
579.9271, 10.43728
580.4092, 10.38421
580.8914, 10.37250
581.3735, 10.52936
581.8556, 10.71832
582.3377, 10.77181
582.8198, 10.69907
583.3019, 10.62604
583.7841, 10.62717
584.2662, 10.67089
584.7483, 10.66075
585.2304, 10.38238
585.7125, 9.989934
586.1946, 10.54448
586.6768, 10.86459
587.1589, 10.96283
587.6410, 10.17475
588.1231, 10.53118
588.6052, 10.42894
589.0873, 10.30789
589.5695, 10.82541
590.0516, 10.16624
590.5337, 10.67363
591.0158, 10.71535
591.4979, 10.97019
591.9800, 10.76354
592.4622, 10.69943
592.9443, 11.09696
593.4264, 11.23888
593.9085, 10.97909
594.3906, 11.24749
594.8727, 10.57220
595.3549, 10.72501
595.8370, 11.23509
596.3191, 10.99851
596.8012, 11.27534
597.2833, 11.35664
597.7654, 10.54931
598.2476, 11.28739
598.7297, 11.35713
599.2118, 10.74064
599.6939, 11.42576
600.1760, 10.90387
600.6581, 10.81281
601.1403, 11.04598
601.6224, 10.94116
602.1045, 11.36921
602.5866, 11.28391
603.0687, 11.15273
603.5508, 11.22172
604.0330, 10.72351
604.5151, 11.27757
604.9972, 11.11284
605.4793, 11.30541
605.9614, 11.57896
606.4435, 11.04668
606.9257, 10.70635
607.4078, 10.89332
607.8899, 11.03609
608.3720, 11.50236
608.8541, 11.71074
609.3362, 11.67511
609.8184, 10.66448
610.3005, 11.41679
610.7826, 11.52786
611.2647, 11.27170
611.7468, 10.96444
612.2289, 10.78412
612.7111, 10.72793
613.1932, 10.72271
613.6753, 10.72535
614.1574, 10.76236
614.6395, 10.93888
615.1216, 11.28002
615.6038, 11.41393
616.0859, 11.17348
616.5680, 10.85135
617.0501, 10.64003
617.5322, 10.53949
618.0143, 10.57774
618.4965, 10.83438
618.9786, 11.14768
619.4607, 11.54587
619.9428, 11.90249
620.4249, 11.91987
620.9070, 11.54293
621.3892, 11.08207
621.8713, 10.84557
622.3534, 10.83016
622.8355, 10.84962
623.3176, 11.00190
623.7997, 11.05938
624.2819, 10.86234
624.7640, 10.64075
625.2461, 10.62094
625.7282, 10.81594
626.2103, 11.05311
626.6924, 11.20747
627.1745, 11.30684
627.6566, 11.45978
628.1387, 11.68201
628.6208, 11.72250
629.1030, 11.42939
629.5851, 10.97843
630.0672, 10.57495
630.5493, 10.20182
631.0314, 10.01884
631.5135, 10.12799
631.9957, 10.35788
632.4778, 10.75453
632.9599, 11.16332
633.4420, 11.22182
633.9241, 10.80742
634.4063, 10.29103
634.8884, 10.24744
635.3705, 10.76864
635.8526, 10.97241
636.3347, 10.54224
636.8168, 10.23664
637.2990, 10.54277
637.7811, 10.61795
638.2632, 11.14812
638.7453, 11.44384
639.2274, 11.51771
639.7095, 10.70525
640.1917, 11.03730
640.6738, 10.91068
641.1559, 10.76526
641.6380, 11.25839
642.1201, 10.57485
642.6022, 11.05786
643.0844, 11.07520
643.5665, 11.30566
644.0486, 10.99292
644.5307, 10.88043
645.0128, 10.78699
645.4949, 10.88889
645.9771, 11.07789
646.4592, 11.10914
646.9413, 10.87019
647.4234, 10.55110
647.9055, 10.42776
648.3876, 10.49640
648.8698, 10.56130
649.3519, 10.58746
649.8340, 10.65821
650.3161, 10.94100
650.7982, 11.27096
651.2803, 11.26839
651.7625, 10.71892
652.2446, 10.32730
652.7267, 10.59139
653.2088, 11.01293
653.6909, 10.96069
654.1730, 10.48361
654.6552, 10.08925
655.1373, 10.08899
655.6194, 10.36176
656.1015, 10.62723
656.5836, 10.96714
657.0657, 11.08553
657.5479, 10.70404
658.0300, 10.34638
658.5121, 10.17848
658.9942, 10.20849
659.4763, 10.47717
659.9584, 11.08340
660.4406, 11.64538
660.9227, 11.79329
661.4048, 11.63443
661.8869, 11.40041
662.3690, 11.12255
662.8511, 10.91680
663.3333, 10.86139
663.8154, 10.94377
664.2975, 11.11186
664.7796, 11.59017
665.2617, 11.83375
665.7438, 11.72336
666.2260, 11.46914
666.7081, 11.10195
667.1902, 10.71742
667.6723, 10.50671
668.1544, 10.58372
668.6365, 10.80690
669.1187, 10.98155
669.6008, 11.10733
670.0829, 11.16723
670.5650, 11.14172
671.0471, 11.09403
671.5292, 11.06170
672.0114, 11.04448
672.4935, 11.04219
672.9756, 11.08819
673.4577, 11.09064
673.9398, 10.97497
674.4219, 10.83607
674.9041, 10.73730
675.3862, 10.70147
675.8683, 10.76994
676.3504, 10.97766
676.8325, 11.25858
677.3146, 11.46388
677.7968, 11.59043
678.2789, 11.65552
678.7610, 11.65124
679.2431, 11.59511
679.7252, 11.43432
680.2073, 11.24380
680.6895, 11.20219
681.1716, 11.43374
681.6537, 11.59944
682.1358, 11.39342
682.6179, 11.05604
683.1000, 10.97290
683.5822, 11.14911
684.0643, 11.28540
684.5464, 11.17770
685.0285, 10.93053
685.5106, 10.84357
685.9927, 10.97127
686.4749, 11.13146
686.9570, 11.42850
687.4391, 11.64481
687.9212, 11.63717
688.4033, 11.49130
688.8854, 11.35135
689.3676, 11.24727
689.8497, 11.22755
690.3318, 11.43350
690.8139, 11.72842
691.2960, 11.80289
691.7781, 11.62913
692.2603, 11.35190
692.7424, 11.01272
693.2245, 10.70833
693.7066, 10.70764
694.1887, 11.27016
694.6708, 11.61441
695.1530, 11.70284
695.6351, 11.62869
696.1172, 10.87559
696.5993, 11.42167
697.0814, 11.73329
697.5635, 11.82306
698.0457, 11.02650
698.5278, 11.37445
699.0099, 11.26373
699.4920, 11.13421
699.9741, 11.64324
700.4562, 10.97560
700.9384, 11.47451
701.4205, 11.50775
701.9026, 11.75411
702.3847, 11.53898
702.8668, 11.46639
703.3489, 11.85544
703.8311, 11.98888
704.3132, 11.72062
704.7953, 11.98054
705.2774, 11.29677
705.7595, 11.44110
706.2416, 11.94271
706.7238, 11.69765
707.2059, 11.96600
707.6880, 12.03882
708.1701, 11.22302
708.6522, 11.95261
709.1343, 12.01387
709.6164, 11.38891
710.0985, 12.06555
710.5806, 11.53518
711.0627, 11.43565
711.5449, 11.66034
712.0270, 11.54703
712.5091, 11.96661
712.9912, 11.87282
713.4733, 11.73317
713.9554, 11.79368
714.4376, 11.28699
714.9197, 11.83258
715.4018, 11.65937
715.8839, 11.84346
716.3660, 12.10853
716.8481, 11.75349
717.3303, 12.05496
717.8124, 11.33835
718.2945, 11.47359
718.7766, 11.51711
719.2587, 12.10512
719.7408, 11.39347
720.2230, 11.50506
720.7051, 11.96716
721.1872, 11.93880
721.6693, 12.11550
722.1514, 11.68514
722.6335, 11.95440
723.1157, 11.78521
723.5978, 11.47698
724.0799, 11.29994
724.5620, 11.25407
725.0441, 11.35487
725.5262, 11.71002
726.0084, 12.02381
726.4905, 11.97343
726.9726, 11.67016
727.4547, 11.55597
727.9368, 11.83305
728.4189, 12.01819
728.9011, 11.88459
729.3832, 11.65701
729.8653, 11.55981
730.3474, 11.57332
730.8295, 11.52388
731.3116, 11.30447
731.7938, 11.06819
732.2759, 11.12677
732.7580, 11.48603
733.2401, 11.71828
733.7222, 11.74397
734.2043, 11.76853
734.6865, 11.99037
735.1686, 12.25246
735.6507, 12.17879
736.1328, 11.61998
736.6149, 11.24611
737.0970, 11.19175
737.5792, 11.36580
738.0613, 11.92273
738.5434, 12.60733
739.0255, 12.92008
739.5076, 12.70387
739.9897, 12.31057
740.4719, 12.14067
740.9540, 12.16552
741.4361, 12.17892
741.9182, 12.17426
742.4003, 12.19266
742.8824, 12.25655
743.3646, 12.34275
743.8467, 12.47348
744.3288, 12.65622
744.8109, 12.60736
745.2930, 11.95543
745.7751, 11.47467
746.2573, 11.62439
746.7394, 12.03462
747.2215, 12.28041
747.7036, 12.29564
748.1857, 12.23770
748.6678, 12.20201
749.1500, 12.20395
749.6321, 12.33546
750.1142, 12.59633
750.5963, 12.62027
751.0784, 12.23323
751.5605, 11.90579
752.0427, 12.10619
752.5248, 12.69979
753.0069, 12.93219
753.4890, 12.53933
753.9711, 12.22932
754.4532, 12.10202
754.9354, 12.07530
755.4175, 12.10652
755.8996, 12.18709
756.3817, 12.35116
756.8638, 12.62406
757.3459, 12.83173
757.8281, 12.66648
758.3102, 12.25716
758.7923, 12.13706
759.2744, 12.35206
759.7565, 12.56894
760.2386, 12.63688
760.7208, 12.59937
761.2029, 12.51526
761.6850, 12.34807
762.1671, 12.28707
762.6492, 12.40279
763.1313, 12.53190
763.6135, 12.61368
764.0956, 12.68823
764.5777, 12.84103
765.0598, 13.05950
765.5419, 13.18334
766.0240, 13.04420
766.5062, 12.80941
766.9883, 12.77044
767.4704, 12.85530
767.9525, 12.27917
768.4346, 12.82252
768.9167, 13.13142
769.3989, 13.21847
769.8810, 12.41920
770.3631, 12.76442
770.8452, 12.65099
771.3273, 12.51874
771.8094, 13.02506
772.2916, 12.35470
772.7737, 12.85088
773.2558, 12.88140
773.7379, 13.12505
774.2200, 12.90720
774.7021, 12.83188
775.1843, 13.21822
775.6664, 13.34894
776.1485, 13.07796
776.6306, 13.33515
777.1127, 12.64867
777.5948, 12.79027
778.0770, 13.28916
778.5591, 13.04139
779.0412, 13.30702
779.5233, 13.37711
780.0054, 13.31117
780.4875, 13.47481
780.9697, 13.06373
781.4518, 12.53084
781.9339, 12.33969
782.4160, 12.46660
782.8981, 12.56656
783.3802, 12.42045
783.8624, 12.38412
784.3445, 12.80668
784.8266, 13.35277
785.3087, 13.57281
785.7908, 13.44479
786.2729, 13.21400
786.7551, 13.02135
787.2372, 12.90738
787.7193, 13.01073
788.2014, 13.32711
788.6835, 13.51990
789.1656, 13.55531
789.6478, 13.43818
790.1299, 13.06195
790.6120, 12.60199
791.0941, 12.53197
791.5762, 13.06933
792.0583, 13.32300
792.5404, 12.98587
793.0225, 12.63947
793.5046, 12.50644
793.9868, 12.55197
794.4689, 12.77745
794.9510, 13.14630
795.4331, 13.42347
795.9152, 13.34360
796.3973, 13.12534
796.8795, 13.20203
797.3616, 13.48878
797.8437, 13.51031
798.3258, 13.13756
798.8079, 12.77478
799.2900, 12.79955
799.7722, 13.12627
800.2543, 13.26691
800.7364, 13.08154
801.2185, 12.99738
801.7006, 13.16808
802.1827, 13.32469
802.6649, 13.29437
803.1470, 13.17571
803.6291, 13.17396
804.1112, 13.36088
804.5933, 13.49557
805.0754, 13.35374
805.5576, 13.18457
806.0397, 13.26600
806.5218, 13.52492
807.0039, 13.77499
807.4860, 13.94502
807.9681, 14.02836
808.4503, 13.99297
808.9324, 13.87017
809.4145, 13.84510
809.8966, 13.94110
810.3787, 13.99078
810.8608, 13.95605
811.3430, 13.85251
811.8251, 13.61715
812.3072, 13.30337
812.7893, 13.26326
813.2714, 13.79471
813.7535, 14.15087
814.2357, 14.13601
814.7178, 13.99669
815.1999, 13.88145
815.6820, 13.77810
816.1641, 13.57757
816.6462, 13.23726
817.1284, 13.02524
817.6105, 13.39588
818.0926, 13.97760
818.5747, 13.93390
819.0568, 13.35546
819.5389, 12.95613
820.0211, 12.98532
820.5032, 13.27862
820.9853, 13.70083
821.4674, 14.22567
821.9495, 14.42614
822.4316, 14.16451
822.9138, 13.87678
823.3959, 13.51682
823.8780, 13.27475
824.3601, 13.40810
824.8422, 13.74463
825.3243, 13.79233
825.8065, 13.27092
826.2886, 12.94591
826.7707, 13.28889
827.2528, 13.80098
827.7349, 14.11685
828.2170, 14.22432
828.6992, 14.15415
829.1813, 13.92908
829.6634, 13.67697
830.1455, 13.55207
830.6276, 13.50652
831.1097, 13.29946
831.5919, 12.93890
832.0740, 12.93230
832.5561, 13.50563
833.0382, 14.13245
833.5203, 14.30340
834.0024, 14.07810
834.4846, 13.91252
834.9667, 13.80775
835.4488, 13.76548
835.9309, 13.77369
836.4130, 13.85192
836.8951, 14.16545
837.3773, 14.50745
837.8594, 14.43475
838.3415, 13.78293
838.8236, 13.30933
839.3057, 13.66208
839.7878, 14.15334
840.2700, 14.01845
840.7521, 13.51708
841.2342, 13.32238
841.7163, 13.57791
842.1984, 13.82102
842.6805, 13.60267
843.1627, 13.08916
843.6448, 12.74423
844.1269, 12.56884
844.6090, 12.60431
845.0911, 12.91784
845.5732, 13.24205
846.0554, 13.42755
846.5375, 13.46485
847.0196, 13.29507
847.5017, 12.66827
847.9838, 12.41660
848.4659, 12.81927
848.9481, 13.25785
849.4302, 13.53092
849.9123, 13.69225
850.3944, 13.85087
850.8765, 14.00546
851.3586, 13.99658
851.8408, 13.64723
852.3229, 13.19752
852.8050, 12.68082
853.2871, 12.27186
853.7692, 12.41717
854.2513, 13.05404
854.7335, 13.56038
855.2156, 13.53462
855.6977, 13.21221
856.1798, 12.97091
856.6619, 12.81303
857.1440, 12.87861
857.6262, 13.22830
858.1083, 13.50755
858.5904, 13.52182
859.0725, 13.45905
859.5546, 13.61819
860.0367, 14.03959
860.5189, 14.20067
861.0010, 13.89435
861.4831, 13.61952
861.9652, 13.48249
862.4473, 13.37850
862.9294, 13.19654
863.4116, 12.98067
863.8937, 12.86764
864.3758, 12.90712
864.8579, 13.02424
865.3400, 13.23504
865.8221, 13.45246
866.3043, 13.63712
866.7864, 13.73554
867.2685, 13.57564
867.7506, 13.12332
868.2327, 12.64117
868.7148, 12.37144
869.1970, 12.31050
869.6791, 12.53276
870.1612, 13.03793
870.6433, 13.34280
871.1254, 13.32528
871.6075, 13.19678
872.0897, 13.10990
872.5718, 13.03982
873.0539, 12.89626
873.5360, 12.57612
874.0181, 12.41936
874.5002, 12.57490
874.9823, 12.72535
875.4644, 12.76708
875.9465, 12.75162
876.4286, 12.74699
876.9108, 12.75592
877.3929, 12.71646
877.8750, 12.53294
878.3571, 12.38269
878.8392, 12.43049
879.3214, 12.52368
879.8035, 12.47064
880.2856, 12.28147
880.7677, 12.05304
881.2498, 11.82436
881.7319, 11.68167
882.2141, 11.84193
882.6962, 12.15765
883.1783, 12.10683
883.6604, 11.71340
884.1425, 11.45431
884.6246, 11.50233
885.1068, 11.70845
885.5889, 11.91990
886.0710, 12.13746
886.5531, 12.40064
887.0352, 12.84136
887.5173, 12.91093
887.9995, 12.22759
888.4816, 11.60419
888.9637, 11.70317
889.4458, 12.15788
889.9279, 12.18559
890.4100, 11.62205
890.8922, 11.25164
891.3743, 11.29773
891.8564, 11.42687
892.3385, 11.58897
892.8206, 11.68935
893.3027, 11.52481
893.7849, 11.17098
894.2670, 11.06803
894.7491, 11.60034
895.2312, 12.09838
895.7133, 11.82534
896.1954, 11.17102
896.6776, 10.68070
897.1597, 10.42766
897.6418, 10.45101
898.1239, 10.76127
898.6060, 11.11863
899.0881, 11.24318
899.5703, 11.15240
900.0524, 10.82846
900.5345, 10.24062
901.0166, 10.11872
901.4987, 10.74933
901.9808, 11.42709
902.4630, 11.60088
902.9451, 11.37178
903.4272, 11.06766
903.9093, 10.50136
904.3914, 10.29926
904.8735, 10.86792
905.3557, 11.29317
905.8378, 11.13865
906.3199, 10.39621
906.8020, 10.93976
907.2841, 11.24886
907.7662, 11.33611
908.2484, 10.53703
908.7305, 10.88245
909.2126, 10.76921
909.6947, 10.63717
910.1768, 11.14368
910.6589, 10.47351
911.1411, 10.96990
911.6232, 10.35369
912.1053, 9.980745
912.5874, 10.16222
913.0695, 10.57130
913.5516, 10.71408
914.0338, 10.64407
914.5159, 10.53111
914.9980, 10.43047
915.4801, 10.41944
915.9622, 10.57405
916.4443, 10.80826
916.9265, 10.94257
917.4086, 10.97666
917.8907, 10.82530
918.3728, 10.44024
918.8549, 10.08574
919.3370, 9.825750
919.8192, 9.783175
920.3013, 10.23041
920.7834, 11.19722
921.2655, 11.50700
921.7476, 10.65895
922.2297, 9.574551
922.7119, 10.11139
923.1940, 10.41379
923.6761, 10.49433
924.1582, 9.688544
924.6403, 10.02726
925.1224, 9.907319
925.6046, 9.768566
926.0867, 10.26837
926.5688, 9.591500
927.0509, 10.08118
927.5330, 10.10519
928.0151, 10.34233
928.4973, 10.11797
928.9794, 10.03615
929.4615, 10.41597
929.9436, 10.54018
930.4257, 10.26269
930.9078, 10.51338
931.3900, 9.820386
931.8721, 9.955482
932.3542, 10.44786
932.8363, 10.19358
933.3184, 10.45270
933.8005, 10.51629
934.2827, 9.691260
934.7648, 10.41162
935.2469, 10.46366
935.7290, 9.829460
936.2111, 10.49687
936.6932, 9.957280
937.1754, 9.848515
937.6575, 10.06397
938.1396, 9.941441
938.6217, 10.35179
939.1038, 9.750337
939.5859, 9.450625
940.0681, 9.406313
940.5502, 9.894876
941.0323, 10.35423
941.5144, 10.23561
941.9965, 9.249825
942.4786, 9.806988
942.9608, 10.12971
943.4429, 10.23057
943.9250, 9.445107
944.4071, 9.804150
944.8892, 9.704527
945.3713, 9.586093
945.8535, 10.10623
946.3356, 9.449675
946.8177, 9.959676
947.2998, 10.00401
947.7819, 10.26147
948.2640, 10.05743
948.7462, 9.995935
949.2283, 10.39608
949.7104, 10.54061
950.1925, 10.28345
950.6746, 10.55445
951.1567, 9.881782
951.6389, 10.03721
952.1210, 10.54990
952.6031, 10.31594
953.0852, 10.59539
953.5673, 10.67930
954.0494, 9.874590
954.5316, 10.61528
955.0137, 10.68764
955.4958, 10.07376
955.9779, 10.76150
956.4600, 10.24223
956.9421, 10.15378
957.4242, 10.69092
957.9063, 10.82159
958.3884, 10.63323
958.8705, 10.45157
959.3527, 10.55231
959.8348, 10.82745
960.3169, 10.94253
960.7990, 10.84661
961.2811, 10.88625
961.7632, 11.14030
962.2454, 11.30716
962.7275, 11.17019
963.2096, 11.05666
963.6917, 11.34694
964.1738, 11.54872
964.6559, 11.71142
965.1381, 11.83719
965.6202, 11.81519
966.1023, 11.98396
966.5844, 12.07628
967.0665, 12.16547
967.5486, 12.36107
968.0308, 12.36060
968.5129, 13.18191
968.9950, 13.36259
969.4771, 13.50420
969.9592, 13.60883
970.4413, 13.56572
970.9235, 13.71340
971.4056, 13.78461
971.8877, 13.85268
972.3698, 14.02719
972.8519, 13.95947
973.3340, 13.65762
973.8162, 13.29591
974.2983, 12.99551
974.7804, 12.90945
975.2625, 12.91847
975.7446, 12.85265
976.2267, 12.71016
976.7089, 12.60775
977.1910, 12.60779
977.6731, 12.51919
978.1552, 11.98494
978.6373, 11.32355
979.1194, 11.02390
979.6016, 11.02260
980.0837, 10.98226
980.5658, 10.90494
981.0479, 10.67989
981.5300, 10.64559
982.0121, 10.53486
982.4943, 10.42096
982.9764, 10.41352
983.4585, 10.20996
983.9406, 10.20082
984.4227, 10.11407
984.9048, 10.06285
985.3870, 9.934676
985.8691, 9.830297
986.3512, 9.802848
986.8333, 9.732794
987.3154, 9.595791
987.7975, 9.546828
988.2797, 9.340550
988.7618, 9.444498
989.2439, 9.393003
989.7260, 9.269593
990.2081, 9.325320
990.6902, 9.341976
991.1724, 9.321644
991.6545, 9.153604
992.1366, 9.176310
992.6187, 9.122571
993.1008, 9.065699
993.5829, 9.115256
994.0651, 8.968689
994.5472, 9.016560
995.0293, 8.986814
995.5114, 8.992590
995.9935, 8.921450
996.4756, 8.874070
996.9578, 8.903619
997.4399, 8.890578
997.9220, 8.810583
998.4041, 8.818617
998.8862, 8.669372
999.3683, 8.658145
999.8505, 8.582644
1000.333, 8.904567
1000.815, 9.178021
1001.297, 9.209110
1001.779, 9.146395
1002.261, 9.120037
1002.743, 9.095845
1003.225, 8.929754
1003.707, 8.583476
1004.190, 8.404178
1004.672, 8.766603
1005.154, 9.124288
1005.636, 9.068506
1006.118, 8.834796
1006.600, 8.632721
1007.082, 8.529261
1007.564, 8.647079
1008.046, 9.035776
1008.529, 9.315107
1009.011, 8.957947
1009.493, 8.543219
1009.975, 8.903215
1010.457, 9.585029
1010.939, 9.680836
1011.421, 9.222263
1011.903, 8.924469
1012.385, 9.139558
1012.868, 9.496791
1013.350, 9.657120
1013.832, 9.646597
1014.314, 9.428934
1014.796, 9.093349
1015.278, 8.875378
1015.760, 8.824071
1016.242, 8.960413
1016.725, 9.311984
1017.207, 9.652170
1017.689, 9.612621
1018.171, 9.293221
1018.653, 8.992391
1019.135, 8.734565
1019.617, 8.671926
1020.099, 8.833215
1020.581, 9.085148
1021.064, 9.351281
1021.546, 9.571924
1022.028, 9.621836
1022.510, 9.513453
1022.992, 9.387587
1023.474, 9.244283
1023.956, 9.103522
1024.438, 8.970132
1024.921, 8.829284
1025.403, 8.651723
1025.885, 8.508601
1026.367, 8.631555
1026.849, 9.056761
1027.331, 9.102025
1027.813, 8.680930
1028.295, 8.372736
1028.777, 8.342957
1029.260, 8.434767
1029.742, 8.533870
1030.224, 8.644526
1030.706, 8.780899
1031.188, 8.954121
1031.670, 9.107959
1032.152, 9.282020
1032.634, 9.310920
1033.116, 9.090071
1033.599, 8.814467
1034.081, 8.607652
1034.563, 8.493738
1035.045, 8.568422
1035.527, 8.927830
1036.009, 9.144150
1036.491, 9.204484
1036.973, 9.136927
1037.456, 8.835702
1037.938, 8.555341
1038.420, 8.572194
1038.902, 8.767487
1039.384, 8.713449
1039.866, 8.227703
1040.348, 8.011644
1040.830, 8.362269
1041.313, 8.557032
1041.795, 8.193456
1042.277, 7.802363
1042.759, 7.839545
1043.241, 8.191152
1043.723, 8.530778
1044.205, 8.951150
1044.687, 9.086194
1045.169, 8.543076
1045.651, 8.209659
1046.134, 8.472554
1046.616, 8.446012
1047.098, 9.009241
1047.580, 9.314581
1048.062, 9.375876
1048.544, 8.462221
1049.026, 8.807514
1049.508, 8.648274
1049.991, 8.468301
1050.473, 8.990787
1050.955, 8.218936
1051.437, 8.730282
1051.919, 8.729403
1052.401, 8.962953
1052.883, 8.688854
1053.365, 8.571559
1053.848, 8.962015
1054.330, 9.071351
1054.812, 8.738814
1055.294, 8.987272
1055.776, 8.197680
1056.258, 8.884862
1056.740, 8.046215
1057.222, 8.490749
1057.704, 8.423077
1058.187, 8.589630
1058.669, 9.311062
1059.151, 9.251736
1059.633, 8.834380
1060.115, 8.369000
1060.597, 7.996865
1061.079, 7.928815
1061.561, 8.223316
1062.043, 8.622464
1062.526, 9.380514
1063.008, 9.788547
1063.490, 9.130970
1063.972, 8.340994
1064.454, 8.378225
1064.936, 8.887394
1065.418, 8.977772
1065.900, 8.461340
1066.383, 8.003383
1066.865, 7.813952
1067.347, 7.801382
1067.829, 7.924157
1068.311, 8.204312
1068.793, 8.930493
1069.275, 9.725552
1069.757, 9.816038
1070.240, 9.086744
1070.722, 8.448436
1071.204, 8.288095
1071.686, 8.289660
1072.168, 8.397469
1072.650, 8.518212
1073.132, 8.601702
1073.614, 8.631281
1074.096, 8.551067
1074.578, 8.374585
1075.061, 8.298226
1075.543, 8.515073
1076.025, 8.669003
1076.507, 8.418052
1076.989, 8.205402
1077.471, 8.568350
1077.953, 9.109652
1078.435, 9.120693
1078.918, 8.590066
1079.400, 8.177930
1079.882, 8.152858
1080.364, 8.241919
1080.846, 8.348777
1081.328, 8.485766
1081.810, 8.763702
1082.292, 9.015861
1082.774, 8.205388
1083.257, 8.786895
1083.739, 9.110519
1084.221, 9.190107
1084.703, 8.294736
1085.185, 8.658320
1085.667, 8.517374
1086.149, 8.355738
1086.631, 8.896517
1087.114, 8.142936
1087.596, 8.672576
1088.078, 8.689981
1088.560, 8.941824
1089.042, 8.686020
1089.524, 8.587009
1090.006, 8.995812
1090.488, 9.123435
1090.970, 8.809192
1091.453, 9.075921
1091.935, 8.304622
1092.417, 8.444222
1092.899, 8.976831
1093.381, 8.688113
1093.863, 8.964139
1094.345, 9.025080
1094.827, 8.108541
1095.309, 8.891937
1095.792, 8.940150
1096.274, 8.233525
1096.756, 8.958673
1097.238, 8.356113
1097.720, 8.227466
1098.202, 8.455463
1098.684, 8.311670
1099.166, 8.754050
1099.649, 8.631710
1100.131, 8.458934
1100.613, 8.506338
1101.095, 7.929815
1101.577, 8.510805
1102.059, 8.301116
1102.541, 8.379020
1103.023, 8.838428
1103.505, 9.054211
1103.988, 9.001455
1104.470, 8.466825
1104.952, 7.853724
1105.434, 7.643191
1105.916, 7.791730
1106.398, 7.907738
1106.880, 7.843855
1107.362, 7.961195
1107.844, 8.699987
1108.327, 9.139253
1108.809, 8.644996
1109.291, 7.955478
1109.773, 7.749255
1110.255, 7.891183
1110.737, 7.885354
1111.219, 7.592057
1111.701, 7.568514
1112.184, 8.189348
1112.666, 8.614406
1113.148, 8.526030
1113.630, 8.325917
1114.112, 8.316731
1114.594, 8.358436
1115.076, 8.098608
1115.558, 7.460207
1116.041, 7.312509
1116.523, 8.163960
1117.005, 8.628054
1117.487, 8.285015
1117.969, 7.933853
1118.451, 7.981175
1118.933, 8.194157
1119.415, 8.273753
1119.897, 8.236448
1120.380, 8.276566
1120.862, 8.451306
1121.344, 8.563100
1121.826, 8.605000
1122.308, 8.586186
1122.790, 8.516991
1123.272, 8.361204
1123.754, 8.010728
1124.236, 7.598520
1124.719, 7.635347
1125.201, 8.285412
1125.683, 8.447826
1126.165, 7.906945
1126.647, 7.758751
1127.129, 8.393922
1127.611, 9.030624
1128.093, 9.131995
1128.576, 8.902576
1129.058, 8.704315
1129.540, 8.537226
1130.022, 8.358346
1130.504, 8.155233
1130.986, 8.124192
1131.468, 8.310789
1131.950, 8.514772
1132.432, 8.650260
1132.915, 8.682123
1133.397, 8.540065
1133.879, 8.297382
1134.361, 8.235444
1134.843, 8.335771
1135.325, 8.397574
1135.807, 8.403853
1136.289, 8.343502
1136.771, 8.213105
1137.254, 8.000089
1137.736, 7.670008
1138.218, 7.365422
1138.700, 7.363496
1139.182, 7.599326
1139.664, 7.956668
1140.146, 8.355344
1140.628, 8.434139
1141.111, 8.172604
1141.593, 7.905333
1142.075, 7.806254
1142.557, 7.812601
1143.039, 7.893966
1143.521, 8.000011
1144.003, 8.055759
1144.485, 8.067137
1144.968, 8.017606
1145.450, 7.937682
1145.932, 7.925586
1146.414, 8.004830
1146.896, 8.082590
1147.378, 8.092168
1147.860, 8.077044
1148.342, 8.030581
1148.824, 8.023313
1149.307, 8.228714
1149.789, 8.492702
1150.271, 8.516194
1150.753, 8.299069
1151.235, 8.071653
1151.717, 7.919506
1152.199, 7.806746
1152.681, 7.739906
1153.163, 7.674036
1153.646, 7.576560
1154.128, 7.467143
1154.610, 7.307434
1155.092, 7.170645
1155.574, 7.256248
1156.056, 7.610096
1156.538, 7.843075
1157.020, 7.672784
1157.503, 7.611917
1157.985, 7.924973
1158.467, 8.259782
1158.949, 8.405371
1159.431, 8.450238
1159.913, 8.551837
1160.395, 8.689645
1160.877, 8.643933
1161.359, 7.829582
1161.842, 8.372663
1162.324, 8.657953
1162.806, 8.699194
1163.288, 7.765488
1163.770, 8.090726
1164.252, 7.911442
1164.734, 7.711459
1165.216, 8.213901
1165.698, 7.421987
1166.181, 7.913184
1166.663, 7.892254
1167.145, 8.133542
1167.627, 8.373254
1168.109, 8.509731
1168.591, 8.494239
1169.073, 8.360276
1169.555, 8.109815
1170.037, 7.822111
1170.520, 7.849564
1171.002, 8.180065
1171.484, 8.325978
1171.966, 8.267123
1172.448, 8.081183
1172.930, 7.791932
1173.412, 7.555448
1173.894, 7.475260
1174.377, 7.509635
1174.859, 7.630712
1175.341, 7.802623
1175.823, 7.939484
1176.305, 8.040174
1176.787, 8.053147
1177.269, 8.020027
1177.751, 8.213541
1178.234, 8.684665
1178.716, 8.878371
1179.198, 8.194106
1179.680, 7.424814
1180.162, 7.560364
1180.644, 8.018701
1181.126, 7.995563
1181.608, 7.770658
1182.090, 8.082927
1182.573, 8.807557
1183.055, 8.980942
1183.537, 8.154005
1184.019, 7.424911
1184.501, 7.390198
1184.983, 7.585581
1185.465, 7.961824
1185.947, 8.258679
1186.429, 8.195553
1186.912, 7.925837
1187.394, 7.703030
1187.876, 7.562459
1188.358, 7.557747
1188.840, 7.830438
1189.322, 8.027036
1189.804, 8.078083
1190.286, 8.090286
1190.769, 8.043897
1191.251, 8.040149
1191.733, 8.255035
1192.215, 8.529431
1192.697, 8.397311
1193.179, 7.771174
1193.661, 7.526061
1194.143, 7.791378
1194.625, 7.951700
1195.108, 7.900106
1195.590, 7.785004
1196.072, 7.646283
1196.554, 7.617994
1197.036, 7.886697
1197.518, 8.324799
1198.000, 8.550264
1198.482, 8.572778
1198.964, 8.440355
1199.447, 8.183301
1199.929, 8.010935
1200.411, 7.970917
1200.893, 8.024626
1201.375, 8.152997
1201.857, 8.279292
1202.339, 8.309957
1202.821, 8.287034
1203.304, 8.280187
1203.786, 8.269725
1204.268, 8.088983
1204.750, 7.905390
1205.232, 8.331292
1205.714, 9.343716
1206.196, 9.855418
1206.678, 9.139856
1207.161, 8.367065
1207.643, 8.259592
1208.125, 8.352248
1208.607, 8.360436
1209.089, 8.365867
1209.571, 8.571101
1210.053, 8.828862
1210.535, 8.738756
1211.017, 8.221225
1211.500, 7.835199
1211.982, 7.634469
1212.464, 7.611283
1212.946, 7.969856
1213.428, 8.235996
1213.910, 8.216695
1214.392, 8.044560
1214.874, 7.777437
1215.356, 7.497123
1215.839, 7.478188
1216.321, 7.760875
1216.803, 7.912519
1217.285, 7.916228
1217.767, 7.897473
1218.249, 7.875630
1218.731, 7.842137
1219.213, 7.790088
1219.696, 7.759941
1220.178, 7.810537
1220.660, 7.880352
1221.142, 7.758904
1221.624, 7.549973
1222.106, 7.653516
1222.588, 7.989105
1223.070, 8.242236
1223.552, 8.346025
1224.035, 8.306626
1224.517, 8.125846
1224.999, 8.026338
1225.481, 8.331292
1225.963, 8.647367
1226.445, 8.568633
1226.927, 8.355182
1227.409, 8.211935
1227.891, 8.174545
1228.374, 8.371835
1228.856, 8.713520
1229.338, 8.690547
1229.820, 7.986694
1230.302, 7.542673
1230.784, 7.776090
1231.266, 8.019585
1231.748, 8.170839
1232.231, 8.142428
1232.713, 7.619328
1233.195, 7.123828
1233.677, 7.558935
1234.159, 8.753798
1234.641, 9.080860
1235.123, 8.220723
1235.605, 8.134982
1236.088, 9.089938
1236.570, 9.461675
1237.052, 8.769708
1237.534, 8.056443
1238.016, 7.995110
1238.498, 8.208433
1238.980, 8.203569
1239.462, 8.021452
1239.944, 7.659798
1240.427, 7.242890
1240.909, 7.165256
1241.391, 7.376561
1241.873, 7.634330
1242.355, 7.863324
1242.837, 8.063554
1243.319, 8.241308
1243.801, 8.348070
1244.283, 8.277199
1244.766, 8.205603
1245.248, 8.361882
1245.730, 8.499022
1246.212, 8.304623
1246.694, 7.943271
1247.176, 7.685997
1247.658, 7.573646
1248.140, 7.619721
1248.622, 7.955799
1249.105, 8.175159
1249.587, 8.238493
1250.069, 8.199637
1250.551, 7.973224
1251.033, 7.823835
1251.515, 7.950414
1251.997, 8.190061
1252.479, 8.311374
1252.962, 8.320505
1253.444, 8.222322
1253.926, 8.020228
1254.408, 7.877677
1254.890, 7.814698
1255.372, 8.092444
1255.854, 8.715134
1256.336, 8.982457
1256.818, 8.480773
1257.301, 7.846074
1257.783, 7.798810
1258.265, 7.992055
1258.747, 7.987378
1259.229, 7.903439
1259.711, 7.900164
1260.193, 7.949902
1260.675, 7.932408
1261.157, 7.877451
1261.640, 7.597848
1262.122, 8.175766
1262.604, 8.495786
1263.086, 8.571767
1263.568, 7.672793
1264.050, 8.032772
1264.532, 7.888222
1265.014, 7.722980
1265.497, 8.260132
1265.979, 7.502961
1266.461, 8.028994
1266.943, 8.042797
1267.425, 8.291034
1267.907, 8.031625
1268.389, 7.929010
1268.871, 8.334208
1269.354, 7.918326
1269.836, 7.934826
1270.318, 7.713155
1270.800, 7.603969
1271.282, 8.001032
1271.764, 8.547949
1272.246, 8.632113
1272.728, 8.496209
1273.210, 8.649747
1273.693, 8.869659
1274.175, 8.640948
1274.657, 8.051465
1275.139, 7.473021
1275.621, 7.028699
1276.103, 7.004827
1276.585, 7.927073
1277.067, 8.609665
1277.549, 8.574271
1278.032, 8.325638
1278.514, 7.894832
1278.996, 7.561285
1279.478, 7.584862
1279.960, 7.846049
1280.442, 8.163301
1280.924, 8.526107
1281.406, 8.508096
1281.889, 8.001825
1282.371, 8.072265
1282.853, 8.841485
1283.335, 9.147827
1283.817, 8.669254
1284.299, 8.145205
1284.781, 8.050501
1285.263, 8.114469
1285.745, 8.060667
1286.228, 7.888479
##END=



