##NAMES=Brochantite
##RRUFFID=R060117
##IDEAL CHEMISTRY=Cu^2+^_4_S^6+^O_4_(OH)_6_
##LOCALITY=M'sesa mine, Likasi, Katanga Province, Democratic Republic of the Congo
##OWNER=RRUFF
##SOURCE=University of Arizona Mineral Museum
##DESCRIPTION=Emerald-green thick acicular crystals
##STATUS=The identification of this mineral has been confirmed by X-ray diffraction and chemical analysis
##URL=rruff.info/R060117
##MEASURED CHEMISTRY=Cu_4.00_S_1.00_O_4_(OH)_6_
89.78156, 0.0000000E+00
90.26367, 13.61591
90.74579, 13.37056
91.22791, 13.49427
91.71002, 13.94281
92.19214, 14.32601
92.67426, 14.24522
93.15638, 13.84015
93.63850, 13.48139
94.12061, 13.29872
94.60273, 13.23919
95.08485, 13.21439
95.56696, 13.23633
96.04908, 13.21370
96.53120, 12.93324
97.01331, 12.41989
97.49543, 12.08145
97.97755, 12.20802
98.45966, 12.76495
98.94178, 13.11155
99.42390, 13.21013
99.90602, 13.14529
100.3881, 13.04835
100.8703, 12.89528
101.3524, 12.79522
101.8345, 12.85505
102.3166, 13.15788
102.7987, 13.23183
103.2808, 12.91904
103.7630, 12.35700
104.2451, 12.22458
104.7272, 12.86596
105.2093, 13.48022
105.6914, 13.48753
106.1735, 12.34435
106.6557, 11.53121
107.1378, 11.33760
107.6199, 11.78500
108.1020, 12.07202
108.5841, 11.97362
109.0662, 11.83503
109.5484, 11.96431
110.0305, 12.50811
110.5126, 13.17479
110.9947, 14.04114
111.4768, 15.25674
111.9590, 16.00877
112.4411, 15.66938
112.9232, 14.96340
113.4053, 14.83285
113.8874, 15.83804
114.3695, 17.12191
114.8517, 18.12508
115.3338, 18.14087
115.8159, 19.51863
116.2980, 24.26215
116.7801, 30.93811
117.2622, 36.37903
117.7444, 38.15920
118.2265, 39.09625
118.7086, 41.03878
119.1907, 44.66508
119.6728, 48.96840
120.1549, 53.51867
120.6371, 58.32096
121.1192, 63.41796
121.6013, 69.00538
122.0834, 74.79739
122.5655, 80.43812
123.0476, 85.62987
123.5298, 90.79398
124.0119, 96.29214
124.4940, 102.1158
124.9761, 108.1705
125.4582, 114.3622
125.9404, 120.6900
126.4225, 127.0999
126.9046, 133.2956
127.3867, 139.6446
127.8688, 146.7970
128.3509, 154.7878
128.8331, 163.2396
129.3152, 171.8216
129.7973, 180.5749
130.2794, 189.4792
130.7615, 198.4526
131.2436, 207.5737
131.7258, 216.7111
132.2079, 225.5998
132.6900, 235.2686
133.1721, 247.1748
133.6542, 261.2819
134.1364, 277.3792
134.6185, 296.0819
135.1006, 317.3790
135.5827, 339.0115
136.0648, 361.8641
136.5469, 384.0319
137.0291, 401.4375
137.5112, 414.0744
137.9933, 421.4218
138.4754, 422.0394
138.9575, 414.8897
139.4396, 407.2837
139.9218, 399.7024
140.4039, 392.3196
140.8860, 386.2580
141.3681, 381.9516
141.8502, 378.2723
142.3323, 374.1403
142.8145, 368.4586
143.2966, 364.9760
143.7787, 364.3580
144.2608, 366.5885
144.7429, 370.5942
145.2250, 376.6790
145.7072, 384.3255
146.1893, 393.1529
146.6714, 403.7256
147.1535, 414.6332
147.6356, 425.8255
148.1178, 437.4621
148.5999, 448.0063
149.0820, 456.1850
149.5641, 463.7670
150.0462, 472.7305
150.5283, 482.6982
151.0105, 494.3047
151.4926, 503.0999
151.9747, 512.8350
152.4568, 524.0307
152.9389, 539.2462
153.4210, 555.2222
153.9032, 567.6193
154.3853, 580.1644
154.8674, 585.5264
155.3495, 581.5466
155.8316, 567.7994
156.3137, 546.0573
156.7959, 512.1700
157.2780, 470.9329
157.7601, 431.5128
158.2422, 392.7330
158.7243, 358.0380
159.2065, 328.5888
159.6886, 304.7577
160.1707, 285.5544
160.6528, 271.7168
161.1349, 262.3143
161.6170, 254.9777
162.0992, 249.7303
162.5813, 245.6851
163.0634, 242.2663
163.5455, 239.3290
164.0276, 236.9900
164.5097, 235.4238
164.9919, 234.5316
165.4740, 233.9465
165.9561, 233.7490
166.4382, 233.6600
166.9203, 233.3848
167.4024, 232.1592
167.8846, 231.4225
168.3667, 232.2591
168.8488, 234.4971
169.3309, 237.0515
169.8130, 239.5904
170.2952, 241.9863
170.7773, 244.0347
171.2594, 245.1762
171.7415, 246.3356
172.2236, 248.3994
172.7057, 251.3188
173.1879, 254.4360
173.6700, 256.3111
174.1521, 258.1517
174.6342, 261.9876
175.1163, 270.0369
175.5984, 279.7946
176.0806, 288.0699
176.5627, 294.8838
177.0448, 301.8039
177.5269, 310.5072
178.0090, 320.3604
178.4911, 330.1144
178.9733, 339.1475
179.4554, 347.6660
179.9375, 356.0067
180.4196, 364.0730
180.9017, 372.2416
181.3838, 380.9842
181.8660, 390.1197
182.3481, 399.3391
182.8302, 408.1654
183.3123, 416.9449
183.7944, 426.6260
184.2766, 437.4671
184.7587, 448.4507
185.2408, 459.1966
185.7229, 469.4168
186.2050, 477.9069
186.6871, 484.3990
187.1693, 488.7451
187.6514, 489.6197
188.1335, 486.5701
188.6156, 481.5347
189.0977, 476.4494
189.5798, 471.3956
190.0620, 467.6210
190.5441, 465.3799
191.0262, 464.8000
191.5083, 466.8458
191.9904, 471.8746
192.4725, 478.8486
192.9547, 486.4420
193.4368, 494.7466
193.9189, 502.8658
194.4010, 511.0523
194.8831, 519.1497
195.3652, 525.0161
195.8474, 529.2487
196.3295, 530.0675
196.8116, 524.4967
197.2937, 512.7193
197.7758, 493.7528
198.2579, 465.3441
198.7401, 427.3089
199.2222, 387.9648
199.7043, 346.9738
200.1864, 306.6975
200.6685, 272.3133
201.1507, 244.3275
201.6328, 220.7399
202.1149, 200.8292
202.5970, 184.7471
203.0791, 170.6766
203.5612, 158.6494
204.0434, 148.5455
204.5255, 140.4465
205.0076, 134.6277
205.4897, 129.8517
205.9718, 125.4371
206.4539, 121.3713
206.9361, 117.7461
207.4182, 114.5838
207.9003, 111.8673
208.3824, 109.4625
208.8645, 107.3786
209.3466, 105.5673
209.8288, 103.9526
210.3109, 102.4901
210.7930, 101.4711
211.2751, 101.1346
211.7572, 101.2083
212.2393, 100.5691
212.7215, 98.91035
213.2036, 97.22647
213.6857, 96.16625
214.1678, 95.87676
214.6499, 95.70479
215.1320, 95.58746
215.6142, 95.54269
216.0963, 95.69844
216.5784, 96.19340
217.0605, 96.62440
217.5426, 96.74535
218.0247, 96.53596
218.5069, 96.02010
218.9890, 94.91877
219.4711, 93.50081
219.9532, 93.09908
220.4353, 94.12074
220.9175, 95.48145
221.3996, 96.52528
221.8817, 97.12886
222.3638, 97.70271
222.8459, 98.21034
223.3280, 98.71190
223.8102, 99.49863
224.2923, 100.7534
224.7744, 102.0317
225.2565, 103.0282
225.7386, 103.6049
226.2207, 104.2448
226.7029, 105.0956
227.1850, 106.0584
227.6671, 106.5506
228.1492, 106.3535
228.6313, 105.9969
229.1134, 105.8040
229.5956, 105.8640
230.0777, 105.8907
230.5598, 105.8919
231.0419, 105.8487
231.5240, 105.6155
232.0062, 104.9321
232.4883, 104.4142
232.9704, 104.4665
233.4525, 105.3530
233.9346, 106.2437
234.4167, 107.1652
234.8989, 108.0543
235.3810, 108.5568
235.8631, 108.3440
236.3452, 108.1831
236.8273, 108.5187
237.3094, 109.5112
237.7916, 110.6627
238.2737, 112.0845
238.7558, 113.6558
239.2379, 114.9099
239.7200, 115.8469
240.2021, 116.4657
240.6843, 116.7819
241.1664, 116.8358
241.6485, 116.4755
242.1306, 115.5228
242.6127, 114.1521
243.0948, 113.0701
243.5770, 112.4348
244.0591, 111.8705
244.5412, 111.1867
245.0233, 110.2909
245.5054, 109.4676
245.9876, 108.6644
246.4697, 107.9521
246.9518, 107.5461
247.4339, 107.5425
247.9160, 107.7011
248.3981, 107.8718
248.8803, 107.8830
249.3624, 108.3373
249.8445, 109.4174
250.3266, 110.9002
250.8087, 112.1631
251.2908, 113.0301
251.7730, 113.9394
252.2551, 115.0884
252.7372, 116.5895
253.2193, 118.0748
253.7014, 119.5933
254.1835, 121.0623
254.6657, 122.2915
255.1478, 123.3092
255.6299, 124.0377
256.1120, 124.3580
256.5941, 124.0091
257.0763, 124.1277
257.5584, 124.9621
258.0405, 126.1114
258.5226, 126.7723
259.0047, 126.8651
259.4868, 126.6489
259.9690, 126.1946
260.4511, 125.4754
260.9332, 124.6012
261.4153, 123.4055
261.8974, 122.1894
262.3795, 121.5363
262.8617, 121.6765
263.3438, 121.8044
263.8259, 121.5617
264.3080, 120.8335
264.7901, 120.6142
265.2722, 121.0880
265.7544, 121.8494
266.2365, 122.2557
266.7186, 122.1301
267.2007, 122.1943
267.6828, 122.7538
268.1649, 123.8602
268.6471, 124.6515
269.1292, 125.0469
269.6113, 125.2795
270.0934, 125.6297
270.5755, 126.1194
271.0576, 126.6658
271.5398, 127.2953
272.0219, 128.0053
272.5040, 128.5384
272.9861, 128.9396
273.4682, 129.0602
273.9503, 128.6553
274.4325, 127.6331
274.9146, 126.6004
275.3967, 125.7003
275.8788, 124.9089
276.3610, 124.1302
276.8431, 123.4027
277.3252, 122.5959
277.8073, 121.4368
278.2894, 119.8542
278.7715, 118.8037
279.2537, 118.6839
279.7358, 119.1891
280.2179, 118.9723
280.7000, 117.9256
281.1821, 116.6398
281.6642, 115.5949
282.1464, 114.7931
282.6285, 113.8523
283.1106, 112.6906
283.5927, 111.3674
284.0748, 110.0039
284.5569, 108.5826
285.0391, 107.2254
285.5212, 106.0450
286.0033, 105.0215
286.4854, 103.9467
286.9675, 102.8057
287.4496, 101.5806
287.9318, 100.1429
288.4139, 98.47594
288.8960, 96.96373
289.3781, 95.82594
289.8602, 95.02154
290.3423, 94.37038
290.8245, 93.88892
291.3066, 93.47623
291.7887, 92.87270
292.2708, 92.11975
292.7529, 91.63433
293.2350, 91.88284
293.7172, 92.59556
294.1993, 92.82352
294.6814, 92.42463
295.1635, 92.01280
295.6456, 92.37601
296.1277, 93.40324
296.6099, 94.63570
297.0920, 95.86954
297.5741, 97.14367
298.0562, 98.49787
298.5383, 99.91553
299.0204, 101.4743
299.5026, 103.3191
299.9847, 105.3622
300.4668, 107.4393
300.9489, 109.5320
301.4311, 111.5632
301.9132, 113.2327
302.3953, 114.5754
302.8774, 116.0824
303.3595, 118.5034
303.8416, 121.3239
304.3238, 123.6670
304.8059, 124.8175
305.2880, 125.7429
305.7701, 127.4101
306.2522, 129.7503
306.7343, 132.2456
307.2165, 134.6568
307.6986, 137.0158
308.1807, 139.3398
308.6628, 141.5664
309.1449, 143.9201
309.6270, 146.6123
310.1092, 149.6167
310.5913, 152.7694
311.0734, 156.0294
311.5555, 159.3807
312.0376, 162.8298
312.5197, 166.5097
313.0019, 169.9385
313.4840, 172.7564
313.9661, 175.1763
314.4482, 177.6602
314.9303, 180.8138
315.4124, 183.8070
315.8946, 186.2571
316.3767, 188.2317
316.8588, 189.1301
317.3409, 188.6247
317.8230, 186.9437
318.3051, 184.3989
318.7873, 181.0795
319.2694, 176.8932
319.7515, 171.5407
320.2336, 164.9359
320.7157, 158.3147
321.1978, 151.8958
321.6800, 145.7291
322.1621, 139.8858
322.6442, 134.1641
323.1263, 128.9863
323.6084, 124.5582
324.0905, 120.8486
324.5727, 117.3471
325.0548, 113.8484
325.5369, 110.6581
326.0190, 107.9714
326.5012, 106.0915
326.9833, 104.3725
327.4654, 102.7367
327.9475, 101.2238
328.4296, 100.0184
328.9117, 99.34724
329.3939, 98.78479
329.8760, 98.12711
330.3581, 97.07864
330.8402, 96.49200
331.3223, 96.64954
331.8044, 97.18458
332.2866, 97.33878
332.7687, 96.85348
333.2508, 96.35796
333.7329, 96.04205
334.2150, 95.93157
334.6971, 95.85052
335.1793, 95.70741
335.6614, 95.68102
336.1435, 96.07307
336.6256, 97.11205
337.1077, 97.97009
337.5898, 98.35981
338.0720, 98.32097
338.5541, 98.57638
339.0362, 99.29385
339.5183, 99.94449
340.0004, 99.86202
340.4825, 98.87002
340.9647, 98.44862
341.4468, 99.02634
341.9289, 100.2484
342.4110, 100.9156
342.8931, 100.9433
343.3752, 100.9286
343.8574, 101.2374
344.3395, 101.8633
344.8216, 102.7123
345.3037, 103.8129
345.7858, 105.0506
346.2679, 106.3063
346.7501, 107.5770
347.2322, 108.6567
347.7143, 109.2265
348.1964, 109.5103
348.6785, 110.3050
349.1607, 111.7076
349.6428, 113.2813
350.1249, 114.7646
350.6070, 116.0682
351.0891, 116.9167
351.5713, 116.6762
352.0534, 116.1592
352.5355, 116.6393
353.0176, 118.0888
353.4997, 119.8634
353.9818, 121.6317
354.4640, 123.3503
354.9461, 124.9604
355.4282, 126.3279
355.9103, 127.7119
356.3924, 129.1969
356.8745, 130.8553
357.3567, 132.9275
357.8388, 135.6383
358.3209, 138.7775
358.8030, 142.3250
359.2851, 146.5014
359.7672, 150.3939
360.2494, 152.8716
360.7315, 154.7874
361.2136, 157.6691
361.6957, 162.8643
362.1778, 168.5624
362.6599, 173.9060
363.1421, 178.7849
363.6242, 183.5923
364.1063, 187.8862
364.5884, 192.4112
365.0705, 197.8918
365.5526, 205.0438
366.0348, 212.5366
366.5169, 220.1541
366.9990, 227.8822
367.4811, 235.6445
367.9632, 243.4020
368.4453, 251.2392
368.9275, 259.1557
369.4096, 266.7805
369.8917, 274.9379
370.3738, 283.9077
370.8559, 293.4466
371.3380, 302.6724
371.8202, 311.2984
372.3023, 320.1325
372.7844, 329.5197
373.2665, 339.6587
373.7487, 349.3268
374.2308, 358.2861
374.7129, 367.0157
375.1950, 376.2631
375.6771, 386.0820
376.1592, 396.3643
376.6414, 407.3055
377.1235, 418.7992
377.6056, 430.2598
378.0877, 441.8792
378.5698, 453.1675
379.0519, 463.8568
379.5341, 473.8596
380.0162, 483.5908
380.4983, 493.0937
380.9804, 502.3106
381.4625, 510.9023
381.9446, 518.9704
382.4268, 525.8729
382.9089, 531.9216
383.3910, 536.5875
383.8731, 538.1450
384.3552, 536.2674
384.8373, 532.0942
385.3195, 526.8206
385.8016, 520.3534
386.2837, 512.2712
386.7658, 502.4923
387.2479, 491.0569
387.7300, 477.3435
388.2122, 461.4804
388.6943, 445.1249
389.1764, 429.2370
389.6585, 413.7687
390.1406, 399.0371
390.6227, 385.5110
391.1049, 372.1854
391.5870, 357.9469
392.0691, 343.3829
392.5512, 330.2651
393.0333, 320.1483
393.5154, 311.2206
393.9976, 302.2235
394.4797, 292.6696
394.9618, 284.1398
395.4439, 277.4460
395.9260, 271.9790
396.4081, 266.9497
396.8903, 262.0027
397.3724, 257.5958
397.8545, 253.8210
398.3366, 250.6860
398.8188, 248.0670
399.3009, 246.0405
399.7830, 244.4757
400.2651, 243.2811
400.7472, 242.2099
401.2293, 241.8916
401.7115, 242.5193
402.1936, 243.8996
402.6757, 245.5431
403.1578, 247.8144
403.6399, 249.7146
404.1220, 250.5730
404.6042, 250.0353
405.0863, 250.5579
405.5684, 252.2508
406.0505, 254.8094
406.5326, 257.9992
407.0147, 261.9194
407.4969, 265.7855
407.9790, 269.2712
408.4611, 272.5949
408.9432, 276.7248
409.4253, 281.6923
409.9074, 286.9547
410.3896, 292.1995
410.8717, 297.4323
411.3538, 302.6718
411.8359, 307.8407
412.3180, 313.0807
412.8001, 318.7306
413.2823, 324.5934
413.7644, 330.3023
414.2465, 335.2578
414.7286, 340.0854
415.2107, 345.7735
415.6928, 352.3296
416.1750, 359.2304
416.6571, 366.3540
417.1392, 373.4429
417.6213, 380.3976
418.1034, 387.0815
418.5855, 393.6302
419.0677, 400.1507
419.5498, 406.6083
420.0319, 412.6122
420.5140, 418.6155
420.9961, 423.7665
421.4782, 427.7095
421.9604, 430.6867
422.4425, 431.6553
422.9246, 429.8756
423.4067, 426.0925
423.8889, 421.2861
424.3710, 416.1059
424.8531, 409.3327
425.3352, 400.5089
425.8173, 389.6542
426.2994, 378.4103
426.7816, 366.7075
427.2637, 354.7793
427.7458, 342.7297
428.2279, 330.0861
428.7100, 318.0746
429.1921, 306.7392
429.6743, 296.1849
430.1564, 287.2758
430.6385, 280.3745
431.1206, 273.6954
431.6027, 266.1289
432.0848, 257.7306
432.5670, 251.5150
433.0491, 247.6831
433.5312, 245.1536
434.0133, 242.7740
434.4954, 240.6199
434.9775, 239.2354
435.4597, 238.8699
435.9418, 239.1962
436.4239, 239.6353
436.9060, 240.2294
437.3881, 241.2711
437.8702, 243.0566
438.3524, 245.3622
438.8345, 247.8093
439.3166, 250.3121
439.7987, 253.2592
440.2808, 257.3477
440.7629, 262.0248
441.2451, 266.3861
441.7272, 269.5494
442.2093, 272.7649
442.6914, 276.9464
443.1735, 281.9111
443.6556, 286.4129
444.1378, 289.6174
444.6199, 292.4908
445.1020, 295.6954
445.5841, 299.9106
446.0662, 303.3115
446.5483, 305.6194
447.0305, 306.9810
447.5126, 307.6387
447.9947, 307.8251
448.4768, 307.0428
448.9590, 304.8943
449.4411, 301.3515
449.9232, 298.2104
450.4053, 295.7856
450.8874, 293.2541
451.3695, 289.9755
451.8517, 285.7480
452.3338, 281.5608
452.8159, 277.5299
453.2980, 273.5995
453.7801, 269.6025
454.2622, 265.5710
454.7444, 261.4679
455.2265, 257.0211
455.7086, 252.4653
456.1907, 249.0235
456.6728, 246.6873
457.1549, 245.1028
457.6371, 244.0658
458.1192, 243.4810
458.6013, 243.0367
459.0834, 242.5095
459.5655, 242.3847
460.0476, 243.2161
460.5298, 244.8996
461.0119, 247.0673
461.4940, 249.3840
461.9761, 252.2475
462.4582, 256.1437
462.9403, 261.2068
463.4225, 266.3576
463.9046, 271.0871
464.3867, 275.7150
464.8688, 280.4290
465.3509, 284.6656
465.8330, 289.7269
466.3152, 296.4463
466.7973, 304.2981
467.2794, 311.3542
467.7615, 317.3826
468.2436, 322.8060
468.7257, 327.7160
469.2079, 331.9572
469.6900, 336.1427
470.1721, 340.3155
470.6542, 344.3449
471.1363, 348.1720
471.6184, 351.9100
472.1006, 354.9406
472.5827, 356.9768
473.0648, 358.3463
473.5469, 359.9951
474.0291, 361.9314
474.5112, 364.0637
474.9933, 366.4856
475.4754, 369.0924
475.9575, 371.4200
476.4396, 373.4425
476.9218, 375.2769
477.4039, 376.7032
477.8860, 378.0226
478.3681, 380.0170
478.8502, 383.5650
479.3323, 387.1038
479.8145, 389.6139
480.2966, 390.9438
480.7787, 390.5098
481.2608, 387.7152
481.7429, 383.2918
482.2250, 377.8190
482.7072, 371.4613
483.1893, 363.4674
483.6714, 352.5735
484.1535, 340.3382
484.6356, 328.3459
485.1177, 316.7287
485.5999, 305.4079
486.0820, 294.0577
486.5641, 282.9823
487.0462, 273.0663
487.5283, 264.8475
488.0104, 257.0498
488.4926, 248.8555
488.9747, 239.9970
489.4568, 232.9770
489.9389, 228.1629
490.4210, 224.6297
490.9031, 221.5368
491.3853, 218.8673
491.8674, 216.6295
492.3495, 214.8679
492.8316, 213.5113
493.3137, 212.4113
493.7958, 211.5651
494.2780, 211.0259
494.7601, 210.9274
495.2422, 211.1334
495.7243, 211.2656
496.2064, 211.2903
496.6885, 211.7726
497.1707, 213.6240
497.6528, 216.0799
498.1349, 218.0895
498.6170, 219.2117
499.0992, 220.0593
499.5813, 220.8612
500.0634, 221.6467
500.5455, 222.4963
501.0276, 223.8706
501.5097, 224.9229
501.9919, 225.3520
502.4740, 225.1223
502.9561, 224.3220
503.4382, 222.4402
503.9203, 220.3540
504.4024, 218.6954
504.8846, 217.9714
505.3667, 216.6739
505.8488, 214.6472
506.3309, 212.0546
506.8130, 209.2595
507.2951, 206.3163
507.7773, 202.9691
508.2594, 199.0002
508.7415, 194.5657
509.2236, 190.3597
509.7057, 186.3956
510.1878, 182.5099
510.6700, 178.5524
511.1521, 174.5401
511.6342, 170.3965
512.1163, 166.0745
512.5984, 161.8996
513.0806, 158.3238
513.5627, 155.1602
514.0448, 152.0188
514.5269, 148.7046
515.0090, 145.3723
515.4911, 141.9617
515.9733, 138.5317
516.4554, 135.5668
516.9375, 133.6853
517.4196, 131.9732
517.9017, 129.9072
518.3839, 127.3699
518.8660, 124.6003
519.3481, 121.3002
519.8302, 117.9398
520.3123, 115.0912
520.7944, 112.9686
521.2766, 110.9525
521.7587, 109.0413
522.2408, 107.1668
522.7229, 104.8980
523.2050, 102.0925
523.6871, 99.42678
524.1693, 97.26363
524.6514, 95.60584
525.1335, 94.12077
525.6156, 92.85274
526.0977, 91.43059
526.5798, 89.28996
527.0620, 86.65076
527.5441, 84.19498
528.0262, 82.09142
528.5083, 80.20914
528.9904, 78.46239
529.4725, 76.84991
529.9547, 75.38419
530.4368, 74.21103
530.9189, 73.08781
531.4010, 71.93303
531.8831, 70.72055
532.3652, 69.33083
532.8474, 67.14877
533.3295, 65.14955
533.8116, 63.99709
534.2937, 64.76149
534.7758, 64.67802
535.2579, 63.19384
535.7401, 61.07494
536.2222, 59.44545
536.7043, 58.37166
537.1864, 57.60142
537.6685, 57.21452
538.1506, 57.07258
538.6328, 56.44342
539.1149, 55.22059
539.5970, 54.14305
540.0791, 53.91444
540.5612, 54.27501
541.0433, 53.93676
541.5255, 52.80291
542.0076, 51.46966
542.4897, 50.27760
542.9718, 49.33511
543.4539, 48.91220
543.9360, 49.37308
544.4182, 49.86840
544.9003, 49.64354
545.3824, 48.94833
545.8645, 48.33879
546.3466, 48.26630
546.8287, 48.12570
547.3109, 47.49439
547.7930, 46.35114
548.2751, 45.58067
548.7572, 45.67286
549.2393, 45.89738
549.7214, 45.85290
550.2036, 45.36045
550.6857, 45.01377
551.1678, 44.88236
551.6499, 44.82605
552.1320, 44.63941
552.6141, 44.29718
553.0963, 43.97463
553.5784, 43.67348
554.0605, 43.45171
554.5426, 43.57289
555.0247, 44.01196
555.5068, 44.31224
555.9890, 44.04668
556.4711, 43.50995
556.9532, 43.24350
557.4353, 43.26734
557.9174, 43.32788
558.3995, 43.27787
558.8817, 43.14245
559.3638, 42.95922
559.8459, 42.78866
560.3281, 42.46663
560.8102, 41.60836
561.2923, 40.62897
561.7744, 40.18894
562.2565, 41.01159
562.7386, 41.72457
563.2208, 42.07333
563.7029, 42.08101
564.1850, 41.87516
564.6671, 41.26542
565.1492, 40.78465
565.6313, 40.73304
566.1135, 41.14513
566.5956, 41.53016
567.0777, 41.88729
567.5598, 42.21116
568.0419, 42.58498
568.5240, 42.95073
569.0062, 42.94051
569.4883, 42.32174
569.9704, 41.69200
570.4525, 41.97284
570.9346, 42.86699
571.4167, 43.59248
571.8989, 43.46326
572.3810, 43.32356
572.8631, 43.83961
573.3452, 44.92487
573.8273, 45.97344
574.3094, 46.58101
574.7916, 47.22236
575.2737, 48.15980
575.7558, 49.48000
576.2379, 50.88172
576.7200, 52.17341
577.2021, 53.67265
577.6843, 55.63953
578.1664, 57.99744
578.6485, 61.09436
579.1306, 65.25118
579.6127, 69.89211
580.0948, 73.94240
580.5770, 77.38503
581.0591, 80.85453
581.5412, 84.69356
582.0233, 88.63314
582.5054, 92.14951
582.9875, 95.20842
583.4697, 97.90205
583.9518, 99.63793
584.4339, 101.3421
584.9160, 104.0976
585.3981, 108.0956
585.8802, 112.4262
586.3624, 116.5679
586.8445, 120.8597
587.3266, 125.6130
587.8087, 130.8869
588.2908, 136.6304
588.7729, 143.0000
589.2551, 149.8001
589.7372, 156.7067
590.2193, 163.5828
590.7014, 170.8828
591.1835, 178.7447
591.6656, 187.0801
592.1478, 195.5679
592.6299, 204.2760
593.1120, 212.0815
593.5941, 218.9636
594.0762, 224.4344
594.5583, 227.1109
595.0405, 226.9778
595.5226, 222.8857
596.0047, 212.4223
596.4868, 197.8221
596.9689, 181.7038
597.4510, 163.6873
597.9332, 146.7979
598.4153, 132.3038
598.8974, 120.2555
599.3795, 110.2286
599.8616, 102.5645
600.3438, 96.42695
600.8259, 91.93539
601.3080, 88.89295
601.7901, 86.85252
602.2722, 86.38308
602.7543, 85.97789
603.2365, 84.91079
603.7186, 83.21597
604.2007, 82.54845
604.6828, 83.02486
605.1649, 83.98549
605.6470, 84.81577
606.1292, 85.64753
606.6113, 87.28092
607.0934, 89.91039
607.5755, 92.51240
608.0576, 94.07375
608.5398, 94.85177
609.0219, 95.23312
609.5040, 95.22133
609.9861, 95.02771
610.4683, 94.48310
610.9504, 93.86061
611.4325, 93.74323
611.9146, 94.66884
612.3967, 95.72754
612.8788, 96.70215
613.3610, 97.58837
613.8431, 98.39891
614.3252, 98.87878
614.8073, 99.71114
615.2894, 101.4142
615.7715, 104.0501
616.2537, 106.2155
616.7358, 107.8335
617.2179, 109.3131
617.7000, 111.1213
618.1821, 113.1294
618.6642, 114.8214
619.1464, 116.0946
619.6285, 117.1881
620.1106, 118.5450
620.5927, 119.8607
621.0748, 120.6100
621.5569, 120.3890
622.0391, 119.7717
622.5212, 118.9567
623.0033, 117.9423
623.4854, 116.7182
623.9675, 115.5671
624.4496, 113.8899
624.9318, 111.3661
625.4139, 108.0175
625.8960, 104.9418
626.3781, 102.2803
626.8602, 99.63725
627.3423, 96.68493
627.8245, 93.44136
628.3066, 90.58089
628.7887, 88.14504
629.2708, 85.92347
629.7529, 83.63420
630.2350, 81.40559
630.7172, 79.54299
631.1993, 78.24715
631.6814, 76.95445
632.1635, 75.10258
632.6456, 72.97551
633.1277, 70.99552
633.6099, 69.26385
634.0920, 67.74837
634.5741, 66.50349
635.0562, 65.48037
635.5383, 64.44180
636.0204, 63.41185
636.5026, 62.31733
636.9847, 61.05558
637.4668, 59.66265
637.9489, 58.69517
638.4310, 58.24299
638.9131, 57.77837
639.3953, 56.87835
639.8774, 55.64131
640.3595, 54.56154
640.8416, 53.66600
641.3237, 52.76220
641.8058, 51.62005
642.2880, 50.38969
642.7701, 49.33847
643.2522, 48.59695
643.7343, 47.80918
644.2164, 46.53833
644.6985, 45.18407
645.1807, 44.28984
645.6628, 44.59549
646.1449, 44.59403
646.6270, 43.91498
647.1091, 42.83503
647.5912, 42.04712
648.0734, 41.54943
648.5555, 41.34753
649.0376, 41.53335
649.5197, 42.00090
650.0018, 42.40704
650.4839, 42.75480
650.9661, 42.64222
651.4482, 41.52567
651.9303, 39.87643
652.4124, 38.38442
652.8945, 37.09083
653.3766, 36.18336
653.8588, 36.18922
654.3409, 36.39009
654.8230, 36.10175
655.3051, 34.93174
655.7872, 34.08435
656.2693, 34.20240
656.7515, 34.54917
657.2336, 34.40363
657.7158, 33.49810
658.1979, 32.65108
658.6800, 31.83927
659.1621, 31.20497
659.6442, 31.09174
660.1263, 31.50506
660.6085, 31.89564
661.0906, 32.12652
661.5727, 32.19986
662.0548, 32.07269
662.5369, 31.78160
663.0190, 31.46638
663.5012, 31.20136
663.9833, 30.94240
664.4654, 30.61736
664.9475, 30.24775
665.4296, 29.98044
665.9117, 29.94364
666.3939, 29.95364
666.8760, 29.92240
667.3581, 29.84072
667.8402, 29.76469
668.3223, 29.67322
668.8044, 29.62004
669.2866, 29.70683
669.7687, 29.94963
670.2508, 29.89593
670.7329, 29.46968
671.2150, 28.97339
671.6971, 28.76204
672.1793, 28.74500
672.6614, 28.68679
673.1435, 28.51275
673.6256, 28.33439
674.1077, 28.18450
674.5898, 28.10055
675.0720, 28.14149
675.5541, 28.46426
676.0362, 28.75889
676.5183, 28.93332
677.0004, 29.01686
677.4825, 29.10527
677.9647, 29.26105
678.4468, 29.30246
678.9289, 29.18205
679.4110, 28.90887
679.8931, 28.40335
680.3752, 27.63947
680.8574, 27.12553
681.3395, 27.34723
681.8216, 27.96968
682.3037, 28.25657
682.7858, 28.22713
683.2679, 28.21287
683.7501, 28.64185
684.2322, 29.04602
684.7143, 28.95740
685.1964, 28.22093
685.6785, 27.62535
686.1606, 27.39965
686.6428, 27.37962
687.1249, 27.45381
687.6070, 27.70325
688.0891, 27.85083
688.5712, 27.85657
689.0533, 27.82525
689.5355, 27.91116
690.0176, 28.10681
690.4997, 28.18866
690.9818, 28.07743
691.4639, 27.95197
691.9460, 28.12386
692.4282, 28.46415
692.9103, 28.68083
693.3924, 28.50865
693.8745, 28.36450
694.3566, 28.54910
694.8387, 28.94091
695.3209, 29.25452
695.8030, 29.44437
696.2851, 29.51406
696.7672, 29.35261
697.2493, 29.05424
697.7314, 29.16060
698.2136, 29.79738
698.6957, 30.42309
699.1778, 30.77071
699.6599, 30.91864
700.1420, 31.27483
700.6241, 31.82344
701.1063, 32.22279
701.5884, 32.00721
702.0705, 31.62701
702.5526, 31.67441
703.0347, 32.19043
703.5168, 32.75137
703.9990, 33.22216
704.4811, 33.60646
704.9632, 33.88086
705.4453, 33.97711
705.9274, 34.16106
706.4095, 34.47728
706.8917, 34.83222
707.3738, 35.12923
707.8560, 35.34523
708.3381, 35.67481
708.8202, 36.13913
709.3023, 36.69474
709.7844, 37.30386
710.2665, 37.95805
710.7487, 38.64520
711.2308, 39.34132
711.7129, 40.10884
712.1950, 41.06869
712.6771, 42.11925
713.1592, 43.11075
713.6414, 43.79758
714.1235, 44.64178
714.6056, 45.95734
715.0877, 47.45535
715.5698, 48.49685
716.0519, 48.87031
716.5341, 49.33034
717.0162, 50.04073
717.4983, 50.96569
717.9804, 52.04683
718.4625, 53.27769
718.9446, 54.44375
719.4268, 55.47478
719.9089, 56.35798
720.3910, 56.98558
720.8731, 57.42385
721.3552, 57.98124
721.8373, 59.02665
722.3195, 60.03662
722.8016, 60.69168
723.2837, 60.96468
723.7658, 61.26778
724.2479, 61.59596
724.7300, 61.99338
725.2122, 62.58509
725.6943, 63.38118
726.1764, 63.55143
726.6585, 63.02828
727.1406, 62.31005
727.6227, 61.83659
728.1049, 61.44855
728.5870, 60.78174
729.0691, 59.80538
729.5512, 58.64753
730.0333, 57.12928
730.5154, 55.62324
730.9976, 54.57892
731.4797, 54.28333
731.9618, 53.75073
732.4439, 52.48616
732.9260, 51.15348
733.4081, 50.31187
733.8903, 50.24536
734.3724, 49.69427
734.8545, 48.51923
735.3366, 47.05888
735.8187, 45.65126
736.3008, 44.31543
736.7830, 43.12290
737.2651, 42.06551
737.7472, 41.22851
738.2293, 40.87960
738.7114, 40.76236
739.1935, 40.49805
739.6757, 39.89457
740.1578, 39.22043
740.6399, 38.45757
741.1220, 37.69664
741.6041, 37.07222
742.0862, 36.58638
742.5684, 36.26329
743.0505, 36.21356
743.5326, 36.21468
744.0147, 35.56767
744.4968, 34.35418
744.9789, 33.60190
745.4611, 33.91266
745.9432, 34.59890
746.4253, 34.86141
746.9074, 34.77757
747.3895, 34.54059
747.8716, 34.01513
748.3538, 33.57814
748.8359, 33.37427
749.3180, 33.39750
749.8001, 33.60572
750.2822, 34.25529
750.7643, 34.62386
751.2465, 34.40412
751.7286, 33.73678
752.2107, 33.24052
752.6928, 32.91005
753.1749, 32.84813
753.6570, 33.35373
754.1392, 34.05599
754.6213, 34.23663
755.1034, 33.99502
755.5855, 33.90076
756.0676, 34.55251
756.5498, 35.19406
757.0319, 35.33215
757.5140, 34.92239
757.9962, 34.60598
758.4783, 34.40067
758.9604, 34.31594
759.4425, 34.32408
759.9246, 34.42931
760.4067, 34.98507
760.8889, 36.06284
761.3710, 36.90290
761.8531, 36.68751
762.3352, 35.92512
762.8173, 35.51975
763.2994, 35.52061
763.7816, 35.80472
764.2637, 36.63997
764.7458, 37.48548
765.2279, 37.88771
765.7100, 37.69812
766.1921, 37.63435
766.6743, 37.86743
767.1564, 38.08012
767.6385, 38.01295
768.1206, 37.60537
768.6027, 37.51855
769.0848, 37.78952
769.5670, 38.17772
770.0491, 38.62090
770.5312, 38.98503
771.0133, 38.90884
771.4954, 38.30911
771.9775, 37.76309
772.4597, 37.70073
772.9418, 37.81178
773.4239, 37.82682
773.9060, 37.63708
774.3881, 37.53725
774.8702, 37.59367
775.3524, 37.67836
775.8345, 37.69362
776.3166, 37.63898
776.7987, 37.48848
777.2808, 37.21276
777.7629, 36.99168
778.2451, 37.19122
778.7272, 37.55224
779.2093, 37.51017
779.6914, 36.87765
780.1735, 36.20427
780.6556, 35.69881
781.1378, 35.38245
781.6199, 35.29479
782.1020, 35.75225
782.5841, 35.89733
783.0662, 35.56333
783.5483, 35.10145
784.0305, 34.93573
784.5126, 35.07884
784.9947, 35.09616
785.4768, 34.94995
785.9589, 34.61587
786.4410, 33.76849
786.9232, 32.78466
787.4053, 32.41538
787.8874, 33.09749
788.3695, 33.70444
788.8516, 33.64867
789.3337, 33.24678
789.8159, 32.83424
790.2980, 32.18108
790.7801, 32.05242
791.2622, 32.77279
791.7443, 33.62379
792.2264, 33.52053
792.7086, 32.52882
793.1907, 31.78013
793.6728, 31.45074
794.1549, 31.41633
794.6370, 31.74456
795.1191, 32.21052
795.6013, 32.45168
796.0834, 32.33634
796.5655, 32.05223
797.0476, 31.46338
797.5297, 30.83580
798.0118, 30.49284
798.4940, 30.53733
798.9761, 30.65499
799.4582, 30.89453
799.9403, 31.07717
800.4224, 30.90357
800.9045, 30.43169
801.3867, 29.97550
801.8688, 29.56285
802.3509, 29.31548
802.8330, 29.36609
803.3151, 29.65882
803.7972, 30.14130
804.2794, 31.09581
804.7615, 31.74465
805.2436, 31.67486
805.7258, 31.36414
806.2079, 31.36425
806.6900, 31.85487
807.1721, 31.90851
807.6542, 31.35348
808.1364, 30.55881
808.6185, 29.88909
809.1006, 29.38021
809.5827, 29.19107
810.0648, 29.44807
810.5469, 29.71717
811.0291, 29.71914
811.5112, 29.53381
811.9933, 29.24073
812.4754, 28.48928
812.9575, 28.24219
813.4396, 28.82431
813.9218, 29.63832
814.4039, 29.99858
814.8860, 29.88204
815.3681, 29.71871
815.8502, 29.54583
816.3323, 29.38063
816.8145, 29.09776
817.2966, 28.87609
817.7787, 29.11212
818.2608, 30.07414
818.7429, 30.89109
819.2250, 31.08311
819.7072, 30.96576
820.1893, 30.82534
820.6714, 30.58240
821.1535, 30.55002
821.6356, 30.80284
822.1177, 31.13284
822.5999, 31.37699
823.0820, 31.51656
823.5641, 31.35762
824.0462, 30.83990
824.5283, 30.34371
825.0104, 30.14509
825.4926, 30.20546
825.9747, 30.54495
826.4568, 31.29394
826.9389, 31.87967
827.4210, 32.01513
827.9031, 32.06809
828.3853, 32.30264
828.8674, 32.78550
829.3495, 33.11544
829.8316, 33.27623
830.3137, 33.33354
830.7958, 33.17910
831.2780, 33.00277
831.7601, 33.35817
832.2422, 34.32897
832.7243, 35.10201
833.2064, 34.87233
833.6885, 34.44446
834.1707, 34.49022
834.6528, 35.27940
835.1349, 35.67720
835.6170, 35.50447
836.0991, 35.24455
836.5812, 35.18660
837.0634, 35.32393
837.5455, 35.59393
838.0276, 36.00127
838.5097, 36.39913
838.9918, 36.71124
839.4739, 36.93716
839.9561, 37.02676
840.4382, 36.98362
840.9203, 37.02577
841.4024, 37.28922
841.8845, 37.59364
842.3666, 37.85063
842.8488, 38.06239
843.3309, 38.39664
843.8130, 38.90388
844.2951, 39.25197
844.7772, 39.07769
845.2593, 38.65760
845.7415, 38.62468
846.2236, 38.93913
846.7057, 39.39314
847.1878, 40.11590
847.6699, 40.71962
848.1520, 40.88308
848.6342, 40.66579
849.1163, 40.67582
849.5984, 41.11251
850.0805, 41.39311
850.5626, 41.24730
851.0447, 40.85095
851.5269, 40.79021
852.0090, 41.03672
852.4911, 41.36187
852.9732, 41.69673
853.4553, 42.01551
853.9374, 42.24971
854.4196, 42.45182
854.9017, 42.75300
855.3839, 43.33666
855.8660, 43.83655
856.3481, 44.15094
856.8302, 44.35620
857.3123, 44.61677
857.7944, 44.93728
858.2766, 45.29207
858.7587, 45.69969
859.2408, 46.09195
859.7229, 46.24697
860.2050, 46.32750
860.6871, 46.69001
861.1693, 47.79197
861.6514, 48.65424
862.1335, 48.65609
862.6156, 48.31948
863.0977, 48.34655
863.5798, 48.84209
864.0620, 49.43737
864.5441, 50.17192
865.0262, 50.84632
865.5083, 51.14694
865.9904, 51.19148
866.4725, 51.37861
866.9547, 51.81380
867.4368, 52.19501
867.9189, 52.37655
868.4010, 52.36481
868.8831, 52.12052
869.3652, 51.40352
869.8474, 51.11911
870.3295, 51.55653
870.8116, 51.96533
871.2937, 51.64144
871.7758, 50.67023
872.2579, 50.11499
872.7401, 50.00429
873.2222, 49.87534
873.7043, 49.23573
874.1864, 48.47798
874.6685, 48.01754
875.1506, 47.88696
875.6328, 47.71322
876.1149, 47.32634
876.5970, 46.96690
877.0791, 46.71729
877.5612, 46.57345
878.0433, 46.54342
878.5255, 46.63572
879.0076, 46.62938
879.4897, 46.32551
879.9718, 45.89504
880.4539, 45.52787
880.9360, 45.23479
881.4182, 45.05267
881.9003, 45.01903
882.3824, 45.07727
882.8645, 45.30373
883.3466, 45.59116
883.8287, 45.60835
884.3109, 45.26709
884.7930, 45.16670
885.2751, 45.52906
885.7572, 46.08821
886.2393, 46.40188
886.7214, 46.55910
887.2036, 46.76315
887.6857, 47.00350
888.1678, 47.43601
888.6499, 48.38562
889.1320, 49.45078
889.6141, 50.06239
890.0963, 49.89649
890.5784, 50.19428
891.0605, 51.21407
891.5426, 52.26271
892.0247, 52.32619
892.5068, 51.78550
892.9890, 51.79940
893.4711, 52.56236
893.9532, 53.56339
894.4353, 54.67897
894.9174, 55.72181
895.3995, 56.47706
895.8817, 56.78170
896.3638, 57.50238
896.8459, 58.83974
897.3280, 60.16206
897.8101, 60.97636
898.2922, 61.40898
898.7744, 62.11192
899.2565, 63.07092
899.7386, 64.13359
900.2207, 65.55757
900.7028, 66.75495
901.1849, 66.97776
901.6671, 66.42147
902.1492, 66.67416
902.6313, 68.53762
903.1134, 70.06132
903.5955, 70.65237
904.0776, 70.63456
904.5598, 70.94731
905.0419, 71.53849
905.5240, 71.98843
906.0062, 72.07158
906.4883, 72.07005
906.9704, 72.33821
907.4525, 72.66610
907.9346, 72.71591
908.4167, 72.17155
908.8989, 71.66800
909.3810, 71.32977
909.8631, 70.95315
910.3452, 70.23962
910.8273, 69.21196
911.3094, 68.18077
911.7916, 67.16489
912.2737, 66.29909
912.7558, 65.91470
913.2379, 65.62917
913.7200, 64.99960
914.2021, 63.89519
914.6843, 62.80766
915.1664, 61.70263
915.6485, 60.77126
916.1306, 60.21371
916.6127, 59.98982
917.0948, 59.29929
917.5770, 58.14209
918.0591, 57.11592
918.5412, 56.60730
919.0233, 56.41047
919.5054, 56.38585
919.9875, 56.49843
920.4697, 56.62774
920.9518, 57.17382
921.4339, 57.13894
921.9160, 56.02790
922.3981, 54.36866
922.8802, 53.47371
923.3624, 53.33500
923.8445, 53.53651
924.3266, 54.10211
924.8087, 54.61937
925.2908, 54.54005
925.7729, 54.15422
926.2551, 53.88897
926.7372, 53.91548
927.2193, 53.96769
927.7014, 54.09642
928.1835, 54.15157
928.6656, 53.89719
929.1478, 53.33465
929.6299, 53.20387
930.1120, 53.56023
930.5941, 54.02077
931.0762, 54.31388
931.5583, 54.50163
932.0405, 54.62116
932.5226, 54.67619
933.0047, 54.79538
933.4868, 55.11373
933.9689, 55.35946
934.4510, 55.37151
934.9332, 55.23614
935.4153, 55.42567
935.8974, 55.92810
936.3795, 56.46385
936.8616, 56.91350
937.3438, 57.32545
937.8259, 57.71300
938.3080, 58.10566
938.7901, 58.55358
939.2722, 59.17881
939.7543, 59.70506
940.2365, 60.00868
940.7186, 60.30488
941.2007, 60.93370
941.6828, 61.86216
942.1649, 62.60278
942.6470, 63.04048
943.1292, 63.74563
943.6113, 65.58624
944.0934, 67.72939
944.5755, 69.30460
945.0576, 70.02901
945.5397, 71.13863
946.0219, 72.87500
946.5040, 74.73941
946.9861, 76.36800
947.4682, 77.90932
947.9503, 80.17398
948.4324, 83.11253
948.9146, 86.24340
949.3967, 89.14491
949.8788, 92.26322
950.3609, 95.89023
950.8430, 100.0134
951.3251, 104.5014
951.8073, 109.0506
952.2894, 114.5090
952.7715, 121.0267
953.2536, 128.4634
953.7357, 136.5132
954.2179, 145.2686
954.7000, 155.0000
955.1821, 165.5375
955.6642, 177.7447
956.1464, 191.9494
956.6285, 208.2451
957.1106, 227.0865
957.5927, 248.7693
958.0748, 271.6751
958.5569, 296.0254
959.0391, 321.2672
959.5212, 346.9699
960.0033, 373.3216
960.4854, 400.5861
960.9675, 428.8602
961.4496, 457.8562
961.9318, 487.8262
962.4139, 518.5437
962.8960, 549.5035
963.3781, 580.8972
963.8602, 613.5050
964.3423, 646.7653
964.8245, 682.4542
965.3066, 721.1857
965.7887, 762.1647
966.2708, 804.6303
966.7529, 848.7429
967.2350, 894.2982
967.7172, 942.6149
968.1993, 989.0228
968.6814, 1034.183
969.1635, 1075.136
969.6456, 1111.906
970.1277, 1144.998
970.6099, 1164.648
971.0920, 1170.739
971.5741, 1164.609
972.0562, 1145.419
972.5383, 1115.665
973.0204, 1075.921
973.5026, 1027.718
973.9847, 976.4081
974.4668, 919.5956
974.9489, 865.2080
975.4310, 814.2023
975.9131, 766.5258
976.3953, 721.4521
976.8774, 678.7626
977.3595, 640.6760
977.8416, 608.3679
978.3237, 579.3177
978.8058, 551.4973
979.2880, 525.3148
979.7701, 501.1821
980.2522, 479.5574
980.7343, 458.9853
981.2164, 439.0174
981.6985, 420.3453
982.1807, 403.3399
982.6628, 387.7820
983.1449, 372.7519
983.6270, 358.2674
984.1091, 344.4557
984.5912, 331.1321
985.0734, 318.7617
985.5555, 308.0321
986.0376, 298.3265
986.5197, 287.8754
987.0018, 276.3084
987.4839, 265.2248
987.9661, 254.8687
988.4482, 245.0421
988.9303, 235.7585
989.4124, 226.8444
989.8945, 218.0143
990.3766, 209.1892
990.8588, 200.6596
991.3409, 192.3204
991.8230, 184.5690
992.3051, 177.7763
992.7872, 171.9858
993.2693, 165.3414
993.7515, 157.8096
994.2336, 150.3370
994.7157, 143.2048
995.1978, 136.6158
995.6799, 130.9329
996.1620, 125.8588
996.6442, 120.7758
997.1263, 115.1894
997.6084, 110.0846
998.0905, 105.6169
998.5726, 101.5773
999.0547, 97.62148
999.5369, 93.77251
1000.019, 90.40150
1000.501, 87.58171
1000.983, 84.64107
1001.465, 80.62056
1001.947, 76.61340
1002.430, 73.56033
1002.912, 71.50858
1003.394, 69.50326
1003.876, 67.49971
1004.358, 65.62352
1004.840, 63.89729
1005.322, 62.30233
1005.804, 60.78849
1006.287, 59.35218
1006.769, 57.93868
1007.251, 56.44904
1007.733, 55.12566
1008.215, 54.09428
1008.697, 53.20718
1009.179, 52.33956
1009.661, 51.49705
1010.143, 50.68259
1010.626, 49.89474
1011.108, 49.00048
1011.590, 47.55580
1012.072, 46.18640
1012.554, 45.66859
1013.036, 45.91256
1013.518, 45.92559
1014.000, 45.48507
1014.483, 44.91244
1014.965, 44.23738
1015.447, 43.52727
1015.929, 42.89952
1016.411, 42.34397
1016.893, 41.80699
1017.375, 41.23687
1017.857, 40.80277
1018.339, 40.82740
1018.822, 40.87574
1019.304, 40.55152
1019.786, 39.81232
1020.268, 38.96354
1020.750, 37.94984
1021.232, 37.17836
1021.714, 37.05225
1022.196, 37.23752
1022.679, 37.35114
1023.161, 37.34701
1023.643, 37.08919
1024.125, 36.18628
1024.607, 35.49427
1025.089, 35.22134
1025.571, 35.13336
1026.053, 34.89354
1026.535, 34.53159
1027.018, 34.23706
1027.500, 34.03075
1027.982, 33.92524
1028.464, 34.22325
1028.946, 34.39412
1029.428, 33.87929
1029.910, 32.66363
1030.392, 31.82202
1030.875, 31.37372
1031.357, 31.23961
1031.839, 31.51190
1032.321, 31.89388
1032.803, 31.76594
1033.285, 31.35492
1033.767, 31.17569
1034.249, 31.68318
1034.731, 31.82532
1035.214, 30.94434
1035.696, 30.00422
1036.178, 29.78406
1036.660, 30.27564
1037.142, 30.48239
1037.624, 30.40231
1038.106, 30.17924
1038.588, 29.66007
1039.071, 29.26044
1039.553, 29.45319
1040.035, 30.03280
1040.517, 30.24023
1040.999, 29.78087
1041.481, 29.74512
1041.963, 30.43783
1042.445, 31.19862
1042.927, 30.97920
1043.410, 30.24910
1043.892, 29.92167
1044.374, 30.15226
1044.856, 30.51803
1045.338, 30.98205
1045.820, 31.41467
1046.302, 31.74243
1046.784, 31.98982
1047.266, 32.29736
1047.749, 32.65898
1048.231, 32.96882
1048.713, 33.12391
1049.195, 33.31444
1049.677, 33.86258
1050.159, 34.46434
1050.641, 34.65610
1051.123, 34.13885
1051.606, 34.01488
1052.088, 34.37006
1052.570, 34.80754
1053.052, 35.00230
1053.534, 35.08045
1054.016, 35.16629
1054.498, 35.32501
1054.980, 35.82251
1055.463, 37.08511
1055.945, 38.30900
1056.427, 39.35807
1056.909, 40.20803
1057.391, 40.63112
1057.873, 40.72712
1058.355, 41.42246
1058.837, 42.91246
1059.319, 44.39070
1059.802, 45.05573
1060.284, 45.57721
1060.766, 46.41372
1061.248, 47.58241
1061.730, 48.99711
1062.212, 50.69336
1062.694, 52.48396
1063.176, 54.37103
1063.658, 56.16599
1064.141, 57.45604
1064.623, 58.52067
1065.105, 59.85102
1065.587, 61.69925
1066.069, 63.52811
1066.551, 65.39610
1067.033, 67.06025
1067.515, 68.12005
1067.998, 68.80286
1068.480, 70.45407
1068.962, 72.90029
1069.444, 75.15042
1069.926, 76.76595
1070.408, 77.92207
1070.890, 78.37846
1071.372, 78.53334
1071.854, 79.01501
1072.337, 79.88428
1072.819, 80.45950
1073.301, 80.66721
1073.783, 80.61609
1074.265, 80.39887
1074.747, 79.97714
1075.229, 79.27547
1075.711, 78.30500
1076.193, 77.26350
1076.676, 76.25526
1077.158, 74.96340
1077.640, 73.20305
1078.122, 71.32193
1078.604, 70.02348
1079.086, 69.04269
1079.568, 67.70067
1080.051, 65.59898
1080.533, 64.15185
1081.015, 64.30797
1081.497, 64.78696
1081.979, 64.89541
1082.461, 64.78358
1082.943, 65.48448
1083.425, 66.93709
1083.907, 68.64704
1084.390, 70.46981
1084.872, 72.36076
1085.354, 74.37798
1085.836, 76.39018
1086.318, 78.24377
1086.800, 79.80422
1087.282, 81.73746
1087.764, 84.07719
1088.246, 86.59878
1088.729, 89.10000
1089.211, 91.70034
1089.693, 94.57913
1090.175, 97.71078
1090.657, 100.9753
1091.139, 104.1935
1091.621, 107.9506
1092.103, 112.6358
1092.586, 117.2251
1093.068, 120.4174
1093.550, 122.4251
1094.032, 123.8181
1094.514, 124.6635
1094.996, 124.7061
1095.478, 123.9033
1095.960, 122.1093
1096.443, 119.2035
1096.925, 115.3838
1097.407, 110.9926
1097.889, 106.0726
1098.371, 101.0052
1098.853, 95.69624
1099.335, 90.85607
1099.817, 87.10095
1100.299, 83.96233
1100.781, 81.04740
1101.264, 78.30531
1101.746, 75.85703
1102.228, 73.72117
1102.710, 71.46606
1103.192, 68.72032
1103.674, 65.98698
1104.156, 63.86414
1104.638, 62.18623
1105.121, 60.67156
1105.603, 59.38374
1106.085, 58.08110
1106.567, 56.80008
1107.049, 55.39148
1107.531, 53.44318
1108.013, 51.40232
1108.495, 50.08691
1108.978, 49.43327
1109.460, 49.09221
1109.942, 49.35542
1110.424, 49.29929
1110.906, 48.51920
1111.388, 47.69022
1111.870, 47.85704
1112.352, 48.76217
1112.834, 49.27568
1113.317, 49.31248
1113.799, 49.34471
1114.281, 49.43590
1114.763, 49.82777
1115.245, 50.65749
1115.727, 51.84440
1116.209, 53.25150
1116.691, 54.88535
1117.173, 56.63993
1117.656, 58.54822
1118.138, 60.27110
1118.620, 61.45918
1119.102, 62.38054
1119.584, 63.25042
1120.066, 64.08323
1120.548, 64.85776
1121.030, 65.64284
1121.513, 65.82957
1121.995, 64.97526
1122.477, 63.86327
1122.959, 63.40642
1123.441, 63.31721
1123.923, 63.17701
1124.405, 62.82511
1124.887, 62.69813
1125.370, 62.84214
1125.852, 63.09359
1126.334, 63.33631
1126.816, 63.63874
1127.298, 64.18718
1127.780, 64.90902
1128.262, 65.62650
1128.744, 66.51289
1129.226, 67.04332
1129.709, 67.26487
1130.191, 67.01813
1130.673, 66.03132
1131.155, 64.46619
1131.637, 62.93070
1132.119, 61.40120
1132.601, 59.66071
1133.083, 57.49109
1133.566, 55.19408
1134.048, 52.62472
1134.530, 50.19685
1135.012, 48.67514
1135.494, 47.95277
1135.976, 46.67164
1136.458, 44.71422
1136.940, 42.68046
1137.422, 40.97651
1137.905, 39.33172
1138.387, 37.53778
1138.869, 35.67008
1139.351, 33.94792
1139.833, 32.35874
1140.315, 30.89845
1140.797, 29.56709
1141.279, 28.35451
1141.761, 27.29795
1142.244, 26.30674
1142.726, 25.23002
1143.208, 24.09752
1143.690, 23.31942
1144.172, 22.99628
1144.654, 22.41780
1145.136, 21.27568
1145.618, 20.10950
1146.101, 19.63220
1146.583, 19.51208
1147.065, 19.34214
1147.547, 19.03442
1148.029, 18.86304
1148.511, 18.88462
1148.993, 18.87418
1149.475, 18.76182
1149.958, 18.52407
1150.440, 17.96810
1150.922, 17.29902
1151.404, 16.91749
1151.886, 17.15618
1152.368, 17.08644
1152.850, 16.55209
1153.332, 15.92415
1153.814, 15.34622
1154.297, 14.88697
1154.779, 14.92543
1155.261, 15.23000
1155.743, 15.15280
1156.225, 14.06274
1156.707, 13.12621
1157.189, 12.37349
1157.671, 11.96811
1158.153, 12.19060
1158.636, 12.87668
1159.118, 13.41918
1159.600, 13.80245
1160.082, 14.02305
1160.564, 14.01234
1161.046, 13.92214
1161.528, 13.86025
1162.010, 13.67897
1162.493, 13.05283
1162.975, 12.10142
1163.457, 11.67229
1163.939, 11.77542
1164.421, 11.96967
1164.903, 12.06710
1165.385, 12.11605
1165.867, 12.08365
1166.349, 12.05155
1166.832, 12.21021
1167.314, 12.53330
1167.796, 12.60515
1168.278, 12.37719
1168.760, 12.19898
1169.242, 12.34180
1169.724, 12.58477
1170.206, 12.89622
1170.688, 13.17970
1171.171, 13.18516
1171.653, 12.91583
1172.135, 12.47219
1172.617, 11.83772
1173.099, 11.35014
1173.581, 11.42213
1174.063, 11.64373
1174.545, 11.72041
1175.028, 11.66831
1175.510, 11.57566
1175.992, 11.43791
1176.474, 11.34579
1176.956, 11.31668
1177.438, 11.36075
1177.920, 11.59811
1178.402, 11.83111
1178.885, 11.81865
1179.367, 11.57081
1179.849, 11.51721
1180.331, 11.67011
1180.813, 11.90653
1181.295, 12.24737
1181.777, 12.49327
1182.259, 12.35166
1182.741, 12.05261
1183.224, 11.80288
1183.706, 11.60443
1184.188, 11.78701
1184.670, 12.44071
1185.152, 12.80945
1185.634, 12.39331
1186.116, 11.82219
1186.598, 11.85602
1187.081, 12.16465
1187.563, 12.28715
1188.045, 12.09581
1188.527, 12.05799
1189.009, 12.19666
1189.491, 12.34450
1189.973, 12.31743
1190.455, 12.36288
1190.938, 13.10215
1191.420, 14.01076
1191.902, 14.15481
1192.384, 12.91618
1192.866, 12.37993
1193.348, 12.67084
1193.830, 13.05947
1194.312, 12.99417
1194.794, 12.81967
1195.276, 13.07198
1195.759, 13.53557
1196.241, 13.75625
1196.723, 13.56404
1197.205, 13.35369
1197.687, 13.10930
1198.169, 12.93460
1198.651, 12.87633
1199.133, 12.96112
1199.616, 13.27179
1200.098, 13.74944
1200.580, 14.26417
1201.062, 14.90792
1201.544, 15.30249
1202.026, 15.41286
1202.508, 15.34824
1202.990, 15.07660
1203.473, 14.77505
1203.955, 14.65715
1204.437, 14.71003
1204.919, 14.89134
1205.401, 15.36326
1205.883, 15.48496
1206.365, 15.11400
1206.847, 14.77670
1207.329, 15.07370
1207.812, 15.63297
1208.294, 16.07090
1208.776, 16.35491
1209.258, 16.39652
1209.740, 16.01449
1210.222, 15.91502
1210.704, 16.23362
1211.186, 16.60911
1211.668, 16.72924
1212.151, 16.65782
1212.633, 16.40035
1213.115, 16.00208
1213.597, 15.70044
1214.079, 15.54289
1214.561, 15.36917
1215.043, 15.12785
1215.525, 14.99244
1216.008, 15.24949
1216.490, 15.64933
1216.972, 15.98658
1217.454, 16.20490
1217.936, 16.00650
1218.418, 15.14009
1218.900, 14.81563
1219.382, 15.36183
1219.865, 15.91257
1220.347, 15.26048
1220.829, 14.25650
1221.311, 13.85965
1221.793, 14.09506
1222.275, 14.39121
1222.757, 14.84072
1223.239, 14.79184
1223.721, 14.02194
1224.203, 13.18770
1224.686, 13.00848
1225.168, 13.13747
1225.650, 13.31508
1226.132, 13.48009
1226.614, 13.36455
1227.096, 12.91427
1227.578, 12.43241
1228.061, 11.94332
1228.543, 11.63482
1229.025, 11.84526
1229.507, 12.22980
1229.989, 12.47048
1230.471, 12.55773
1230.953, 12.65358
1231.435, 12.76303
1231.917, 12.83106
1232.400, 12.83442
1232.882, 12.84807
1233.364, 13.17267
1233.846, 13.35892
1234.328, 12.73125
1234.810, 11.51200
1235.292, 11.22334
1235.774, 11.91341
1236.256, 12.47099
1236.739, 12.60997
1237.221, 12.65757
1237.703, 12.94331
1238.185, 13.21263
1238.667, 13.26929
1239.149, 13.12967
1239.631, 12.70475
1240.113, 12.02387
1240.596, 11.78044
1241.078, 12.21278
1241.560, 12.71869
1242.042, 12.92508
1242.524, 12.96577
1243.006, 12.89917
1243.488, 12.75725
1243.970, 12.64701
1244.453, 12.56099
1244.935, 12.40092
1245.417, 12.09439
1245.899, 12.00098
1246.381, 12.74411
1246.863, 13.30964
1247.345, 12.99874
1247.827, 12.18894
1248.309, 12.24769
1248.792, 12.94672
1249.274, 13.26279
1249.756, 12.90079
1250.238, 12.49358
1250.720, 12.33406
1251.202, 12.21202
1251.684, 12.05191
1252.166, 11.85838
1252.648, 11.52397
1253.131, 11.17247
1253.613, 11.24733
1254.095, 11.93068
1254.577, 12.41858
1255.059, 12.42620
1255.541, 12.22093
1256.023, 11.80819
1256.505, 11.34641
1256.988, 11.18868
1257.470, 11.22713
1257.952, 11.23156
1258.434, 11.14741
1258.916, 11.14476
1259.398, 11.32743
1259.880, 11.40281
1260.362, 11.24056
1260.844, 10.98784
1261.327, 10.89691
1261.809, 10.87388
1262.291, 10.72110
1262.773, 10.38263
1263.255, 10.40469
1263.737, 11.01435
1264.219, 11.19306
1264.701, 10.45414
1265.183, 9.610859
1265.666, 9.828448
1266.148, 10.44013
1266.630, 10.64287
1267.112, 10.34116
1267.594, 10.22134
1268.076, 10.31686
1268.558, 10.30443
1269.040, 10.04838
1269.523, 9.823262
1270.005, 9.897442
1270.487, 10.12630
1270.969, 10.48198
1271.451, 10.89141
1271.933, 10.93029
1272.415, 10.60200
1272.897, 10.11750
1273.380, 9.463233
1273.862, 9.058887
1274.344, 9.534862
1274.826, 10.04360
1275.308, 9.993670
1275.790, 9.574597
1276.272, 9.367295
1276.754, 9.360089
1277.236, 9.534214
1277.719, 9.909225
1278.201, 10.22541
1278.683, 10.41151
1279.165, 10.38207
1279.647, 9.936993
1280.129, 9.457210
1280.611, 10.07484
1281.093, 11.26860
1281.576, 11.51063
1282.058, 10.51825
1282.540, 9.646908
1283.022, 9.252751
1283.504, 9.142208
1283.986, 9.366973
1284.468, 9.651587
1284.950, 9.501619
1285.432, 9.151133
1285.915, 8.980840
1286.397, 9.030807
1286.879, 9.056217
1287.361, 8.954498
1287.843, 9.141912
1288.325, 9.811945
1288.807, 10.38813
1289.289, 10.00591
1289.771, 9.327549
1290.254, 9.072165
1290.736, 9.222833
1291.218, 9.193968
1291.700, 8.946212
1292.182, 8.973559
1292.664, 9.400513
1293.146, 9.675659
1293.628, 9.072159
1294.111, 8.401875
1294.593, 8.279581
1295.075, 8.494342
1295.557, 8.640697
1296.039, 8.727446
1296.521, 8.861971
1297.003, 9.056793
1297.485, 9.231390
1297.968, 9.368468
1298.450, 9.425767
1298.932, 9.392138
1299.414, 9.285075
1299.896, 9.036077
1300.378, 8.749637
1300.860, 8.811996
1301.342, 9.205847
1301.824, 9.527577
##END=



