##NAMES=Brochantite
##RRUFFID=R060133
##IDEAL CHEMISTRY=Cu^2+^_4_S^6+^O_4_(OH)_6_
##LOCALITY=Shattuck mine, Bisbee, Cochise County, Arizona, USA
##OWNER=RRUFF
##SOURCE=University of Arizona Mineral Museum
##DESCRIPTION=Deep green thick prismatic crystals
##STATUS=The identification of this mineral has been confirmed by X-ray diffraction and chemical analysis
##URL=rruff.info/R060133
##MEASURED CHEMISTRY=Cu_4.00_S_1.00_O_4_(OH)_6_
90.26367, 6.151137
90.74579, 6.281313
91.22791, 6.238022
91.71002, 6.038176
92.19214, 5.828544
92.67426, 5.750932
93.15637, 5.759645
93.63850, 5.735115
94.12061, 5.611778
94.60273, 5.435408
95.08485, 5.310175
95.56696, 5.239573
96.04908, 5.204182
96.53120, 5.190009
97.01331, 5.196527
97.49543, 5.208244
97.97755, 5.216279
98.45966, 5.221387
98.94178, 5.240951
99.42390, 5.278459
99.90602, 5.325624
100.3881, 5.354051
100.8703, 5.346868
101.3524, 5.383200
101.8345, 5.567642
102.3166, 5.994598
102.7987, 6.127472
103.2808, 5.800918
103.7630, 5.156365
104.2451, 4.861748
104.7272, 5.129753
105.2093, 5.462967
105.6914, 5.516754
106.1735, 5.063544
106.6557, 4.721052
107.1378, 4.594598
107.6199, 4.690410
108.1020, 4.759078
108.5841, 4.753049
109.0662, 4.745372
109.5484, 4.801380
110.0305, 4.997669
110.5126, 5.182163
110.9947, 5.317717
111.4768, 5.387661
111.9590, 5.490255
112.4411, 5.672560
112.9232, 5.884102
113.4053, 6.054573
113.8874, 6.038005
114.3695, 6.087816
114.8517, 6.323724
115.3338, 6.838973
115.8159, 7.335585
116.2980, 7.723747
116.7801, 8.035580
117.2622, 8.338996
117.7444, 8.502144
118.2265, 8.761463
118.7086, 9.265121
119.1907, 10.04400
119.6728, 11.08328
120.1549, 12.42403
120.6371, 14.03735
121.1192, 15.81395
121.6013, 17.59856
122.0834, 19.52657
122.5655, 21.76877
123.0477, 24.73089
123.5298, 27.71786
124.0119, 30.13306
124.4940, 31.99056
124.9761, 33.49529
125.4582, 34.56833
125.9404, 35.39618
126.4225, 36.33510
126.9046, 37.54670
127.3867, 38.94693
127.8688, 40.39333
128.3509, 41.87987
128.8331, 43.47139
129.3152, 45.22292
129.7973, 47.14352
130.2794, 49.22809
130.7615, 51.68856
131.2436, 54.34734
131.7258, 56.39642
132.2079, 57.62873
132.6900, 58.77042
133.1721, 61.03003
133.6542, 64.41119
134.1364, 68.04994
134.6185, 71.40479
135.1006, 74.52122
135.5827, 78.13012
136.0648, 82.28196
136.5469, 86.98713
137.0291, 92.32944
137.5112, 98.32333
137.9933, 104.7620
138.4754, 111.6195
138.9575, 118.8507
139.4396, 126.5996
139.9218, 135.4344
140.4039, 144.7478
140.8860, 151.9401
141.3681, 158.0883
141.8502, 160.0520
142.3323, 154.3336
142.8145, 137.4357
143.2966, 121.5936
143.7787, 108.3217
144.2608, 97.52341
144.7429, 89.90694
145.2251, 86.15028
145.7072, 84.89224
146.1893, 84.92541
146.6714, 86.74681
147.1535, 89.12029
147.6356, 91.91630
148.1178, 95.18633
148.5999, 98.44521
149.0820, 101.4655
149.5641, 104.5594
150.0462, 108.0665
150.5283, 112.2608
151.0105, 116.5497
151.4926, 119.7129
151.9747, 122.5990
152.4568, 125.4734
152.9389, 128.2654
153.4210, 131.0472
153.9032, 133.9736
154.3853, 137.3472
154.8674, 140.5621
155.3495, 143.6064
155.8316, 147.1183
156.3138, 149.0950
156.7959, 148.3090
157.2780, 145.8844
157.7601, 143.9357
158.2422, 143.0768
158.7243, 142.6559
159.2065, 142.2774
159.6886, 141.4587
160.1707, 141.3974
160.6528, 142.6469
161.1349, 144.9224
161.6170, 147.4872
162.0992, 150.0329
162.5813, 152.7980
163.0634, 155.9660
163.5455, 159.8425
164.0276, 163.7592
164.5097, 167.6939
164.9919, 171.5182
165.4740, 174.7129
165.9561, 176.7298
166.4382, 178.1421
166.9203, 179.4790
167.4025, 180.7648
167.8846, 182.1446
168.3667, 184.6144
168.8488, 187.7849
169.3309, 189.0631
169.8130, 186.8534
170.2952, 181.8670
170.7773, 174.9758
171.2594, 164.3093
171.7415, 153.4544
172.2236, 144.8698
172.7057, 138.5376
173.1879, 134.4712
173.6700, 133.2605
174.1521, 134.2536
174.6342, 136.3196
175.1163, 141.1066
175.5984, 145.7564
176.0806, 147.0555
176.5627, 145.0410
177.0448, 140.3779
177.5269, 132.3377
178.0090, 122.0319
178.4911, 111.8610
178.9733, 102.2154
179.4554, 93.63412
179.9375, 87.03228
180.4196, 82.54507
180.9017, 79.27750
181.3839, 76.56548
181.8660, 74.39428
182.3481, 72.61604
182.8302, 71.28536
183.3123, 70.30433
183.7944, 69.44450
184.2766, 68.68060
184.7587, 68.09513
185.2408, 67.82053
185.7229, 67.82957
186.2050, 67.94418
186.6871, 68.11990
187.1693, 68.33994
187.6514, 68.50054
188.1335, 68.56831
188.6156, 68.67752
189.0977, 69.00369
189.5798, 69.54362
190.0620, 70.26543
190.5441, 71.10435
191.0262, 72.09325
191.5083, 73.46765
191.9904, 75.31600
192.4725, 77.42390
192.9547, 79.41240
193.4368, 81.29143
193.9189, 83.28889
194.4010, 85.59865
194.8831, 88.19797
195.3652, 90.88028
195.8474, 93.88489
196.3295, 96.56975
196.8116, 97.79615
197.2937, 97.57736
197.7758, 95.88510
198.2579, 92.38576
198.7401, 87.04845
199.2222, 81.28067
199.7043, 74.97031
200.1864, 68.61963
200.6685, 63.35526
201.1507, 59.28642
201.6328, 55.92571
202.1149, 53.04916
202.5970, 50.66967
203.0791, 48.61691
203.5612, 46.88514
204.0434, 45.48460
204.5255, 44.53656
205.0076, 44.12800
205.4897, 43.87075
205.9718, 43.52022
206.4539, 43.04344
206.9361, 42.67265
207.4182, 42.43129
207.9003, 42.30833
208.3824, 42.28709
208.8645, 42.40991
209.3466, 42.52471
209.8288, 42.52820
210.3109, 42.39114
210.7930, 42.25385
211.2751, 42.06809
211.7572, 41.90557
212.2393, 42.07880
212.7215, 42.72057
213.2036, 43.40073
213.6857, 43.83367
214.1678, 43.94536
214.6499, 44.05585
215.1321, 44.17159
215.6142, 44.30914
216.0963, 44.53859
216.5784, 44.86760
217.0605, 45.26910
217.5426, 45.70462
218.0248, 46.10946
218.5069, 46.72746
218.9890, 47.60790
219.4711, 48.71995
219.9532, 49.91735
220.4353, 51.16677
220.9175, 52.57201
221.3996, 54.20995
221.8817, 56.05627
222.3638, 58.17929
222.8459, 60.65729
223.3280, 63.43916
223.8102, 66.07537
224.2923, 68.60884
224.7744, 71.00186
225.2565, 73.28801
225.7386, 75.72066
226.2208, 77.38728
226.7029, 77.94758
227.1850, 77.63529
227.6671, 77.64794
228.1492, 78.16776
228.6313, 78.75281
229.1135, 79.06680
229.5956, 78.75681
230.0777, 78.98528
230.5598, 79.96132
231.0419, 81.56210
231.5240, 83.19866
232.0062, 84.81996
232.4883, 86.54790
232.9704, 88.43168
233.4525, 90.37543
233.9346, 92.67941
234.4167, 95.40620
234.8989, 98.50649
235.3810, 101.7319
235.8631, 105.0819
236.3452, 108.6129
236.8273, 112.4165
237.3095, 116.6090
237.7916, 120.8153
238.2737, 125.1474
238.7558, 129.5001
239.2379, 133.6255
239.7200, 138.0981
240.2022, 141.5690
240.6843, 143.4026
241.1664, 143.6277
241.6485, 142.1419
242.1306, 138.7963
242.6127, 133.7354
243.0949, 127.5105
243.5770, 119.5513
244.0591, 111.1956
244.5412, 103.0941
245.0233, 94.87331
245.5054, 87.61263
245.9876, 81.34326
246.4697, 76.07641
246.9518, 71.72166
247.4339, 68.52931
247.9160, 65.85818
248.3981, 63.44069
248.8803, 61.22759
249.3624, 59.34736
249.8445, 57.84362
250.3266, 56.66104
250.8087, 55.64345
251.2909, 54.76445
251.7730, 54.10453
252.2551, 53.70692
252.7372, 53.57871
253.2193, 53.72622
253.7014, 54.36182
254.1836, 55.17833
254.6657, 55.39834
255.1478, 54.64832
255.6299, 53.95900
256.1120, 53.80108
256.5941, 54.41085
257.0763, 54.80835
257.5584, 54.97683
258.0405, 54.94892
258.5226, 54.76467
259.0047, 54.35011
259.4868, 53.92957
259.9690, 53.58971
260.4511, 53.34502
260.9332, 53.14063
261.4153, 53.06181
261.8974, 52.94631
262.3795, 52.50907
262.8617, 51.66447
263.3438, 50.69698
263.8259, 49.70996
264.3080, 48.73546
264.7901, 47.48510
265.2722, 45.79304
265.7544, 44.02204
266.2365, 42.75099
266.7186, 42.10906
267.2007, 41.57496
267.6829, 40.97514
268.1650, 40.28677
268.6471, 39.84615
269.1292, 39.71499
269.6113, 39.72114
270.0934, 39.63683
270.5756, 39.41802
271.0577, 39.27799
271.5398, 39.29286
272.0219, 39.45805
272.5040, 39.62097
272.9861, 39.80624
273.4683, 39.93330
273.9504, 39.88888
274.4325, 39.63902
274.9146, 39.40541
275.3967, 39.23665
275.8788, 39.12745
276.3610, 39.05267
276.8431, 39.01703
277.3252, 39.00330
277.8073, 39.01039
278.2894, 39.04384
278.7715, 39.03507
279.2537, 38.95863
279.7358, 38.83279
280.2179, 38.71955
280.7000, 38.61163
281.1821, 38.55003
281.6642, 38.55489
282.1464, 38.62606
282.6285, 38.81197
283.1106, 39.16230
283.5927, 39.59755
284.0748, 39.88977
284.5569, 40.02714
285.0391, 40.13252
285.5212, 40.22247
286.0033, 40.31493
286.4854, 40.67296
286.9675, 41.41266
287.4496, 42.30352
287.9318, 42.84446
288.4139, 43.03385
288.8960, 43.20969
289.3781, 43.62762
289.8602, 44.22851
290.3424, 44.68875
290.8245, 44.94612
291.3066, 45.14813
291.7887, 45.51172
292.2708, 46.02948
292.7530, 46.62307
293.2351, 47.33351
293.7172, 48.09283
294.1993, 48.57884
294.6814, 48.71150
295.1635, 48.89940
295.6457, 49.66343
296.1278, 50.93002
296.6099, 52.39281
297.0920, 53.88450
297.5741, 55.45846
298.0562, 57.20878
298.5384, 59.12384
299.0205, 61.17616
299.5026, 63.40426
299.9847, 65.74070
300.4668, 68.08413
300.9489, 70.30264
301.4311, 72.51172
301.9132, 74.89005
302.3953, 77.44666
302.8774, 79.86826
303.3595, 81.83997
303.8416, 83.53014
304.3238, 85.29200
304.8059, 87.26833
305.2880, 89.28722
305.7701, 91.14028
306.2522, 92.85556
306.7343, 94.49187
307.2165, 95.88409
307.6986, 97.30900
308.1807, 99.12627
308.6628, 101.5426
309.1449, 104.2208
309.6270, 106.8646
310.1092, 109.5767
310.5913, 112.6076
311.0734, 116.2727
311.5555, 120.2312
312.0376, 124.1376
312.5197, 127.9031
313.0019, 131.7009
313.4840, 135.8346
313.9661, 140.1202
314.4482, 144.2187
314.9304, 148.2792
315.4125, 151.9048
315.8946, 154.9992
316.3767, 157.7192
316.8588, 159.0974
317.3409, 158.9288
317.8231, 157.1678
318.3052, 153.7684
318.7873, 148.0477
319.2694, 141.2346
319.7515, 133.5105
320.2336, 124.8260
320.7158, 116.2912
321.1979, 108.0235
321.6800, 100.2058
322.1621, 93.03860
322.6442, 86.40701
323.1263, 80.58537
323.6085, 75.71483
324.0906, 71.77275
324.5727, 68.39408
325.0548, 65.83814
325.5369, 63.66655
326.0190, 61.62282
326.5012, 59.58742
326.9833, 57.78886
327.4654, 56.21656
327.9475, 54.89234
328.4296, 53.92686
328.9117, 53.49283
329.3939, 53.26715
329.8760, 53.12114
330.3581, 53.04428
330.8402, 53.06599
331.3223, 53.19906
331.8044, 53.42535
332.2866, 53.72224
332.7687, 54.17134
333.2508, 54.56161
333.7329, 54.79045
334.2150, 54.78695
334.6971, 54.96818
335.1793, 55.36854
335.6614, 55.92260
336.1435, 56.54784
336.6256, 57.26023
337.1077, 58.01891
337.5899, 58.79714
338.0720, 59.60722
338.5541, 60.46870
339.0362, 61.37761
339.5183, 62.36627
340.0005, 63.50197
340.4826, 64.83585
340.9647, 66.02691
341.4468, 66.98329
341.9289, 67.77405
342.4110, 68.56241
342.8932, 69.30202
343.3753, 70.29571
343.8574, 71.91907
344.3395, 74.12651
344.8216, 75.94921
345.3037, 77.19782
345.7859, 78.20877
346.2680, 79.60413
346.7501, 81.36870
347.2322, 83.06963
347.7143, 84.48865
348.1964, 85.67332
348.6786, 86.78751
349.1607, 87.84989
349.6428, 88.84872
350.1249, 89.89171
350.6070, 90.89530
351.0891, 91.60757
351.5713, 91.75471
352.0534, 91.62629
352.5355, 91.58498
353.0176, 91.63534
353.4997, 91.84470
353.9818, 92.19633
354.4640, 92.75407
354.9461, 93.65336
355.4282, 95.10072
355.9103, 96.67752
356.3924, 97.98341
356.8745, 99.09549
357.3567, 100.2848
357.8388, 101.5830
358.3209, 103.0983
358.8030, 104.9629
359.2851, 107.2415
359.7672, 109.7285
360.2494, 112.5385
360.7315, 115.4747
361.2136, 118.1305
361.6957, 120.0573
362.1779, 121.9372
362.6600, 124.1227
363.1421, 126.6735
363.6242, 129.2801
364.1063, 131.9357
364.5884, 134.5763
365.0706, 137.1137
365.5527, 139.5358
366.0348, 141.8378
366.5169, 143.8520
366.9990, 145.6170
367.4811, 147.7704
367.9633, 150.8166
368.4454, 153.9709
368.9275, 156.7585
369.4096, 158.4397
369.8917, 160.7476
370.3738, 163.9341
370.8560, 167.7722
371.3381, 171.5743
371.8202, 175.3756
372.3023, 179.1394
372.7844, 182.7117
373.2665, 185.8327
373.7487, 189.8043
374.2308, 194.9620
374.7129, 200.6331
375.1950, 205.9540
375.6771, 210.7752
376.1592, 215.7730
376.6414, 221.1860
377.1235, 226.9706
377.6056, 232.9018
378.0877, 239.0560
378.5698, 245.2750
379.0519, 251.6507
379.5341, 258.1353
380.0162, 264.1844
380.4983, 269.5582
380.9804, 274.5722
381.4625, 280.0401
381.9446, 286.0040
382.4268, 290.9719
382.9089, 294.1722
383.3910, 295.6857
383.8731, 295.8331
384.3553, 294.6060
384.8374, 292.1150
385.3195, 288.5952
385.8016, 283.9590
386.2837, 277.8393
386.7658, 269.7936
387.2480, 260.3965
387.7301, 249.9323
388.2122, 238.4805
388.6943, 226.8022
389.1764, 215.2232
389.6585, 203.9019
390.1407, 193.2616
390.6228, 183.3911
391.1049, 174.2640
391.5870, 166.2030
392.0691, 159.0045
392.5512, 152.0560
393.0334, 144.8039
393.5155, 137.9013
393.9976, 131.8149
394.4797, 126.7442
394.9618, 122.0164
395.4439, 117.5952
395.9261, 113.3447
396.4082, 109.1017
396.8903, 104.4372
397.3724, 100.1113
397.8545, 96.34690
398.3366, 93.16343
398.8188, 90.15262
399.3009, 87.30390
399.7830, 84.60950
400.2651, 82.06470
400.7472, 79.60387
401.2293, 77.38112
401.7115, 75.34714
402.1936, 73.54838
402.6757, 72.14699
403.1578, 71.25520
403.6399, 70.56444
404.1220, 69.94751
404.6042, 69.37678
405.0863, 69.02495
405.5684, 68.92192
406.0505, 68.99426
406.5326, 69.21115
407.0147, 69.60911
407.4969, 69.85812
407.9790, 69.77493
408.4611, 69.49804
408.9432, 69.61887
409.4254, 70.16235
409.9075, 70.84782
410.3896, 71.49507
410.8717, 72.10999
411.3538, 72.70970
411.8359, 73.27624
412.3181, 73.86442
412.8002, 74.59457
413.2823, 75.41833
413.7644, 76.19638
414.2465, 76.71029
414.7286, 77.19416
415.2108, 78.01936
415.6929, 79.20290
416.1750, 80.44355
416.6571, 81.56055
417.1392, 82.57204
417.6213, 83.53993
418.1035, 84.44308
418.5856, 85.33762
419.0677, 86.26210
419.5498, 87.20690
420.0319, 88.09866
420.5140, 89.22563
420.9962, 90.07722
421.4783, 90.27383
421.9604, 89.51252
422.4425, 88.78060
422.9246, 88.49052
423.4067, 88.30056
423.8889, 87.73606
424.3710, 86.75091
424.8531, 85.36915
425.3352, 83.51723
425.8173, 81.19859
426.2994, 78.87389
426.7816, 76.52840
427.2637, 74.21146
427.7458, 71.95093
428.2279, 69.68019
428.7100, 67.55320
429.1921, 65.56443
429.6743, 63.74916
430.1564, 62.29485
430.6385, 61.26276
431.1206, 60.35295
431.6028, 59.41638
432.0849, 58.45642
432.5670, 57.73246
433.0491, 57.24218
433.5312, 56.99305
434.0133, 57.10165
434.4955, 57.50916
434.9776, 57.78352
435.4597, 57.70647
435.9418, 57.58355
436.4239, 58.02086
436.9060, 58.94765
437.3882, 59.93399
437.8703, 60.55297
438.3524, 61.11703
438.8345, 62.12628
439.3166, 63.67795
439.7987, 65.36475
440.2809, 66.91093
440.7630, 68.37683
441.2451, 69.84053
441.7272, 71.24223
442.2093, 72.72581
442.6914, 74.54701
443.1736, 76.61028
443.6557, 78.28910
444.1378, 79.21014
444.6199, 79.77743
445.1020, 80.24662
445.5841, 80.76435
446.0663, 80.97486
446.5484, 80.76602
447.0305, 80.23635
447.5126, 79.53876
447.9947, 78.60384
448.4768, 77.60713
448.9590, 76.57342
449.4411, 75.50617
449.9232, 74.41072
450.4053, 73.23363
450.8874, 72.08717
451.3695, 71.03790
451.8517, 70.04825
452.3338, 69.30290
452.8159, 68.86507
453.2980, 68.63392
453.7801, 68.37846
454.2622, 68.08878
454.7444, 67.94843
455.2265, 68.07745
455.7086, 68.43004
456.1907, 68.79530
456.6729, 69.17313
457.1550, 69.63294
457.6371, 70.31377
458.1192, 71.13115
458.6013, 71.87243
459.0834, 72.39743
459.5656, 72.97901
460.0477, 73.92444
460.5298, 75.17465
461.0119, 76.50084
461.4940, 77.74180
461.9761, 79.07058
462.4583, 80.64429
462.9404, 82.50043
463.4225, 84.43704
463.9046, 86.15768
464.3867, 88.02433
464.8688, 90.33629
465.3510, 93.55795
465.8331, 96.80683
466.3152, 99.85320
466.7973, 102.7664
467.2794, 105.7849
467.7615, 109.0198
468.2437, 112.3134
468.7258, 115.6859
469.2079, 119.1769
469.6900, 122.3647
470.1721, 125.1329
470.6542, 127.6953
471.1364, 130.2988
471.6185, 133.0078
472.1006, 135.4547
472.5827, 137.4214
473.0648, 139.1790
473.5469, 141.6211
474.0291, 144.7934
474.5112, 148.1192
474.9933, 151.2234
475.4754, 154.1951
475.9575, 157.4154
476.4396, 160.9042
476.9218, 164.6127
477.4039, 168.7307
477.8860, 173.0000
478.3681, 176.7708
478.8503, 179.7625
479.3324, 182.2620
479.8145, 184.7153
480.2966, 186.9761
480.7787, 188.4281
481.2608, 188.8882
481.7430, 188.3821
482.2251, 186.9638
482.7072, 184.6720
483.1893, 181.2734
483.6714, 176.1921
484.1535, 170.1714
484.6357, 163.9722
485.1178, 157.3035
485.5999, 150.8869
486.0820, 144.5205
486.5641, 138.4523
487.0462, 133.5014
487.5284, 130.1222
488.0105, 127.2474
488.4926, 124.3489
488.9747, 121.3036
489.4568, 119.2400
489.9389, 118.3762
490.4211, 118.1329
490.9032, 117.8896
491.3853, 117.6249
491.8674, 117.6776
492.3495, 118.1413
492.8316, 118.9307
493.3138, 119.8982
493.7959, 121.0405
494.2780, 122.2969
494.7601, 123.5770
495.2422, 124.9550
495.7243, 126.5629
496.2065, 128.4317
496.6886, 130.4033
497.1707, 132.4614
497.6528, 134.5533
498.1349, 136.6313
498.6170, 138.8531
499.0992, 140.8341
499.5813, 142.3317
500.0634, 143.4409
500.5455, 144.4149
501.0276, 145.5388
501.5097, 146.3602
501.9919, 146.6855
502.4740, 146.4656
502.9561, 145.9749
503.4382, 145.1760
503.9203, 144.1511
504.4025, 142.9493
504.8846, 141.6192
505.3667, 140.0465
505.8488, 138.2146
506.3309, 136.1545
506.8130, 133.9171
507.2952, 131.4994
507.7773, 128.9583
508.2594, 126.3350
508.7415, 123.6357
509.2236, 120.7101
509.7057, 117.5433
510.1879, 114.3585
510.6700, 111.3029
511.1521, 108.3556
511.6342, 105.4063
512.1163, 102.4639
512.5984, 99.52942
513.0806, 96.49331
513.5627, 93.47912
514.0448, 90.74548
514.5269, 88.51998
515.0090, 86.51794
515.4911, 84.65211
515.9733, 82.87740
516.4554, 80.99330
516.9375, 78.77602
517.4196, 76.51240
517.9017, 74.34769
518.3839, 72.24873
518.8660, 70.36649
519.3481, 68.93272
519.8302, 67.63362
520.3123, 66.15633
520.7944, 64.34513
521.2766, 62.63149
521.7587, 61.12444
522.2408, 59.76401
522.7229, 58.22700
523.2050, 56.45292
523.6871, 54.72970
524.1693, 53.21490
524.6514, 51.91669
525.1335, 50.60965
525.6156, 49.28585
526.0977, 47.97503
526.5798, 46.71312
527.0620, 45.47034
527.5441, 44.15978
528.0262, 42.71118
528.5083, 41.29174
528.9904, 40.13534
529.4725, 39.16488
529.9547, 38.20206
530.4368, 37.07512
530.9189, 36.00227
531.4010, 35.16271
531.8831, 34.54819
532.3652, 33.97376
532.8474, 33.45311
533.3295, 32.88942
533.8116, 32.19890
534.2937, 31.18980
534.7758, 30.38317
535.2579, 29.93058
535.7401, 29.61842
536.2222, 29.13215
536.7043, 28.32142
537.1865, 27.68081
537.6686, 27.36788
538.1507, 27.29824
538.6328, 27.09003
539.1149, 26.72378
539.5970, 26.32948
540.0792, 25.98453
540.5613, 25.67752
541.0434, 25.37016
541.5255, 25.05777
542.0076, 24.77636
542.4897, 24.57513
542.9719, 24.42666
543.4540, 24.27868
543.9361, 24.13650
544.4182, 23.95911
544.9003, 23.66113
545.3824, 23.30518
545.8646, 23.03068
546.3467, 22.97555
546.8288, 22.94081
547.3109, 22.83117
547.7930, 22.64152
548.2751, 22.46474
548.7573, 22.33527
549.2394, 22.20632
549.7215, 22.05038
550.2036, 21.84353
550.6857, 21.66314
551.1678, 21.50692
551.6500, 21.37952
552.1321, 21.30367
552.6142, 21.29258
553.0963, 21.23729
553.5784, 21.08301
554.0605, 20.89407
554.5427, 20.86876
555.0248, 20.99766
555.5069, 21.10992
555.9890, 21.09222
556.4711, 20.99354
556.9532, 20.88178
557.4354, 20.76002
557.9175, 20.66733
558.3996, 20.67006
558.8817, 20.70166
559.3638, 20.68666
559.8459, 20.58787
560.3281, 20.48078
560.8102, 20.35600
561.2923, 20.25136
561.7744, 20.22773
562.2565, 20.40752
562.7386, 20.54644
563.2208, 20.57687
563.7029, 20.51631
564.1850, 20.49152
564.6671, 20.52788
565.1492, 20.55564
565.6313, 20.53828
566.1135, 20.47281
566.5956, 20.38918
567.0777, 20.27037
567.5598, 20.19556
568.0419, 20.29583
568.5240, 20.52930
569.0062, 20.68452
569.4883, 20.71234
569.9704, 20.66176
570.4525, 20.50438
570.9346, 20.31030
571.4167, 20.26538
571.8989, 20.62027
572.3810, 21.01470
572.8631, 21.17165
573.3452, 21.12354
573.8273, 21.12189
574.3094, 21.31594
574.7916, 21.53804
575.2737, 21.68738
575.7558, 21.71015
576.2379, 21.80077
576.7200, 21.92967
577.2021, 22.15257
577.6843, 22.53802
578.1664, 23.13953
578.6485, 23.73244
579.1306, 24.28659
579.6127, 24.83664
580.0948, 25.50541
580.5770, 26.29053
581.0591, 26.99496
581.5412, 27.47839
582.0233, 27.85767
582.5054, 28.41624
582.9875, 29.12468
583.4697, 29.81893
583.9518, 30.32626
584.4340, 30.78477
584.9161, 31.33715
585.3982, 32.00127
585.8803, 32.73988
586.3624, 33.46177
586.8445, 34.28643
587.3267, 35.32515
587.8088, 36.74892
588.2909, 38.19801
588.7730, 39.59229
589.2551, 41.00001
589.7372, 42.52021
590.2194, 44.06461
590.7015, 45.90777
591.1836, 48.12590
591.6657, 50.68511
592.1478, 53.37984
592.6299, 56.17994
593.1121, 59.15784
593.5942, 62.72002
594.0763, 66.52283
594.5584, 69.27629
595.0405, 70.90385
595.5226, 71.86465
596.0048, 72.33342
596.4869, 72.45403
596.9690, 72.36318
597.4511, 71.90421
597.9332, 71.73023
598.4153, 72.18374
598.8975, 73.16917
599.3796, 74.55155
599.8617, 76.17980
600.3438, 78.33932
600.8259, 81.11697
601.3080, 84.48080
601.7902, 88.35844
602.2723, 93.00294
602.7544, 97.67244
603.2365, 102.0415
603.7186, 106.0882
604.2007, 110.7735
604.6829, 116.1290
605.1650, 121.7543
605.6471, 127.3591
606.1292, 132.9190
606.6113, 138.8871
607.0934, 145.3976
607.5756, 151.1396
608.0577, 155.4221
608.5398, 157.8009
609.0219, 157.3843
609.5040, 153.2407
609.9861, 147.1606
610.4683, 139.0953
610.9504, 129.9097
611.4325, 121.3276
611.9146, 113.2361
612.3967, 106.5138
612.8788, 101.4990
613.3610, 98.13412
613.8431, 95.72301
614.3252, 94.65788
614.8073, 93.91946
615.2894, 92.99079
615.7715, 91.85786
616.2537, 90.91985
616.7358, 90.23947
617.2179, 89.46420
617.7000, 88.33491
618.1821, 86.82658
618.6642, 84.87595
619.1464, 82.41312
619.6285, 79.60969
620.1106, 76.58723
620.5927, 73.34653
621.0748, 69.90396
621.5569, 66.02994
622.0391, 62.14571
622.5212, 58.38997
623.0033, 54.73991
623.4854, 51.12220
623.9675, 47.30043
624.4496, 43.75056
624.9318, 40.59049
625.4139, 37.81939
625.8960, 35.40710
626.3781, 33.44280
626.8602, 31.68360
627.3423, 29.98017
627.8245, 28.33612
628.3066, 26.89531
628.7887, 25.66745
629.2708, 24.59989
629.7529, 23.62295
630.2350, 22.76953
630.7172, 22.11835
631.1993, 21.73965
631.6815, 21.41875
632.1636, 20.97998
632.6457, 20.48403
633.1278, 20.02044
633.6099, 19.56899
634.0920, 19.20949
634.5742, 18.96206
635.0563, 18.82689
635.5384, 18.77927
636.0205, 18.51084
636.5026, 18.70637
636.9847, 18.77504
637.4669, 18.72364
637.9490, 18.19270
638.4311, 18.28102
638.9132, 18.12116
639.3953, 17.95113
639.8774, 18.12662
640.3596, 17.66539
640.8417, 17.96566
641.3238, 18.12203
641.8059, 18.12593
642.2880, 18.04373
642.7701, 17.95446
643.2523, 17.84729
643.7344, 17.81002
644.2165, 17.56000
644.6986, 17.74851
645.1807, 17.81016
645.6628, 17.75178
646.1450, 17.21378
646.6271, 17.29510
647.1092, 17.12822
647.5913, 16.95117
648.0734, 17.11964
648.5555, 16.65143
649.0377, 16.81439
649.5198, 16.72542
650.0019, 16.75176
650.4840, 16.52839
650.9661, 16.41166
651.4482, 16.44033
651.9304, 16.49677
652.4125, 16.46234
652.8946, 16.33372
653.3767, 16.19813
653.8588, 16.15292
654.3409, 16.10217
654.8231, 15.93423
655.3052, 15.54307
655.7873, 15.29292
656.2694, 15.44019
656.7515, 15.66545
657.2336, 15.64429
657.7158, 15.18207
658.1979, 14.90911
658.6800, 14.93153
659.1621, 15.09671
659.6442, 15.15529
660.1263, 15.10688
660.6085, 14.97711
661.0906, 14.72843
661.5727, 14.45840
662.0548, 14.36982
662.5369, 14.41746
663.0190, 14.42893
663.5012, 14.26878
663.9833, 14.07077
664.4654, 13.93384
664.9475, 13.85662
665.4296, 13.79110
665.9117, 13.71532
666.3939, 13.65363
666.8760, 13.63053
667.3581, 13.65859
667.8402, 13.63374
668.3223, 13.52357
668.8044, 13.41158
669.2866, 13.35958
669.7687, 13.36863
670.2508, 13.41221
670.7329, 13.50085
671.2150, 13.57021
671.6971, 13.41313
672.1793, 12.90411
672.6614, 13.17133
673.1435, 13.31170
673.6256, 13.33202
674.1077, 12.87276
674.5898, 13.03279
675.0720, 12.94462
675.5541, 12.84629
676.0362, 12.95401
676.5183, 13.09435
677.0004, 13.33221
677.4825, 13.34782
677.9647, 12.99767
678.4468, 12.70484
678.9290, 12.59938
679.4111, 12.64180
679.8932, 12.63510
680.3753, 12.57576
680.8574, 12.52740
681.3395, 12.54598
681.8217, 12.59576
682.3038, 12.57750
682.7859, 12.49855
683.2680, 12.46789
683.7501, 12.67317
684.2322, 12.88163
684.7144, 12.86003
685.1965, 12.53081
685.6786, 12.28868
686.1607, 12.30151
686.6428, 12.39524
687.1249, 12.44955
687.6071, 12.47584
688.0892, 12.41780
688.5713, 12.22121
689.0534, 12.02792
689.5355, 12.02663
690.0176, 12.21008
690.4998, 12.43016
690.9819, 12.69763
691.4640, 12.88550
691.9461, 12.73445
692.4282, 12.37282
692.9103, 12.08258
693.3925, 11.97015
693.8746, 11.95883
694.3567, 12.08113
694.8388, 12.27113
695.3209, 12.37403
695.8030, 12.21330
696.2852, 12.12351
696.7673, 12.21351
697.2494, 12.44133
697.7315, 12.58488
698.2136, 12.62647
698.6957, 12.64113
699.1779, 12.65756
699.6600, 12.67376
700.1421, 12.65977
700.6242, 12.61949
701.1063, 12.63098
701.5884, 12.84464
702.0706, 13.09054
702.5527, 13.11263
703.0348, 12.89482
703.5169, 12.73633
703.9990, 12.82572
704.4811, 13.00006
704.9633, 13.10525
705.4454, 12.96942
705.9275, 13.05747
706.4096, 13.47945
706.8917, 13.77458
707.3738, 13.94965
707.8560, 13.64519
708.3381, 13.95996
708.8202, 14.02656
709.3023, 14.08300
709.7844, 14.48495
710.2665, 14.47863
710.7487, 14.69811
711.2308, 14.83209
711.7129, 14.98548
712.1950, 15.24242
712.6771, 15.57373
713.1592, 15.93674
713.6414, 16.40008
714.1235, 16.79529
714.6056, 16.99840
715.0877, 17.12359
715.5698, 17.39858
716.0519, 17.87610
716.5341, 18.37028
717.0162, 18.85942
717.4983, 19.31457
717.9804, 19.59228
718.4625, 19.70987
718.9446, 19.87950
719.4268, 20.22255
719.9089, 20.66270
720.3910, 21.12224
720.8731, 21.59636
721.3552, 22.08426
721.8373, 22.55723
722.3195, 23.06347
722.8016, 23.68360
723.2837, 24.41215
723.7658, 24.94567
724.2479, 25.13503
724.7300, 25.31559
725.2122, 25.66255
725.6943, 26.17999
726.1765, 26.55891
726.6586, 26.79641
727.1407, 26.93848
727.6228, 27.03296
728.1049, 27.06149
728.5870, 26.95517
729.0692, 26.70587
729.5513, 26.43105
730.0334, 26.19797
730.5155, 25.98744
730.9976, 25.81070
731.4797, 25.72599
731.9619, 25.49375
732.4440, 24.96364
732.9261, 24.34792
733.4082, 23.79654
733.8903, 23.33386
734.3724, 22.85254
734.8546, 22.33166
735.3367, 21.84073
735.8188, 21.53238
736.3009, 21.35062
736.7830, 21.00939
737.2651, 20.40198
737.7473, 19.77793
738.2294, 19.40533
738.7115, 19.17681
739.1936, 18.93535
739.6757, 18.59042
740.1578, 18.27823
740.6400, 18.02627
741.1221, 17.83537
741.6042, 17.71483
742.0863, 17.75927
742.5684, 17.64093
743.0505, 17.22937
743.5327, 16.70521
744.0148, 16.52763
744.4969, 16.66797
744.9790, 16.72304
745.4611, 16.47084
745.9432, 16.15087
746.4254, 16.07851
746.9075, 16.19063
747.3896, 16.32598
747.8717, 16.45009
748.3538, 16.54569
748.8359, 16.60001
749.3181, 16.61831
749.8002, 16.62494
750.2823, 16.59689
750.7644, 16.60459
751.2465, 16.69858
751.7286, 16.84264
752.2108, 16.80895
752.6929, 16.59229
753.1750, 16.46177
753.6571, 16.62681
754.1392, 16.94810
754.6213, 17.19995
755.1035, 17.39610
755.5856, 17.60674
756.0677, 17.92807
756.5498, 18.22764
757.0319, 18.40830
757.5140, 18.46013
757.9962, 18.56327
758.4783, 18.73084
758.9604, 18.94415
759.4425, 19.20970
759.9246, 19.52339
760.4067, 19.82011
760.8889, 20.10081
761.3710, 20.34069
761.8531, 20.45824
762.3352, 20.54248
762.8173, 20.80155
763.2994, 21.23767
763.7816, 21.63444
764.2637, 21.84201
764.7458, 21.96760
765.2279, 22.07332
765.7100, 22.15809
766.1921, 22.27590
766.6743, 22.42300
767.1564, 22.61010
767.6385, 22.86213
768.1206, 23.19584
768.6027, 23.44898
769.0848, 23.61339
769.5670, 23.74511
770.0491, 23.93507
770.5312, 24.12186
771.0133, 24.16935
771.4954, 24.05362
771.9775, 23.89000
772.4597, 23.77209
772.9418, 23.62514
773.4240, 23.36086
773.9061, 22.85404
774.3882, 22.53079
774.8703, 22.49972
775.3524, 22.54577
775.8345, 22.48550
776.3167, 22.30795
776.7988, 22.17956
777.2809, 22.12875
777.7630, 22.04004
778.2451, 21.64532
778.7272, 20.89891
779.2094, 20.98300
779.6915, 20.94028
780.1736, 20.77755
780.6557, 20.13520
781.1378, 20.11214
781.6199, 19.84091
782.1021, 19.55944
782.5842, 19.62353
783.0663, 19.05095
783.5484, 19.10956
784.0305, 18.72135
784.5126, 18.50993
784.9948, 18.32488
785.4769, 18.15687
785.9590, 17.98435
786.4411, 17.78272
786.9232, 17.56009
787.4053, 17.31818
787.8875, 17.03306
788.3696, 16.79482
788.8517, 16.64205
789.3338, 16.55729
789.8159, 16.52696
790.2980, 16.66269
790.7802, 16.63434
791.2623, 16.35810
791.7444, 16.01431
792.2265, 15.86161
792.7086, 15.88606
793.1907, 15.87448
793.6729, 15.77962
794.1550, 15.68997
794.6371, 15.75593
795.1192, 15.87969
795.6013, 15.89404
796.0834, 15.69175
796.5656, 15.50058
797.0477, 15.40528
797.5298, 15.36263
798.0119, 15.32004
798.4940, 15.28648
798.9761, 15.22081
799.4583, 15.09778
799.9404, 14.98151
800.4225, 14.98277
800.9046, 15.07793
801.3867, 15.12387
801.8688, 15.08706
802.3510, 15.01250
802.8331, 14.91291
803.3152, 14.81415
803.7973, 14.75381
804.2794, 14.75393
804.7615, 14.77117
805.2437, 14.77023
805.7258, 14.79811
806.2079, 14.92485
806.6900, 15.19791
807.1721, 15.38908
807.6542, 15.47860
808.1364, 15.46922
808.6185, 15.29526
809.1006, 15.02252
809.5827, 14.84572
810.0648, 14.81387
810.5469, 14.86691
811.0291, 15.04369
811.5112, 15.24306
811.9933, 15.34662
812.4754, 15.22297
812.9575, 15.17031
813.4396, 15.22211
813.9218, 15.32963
814.4039, 15.44572
814.8860, 15.57274
815.3681, 15.68850
815.8502, 15.79302
816.3323, 15.87880
816.8145, 15.91866
817.2966, 15.93834
817.7787, 15.98436
818.2608, 16.06990
818.7429, 16.17417
819.2251, 16.28475
819.7072, 16.41046
820.1893, 16.57020
820.6714, 16.84772
821.1536, 16.93966
821.6357, 16.72043
822.1178, 16.35745
822.5999, 16.72675
823.0820, 16.96918
823.5641, 17.09158
824.0463, 16.73441
824.5284, 16.99650
825.0105, 17.01042
825.4926, 17.01416
825.9747, 17.36340
826.4568, 17.07597
826.9390, 17.41977
827.4211, 17.51157
827.9032, 17.71870
828.3853, 17.67612
828.8674, 17.72879
829.3495, 17.84193
829.8317, 17.90027
830.3138, 17.97318
830.7959, 18.18237
831.2780, 18.44099
831.7601, 18.50930
832.2422, 18.35058
832.7244, 18.28573
833.2065, 18.68569
833.6886, 19.13966
834.1707, 19.29621
834.6528, 19.00006
835.1349, 18.91254
835.6171, 19.10974
836.0992, 19.38622
836.5813, 19.64020
837.0634, 19.86686
837.5455, 19.97360
838.0276, 19.95965
838.5098, 19.91803
838.9919, 19.84927
839.4740, 19.83475
839.9561, 19.99261
840.4382, 20.32768
840.9203, 20.65506
841.4025, 20.96199
841.8846, 21.19528
842.3667, 21.30044
842.8488, 21.28224
843.3309, 21.41451
843.8130, 21.72233
844.2952, 21.66210
844.7773, 22.18570
845.2594, 22.58247
845.7415, 22.85920
846.2236, 22.65631
846.7057, 23.07274
847.1879, 23.24104
847.6700, 23.39909
848.1521, 23.90268
848.6342, 23.76958
849.1163, 24.26767
849.5984, 24.51381
850.0806, 24.87534
850.5627, 24.98707
851.0448, 25.17595
851.5269, 25.61733
852.0090, 26.03485
852.4911, 26.40448
852.9733, 26.58312
853.4554, 26.73258
853.9375, 26.98460
854.4196, 27.32514
854.9017, 27.72126
855.3839, 28.24370
855.8660, 28.71182
856.3481, 29.04720
856.8302, 29.33011
857.3123, 29.74321
857.7944, 30.29706
858.2766, 30.89586
858.7587, 31.53916
859.2408, 32.17731
859.7229, 32.75938
860.2050, 33.27546
860.6871, 33.67620
861.1693, 33.76379
861.6514, 34.02490
862.1335, 34.77628
862.6156, 35.74581
863.0977, 36.55289
863.5798, 37.16060
864.0620, 37.73462
864.5441, 38.30863
865.0262, 38.81731
865.5083, 39.08707
865.9904, 39.23410
866.4726, 39.69580
866.9547, 40.62850
867.4368, 41.43560
867.9189, 41.70423
868.4011, 41.64901
868.8832, 41.45292
869.3653, 41.05364
869.8474, 40.74393
870.3295, 40.60521
870.8116, 40.42830
871.2938, 40.01616
871.7759, 39.39278
872.2580, 38.89364
872.7401, 38.52448
873.2222, 38.07747
873.7043, 37.36827
874.1865, 36.51121
874.6686, 35.56205
875.1507, 34.51903
875.6328, 33.60766
876.1149, 32.91402
876.5970, 32.34562
877.0792, 31.88276
877.5613, 31.52209
878.0434, 31.22972
878.5255, 31.00611
879.0076, 30.85706
879.4897, 30.88177
879.9719, 30.92767
880.4540, 30.70201
880.9361, 30.29722
881.4182, 30.03239
881.9003, 30.00918
882.3824, 30.18385
882.8646, 30.65802
883.3467, 31.29876
883.8288, 31.76280
884.3109, 32.01069
884.7930, 32.31544
885.2751, 32.75850
885.7573, 33.27440
886.2394, 33.74621
886.7215, 34.20592
887.2036, 34.71879
887.6857, 35.25401
888.1678, 35.93178
888.6500, 36.93904
889.1321, 38.05927
889.6142, 39.00669
890.0963, 39.70164
890.5784, 40.38109
891.0605, 41.02476
891.5427, 41.74989
892.0248, 42.77594
892.5069, 44.00908
892.9890, 45.16753
893.4711, 46.19448
893.9532, 47.22680
894.4354, 48.38495
894.9175, 49.55095
895.3996, 50.59865
895.8817, 51.42915
896.3638, 52.56030
896.8459, 54.11666
897.3281, 55.69507
897.8102, 56.99364
898.2923, 58.08187
898.7744, 59.36710
899.2565, 60.81207
899.7386, 62.01899
900.2208, 62.48877
900.7029, 62.84085
901.1850, 63.58916
901.6671, 64.67912
902.1492, 65.62212
902.6313, 66.24679
903.1135, 66.91790
903.5956, 67.80709
904.0777, 68.75614
904.5598, 69.35905
905.0419, 69.62673
905.5240, 69.66629
906.0062, 69.49698
906.4883, 69.15098
906.9704, 68.58356
907.4525, 67.88210
907.9346, 67.17849
908.4167, 66.66945
908.8989, 65.92668
909.3810, 64.90044
909.8631, 63.66315
910.3452, 62.26733
910.8273, 60.72132
911.3094, 59.14931
911.7916, 57.56250
912.2737, 55.97833
912.7558, 54.31818
913.2380, 52.72331
913.7201, 51.39841
914.2022, 50.44493
914.6843, 49.34557
915.1664, 47.81429
915.6486, 46.38371
916.1307, 45.41961
916.6128, 44.87763
917.0949, 43.86692
917.5770, 42.38700
918.0591, 41.13385
918.5413, 40.70093
919.0234, 40.59813
919.5055, 40.40528
919.9876, 40.10510
920.4697, 39.68012
920.9518, 38.95464
921.4340, 38.30951
921.9161, 37.81527
922.3982, 37.45533
922.8803, 37.23648
923.3624, 37.15375
923.8445, 36.97029
924.3267, 36.56310
924.8088, 36.16388
925.2909, 36.06935
925.7730, 36.13121
926.2551, 36.12324
926.7372, 35.88698
927.2194, 35.76900
927.7015, 35.90222
928.1836, 36.05915
928.6657, 36.02310
929.1478, 35.79529
929.6299, 35.54467
930.1121, 35.27555
930.5942, 35.08301
931.0763, 35.18093
931.5584, 35.31618
932.0405, 35.15803
932.5226, 34.68492
933.0048, 34.32970
933.4869, 34.26027
933.9690, 34.24169
934.4511, 34.18969
934.9332, 34.12425
935.4153, 34.17384
935.8975, 34.33220
936.3796, 34.46737
936.8617, 34.53894
937.3438, 34.53476
937.8259, 34.35363
938.3080, 34.10033
938.7902, 33.98839
939.2723, 34.10856
939.7544, 34.34488
940.2365, 34.73195
940.7186, 35.16721
941.2007, 35.47902
941.6829, 35.68342
942.1650, 35.97873
942.6471, 36.40303
943.1292, 36.85042
943.6113, 37.16599
944.0934, 37.49254
944.5756, 37.99187
945.0577, 38.70887
945.5398, 39.45235
946.0219, 40.16840
946.5040, 40.96588
946.9861, 41.94206
947.4683, 43.05970
947.9504, 43.92843
948.4325, 44.59822
948.9146, 45.47067
949.3967, 46.84358
949.8788, 48.44759
950.3610, 50.12406
950.8431, 51.87993
951.3252, 53.70173
951.8073, 55.44886
952.2894, 57.52551
952.7715, 59.96148
953.2537, 62.79601
953.7358, 66.12370
954.2179, 69.91152
954.7000, 73.98927
955.1821, 78.22535
955.6642, 83.04369
956.1464, 88.55344
956.6285, 94.88858
957.1106, 102.2141
957.5927, 110.4700
958.0748, 120.1016
958.5569, 131.3966
959.0391, 143.4165
959.5212, 155.7077
960.0033, 168.2307
960.4855, 180.7277
960.9676, 193.2625
961.4497, 205.8302
961.9318, 218.4070
962.4139, 231.2500
962.8961, 244.2247
963.3782, 257.4809
963.8603, 271.5046
964.3424, 286.0567
964.8245, 301.8418
965.3066, 319.0375
965.7888, 337.5904
966.2709, 357.6464
966.7530, 379.0960
967.2351, 401.4637
967.7172, 425.2256
968.1993, 448.5627
968.6815, 472.2607
969.1636, 494.2620
969.6457, 514.2928
970.1278, 532.6430
970.6099, 544.1761
971.0920, 548.9553
971.5742, 545.9221
972.0563, 533.0236
972.5384, 512.7491
973.0205, 485.9081
973.5026, 453.9067
973.9847, 421.6879
974.4669, 388.9655
974.9490, 358.7698
975.4311, 331.4070
975.9132, 306.7852
976.3953, 284.5795
976.8774, 264.6274
977.3596, 247.1427
977.8417, 232.4232
978.3238, 219.7869
978.8059, 208.9576
979.2880, 199.5957
979.7701, 191.4092
980.2523, 184.6936
980.7344, 178.1218
981.2165, 171.5337
981.6986, 165.1379
982.1807, 158.8663
982.6628, 152.8261
983.1450, 147.7177
983.6271, 143.3981
984.1092, 138.9793
984.5913, 133.4736
985.0734, 128.2153
985.5555, 124.2044
986.0377, 120.9472
986.5198, 117.0420
987.0019, 112.2541
987.4840, 107.5868
987.9661, 103.1905
988.4482, 98.95724
988.9304, 94.82810
989.4125, 90.78093
989.8946, 86.79940
990.3767, 82.87696
990.8588, 79.05188
991.3409, 75.25145
991.8231, 71.64937
992.3052, 68.34915
992.7873, 65.38888
993.2694, 62.40962
993.7515, 59.40929
994.2336, 56.42420
994.7158, 53.29807
995.1979, 50.35534
995.6800, 48.07658
996.1621, 46.22153
996.6442, 44.26039
997.1263, 41.69342
997.6085, 39.54196
998.0906, 38.00388
998.5727, 36.77855
999.0548, 35.49342
999.5369, 34.15586
1000.019, 32.84505
1000.501, 31.56964
1000.983, 30.33056
1001.465, 29.08098
1001.948, 27.88842
1002.430, 26.81172
1002.912, 25.84954
1003.394, 25.01972
1003.876, 24.34679
1004.358, 23.69111
1004.840, 22.94266
1005.322, 22.22610
1005.804, 21.83900
1006.287, 21.66896
1006.769, 21.42994
1007.251, 21.00211
1007.733, 20.51811
1008.215, 19.91291
1008.697, 19.33962
1009.179, 18.95600
1009.661, 18.78625
1010.144, 18.52190
1010.626, 18.13995
1011.108, 17.80981
1011.590, 17.76476
1012.072, 17.76386
1012.554, 17.50787
1013.036, 17.03062
1013.518, 16.69576
1014.000, 16.59100
1014.483, 16.59517
1014.965, 16.76560
1015.447, 16.92817
1015.929, 16.61105
1016.411, 15.96508
1016.893, 15.57021
1017.375, 15.63586
1017.857, 15.73518
1018.340, 15.59738
1018.822, 15.38262
1019.304, 15.24527
1019.786, 15.21297
1020.268, 15.02726
1020.750, 14.65451
1021.232, 14.34241
1021.714, 14.30850
1022.196, 14.39393
1022.679, 14.35400
1023.161, 14.22622
1023.643, 14.11850
1024.125, 14.04997
1024.607, 14.03419
1025.089, 14.09317
1025.571, 14.17969
1026.053, 14.24086
1026.536, 14.27320
1027.018, 14.25031
1027.500, 14.16775
1027.982, 14.05528
1028.464, 13.88419
1028.946, 13.73269
1029.428, 13.66390
1029.910, 13.68282
1030.392, 13.76528
1030.875, 13.96144
1031.357, 14.02716
1031.839, 13.82130
1032.321, 13.52057
1032.803, 13.47059
1033.285, 13.56386
1033.767, 13.56940
1034.249, 13.35189
1034.732, 13.17183
1035.214, 13.13352
1035.696, 13.11409
1036.178, 12.98960
1036.660, 12.76367
1037.142, 12.77393
1037.624, 13.00947
1038.106, 13.16062
1038.589, 12.86857
1039.071, 12.54970
1039.553, 12.59129
1040.035, 12.87056
1040.517, 12.92567
1040.999, 12.60481
1041.481, 12.43894
1041.963, 12.53786
1042.445, 12.72006
1042.927, 12.75984
1043.410, 12.70370
1043.892, 12.61101
1044.374, 12.47860
1044.856, 12.45665
1045.338, 12.79693
1045.820, 13.04364
1046.302, 12.95476
1046.784, 12.61080
1047.267, 12.43023
1047.749, 12.40061
1048.231, 12.39484
1048.713, 12.36525
1049.195, 12.33633
1049.677, 12.31440
1050.159, 12.31061
1050.641, 12.34111
1051.124, 12.40393
1051.606, 12.52231
1052.088, 12.72579
1052.570, 12.87846
1053.052, 12.80991
1053.534, 12.65009
1054.016, 12.65369
1054.498, 12.79643
1054.980, 12.93611
1055.463, 12.97507
1055.945, 13.06187
1056.427, 13.23669
1056.909, 13.46537
1057.391, 13.69897
1057.873, 13.93665
1058.355, 14.16710
1058.837, 14.38647
1059.319, 14.62447
1059.802, 14.90216
1060.284, 15.20228
1060.766, 15.48976
1061.248, 15.77126
1061.730, 16.17615
1062.212, 16.72070
1062.694, 17.31257
1063.176, 17.93123
1063.659, 18.54770
1064.141, 19.06884
1064.623, 19.57980
1065.105, 20.23465
1065.587, 21.13220
1066.069, 22.03283
1066.551, 22.91067
1067.033, 23.78698
1067.516, 24.69023
1067.998, 25.61200
1068.480, 26.46882
1068.962, 27.26622
1069.444, 28.01985
1069.926, 28.70432
1070.408, 29.37760
1070.890, 30.03482
1071.372, 30.69809
1071.854, 31.43831
1072.337, 32.28295
1072.819, 32.84072
1073.301, 33.04532
1073.783, 33.18562
1074.265, 33.64952
1074.747, 34.09409
1075.229, 34.15791
1075.711, 33.83308
1076.194, 33.44740
1076.676, 33.14370
1077.158, 32.49417
1077.640, 31.30370
1078.122, 29.87095
1078.604, 28.71495
1079.086, 27.71208
1079.568, 26.58790
1080.051, 25.22669
1080.533, 23.93340
1081.015, 22.69830
1081.497, 21.69204
1081.979, 21.09085
1082.461, 20.81787
1082.943, 20.31810
1083.425, 19.62209
1083.907, 18.98779
1084.390, 18.53762
1084.872, 18.18171
1085.354, 17.81307
1085.836, 17.54037
1086.318, 17.51291
1086.800, 17.82433
1087.282, 17.97515
1087.764, 17.94116
1088.247, 17.87648
1088.729, 17.75797
1089.211, 17.78049
1089.693, 18.31466
1090.175, 19.21282
1090.657, 19.87678
1091.139, 20.02501
1091.621, 20.26954
1092.104, 20.70379
1092.586, 21.23092
1093.068, 21.71654
1093.550, 22.19439
1094.032, 22.76827
1094.514, 23.45021
1094.996, 24.13295
1095.478, 24.81592
1095.960, 25.41657
1096.443, 25.84667
1096.925, 26.20503
1097.407, 26.84368
1097.889, 27.72166
1098.371, 28.50483
1098.853, 29.08154
1099.335, 29.64625
1099.817, 30.23092
1100.299, 30.94912
1100.782, 31.95879
1101.264, 33.27361
1101.746, 34.39542
1102.228, 35.32114
1102.710, 36.17722
1103.192, 37.11364
1103.674, 37.88542
1104.156, 38.33078
1104.639, 38.36831
1105.121, 37.83932
1105.603, 36.49774
1106.085, 35.02037
1106.567, 33.38924
1107.049, 31.66244
1107.531, 29.68023
1108.013, 27.71305
1108.495, 26.25268
1108.978, 25.24068
1109.460, 24.38315
1109.942, 23.55439
1110.424, 22.90348
1110.906, 22.49300
1111.388, 22.19485
1111.870, 21.73571
1112.352, 21.22911
1112.834, 21.28173
1113.317, 21.92446
1113.799, 22.46642
1114.281, 22.28904
1114.763, 22.14525
1115.245, 22.43821
1115.727, 23.01345
1116.209, 23.46596
1116.691, 23.80710
1117.174, 24.32056
1117.656, 25.10110
1118.138, 25.87278
1118.620, 26.44162
1119.102, 26.86684
1119.584, 27.22717
1120.066, 27.52162
1120.548, 27.51558
1121.031, 27.19336
1121.513, 26.66147
1121.995, 25.89791
1122.477, 25.06539
1122.959, 24.26674
1123.441, 23.55019
1123.923, 23.00006
1124.405, 22.72571
1124.887, 22.32850
1125.370, 21.76039
1125.852, 21.18519
1126.334, 20.63446
1126.816, 20.18629
1127.298, 20.13221
1127.780, 20.29790
1128.262, 20.26669
1128.744, 19.60738
1129.227, 19.16877
1129.709, 19.08535
1130.191, 19.14506
1130.673, 19.18328
1131.155, 19.20899
1131.637, 19.25175
1132.119, 19.31466
1132.601, 19.41077
1133.083, 19.52104
1133.566, 19.70080
1134.048, 19.97779
1134.530, 20.32045
1135.012, 20.78747
1135.494, 21.33323
1135.976, 21.46976
1136.458, 21.15615
1136.940, 20.64197
1137.422, 20.06710
1137.905, 19.37960
1138.387, 18.53808
1138.869, 17.55135
1139.351, 16.38036
1139.833, 15.00096
1140.315, 13.79708
1140.797, 12.83563
1141.279, 12.06348
1141.762, 11.53735
1142.244, 11.08913
1142.726, 10.55059
1143.208, 9.927772
1143.690, 9.378310
1144.172, 8.895079
1144.654, 8.566992
1145.136, 8.461444
1145.619, 8.424669
1146.101, 8.275084
1146.583, 8.084727
1147.065, 7.945303
1147.547, 7.887077
1148.029, 7.788877
1148.511, 7.627169
1148.993, 7.503886
1149.475, 7.499351
1149.958, 7.507650
1150.440, 7.307376
1150.922, 7.003938
1151.404, 6.783976
1151.886, 6.697118
1152.368, 6.713140
1152.850, 6.885238
1153.332, 7.026697
1153.814, 7.015918
1154.297, 6.894479
1154.779, 6.718921
1155.261, 6.520499
1155.743, 6.393920
1156.225, 6.443058
1156.707, 6.458768
1157.189, 6.375745
1157.671, 6.312307
1158.154, 6.408837
1158.636, 6.609420
1159.118, 6.673674
1159.600, 6.619688
1160.082, 6.558238
1160.564, 6.544280
1161.046, 6.529594
1161.528, 6.531928
1162.010, 6.496055
1162.493, 6.290468
1162.975, 5.967023
1163.457, 5.916195
1163.939, 6.135989
1164.421, 6.343757
1164.903, 6.356615
1165.385, 6.338979
1165.867, 6.350046
1166.349, 6.384784
1166.832, 6.461074
1167.314, 6.569316
1167.796, 6.557888
1168.278, 6.409121
1168.760, 6.245612
1169.242, 6.082007
1169.724, 6.000885
1170.206, 6.118143
1170.689, 6.339283
1171.171, 6.431769
1171.653, 6.398003
1172.135, 6.377853
1172.617, 6.404449
1173.099, 6.386169
1173.581, 6.129071
1174.063, 5.898566
1174.546, 5.976704
1175.028, 6.275952
1175.510, 6.352047
1175.992, 6.192894
1176.474, 6.120129
1176.956, 6.231692
1177.438, 6.384922
1177.920, 6.511422
1178.402, 6.569076
1178.885, 6.462686
1179.367, 6.205981
1179.849, 6.135764
1180.331, 6.266812
1180.813, 6.435296
1181.295, 6.622600
1181.777, 6.729005
1182.259, 6.549113
1182.742, 6.293347
1183.224, 6.216583
1183.706, 6.359534
1184.188, 6.423056
1184.670, 6.394075
1185.152, 6.387384
1185.634, 6.476270
1186.116, 6.571568
1186.599, 6.536117
1187.081, 6.459960
1187.563, 6.484739
1188.045, 6.678331
1188.527, 6.707788
1189.009, 6.536483
1189.491, 6.420790
1189.973, 6.542558
1190.455, 6.742744
1190.938, 6.845881
1191.420, 6.883544
1191.902, 6.900352
1192.384, 6.872215
1192.866, 6.925808
1193.348, 7.079585
1193.830, 7.227805
1194.312, 7.324694
1194.794, 7.359554
1195.277, 7.276276
1195.759, 7.129327
1196.241, 7.032954
1196.723, 7.025355
1197.205, 7.014017
1197.687, 6.992018
1198.169, 6.992387
1198.651, 7.065966
1199.134, 7.158549
1199.616, 7.185254
1200.098, 7.172922
1200.580, 7.191675
1201.062, 7.267076
1201.544, 7.338430
1202.026, 7.403984
1202.508, 7.461519
1202.990, 7.551909
1203.473, 7.602431
1203.955, 7.439584
1204.437, 7.151479
1204.919, 7.045275
1205.401, 7.289464
1205.883, 7.386174
1206.365, 7.270590
1206.847, 7.117857
1207.329, 7.086026
1207.812, 7.122937
1208.294, 7.171540
1208.776, 7.229671
1209.258, 7.303989
1209.740, 7.414667
1210.222, 7.486540
1210.704, 7.504978
1211.186, 7.512801
1211.669, 7.580305
1212.151, 7.645488
1212.633, 7.527638
1213.115, 7.301308
1213.597, 7.478438
1214.079, 8.392270
1214.561, 8.740076
1215.043, 8.242726
1215.526, 7.571465
1216.008, 7.419698
1216.490, 7.516737
1216.972, 7.569941
1217.454, 7.562725
1217.936, 7.540757
1218.418, 7.492839
1218.900, 7.489622
1219.382, 7.551645
1219.865, 7.621522
1220.347, 7.655074
1220.829, 7.647906
1221.311, 7.569420
1221.793, 7.433363
1222.275, 7.367355
1222.757, 7.409552
1223.239, 7.369619
1223.722, 7.192930
1224.204, 7.011720
1224.686, 6.954208
1225.168, 6.979401
1225.650, 7.084614
1226.132, 7.249979
1226.614, 7.295907
1227.096, 7.191417
1227.578, 7.141690
1228.061, 7.205466
1228.543, 7.260687
1229.025, 7.127187
1229.507, 6.960966
1229.989, 6.904878
1230.471, 6.967416
1230.953, 7.109802
1231.435, 7.352601
1231.917, 7.494356
1232.400, 7.480399
1232.882, 7.397858
1233.364, 7.209562
1233.846, 7.087478
1234.328, 7.260843
1234.810, 7.666116
1235.292, 7.887921
1235.774, 7.917940
1236.257, 7.921297
1236.739, 7.939106
1237.221, 7.927680
1237.703, 7.768536
1238.185, 7.633994
1238.667, 7.688441
1239.149, 7.891663
1239.631, 8.127179
1240.114, 8.385318
1240.596, 8.466561
1241.078, 8.292852
1241.560, 8.099491
1242.042, 8.068615
1242.524, 8.072769
1243.006, 7.993611
1243.488, 7.883379
1243.970, 8.003146
1244.453, 8.314563
1244.935, 8.489217
1245.417, 8.434498
1245.899, 8.330650
1246.381, 8.260482
1246.863, 8.198853
1247.345, 8.110958
1247.827, 8.030210
1248.309, 8.102680
1248.792, 8.288841
1249.274, 8.424723
1249.756, 8.472895
1250.238, 8.456079
1250.720, 8.294737
1251.202, 8.182905
1251.684, 8.237596
1252.166, 8.361529
1252.649, 8.251987
1253.131, 8.003389
1253.613, 7.924148
1254.095, 8.115831
1254.577, 8.217268
1255.059, 8.016673
1255.541, 7.854385
1256.023, 7.863307
1256.505, 7.961862
1256.988, 7.975065
1257.470, 7.949816
1257.952, 8.007333
1258.434, 8.191746
1258.916, 8.263536
1259.398, 8.150663
1259.880, 8.011337
1260.362, 7.876111
1260.844, 7.784581
1261.327, 7.849705
1261.809, 7.979798
1262.291, 8.024999
1262.773, 7.952020
1263.255, 7.927953
1263.737, 7.974821
1264.219, 8.024113
1264.701, 8.057417
1265.184, 8.074526
1265.666, 8.074121
1266.148, 8.058165
1266.630, 8.007514
1267.112, 7.922401
1267.594, 7.954111
1268.076, 8.122746
1268.558, 8.252596
1269.041, 8.290607
1269.523, 8.281243
1270.005, 8.217561
1270.487, 8.166015
1270.969, 8.222831
1271.451, 8.357561
1271.933, 8.394626
1272.415, 8.334500
1272.897, 8.203462
1273.380, 7.983038
1273.862, 7.844747
1274.344, 7.991409
1274.826, 8.189694
1275.308, 8.297697
1275.790, 8.334557
1276.272, 8.381392
1276.754, 8.423573
1277.237, 8.352247
1277.719, 8.127282
1278.201, 7.966394
1278.683, 8.020247
1279.165, 8.130145
1279.647, 8.250318
1280.129, 8.363097
1280.611, 8.426669
1281.094, 8.456817
1281.576, 8.487423
1282.058, 8.522848
1282.540, 8.603964
1283.022, 8.799306
1283.504, 8.946459
1283.986, 9.001208
1284.468, 8.994854
1284.950, 8.998361
1285.432, 8.963181
1285.915, 8.728654
1286.397, 8.294822
1286.879, 8.189013
1287.361, 8.562973
1287.843, 8.850403
1288.325, 8.905433
1288.807, 8.916497
1289.289, 9.167748
1289.772, 9.439935
1290.254, 9.438538
1290.736, 9.208453
1291.218, 9.207916
1291.700, 9.474442
1292.182, 9.591404
1292.664, 9.477015
1293.146, 9.332927
1293.629, 9.298731
1294.111, 9.325696
1294.593, 9.403913
1295.075, 9.508706
1295.557, 9.611398
1296.039, 9.706653
1296.521, 9.689144
1297.003, 9.550393
1297.485, 9.538161
1297.968, 9.981730
1298.450, 10.34644
1298.932, 10.41078
1299.414, 10.34531
1299.896, 10.44044
1300.378, 10.61418
1300.860, 10.54117
1301.342, 10.24438
1301.824, 10.12326
1302.307, 10.28368
##END=



