##NAMES=Brochantite
##RRUFFID=R100199
##IDEAL CHEMISTRY=Cu^2+^_4_S^6+^O_4_(OH)_6_
##LOCALITY=Milpillas mine, Municipio de Santa Cruz, Sonora, Mexico
##OWNER=RRUFF
##SOURCE=Donald K Olson
##DESCRIPTION=Loose green acicular crystals, MDO1 polytype
##STATUS=The identification of this mineral has been confirmed by single-crystal X-ray diffraction.
##URL=rruff.info/R100199
164.7991, 91.72165
165.2812, 93.00476
165.7633, 94.15559
166.2454, 95.42943
166.7276, 97.06157
167.2097, 98.69421
167.6918, 100.0778
168.1739, 101.2361
168.6560, 102.4706
169.1381, 103.9234
169.6203, 105.5214
170.1024, 106.5104
170.5845, 107.5366
171.0666, 108.5216
171.5487, 108.9714
172.0309, 108.9318
172.5130, 108.9923
172.9951, 109.5709
173.4772, 110.5090
173.9593, 111.5669
174.4414, 112.9619
174.9236, 114.2628
175.4057, 114.7311
175.8878, 114.3601
176.3699, 114.1893
176.8520, 115.6118
177.3341, 117.8981
177.8163, 119.4621
178.2984, 119.1009
178.7805, 117.8021
179.2626, 116.9488
179.7447, 116.5819
180.2268, 116.5367
180.7090, 116.8843
181.1911, 117.4767
181.6732, 117.8495
182.1553, 117.5263
182.6374, 116.8728
183.1195, 116.6593
183.6017, 116.9166
184.0838, 117.5095
184.5659, 118.4704
185.0480, 119.7089
185.5301, 120.8135
186.0123, 121.4083
186.4944, 121.6946
186.9765, 122.4278
187.4586, 123.7765
187.9407, 125.0637
188.4228, 125.1510
188.9050, 124.1482
189.3871, 123.1945
189.8692, 122.9292
190.3513, 123.2292
190.8334, 123.5258
191.3155, 123.8273
191.7977, 124.0295
192.2798, 123.7609
192.7619, 123.0227
193.2440, 122.6523
193.7261, 123.3398
194.2082, 124.9661
194.6904, 126.1324
195.1725, 126.7069
195.6546, 126.9292
196.1367, 127.1631
196.6188, 127.4061
197.1009, 127.7054
197.5831, 128.3376
198.0652, 129.3048
198.5473, 129.2966
199.0294, 128.0542
199.5115, 126.0743
199.9937, 124.2982
200.4758, 122.7603
200.9579, 121.3260
201.4400, 119.9482
201.9221, 118.6250
202.4042, 117.3443
202.8864, 116.0725
203.3685, 114.8721
203.8506, 113.8549
204.3327, 113.0029
204.8148, 112.4336
205.2969, 112.3401
205.7791, 112.8269
206.2612, 113.0089
206.7433, 112.7757
207.2254, 112.2565
207.7075, 111.7197
208.1896, 111.0948
208.6718, 110.6537
209.1539, 110.6005
209.6360, 111.0289
210.1181, 111.3779
210.6002, 111.6281
211.0823, 111.7789
211.5645, 111.8453
212.0466, 111.8708
212.5287, 111.7160
213.0108, 111.1896
213.4929, 110.0692
213.9750, 109.4693
214.4572, 109.5904
214.9393, 110.2130
215.4214, 110.7189
215.9035, 111.1124
216.3856, 111.3826
216.8678, 111.5082
217.3499, 111.4645
217.8320, 111.3475
218.3141, 111.1190
218.7962, 110.8287
219.2783, 110.6111
219.7605, 110.3934
220.2426, 110.3766
220.7247, 110.7422
221.2068, 111.7250
221.6889, 112.3892
222.1710, 112.5575
222.6532, 112.4131
223.1353, 112.5387
223.6174, 113.0719
224.0995, 113.6516
224.5816, 114.1046
225.0637, 114.4185
225.5459, 114.6341
226.0280, 114.6550
226.5101, 114.6018
226.9922, 114.9021
227.4743, 115.8870
227.9564, 116.7096
228.4386, 116.9006
228.9207, 116.0788
229.4028, 115.5609
229.8849, 115.5308
230.3670, 115.7745
230.8492, 115.6187
231.3313, 114.6361
231.8134, 113.9009
232.2955, 113.9873
232.7776, 115.4374
233.2597, 116.4411
233.7419, 116.8583
234.2240, 116.8632
234.7061, 116.8627
235.1882, 116.7511
235.6703, 116.7976
236.1524, 117.1680
236.6346, 118.1287
237.1167, 118.7583
237.5988, 118.7480
238.0809, 118.5169
238.5630, 119.1269
239.0451, 121.1254
239.5273, 123.1360
240.0094, 124.6044
240.4915, 125.3797
240.9736, 126.0050
241.4557, 126.5084
241.9378, 126.8507
242.4200, 126.9341
242.9021, 126.6481
243.3842, 126.2736
243.8663, 125.9525
244.3484, 125.8232
244.8306, 125.3208
245.3127, 124.3742
245.7948, 123.0997
246.2769, 121.6436
246.7590, 119.7422
247.2411, 118.1372
247.7233, 117.1527
248.2054, 116.9938
248.6875, 116.6724
249.1696, 116.0405
249.6517, 115.3503
250.1338, 115.0473
250.6160, 115.3511
251.0981, 115.6498
251.5802, 115.7486
252.0623, 115.6121
252.5444, 115.4699
253.0265, 115.3449
253.5087, 115.1978
253.9908, 114.9361
254.4729, 114.3973
254.9550, 114.0749
255.4371, 114.1677
255.9192, 114.7409
256.4014, 115.1844
256.8835, 115.4526
257.3656, 115.6363
257.8477, 115.8810
258.3298, 116.2962
258.8120, 116.5202
259.2941, 116.4133
259.7762, 115.9484
260.2583, 115.5790
260.7404, 115.2911
261.2225, 115.1082
261.7047, 115.1110
262.1868, 115.4682
262.6689, 115.5419
263.1510, 115.0616
263.6331, 114.0557
264.1152, 113.5028
264.5974, 113.5639
265.0795, 113.8360
265.5616, 113.9469
266.0437, 113.8696
266.5258, 113.7301
267.0079, 113.5443
267.4901, 113.3149
267.9722, 113.0356
268.4543, 112.6225
268.9364, 112.3274
269.4185, 112.4200
269.9006, 113.0195
270.3828, 113.4956
270.8649, 113.7590
271.3470, 113.8285
271.8291, 113.7615
272.3112, 113.4934
272.7933, 113.2482
273.2755, 113.2522
273.7576, 113.5704
274.2397, 113.6453
274.7218, 113.3212
275.2039, 112.7604
275.6860, 112.4401
276.1682, 112.3656
276.6503, 112.5010
277.1324, 112.9669
277.6145, 113.8153
278.0966, 114.2646
278.5787, 114.2188
279.0609, 113.7962
279.5430, 113.0674
280.0251, 111.9330
280.5072, 111.1547
280.9893, 111.3434
281.4715, 112.4918
281.9536, 113.3208
282.4357, 113.7486
282.9178, 113.8963
283.3999, 113.9754
283.8820, 113.9904
284.3642, 113.8175
284.8463, 113.1726
285.3284, 112.1369
285.8105, 111.8058
286.2926, 112.3081
286.7747, 113.0970
287.2569, 113.3850
287.7390, 113.1913
288.2211, 113.0695
288.7032, 113.3279
289.1853, 113.8537
289.6674, 114.1363
290.1496, 114.1586
290.6317, 114.0697
291.1138, 113.9979
291.5959, 113.9482
292.0780, 113.9592
292.5602, 114.1240
293.0423, 114.3311
293.5244, 114.2553
294.0065, 113.8888
294.4886, 113.4495
294.9707, 112.9209
295.4529, 112.4321
295.9350, 112.5325
296.4171, 113.7234
296.8992, 115.2376
297.3813, 115.5806
297.8634, 114.8355
298.3456, 113.9331
298.8277, 113.5851
299.3098, 113.6049
299.7919, 113.5613
300.2740, 113.2863
300.7561, 113.0577
301.2383, 113.4326
301.7204, 114.2641
302.2025, 114.8549
302.6846, 114.3696
303.1667, 113.4829
303.6488, 113.3139
304.1310, 114.2215
304.6131, 115.2723
305.0952, 115.4230
305.5773, 114.9497
306.0594, 114.5994
306.5415, 114.9698
307.0237, 115.5606
307.5058, 115.8080
307.9879, 115.6169
308.4700, 115.3644
308.9521, 115.2097
309.4343, 115.2028
309.9164, 115.4227
310.3985, 116.1751
310.8806, 116.9846
311.3627, 117.4699
311.8448, 117.6156
312.3270, 117.6788
312.8091, 117.6930
313.2912, 117.7506
313.7733, 117.9607
314.2554, 118.6128
314.7375, 119.2109
315.2197, 119.4057
315.7018, 119.2518
316.1839, 119.2019
316.6660, 119.6984
317.1481, 120.2637
317.6302, 120.4822
318.1124, 119.8016
318.5945, 119.3281
319.0766, 119.7370
319.5587, 120.7230
320.0408, 121.2345
320.5229, 120.6080
321.0051, 119.6508
321.4872, 118.7843
321.9693, 118.0550
322.4514, 117.4716
322.9335, 117.0395
323.4156, 116.7546
323.8978, 116.6090
324.3799, 116.8796
324.8620, 117.0477
325.3441, 116.8848
325.8262, 116.2388
326.3083, 115.6980
326.7905, 115.4017
327.2726, 115.2022
327.7547, 114.9220
328.2368, 114.2888
328.7189, 113.8494
329.2010, 113.7521
329.6832, 114.0288
330.1653, 114.2990
330.6474, 114.5413
331.1295, 114.7923
331.6116, 115.1183
332.0938, 115.8728
332.5759, 116.1153
333.0580, 115.4754
333.5401, 114.1173
334.0222, 113.3343
334.5043, 113.3540
334.9865, 113.6232
335.4686, 113.7966
335.9507, 113.7532
336.4328, 113.9669
336.9149, 114.5699
337.3970, 115.3987
337.8792, 115.9712
338.3613, 116.2044
338.8434, 116.4421
339.3255, 116.9097
339.8076, 117.6810
340.2898, 118.1071
340.7719, 118.1282
341.2540, 117.9186
341.7361, 117.6704
342.2182, 117.3700
342.7003, 117.2101
343.1825, 117.2970
343.6646, 117.5950
344.1467, 117.7907
344.6288, 117.8307
345.1109, 118.0438
345.5930, 119.0304
346.0752, 120.6645
346.5573, 121.7627
347.0394, 121.8572
347.5215, 121.4061
348.0036, 121.4515
348.4857, 121.9832
348.9679, 122.5798
349.4500, 122.8505
349.9321, 122.9393
350.4142, 123.3306
350.8963, 124.2167
351.3784, 125.1266
351.8606, 125.3043
352.3427, 124.9266
352.8248, 124.6486
353.3069, 124.9581
353.7890, 125.5426
354.2711, 125.9597
354.7533, 126.1546
355.2354, 126.3662
355.7175, 126.8042
356.1996, 127.3955
356.6817, 128.0128
357.1638, 128.5239
357.6460, 129.0965
358.1281, 130.0065
358.6102, 131.2069
359.0923, 132.1642
359.5744, 132.2867
360.0565, 132.1365
360.5387, 132.2579
361.0208, 132.8679
361.5029, 133.6961
361.9850, 134.6733
362.4671, 135.7807
362.9492, 136.9495
363.4314, 138.3769
363.9135, 139.6997
364.3956, 140.7119
364.8777, 141.3301
365.3598, 141.7786
365.8419, 142.0420
366.3241, 142.1806
366.8062, 142.2819
367.2883, 142.1351
367.7704, 142.1663
368.2526, 142.5764
368.7347, 143.4714
369.2168, 144.1461
369.6989, 144.4375
370.1810, 144.6020
370.6631, 144.8485
371.1453, 145.1837
371.6274, 145.5946
372.1095, 146.1118
372.5916, 146.7180
373.0737, 147.2395
373.5558, 147.4677
374.0380, 147.9255
374.5201, 149.0066
375.0022, 150.9939
375.4843, 152.6208
375.9664, 153.7851
376.4485, 154.6227
376.9307, 155.2700
377.4128, 155.5502
377.8949, 156.3786
378.3770, 158.3425
378.8591, 161.3565
379.3412, 163.8127
379.8234, 165.5622
380.3055, 167.2057
380.7876, 169.5600
381.2697, 172.5841
381.7518, 175.1537
382.2339, 176.8484
382.7161, 177.9982
383.1982, 179.3743
383.6803, 180.9592
384.1624, 182.5723
384.6445, 182.9120
385.1266, 183.1914
385.6088, 187.6790
386.0909, 198.6441
386.5730, 208.7475
387.0551, 207.9558
387.5372, 198.9909
388.0193, 189.5767
388.5015, 183.2844
388.9836, 178.9018
389.4657, 175.3890
389.9478, 172.7041
390.4299, 170.3671
390.9120, 168.1323
391.3942, 166.0212
391.8763, 164.0932
392.3584, 162.3354
392.8405, 160.7935
393.3226, 159.6638
393.8047, 158.8354
394.2869, 157.7976
394.7690, 156.2072
395.2511, 154.4453
395.7332, 152.7355
396.2154, 151.1093
396.6975, 149.5521
397.1796, 147.9003
397.6617, 146.3257
398.1438, 145.1306
398.6259, 144.7988
399.1081, 144.4028
399.5902, 143.6521
400.0723, 142.4819
400.5544, 141.3723
401.0365, 140.2080
401.5186, 139.1833
402.0008, 138.5036
402.4829, 138.4552
402.9650, 138.1791
403.4471, 137.4509
403.9292, 136.4213
404.4113, 135.7504
404.8935, 135.5105
405.3756, 135.4499
405.8577, 135.5089
406.3398, 135.7334
406.8219, 135.7155
407.3040, 135.3980
407.7862, 134.9438
408.2683, 134.5647
408.7504, 134.2631
409.2325, 134.0117
409.7146, 133.8117
410.1967, 133.6574
410.6789, 133.5866
411.1610, 133.6107
411.6431, 133.4695
412.1252, 132.7050
412.6073, 131.5810
413.0894, 130.8740
413.5716, 130.8033
414.0537, 131.0758
414.5358, 131.5035
415.0179, 132.0141
415.5000, 132.3882
415.9821, 132.2029
416.4643, 131.9755
416.9464, 132.3538
417.4285, 133.4213
417.9106, 134.4635
418.3927, 135.1022
418.8748, 135.4246
419.3570, 135.5241
419.8391, 135.1935
420.3212, 134.8800
420.8033, 134.7850
421.2854, 134.8742
421.7675, 134.9769
422.2497, 135.2437
422.7318, 135.3632
423.2139, 135.0903
423.6960, 134.0148
424.1781, 133.3978
424.6602, 133.8448
425.1424, 134.7072
425.6245, 135.0285
426.1066, 134.4409
426.5887, 133.7677
427.0709, 133.1551
427.5530, 132.6025
428.0351, 132.0707
428.5172, 131.5606
428.9993, 131.0588
429.4814, 130.5896
429.9636, 130.2171
430.4457, 129.5515
430.9278, 128.3519
431.4099, 127.0481
431.8920, 126.7217
432.3741, 127.4962
432.8563, 128.2670
433.3384, 128.4673
433.8205, 128.1994
434.3026, 128.1991
434.7847, 128.4994
435.2668, 128.8028
435.7490, 128.6724
436.2311, 128.2630
436.7132, 128.1317
437.1953, 128.4521
437.6774, 129.0786
438.1595, 130.0031
438.6417, 131.1287
439.1238, 132.0529
439.6059, 132.3344
440.0880, 132.3936
440.5701, 132.6202
441.0522, 133.0425
441.5344, 133.7570
442.0165, 135.0528
442.4986, 136.6002
442.9807, 137.9887
443.4628, 139.0830
443.9449, 139.9931
444.4271, 140.6746
444.9092, 141.1708
445.3913, 141.7251
445.8734, 142.4548
446.3555, 143.1986
446.8376, 143.8694
447.3198, 144.4111
447.8019, 144.9866
448.2840, 145.8436
448.7661, 146.6304
449.2482, 146.8212
449.7303, 146.0694
450.2125, 145.3044
450.6946, 144.7082
451.1767, 144.2696
451.6588, 143.8777
452.1409, 143.5823
452.6230, 143.2133
453.1052, 142.6572
453.5873, 141.9042
454.0694, 141.0139
454.5515, 139.9700
455.0337, 138.8377
455.5158, 137.6215
455.9979, 136.3382
456.4800, 135.4107
456.9621, 135.2906
457.4442, 135.5628
457.9264, 135.1120
458.4085, 133.9696
458.8906, 132.9020
459.3727, 132.6372
459.8548, 132.8405
460.3369, 132.9805
460.8191, 132.9122
461.3012, 132.8363
461.7833, 132.8648
462.2654, 133.0075
462.7475, 133.2834
463.2296, 133.7330
463.7118, 134.2950
464.1939, 134.9519
464.6760, 135.7079
465.1581, 136.4997
465.6402, 137.3902
466.1223, 138.2502
466.6045, 138.9762
467.0866, 139.2957
467.5687, 139.7927
468.0508, 140.4895
468.5329, 141.3857
469.0150, 142.5189
469.4972, 144.0491
469.9793, 145.5506
470.4614, 146.8660
470.9435, 147.9842
471.4256, 149.1461
471.9077, 150.3435
472.3899, 151.6057
472.8720, 152.9763
473.3541, 154.4855
473.8362, 155.8997
474.3183, 157.0617
474.8004, 158.3294
475.2826, 160.6928
475.7647, 164.0579
476.2468, 167.0969
476.7289, 168.7694
477.2110, 169.7137
477.6931, 171.3985
478.1753, 173.8388
478.6574, 176.3296
479.1395, 178.5676
479.6216, 180.4079
480.1037, 181.5385
480.5858, 181.4931
481.0680, 181.4568
481.5501, 182.7167
482.0322, 184.5734
482.5143, 185.5521
482.9964, 184.7282
483.4786, 183.2007
483.9607, 181.3831
484.4428, 179.3150
484.9249, 177.0880
485.4070, 174.8774
485.8892, 172.4408
486.3713, 169.5768
486.8534, 165.7426
487.3355, 162.3241
487.8176, 159.3649
488.2997, 156.8428
488.7819, 154.6844
489.2640, 152.9850
489.7461, 151.4117
490.2282, 149.8435
490.7103, 148.2782
491.1924, 146.9263
491.6746, 145.7841
492.1567, 144.8284
492.6388, 144.0876
493.1209, 143.5369
493.6030, 143.0384
494.0851, 142.5496
494.5673, 142.1458
495.0494, 142.0388
495.5315, 142.1384
496.0136, 142.1240
496.4957, 141.4878
496.9778, 140.8728
497.4600, 141.2139
497.9421, 142.4048
498.4242, 143.3814
498.9063, 143.1304
499.3884, 142.6060
499.8705, 142.7078
500.3527, 143.9177
500.8348, 144.9900
501.3169, 145.4533
501.7990, 145.5106
502.2811, 145.4463
502.7632, 145.0073
503.2454, 144.7769
503.7275, 144.9878
504.2096, 145.5889
504.6917, 146.0352
505.1738, 146.2945
505.6559, 146.4413
506.1381, 146.5429
506.6202, 146.6696
507.1023, 146.3884
507.5844, 145.5052
508.0665, 144.5676
508.5486, 144.5634
509.0308, 145.5263
509.5129, 145.8223
509.9950, 144.7324
510.4771, 143.0132
510.9592, 142.4324
511.4413, 142.8751
511.9235, 143.2287
512.4056, 142.7361
512.8877, 141.7287
513.3698, 140.5203
513.8519, 139.0978
514.3340, 138.0523
514.8162, 138.2542
515.2983, 138.9216
515.7804, 139.1157
516.2625, 138.3698
516.7446, 137.3421
517.2267, 135.8833
517.7089, 134.3300
518.1910, 133.5280
518.6731, 134.6531
519.1552, 135.6269
519.6373, 135.6555
520.1194, 134.6573
520.6016, 133.6112
521.0837, 132.2800
521.5658, 131.1748
522.0479, 130.8044
522.5300, 131.5321
523.0121, 131.6180
523.4943, 130.7597
523.9764, 129.4592
524.4585, 128.6014
524.9406, 128.2082
525.4227, 127.8830
525.9048, 127.5147
526.3870, 127.1056
526.8691, 126.6320
527.3513, 126.0968
527.8334, 125.5710
528.3155, 125.0223
528.7976, 124.5395
529.2797, 124.3260
529.7618, 124.4647
530.2440, 124.4937
530.7261, 123.9442
531.2082, 123.1345
531.6903, 122.4824
532.1724, 122.1946
532.6545, 122.0006
533.1367, 121.8576
533.6188, 121.7440
534.1009, 121.5795
534.5830, 121.3820
535.0651, 121.1020
535.5472, 120.6946
536.0294, 120.1235
536.5115, 119.6549
536.9936, 119.2537
537.4757, 119.0046
537.9578, 119.0515
538.4399, 119.4751
538.9221, 119.6857
539.4042, 119.6143
539.8863, 119.3252
540.3684, 118.8108
540.8505, 118.1039
541.3326, 117.6130
541.8148, 117.6913
542.2969, 117.9760
542.7790, 117.6984
543.2611, 116.9388
543.7432, 116.3272
544.2253, 116.4027
544.7075, 116.7829
545.1896, 117.1123
545.6717, 117.3558
546.1538, 117.4696
546.6359, 117.2514
547.1180, 116.9683
547.6002, 116.9069
548.0823, 117.5966
548.5644, 117.9798
549.0465, 117.6535
549.5286, 116.8738
550.0107, 116.3788
550.4929, 116.2323
550.9750, 116.2812
551.4571, 116.5532
551.9392, 117.0508
552.4213, 117.2860
552.9034, 117.2030
553.3856, 117.0369
553.8677, 116.9901
554.3498, 117.0475
554.8319, 117.0001
555.3140, 116.7988
555.7961, 116.5944
556.2783, 116.6153
556.7604, 116.7971
557.2425, 116.9610
557.7246, 117.0521
558.2067, 117.0872
558.6888, 117.1263
559.1710, 117.1347
559.6531, 116.9875
560.1352, 116.4172
560.6173, 115.8392
561.0994, 115.4754
561.5815, 115.3430
562.0637, 115.4224
562.5458, 116.0400
563.0279, 116.6516
563.5100, 116.8552
563.9921, 116.3116
564.4742, 115.9472
564.9564, 115.7960
565.4385, 115.8184
565.9206, 115.9664
566.4027, 116.2502
566.8848, 116.6238
567.3669, 117.1877
567.8491, 117.7694
568.3312, 117.6415
568.8133, 116.8341
569.2954, 116.1193
569.7775, 116.1034
570.2596, 116.4920
570.7418, 116.7861
571.2239, 116.9597
571.7060, 117.0360
572.1881, 116.9731
572.6702, 116.8509
573.1523, 116.7561
573.6345, 116.7171
574.1166, 116.6976
574.5987, 116.6980
575.0808, 116.7069
575.5629, 116.7061
576.0450, 116.5544
576.5272, 116.5555
577.0093, 116.8607
577.4914, 117.3994
577.9735, 117.6813
578.4556, 117.5619
578.9377, 117.4810
579.4199, 117.6408
579.9020, 118.0423
580.3841, 118.6927
580.8662, 119.6550
581.3483, 120.5293
581.8304, 120.7155
582.3126, 120.4459
582.7947, 120.5858
583.2768, 121.4013
583.7589, 122.3392
584.2410, 122.7380
584.7231, 122.8309
585.2053, 123.0799
585.6874, 123.8329
586.1696, 124.6483
586.6517, 125.2481
587.1338, 125.6905
587.6159, 126.2506
588.0980, 127.0028
588.5801, 127.8794
589.0623, 128.8826
589.5444, 130.0314
590.0265, 131.1266
590.5086, 132.0445
590.9907, 133.0675
591.4728, 134.5138
591.9550, 136.4885
592.4371, 138.0953
592.9192, 139.1624
593.4013, 140.0705
593.8834, 141.5273
594.3655, 143.4029
594.8477, 144.8789
595.3298, 145.7100
595.8119, 145.9748
596.2940, 145.6821
596.7761, 144.8862
597.2582, 143.7611
597.7404, 142.6092
598.2225, 140.9951
598.7046, 138.1453
599.1867, 134.0673
599.6688, 130.9287
600.1509, 129.8166
600.6331, 129.4887
601.1152, 129.2263
601.5973, 128.9414
602.0794, 128.8257
602.5615, 128.9499
603.0436, 129.1765
603.5258, 129.3591
604.0079, 129.4949
604.4900, 129.5668
604.9721, 129.4833
605.4542, 129.4664
605.9363, 130.1063
606.4185, 131.3216
606.9006, 132.4287
607.3827, 132.9621
607.8648, 133.2870
608.3469, 134.0522
608.8290, 135.1521
609.3112, 135.9499
609.7933, 136.0212
610.2754, 135.6872
610.7575, 135.1308
611.2396, 134.3592
611.7217, 133.5450
612.2039, 132.7310
612.6860, 131.9023
613.1681, 131.0160
613.6502, 129.7473
614.1323, 129.0258
614.6144, 129.1451
615.0966, 129.5704
615.5787, 129.3949
616.0608, 128.4472
616.5429, 128.0779
617.0250, 128.8232
617.5071, 130.0771
617.9893, 130.4751
618.4714, 130.0811
618.9535, 129.3928
619.4356, 128.3239
619.9177, 127.2920
620.3998, 126.9769
620.8820, 127.3025
621.3641, 127.5322
621.8462, 127.0961
622.3283, 126.5156
622.8104, 126.2229
623.2925, 126.3916
623.7747, 126.3459
624.2568, 125.8513
624.7389, 125.1577
625.2210, 124.4648
625.7031, 123.8008
626.1852, 123.0135
626.6674, 121.9060
627.1495, 120.8971
627.6316, 120.9268
628.1137, 122.0559
628.5958, 122.6956
629.0779, 122.2324
629.5601, 121.1989
630.0422, 120.5771
630.5243, 120.3156
631.0064, 120.1397
631.4885, 119.9692
631.9706, 119.7683
632.4528, 119.4516
632.9349, 119.0394
633.4170, 118.7287
633.8991, 118.5524
634.3812, 118.5470
634.8633, 118.7866
635.3455, 119.4169
635.8276, 119.8342
636.3097, 119.9268
636.7918, 119.8918
637.2739, 119.8942
637.7560, 119.9571
638.2382, 119.9266
638.7203, 119.7243
639.2024, 119.5467
639.6845, 119.8020
640.1666, 120.4216
640.6487, 120.8414
641.1309, 120.8382
641.6130, 120.6295
642.0951, 120.4811
642.5772, 120.3704
643.0594, 120.2436
643.5415, 120.0853
644.0236, 119.8914
644.5057, 119.6587
644.9879, 119.3872
645.4700, 119.0832
645.9521, 118.4644
646.4342, 118.0844
646.9163, 118.2689
647.3984, 119.1604
647.8806, 119.6717
648.3627, 119.7253
648.8448, 119.5623
649.3269, 119.3754
649.8090, 119.1650
650.2911, 118.7423
650.7733, 118.0239
651.2554, 117.3828
651.7375, 117.3138
652.2196, 117.6615
652.7017, 118.0777
653.1838, 118.5757
653.6660, 118.8914
654.1481, 118.6949
654.6302, 118.1926
655.1123, 117.7465
655.5944, 117.2547
656.0765, 117.0715
656.5587, 117.5374
657.0408, 118.4646
657.5229, 118.9897
658.0050, 118.9627
658.4871, 118.7619
658.9692, 118.4856
659.4514, 118.1390
659.9335, 117.7335
660.4156, 117.2444
660.8977, 116.9075
661.3798, 116.9811
661.8619, 117.3341
662.3441, 117.6300
662.8262, 117.8499
663.3083, 118.0292
663.7904, 118.3073
664.2725, 118.5082
664.7546, 118.4054
665.2368, 117.8441
665.7189, 117.2831
666.2010, 116.6777
666.6831, 116.2375
667.1652, 116.2317
667.6473, 117.0171
668.1295, 117.6589
668.6116, 118.1497
669.0937, 118.4282
669.5758, 118.2890
670.0579, 117.6810
670.5400, 117.1583
671.0222, 116.9325
671.5043, 116.8351
671.9864, 116.3564
672.4685, 115.6176
672.9506, 115.2245
673.4327, 115.9211
673.9149, 116.8185
674.3970, 117.0391
674.8791, 116.6619
675.3612, 116.3887
675.8433, 116.7081
676.3254, 117.0253
676.8076, 116.9943
677.2897, 116.5289
677.7718, 116.1633
678.2539, 115.9215
678.7360, 115.7567
679.2181, 115.5784
679.7003, 115.3504
680.1824, 115.6523
680.6645, 116.6331
681.1466, 117.5865
681.6287, 117.5820
682.1108, 116.9305
682.5930, 116.4975
683.0751, 116.4815
683.5572, 116.6028
684.0393, 116.7256
684.5214, 116.8016
685.0035, 116.7639
685.4857, 116.4813
685.9678, 116.2058
686.4499, 115.8309
686.9320, 115.5334
687.4141, 115.7325
687.8962, 116.8848
688.3784, 117.6522
688.8605, 117.6370
689.3426, 117.0750
689.8247, 116.7317
690.3068, 116.6079
690.7889, 116.6417
691.2711, 116.9223
691.7532, 117.2862
692.2353, 117.3888
692.7174, 117.2552
693.1995, 117.0489
693.6816, 116.8572
694.1638, 116.6400
694.6459, 116.2617
695.1280, 115.6972
695.6101, 115.4991
696.0922, 116.2720
696.5743, 117.0571
697.0565, 117.2886
697.5386, 116.7585
698.0207, 116.6127
698.5028, 117.0190
698.9849, 117.4570
699.4670, 117.3312
699.9492, 116.7155
700.4313, 116.3937
700.9135, 116.4724
701.3956, 116.7535
701.8777, 117.1750
702.3598, 117.6142
702.8419, 117.8323
703.3240, 117.6182
703.8062, 117.4630
704.2883, 117.7502
704.7704, 118.2147
705.2525, 118.4653
705.7346, 118.0842
706.2167, 117.9563
706.6989, 118.3195
707.1810, 118.9191
707.6631, 119.1447
708.1452, 118.9216
708.6273, 118.7683
709.1094, 118.8729
709.5916, 119.1155
710.0737, 119.1942
710.5558, 119.1461
711.0379, 119.1639
711.5200, 119.4607
712.0021, 119.7853
712.4843, 119.9060
712.9664, 119.8487
713.4485, 119.7722
713.9306, 119.5984
714.4127, 119.5411
714.8948, 119.7540
715.3770, 120.2400
715.8591, 120.6722
716.3412, 121.1356
716.8233, 121.3755
717.3054, 121.0510
717.7875, 120.2059
718.2697, 120.1595
718.7518, 120.9630
719.2339, 121.8759
719.7160, 122.2831
720.1981, 122.3746
720.6802, 122.4174
721.1624, 122.4348
721.6445, 122.5111
722.1266, 122.7285
722.6087, 123.0069
723.0908, 123.2818
723.5729, 123.5621
724.0551, 123.7859
724.5372, 123.8930
725.0193, 123.9950
725.5014, 124.2540
725.9835, 124.7385
726.4656, 124.9252
726.9478, 124.6942
727.4299, 124.3332
727.9120, 124.2818
728.3941, 124.4447
728.8762, 124.5374
729.3583, 124.5096
729.8405, 124.3231
730.3226, 123.7052
730.8047, 122.9554
731.2868, 122.5868
731.7689, 123.4028
732.2510, 123.8508
732.7332, 123.1395
733.2153, 121.9278
733.6974, 121.6333
734.1795, 122.7532
734.6616, 123.3912
735.1437, 122.9005
735.6259, 121.7881
736.1080, 121.3940
736.5901, 121.6489
737.0722, 121.9433
737.5543, 122.1233
738.0364, 122.0836
738.5186, 121.4595
739.0007, 120.4590
739.4828, 119.8048
739.9649, 120.1256
740.4470, 120.5596
740.9291, 120.7057
741.4113, 120.5754
741.8934, 120.6094
742.3755, 120.9998
742.8576, 121.1972
743.3397, 120.8508
743.8218, 120.0751
744.3040, 119.8461
744.7861, 120.1750
745.2682, 120.6918
745.7503, 121.3488
746.2324, 121.9492
746.7145, 122.0292
747.1967, 121.6200
747.6788, 121.3619
748.1609, 121.7784
748.6430, 122.3343
749.1251, 122.7349
749.6072, 122.9699
750.0894, 122.8680
750.5715, 122.0656
751.0536, 121.4102
751.5357, 121.5490
752.0178, 122.5772
752.4999, 123.2368
752.9821, 123.5020
753.4642, 123.5877
753.9463, 123.6742
754.4284, 123.7306
754.9105, 123.6134
755.3926, 123.2656
755.8748, 123.1349
756.3569, 123.7113
756.8390, 124.5122
757.3211, 125.1460
757.8032, 125.6385
758.2853, 125.6806
758.7675, 124.7889
759.2496, 123.9270
759.7318, 124.0897
760.2139, 125.4527
760.6960, 126.4837
761.1781, 127.0314
761.6602, 127.3251
762.1423, 127.6260
762.6245, 127.8932
763.1066, 127.9707
763.5887, 127.7297
764.0708, 127.6266
764.5529, 128.1275
765.0350, 128.8870
765.5172, 129.4953
765.9993, 129.9363
766.4814, 130.0809
766.9635, 129.5824
767.4456, 129.0525
767.9277, 129.4744
768.4099, 131.0899
768.8920, 131.9796
769.3741, 131.6778
769.8562, 130.9524
770.3383, 130.9611
770.8204, 131.4669
771.3026, 131.8329
771.7847, 131.8499
772.2668, 131.7002
772.7489, 131.4080
773.2310, 131.0582
773.7131, 130.7868
774.1953, 130.5637
774.6774, 130.5141
775.1595, 130.7246
775.6416, 131.0695
776.1237, 131.3482
776.6058, 131.5726
777.0880, 131.6134
777.5701, 131.3763
778.0522, 131.0544
778.5343, 131.0390
779.0164, 131.2136
779.4985, 131.2446
779.9807, 130.9890
780.4628, 130.5553
780.9449, 129.8481
781.4270, 129.0285
781.9091, 128.4164
782.3912, 128.1509
782.8734, 128.0363
783.3555, 128.1638
783.8376, 128.3730
784.3197, 128.2060
784.8018, 127.6229
785.2839, 127.1378
785.7661, 126.9228
786.2482, 126.8739
786.7303, 126.9286
787.2124, 127.0159
787.6945, 126.9353
788.1766, 126.2849
788.6588, 125.7530
789.1409, 125.9076
789.6230, 126.4541
790.1051, 126.5335
790.5872, 125.7271
791.0693, 124.9781
791.5515, 124.4630
792.0336, 124.1337
792.5157, 123.8555
792.9978, 123.6285
793.4799, 123.5532
793.9620, 123.7359
794.4442, 124.0088
794.9263, 124.1608
795.4084, 124.2018
795.8905, 124.1632
796.3726, 124.0614
796.8547, 123.8792
797.3369, 123.4982
797.8190, 123.0197
798.3011, 122.7735
798.7832, 122.7976
799.2653, 122.9978
799.7474, 123.4357
800.2296, 123.9709
800.7117, 124.2435
801.1938, 124.2560
801.6759, 124.0202
802.1580, 123.3519
802.6401, 122.6446
803.1223, 122.4182
803.6044, 122.5252
804.0865, 122.5821
804.5686, 122.3892
805.0507, 122.1909
805.5328, 122.0016
806.0150, 121.8713
806.4971, 121.9505
806.9792, 122.2944
807.4613, 122.7128
807.9434, 123.2863
808.4255, 123.7560
808.9077, 123.2470
809.3898, 122.0156
809.8719, 121.2356
810.3540, 121.9196
810.8361, 122.7261
811.3182, 122.3714
811.8004, 121.3375
812.2825, 120.7613
812.7646, 121.5034
813.2467, 122.0120
813.7288, 121.7515
814.2109, 121.1718
814.6931, 121.6331
815.1752, 123.3207
815.6573, 124.3344
816.1394, 123.9352
816.6215, 122.9135
817.1037, 122.4730
817.5858, 122.4864
818.0679, 122.6073
818.5500, 122.8344
819.0322, 122.9730
819.5143, 122.7764
819.9964, 122.4420
820.4785, 122.4185
820.9606, 123.0593
821.4427, 123.3532
821.9249, 123.0160
822.4070, 122.3871
822.8891, 122.2008
823.3712, 122.4154
823.8533, 122.5826
824.3354, 122.6041
824.8176, 122.4720
825.2997, 121.8780
825.7818, 121.1900
826.2639, 121.0485
826.7460, 122.3969
827.2281, 123.4281
827.7103, 123.6001
828.1924, 123.3026
828.6745, 122.9539
829.1566, 122.4579
829.6387, 122.3579
830.1208, 122.8362
830.6030, 123.4917
831.0851, 123.6301
831.5672, 123.4360
832.0493, 123.4643
832.5314, 123.9893
833.0135, 124.4217
833.4957, 124.3125
833.9778, 123.8986
834.4599, 123.4541
834.9420, 122.7190
835.4241, 122.4655
835.9063, 122.9316
836.3884, 123.5983
836.8705, 123.7742
837.3526, 123.4809
837.8347, 123.5391
838.3168, 124.1181
838.7990, 124.6843
839.2811, 124.5097
839.7632, 124.0454
840.2453, 123.9573
840.7274, 124.5095
841.2095, 124.9701
841.6917, 125.0757
842.1738, 124.9949
842.6559, 124.8394
843.1380, 124.5396
843.6201, 124.4047
844.1022, 124.4373
844.5844, 124.6254
845.0665, 125.1427
845.5486, 125.7915
846.0307, 125.8870
846.5128, 125.3563
846.9949, 124.9850
847.4771, 125.5427
847.9592, 126.2960
848.4413, 126.6098
848.9234, 126.2676
849.4055, 126.3708
849.8876, 127.3308
850.3698, 128.1139
850.8519, 127.9950
851.3340, 127.0624
851.8161, 126.4101
852.2982, 126.0368
852.7803, 125.8965
853.2625, 126.1571
853.7446, 126.4996
854.2267, 126.5085
854.7088, 126.2085
855.1909, 126.0863
855.6730, 126.5392
856.1552, 126.9515
856.6373, 127.0638
857.1194, 126.9204
857.6015, 126.8571
858.0836, 126.8682
858.5657, 127.0249
859.0479, 127.5355
859.5300, 128.0950
860.0121, 127.9486
860.4942, 127.2991
860.9763, 126.8568
861.4584, 127.1581
861.9406, 127.5713
862.4227, 127.7887
862.9048, 127.8840
863.3869, 128.1278
863.8690, 128.5709
864.3511, 129.0719
864.8333, 129.7068
865.3154, 130.2482
865.7975, 130.1057
866.2796, 129.4239
866.7617, 128.8185
867.2438, 128.4303
867.7260, 128.3037
868.2081, 128.5487
868.6902, 129.0516
869.1723, 129.6350
869.6544, 130.5800
870.1365, 131.1655
870.6187, 131.3572
871.1008, 131.1746
871.5829, 130.4049
872.0650, 129.1045
872.5471, 128.4650
873.0292, 128.7290
873.5114, 129.3544
873.9935, 130.0766
874.4756, 130.6955
874.9577, 130.9150
875.4399, 130.5586
875.9220, 130.1970
876.4041, 129.8765
876.8862, 129.6810
877.3683, 129.8165
877.8505, 130.4590
878.3326, 129.9654
878.8147, 128.1555
879.2968, 126.5317
879.7789, 126.6502
880.2610, 127.7241
880.7432, 128.5450
881.2253, 129.0284
881.7074, 129.3949
882.1895, 129.7478
882.6716, 130.0114
883.1537, 130.0981
883.6359, 130.0240
884.1180, 130.1055
884.6001, 130.4222
885.0822, 130.5595
885.5643, 130.1966
886.0464, 129.5884
886.5286, 129.2276
887.0107, 129.1416
887.4928, 129.4463
887.9749, 130.7079
888.4570, 131.8544
888.9391, 132.2784
889.4213, 132.1375
889.9034, 131.9514
890.3855, 131.5006
890.8676, 131.6411
891.3497, 132.8076
891.8318, 134.2743
892.3140, 134.5255
892.7961, 133.8665
893.2782, 133.4806
893.7603, 133.7053
894.2424, 134.3409
894.7245, 135.5335
895.2067, 136.9188
895.6888, 138.0622
896.1709, 138.7080
896.6530, 139.3850
897.1351, 140.0884
897.6172, 140.8224
898.0994, 141.5940
898.5815, 142.3980
899.0636, 143.1214
899.5457, 143.7307
900.0278, 144.5158
900.5099, 146.1173
900.9921, 147.7437
901.4742, 148.5361
901.9563, 148.2409
902.4384, 148.3591
902.9205, 149.0250
903.4026, 150.1594
903.8848, 151.9417
904.3669, 154.2235
904.8490, 155.8762
905.3311, 156.9013
905.8132, 157.5882
906.2953, 157.8526
906.7775, 158.0718
907.2596, 158.6134
907.7417, 159.4333
908.2238, 160.3725
908.7059, 161.9972
909.1880, 162.9300
909.6702, 162.7388
910.1523, 161.7924
910.6344, 160.9101
911.1165, 160.0907
911.5986, 159.2148
912.0807, 158.1816
912.5629, 157.2537
913.0450, 156.9986
913.5271, 156.9583
914.0092, 156.4165
914.4913, 154.8542
914.9734, 153.3766
915.4556, 152.1330
915.9377, 151.0518
916.4198, 150.0813
916.9019, 149.2225
917.3840, 148.4893
917.8661, 147.8959
918.3483, 147.2744
918.8304, 146.4940
919.3125, 145.5764
919.7946, 144.4135
920.2767, 143.0019
920.7589, 141.9668
921.2410, 141.8532
921.7231, 141.7999
922.2052, 141.5029
922.6873, 140.9718
923.1694, 140.2110
923.6516, 139.2162
924.1337, 138.3337
924.6158, 137.7675
925.0979, 137.3810
925.5800, 137.0020
926.0621, 136.6632
926.5443, 136.4430
927.0264, 136.6033
927.5085, 136.5778
927.9906, 136.1229
928.4727, 135.5184
928.9548, 135.2236
929.4370, 135.2461
929.9191, 135.4584
930.4012, 135.9080
930.8833, 136.2373
931.3654, 135.6794
931.8475, 134.9075
932.3297, 134.9771
932.8118, 136.4495
933.2939, 137.4256
933.7761, 137.2119
934.2582, 136.6143
934.7403, 136.0111
935.2224, 135.3921
935.7045, 134.9447
936.1866, 134.6636
936.6688, 134.5955
937.1509, 135.1115
937.6330, 135.6260
938.1151, 135.2231
938.5972, 134.1181
939.0793, 133.4937
939.5615, 134.3275
940.0436, 134.9167
940.5257, 134.7202
941.0078, 134.0708
941.4899, 133.9273
941.9720, 134.2646
942.4542, 134.3508
942.9363, 133.8421
943.4184, 133.3382
943.9005, 133.5975
944.3826, 134.2287
944.8647, 134.6882
945.3469, 134.7064
945.8290, 134.8192
946.3111, 135.2314
946.7932, 135.5440
947.2753, 135.2465
947.7574, 134.3908
948.2396, 134.3016
948.7217, 135.0289
949.2038, 135.6223
949.6859, 134.8340
950.1680, 133.9596
950.6501, 134.3448
951.1323, 135.9778
951.6144, 137.2527
952.0965, 137.9310
952.5786, 138.2808
953.0607, 138.2357
953.5428, 138.0123
954.0250, 138.3106
954.5071, 139.0557
954.9892, 139.7833
955.4713, 140.1150
955.9534, 140.6953
956.4355, 142.1353
956.9177, 144.0759
957.3998, 146.0245
957.8819, 147.8658
958.3640, 149.7975
958.8461, 151.7943
959.3282, 153.9617
959.8104, 156.2649
960.2925, 158.7970
960.7746, 162.0084
961.2567, 165.9417
961.7388, 169.6838
962.2209, 172.2285
962.7031, 174.7907
963.1852, 178.1199
963.6673, 182.2339
964.1494, 186.8574
964.6315, 191.9639
965.1136, 197.5222
965.5958, 203.5618
966.0779, 210.0146
966.5600, 216.5318
967.0421, 223.4031
967.5242, 231.2470
968.0063, 241.0089
968.4885, 250.9253
968.9706, 260.6506
969.4527, 270.0695
969.9348, 279.2998
970.4169, 288.4546
970.8990, 296.8856
971.3812, 304.7166
971.8633, 310.8072
972.3454, 314.1381
972.8275, 314.8365
973.3096, 312.8070
973.7917, 308.0648
974.2739, 301.8658
974.7560, 294.1519
975.2381, 285.5211
975.7202, 275.7520
976.2023, 265.2555
976.6844, 255.9224
977.1666, 247.6750
977.6487, 239.9724
978.1308, 232.4780
978.6129, 225.7681
979.0950, 220.7306
979.5771, 216.7881
980.0593, 212.9518
980.5414, 208.4615
981.0235, 204.9254
981.5056, 202.7285
981.9877, 200.9560
982.4698, 198.5481
982.9520, 195.6605
983.4341, 193.3201
983.9162, 191.5875
984.3983, 190.0394
984.8804, 188.4613
985.3625, 186.8715
985.8447, 185.2343
986.3268, 183.5702
986.8089, 182.2288
987.2910, 181.4122
987.7731, 180.3275
988.2552, 178.6009
988.7374, 176.6160
989.2195, 175.3488
989.7016, 174.4764
990.1837, 173.1065
990.6658, 170.4916
991.1479, 168.2304
991.6301, 167.1387
992.1122, 166.6373
992.5944, 166.2960
993.0765, 166.3294
993.5586, 165.1961
994.0407, 162.7507
994.5228, 160.1784
995.0049, 158.4984
995.4871, 157.2421
995.9692, 155.7389
996.4513, 154.0114
996.9334, 152.4791
997.4155, 151.5385
997.8976, 150.4885
998.3798, 149.1653
998.8619, 147.6315
999.3440, 145.7953
999.8261, 143.7392
1000.308, 142.4228
1000.790, 142.3161
1001.272, 142.2572
1001.755, 141.0013
1002.237, 139.4183
1002.719, 138.5143
1003.201, 138.7349
1003.683, 138.5629
1004.165, 137.8998
1004.647, 137.0893
1005.129, 136.2265
1005.612, 135.4082
1006.094, 134.9957
1006.576, 134.9037
1007.058, 134.7077
1007.540, 134.2106
1008.022, 133.5511
1008.504, 132.5046
1008.986, 131.4322
1009.468, 130.9984
1009.951, 131.2843
1010.433, 131.6198
1010.915, 131.9452
1011.397, 132.1039
1011.879, 131.9116
1012.361, 131.4543
1012.843, 130.6744
1013.325, 129.4655
1013.807, 128.9028
1014.290, 129.7367
1014.772, 130.3639
1015.254, 129.9358
1015.736, 128.7957
1016.218, 128.4501
1016.700, 128.7544
1017.182, 128.8664
1017.664, 128.1996
1018.147, 127.4947
1018.629, 127.1392
1019.111, 127.0847
1019.593, 127.2834
1020.075, 127.9077
1020.557, 128.1961
1021.039, 128.0591
1021.521, 127.8175
1022.003, 127.8683
1022.486, 127.9859
1022.968, 127.6750
1023.450, 126.9578
1023.932, 126.3944
1024.414, 126.2252
1024.896, 126.2453
1025.378, 126.4727
1025.860, 126.7884
1026.343, 126.8430
1026.825, 126.6484
1027.307, 126.3686
1027.789, 126.0284
1028.271, 125.6784
1028.753, 125.2659
1029.235, 124.9208
1029.717, 124.8330
1030.199, 125.1575
1030.682, 125.2127
1031.164, 124.8588
1031.646, 124.6287
1032.128, 124.9937
1032.610, 125.6741
1033.092, 125.9546
1033.574, 125.9068
1034.056, 125.7853
1034.539, 125.6850
1035.021, 125.5519
1035.503, 125.3062
1035.985, 125.0590
1036.467, 124.9202
1036.949, 124.8869
1037.431, 125.2282
1037.913, 126.0275
1038.396, 126.6245
1038.878, 126.2500
1039.360, 125.5263
1039.842, 124.9435
1040.324, 124.5619
1040.806, 124.5158
1041.288, 125.0189
1041.770, 125.3419
1042.252, 125.2353
1042.734, 124.8436
1043.217, 124.2589
1043.699, 123.6437
1044.181, 123.4538
1044.663, 124.0073
1045.145, 124.5668
1045.627, 124.8972
1046.109, 125.0781
1046.591, 125.1626
1047.074, 125.1510
1047.556, 125.0015
1048.038, 124.7127
1048.520, 124.4274
1049.002, 124.2086
1049.484, 124.0662
1049.966, 124.0484
1050.448, 124.1128
1050.931, 124.1238
1051.413, 123.9041
1051.895, 124.0564
1052.377, 124.8117
1052.859, 125.5485
1053.341, 125.3085
1053.823, 124.5334
1054.305, 124.2417
1054.787, 124.5526
1055.270, 124.8786
1055.752, 125.0271
1056.234, 125.0498
1056.716, 124.9451
1057.198, 124.7474
1057.680, 124.5555
1058.162, 124.3768
1058.644, 124.3429
1059.126, 124.5219
1059.609, 124.7923
1060.091, 125.1438
1060.573, 125.4683
1061.055, 125.6031
1061.537, 125.4373
1062.019, 125.5248
1062.501, 125.9558
1062.983, 126.3148
1063.466, 126.3060
1063.948, 126.0551
1064.430, 125.5170
1064.912, 124.9187
1065.394, 124.9388
1065.876, 126.7821
1066.358, 127.9505
1066.840, 127.7285
1067.323, 127.0499
1067.805, 127.0599
1068.287, 127.6695
1068.769, 128.3276
1069.251, 128.9863
1069.733, 129.4561
1070.215, 129.5582
1070.697, 129.4590
1071.179, 129.0153
1071.661, 128.4301
1072.144, 128.6965
1072.626, 129.9929
1073.108, 130.8842
1073.590, 130.9381
1074.072, 130.6340
1074.554, 130.2724
1075.036, 130.0654
1075.518, 130.4695
1076.001, 131.8825
1076.483, 132.2918
1076.965, 131.0823
1077.447, 129.8836
1077.929, 129.5826
1078.411, 129.8742
1078.893, 129.9648
1079.375, 129.8856
1079.858, 129.7363
1080.340, 129.4931
1080.822, 129.2706
1081.304, 129.1011
1081.786, 128.9705
1082.268, 128.8873
1082.750, 128.8529
1083.232, 128.7482
1083.714, 128.5700
1084.197, 128.3902
1084.679, 128.2352
1085.161, 128.1231
1085.643, 128.1292
1086.125, 128.1915
1086.607, 128.0819
1087.089, 127.6929
1087.571, 127.5228
1088.054, 127.6664
1088.536, 127.9660
1089.018, 128.3374
1089.500, 128.6959
1089.982, 128.9015
1090.464, 128.9380
1090.946, 128.9344
1091.428, 128.7847
1091.911, 128.8003
1092.393, 129.0556
1092.875, 129.5599
1093.357, 130.6199
1093.839, 131.9522
1094.321, 132.6515
1094.803, 132.3201
1095.285, 131.8088
1095.767, 131.2190
1096.250, 130.8715
1096.732, 131.0337
1097.214, 131.6748
1097.696, 132.2557
1098.178, 132.7703
1098.660, 133.0492
1099.142, 132.8636
1099.624, 132.5851
1100.106, 132.3778
1100.589, 132.3125
1101.071, 132.5325
1101.553, 133.2003
1102.035, 133.6062
1102.517, 133.7251
1102.999, 133.6534
1103.481, 133.3001
1103.963, 132.9146
1104.446, 132.8828
1104.928, 133.1316
1105.410, 133.3253
1105.892, 133.5203
1106.374, 133.3739
1106.856, 132.6849
1107.338, 131.9326
1107.820, 131.9764
1108.302, 132.4140
1108.785, 132.1878
1109.267, 131.1792
1109.749, 130.1827
1110.231, 129.4959
1110.713, 128.9311
1111.195, 128.3685
1111.677, 127.8946
1112.159, 127.8609
1112.641, 128.1761
1113.124, 128.2020
1113.606, 127.6757
1114.088, 127.2907
1114.570, 127.7279
1115.052, 128.3256
1115.534, 128.5666
1116.016, 128.4580
1116.498, 128.2153
1116.981, 127.8243
1117.463, 127.6899
1117.945, 128.1286
1118.427, 128.6738
1118.909, 128.8038
1119.391, 128.7667
1119.873, 128.8648
1120.355, 128.9044
1120.838, 129.6049
1121.320, 130.7929
1121.802, 133.3860
1122.284, 140.5051
1122.766, 147.8224
1123.248, 147.5003
1123.730, 142.0190
1124.212, 138.1684
1124.694, 139.6408
1125.177, 140.4300
1125.659, 140.2143
1126.141, 139.0495
1126.623, 136.2200
1127.105, 132.6562
1127.587, 130.9573
1128.069, 131.0578
1128.551, 131.4546
1129.033, 131.9657
1129.516, 132.0132
1129.998, 131.0999
1130.480, 130.0233
1130.962, 130.4571
1131.444, 132.0128
1131.926, 132.5975
1132.408, 131.8867
1132.890, 130.9799
1133.373, 130.4372
1133.855, 130.0351
1134.337, 129.7620
1134.819, 129.5026
1135.301, 128.6868
1135.783, 127.3563
1136.265, 126.5425
1136.747, 126.6065
1137.229, 126.8628
1137.712, 126.6969
1138.194, 126.4769
1138.676, 126.6775
1139.158, 127.3018
1139.640, 127.1622
1140.122, 126.1548
1140.604, 125.4126
1141.086, 125.5830
1141.569, 125.8655
1142.051, 125.1813
1142.533, 124.1264
1143.015, 123.4974
1143.497, 123.4887
1143.979, 123.7415
1144.461, 124.3632
1144.943, 124.8102
1145.426, 124.6808
1145.908, 124.2243
1146.390, 123.6166
1146.872, 123.0279
1147.354, 122.8093
1147.836, 123.5588
1148.318, 123.8801
1148.800, 123.5832
1149.282, 123.2262
1149.765, 123.3683
1150.247, 123.7640
1150.729, 123.9023
1151.211, 123.7930
1151.693, 123.5346
1152.175, 122.9244
1152.657, 122.5331
1153.139, 122.5625
1153.621, 122.6626
1154.104, 122.2322
1154.586, 121.5404
1155.068, 121.7220
1155.550, 122.7376
1156.032, 123.3429
1156.514, 122.3411
1156.996, 121.5680
1157.478, 121.6793
1157.961, 122.2524
1158.443, 122.6130
1158.925, 122.7693
1159.407, 122.7378
1159.889, 122.5157
1160.371, 122.2607
1160.853, 121.9339
1161.335, 121.7486
1161.818, 121.8611
1162.300, 122.1668
1162.782, 122.3700
1163.264, 122.4799
1163.746, 122.6355
1164.228, 122.8802
1164.710, 123.0973
1165.192, 123.3846
1165.674, 123.4404
1166.156, 122.8147
1166.639, 121.7125
1167.121, 121.5954
1167.603, 122.4569
1168.085, 122.9391
1168.567, 122.5084
1169.049, 121.8877
1169.531, 121.4841
1170.013, 121.3462
1170.496, 121.6567
1170.978, 122.4120
1171.460, 122.6800
1171.942, 122.4313
1172.424, 122.2357
1172.906, 122.3656
1173.388, 122.6176
1173.870, 122.9891
1174.353, 123.2576
1174.835, 123.0033
1175.317, 122.0200
1175.799, 121.8129
1176.281, 122.5141
1176.763, 122.9022
1177.245, 121.7462
1177.727, 120.5158
1178.209, 121.3259
1178.692, 123.0787
1179.174, 123.8384
1179.656, 122.8481
1180.138, 122.3894
1180.620, 122.5415
1181.102, 122.7962
1181.584, 122.6775
1182.066, 122.5335
1182.548, 123.0333
1183.031, 123.8245
1183.513, 124.0392
1183.995, 123.1513
1184.477, 122.6152
1184.959, 122.5229
1185.441, 122.6459
1185.923, 122.9126
1186.405, 123.1858
1186.888, 123.3006
1187.370, 123.2554
1187.852, 123.0455
1188.334, 122.5508
1188.816, 122.0921
1189.298, 121.6082
1189.780, 121.4694
1190.262, 122.4789
1190.745, 123.8399
1191.227, 124.2765
1191.709, 123.8778
1192.191, 123.5038
1192.673, 123.3285
1193.155, 123.1841
1193.637, 123.0358
1194.119, 122.9434
1194.601, 123.0269
1195.084, 123.1885
1195.566, 123.2475
1196.048, 123.2074
1196.530, 123.2678
1197.012, 123.6659
1197.494, 123.7316
1197.976, 123.2367
1198.458, 122.6057
1198.941, 122.4138
1199.423, 122.5117
1199.905, 122.6823
1200.387, 122.8985
1200.869, 123.1243
1201.351, 123.3203
1201.833, 123.5875
1202.315, 123.9641
1202.797, 124.3972
1203.280, 124.9062
1203.762, 125.3644
1204.244, 125.5667
1204.726, 125.4810
1205.208, 125.1107
1205.690, 124.2096
1206.172, 123.5673
1206.654, 123.4871
1207.136, 123.6524
1207.619, 123.5021
1208.101, 123.1986
1208.583, 123.0274
1209.065, 123.0512
1209.547, 123.1037
1210.029, 123.1924
1210.511, 123.2093
1210.993, 123.0421
1211.476, 122.8981
1211.958, 123.3489
1212.440, 124.0318
1212.922, 124.2437
1213.404, 123.7462
1213.886, 123.2951
1214.368, 122.8443
1214.850, 122.7871
1215.333, 123.4495
1215.815, 124.3547
1216.297, 124.6558
1216.779, 124.5585
1217.261, 124.4223
1217.743, 124.3162
1218.225, 124.1851
1218.707, 123.9633
1219.189, 123.8960
1219.672, 124.2134
1220.154, 124.6011
1220.636, 124.3288
1221.118, 123.7545
1221.600, 123.5468
1222.082, 124.0421
1222.564, 124.3280
1223.046, 124.3122
1223.528, 124.2351
1224.011, 124.1938
1224.493, 124.1974
1224.975, 124.3282
1225.457, 124.4933
1225.939, 124.5207
1226.421, 124.2907
1226.903, 124.1487
1227.385, 124.1218
1227.868, 124.0861
1228.350, 123.8755
1228.832, 123.7245
1229.314, 124.1637
1229.796, 124.8592
1230.278, 125.2363
1230.760, 125.1038
1231.242, 124.8171
1231.724, 124.3094
1232.207, 123.9661
1232.689, 124.2010
1233.171, 124.5272
1233.653, 124.2501
1234.135, 123.6466
1234.617, 123.1615
1235.099, 122.8091
1235.581, 122.7503
1236.063, 123.0230
1236.546, 123.3393
1237.028, 123.4963
1237.510, 123.6325
1237.992, 123.9893
1238.474, 124.3917
1238.956, 124.4968
1239.438, 124.1517
1239.920, 124.1985
1240.403, 124.6722
1240.885, 125.0335
1241.367, 124.8879
1241.849, 124.5266
1242.331, 123.8619
1242.813, 123.3166
1243.295, 123.6242
1243.777, 125.0734
1244.260, 125.6338
1244.742, 125.3118
1245.224, 124.9947
1245.706, 125.3547
1246.188, 125.7806
1246.670, 125.9790
1247.152, 125.9120
1247.634, 125.5180
1248.116, 124.7546
1248.599, 124.2287
1249.081, 123.9392
1249.563, 123.7727
1250.045, 123.6659
1250.527, 123.6652
1251.009, 123.8164
1251.491, 124.0773
1251.973, 124.5340
1252.455, 125.1532
1252.938, 124.9063
1253.420, 123.9211
1253.902, 123.2709
1254.384, 123.9773
1254.866, 124.5696
1255.348, 124.5119
1255.830, 124.1174
1256.313, 123.4092
1256.795, 122.5459
1257.277, 122.7693
1257.759, 123.8577
1258.241, 124.6408
1258.723, 124.1616
1259.205, 123.9364
1259.687, 124.4398
1260.169, 124.9945
1260.651, 125.0243
1261.134, 124.6236
1261.616, 123.7775
1262.098, 122.7449
1262.580, 122.3805
1263.062, 123.9281
1263.544, 124.6774
1264.026, 124.1225
1264.508, 123.4049
1264.991, 123.5558
1265.473, 124.1599
1265.955, 124.4617
1266.437, 124.5421
1266.919, 124.6343
1267.401, 124.8595
1267.883, 124.9813
1268.365, 124.9845
1268.848, 124.9401
1269.330, 124.8094
1269.812, 124.7373
1270.294, 125.1257
1270.776, 125.6709
1271.258, 125.6418
1271.740, 124.7524
1272.222, 124.0291
1272.704, 123.4662
1273.187, 123.2696
1273.669, 123.9526
1274.151, 124.6943
1274.633, 124.6663
1275.115, 124.2618
1275.597, 124.1242
1276.079, 124.3052
1276.561, 124.5915
1277.043, 124.9693
1277.526, 125.0415
1278.008, 124.0262
1278.490, 123.2577
1278.972, 123.9184
1279.454, 124.9474
1279.936, 125.2372
1280.418, 124.8120
1280.900, 124.3820
1281.383, 123.9910
1281.865, 123.9123
1282.347, 124.6269
1282.829, 125.1844
1283.311, 125.3074
1283.793, 125.1111
1284.275, 124.4534
1284.757, 123.5595
1285.240, 123.4916
1285.722, 124.0289
1286.204, 124.4611
1286.686, 124.5056
1287.168, 124.4251
1287.650, 124.1679
1288.132, 124.0116
1288.614, 124.2110
1289.096, 124.5985
1289.578, 124.8269
1290.061, 124.9757
1290.543, 125.2315
1291.025, 125.8512
1291.507, 125.9669
1291.989, 125.4665
1292.471, 124.9861
1292.953, 125.0262
1293.435, 125.0977
1293.918, 124.3299
1294.400, 123.3511
1294.882, 123.1565
1295.364, 123.8497
1295.846, 124.5850
1296.328, 125.3717
1296.810, 125.8030
1297.292, 125.5108
1297.775, 125.0976
1298.257, 125.1062
1298.739, 125.1643
1299.221, 124.8769
1299.703, 124.2983
1300.185, 124.0806
1300.667, 124.1503
1301.149, 124.0039
1301.631, 123.2326
1302.114, 122.7654
1302.596, 123.0570
##END=



