##NAMES=Brochantite
##RRUFFID=R060133
##IDEAL CHEMISTRY=Cu^2+^_4_S^6+^O_4_(OH)_6_
##LOCALITY=Shattuck mine, Bisbee, Cochise County, Arizona, USA
##OWNER=RRUFF
##SOURCE=University of Arizona Mineral Museum
##DESCRIPTION=Deep green thick prismatic crystals
##STATUS=The identification of this mineral has been confirmed by X-ray diffraction and chemical analysis
##URL=rruff.info/R060133
##MEASURED CHEMISTRY=Cu_4.00_S_1.00_O_4_(OH)_6_
92.02539, 62.69164
92.50751, 64.09905
92.98962, 65.21883
93.47174, 64.92599
93.95386, 63.97732
94.43597, 62.52475
94.91809, 60.63525
95.40021, 58.50509
95.88232, 56.52955
96.36444, 54.58511
96.84656, 52.97593
97.32867, 51.88781
97.81078, 51.16920
98.29290, 50.59724
98.77502, 50.00270
99.25713, 49.34959
99.73925, 48.38860
100.2214, 47.02368
100.7035, 45.54195
101.1856, 43.93010
101.6677, 42.24860
102.1498, 40.70322
102.6320, 39.52685
103.1141, 38.72651
103.5962, 38.41967
104.0783, 38.88106
104.5604, 39.70856
105.0425, 40.57847
105.5247, 41.46950
106.0068, 42.11063
106.4889, 41.98413
106.9710, 41.13131
107.4531, 39.87686
107.9352, 38.05363
108.4173, 35.80611
108.8995, 33.92469
109.3816, 32.75875
109.8637, 32.07688
110.3458, 31.64730
110.8279, 31.48855
111.3100, 31.41970
111.7922, 31.19379
112.2743, 30.72678
112.7564, 30.38098
113.2385, 30.26758
113.7206, 30.30213
114.2027, 30.48485
114.6849, 30.84696
115.1670, 31.26200
115.6491, 31.26527
116.1312, 30.37710
116.6133, 29.60133
117.0954, 29.17696
117.5776, 28.96274
118.0597, 28.71919
118.5418, 28.26791
119.0239, 27.60240
119.5060, 27.12267
119.9881, 26.72423
120.4703, 26.55460
120.9524, 26.81309
121.4345, 27.42028
121.9166, 28.05725
122.3987, 28.46183
122.8808, 28.58871
123.3630, 28.45036
123.8451, 27.76671
124.3272, 26.95940
124.8093, 26.48365
125.2914, 26.44254
125.7735, 26.52144
126.2557, 26.33672
126.7378, 25.94694
127.2199, 25.60266
127.7020, 25.38358
128.1841, 25.28165
128.6662, 25.31125
129.1483, 25.64520
129.6305, 25.88805
130.1126, 25.72266
130.5947, 25.17645
131.0768, 24.53078
131.5589, 23.97919
132.0410, 23.51547
132.5232, 23.20036
133.0053, 23.13421
133.4874, 23.15965
133.9695, 23.24408
134.4516, 23.36715
134.9337, 23.47350
135.4159, 23.47178
135.8980, 23.29193
136.3801, 23.12819
136.8622, 22.97161
137.3443, 22.84142
137.8264, 22.78489
138.3086, 22.81524
138.7907, 22.86854
139.2728, 22.76742
139.7549, 22.28445
140.2370, 21.90209
140.7191, 21.70736
141.2013, 21.62592
141.6834, 21.56271
142.1655, 21.47961
142.6476, 21.36053
143.1297, 21.13512
143.6118, 20.65494
144.0939, 20.24431
144.5761, 20.04369
145.0582, 20.03066
145.5403, 20.11568
146.0224, 20.31959
146.5045, 20.55764
146.9866, 20.60969
147.4688, 20.39248
147.9509, 20.04736
148.4330, 19.65974
148.9151, 19.20886
149.3972, 18.84376
149.8793, 18.68396
150.3615, 18.65807
150.8436, 18.70746
151.3257, 18.84595
151.8078, 19.03012
152.2899, 19.15926
152.7720, 19.21806
153.2542, 19.24430
153.7363, 19.29213
154.2184, 19.32108
154.7005, 19.25376
155.1826, 18.99768
155.6647, 18.58688
156.1469, 18.38433
156.6290, 18.59714
157.1111, 18.83798
157.5932, 19.06053
158.0753, 19.23432
158.5574, 19.31806
159.0396, 19.26747
159.5217, 19.06534
160.0038, 18.88310
160.4859, 18.72433
160.9680, 18.57850
161.4501, 18.42053
161.9323, 18.26348
162.4144, 18.15993
162.8965, 18.17655
163.3786, 18.36277
163.8607, 18.44749
164.3428, 18.37834
164.8250, 18.25445
165.3071, 18.12878
165.7892, 18.01323
166.2713, 17.92315
166.7534, 17.88906
167.2355, 17.92252
167.7177, 17.92499
168.1998, 17.88861
168.6819, 17.81478
169.1640, 17.67859
169.6461, 17.45303
170.1282, 17.24776
170.6104, 17.26921
171.0925, 17.48887
171.5746, 17.59792
172.0567, 17.41681
172.5388, 17.02566
173.0209, 16.63792
173.5031, 16.22920
173.9852, 15.93423
174.4673, 15.87204
174.9494, 16.02444
175.4315, 16.22422
175.9136, 16.41315
176.3958, 16.58694
176.8779, 16.58260
177.3600, 16.19065
177.8421, 15.76175
178.3242, 15.47446
178.8063, 15.34195
179.2885, 15.31288
179.7706, 15.38612
180.2527, 15.62451
180.7348, 15.68378
181.2169, 15.38612
181.6990, 15.02273
182.1812, 14.69996
182.6633, 14.45325
183.1454, 14.30483
183.6275, 14.29619
184.1096, 14.49121
184.5917, 14.70259
185.0738, 15.02125
185.5560, 15.29403
186.0381, 15.39330
186.5202, 15.29459
187.0023, 15.08520
187.4844, 14.90938
187.9665, 14.74833
188.4487, 14.66364
188.9308, 14.74708
189.4129, 14.85900
189.8950, 14.85170
190.3771, 14.67814
190.8592, 14.42945
191.3414, 14.28570
191.8235, 14.32073
192.3056, 14.32187
192.7877, 14.20826
193.2698, 14.06503
193.7519, 14.02536
194.2341, 14.15057
194.7162, 14.34411
195.1983, 14.38954
195.6804, 14.24620
196.1625, 14.14000
196.6446, 14.19116
197.1268, 14.32925
197.6089, 14.38548
198.0910, 14.28052
198.5731, 14.10487
199.0552, 14.00467
199.5373, 13.98725
200.0195, 13.98339
200.5016, 13.93543
200.9837, 13.86028
201.4658, 13.85376
201.9479, 13.99369
202.4300, 14.16560
202.9122, 14.25850
203.3943, 14.27040
203.8764, 14.20104
204.3585, 13.98165
204.8406, 13.61337
205.3227, 13.38862
205.8048, 13.51230
206.2870, 13.71114
206.7691, 13.77558
207.2512, 13.68376
207.7333, 13.57808
208.2154, 13.65981
208.6975, 13.98991
209.1797, 14.14283
209.6618, 13.78370
210.1439, 13.40234
210.6260, 13.30025
211.1081, 13.51642
211.5902, 13.83955
212.0724, 14.00219
212.5545, 13.96115
213.0366, 13.88119
213.5187, 13.70056
214.0008, 13.54010
214.4829, 13.47732
214.9651, 13.52588
215.4472, 13.64196
215.9293, 13.78277
216.4114, 14.03633
216.8935, 14.11616
217.3756, 13.92812
217.8578, 13.66664
218.3399, 13.43553
218.8220, 13.27043
219.3041, 13.17299
219.7862, 13.15326
220.2683, 13.27066
220.7505, 13.35458
221.2326, 13.37755
221.7147, 13.38832
222.1968, 13.43546
222.6789, 13.52664
223.1610, 13.61909
223.6432, 13.64672
224.1253, 13.55989
224.6074, 13.50687
225.0895, 13.53024
225.5716, 13.56346
226.0537, 13.53611
226.5358, 13.43344
227.0180, 13.30887
227.5001, 13.23509
227.9822, 13.22351
228.4643, 13.23596
228.9464, 13.26256
229.4285, 13.31596
229.9107, 13.42683
230.3928, 13.60401
230.8749, 13.78749
231.3570, 13.89501
231.8391, 13.92152
232.3212, 13.93853
232.8034, 13.95421
233.2855, 13.96699
233.7676, 13.98477
234.2497, 14.01419
234.7318, 14.01731
235.2139, 13.89893
235.6961, 13.67863
236.1782, 13.56714
236.6603, 13.67402
237.1424, 13.90453
237.6245, 14.11914
238.1066, 14.29982
238.5888, 14.47182
239.0709, 14.72083
239.5530, 15.00225
240.0351, 15.13596
240.5172, 14.88517
240.9993, 14.48120
241.4815, 14.42215
241.9636, 14.86761
242.4457, 15.31705
242.9278, 15.30643
243.4099, 15.02511
243.8920, 14.86412
244.3742, 15.11797
244.8563, 15.58375
245.3384, 15.78218
245.8205, 15.63264
246.3026, 15.38749
246.7847, 15.18054
247.2668, 14.98384
247.7490, 14.74598
248.2311, 14.41677
248.7132, 14.04553
249.1953, 13.74701
249.6774, 13.53621
250.1595, 13.37587
250.6417, 13.29997
251.1238, 13.24554
251.6059, 13.12511
252.0880, 12.88460
252.5701, 12.57209
253.0522, 12.29224
253.5344, 12.01589
254.0165, 11.84281
254.4986, 11.88082
254.9807, 11.99034
255.4628, 12.02164
255.9449, 11.90827
256.4271, 11.68915
256.9092, 11.43515
257.3913, 11.07947
257.8734, 10.82591
258.3555, 10.70465
258.8376, 10.68698
259.3198, 10.78327
259.8019, 10.99979
260.2840, 11.24637
260.7661, 11.32228
261.2482, 11.11714
261.7303, 10.94456
262.2125, 10.78911
262.6946, 10.70247
263.1767, 10.76328
263.6588, 10.98736
264.1409, 11.26974
264.6230, 11.42894
265.1052, 11.43026
265.5873, 11.36048
266.0694, 11.16987
266.5515, 10.95892
267.0336, 10.79949
267.5157, 10.70860
267.9979, 10.65706
268.4800, 10.59582
268.9621, 10.47920
269.4442, 10.46213
269.9263, 10.66168
270.4084, 10.85548
270.8906, 10.87519
271.3727, 10.71286
271.8548, 10.49713
272.3369, 10.37996
272.8190, 10.37893
273.3011, 10.43087
273.7833, 10.55533
274.2654, 10.70470
274.7475, 10.91721
275.2296, 11.15326
275.7117, 11.27069
276.1938, 11.09930
276.6760, 10.55508
277.1581, 10.24603
277.6402, 10.27930
278.1223, 10.38783
278.6044, 10.49124
279.0865, 10.56640
279.5686, 10.59564
280.0508, 10.56360
280.5329, 10.46984
281.0150, 10.34129
281.4971, 10.08228
281.9792, 9.890688
282.4613, 9.875768
282.9435, 9.989797
283.4256, 10.11716
283.9077, 10.18520
284.3898, 10.20004
284.8719, 10.21184
285.3540, 10.29090
285.8362, 10.29075
286.3183, 10.09443
286.8004, 9.799489
287.2825, 9.569275
287.7646, 9.483665
288.2467, 9.531917
288.7289, 9.686404
289.2110, 10.18737
289.6931, 10.49288
290.1752, 10.37701
290.6573, 10.05170
291.1394, 9.811869
291.6216, 9.772311
292.1037, 9.853180
292.5858, 9.897640
293.0679, 9.913213
293.5500, 9.876926
294.0321, 9.694065
294.5143, 9.497840
294.9964, 9.474271
295.4785, 9.672113
295.9606, 9.922915
296.4427, 9.976224
296.9248, 9.729098
297.4070, 9.593579
297.8891, 9.655796
298.3712, 9.791978
298.8533, 9.912738
299.3354, 9.999118
299.8175, 10.04589
300.2997, 10.04532
300.7818, 9.989482
301.2639, 9.910054
301.7460, 9.769994
302.2281, 9.636258
302.7102, 9.522643
303.1924, 9.444143
303.6745, 9.465669
304.1566, 9.661469
304.6387, 10.02108
305.1208, 10.29488
305.6029, 10.48369
306.0851, 10.59856
306.5672, 10.62906
307.0493, 10.58705
307.5314, 10.49575
308.0135, 10.35148
308.4956, 10.18142
308.9778, 10.10860
309.4599, 10.20273
309.9420, 10.28808
310.4241, 10.30422
310.9062, 10.27300
311.3883, 10.24094
311.8705, 10.23128
312.3526, 10.21742
312.8347, 10.12664
313.3168, 9.905421
313.7989, 9.743888
314.2810, 9.701091
314.7632, 9.731371
315.2453, 9.800010
315.7274, 9.901885
316.2095, 9.971633
316.6916, 9.899417
317.1737, 9.637148
317.6559, 9.446736
318.1380, 9.390439
318.6201, 9.389936
319.1022, 9.360435
319.5843, 9.294412
320.0664, 9.277079
320.5485, 9.438212
321.0306, 9.793224
321.5128, 9.841999
321.9949, 9.224738
322.4770, 8.613193
322.9591, 8.513288
323.4412, 8.851506
323.9233, 9.172551
324.4055, 9.173808
324.8876, 8.895420
325.3697, 8.660215
325.8518, 8.405740
326.3339, 8.250483
326.8160, 8.302140
327.2982, 8.484278
327.7803, 8.627942
328.2624, 8.650252
328.7445, 8.599683
329.2266, 8.606646
329.7087, 8.693823
330.1909, 8.787423
330.6730, 8.944455
331.1551, 9.075769
331.6372, 9.022030
332.1193, 8.733994
332.6014, 8.387156
333.0836, 8.237611
333.5657, 8.367641
334.0478, 8.470011
334.5299, 8.502367
335.0120, 8.524796
335.4941, 8.605252
335.9763, 8.743015
336.4584, 8.864051
336.9405, 8.897775
337.4226, 8.835624
337.9047, 8.757000
338.3868, 8.606830
338.8690, 8.492044
339.3511, 8.517248
339.8332, 8.633518
340.3153, 8.666685
340.7974, 8.478632
341.2795, 8.136415
341.7617, 8.089336
342.2438, 8.660870
342.7259, 9.100153
343.2080, 9.187143
343.6901, 9.050928
344.1722, 8.860017
344.6544, 8.681593
345.1365, 8.536391
345.6186, 8.473331
346.1007, 8.646405
346.5828, 8.371722
347.0649, 8.626586
347.5471, 8.760650
348.0292, 8.780410
348.5113, 8.343506
348.9934, 8.496289
349.4755, 8.412752
349.9576, 8.914028
350.4398, 9.087371
350.9219, 8.921925
351.4040, 8.705586
351.8861, 8.549784
352.3682, 8.472156
352.8503, 8.472953
353.3325, 8.562137
353.8146, 8.731397
354.2967, 8.851740
354.7788, 8.917924
355.2609, 8.941518
355.7430, 8.892695
356.2252, 8.810636
356.7073, 8.755277
357.1894, 8.755797
357.6715, 8.779740
358.1536, 8.743093
358.6357, 8.590298
359.1179, 8.458639
359.5999, 8.317522
360.0821, 8.219305
360.5642, 8.229300
361.0463, 8.348816
361.5284, 8.502116
362.0105, 8.600204
362.4926, 8.640775
362.9748, 8.631428
363.4569, 8.511286
363.9390, 8.401487
364.4211, 8.344279
364.9032, 8.341661
365.3853, 8.388914
365.8675, 8.492747
366.3496, 8.642649
366.8317, 8.737712
367.3138, 8.759143
367.7959, 8.742498
368.2780, 8.656617
368.7602, 8.552853
369.2423, 8.489740
369.7244, 8.492548
370.2065, 8.548841
370.6886, 8.645909
371.1707, 8.814245
371.6529, 8.944637
372.1350, 8.987990
372.6171, 9.015552
373.0992, 9.113509
373.5813, 9.274295
374.0634, 9.368081
374.5456, 9.185948
375.0277, 8.705489
375.5098, 8.454535
375.9919, 8.644853
376.4740, 8.857781
376.9561, 8.855193
377.4383, 8.723154
377.9204, 8.684667
378.4025, 8.943178
378.8846, 9.339635
379.3667, 9.369226
379.8488, 8.840127
380.3310, 8.443106
380.8131, 8.613778
381.2952, 8.985826
381.7773, 9.189590
382.2594, 9.115270
382.7415, 8.936331
383.2237, 8.817364
383.7058, 8.757914
384.1879, 8.753498
384.6700, 8.852253
385.1521, 8.955785
385.6342, 8.982272
386.1164, 8.933329
386.5985, 8.845702
387.0806, 8.713717
387.5627, 8.560508
388.0448, 8.446197
388.5269, 8.385807
389.0091, 8.331002
389.4912, 8.243391
389.9733, 8.134443
390.4554, 8.026336
390.9375, 7.897324
391.4196, 7.794802
391.9018, 7.760452
392.3839, 7.792095
392.8660, 7.880126
393.3481, 8.050127
393.8302, 8.246367
394.3123, 8.357447
394.7945, 8.364086
395.2766, 8.360203
395.7587, 8.431476
396.2408, 8.503847
396.7229, 8.413932
397.2050, 8.109555
397.6872, 7.783017
398.1693, 7.649881
398.6514, 7.730875
399.1335, 7.809334
399.6156, 7.917389
400.0977, 7.987567
400.5798, 7.939315
401.0620, 7.798118
401.5441, 7.686185
402.0262, 7.690758
402.5083, 7.775393
402.9904, 7.752735
403.4725, 7.446831
403.9547, 7.266974
404.4368, 7.343121
404.9189, 7.567254
405.4010, 7.850786
405.8831, 8.156332
406.3652, 8.398960
406.8474, 8.445919
407.3295, 8.229918
407.8116, 7.996213
408.2937, 7.677912
408.7758, 7.402984
409.2579, 7.227473
409.7401, 7.157998
410.2222, 7.197476
410.7043, 7.364883
411.1864, 7.635755
411.6685, 7.797856
412.1506, 7.711649
412.6328, 7.684807
413.1149, 7.850899
413.5970, 8.058950
414.0791, 8.138345
414.5612, 8.032062
415.0433, 7.818393
415.5255, 7.589691
416.0076, 7.301204
416.4897, 7.151475
416.9718, 7.257775
417.4539, 7.418963
417.9360, 7.580071
418.4182, 7.720726
418.9003, 7.809625
419.3824, 7.814229
419.8645, 7.750727
420.3466, 7.691766
420.8287, 7.644803
421.3109, 7.586934
421.7930, 7.477460
422.2751, 7.365997
422.7572, 7.329671
423.2393, 7.408027
423.7214, 7.476820
424.2036, 7.327101
424.6857, 6.974731
425.1678, 6.851972
425.6499, 7.202573
426.1320, 7.626862
426.6141, 7.751558
427.0963, 7.606510
427.5784, 7.411390
428.0605, 7.202207
428.5426, 7.020734
429.0247, 6.939976
429.5068, 6.966067
429.9890, 7.045931
430.4711, 7.182961
430.9532, 7.339658
431.4353, 7.405110
431.9174, 7.333528
432.3995, 7.238213
432.8817, 7.161426
433.3638, 7.103237
433.8459, 7.058356
434.3280, 7.022870
434.8101, 7.018786
435.2922, 7.099716
435.7744, 7.316061
436.2565, 7.391204
436.7386, 7.159286
437.2207, 6.908371
437.7028, 6.855862
438.1849, 6.979627
438.6671, 7.130107
439.1492, 7.210074
439.6313, 7.229747
440.1134, 7.246556
440.5955, 7.258537
441.0776, 7.270122
441.5598, 7.263920
442.0418, 7.266609
442.5240, 7.344930
443.0061, 7.498715
443.4882, 7.606248
443.9703, 7.477446
444.4524, 7.025070
444.9345, 6.745624
445.4167, 6.785758
445.8988, 6.857385
446.3809, 6.837267
446.8630, 6.775955
447.3451, 6.804394
447.8272, 7.020531
448.3094, 7.312689
448.7915, 7.378526
449.2736, 7.132909
449.7557, 6.903477
450.2378, 6.712312
450.7199, 6.604723
451.2021, 6.674252
451.6842, 6.913676
452.1663, 7.118469
452.6484, 7.063678
453.1305, 6.823792
453.6126, 6.769118
454.0948, 7.024564
454.5769, 7.219633
455.0590, 6.947692
455.5411, 6.460273
456.0232, 6.220991
456.5053, 6.487802
456.9875, 6.815539
457.4696, 6.773585
457.9517, 6.448210
458.4338, 6.241563
458.9159, 6.303655
459.3980, 6.506238
459.8802, 6.675949
460.3623, 6.814420
460.8444, 6.928871
461.3265, 7.067703
461.8086, 7.149964
462.2907, 7.027737
462.7729, 6.740446
463.2550, 6.546315
463.7371, 6.633368
464.2192, 6.951469
464.7013, 7.215905
465.1834, 7.551438
465.6656, 7.680727
466.1477, 7.351110
466.6298, 6.903159
467.1119, 6.727232
467.5940, 6.900910
468.0761, 7.201064
468.5583, 7.364128
469.0404, 7.369527
469.5225, 7.377666
470.0046, 7.400678
470.4867, 7.413693
470.9688, 7.398764
471.4510, 7.370786
471.9331, 7.359040
472.4152, 7.380006
472.8973, 7.406443
473.3794, 7.362913
473.8615, 7.208791
474.3437, 7.159311
474.8258, 7.365243
475.3079, 7.599967
475.7900, 7.770125
476.2721, 7.853808
476.7542, 7.803394
477.2364, 7.410689
477.7185, 6.898829
478.2006, 6.858825
478.6827, 7.382005
479.1648, 7.837184
479.6469, 7.843687
480.1291, 7.600259
480.6112, 7.481405
481.0933, 7.547681
481.5754, 7.612062
482.0575, 7.546472
482.5396, 7.422663
483.0217, 7.392231
483.5038, 7.489290
483.9860, 7.594437
484.4681, 7.595405
484.9502, 7.485868
485.4323, 7.362616
485.9144, 7.191949
486.3965, 7.044223
486.8787, 6.911788
487.3608, 6.829673
487.8429, 6.903788
488.3250, 7.175924
488.8071, 7.481189
489.2892, 7.506702
489.7714, 7.069632
490.2535, 6.800825
490.7356, 6.752302
491.2177, 6.793566
491.6998, 6.928948
492.1819, 7.099423
492.6641, 7.177993
493.1462, 7.063627
493.6283, 6.848492
494.1104, 6.840990
494.5925, 7.178800
495.0746, 7.349501
495.5568, 6.981904
496.0389, 6.579582
496.5210, 6.546112
497.0031, 6.886688
497.4852, 7.234822
497.9673, 7.332866
498.4495, 7.242261
498.9316, 7.093870
499.4137, 6.861134
499.8958, 6.720501
500.3779, 6.843307
500.8600, 7.105285
501.3422, 7.235520
501.8243, 7.151139
502.3064, 7.086934
502.7885, 7.239682
503.2706, 7.471830
503.7527, 7.521308
504.2349, 7.329884
504.7170, 7.040426
505.1991, 6.772788
505.6812, 6.524561
506.1633, 6.367804
506.6454, 6.306335
507.1276, 6.319906
507.6097, 6.479222
508.0918, 6.686472
508.5739, 6.784772
509.0560, 6.718276
509.5381, 6.570949
510.0203, 6.469141
510.5024, 6.411664
510.9845, 6.403914
511.4666, 6.541647
511.9487, 6.634047
512.4308, 6.595706
512.9130, 6.457558
513.3951, 6.273474
513.8772, 6.052777
514.3593, 5.852708
514.8414, 5.786777
515.3235, 5.868285
515.8057, 5.987990
516.2878, 6.188346
516.7699, 6.350412
517.2520, 6.350091
517.7341, 6.209424
518.2162, 6.090317
518.6984, 6.054103
519.1805, 6.079797
519.6626, 6.190806
520.1447, 6.372890
520.6268, 6.434457
521.1089, 6.239990
521.5911, 5.922177
522.0732, 5.799967
522.5553, 5.927563
523.0374, 6.045407
523.5195, 6.107358
524.0016, 6.144232
524.4838, 6.164455
524.9659, 6.180228
525.4480, 6.243858
525.9301, 6.411165
526.4122, 6.632119
526.8943, 6.640204
527.3765, 6.224238
527.8586, 5.890999
528.3407, 5.619613
528.8228, 5.484719
529.3049, 5.651880
529.7870, 6.069944
530.2692, 6.410884
530.7513, 6.321307
531.2334, 5.898346
531.7155, 5.741751
532.1976, 5.959816
532.6797, 6.193430
533.1619, 6.379740
533.6440, 6.460605
534.1261, 6.305344
534.6082, 5.856682
535.0903, 5.479082
535.5724, 5.495991
536.0546, 5.734572
536.5367, 5.784651
537.0188, 5.579425
537.5009, 5.435660
537.9830, 5.639352
538.4651, 6.102352
538.9473, 6.321050
539.4294, 6.132370
539.9115, 5.930003
540.3936, 5.801311
540.8757, 5.728750
541.3578, 5.695261
541.8400, 5.695193
542.3221, 5.727951
542.8042, 5.802474
543.2863, 5.920530
543.7684, 5.969856
544.2505, 5.869947
544.7326, 5.795882
545.2147, 5.762349
545.6968, 5.780229
546.1790, 5.880611
546.6611, 6.064733
547.1432, 6.256846
547.6253, 6.397810
548.1074, 6.483849
548.5895, 6.435255
549.0717, 6.160390
549.5538, 5.942210
550.0359, 6.040117
550.5180, 6.280498
551.0001, 6.401754
551.4822, 6.326164
551.9644, 6.214798
552.4465, 6.169460
552.9286, 6.159699
553.4107, 6.109950
553.8928, 6.004230
554.3749, 5.915583
554.8571, 5.911250
555.3392, 5.989710
555.8213, 6.076973
556.3034, 6.267424
556.7855, 6.351812
557.2676, 6.183438
557.7498, 5.924703
558.2319, 5.775522
558.7140, 5.777349
559.1961, 5.825487
559.6782, 5.803661
560.1603, 5.710978
560.6425, 5.638785
561.1246, 5.552583
561.6067, 5.544269
562.0888, 5.696243
562.5709, 5.903892
563.0530, 6.069212
563.5352, 6.170402
564.0173, 6.177745
564.4994, 6.007103
564.9815, 5.719635
565.4636, 5.514098
565.9457, 5.411962
566.4279, 5.372995
566.9100, 5.367008
567.3921, 5.408675
567.8742, 5.539186
568.3563, 5.873127
568.8384, 6.105196
569.3206, 6.104685
569.8027, 5.959589
570.2848, 5.711573
570.7669, 5.401734
571.2490, 5.183893
571.7311, 5.210355
572.2133, 5.453609
572.6954, 5.609611
573.1775, 5.606784
573.6596, 5.611829
574.1417, 5.692403
574.6238, 5.758786
575.1060, 5.689899
575.5881, 5.498004
576.0702, 5.355368
576.5523, 5.452508
577.0344, 5.709455
577.5165, 5.813567
577.9987, 5.730093
578.4808, 5.642898
578.9629, 5.600426
579.4450, 5.618432
579.9271, 5.748014
580.4092, 6.020239
580.8914, 6.186056
581.3735, 6.057421
581.8556, 5.833767
582.3377, 5.734650
582.8198, 5.761741
583.3019, 5.817427
583.7841, 5.850663
584.2662, 5.862263
584.7483, 5.855154
585.2304, 5.835024
585.7125, 5.783585
586.1946, 5.644873
586.6768, 5.525797
587.1589, 5.453982
587.6410, 5.458513
588.1231, 5.624104
588.6052, 6.040931
589.0873, 6.518936
589.5695, 6.593813
590.0516, 6.190265
590.5337, 5.935740
591.0158, 6.020849
591.4979, 6.208995
591.9800, 6.320468
592.4622, 6.367445
592.9443, 6.396863
593.4264, 6.424388
593.9085, 6.438045
594.3906, 6.444267
594.8727, 6.429014
595.3549, 6.325131
595.8370, 6.103721
596.3191, 5.889853
596.8012, 5.844523
597.2833, 5.996613
597.7654, 6.115941
598.2476, 6.210148
598.7297, 6.268403
599.2118, 6.238106
599.6939, 6.191398
600.1760, 6.239058
600.6581, 6.405300
601.1403, 6.582748
601.6224, 6.652108
602.1045, 6.616820
602.5866, 6.528768
603.0687, 6.317237
603.5508, 6.211217
604.0330, 6.438962
604.5151, 6.790357
604.9972, 6.984014
605.4793, 6.954049
605.9614, 6.948733
606.4435, 7.182739
606.9257, 7.471801
607.4078, 7.534940
607.8899, 7.365772
608.3720, 7.144575
608.8541, 6.976137
609.3362, 6.853267
609.8184, 6.752022
610.3005, 6.668642
610.7826, 6.616269
611.2647, 6.627452
611.7468, 6.640081
612.2289, 6.601812
612.7111, 6.530411
613.1932, 6.483800
613.6753, 6.498987
614.1574, 6.543075
614.6395, 6.552722
615.1216, 6.525077
615.6038, 6.505497
616.0859, 6.523181
616.5680, 6.520213
617.0501, 6.422842
617.5322, 6.260789
618.0143, 6.134164
618.4965, 6.002386
618.9786, 5.978492
619.4607, 6.257997
619.9428, 6.662048
620.4249, 6.828753
620.9070, 6.679543
621.3892, 6.453165
621.8713, 6.403478
622.3534, 6.525778
622.8355, 6.481119
623.3176, 6.044329
623.7997, 5.729296
624.2819, 5.645867
624.7640, 5.691852
625.2461, 5.825958
625.7282, 6.013811
626.2103, 6.149736
626.6924, 6.132414
627.1745, 6.012362
627.6566, 5.906705
628.1387, 5.815471
628.6208, 5.731508
629.1030, 5.633596
629.5851, 5.562831
630.0672, 5.624916
630.5493, 5.835089
631.0314, 5.916256
631.5135, 5.699542
631.9957, 5.464628
632.4778, 5.362297
632.9599, 5.380965
633.4420, 5.491328
633.9241, 5.678600
634.4063, 5.900541
634.8884, 6.116890
635.3705, 6.344708
635.8526, 6.422145
636.3347, 6.241508
636.8168, 6.057330
637.2990, 5.941514
637.7811, 5.878833
638.2632, 5.853403
638.7453, 5.862571
639.2274, 5.901821
639.7095, 6.018262
640.1917, 6.144150
640.6738, 6.122322
641.1559, 5.951718
641.6380, 5.828027
642.1201, 5.865741
642.6022, 5.999723
643.0844, 6.084275
643.5665, 6.099715
644.0486, 6.101190
644.5307, 5.999926
645.0128, 5.970078
645.4949, 6.221640
645.9771, 6.597322
646.4592, 6.760436
646.9413, 6.556602
647.4234, 6.229942
647.9055, 6.156596
648.3876, 6.329447
648.8698, 6.376802
649.3519, 6.223653
649.8340, 6.047684
650.3161, 5.926106
650.7982, 5.866255
651.2803, 5.907010
651.7625, 6.125874
652.2446, 6.250884
652.7267, 6.096569
653.2088, 5.844272
653.6909, 5.642901
654.1730, 5.531735
654.6552, 5.596939
655.1373, 5.913100
655.6194, 6.333015
656.1015, 6.448886
656.5836, 6.089717
657.0657, 5.868165
657.5479, 5.926396
658.0300, 6.024323
658.5121, 6.074657
658.9942, 6.088408
659.4763, 6.111286
659.9584, 6.181447
660.4406, 6.187893
660.9227, 5.918117
661.4048, 5.519509
661.8869, 5.428240
662.3690, 5.713600
662.8511, 5.993083
663.3333, 5.976329
663.8154, 5.754371
664.2975, 5.709485
664.7796, 6.155807
665.2617, 6.333932
665.7438, 5.942304
666.2260, 5.524987
666.7081, 5.479550
667.1902, 5.724899
667.6723, 5.969845
668.1544, 6.069496
668.6365, 6.077096
669.1187, 6.070529
669.6008, 6.049273
670.0829, 5.985229
670.5650, 5.841216
671.0471, 5.746127
671.5292, 5.847982
672.0114, 6.073756
672.4935, 6.153055
672.9756, 5.979371
673.4577, 5.838752
673.9398, 5.841946
674.4219, 5.898363
674.9041, 5.932514
675.3862, 5.934598
675.8683, 5.910818
676.3504, 5.860412
676.8325, 5.810031
677.3146, 5.830649
677.7968, 5.939898
678.2789, 6.035290
678.7610, 6.109583
679.2431, 6.164538
679.7252, 6.205174
680.2073, 6.228362
680.6895, 6.224722
681.1716, 6.184988
681.6537, 6.136511
682.1358, 6.138511
682.6179, 6.120620
683.1000, 5.905283
683.5822, 5.523828
684.0643, 5.290344
684.5464, 5.429933
685.0285, 5.789526
685.5106, 5.916484
685.9927, 5.657522
686.4749, 5.525746
686.9570, 5.616623
687.4391, 5.762845
687.9212, 5.912529
688.4033, 6.062044
688.8854, 6.243428
689.3676, 6.500720
689.8497, 6.635989
690.3318, 6.373446
690.8139, 5.895395
691.2960, 5.573092
691.7781, 5.445984
692.2603, 5.465617
692.7424, 5.627847
693.2245, 5.871637
693.7066, 6.038410
694.1887, 6.095339
694.6708, 6.137612
695.1530, 6.141905
695.6351, 6.156295
696.1172, 6.223068
696.5993, 6.310701
697.0814, 6.374794
697.5635, 6.401719
698.0457, 6.366841
698.5278, 6.181546
699.0099, 5.915806
699.4920, 5.827375
699.9741, 5.946432
700.4562, 6.031955
700.9384, 5.944634
701.4205, 5.763231
701.9026, 5.647156
702.3847, 5.599104
702.8668, 5.619004
703.3489, 5.776860
703.8311, 5.930113
704.3132, 6.020140
704.7953, 6.054229
705.2774, 6.038866
705.7595, 5.980086
706.2416, 5.921910
706.7238, 5.901227
707.2059, 5.919986
707.6880, 6.011187
708.1701, 6.191473
708.6522, 6.309433
709.1343, 6.272672
709.6164, 6.177126
710.0985, 6.205016
710.5806, 6.398105
711.0627, 6.406710
711.5449, 5.935350
712.0270, 5.569952
712.5091, 5.673365
712.9912, 6.017897
713.4733, 6.302722
713.9554, 6.444869
714.4376, 6.502165
714.9197, 6.536252
715.4018, 6.529740
715.8839, 6.352703
716.3660, 5.955441
716.8481, 5.780556
717.3303, 6.069002
717.8124, 6.491448
718.2945, 6.679399
718.7766, 6.648859
719.2587, 6.605252
719.7408, 6.512776
720.2230, 6.471969
720.7051, 6.592288
721.1872, 6.745902
721.6693, 6.767137
722.1514, 6.649353
722.6335, 6.514472
723.1157, 6.450992
723.5978, 6.441730
724.0799, 6.459592
724.5620, 6.513751
725.0441, 6.487860
725.5262, 6.304255
726.0084, 6.136426
726.4905, 6.170726
726.9726, 6.344374
727.4547, 6.405290
727.9368, 6.195451
728.4189, 6.100178
728.9011, 6.414818
729.3832, 6.762682
729.8653, 6.698052
730.3474, 6.316656
730.8295, 6.060603
731.3116, 6.181719
731.7938, 6.487418
732.2759, 6.650180
732.7580, 6.667459
733.2401, 6.699683
733.7222, 6.786283
734.2043, 6.813865
734.6865, 6.666686
735.1686, 6.437344
735.6507, 6.332582
736.1328, 6.387307
736.6149, 6.445313
737.0970, 6.436900
737.5792, 6.457369
738.0613, 6.607049
738.5434, 6.827881
739.0255, 7.019565
739.5076, 7.144072
739.9897, 7.186348
740.4719, 7.110171
740.9540, 6.930616
741.4361, 6.732286
741.9182, 6.494319
742.4003, 6.353682
742.8824, 6.394909
743.3646, 6.519112
743.8467, 6.609236
744.3288, 6.666335
744.8109, 6.694247
745.2930, 6.656307
745.7751, 6.632362
746.2573, 6.674860
746.7394, 6.737734
747.2215, 6.751850
747.7036, 6.719105
748.1857, 6.721404
748.6678, 6.851754
749.1500, 7.006805
749.6321, 6.895533
750.1142, 6.518123
750.5963, 6.295186
751.0784, 6.333122
751.5605, 6.473989
752.0427, 6.627980
752.5248, 6.780677
753.0069, 6.855613
753.4890, 6.771424
753.9711, 6.742645
754.4532, 6.868921
754.9354, 6.995154
755.4175, 6.998185
755.8996, 6.911358
756.3817, 6.821847
756.8638, 6.763758
757.3459, 6.746270
757.8281, 6.800362
758.3102, 6.905295
758.7923, 6.989081
759.2744, 7.048447
759.7565, 7.056299
760.2386, 6.981142
760.7208, 6.880669
761.2029, 6.854570
761.6850, 6.918779
762.1671, 6.995262
762.6492, 7.135400
763.1313, 7.225236
763.6135, 7.225291
764.0956, 7.159117
764.5777, 7.009898
765.0598, 6.801592
765.5419, 6.671384
766.0240, 6.754476
766.5062, 6.924472
766.9883, 6.991033
767.4704, 6.984154
767.9525, 7.054067
768.4346, 7.241549
768.9167, 7.373012
769.3989, 7.271003
769.8810, 6.990714
770.3631, 6.885866
770.8452, 7.148917
771.3273, 7.235205
771.8094, 6.895172
772.2916, 6.584027
772.7737, 6.604646
773.2558, 6.824565
773.7379, 6.934476
774.2200, 6.817021
774.7021, 6.720294
775.1843, 6.828331
775.6664, 7.040918
776.1485, 7.284336
776.6306, 7.512482
777.1127, 7.571223
777.5948, 7.388462
778.0770, 7.111499
778.5591, 6.953895
779.0412, 6.918338
779.5233, 6.947073
780.0054, 7.094556
780.4875, 7.190513
780.9697, 7.122333
781.4518, 7.021639
781.9339, 7.051777
782.4160, 7.195610
782.8981, 7.231084
783.3802, 6.924605
783.8624, 6.704181
784.3445, 6.916135
784.8266, 7.270025
785.3087, 7.350995
785.7908, 7.157306
786.2729, 7.003952
786.7551, 7.107701
787.2372, 7.340066
787.7193, 7.454503
788.2014, 7.451293
788.6835, 7.379318
789.1656, 7.225255
789.6478, 7.057083
790.1299, 6.855555
790.6120, 6.706139
791.0941, 6.869786
791.5762, 7.555970
792.0583, 7.912595
792.5404, 7.705304
793.0225, 7.365774
793.5046, 6.944734
793.9868, 6.586903
794.4689, 6.482053
794.9510, 6.656038
795.4331, 6.937594
795.9152, 7.309975
796.3973, 7.632306
796.8795, 7.584170
797.3616, 7.248642
797.8437, 7.053639
798.3258, 7.108819
798.8079, 7.194602
799.2900, 7.096951
799.7722, 6.876780
800.2543, 6.886850
800.7364, 7.267256
801.2185, 7.591011
801.7006, 7.875535
802.1827, 8.044347
802.6649, 7.989019
803.1470, 7.808943
803.6291, 7.690917
804.1112, 7.687994
804.5933, 7.661747
805.0754, 7.488635
805.5576, 7.303488
806.0397, 7.272344
806.5218, 7.338362
807.0039, 7.331399
807.4860, 7.199430
807.9681, 7.061610
808.4503, 7.052274
808.9324, 7.150550
809.4145, 7.250213
809.8966, 7.353019
810.3787, 7.451481
810.8608, 7.553197
811.3430, 7.632838
811.8251, 7.674754
812.3072, 7.674904
812.7893, 7.615977
813.2714, 7.387306
813.7535, 7.265375
814.2357, 7.363398
814.7178, 7.511985
815.1999, 7.597348
815.6820, 7.641337
816.1641, 7.738331
816.6462, 7.923987
817.1284, 8.031380
817.6105, 7.843108
818.0926, 7.497888
818.5747, 7.213044
819.0568, 7.013037
819.5389, 7.017201
820.0211, 7.278328
820.5032, 7.582671
820.9853, 7.668319
821.4674, 7.558480
821.9495, 7.633071
822.4316, 8.077744
822.9138, 8.299390
823.3959, 8.009381
823.8780, 7.650472
824.3601, 7.523691
824.8422, 7.554541
825.3243, 7.534684
825.8065, 7.392595
826.2886, 7.289499
826.7707, 7.327660
827.2528, 7.396421
827.7349, 7.394049
828.2170, 7.342651
828.6992, 7.309430
829.1813, 7.317467
829.6634, 7.337031
830.1455, 7.337567
830.6276, 7.323691
831.1097, 7.283441
831.5919, 7.219010
832.0740, 7.289444
832.5561, 7.573750
833.0382, 7.866862
833.5203, 7.979030
834.0024, 7.925487
834.4846, 7.819060
834.9667, 7.561895
835.4488, 7.415643
835.9309, 7.458392
836.4130, 7.540310
836.8951, 7.615672
837.3773, 7.666441
837.8594, 7.646828
838.3415, 7.530677
838.8236, 7.483948
839.3057, 7.654886
839.7878, 7.881630
840.2700, 8.044705
840.7521, 8.131257
841.2342, 8.095796
841.7163, 7.946520
842.1984, 7.834550
842.6805, 7.933723
843.1627, 8.127296
843.6448, 7.996577
844.1269, 7.527895
844.6090, 7.269927
845.0911, 7.349767
845.5732, 7.546340
846.0554, 7.755063
846.5375, 7.939165
847.0196, 7.984812
847.5017, 7.813762
847.9838, 7.680211
848.4659, 7.646992
848.9481, 7.576569
849.4302, 7.299883
849.9123, 7.023519
850.3944, 7.044869
850.8765, 7.372965
851.3586, 7.663129
851.8408, 7.704224
852.3229, 7.676795
852.8050, 7.757563
853.2871, 7.867277
853.7692, 7.842839
854.2513, 7.687896
854.7335, 7.563794
855.2156, 7.578838
855.6977, 7.637453
856.1798, 7.525714
856.6619, 7.253042
857.1440, 7.146035
857.6262, 7.253909
858.1083, 7.340757
858.5904, 7.266899
859.0725, 7.187417
859.5546, 7.365600
860.0367, 7.846370
860.5189, 8.047993
861.0010, 7.717819
861.4831, 7.462887
861.9652, 7.432929
862.4473, 7.462907
862.9294, 7.441600
863.4116, 7.372175
863.8937, 7.286229
864.3758, 7.175492
864.8579, 7.109990
865.3400, 7.200346
865.8221, 7.309813
866.3043, 7.248520
866.7864, 7.074147
867.2685, 6.965281
867.7506, 6.980591
868.2327, 7.043573
868.7148, 7.075440
869.1970, 7.091811
869.6791, 7.160042
870.1612, 7.279992
870.6433, 7.346957
871.1254, 7.330020
871.6075, 7.304365
872.0897, 7.338830
872.5718, 7.397816
873.0539, 7.357271
873.5360, 7.125528
874.0181, 7.004738
874.5002, 7.066888
874.9823, 7.160228
875.4644, 7.331987
875.9465, 7.452047
876.4286, 7.316519
876.9108, 6.930110
877.3929, 6.637487
877.8750, 6.581349
878.3571, 6.619738
878.8392, 6.743964
879.3214, 6.874982
879.8035, 6.923806
880.2856, 6.887906
880.7677, 6.772149
881.2498, 6.565856
881.7319, 6.433325
882.2141, 6.693588
882.6962, 7.174846
883.1783, 7.329225
883.6604, 7.161224
884.1425, 6.943273
884.6246, 6.764709
885.1068, 6.638873
885.5889, 6.585385
886.0710, 6.597219
886.5531, 6.634659
887.0352, 6.745504
887.5173, 6.733986
887.9995, 6.491527
888.4816, 6.240703
888.9637, 6.126101
889.4458, 6.094625
889.9279, 6.017274
890.4100, 5.842509
890.8922, 5.826414
891.3743, 6.223985
891.8564, 6.533236
892.3385, 6.336123
892.8206, 6.049680
893.3027, 6.085141
893.7849, 6.338543
894.2670, 6.471154
894.7491, 6.489462
895.2312, 6.051102
895.7133, 6.202430
896.1954, 6.117440
896.6776, 6.022751
897.1597, 6.257075
897.6418, 6.150275
898.1239, 6.308538
898.6060, 6.468969
899.0881, 6.510638
899.5703, 6.436011
900.0524, 6.202783
900.5345, 5.795298
901.0166, 5.562352
901.4987, 5.609821
901.9808, 5.756356
902.4630, 5.882967
902.9451, 5.976305
903.4272, 5.984073
903.9093, 5.854299
904.3914, 5.759062
904.8735, 5.693442
905.3557, 5.669785
905.8378, 5.695771
906.3199, 5.762365
906.8020, 5.905179
907.2841, 6.110092
907.7662, 6.180951
908.2484, 5.901127
908.7305, 5.695220
909.2126, 5.812747
909.6947, 6.016860
910.1768, 6.109437
910.6589, 6.092483
911.1411, 6.027051
911.6232, 5.934623
912.1053, 5.842970
912.5874, 5.797078
913.0695, 5.753121
913.5516, 5.601177
914.0338, 5.394728
914.5159, 5.300006
914.9980, 5.353539
915.4801, 5.499423
915.9622, 5.716753
916.4443, 5.923774
916.9265, 5.883342
917.4086, 5.596467
917.8907, 5.447070
918.3728, 5.487708
918.8549, 5.505889
919.3370, 5.387498
919.8192, 5.241051
920.3013, 5.219053
920.7834, 5.324662
921.2655, 5.428155
921.7476, 5.593412
922.2297, 5.645780
922.7119, 5.447279
923.1940, 5.242026
923.6761, 5.127039
924.1582, 5.116169
924.6403, 5.281402
925.1224, 5.710591
925.6046, 5.937572
926.0867, 5.648029
926.5688, 5.352938
927.0509, 5.334842
927.5330, 5.453920
928.0151, 5.577556
928.4973, 5.662537
928.9794, 5.658748
929.4615, 5.520679
929.9436, 5.346380
930.4257, 5.153229
930.9078, 5.016892
931.3900, 5.129105
931.8721, 5.399564
932.3542, 5.490511
932.8363, 5.303773
933.3184, 5.125011
933.8005, 5.279514
934.2827, 5.604321
934.7648, 5.616468
935.2469, 5.357553
935.7290, 5.254748
936.2111, 5.383756
936.6932, 5.475935
937.1754, 5.357176
937.6575, 5.167196
938.1396, 5.176306
938.6217, 5.406830
939.1038, 5.557577
939.5859, 5.618352
940.0681, 5.626121
940.5502, 5.576086
941.0323, 5.492001
941.5144, 5.340582
941.9965, 5.169478
942.4786, 5.197779
942.9608, 5.595113
943.4429, 5.832082
943.9250, 5.781573
944.4071, 5.692654
944.8892, 5.683121
945.3713, 5.677001
945.8535, 5.538344
946.3356, 5.289368
946.8177, 5.163307
947.2998, 5.271576
947.7819, 5.460600
948.2640, 5.764039
948.7462, 6.024071
949.2283, 6.094412
949.7104, 6.000824
950.1925, 5.761868
950.6746, 5.405335
951.1567, 5.175595
951.6389, 5.347335
952.1210, 5.672289
952.6031, 5.868956
953.0852, 5.962184
953.5673, 5.993562
954.0494, 5.977437
954.5316, 5.920890
955.0137, 5.824245
955.4958, 5.761438
955.9779, 5.875241
956.4600, 6.120023
956.9421, 6.271563
957.4242, 6.331728
957.9063, 6.332349
958.3884, 6.273983
958.8705, 6.241142
959.3527, 6.296390
959.8348, 6.438187
960.3169, 6.679906
960.7990, 7.055432
961.2811, 7.356580
961.7632, 7.583269
962.2454, 7.717064
962.7275, 7.698241
963.2096, 7.653061
963.6917, 7.698233
964.1738, 7.836196
964.6559, 8.105950
965.1381, 8.792653
965.6202, 9.144917
966.1023, 8.820253
966.5844, 8.532293
967.0665, 8.628239
967.5486, 8.919224
968.0308, 9.189586
968.5129, 9.420394
968.9950, 9.529859
969.4771, 9.347883
969.9592, 9.245647
970.4413, 9.440096
970.9235, 9.680162
971.4056, 9.774470
971.8877, 9.751143
972.3698, 9.709677
972.8519, 9.676529
973.3340, 9.576039
973.8162, 9.260885
974.2983, 8.969190
974.7804, 8.990987
975.2625, 9.106035
975.7446, 8.991578
976.2267, 8.652481
976.7089, 8.245351
977.1910, 7.836340
977.6731, 7.523258
978.1552, 7.433048
978.6373, 7.491259
979.1194, 7.616655
979.6016, 7.773119
980.0837, 7.880966
980.5658, 7.913696
981.0479, 7.809838
981.5300, 7.512834
982.0121, 7.157376
982.4943, 7.041735
982.9764, 7.097124
983.4585, 6.885189
983.9406, 6.403944
984.4227, 5.965422
984.9048, 5.657211
985.3870, 5.594966
985.8691, 5.954585
986.3512, 6.511218
986.8333, 6.431997
987.3154, 5.592128
987.7975, 5.196066
988.2797, 5.424180
988.7618, 5.601399
989.2439, 5.420855
989.7260, 5.170709
990.2081, 5.217105
990.6902, 5.509490
991.1724, 5.546464
991.6545, 5.136493
992.1366, 4.920339
992.6187, 5.025777
993.1008, 5.201070
993.5829, 5.455115
994.0651, 5.630610
994.5472, 5.421184
995.0293, 4.816793
995.5114, 4.467583
995.9935, 4.568411
996.4756, 4.651000
996.9578, 4.610271
997.4399, 4.584879
997.9220, 4.722224
998.4041, 4.893951
998.8862, 4.854124
999.3683, 4.571335
999.8505, 4.406893
1000.333, 4.565629
1000.815, 4.705413
1001.297, 4.679495
1001.779, 4.603353
1002.261, 4.503438
1002.743, 4.450707
1003.225, 4.623783
1003.707, 5.070302
1004.190, 5.371283
1004.672, 5.199737
1005.154, 4.947873
1005.636, 4.821701
1006.118, 4.800529
1006.600, 4.947248
1007.082, 5.157603
1007.564, 5.131951
1008.046, 4.756944
1008.529, 4.420004
1009.011, 4.481076
1009.493, 4.685364
1009.975, 4.776199
1010.457, 4.795001
1010.939, 4.825128
1011.421, 4.870509
1011.903, 4.890572
1012.385, 4.865849
1012.868, 4.800681
1013.350, 4.666585
1013.832, 4.513863
1014.314, 4.423985
1014.796, 4.397592
1015.278, 4.464496
1015.760, 4.608057
1016.242, 4.688855
1016.725, 4.619072
1017.207, 4.524609
1017.689, 4.611558
1018.171, 4.822885
1018.653, 4.996680
1019.135, 5.113086
1019.617, 4.981666
1020.099, 4.576445
1020.581, 4.321397
1021.064, 4.527267
1021.546, 4.934354
1022.028, 5.032474
1022.510, 4.856451
1022.992, 4.859949
1023.474, 5.050159
1023.956, 5.122107
1024.438, 4.993849
1024.921, 4.768821
1025.403, 4.500676
1025.885, 4.253237
1026.367, 4.190618
1026.849, 4.324018
1027.331, 4.474872
1027.813, 4.653512
1028.295, 4.791271
1028.777, 4.864064
1029.260, 4.914263
1029.742, 4.984529
1030.224, 5.045606
1030.706, 5.002282
1031.188, 4.823797
1031.670, 4.705934
1032.152, 4.659439
1032.634, 4.648721
1033.116, 4.697342
1033.599, 4.707598
1034.081, 4.553010
1034.563, 4.324206
1035.045, 4.319761
1035.527, 4.631504
1036.009, 4.858193
1036.491, 5.054912
1036.973, 5.045427
1037.456, 4.586932
1037.938, 4.153528
1038.420, 4.206911
1038.902, 4.588603
1039.384, 4.757567
1039.866, 4.624846
1040.348, 4.526149
1040.830, 4.478429
1041.313, 4.440651
1041.795, 4.350294
1042.277, 4.313326
1042.759, 4.490318
1043.241, 4.786561
1043.723, 4.898720
1044.205, 4.771017
1044.687, 4.604468
1045.169, 4.271266
1045.651, 4.078680
1046.134, 4.218196
1046.616, 4.439786
1047.098, 4.550349
1047.580, 4.575096
1048.062, 4.615769
1048.544, 4.703164
1049.026, 4.728158
1049.508, 4.540537
1049.991, 4.464398
1050.473, 4.815015
1050.955, 5.138407
1051.437, 4.883960
1051.919, 4.316857
1052.401, 4.244070
1052.883, 4.942115
1053.365, 5.389542
1053.848, 5.190828
1054.330, 4.937479
1054.812, 4.841090
1055.294, 4.797461
1055.776, 4.708866
1056.258, 4.594366
1056.740, 4.505758
1057.222, 4.441405
1057.704, 4.475758
1058.187, 4.792207
1058.669, 5.004422
1059.151, 4.889651
1059.633, 4.651453
1060.115, 4.398254
1060.597, 4.186880
1061.079, 4.096425
1061.561, 4.144462
1062.043, 4.292789
1062.526, 4.682673
1063.008, 4.973166
1063.490, 4.913074
1063.972, 4.776144
1064.454, 4.828398
1064.936, 4.987241
1065.418, 5.028532
1065.900, 4.904810
1066.383, 4.812714
1066.865, 4.907555
1067.347, 4.948874
1067.829, 4.706480
1068.311, 4.470415
1068.793, 4.563373
1069.275, 4.826804
1069.757, 4.918791
1070.240, 4.779830
1070.722, 4.663393
1071.204, 4.710121
1071.686, 4.755861
1072.168, 4.747397
1072.650, 4.684463
1073.132, 4.523529
1073.614, 4.327161
1074.096, 4.165910
1074.578, 4.065556
1075.061, 4.107950
1075.543, 4.457212
1076.025, 4.749516
1076.507, 4.758028
1076.989, 4.692319
1077.471, 4.750756
1077.953, 4.830239
1078.435, 4.680780
1078.918, 4.332433
1079.400, 4.197880
1079.882, 4.549689
1080.364, 4.889553
1080.846, 5.065478
1081.328, 5.054748
1081.810, 4.643556
1082.292, 4.157423
1082.774, 4.093738
1083.257, 4.408458
1083.739, 4.587839
1084.221, 4.403510
1084.703, 4.237533
1085.185, 4.297717
1085.667, 4.397438
1086.149, 4.432241
1086.631, 4.424421
1087.114, 4.428565
1087.596, 4.422167
1088.078, 4.294662
1088.560, 3.971571
1089.042, 3.738585
1089.524, 3.694942
1090.006, 3.794980
1090.488, 4.150587
1090.970, 4.525687
1091.453, 4.674619
1091.935, 4.642981
1092.417, 4.575435
1092.899, 4.495198
1093.381, 4.493223
1093.863, 4.792000
1094.345, 4.933669
1094.827, 4.484977
1095.309, 3.991646
1095.792, 3.999643
1096.274, 4.287994
1096.756, 4.340676
1097.238, 4.070543
1097.720, 3.919730
1098.202, 4.168321
1098.684, 4.358922
1099.166, 4.247053
1099.649, 4.118305
1100.131, 4.210329
1100.613, 4.394220
1101.095, 4.447935
1101.577, 4.361901
1102.059, 4.325748
1102.541, 4.450304
1103.023, 4.520608
1103.505, 4.377847
1103.988, 4.292868
1104.470, 4.522595
1104.952, 4.810532
1105.434, 4.848462
1105.916, 4.658116
1106.398, 4.445171
1106.880, 4.164271
1107.362, 4.043162
1107.844, 4.260311
1108.327, 4.459174
1108.809, 4.513621
1109.291, 4.488338
1109.773, 4.398964
1110.255, 4.284873
1110.737, 4.260269
1111.219, 4.367182
1111.701, 4.429315
1112.184, 4.356462
1112.666, 4.346440
1113.148, 4.582675
1113.630, 4.752587
1114.112, 4.550045
1114.594, 4.181916
1115.076, 4.036145
1115.558, 4.134630
1116.041, 4.242885
1116.523, 4.448136
1117.005, 4.506749
1117.487, 4.241433
1117.969, 4.045084
1118.451, 4.165316
1118.933, 4.397238
1119.415, 4.491629
1119.897, 4.455380
1120.380, 4.356099
1120.862, 4.113313
1121.344, 4.027880
1121.826, 4.255795
1122.308, 4.299304
1122.790, 3.824572
1123.272, 3.392926
1123.754, 3.613619
1124.236, 4.247520
1124.719, 4.461152
1125.201, 4.156765
1125.683, 3.905200
1126.165, 3.620050
1126.647, 3.630805
1127.129, 3.923822
1127.611, 4.096038
1128.093, 4.153952
1128.576, 3.755236
1129.058, 3.946169
1129.540, 3.900787
1130.022, 3.845710
1130.504, 4.119644
1130.986, 3.787311
1131.468, 4.056027
1131.950, 3.938003
1132.432, 3.681733
1132.915, 3.498432
1133.397, 3.784755
1133.879, 4.343488
1134.361, 4.415160
1134.843, 4.050152
1135.325, 3.825054
1135.807, 3.781909
1136.289, 3.873693
1136.771, 4.081855
1137.254, 4.288228
1137.736, 4.410060
1138.218, 4.413827
1138.700, 4.133447
1139.182, 3.705249
1139.664, 3.619266
1140.146, 3.816072
1140.628, 4.031293
1141.111, 4.192597
1141.593, 4.223378
1142.075, 4.081316
1142.557, 3.915449
1143.039, 3.918658
1143.521, 3.988001
1144.003, 3.934237
1144.485, 3.821923
1144.968, 3.762268
1145.450, 3.773944
1145.932, 3.871216
1146.414, 4.051308
1146.896, 4.255205
1147.378, 4.466335
1147.860, 4.633051
1148.342, 4.746768
1148.824, 4.753958
1149.307, 4.547246
1149.789, 4.207407
1150.271, 3.791586
1150.753, 3.385167
1151.235, 3.251992
1151.717, 3.547809
1152.199, 3.893072
1152.681, 4.169542
1153.163, 4.309118
1153.646, 4.169351
1154.128, 3.948385
1154.610, 3.842972
1155.092, 3.831102
1155.574, 3.825581
1156.056, 3.810504
1156.538, 3.763823
1157.020, 3.531255
1157.503, 3.479027
1157.985, 3.920557
1158.467, 4.342323
1158.949, 4.392135
1159.431, 4.273238
1159.913, 4.305355
1160.395, 4.458383
1160.877, 4.358641
1161.359, 3.633818
1161.842, 3.373773
1162.324, 4.020438
1162.806, 4.465612
1163.288, 4.279974
1163.770, 3.971015
1164.252, 3.882705
1164.734, 3.962054
1165.216, 4.117467
1165.698, 4.364532
1166.181, 4.468221
1166.663, 4.397931
1167.145, 4.274782
1167.627, 4.066336
1168.109, 4.013155
1168.591, 4.284366
1169.073, 4.567708
1169.555, 4.484478
1170.037, 4.140779
1170.520, 3.919536
1171.002, 3.819573
1171.484, 3.758674
1171.966, 3.734863
1172.448, 3.857622
1172.930, 4.151567
1173.412, 4.331286
1173.894, 4.196624
1174.377, 3.932492
1174.859, 3.776998
1175.341, 3.724017
1175.823, 3.800462
1176.305, 3.955354
1176.787, 4.012202
1177.269, 3.984248
1177.751, 4.060026
1178.234, 4.288884
1178.716, 4.427294
1179.198, 4.226184
1179.680, 3.987035
1180.162, 4.051906
1180.644, 4.261981
1181.126, 4.504632
1181.608, 4.696152
1182.090, 4.684287
1182.573, 4.494444
1183.055, 4.301847
1183.537, 4.170665
1184.019, 4.049852
1184.501, 3.833322
1184.983, 3.720941
1185.465, 3.992053
1185.947, 4.256709
1186.429, 4.043498
1186.912, 3.640287
1187.394, 3.662110
1187.876, 4.145049
1188.358, 4.399932
1188.840, 4.165692
1189.322, 3.940531
1189.804, 3.708528
1190.286, 3.580425
1190.769, 3.648255
1191.251, 3.779219
1191.733, 3.933813
1192.215, 4.028398
1192.697, 3.790312
1193.179, 3.137633
1193.661, 2.885076
1194.143, 3.133033
1194.625, 3.425709
1195.108, 3.721737
1195.590, 3.949249
1196.072, 4.071248
1196.554, 4.108855
1197.036, 4.066365
1197.518, 3.994446
1198.000, 4.100556
1198.482, 4.346315
1198.964, 4.352570
1199.447, 4.136708
1199.929, 3.966738
1200.411, 3.907776
1200.893, 3.938645
1201.375, 4.050008
1201.857, 4.169240
1202.339, 4.191835
1202.821, 4.188320
1203.304, 4.297157
1203.786, 4.450571
1204.268, 4.560438
1204.750, 4.598502
1205.232, 4.463459
1205.714, 4.184573
1206.196, 4.086946
1206.678, 4.427694
1207.161, 4.689585
1207.643, 4.415486
1208.125, 4.106303
1208.607, 4.184780
1209.089, 4.347366
1209.571, 4.216894
1210.053, 3.908201
1210.535, 3.741206
1211.017, 3.764375
1211.500, 3.873902
1211.982, 4.262176
1212.464, 4.413185
1212.946, 3.942304
1213.428, 3.650602
1213.910, 4.013476
1214.392, 4.462687
1214.874, 4.426818
1215.356, 4.073806
1215.839, 3.911563
1216.321, 3.954538
1216.803, 4.072222
1217.285, 4.289712
1217.767, 4.410327
1218.249, 4.396394
1218.731, 4.313746
1219.213, 4.185410
1219.696, 4.089280
1220.178, 4.122433
1220.660, 4.221701
1221.142, 4.236149
1221.624, 4.193421
1222.106, 4.215048
1222.588, 4.263324
1223.070, 4.139501
1223.552, 3.860097
1224.035, 3.703720
1224.517, 3.800805
1224.999, 3.966243
1225.481, 4.085440
1225.963, 4.155804
1226.445, 4.149457
1226.927, 4.114193
1227.409, 4.135298
1227.891, 4.145796
1228.374, 3.937814
1228.856, 3.579278
1229.338, 3.537997
1229.820, 4.071520
1230.302, 4.459746
1230.784, 4.491948
1231.266, 4.419459
1231.748, 4.245225
1232.231, 4.070774
1232.713, 3.922828
1233.195, 3.839022
1233.677, 3.881283
1234.159, 4.040112
1234.641, 4.263272
1235.123, 4.627871
1235.605, 4.638884
1236.088, 4.197361
1236.570, 3.934515
1237.052, 4.025740
1237.534, 4.182982
1238.016, 4.218798
1238.498, 4.260488
1238.980, 4.551877
1239.462, 4.920098
1239.944, 4.813620
1240.427, 4.416452
1240.909, 4.269452
1241.391, 4.353291
1241.873, 4.465856
1242.355, 4.537486
1242.837, 4.519222
1243.319, 4.371782
1243.801, 4.227330
1244.283, 4.230527
1244.766, 4.221242
1245.248, 3.975634
1245.730, 3.749511
1246.212, 3.848378
1246.694, 4.128619
1247.176, 4.341681
1247.658, 4.454620
1248.140, 4.495473
1248.622, 4.439463
1249.105, 4.372664
1249.587, 4.302163
1250.069, 4.214249
1250.551, 4.068585
1251.033, 3.969476
1251.515, 3.982232
1251.997, 4.081635
1252.479, 4.250949
1252.962, 4.461044
1253.444, 4.517918
1253.926, 4.426585
1254.408, 4.463575
1254.890, 4.633579
1255.372, 4.799568
1255.854, 4.913775
1256.336, 4.850005
1256.818, 4.531567
1257.301, 4.164112
1257.783, 3.954232
1258.265, 3.848265
1258.747, 3.773306
1259.229, 3.760605
1259.711, 3.911591
1260.193, 4.130991
1260.675, 4.252537
1261.157, 4.255757
1261.640, 4.189949
1262.122, 4.046143
1262.604, 3.954457
1263.086, 4.004755
1263.568, 4.043414
1264.050, 3.971101
1264.532, 3.931579
1265.014, 4.030703
1265.497, 4.185705
1265.979, 4.300065
1266.461, 4.389662
1266.943, 4.538354
1267.425, 4.774745
1267.907, 4.834238
1268.389, 4.700652
1268.871, 4.578635
1269.354, 4.505789
1269.836, 4.299884
1270.318, 3.872250
1270.800, 3.597560
1271.282, 3.900229
1271.764, 4.382010
1272.246, 4.327365
1272.728, 4.058957
1273.210, 4.226024
1273.693, 4.574137
1274.175, 4.496945
1274.657, 4.109457
1275.139, 4.045092
1275.621, 4.456805
1276.103, 4.714814
1276.585, 4.468681
1277.067, 4.173341
1277.549, 3.826325
1278.032, 3.654242
1278.514, 3.927026
1278.996, 4.266634
1279.478, 4.349589
1279.960, 4.269893
1280.442, 4.170065
1280.924, 4.058287
1281.406, 4.258974
1281.889, 4.833980
1282.371, 5.148496
1282.853, 5.124674
1283.335, 5.456826
1283.817, 6.349395
1284.299, 8.188697
1284.781, 11.25623
1285.263, 14.72116
1285.745, 17.72904
1286.228, 20.28256
##END=



