##NAMES=Brookite
##RRUFFID=R050363
##IDEAL CHEMISTRY=Ti^4+^O_2_
##LOCALITY=Magnet Cove, Arkansas, USA
##OWNER=RRUFF
##SOURCE=University of Arizona Mineral Museum
##DESCRIPTION=Black fragment of a prismatic crystal associated with quartz
##STATUS=The identification of this mineral has been confirmed by X-ray diffraction and chemical analysis
##URL=rruff.info/R050363
##MEASURED CHEMISTRY=(Ti_0.94_Nb^5+^_0.03_Fe^3+^_0.03_)_Î£=1_O_2_
92.52344, 107.4325
93.00555, 107.8688
93.48767, 107.9162
93.96979, 109.0431
94.45190, 110.3459
94.93402, 111.6120
95.41614, 111.3058
95.89825, 109.8820
96.38037, 108.2335
96.86249, 106.3913
97.34460, 104.4904
97.82672, 102.4908
98.30884, 100.6898
98.79095, 99.18985
99.27307, 97.78964
99.75519, 96.28964
100.2373, 94.86547
100.7194, 93.61665
101.2015, 92.59634
101.6837, 91.78568
102.1658, 91.13093
102.6479, 90.58329
103.1300, 90.12717
103.6121, 89.80863
104.0942, 89.67226
104.5764, 89.67777
105.0585, 89.82483
105.5406, 90.15870
106.0227, 90.63081
106.5048, 91.12926
106.9869, 91.79472
107.4691, 92.20851
107.9512, 92.01289
108.4333, 91.40981
108.9154, 90.89769
109.3975, 90.92435
109.8796, 91.57143
110.3618, 92.20203
110.8439, 92.83295
111.3260, 93.43176
111.8081, 93.90772
112.2902, 94.28736
112.7723, 94.72563
113.2544, 95.45692
113.7366, 96.74014
114.2187, 97.84991
114.7008, 98.74011
115.1829, 99.50011
115.6650, 100.1664
116.1471, 100.7524
116.6293, 101.3217
117.1114, 102.0513
117.5935, 103.0995
118.0756, 103.9918
118.5577, 104.5290
119.0398, 104.8190
119.5220, 105.1040
120.0041, 105.4346
120.4862, 105.8912
120.9683, 106.6110
121.4504, 107.7470
121.9325, 108.8811
122.4147, 109.6351
122.8968, 109.9788
123.3789, 110.3027
123.8610, 110.9618
124.3431, 111.6436
124.8252, 112.0131
125.3074, 111.9068
125.7895, 111.5049
126.2716, 111.1661
126.7537, 110.9024
127.2358, 110.6942
127.7179, 110.5663
128.2001, 110.4715
128.6822, 110.3329
129.1643, 110.0834
129.6464, 109.7427
130.1285, 109.5760
130.6107, 109.7050
131.0928, 109.9085
131.5749, 110.2710
132.0570, 110.6841
132.5391, 110.9163
133.0212, 110.7208
133.5034, 109.9778
133.9855, 109.6647
134.4676, 109.9568
134.9497, 110.4374
135.4318, 110.9061
135.9139, 111.3316
136.3960, 111.7696
136.8782, 112.2858
137.3603, 112.8997
137.8424, 113.5027
138.3245, 113.9724
138.8066, 114.4712
139.2887, 115.2394
139.7709, 116.3728
140.2530, 117.5919
140.7351, 118.5266
141.2172, 119.2031
141.6993, 119.8631
142.1814, 120.5680
142.6636, 121.3230
143.1457, 122.1815
143.6278, 123.2797
144.1099, 124.3280
144.5920, 125.0716
145.0741, 125.5096
145.5563, 125.8871
146.0384, 126.4590
146.5205, 127.2648
147.0026, 127.9191
147.4847, 128.1773
147.9668, 128.3772
148.4490, 128.7578
148.9311, 129.3509
149.4132, 129.9379
149.8953, 130.1722
150.3774, 129.8971
150.8595, 129.5566
151.3417, 129.2575
151.8238, 128.8885
152.3059, 128.3791
152.7880, 127.7033
153.2701, 126.8481
153.7522, 125.7895
154.2344, 124.4281
154.7165, 122.9449
155.1986, 121.2566
155.6807, 119.4706
156.1628, 117.7195
156.6449, 116.0772
157.1271, 114.5104
157.6092, 112.8858
158.0913, 111.2636
158.5734, 109.5256
159.0555, 107.6003
159.5376, 105.5306
160.0198, 103.4098
160.5019, 101.2568
160.9840, 99.11446
161.4661, 97.13265
161.9482, 95.41209
162.4303, 93.73489
162.9125, 92.01706
163.3946, 90.25597
163.8767, 88.34962
164.3588, 86.09970
164.8409, 83.71345
165.3230, 81.52846
165.8052, 79.69376
166.2873, 78.00734
166.7694, 76.23281
167.2515, 74.32890
167.7336, 72.45591
168.2157, 70.64443
168.6979, 68.91246
169.1800, 67.29347
169.6621, 65.83626
170.1442, 64.47626
170.6263, 63.00611
171.1084, 61.29934
171.5906, 59.69274
172.0727, 58.30221
172.5548, 57.05638
173.0369, 55.84727
173.5190, 54.60253
174.0011, 53.33764
174.4833, 52.18568
174.9654, 51.14565
175.4475, 50.23515
175.9296, 49.47668
176.4117, 48.85321
176.8938, 48.33615
177.3760, 47.91375
177.8581, 47.58867
178.3402, 47.25443
178.8223, 46.86173
179.3044, 46.50858
179.7865, 46.20922
180.2687, 45.97654
180.7508, 45.85131
181.2329, 45.89561
181.7150, 46.13559
182.1971, 46.15809
182.6792, 45.73488
183.1614, 45.31624
183.6435, 45.16781
184.1256, 45.29629
184.6077, 45.53846
185.0898, 45.77065
185.5719, 45.99018
186.0541, 46.18756
186.5362, 46.35548
187.0183, 46.50440
187.5004, 46.61432
187.9825, 46.67800
188.4646, 46.79177
188.9468, 47.08060
189.4289, 47.50587
189.9110, 47.92831
190.3931, 48.35845
190.8752, 48.75486
191.3573, 49.00394
191.8395, 49.01546
192.3216, 49.11702
192.8037, 49.75120
193.2858, 50.68342
193.7679, 51.36224
194.2500, 51.35295
194.7322, 50.87951
195.2143, 50.67556
195.6964, 50.87255
196.1785, 51.17579
196.6606, 51.43871
197.1427, 51.66880
197.6249, 51.87817
198.1070, 52.05899
198.5891, 52.21773
199.0712, 52.42482
199.5533, 52.73628
200.0354, 53.03591
200.5176, 53.29972
200.9997, 53.51762
201.4818, 53.66774
201.9639, 53.70512
202.4460, 53.62379
202.9281, 53.66005
203.4103, 53.91813
203.8924, 54.20780
204.3745, 54.48383
204.8566, 54.74651
205.3387, 55.01974
205.8208, 55.34480
206.3030, 55.75138
206.7851, 55.93046
207.2672, 55.81023
207.7493, 55.56186
208.2314, 55.18108
208.7135, 54.71373
209.1957, 54.26463
209.6778, 53.94242
210.1599, 53.78260
210.6420, 53.45903
211.1241, 52.93596
211.6062, 52.31897
212.0884, 51.55367
212.5705, 50.70271
213.0526, 50.00487
213.5347, 49.73718
214.0168, 49.97628
214.4989, 49.74266
214.9811, 48.70203
215.4632, 47.49363
215.9453, 46.44775
216.4274, 45.60748
216.9095, 44.99248
217.3916, 44.67558
217.8737, 44.66643
218.3559, 44.56108
218.8380, 44.30940
219.3201, 43.98667
219.8022, 43.59767
220.2843, 43.14342
220.7664, 42.79131
221.2486, 42.70124
221.7307, 42.83976
222.2128, 43.04930
222.6949, 43.39461
223.1770, 43.75755
223.6591, 44.00813
224.1413, 44.13852
224.6234, 44.18693
225.1055, 44.03093
225.5876, 43.81963
226.0697, 43.85655
226.5518, 44.34895
227.0340, 45.06582
227.5161, 45.68230
227.9982, 46.18590
228.4803, 46.63002
228.9624, 46.96229
229.4445, 47.26970
229.9267, 47.68544
230.4088, 48.29066
230.8909, 48.99947
231.3730, 49.66601
231.8551, 50.31986
232.3372, 50.84536
232.8194, 51.03627
233.3015, 51.13717
233.7836, 51.47203
234.2657, 52.23991
234.7478, 53.21274
235.2299, 53.84940
235.7121, 53.97351
236.1942, 54.11110
236.6763, 54.34440
237.1584, 54.69561
237.6405, 55.22649
238.1227, 55.98691
238.6048, 56.86501
239.0869, 57.56193
239.5690, 57.95105
240.0511, 58.37903
240.5332, 58.98071
241.0154, 59.61806
241.4975, 60.13802
241.9796, 60.47425
242.4617, 60.69534
242.9438, 60.96877
243.4259, 61.34599
243.9081, 61.69784
244.3902, 62.08741
244.8723, 62.41204
245.3544, 62.57007
245.8365, 62.52345
246.3186, 62.31660
246.8008, 62.05079
247.2829, 61.76182
247.7650, 61.34266
248.2471, 60.66022
248.7292, 59.92100
249.2113, 59.32654
249.6935, 58.94236
250.1756, 58.67083
250.6577, 58.31758
251.1398, 57.75036
251.6219, 57.29877
252.1040, 57.01183
252.5862, 56.81084
253.0683, 56.62005
253.5504, 56.42020
254.0325, 56.25554
254.5146, 56.20611
254.9967, 56.38588
255.4789, 56.47204
255.9610, 56.33434
256.4431, 56.17859
256.9252, 56.21635
257.4073, 56.48911
257.8894, 56.83392
258.3716, 57.03020
258.8537, 57.00025
259.3358, 57.01006
259.8179, 57.00721
260.3000, 57.07496
260.7821, 57.30687
261.2643, 57.71462
261.7464, 58.20840
262.2285, 58.71616
262.7106, 59.25964
263.1927, 59.66368
263.6748, 59.82755
264.1570, 59.91151
264.6391, 60.01302
265.1212, 60.14968
265.6033, 60.35841
266.0854, 60.67379
266.5675, 61.10758
267.0497, 61.60882
267.5318, 62.32415
268.0139, 63.00190
268.4960, 63.42178
268.9781, 63.57747
269.4602, 63.63050
269.9424, 63.66123
270.4245, 63.68687
270.9066, 63.79311
271.3887, 64.04096
271.8708, 64.32667
272.3529, 64.53565
272.8351, 64.68065
273.3172, 64.93684
273.7993, 65.52068
274.2814, 66.26472
274.7635, 66.65846
275.2456, 66.47568
275.7278, 66.18143
276.2099, 66.12553
276.6920, 66.27440
277.1741, 66.34376
277.6562, 66.16033
278.1383, 65.83562
278.6205, 65.60737
279.1026, 65.47559
279.5847, 65.43424
280.0668, 65.59200
280.5489, 65.88993
281.0310, 65.95452
281.5132, 65.56536
281.9953, 64.95961
282.4774, 64.45284
282.9595, 64.02993
283.4416, 63.77884
283.9237, 63.90667
284.4059, 64.29562
284.8880, 64.40966
285.3701, 63.96450
285.8522, 63.41699
286.3343, 63.25369
286.8164, 63.45546
287.2986, 63.73362
287.7807, 63.97070
288.2628, 64.16869
288.7449, 64.30868
289.2270, 64.32606
289.7091, 64.40350
290.1913, 64.68922
290.6734, 65.15079
291.1555, 65.70398
291.6376, 66.34551
292.1197, 67.04385
292.6018, 67.73251
293.0840, 68.39464
293.5661, 69.07182
294.0482, 69.74944
294.5303, 70.45842
295.0124, 71.29092
295.4945, 72.38570
295.9767, 73.56313
296.4588, 74.41381
296.9409, 74.78801
297.4230, 75.35484
297.9051, 76.66259
298.3872, 78.31216
298.8694, 79.88982
299.3515, 81.32573
299.8336, 82.56536
300.3157, 83.44125
300.7978, 83.87302
301.2799, 84.45932
301.7621, 85.57202
302.2442, 86.88103
302.7263, 88.12458
303.2084, 89.25774
303.6905, 90.32359
304.1726, 91.36469
304.6548, 92.37840
305.1369, 93.37990
305.6190, 94.41076
306.1011, 95.40067
306.5832, 96.25320
307.0653, 96.96992
307.5475, 97.71866
308.0296, 98.72012
308.5117, 99.93645
308.9938, 100.9361
309.4759, 101.6782
309.9580, 102.1381
310.4402, 102.2673
310.9223, 102.1203
311.4044, 101.8949
311.8865, 101.5772
312.3686, 101.2506
312.8507, 101.3657
313.3329, 102.2970
313.8150, 103.0204
314.2971, 102.9561
314.7792, 102.3348
315.2613, 101.5485
315.7434, 100.6973
316.2256, 99.83780
316.7077, 99.12917
317.1898, 98.65468
317.6719, 98.07763
318.1540, 97.26144
318.6361, 96.26252
319.1183, 95.10143
319.6004, 93.75023
320.0825, 92.31818
320.5646, 90.94743
321.0467, 89.64818
321.5288, 88.34837
322.0110, 87.11771
322.4931, 85.81404
322.9752, 84.28087
323.4573, 82.49473
323.9394, 80.67896
324.4215, 79.03475
324.9037, 77.56877
325.3858, 76.14986
325.8679, 74.79721
326.3500, 73.45144
326.8321, 72.06442
327.3142, 70.64030
327.7964, 69.22608
328.2785, 67.85944
328.7606, 66.53207
329.2427, 65.16411
329.7248, 63.65542
330.2069, 62.28717
330.6891, 61.27433
331.1712, 60.50769
331.6533, 59.76124
332.1354, 58.94330
332.6175, 58.07697
333.0996, 57.17919
333.5818, 56.20176
334.0639, 55.33642
334.5460, 54.76200
335.0281, 54.32787
335.5102, 53.87036
335.9923, 53.32035
336.4745, 52.79187
336.9566, 52.41879
337.4387, 52.20833
337.9208, 52.05677
338.4029, 51.97899
338.8850, 51.91288
339.3671, 51.74610
339.8492, 51.45351
340.3314, 51.28969
340.8135, 51.53676
341.2956, 52.12339
341.7777, 52.58776
342.2598, 52.81840
342.7419, 52.94538
343.2241, 53.03024
343.7062, 53.09520
344.1883, 53.26528
344.6704, 53.60891
345.1525, 54.09726
345.6346, 54.70497
346.1168, 55.47602
346.5989, 56.21651
347.0810, 56.75519
347.5631, 57.16493
348.0452, 57.55928
348.5273, 57.93153
349.0095, 58.33199
349.4916, 58.81609
349.9737, 59.38241
350.4558, 60.02777
350.9379, 60.85870
351.4200, 61.69593
351.9022, 62.23112
352.3843, 62.34132
352.8664, 62.44801
353.3485, 62.82001
353.8306, 63.41777
354.3127, 64.10307
354.7949, 64.88273
355.2770, 65.66817
355.7591, 66.39591
356.2412, 67.07462
356.7233, 67.57716
357.2054, 67.84879
357.6876, 67.91906
358.1697, 67.73415
358.6518, 67.23682
359.1339, 66.85285
359.6160, 67.11453
360.0981, 67.86742
360.5803, 68.25752
361.0624, 68.00837
361.5445, 67.48981
362.0266, 66.98109
362.5087, 66.47710
362.9908, 65.88779
363.4730, 65.16000
363.9551, 64.30807
364.4372, 63.37846
364.9193, 62.32539
365.4014, 61.28429
365.8835, 60.28619
366.3657, 59.34639
366.8478, 58.49842
367.3299, 57.76311
367.8120, 57.09766
368.2941, 56.42884
368.7762, 55.74053
369.2584, 55.11892
369.7405, 54.70953
370.2226, 54.29728
370.7047, 53.62172
371.1868, 52.66323
371.6689, 51.68052
372.1511, 50.88691
372.6332, 50.29467
373.1153, 49.79406
373.5974, 49.37583
374.0795, 49.04270
374.5616, 48.80632
375.0438, 48.65555
375.5259, 48.58329
376.0080, 48.60205
376.4901, 48.65992
376.9722, 48.56794
377.4543, 48.14725
377.9365, 47.80988
378.4186, 47.60764
378.9007, 47.50406
379.3828, 47.47926
379.8649, 47.52234
380.3470, 47.59851
380.8292, 47.66198
381.3113, 47.71511
381.7934, 47.74456
382.2755, 47.71666
382.7576, 47.69738
383.2397, 47.74253
383.7219, 47.83533
384.2040, 47.91195
384.6861, 47.92050
385.1682, 47.86558
385.6503, 47.81635
386.1324, 47.70428
386.6146, 47.67900
387.0967, 47.82713
387.5788, 48.05774
388.0609, 48.25410
388.5430, 48.36612
389.0251, 48.43785
389.5073, 48.57192
389.9894, 48.85577
390.4715, 49.01191
390.9536, 48.95193
391.4357, 48.83616
391.9178, 48.73455
392.4000, 48.67142
392.8821, 48.66680
393.3642, 48.74754
393.8463, 48.91578
394.3284, 49.10728
394.8105, 49.43456
395.2927, 49.64811
395.7748, 49.58621
396.2569, 49.37287
396.7390, 49.21455
397.2211, 49.22019
397.7032, 49.32662
398.1854, 49.39957
398.6675, 49.43777
399.1496, 49.44718
399.6317, 49.33662
400.1138, 49.25528
400.5959, 49.36834
401.0781, 49.69781
401.5602, 50.01534
402.0423, 50.09943
402.5244, 49.96777
403.0065, 49.79056
403.4886, 49.47918
403.9708, 49.29200
404.4529, 49.55873
404.9350, 50.09846
405.4171, 50.39216
405.8992, 50.07148
406.3813, 49.45072
406.8635, 49.02974
407.3456, 48.83088
407.8277, 48.61549
408.3098, 48.20744
408.7919, 47.73833
409.2740, 47.43256
409.7562, 47.33910
410.2383, 47.31014
410.7204, 47.30322
411.2025, 47.29281
411.6846, 47.16557
412.1667, 46.84203
412.6489, 46.54299
413.1310, 46.67872
413.6131, 47.24136
414.0952, 47.41157
414.5773, 46.69658
415.0594, 45.76675
415.5416, 45.23208
416.0237, 45.10323
416.5058, 45.10044
416.9879, 45.07134
417.4700, 45.00888
417.9521, 44.87610
418.4343, 44.58558
418.9164, 44.34126
419.3985, 44.27837
419.8806, 44.27127
420.3627, 44.08987
420.8448, 43.66269
421.3270, 43.19743
421.8091, 43.01446
422.2912, 43.25319
422.7733, 43.39013
423.2554, 43.39214
423.7375, 43.33055
424.2197, 43.20716
424.7018, 43.05161
425.1839, 42.92479
425.6660, 42.86806
426.1481, 42.87994
426.6302, 42.95147
427.1124, 43.05665
427.5945, 43.26589
428.0766, 43.73292
428.5587, 44.23250
429.0408, 44.51825
429.5229, 44.52430
430.0051, 44.41460
430.4872, 44.40405
430.9693, 44.49847
431.4514, 44.66735
431.9335, 45.00984
432.4156, 45.34247
432.8978, 45.58855
433.3799, 45.76458
433.8620, 45.91779
434.3441, 46.04300
434.8262, 46.19132
435.3083, 46.55811
435.7905, 47.26400
436.2726, 47.84921
436.7547, 48.01211
437.2368, 48.05423
437.7189, 48.24669
438.2010, 48.64704
438.6832, 49.08487
439.1653, 49.41133
439.6474, 49.64641
440.1295, 49.91623
440.6116, 50.27758
441.0938, 50.60036
441.5759, 50.68315
442.0580, 50.61880
442.5401, 50.70977
443.0222, 51.21363
443.5043, 51.78947
443.9865, 52.05415
444.4686, 52.04057
444.9507, 52.07247
445.4328, 52.31651
445.9149, 52.68304
446.3970, 52.97738
446.8792, 53.21497
447.3613, 53.36139
447.8434, 53.33407
448.3255, 53.24417
448.8076, 53.22146
449.2897, 53.28915
449.7719, 53.41933
450.2540, 53.60801
450.7361, 53.86348
451.2182, 53.96564
451.7003, 53.73771
452.1824, 53.57384
452.6646, 53.69999
453.1467, 53.96946
453.6288, 54.12224
454.1109, 54.04434
454.5930, 53.83672
455.0751, 53.70905
455.5573, 53.77683
456.0394, 53.69157
456.5215, 53.37072
457.0036, 52.99376
457.4857, 52.61901
457.9678, 52.27903
458.4500, 52.01263
458.9321, 51.84958
459.4142, 51.78605
459.8963, 51.83350
460.3784, 52.20537
460.8605, 52.29303
461.3427, 51.74677
461.8248, 50.98008
462.3069, 50.39188
462.7890, 50.08175
463.2711, 49.86777
463.7532, 49.55337
464.2354, 49.14907
464.7175, 48.83849
465.1996, 48.68652
465.6817, 48.56186
466.1638, 48.41244
466.6459, 48.21986
467.1281, 47.91912
467.6102, 47.36650
468.0923, 46.80786
468.5744, 46.56228
469.0565, 46.59666
469.5386, 46.61023
470.0208, 46.51768
470.5029, 46.30098
470.9850, 45.86591
471.4671, 45.14626
471.9492, 44.59822
472.4313, 44.40081
472.9135, 44.39162
473.3956, 44.44854
473.8777, 44.53961
474.3598, 44.59126
474.8419, 44.55303
475.3240, 44.42508
475.8062, 44.20379
476.2883, 43.74033
476.7704, 43.37877
477.2525, 43.28545
477.7346, 43.28926
478.2167, 43.15233
478.6989, 42.82391
479.1810, 42.48921
479.6631, 42.39060
480.1452, 42.57452
480.6273, 42.76201
481.1094, 43.01923
481.5916, 43.20981
482.0737, 43.26014
482.5558, 43.21655
483.0379, 43.15687
483.5200, 43.11607
484.0021, 43.08809
484.4843, 43.06632
484.9664, 43.05603
485.4485, 43.02482
485.9306, 42.91339
486.4127, 42.82625
486.8948, 42.86989
487.3770, 43.01854
487.8591, 43.11865
488.3412, 42.99837
488.8233, 42.79689
489.3054, 42.82946
489.7875, 43.12622
490.2697, 43.38166
490.7518, 43.46832
491.2339, 43.39066
491.7160, 43.17698
492.1981, 42.77692
492.6802, 42.39252
493.1624, 42.11575
493.6445, 41.90689
494.1266, 41.71527
494.6087, 41.53053
495.0908, 41.34575
495.5729, 41.14759
496.0551, 40.93762
496.5372, 40.77478
497.0193, 40.72876
497.5014, 40.64221
497.9835, 40.48048
498.4656, 40.24396
498.9478, 39.89843
499.4299, 39.44283
499.9120, 38.98822
500.3941, 38.71391
500.8762, 38.68573
501.3583, 38.56759
501.8405, 38.25704
502.3226, 37.96085
502.8047, 37.78942
503.2868, 37.68004
503.7689, 37.49388
504.2510, 37.14241
504.7331, 36.76435
505.2152, 36.68083
505.6974, 36.97431
506.1795, 37.03914
506.6616, 36.54889
507.1437, 35.98260
507.6258, 35.72038
508.1079, 35.71680
508.5901, 35.69180
509.0722, 35.46556
509.5543, 35.16142
510.0364, 34.96262
510.5185, 34.86943
511.0006, 34.78621
511.4828, 34.65598
511.9649, 34.52177
512.4470, 34.48261
512.9291, 34.56170
513.4113, 34.63529
513.8934, 34.66970
514.3755, 34.68452
514.8576, 34.70893
515.3397, 34.73993
515.8218, 34.73104
516.3040, 34.63420
516.7861, 34.47359
517.2682, 34.42584
517.7503, 34.65519
518.2324, 34.79266
518.7145, 34.67228
519.1967, 34.52568
519.6788, 34.60589
520.1609, 34.93254
520.6430, 35.30035
521.1251, 35.49709
521.6072, 35.52959
522.0894, 35.61555
522.5715, 35.85009
523.0536, 35.98240
523.5357, 35.82695
524.0178, 35.58212
524.4999, 35.48298
524.9821, 35.59535
525.4642, 35.78518
525.9463, 35.96053
526.4284, 36.11517
526.9105, 36.21064
527.3926, 36.21710
527.8748, 36.23564
528.3569, 36.34474
528.8390, 36.53196
529.3211, 36.75454
529.8032, 37.00389
530.2853, 37.29260
530.7675, 37.74465
531.2496, 38.22033
531.7317, 38.39387
532.2138, 38.16760
532.6959, 37.81656
533.1780, 37.67824
533.6602, 37.79007
534.1423, 37.88706
534.6244, 37.96585
535.1065, 38.03651
535.5886, 38.06249
536.0707, 38.09424
536.5529, 38.23280
537.0350, 38.51336
537.5171, 38.82435
537.9992, 38.98471
538.4813, 38.97525
538.9634, 38.90992
539.4456, 38.70469
539.9277, 38.54280
540.4098, 38.55560
540.8919, 38.66604
541.3740, 38.72279
541.8561, 38.67112
542.3383, 38.53375
542.8204, 38.25730
543.3025, 37.87288
543.7846, 37.70598
544.2667, 37.89821
544.7488, 38.20845
545.2310, 38.37362
545.7131, 38.41132
546.1952, 38.47560
546.6773, 38.75157
547.1594, 38.91015
547.6415, 38.60429
548.1237, 38.01225
548.6058, 37.59398
549.0879, 37.53997
549.5700, 37.65723
550.0521, 37.62002
550.5342, 37.32668
551.0164, 37.19459
551.4985, 37.37188
551.9806, 37.53445
552.4627, 37.52206
552.9448, 37.39345
553.4269, 37.28223
553.9091, 37.25373
554.3912, 37.24884
554.8733, 37.15314
555.3554, 36.94830
555.8375, 36.77394
556.3196, 36.64488
556.8018, 36.55587
557.2839, 36.50376
557.7660, 36.48412
558.2481, 36.48620
558.7302, 36.50909
559.2123, 36.54871
559.6945, 36.62400
560.1766, 36.71918
560.6587, 36.74851
561.1408, 36.66987
561.6229, 36.57205
562.1050, 36.56832
562.5872, 36.67610
563.0693, 36.77143
563.5514, 36.79864
564.0335, 36.86785
564.5156, 37.11404
564.9977, 37.42513
565.4799, 37.58376
565.9620, 37.50508
566.4441, 37.31407
566.9262, 37.18151
567.4083, 37.07103
567.8904, 37.16911
568.3726, 37.79480
568.8547, 38.30084
569.3368, 38.38477
569.8189, 38.22175
570.3010, 38.10176
570.7831, 38.13050
571.2653, 38.23187
571.7474, 38.33669
572.2295, 38.44144
572.7116, 38.51726
573.1937, 38.55196
573.6758, 38.57500
574.1580, 38.60137
574.6401, 38.63513
575.1222, 38.69233
575.6043, 38.76063
576.0864, 38.86843
576.5685, 39.13008
577.0507, 39.41092
577.5328, 39.43212
578.0149, 39.13896
578.4970, 38.80756
578.9791, 38.75619
579.4612, 39.00404
579.9434, 39.04878
580.4255, 38.60850
580.9076, 38.29496
581.3897, 38.37531
581.8718, 38.55559
582.3539, 38.47435
582.8361, 38.06868
583.3182, 37.62255
583.8003, 37.45526
584.2824, 37.51735
584.7645, 37.42426
585.2466, 37.11076
585.7288, 36.82301
586.2108, 36.71151
586.6929, 36.68420
587.1750, 36.62880
587.6572, 36.55167
588.1393, 36.38331
588.6214, 36.02320
589.1035, 35.58824
589.5856, 35.20426
590.0677, 34.89325
590.5499, 34.70442
591.0320, 34.68957
591.5141, 34.78951
591.9962, 34.78550
592.4783, 34.62321
592.9604, 34.42576
593.4426, 34.10973
593.9247, 33.82945
594.4068, 33.72891
594.8889, 33.76846
595.3710, 33.79237
595.8531, 33.69915
596.3353, 33.53033
596.8174, 33.37399
597.2995, 33.22942
597.7816, 33.10440
598.2637, 32.98247
598.7458, 32.90354
599.2280, 32.93790
599.7101, 33.05593
600.1922, 33.09550
600.6743, 32.97163
601.1564, 32.77877
601.6385, 32.54751
602.1207, 32.30893
602.6028, 32.14141
603.0849, 32.06909
603.5670, 32.11061
604.0491, 32.32154
604.5313, 32.76121
605.0134, 32.99358
605.4955, 32.84769
605.9776, 32.72065
606.4597, 32.76440
606.9418, 32.88805
607.4240, 32.97622
607.9061, 32.99313
608.3882, 32.96380
608.8703, 32.88830
609.3524, 32.77521
609.8345, 32.74343
610.3167, 32.81348
610.7988, 32.91893
611.2809, 33.06313
611.7630, 33.20758
612.2451, 33.29118
612.7272, 33.29425
613.2094, 33.30548
613.6915, 33.37737
614.1736, 33.47285
614.6557, 33.54838
615.1378, 33.60095
615.6199, 33.63857
616.1021, 33.66372
616.5842, 33.68273
617.0663, 33.71410
617.5484, 33.77531
618.0305, 33.81892
618.5126, 33.76842
618.9948, 33.77202
619.4769, 34.00229
619.9590, 34.34924
620.4411, 34.54953
620.9232, 34.45899
621.4053, 34.21350
621.8875, 33.95996
622.3696, 33.70192
622.8517, 33.68665
623.3338, 34.05967
623.8159, 34.48300
624.2980, 34.66218
624.7802, 34.66191
625.2623, 34.68686
625.7444, 34.75658
626.2265, 34.85829
626.7086, 35.03942
627.1907, 35.22709
627.6729, 35.29428
628.1550, 35.23014
628.6371, 35.15065
629.1192, 35.15603
629.6013, 35.23856
630.0834, 35.33559
630.5656, 35.45349
631.0477, 35.57635
631.5298, 35.79367
632.0119, 35.94356
632.4940, 35.81887
632.9761, 35.47904
633.4583, 35.25777
633.9404, 35.43336
634.4225, 35.77374
634.9046, 35.90847
635.3867, 35.85083
635.8688, 35.76191
636.3510, 35.68393
636.8331, 35.61108
637.3152, 35.52747
637.7973, 35.42893
638.2794, 35.38630
638.7615, 35.37286
639.2437, 35.44579
639.7258, 35.77953
640.2079, 36.15256
640.6900, 36.21009
641.1721, 35.88840
641.6542, 35.47455
642.1364, 35.26144
642.6185, 35.23850
643.1006, 35.30370
643.5827, 35.54668
644.0648, 35.67744
644.5469, 35.45330
645.0291, 35.15763
645.5112, 35.07349
645.9933, 35.21819
646.4754, 35.31495
646.9575, 35.27179
647.4396, 35.09780
647.9218, 34.68944
648.4039, 34.13223
648.8860, 33.79256
649.3681, 33.83233
649.8502, 34.02745
650.3323, 34.03092
650.8145, 33.78051
651.2966, 33.62403
651.7787, 33.61802
652.2608, 33.63653
652.7429, 33.76572
653.2250, 33.84130
653.7072, 33.58618
654.1893, 32.95137
654.6714, 32.32883
655.1535, 32.11247
655.6356, 32.20277
656.1177, 32.28577
656.5999, 32.35791
657.0820, 32.37275
657.5641, 32.28433
658.0462, 32.14909
658.5283, 32.08386
659.0104, 32.11278
659.4926, 32.07925
659.9747, 31.91644
660.4568, 31.72812
660.9389, 31.60444
661.4210, 31.50097
661.9031, 31.29498
662.3853, 30.94225
662.8674, 30.57701
663.3495, 30.39123
663.8316, 30.39465
664.3137, 30.43295
664.7958, 30.55651
665.2780, 30.62240
665.7601, 30.53904
666.2422, 30.37688
666.7243, 30.18136
667.2064, 29.94303
667.6885, 29.81047
668.1707, 29.96465
668.6528, 30.18694
669.1349, 30.19175
669.6170, 30.01904
670.0991, 29.92533
670.5812, 30.03982
671.0634, 30.20375
671.5455, 30.11749
672.0276, 29.67183
672.5097, 29.39467
672.9918, 29.41449
673.4739, 29.46775
673.9561, 29.53906
674.4382, 29.57254
674.9203, 29.47416
675.4024, 29.22170
675.8845, 28.97424
676.3666, 28.84457
676.8488, 28.81672
677.3309, 28.90284
677.8130, 29.09835
678.2951, 29.19998
678.7772, 29.08491
679.2593, 28.87278
679.7415, 28.78072
680.2236, 28.84984
680.7057, 28.92161
681.1878, 29.05871
681.6699, 29.13181
682.1520, 29.00696
682.6342, 28.80872
683.1163, 28.73422
683.5984, 28.83831
684.0805, 28.99780
684.5626, 29.11368
685.0447, 29.17750
685.5269, 29.11727
686.0090, 28.90200
686.4911, 28.72558
686.9732, 28.66404
687.4553, 28.69462
687.9374, 28.83234
688.4196, 29.11008
688.9017, 29.20821
689.3838, 28.87984
689.8659, 28.55642
690.3480, 28.58031
690.8301, 28.76589
691.3123, 28.70220
691.7944, 28.28705
692.2765, 27.92005
692.7586, 28.14376
693.2407, 28.89535
693.7228, 29.23677
694.2050, 29.00294
694.6871, 28.81467
695.1692, 28.99973
695.6513, 29.24677
696.1334, 29.18960
696.6155, 28.82714
697.0977, 28.51709
697.5798, 28.29318
698.0619, 28.22509
698.5440, 28.50657
699.0261, 28.95233
699.5082, 29.15018
699.9904, 28.99716
700.4725, 28.78573
700.9546, 28.84951
701.4367, 29.16214
701.9188, 29.32089
702.4009, 29.28893
702.8831, 29.17426
703.3652, 28.82230
703.8473, 28.53422
704.3294, 28.60412
704.8115, 28.98386
705.2936, 29.30805
705.7758, 29.43182
706.2579, 29.44511
706.7400, 29.37760
707.2221, 29.26389
707.7042, 29.17281
708.1863, 29.12221
708.6685, 29.11443
709.1506, 29.15890
709.6327, 29.24506
710.1148, 29.29108
710.5969, 29.27010
711.0790, 29.25768
711.5612, 29.24623
712.0433, 29.26089
712.5254, 29.35282
713.0075, 29.48700
713.4896, 29.54865
713.9717, 29.44345
714.4539, 29.34637
714.9360, 29.51125
715.4181, 29.78321
715.9002, 29.74072
716.3823, 29.33631
716.8644, 28.97012
717.3466, 28.93890
717.8287, 29.16250
718.3108, 29.34369
718.7929, 29.42351
719.2750, 29.57259
719.7571, 29.88613
720.2393, 30.17486
720.7214, 30.36273
721.2035, 30.45187
721.6856, 30.44740
722.1677, 30.33886
722.6498, 30.20130
723.1320, 30.06125
723.6141, 29.94789
724.0962, 29.91630
724.5783, 29.97138
725.0604, 30.13777
725.5425, 30.46065
726.0247, 30.80604
726.5068, 30.88321
726.9889, 30.55764
727.4710, 30.37397
727.9531, 30.45411
728.4352, 30.53467
728.9174, 30.52038
729.3995, 30.46107
729.8816, 30.43089
730.3637, 30.44446
730.8458, 30.44153
731.3279, 30.35549
731.8101, 30.23851
732.2922, 30.16251
732.7743, 30.13166
733.2564, 30.17494
733.7385, 30.31349
734.2206, 30.45155
734.7028, 30.44701
735.1849, 30.27994
735.6670, 30.27342
736.1491, 30.63589
736.6312, 30.89218
737.1133, 30.90262
737.5955, 30.82512
738.0776, 30.76269
738.5597, 30.74079
739.0418, 30.79556
739.5239, 31.02353
740.0060, 31.24104
740.4882, 31.17821
740.9703, 30.92970
741.4524, 30.79826
741.9345, 30.84653
742.4166, 30.92750
742.8987, 30.91587
743.3809, 30.83845
743.8630, 30.83508
744.3451, 30.99111
744.8272, 31.06444
745.3093, 30.88962
745.7914, 30.78249
746.2736, 30.99906
746.7557, 31.39223
747.2378, 31.63994
747.7199, 31.61253
748.2020, 31.54936
748.6841, 31.70753
749.1663, 31.91998
749.6484, 31.85438
750.1305, 31.52566
750.6126, 31.20183
751.0947, 31.01284
751.5768, 30.94900
752.0590, 31.01987
752.5411, 31.29007
753.0232, 31.38510
753.5053, 31.16843
753.9874, 30.95635
754.4695, 30.81163
754.9517, 30.73866
755.4338, 30.75369
755.9159, 30.85558
756.3980, 30.99226
756.8801, 31.20398
757.3622, 31.38532
757.8444, 31.40555
758.3265, 31.31842
758.8086, 31.24306
759.2907, 31.21383
759.7728, 31.23037
760.2549, 31.31003
760.7371, 31.42444
761.2192, 31.37721
761.7013, 31.08310
762.1834, 30.85599
762.6655, 30.75379
763.1476, 30.73263
763.6298, 30.81096
764.1119, 30.94192
764.5940, 30.98581
765.0761, 30.84337
765.5582, 30.75640
766.0403, 30.90497
766.5225, 31.12823
767.0046, 31.28185
767.4867, 31.33923
767.9688, 31.26950
768.4509, 31.05317
768.9330, 30.79452
769.4152, 30.67615
769.8973, 30.70293
770.3794, 30.71103
770.8615, 30.68287
771.3436, 30.67453
771.8257, 30.70050
772.3079, 30.76761
772.7900, 30.92571
773.2721, 31.19411
773.7542, 31.30493
774.2363, 31.07946
774.7184, 30.83875
775.2006, 30.73260
775.6827, 30.71463
776.1648, 30.72656
776.6469, 30.75092
777.1290, 30.78797
777.6111, 30.85020
778.0933, 30.90708
778.5754, 30.85956
779.0575, 30.71383
779.5396, 30.65920
780.0217, 30.75049
780.5038, 30.87139
780.9860, 30.94122
781.4681, 30.96535
781.9502, 30.96665
782.4323, 30.91339
782.9144, 30.89032
783.3965, 30.94980
783.8787, 30.99199
784.3608, 30.95086
784.8429, 30.85478
785.3250, 30.74116
785.8071, 30.62123
786.2892, 30.55808
786.7714, 30.67109
787.2535, 30.84883
787.7356, 30.85379
788.2177, 30.70713
788.6998, 30.62724
789.1819, 30.70383
789.6641, 30.76699
790.1462, 30.56812
790.6283, 30.10981
791.1104, 30.00879
791.5925, 30.56589
792.0746, 30.97315
792.5568, 31.05918
793.0389, 30.98458
793.5210, 30.76336
794.0031, 30.46785
794.4852, 30.30462
794.9673, 30.34271
795.4495, 30.50797
795.9316, 30.89261
796.4137, 31.29635
796.8958, 31.44261
797.3779, 31.34287
797.8600, 31.15045
798.3422, 30.94057
798.8243, 30.76099
799.3064, 30.69987
799.7885, 30.76053
800.2706, 30.84735
800.7527, 30.99519
801.2349, 31.05144
801.7170, 30.88098
802.1991, 30.65554
802.6812, 30.65309
803.1633, 30.87574
803.6454, 30.96697
804.1276, 30.80317
804.6097, 30.61466
805.0918, 30.40652
805.5739, 30.26944
806.0560, 30.34870
806.5381, 30.60011
807.0203, 30.81969
807.5024, 30.89421
807.9845, 30.86587
808.4666, 30.74959
808.9487, 30.57696
809.4308, 30.48387
809.9130, 30.48703
810.3951, 30.48333
810.8772, 30.40218
811.3593, 30.30677
811.8414, 30.33783
812.3235, 30.55710
812.8057, 30.66973
813.2878, 30.57769
813.7699, 30.49973
814.2520, 30.53881
814.7341, 30.59021
815.2162, 30.52252
815.6984, 30.34041
816.1805, 30.20190
816.6626, 30.24876
817.1447, 30.28116
817.6268, 30.10570
818.1089, 29.83917
818.5911, 29.65656
819.0732, 29.58339
819.5553, 29.57214
820.0374, 29.59602
820.5195, 29.63986
821.0016, 29.69331
821.4838, 29.75940
821.9659, 29.69556
822.4480, 29.43218
822.9301, 29.23839
823.4122, 29.27103
823.8943, 29.43597
824.3765, 29.61502
824.8586, 29.86218
825.3407, 29.83187
825.8228, 29.11336
826.3049, 28.59993
826.7870, 28.79765
827.2692, 29.21664
827.7513, 29.35010
828.2334, 29.16710
828.7155, 28.92005
829.1976, 28.72306
829.6797, 28.55920
830.1619, 28.38348
830.6440, 28.23248
831.1261, 28.24579
831.6082, 28.41300
832.0903, 28.48779
832.5724, 28.31756
833.0546, 28.03439
833.5367, 27.91081
834.0188, 27.98281
834.5009, 27.95109
834.9830, 27.75032
835.4651, 27.57936
835.9473, 27.56693
836.4294, 27.57462
836.9115, 27.41773
837.3936, 27.10853
837.8757, 26.88824
838.3578, 26.84266
838.8400, 26.83117
839.3221, 26.84227
839.8042, 26.83246
840.2863, 26.72482
840.7684, 26.55564
841.2505, 26.46505
841.7327, 26.53560
842.2148, 26.59849
842.6969, 26.40049
843.1790, 26.04315
843.6611, 25.83028
844.1432, 25.76893
844.6254, 25.67945
845.1075, 25.48174
845.5896, 25.25344
846.0717, 25.09731
846.5538, 25.01432
847.0359, 24.92677
847.5181, 24.82517
848.0002, 24.73939
848.4823, 24.72629
848.9644, 24.68169
849.4465, 24.45451
849.9286, 24.13854
850.4108, 24.03641
850.8929, 24.34126
851.3750, 24.53207
851.8571, 24.34025
852.3392, 24.03702
852.8214, 23.77218
853.3035, 23.59144
853.7856, 23.59630
854.2677, 23.79621
854.7498, 23.94008
855.2319, 23.73131
855.7141, 23.32640
856.1962, 23.06769
856.6783, 22.94450
857.1604, 22.89073
857.6425, 22.89673
858.1246, 22.88594
858.6068, 22.78977
859.0889, 22.63330
859.5710, 22.51126
860.0531, 22.44070
860.5352, 22.36134
861.0173, 22.30439
861.4995, 22.19365
861.9816, 21.88322
862.4637, 21.55720
862.9458, 21.52170
863.4279, 21.82302
863.9100, 21.94868
864.3922, 21.47840
864.8743, 21.13360
865.3564, 21.54691
865.8385, 22.14361
866.3206, 22.18033
866.8027, 21.66810
867.2849, 21.10144
867.7670, 20.72832
868.2491, 20.55883
868.7312, 20.80044
869.2133, 21.23124
869.6954, 21.08633
870.1776, 20.36565
870.6597, 19.87870
871.1418, 20.01481
871.6239, 20.33402
872.1060, 20.18830
872.5881, 19.58319
873.0703, 19.32181
873.5524, 19.58213
874.0345, 19.72731
874.5166, 19.53536
874.9987, 19.28256
875.4808, 19.20220
875.9630, 19.23785
876.4451, 19.22766
876.9272, 19.16760
877.4093, 19.04963
877.8914, 18.73278
878.3735, 18.49979
878.8557, 18.64373
879.3378, 18.93411
879.8199, 18.98777
880.3020, 18.73632
880.7841, 18.44329
881.2662, 18.25123
881.7484, 18.14599
882.2305, 18.16943
882.7126, 18.25298
883.1947, 18.21025
883.6768, 18.02829
884.1589, 17.85879
884.6411, 17.80084
885.1232, 17.80480
885.6053, 17.77837
886.0874, 17.72127
886.5695, 17.64957
887.0516, 17.56641
887.5338, 17.45182
888.0159, 17.27369
888.4980, 17.10295
888.9801, 17.04201
889.4622, 17.09026
889.9443, 17.06202
890.4265, 16.88388
890.9086, 16.73600
891.3907, 16.68938
891.8728, 16.62421
892.3549, 16.39441
892.8370, 16.11213
893.3192, 16.01637
893.8013, 16.17907
894.2834, 16.35116
894.7655, 16.43259
895.2476, 16.45306
895.7297, 16.39269
896.2119, 16.30707
896.6940, 16.31764
897.1761, 16.42028
897.6582, 16.45734
898.1403, 16.30634
898.6224, 16.07042
899.1046, 15.87464
899.5867, 15.73664
900.0688, 15.77931
900.5509, 16.00657
901.0330, 16.15190
901.5151, 16.08366
901.9973, 15.90647
902.4794, 15.76762
902.9615, 15.66715
903.4436, 15.57770
903.9257, 15.49232
904.4078, 15.44131
904.8900, 15.49016
905.3721, 15.49819
905.8542, 15.30558
906.3363, 14.99030
906.8184, 14.79209
907.3005, 14.72939
907.7827, 14.74994
908.2648, 14.95169
908.7469, 15.11870
909.2290, 15.11177
909.7111, 15.03043
910.1932, 15.00353
910.6754, 15.04313
911.1575, 15.07844
911.6396, 15.09689
912.1217, 15.06554
912.6038, 14.91102
913.0859, 14.71728
913.5681, 14.59981
914.0502, 14.55952
914.5323, 14.54854
915.0144, 14.54554
915.4965, 14.55503
915.9786, 14.61268
916.4607, 14.68196
916.9428, 14.58006
917.4249, 14.32812
917.9070, 14.25593
918.3892, 14.46098
918.8713, 14.65504
919.3534, 14.59841
919.8355, 14.37878
920.3176, 14.27074
920.7997, 14.31704
921.2819, 14.30768
921.7640, 14.20018
922.2461, 14.11784
922.7282, 14.15957
923.2103, 14.20840
923.6924, 14.05416
924.1746, 13.71617
924.6567, 13.60710
925.1388, 13.96715
925.6209, 14.24197
926.1030, 14.34622
926.5851, 14.32102
927.0673, 14.12459
927.5494, 13.84378
928.0315, 13.60941
928.5136, 13.45312
928.9957, 13.36882
929.4778, 13.35725
929.9600, 13.41281
930.4421, 13.61008
930.9242, 13.83260
931.4063, 13.88969
931.8884, 13.78022
932.3705, 13.63015
932.8527, 13.50405
933.3348, 13.40605
933.8169, 13.34035
934.2990, 13.30675
934.7811, 13.33613
935.2632, 13.41079
935.7454, 13.38823
936.2275, 13.22112
936.7096, 13.03997
937.1917, 12.96695
937.6738, 12.99118
938.1559, 13.09605
938.6381, 13.30082
939.1202, 13.40687
939.6023, 13.35508
940.0844, 13.34475
940.5665, 13.52904
941.0486, 13.73893
941.5308, 13.68251
942.0129, 13.32421
942.4950, 13.08896
942.9771, 13.00642
943.4592, 13.00284
943.9413, 13.16413
944.4235, 13.30435
944.9056, 13.27724
945.3877, 13.15107
945.8698, 13.07461
946.3519, 13.06912
946.8340, 13.10118
947.3162, 13.21217
947.7983, 13.30150
948.2804, 13.31474
948.7625, 13.27884
949.2446, 13.20718
949.7267, 13.11777
950.2089, 13.04905
950.6910, 13.00828
951.1731, 13.02479
951.6552, 13.21046
952.1373, 13.40174
952.6194, 13.36591
953.1016, 13.16567
953.5837, 12.94301
954.0658, 12.76017
954.5479, 12.71795
955.0300, 12.95424
955.5121, 13.27129
955.9943, 13.24046
956.4764, 12.96848
956.9585, 12.92066
957.4406, 13.12642
957.9227, 13.25381
958.4048, 13.14441
958.8870, 12.96053
959.3691, 12.92978
959.8512, 13.02188
960.3333, 12.97312
960.8154, 12.75744
961.2975, 12.59884
961.7797, 12.54894
962.2618, 12.52335
962.7439, 12.47292
963.2260, 12.40407
963.7081, 12.31579
964.1902, 12.17471
964.6724, 12.20067
965.1545, 12.56465
965.6366, 12.81006
966.1187, 12.76430
966.6008, 12.62837
967.0829, 12.50958
967.5651, 12.42689
968.0472, 12.45520
968.5293, 12.68475
969.0114, 12.79578
969.4935, 12.63567
969.9756, 12.47775
970.4578, 12.45776
970.9399, 12.49168
971.4220, 12.47809
971.9041, 12.42100
972.3862, 12.39373
972.8683, 12.42593
973.3505, 12.48102
973.8326, 12.57517
974.3147, 12.65271
974.7968, 12.68263
975.2789, 12.65128
975.7610, 12.51119
976.2432, 12.27455
976.7253, 12.06638
977.2074, 11.96095
977.6895, 11.93291
978.1716, 12.00185
978.6537, 12.10528
979.1359, 12.12107
979.6180, 12.06643
980.1001, 12.05404
980.5822, 12.12201
981.0643, 12.17978
981.5464, 12.10525
982.0286, 11.98940
982.5107, 12.10948
982.9928, 12.39235
983.4749, 12.45937
983.9570, 12.26837
984.4391, 12.02705
984.9213, 11.83589
985.4034, 11.74024
985.8855, 11.84085
986.3676, 12.10203
986.8497, 12.19020
987.3318, 12.08764
987.8140, 12.02674
988.2961, 12.06413
988.7782, 12.09065
989.2603, 12.03237
989.7424, 11.92047
990.2245, 11.81116
990.7067, 11.69699
991.1888, 11.65040
991.6709, 11.69518
992.1530, 11.75102
992.6351, 11.81313
993.1172, 11.86117
993.5994, 11.88002
994.0815, 11.87260
994.5636, 11.84303
995.0457, 11.76579
995.5278, 11.73849
996.0099, 11.81760
996.4921, 11.87229
996.9742, 11.82960
997.4563, 11.78303
997.9384, 11.85167
998.4205, 11.98539
998.9026, 11.98782
999.3848, 11.74488
999.8669, 11.60497
1000.349, 11.71382
1000.831, 11.84843
1001.313, 11.92921
1001.795, 11.96118
1002.277, 11.95481
1002.760, 11.91187
1003.242, 11.83380
1003.724, 11.72789
1004.206, 11.57014
1004.688, 11.19320
1005.170, 10.91518
1005.652, 11.10685
1006.134, 11.49521
1006.617, 11.61927
1007.099, 11.46206
1007.581, 11.41206
1008.063, 11.73285
1008.545, 12.03987
1009.027, 11.96867
1009.509, 11.75828
1009.991, 11.64478
1010.473, 11.63776
1010.956, 11.76493
1011.438, 11.99252
1011.920, 12.10013
1012.402, 11.89301
1012.884, 11.60943
1013.366, 11.55767
1013.848, 11.63247
1014.330, 11.67052
1014.813, 11.64488
1015.295, 11.46807
1015.777, 11.14173
1016.259, 10.95518
1016.741, 11.21709
1017.223, 11.63449
1017.705, 11.65361
1018.187, 11.36636
1018.669, 10.99199
1019.152, 10.60075
1019.634, 10.57227
1020.116, 11.03735
1020.598, 11.50702
1021.080, 11.44653
1021.562, 11.07311
1022.044, 11.01842
1022.526, 11.25017
1023.008, 11.47107
1023.491, 11.65266
1023.973, 11.63703
1024.455, 11.33783
1024.937, 11.00919
1025.419, 10.94944
1025.901, 11.10272
1026.383, 11.23513
1026.865, 11.35243
1027.348, 11.33624
1027.830, 11.14819
1028.312, 10.98677
1028.794, 10.93694
1029.276, 10.97295
1029.758, 11.08334
1030.240, 11.24653
1030.722, 11.26323
1031.204, 11.07461
1031.687, 11.01415
1032.169, 11.15050
1032.651, 11.32067
1033.133, 11.49915
1033.615, 11.57942
1034.097, 10.99212
1034.579, 11.42142
1035.061, 11.65550
1035.544, 11.70480
1036.026, 11.01609
1036.508, 11.28041
1036.990, 11.16280
1037.472, 11.02953
1037.954, 11.42799
1038.436, 10.84662
1038.918, 11.23665
1039.401, 11.23888
1039.883, 11.41861
1040.365, 11.21406
1040.847, 11.12819
1041.329, 11.42675
1041.811, 11.51244
1042.293, 11.26365
1042.775, 11.45466
1043.257, 10.85987
1043.740, 11.17154
1044.222, 11.27625
1044.704, 11.32468
1045.186, 11.32113
1045.668, 11.25352
1046.150, 11.01463
1046.632, 10.77367
1047.114, 10.78404
1047.596, 11.02592
1048.079, 11.14434
1048.561, 10.98102
1049.043, 10.88740
1049.525, 10.95478
1050.007, 11.04187
1050.489, 11.09306
1050.971, 11.11901
1051.453, 11.13429
1051.936, 11.13966
1052.418, 11.13240
1052.900, 11.12912
1053.382, 11.08391
1053.864, 10.92191
1054.346, 10.79068
1054.828, 10.81202
1055.310, 10.87639
1055.792, 10.82206
1056.275, 10.67024
1056.757, 10.62289
1057.239, 10.80499
1057.721, 10.92605
1058.203, 10.82210
1058.685, 10.73360
1059.167, 10.86605
1059.649, 11.03662
1060.131, 10.97191
1060.614, 10.72390
1061.096, 10.64038
1061.578, 10.90097
1062.060, 11.09375
1062.542, 11.04817
1063.024, 10.93088
1063.506, 10.76965
1063.988, 10.63529
1064.471, 10.61359
1064.953, 10.68901
1065.435, 10.79488
1065.917, 10.95718
1066.399, 10.99028
1066.881, 10.62397
1067.363, 10.33560
1067.845, 10.54572
1068.328, 10.87479
1068.810, 10.83499
1069.292, 10.52700
1069.774, 10.43675
1070.256, 10.75461
1070.738, 10.95961
1071.220, 10.68394
1071.702, 10.39986
1072.184, 10.43067
1072.667, 10.55416
1073.149, 10.47821
1073.631, 10.29363
1074.113, 10.33525
1074.595, 10.71667
1075.077, 10.99543
1075.559, 10.93168
1076.041, 10.75878
1076.523, 10.52256
1077.006, 10.31101
1077.488, 10.21103
1077.970, 10.19995
1078.452, 10.23172
1078.934, 10.29493
1079.416, 10.30678
1079.898, 10.13149
1080.380, 10.02121
1080.862, 10.11983
1081.345, 10.32976
1081.827, 10.71342
1082.309, 11.08095
1082.791, 11.05058
1083.273, 10.57926
1083.755, 10.13169
1084.237, 9.834188
1084.719, 9.698153
1085.202, 9.836917
1085.684, 10.03552
1086.166, 10.13420
1086.648, 10.16712
1087.130, 10.21552
1087.612, 10.28291
1088.094, 10.29083
1088.576, 10.16407
1089.058, 10.06537
1089.541, 10.11327
1090.023, 10.16256
1090.505, 10.03743
1090.987, 9.897721
1091.469, 10.03012
1091.951, 10.37639
1092.433, 10.53402
1092.915, 10.30956
1093.397, 10.09388
1093.880, 10.09994
1094.362, 10.08952
1094.844, 9.827029
1095.326, 9.546947
1095.808, 9.535471
1096.290, 9.740806
1096.772, 9.935169
1097.254, 10.07153
1097.737, 10.15746
1098.219, 10.20640
1098.701, 10.19099
1099.183, 9.994101
1099.665, 9.819290
1100.147, 9.923787
1100.629, 10.17195
1101.111, 10.21382
1101.594, 9.969825
1102.076, 9.831141
1102.558, 10.07594
1103.040, 10.19942
1103.522, 9.879380
1104.004, 9.541473
1104.486, 9.494105
1104.968, 9.627676
1105.450, 9.766313
1105.932, 9.888229
1106.415, 9.968145
1106.897, 9.975593
1107.379, 9.978267
1107.861, 9.975508
1108.343, 9.986332
1108.825, 10.02046
1109.307, 10.07361
1109.789, 10.15499
1110.272, 10.25518
1110.754, 10.31841
1111.236, 10.35946
1111.718, 10.32263
1112.200, 10.17981
1112.682, 9.988557
1113.164, 9.638717
1113.646, 9.357464
1114.129, 9.426706
1114.611, 9.729175
1115.093, 9.862611
1115.575, 9.763895
1116.057, 9.675284
1116.539, 9.554013
1117.021, 9.508440
1117.503, 9.596417
1117.985, 9.723773
1118.468, 9.866045
1118.950, 9.985189
1119.432, 9.992187
1119.914, 9.872182
1120.396, 9.827051
1120.878, 9.937552
1121.360, 9.940137
1121.842, 9.725674
1122.324, 9.543649
1122.807, 9.509171
1123.289, 9.579380
1123.771, 9.721063
1124.253, 9.919835
1124.735, 10.05871
1125.217, 10.14061
1125.699, 10.15317
1126.181, 10.08849
1126.664, 9.962420
1127.146, 9.740203
1127.628, 9.567739
1128.110, 9.589047
1128.592, 9.749731
1129.074, 9.910504
1129.556, 10.08199
1130.038, 10.11577
1130.521, 9.989676
1131.003, 9.873602
1131.485, 9.799301
1131.967, 9.792703
1132.449, 9.884413
1132.931, 9.996473
1133.413, 9.997076
1133.895, 9.901515
1134.377, 9.808104
1134.859, 9.717210
1135.342, 9.650504
1135.824, 9.611596
1136.306, 9.670649
1136.788, 9.862773
1137.270, 10.00744
1137.752, 9.892758
1138.234, 9.636148
1138.716, 9.518811
1139.199, 9.515625
1139.681, 9.525234
1140.163, 9.541285
1140.645, 9.576724
1141.127, 9.633173
1141.609, 9.700742
1142.091, 9.778758
1142.573, 9.820853
1143.056, 9.761145
1143.538, 9.619672
1144.020, 9.350248
1144.502, 9.056218
1144.984, 9.049006
1145.466, 9.299749
1145.948, 9.473992
1146.430, 9.431580
1146.912, 9.386434
1147.395, 9.616587
1147.877, 9.837699
1148.359, 9.611845
1148.841, 9.254100
1149.323, 9.249392
1149.805, 9.480494
1150.287, 9.595945
1150.769, 9.522711
1151.251, 9.413232
1151.734, 9.312946
1152.216, 9.283725
1152.698, 9.502645
1153.180, 9.668783
1153.662, 9.415645
1154.144, 9.035256
1154.626, 8.929751
1155.108, 9.067579
1155.591, 9.189317
1156.073, 9.228224
1156.555, 9.236930
1157.037, 9.166398
1157.519, 9.159061
1158.001, 9.379640
1158.483, 9.580715
1158.965, 9.524732
1159.448, 9.341672
1159.930, 9.255209
1160.412, 9.283942
1160.894, 9.363801
1161.376, 9.572229
1161.858, 9.698013
1162.340, 9.673284
1162.822, 9.625937
1163.304, 9.575911
1163.786, 9.550431
1164.269, 9.599398
1164.751, 9.687993
1165.233, 9.691525
1165.715, 9.585493
1166.197, 9.503927
1166.679, 9.459689
1167.161, 9.396168
1167.643, 9.274320
1168.126, 9.216402
1168.608, 9.324035
1169.090, 9.466934
1169.572, 9.439505
1170.054, 9.270925
1170.536, 9.183743
1171.018, 9.180448
1171.500, 9.202226
1171.983, 9.245471
1172.465, 9.268246
1172.947, 9.254142
1173.429, 9.263463
1173.911, 9.351624
1174.393, 9.472370
1174.875, 9.551041
1175.357, 9.586152
1175.839, 9.540277
1176.322, 9.445882
1176.804, 9.466468
1177.286, 9.601309
1177.768, 9.667257
1178.250, 9.582961
1178.732, 9.470484
1179.214, 9.452647
1179.696, 9.461157
1180.178, 9.378146
1180.661, 9.277448
1181.143, 9.287719
1181.625, 9.372943
1182.107, 9.453254
1182.589, 9.499351
1183.071, 9.468669
1183.553, 9.307905
1184.035, 9.203085
1184.518, 9.345378
1185.000, 9.500510
1185.482, 9.503110
1185.964, 9.432227
1186.446, 9.333383
1186.928, 9.249164
1187.410, 9.284371
1187.892, 9.461035
1188.375, 9.510653
1188.857, 9.203257
1189.339, 9.014216
1189.821, 9.137922
1190.303, 9.286530
1190.785, 9.325583
1191.267, 9.315248
1191.749, 9.281056
1192.231, 9.258454
1192.714, 9.409410
1193.196, 9.837780
1193.678, 10.02561
1194.160, 9.881044
1194.642, 9.745494
1195.124, 9.686950
1195.606, 9.641084
1196.088, 9.568936
1196.570, 9.498249
1197.053, 9.472259
1197.535, 9.478124
1198.017, 9.436833
1198.499, 9.351235
1198.981, 9.358151
1199.463, 9.461190
1199.945, 9.528438
1200.427, 9.523040
1200.910, 9.495790
1201.392, 9.481672
1201.874, 9.464649
1202.356, 9.412096
1202.838, 9.345456
1203.320, 9.284288
1203.802, 9.256390
1204.284, 9.376406
1204.766, 9.587798
1205.249, 9.680653
1205.731, 9.596588
1206.213, 9.443915
1206.695, 9.238620
1207.177, 9.108458
1207.659, 9.197811
1208.141, 9.358262
1208.623, 9.504796
1209.105, 9.610482
1209.588, 9.635860
1210.070, 9.601904
1210.552, 9.584330
1211.034, 9.606787
1211.516, 9.564558
1211.998, 9.315240
1212.480, 9.171298
1212.962, 9.361805
1213.445, 9.495898
1213.927, 9.219291
1214.409, 8.904362
1214.891, 9.008967
1215.373, 9.419474
1215.855, 9.622275
1216.337, 9.570219
1216.819, 9.505912
1217.302, 9.417181
1217.784, 9.363148
1218.266, 9.355094
1218.748, 9.403480
1219.230, 9.534189
1219.712, 9.619299
1220.194, 9.465563
1220.676, 9.177068
1221.158, 9.127003
1221.641, 9.253186
1222.123, 9.167071
1222.605, 8.917212
1223.087, 8.900975
1223.569, 9.182324
1224.051, 9.514683
1224.533, 9.769863
1225.015, 9.848233
1225.497, 9.474743
1225.980, 9.043553
1226.462, 9.068970
1226.944, 9.277915
1227.426, 9.310793
1227.908, 9.230665
1228.390, 9.242870
1228.872, 9.367903
1229.354, 9.465936
1229.837, 9.486777
1230.319, 9.484324
1230.801, 9.489030
1231.283, 9.458133
1231.765, 9.297211
1232.247, 9.168924
1232.729, 9.262117
1233.211, 9.444053
1233.693, 9.438134
1234.176, 9.256465
1234.658, 9.280838
1235.140, 9.663943
1235.622, 9.762785
1236.104, 9.454441
1236.586, 9.214429
1237.068, 9.195855
1237.550, 9.197883
1238.032, 9.063946
1238.515, 8.924093
1238.997, 9.033380
1239.479, 9.299829
1239.961, 9.304209
1240.443, 9.124166
1240.925, 9.134508
1241.407, 9.324280
1241.889, 9.470416
1242.372, 9.507716
1242.854, 9.486481
1243.336, 9.429356
1243.818, 9.377173
1244.300, 9.358366
1244.782, 9.373103
1245.264, 9.454331
1245.746, 9.542770
1246.229, 9.568602
1246.711, 9.544989
1247.193, 9.507800
1247.675, 9.463898
1248.157, 9.407461
1248.639, 9.307989
1249.121, 9.254919
1249.603, 9.296091
1250.085, 9.341032
1250.568, 9.328848
1251.050, 9.356949
1251.532, 9.548930
1252.014, 9.759069
1252.496, 9.723212
1252.978, 9.470640
1253.460, 9.332730
1253.942, 9.319464
1254.424, 9.322201
1254.907, 9.336799
1255.389, 9.244167
1255.871, 9.015237
1256.353, 8.882330
1256.835, 9.001085
1257.317, 9.199317
1257.799, 9.262546
1258.281, 9.252295
1258.764, 9.257304
1259.246, 9.283070
1259.728, 9.398190
1260.210, 9.522511
1260.692, 9.391577
1261.174, 9.050504
1261.656, 8.967132
1262.138, 9.391779
1262.620, 9.727493
1263.103, 9.526622
1263.585, 9.407359
1264.067, 9.874431
1264.549, 10.27463
1265.031, 10.01874
1265.513, 9.500665
1265.995, 9.282549
1266.477, 9.318446
1266.959, 9.354763
1267.442, 9.417559
1267.924, 9.347515
1268.406, 9.086191
1268.888, 8.979243
1269.370, 9.111037
1269.852, 9.238272
1270.334, 9.235029
1270.816, 9.236278
1271.299, 9.404856
1271.781, 9.621591
1272.263, 9.640622
1272.745, 9.519849
1273.227, 9.341575
1273.709, 9.165874
1274.191, 9.159692
1274.673, 9.284316
1275.156, 9.315512
1275.638, 9.186539
1276.120, 9.088113
1276.602, 9.138606
1277.084, 9.218174
1277.566, 9.286164
1278.048, 9.342807
1278.530, 9.423919
1279.012, 9.462184
1279.495, 9.329239
1279.977, 9.122179
1280.459, 9.079409
1280.941, 9.203344
1281.423, 9.322375
1281.905, 9.461443
1282.387, 9.476400
1282.869, 9.313869
1283.351, 9.324484
1283.834, 9.639761
1284.316, 9.840254
1284.798, 9.629697
1285.280, 9.253188
1285.762, 9.006750
1286.244, 8.893772
##END=



