##NAMES=Brucite
##RRUFFID=R040077
##IDEAL CHEMISTRY=Mg(OH)_2_
##LOCALITY=Gabbs, Nye County, Nevada, USA
##OWNER=RRUFF
##SOURCE=University of Arizona Mineral Museum
##DESCRIPTION=White fine-grained massive
##STATUS=The identification of this mineral has been confirmed by X-ray diffraction and chemical analysis
##URL=rruff.info/R040077
##MEASURED CHEMISTRY=Mg_1.00_(OH)_2_
150.5564, 1341.487
151.0385, 1351.046
151.5206, 1363.759
152.0027, 1366.107
152.4848, 1355.670
152.9670, 1340.563
153.4491, 1317.318
153.9312, 1290.379
154.4133, 1273.840
154.8954, 1277.163
155.3775, 1292.869
155.8597, 1298.865
156.3418, 1291.408
156.8239, 1280.150
157.3060, 1266.551
157.7881, 1251.924
158.2702, 1242.723
158.7524, 1244.392
159.2345, 1252.511
159.7166, 1254.544
160.1987, 1245.385
160.6808, 1236.986
161.1629, 1238.207
161.6451, 1247.947
162.1272, 1258.147
162.6093, 1266.414
163.0914, 1271.780
163.5735, 1272.801
164.0556, 1266.203
164.5378, 1259.522
165.0199, 1260.489
165.5020, 1268.699
165.9841, 1273.632
166.4662, 1265.841
166.9483, 1253.226
167.4305, 1250.861
167.9126, 1266.712
168.3947, 1285.611
168.8768, 1293.656
169.3589, 1290.725
169.8410, 1284.760
170.3232, 1277.088
170.8053, 1269.760
171.2874, 1266.215
171.7695, 1268.383
172.2516, 1272.819
172.7337, 1276.492
173.2159, 1279.413
173.6980, 1280.855
174.1801, 1277.803
174.6622, 1273.712
175.1443, 1274.148
175.6264, 1283.291
176.1086, 1293.780
176.5907, 1296.985
177.0728, 1292.222
177.5549, 1284.299
178.0370, 1271.798
178.5191, 1258.630
179.0013, 1249.835
179.4834, 1247.142
179.9655, 1248.638
180.4476, 1253.939
180.9297, 1264.545
181.4118, 1270.983
181.8940, 1262.267
182.3761, 1248.577
182.8582, 1241.505
183.3403, 1246.123
183.8224, 1256.071
184.3046, 1264.139
184.7867, 1270.829
185.2688, 1273.405
185.7509, 1267.079
186.2330, 1257.009
186.7151, 1247.987
187.1973, 1240.818
187.6794, 1236.005
188.1615, 1235.590
188.6436, 1241.184
189.1257, 1244.241
189.6078, 1236.611
190.0900, 1226.119
190.5721, 1220.555
191.0542, 1222.926
191.5363, 1229.742
192.0184, 1237.266
192.5005, 1246.162
192.9827, 1252.824
193.4648, 1255.166
193.9469, 1254.769
194.4290, 1252.381
194.9111, 1247.549
195.3932, 1242.253
195.8754, 1238.929
196.3575, 1237.578
196.8396, 1238.140
197.3217, 1246.004
197.8038, 1253.469
198.2859, 1251.109
198.7681, 1233.165
199.2502, 1213.729
199.7323, 1214.018
200.2144, 1238.409
200.6965, 1259.429
201.1786, 1264.514
201.6608, 1262.695
202.1429, 1260.291
202.6250, 1258.763
203.1071, 1257.056
203.5892, 1252.972
204.0713, 1245.718
204.5535, 1241.053
205.0356, 1243.407
205.5177, 1247.979
205.9998, 1250.949
206.4819, 1251.380
206.9640, 1251.042
207.4462, 1252.276
207.9283, 1255.377
208.4104, 1257.144
208.8925, 1255.085
209.3746, 1252.197
209.8567, 1250.274
210.3388, 1249.411
210.8210, 1250.965
211.3031, 1258.737
211.7852, 1273.273
212.2673, 1282.139
212.7494, 1278.834
213.2315, 1270.567
213.7137, 1262.541
214.1958, 1255.327
214.6779, 1248.605
215.1600, 1240.340
215.6421, 1230.674
216.1242, 1227.957
216.6064, 1239.427
217.0885, 1253.999
217.5706, 1262.071
218.0527, 1263.076
218.5348, 1263.972
219.0169, 1272.965
219.4991, 1288.667
219.9812, 1295.933
220.4633, 1287.873
220.9454, 1274.703
221.4275, 1263.582
221.9096, 1254.737
222.3918, 1249.738
222.8739, 1251.265
223.3560, 1258.125
223.8381, 1263.677
224.3202, 1266.065
224.8023, 1268.298
225.2845, 1274.212
225.7666, 1282.971
226.2487, 1288.888
226.7308, 1287.903
227.2129, 1281.538
227.6950, 1274.052
228.1772, 1264.875
228.6593, 1256.520
229.1414, 1249.231
229.6235, 1243.642
230.1056, 1243.562
230.5877, 1257.243
231.0699, 1276.545
231.5520, 1282.023
232.0341, 1267.573
232.5162, 1252.624
232.9983, 1255.507
233.4804, 1269.899
233.9626, 1280.493
234.4447, 1280.144
234.9268, 1274.017
235.4089, 1268.558
235.8910, 1263.487
236.3731, 1261.597
236.8553, 1267.911
237.3374, 1278.933
237.8195, 1286.559
238.3016, 1289.661
238.7837, 1288.321
239.2658, 1279.979
239.7480, 1264.250
240.2301, 1251.495
240.7122, 1249.447
241.1943, 1254.817
241.6764, 1258.183
242.1585, 1257.115
242.6407, 1255.561
243.1228, 1256.144
243.6049, 1258.817
244.0870, 1263.661
244.5691, 1272.490
245.0512, 1282.499
245.5334, 1286.590
246.0155, 1281.137
246.4976, 1275.259
246.9797, 1275.477
247.4618, 1279.635
247.9439, 1279.761
248.4261, 1270.860
248.9082, 1258.211
249.3903, 1254.073
249.8724, 1261.918
250.3545, 1268.762
250.8366, 1267.682
251.3188, 1262.665
251.8009, 1261.682
252.2830, 1267.739
252.7651, 1277.360
253.2472, 1285.269
253.7293, 1292.480
254.2115, 1295.463
254.6936, 1288.798
255.1757, 1279.412
255.6578, 1276.757
256.1399, 1283.177
256.6220, 1292.954
257.1042, 1299.165
257.5863, 1300.998
258.0684, 1301.153
258.5505, 1295.961
259.0326, 1291.502
259.5147, 1294.729
259.9969, 1305.700
260.4790, 1316.347
260.9611, 1317.763
261.4432, 1307.238
261.9253, 1306.594
262.4074, 1324.090
262.8896, 1343.065
263.3717, 1354.039
263.8538, 1357.920
264.3359, 1361.322
264.8180, 1369.246
265.3001, 1381.693
265.7823, 1393.876
266.2644, 1405.919
266.7465, 1417.703
267.2286, 1429.050
267.7107, 1440.117
268.1928, 1450.925
268.6750, 1461.320
269.1571, 1471.828
269.6392, 1484.736
270.1213, 1500.941
270.6034, 1518.888
271.0855, 1538.702
271.5677, 1560.069
272.0498, 1583.347
272.5319, 1608.568
273.0140, 1634.244
273.4961, 1656.842
273.9782, 1676.420
274.4604, 1692.385
274.9425, 1701.724
275.4246, 1709.800
275.9067, 1721.689
276.3888, 1738.334
276.8709, 1755.675
277.3531, 1769.634
277.8352, 1782.319
278.3173, 1784.301
278.7994, 1769.995
279.2815, 1749.543
279.7636, 1726.123
280.2458, 1700.813
280.7279, 1674.609
281.2100, 1648.163
281.6921, 1621.410
282.1742, 1595.186
282.6563, 1568.583
283.1385, 1543.371
283.6206, 1521.816
284.1027, 1502.322
284.5848, 1481.046
285.0669, 1454.145
285.5490, 1423.900
286.0312, 1399.201
286.5133, 1380.695
286.9954, 1366.760
287.4775, 1361.471
287.9596, 1358.783
288.4417, 1349.209
288.9239, 1325.690
289.4060, 1298.864
289.8881, 1284.598
290.3702, 1284.129
290.8523, 1286.758
291.3344, 1290.992
291.8166, 1294.622
292.2987, 1295.043
292.7808, 1291.713
293.2629, 1285.855
293.7450, 1276.916
294.2271, 1265.642
294.7093, 1256.247
295.1914, 1250.155
295.6735, 1246.235
296.1556, 1242.436
296.6377, 1238.413
297.1198, 1236.762
297.6020, 1241.496
298.0841, 1248.547
298.5662, 1250.090
299.0483, 1244.108
299.5304, 1236.177
300.0125, 1231.990
300.4947, 1231.642
300.9768, 1231.946
301.4589, 1231.513
301.9410, 1232.377
302.4231, 1240.240
302.9052, 1253.612
303.3874, 1258.943
303.8695, 1243.057
304.3516, 1207.813
304.8337, 1190.281
305.3158, 1199.690
305.7979, 1214.199
306.2801, 1229.545
306.7622, 1243.525
307.2443, 1252.774
307.7264, 1255.517
308.2085, 1252.438
308.6906, 1245.679
309.1728, 1228.797
309.6549, 1215.951
310.1370, 1207.586
310.6191, 1203.721
311.1012, 1206.000
311.5833, 1214.366
312.0655, 1224.459
312.5476, 1229.245
313.0297, 1225.794
313.5118, 1223.898
313.9939, 1224.804
314.4760, 1225.955
314.9582, 1226.141
315.4403, 1225.190
315.9224, 1223.415
316.4045, 1221.120
316.8866, 1218.306
317.3687, 1214.254
317.8509, 1204.429
318.3330, 1198.833
318.8151, 1206.723
319.2972, 1220.206
319.7793, 1224.390
320.2614, 1208.105
320.7436, 1181.914
321.2257, 1173.196
321.7078, 1188.048
322.1899, 1202.780
322.6720, 1210.048
323.1541, 1212.647
323.6363, 1212.146
324.1184, 1208.484
324.6005, 1203.872
325.0826, 1198.937
325.5647, 1193.958
326.0468, 1194.142
326.5290, 1203.130
327.0111, 1215.183
327.4932, 1224.981
327.9753, 1232.632
328.4574, 1236.933
328.9395, 1235.918
329.4217, 1231.602
329.9038, 1226.876
330.3859, 1221.907
330.8680, 1218.245
331.3501, 1218.354
331.8322, 1221.772
332.3144, 1222.300
332.7965, 1216.970
333.2786, 1210.691
333.7607, 1207.252
334.2428, 1206.069
334.7249, 1203.778
335.2070, 1197.789
335.6891, 1189.781
336.1713, 1187.562
336.6534, 1197.205
337.1355, 1204.314
337.6176, 1204.484
338.0997, 1201.289
338.5818, 1198.500
339.0640, 1197.464
339.5461, 1198.667
340.0282, 1203.744
340.5103, 1218.624
340.9924, 1223.381
341.4745, 1205.745
341.9567, 1189.550
342.4388, 1193.102
342.9209, 1213.448
343.4030, 1232.657
343.8851, 1234.189
344.3672, 1218.607
344.8494, 1208.489
345.3315, 1208.333
345.8136, 1208.528
346.2957, 1206.167
346.7778, 1202.437
347.2599, 1198.987
347.7421, 1196.327
348.2242, 1194.948
348.7063, 1196.340
349.1884, 1201.391
349.6705, 1205.429
350.1526, 1205.531
350.6348, 1205.096
351.1169, 1207.295
351.5990, 1212.639
352.0811, 1217.895
352.5632, 1220.649
353.0453, 1221.352
353.5275, 1221.751
354.0096, 1222.213
354.4917, 1222.170
354.9738, 1221.027
355.4559, 1218.915
355.9380, 1215.973
356.4202, 1209.688
356.9023, 1204.260
357.3844, 1205.675
357.8665, 1213.143
358.3486, 1218.193
358.8307, 1215.195
359.3129, 1205.992
359.7950, 1199.206
360.2771, 1194.394
360.7592, 1192.038
361.2413, 1192.678
361.7234, 1195.736
362.2056, 1201.465
362.6877, 1209.880
363.1698, 1218.117
363.6519, 1221.548
364.1340, 1218.203
364.6161, 1214.642
365.0983, 1211.127
365.5804, 1207.214
366.0625, 1200.998
366.5446, 1193.788
367.0267, 1190.062
367.5089, 1194.500
367.9910, 1205.725
368.4731, 1209.533
368.9552, 1198.997
369.4373, 1190.797
369.9194, 1191.623
370.4016, 1196.122
370.8837, 1197.660
371.3658, 1193.602
371.8479, 1187.441
372.3300, 1183.913
372.8121, 1183.201
373.2943, 1182.630
373.7764, 1181.579
374.2585, 1180.555
374.7406, 1179.123
375.2227, 1177.457
375.7048, 1178.441
376.1870, 1185.811
376.6691, 1196.199
377.1512, 1204.183
377.6333, 1209.557
378.1154, 1210.468
378.5975, 1203.492
379.0797, 1190.214
379.5618, 1181.266
380.0439, 1178.674
380.5260, 1178.490
381.0081, 1179.805
381.4902, 1181.999
381.9724, 1183.205
382.4545, 1182.427
382.9366, 1181.809
383.4187, 1185.764
383.9008, 1199.335
384.3829, 1208.507
384.8651, 1213.106
385.3472, 1213.515
385.8293, 1208.109
386.3114, 1198.070
386.7935, 1187.562
387.2756, 1179.619
387.7578, 1174.323
388.2399, 1175.187
388.7220, 1188.591
389.2041, 1200.422
389.6862, 1208.781
390.1683, 1213.032
390.6505, 1211.390
391.1326, 1202.527
391.6147, 1191.893
392.0968, 1188.474
392.5789, 1193.266
393.0610, 1195.246
393.5432, 1188.824
394.0253, 1182.199
394.5074, 1182.775
394.9895, 1190.188
395.4716, 1197.981
395.9537, 1204.768
396.4359, 1209.369
396.9180, 1209.043
397.4001, 1203.418
397.8822, 1195.880
398.3643, 1186.888
398.8464, 1177.967
399.3286, 1175.118
399.8107, 1187.295
400.2928, 1195.430
400.7749, 1183.314
401.2570, 1164.187
401.7391, 1165.236
402.2213, 1195.655
402.7034, 1233.033
403.1855, 1241.426
403.6676, 1204.714
404.1497, 1181.785
404.6318, 1179.921
405.1140, 1183.260
405.5961, 1184.176
406.0782, 1182.783
406.5603, 1182.718
407.0424, 1187.056
407.5245, 1193.974
408.0067, 1194.510
408.4888, 1182.956
408.9709, 1176.265
409.4530, 1182.554
409.9351, 1192.944
410.4172, 1199.523
410.8994, 1200.585
411.3815, 1199.936
411.8636, 1201.073
412.3457, 1203.532
412.8278, 1204.610
413.3099, 1203.472
413.7921, 1201.982
414.2742, 1201.134
414.7563, 1201.080
415.2384, 1202.813
415.7205, 1209.746
416.2026, 1215.874
416.6848, 1215.089
417.1669, 1209.145
417.6490, 1204.595
418.1311, 1204.411
418.6132, 1207.158
419.0953, 1209.704
419.5775, 1212.735
420.0596, 1214.305
420.5417, 1209.466
421.0238, 1206.605
421.5059, 1215.214
421.9880, 1233.815
422.4702, 1251.569
422.9523, 1258.775
423.4344, 1256.198
423.9165, 1254.633
424.3986, 1252.409
424.8807, 1253.834
425.3629, 1261.724
425.8450, 1272.645
426.3271, 1283.061
426.8092, 1291.892
427.2913, 1299.443
427.7734, 1304.596
428.2556, 1307.693
428.7377, 1315.589
429.2198, 1331.753
429.7019, 1349.211
430.1840, 1359.704
430.6661, 1365.489
431.1483, 1377.095
431.6304, 1397.395
432.1125, 1424.589
432.5946, 1460.277
433.0767, 1502.520
433.5588, 1541.140
434.0410, 1569.599
434.5231, 1595.436
435.0052, 1637.708
435.4873, 1713.118
435.9694, 1776.110
436.4515, 1814.172
436.9337, 1846.090
437.4158, 1885.971
437.8979, 1935.248
438.3800, 1987.946
438.8621, 2040.123
439.3442, 2091.517
439.8264, 2141.575
440.3085, 2193.318
440.7906, 2239.048
441.2727, 2282.479
441.7548, 2317.291
442.2369, 2337.027
442.7191, 2339.927
443.2012, 2328.365
443.6833, 2303.029
444.1654, 2264.557
444.6475, 2217.688
445.1296, 2162.240
445.6118, 2100.219
446.0939, 2030.195
446.5760, 1954.199
447.0581, 1879.710
447.5402, 1803.811
448.0223, 1733.565
448.5045, 1673.034
448.9866, 1621.939
449.4687, 1580.059
449.9508, 1548.653
450.4329, 1520.938
450.9150, 1483.609
451.3972, 1424.079
451.8793, 1383.705
452.3614, 1377.909
452.8435, 1376.898
453.3256, 1361.667
453.8077, 1335.315
454.2899, 1311.931
454.7720, 1301.752
455.2541, 1300.337
455.7362, 1291.519
456.2183, 1270.102
456.7004, 1254.871
457.1826, 1257.768
457.6647, 1264.526
458.1468, 1264.064
458.6289, 1255.222
459.1110, 1244.731
459.5931, 1235.997
460.0753, 1228.745
460.5574, 1223.283
461.0395, 1219.860
461.5216, 1214.623
462.0037, 1203.486
462.4858, 1188.568
462.9680, 1179.899
463.4501, 1181.285
463.9322, 1183.597
464.4143, 1184.234
464.8964, 1184.452
465.3785, 1186.203
465.8607, 1189.766
466.3428, 1193.323
466.8249, 1194.734
467.3070, 1193.775
467.7891, 1193.254
468.2712, 1194.267
468.7534, 1194.489
469.2355, 1193.707
469.7176, 1191.644
470.1997, 1187.427
470.6818, 1180.485
471.1639, 1173.364
471.6461, 1169.751
472.1282, 1169.341
472.6103, 1167.534
473.0924, 1162.342
473.5745, 1157.704
474.0566, 1158.832
474.5388, 1164.140
475.0209, 1166.750
475.5030, 1162.417
475.9851, 1157.698
476.4672, 1157.910
476.9493, 1161.362
477.4315, 1162.960
477.9136, 1160.489
478.3957, 1157.081
478.8778, 1158.883
479.3599, 1171.105
479.8420, 1175.078
480.3242, 1163.488
480.8063, 1151.796
481.2884, 1149.800
481.7705, 1154.004
482.2526, 1154.626
482.7347, 1145.246
483.2169, 1131.702
483.6990, 1126.403
484.1811, 1130.426
484.6632, 1136.529
485.1453, 1145.951
485.6274, 1153.975
486.1096, 1156.217
486.5917, 1152.884
487.0738, 1147.555
487.5559, 1138.315
488.0380, 1129.847
488.5201, 1127.807
489.0023, 1131.698
489.4844, 1138.338
489.9665, 1147.144
490.4486, 1155.374
490.9307, 1156.150
491.4128, 1140.276
491.8950, 1131.394
492.3771, 1134.616
492.8592, 1140.592
493.3413, 1144.342
493.8234, 1145.028
494.3055, 1142.835
494.7877, 1137.128
495.2698, 1129.545
495.7519, 1125.559
496.2340, 1126.078
496.7161, 1127.136
497.1982, 1129.051
497.6804, 1129.951
498.1625, 1127.516
498.6446, 1121.627
499.1267, 1116.180
499.6088, 1112.561
500.0909, 1110.623
500.5730, 1109.961
501.0551, 1110.645
501.5373, 1113.879
502.0194, 1120.951
502.5015, 1130.242
502.9836, 1136.820
503.4657, 1142.417
503.9478, 1142.469
504.4300, 1130.158
504.9121, 1117.328
505.3942, 1114.213
505.8763, 1119.685
506.3584, 1125.053
506.8405, 1123.537
507.3227, 1117.300
507.8048, 1114.303
508.2869, 1115.672
508.7690, 1116.587
509.2511, 1115.375
509.7332, 1113.220
510.2154, 1111.274
510.6975, 1109.614
511.1796, 1107.530
511.6617, 1101.957
512.1439, 1097.350
512.6260, 1100.810
513.1081, 1111.629
513.5902, 1122.315
514.0723, 1128.895
514.5544, 1132.079
515.0366, 1133.824
515.5187, 1133.820
516.0008, 1132.663
516.4829, 1130.371
516.9650, 1126.929
517.4471, 1121.780
517.9293, 1115.380
518.4114, 1108.917
518.8935, 1102.660
519.3756, 1097.496
519.8577, 1096.210
520.3398, 1099.496
520.8220, 1102.908
521.3041, 1105.235
521.7862, 1107.081
522.2683, 1109.830
522.7504, 1113.501
523.2325, 1114.594
523.7147, 1109.178
524.1968, 1102.810
524.6789, 1101.322
525.1610, 1103.730
525.6431, 1105.215
526.1252, 1103.371
526.6074, 1099.633
527.0895, 1097.264
527.5716, 1097.903
528.0537, 1096.425
528.5358, 1089.275
529.0179, 1083.630
529.5001, 1084.658
529.9822, 1090.111
530.4643, 1094.009
530.9464, 1092.682
531.4285, 1089.749
531.9106, 1092.125
532.3928, 1099.569
532.8749, 1102.015
533.3570, 1094.370
533.8391, 1086.036
534.3212, 1088.886
534.8033, 1102.156
535.2855, 1111.080
535.7676, 1113.288
536.2497, 1111.614
536.7318, 1105.704
537.2139, 1097.441
537.6960, 1089.427
538.1782, 1082.666
538.6603, 1078.058
539.1424, 1077.233
539.6245, 1080.833
540.1066, 1084.110
540.5887, 1087.460
541.0709, 1089.885
541.5530, 1089.972
542.0351, 1089.284
542.5172, 1090.632
542.9993, 1095.529
543.4814, 1099.554
543.9636, 1096.840
544.4457, 1090.658
544.9278, 1090.794
545.4099, 1099.143
545.8920, 1106.543
546.3741, 1105.447
546.8563, 1096.776
547.3384, 1089.248
547.8205, 1080.493
548.3026, 1075.717
548.7847, 1078.079
549.2668, 1083.366
549.7490, 1088.985
550.2311, 1093.766
550.7132, 1095.709
551.1953, 1091.591
551.6774, 1083.627
552.1595, 1082.586
552.6417, 1091.149
553.1238, 1095.211
553.6059, 1085.683
554.0880, 1072.015
554.5701, 1067.025
555.0522, 1071.711
555.5344, 1076.200
556.0165, 1078.344
556.4986, 1078.339
556.9807, 1074.644
557.4628, 1068.735
557.9449, 1065.472
558.4271, 1067.464
558.9092, 1072.141
559.3913, 1073.934
559.8734, 1071.451
560.3555, 1069.738
560.8376, 1067.449
561.3198, 1067.393
561.8019, 1074.177
562.2840, 1083.774
562.7661, 1086.906
563.2482, 1077.495
563.7303, 1066.557
564.2125, 1067.869
564.6946, 1077.391
565.1767, 1080.055
565.6588, 1072.237
566.1409, 1061.788
566.6230, 1055.767
567.1052, 1054.110
567.5873, 1051.766
568.0694, 1044.989
568.5515, 1042.258
569.0336, 1048.385
569.5157, 1057.745
569.9979, 1064.849
570.4800, 1068.691
570.9621, 1071.494
571.4442, 1076.241
571.9263, 1081.400
572.4084, 1080.053
572.8906, 1071.118
573.3727, 1060.915
573.8548, 1048.971
574.3369, 1039.610
574.8190, 1040.863
575.3011, 1054.475
575.7833, 1064.788
576.2654, 1066.705
576.7475, 1065.372
577.2296, 1063.395
577.7117, 1061.518
578.1938, 1061.436
578.6760, 1064.030
579.1581, 1066.234
579.6402, 1060.332
580.1223, 1042.383
580.6044, 1036.630
581.0865, 1054.901
581.5686, 1071.424
582.0507, 1071.403
582.5328, 1061.501
583.0150, 1053.655
583.4971, 1050.382
583.9792, 1050.171
584.4613, 1053.481
584.9434, 1058.706
585.4255, 1063.450
585.9077, 1067.258
586.3898, 1069.484
586.8719, 1069.164
587.3540, 1067.176
587.8361, 1068.925
588.3182, 1081.491
588.8004, 1086.116
589.2825, 1073.034
589.7646, 1058.712
590.2467, 1055.437
590.7288, 1062.061
591.2109, 1069.494
591.6931, 1074.903
592.1752, 1076.237
592.6573, 1067.847
593.1394, 1051.620
593.6215, 1038.532
594.1036, 1031.462
594.5858, 1029.644
595.0679, 1033.152
595.5500, 1042.785
596.0321, 1049.322
596.5142, 1052.768
596.9963, 1053.547
597.4785, 1048.028
597.9606, 1041.857
598.4427, 1042.953
598.9248, 1052.242
599.4069, 1061.309
599.8890, 1061.260
600.3712, 1054.712
600.8533, 1051.560
601.3354, 1052.381
601.8175, 1050.731
602.2996, 1040.740
602.7817, 1030.032
603.2639, 1034.374
603.7460, 1058.491
604.2281, 1074.782
604.7102, 1077.787
605.1923, 1074.878
605.6744, 1067.332
606.1566, 1057.820
606.6387, 1050.210
607.1208, 1046.067
607.6029, 1044.455
608.0850, 1045.363
608.5671, 1048.642
609.0493, 1047.191
609.5314, 1037.766
610.0135, 1031.213
610.4956, 1036.600
610.9777, 1048.124
611.4598, 1053.157
611.9420, 1049.755
612.4241, 1044.290
612.9062, 1035.166
613.3883, 1027.327
613.8704, 1027.035
614.3525, 1032.469
614.8347, 1035.988
615.3168, 1033.018
615.7989, 1027.700
616.2810, 1029.706
616.7631, 1040.648
617.2452, 1047.879
617.7274, 1048.777
618.2095, 1047.654
618.6916, 1047.685
619.1737, 1047.805
619.6558, 1045.124
620.1379, 1036.245
620.6201, 1029.759
621.1022, 1031.357
621.5843, 1036.619
622.0664, 1040.563
622.5485, 1042.448
623.0306, 1043.411
623.5128, 1044.337
623.9949, 1044.752
624.4770, 1042.577
624.9591, 1036.407
625.4412, 1032.389
625.9233, 1030.684
626.4055, 1032.336
626.8876, 1042.254
627.3697, 1056.385
627.8518, 1060.903
628.3339, 1044.666
628.8160, 1028.093
629.2982, 1024.369
629.7803, 1027.892
630.2624, 1031.113
630.7445, 1032.145
631.2266, 1030.080
631.7087, 1023.512
632.1909, 1013.844
632.6730, 1008.343
633.1551, 1007.679
633.6372, 1009.589
634.1193, 1017.038
634.6014, 1023.962
635.0836, 1024.162
635.5657, 1019.432
636.0478, 1018.635
636.5299, 1029.709
637.0120, 1040.121
637.4941, 1040.258
637.9763, 1034.013
638.4584, 1027.447
638.9405, 1022.196
639.4226, 1018.925
639.9047, 1018.518
640.3868, 1020.544
640.8690, 1021.694
641.3511, 1020.732
641.8332, 1021.840
642.3153, 1031.302
642.7974, 1038.715
643.2795, 1033.562
643.7617, 1018.026
644.2438, 1006.633
644.7259, 1005.067
645.2080, 1008.124
645.6901, 1014.204
646.1722, 1021.752
646.6544, 1029.338
647.1365, 1036.081
647.6186, 1038.133
648.1007, 1030.764
648.5828, 1015.666
649.0649, 1004.588
649.5471, 996.8925
650.0292, 995.0285
650.5113, 1005.984
650.9934, 1017.668
651.4755, 1018.149
651.9576, 1009.265
652.4398, 1005.548
652.9219, 1018.120
653.4040, 1030.032
653.8861, 1028.376
654.3682, 1019.362
654.8503, 1013.318
655.3325, 1012.458
655.8146, 1012.746
656.2967, 1010.576
656.7788, 1006.295
657.2609, 1001.214
657.7430, 993.9126
658.2252, 990.4744
658.7073, 994.7159
659.1894, 1001.038
659.6715, 1004.527
660.1536, 1005.550
660.6357, 1006.423
661.1179, 1006.656
661.6000, 1007.919
662.0821, 1013.388
662.5642, 1019.346
663.0463, 1019.781
663.5284, 1014.295
664.0106, 1008.286
664.4927, 1006.727
664.9748, 1007.547
665.4569, 1001.570
665.9390, 986.3434
666.4211, 979.7023
666.9033, 990.3920
667.3854, 1004.080
667.8675, 1004.120
668.3496, 993.7861
668.8317, 993.4630
669.3138, 1017.712
669.7960, 1036.389
670.2781, 1035.263
670.7602, 1025.801
671.2423, 1018.593
671.7244, 1015.673
672.2065, 1016.174
672.6887, 1020.611
673.1708, 1025.905
673.6529, 1025.239
674.1350, 1018.638
674.6171, 1008.964
675.0992, 994.1361
675.5814, 984.0685
676.0635, 990.3974
676.5456, 1009.918
677.0277, 1017.860
677.5098, 1000.838
677.9919, 991.7704
678.4741, 1003.150
678.9562, 1018.038
679.4383, 1022.937
679.9204, 1019.121
680.4025, 1015.051
680.8846, 1015.144
681.3668, 1016.705
681.8489, 1016.070
682.3310, 1013.789
682.8131, 1012.021
683.2952, 1011.053
683.7773, 1011.183
684.2595, 1013.013
684.7416, 1015.749
685.2237, 1016.523
685.7058, 1013.001
686.1879, 1011.380
686.6700, 1010.367
687.1522, 1012.421
687.6343, 1022.614
688.1164, 1036.022
688.5985, 1042.881
689.0806, 1039.264
689.5627, 1032.443
690.0449, 1027.359
690.5270, 1023.136
691.0091, 1016.939
691.4912, 1009.418
691.9733, 1006.287
692.4554, 1010.781
692.9376, 1019.744
693.4197, 1027.269
693.9018, 1033.615
694.3839, 1037.554
694.8660, 1039.096
695.3481, 1038.154
695.8303, 1032.404
696.3124, 1025.331
696.7945, 1021.390
697.2766, 1021.227
697.7587, 1022.881
698.2408, 1029.002
698.7230, 1033.740
699.2051, 1030.251
699.6872, 1021.732
700.1693, 1014.982
700.6514, 1012.534
701.1335, 1013.613
701.6157, 1019.169
702.0978, 1028.004
702.5799, 1029.078
703.0620, 1020.633
703.5441, 1012.421
704.0262, 1006.636
704.5084, 1003.928
704.9905, 1005.521
705.4726, 1011.583
705.9547, 1019.177
706.4368, 1032.493
706.9189, 1042.178
707.4011, 1043.659
707.8832, 1040.749
708.3653, 1034.401
708.8474, 1027.023
709.3295, 1027.354
709.8116, 1046.617
710.2938, 1070.426
710.7759, 1072.348
711.2580, 1056.803
711.7401, 1047.552
712.2222, 1050.130
712.7043, 1054.678
713.1865, 1052.686
713.6686, 1045.478
714.1507, 1041.233
714.6328, 1042.846
715.1149, 1042.207
715.5970, 1033.988
716.0792, 1027.936
716.5613, 1030.994
717.0434, 1040.344
717.5255, 1049.514
718.0076, 1058.101
718.4897, 1062.380
718.9719, 1055.130
719.4540, 1045.253
719.9361, 1047.155
720.4182, 1058.234
720.9003, 1062.390
721.3824, 1050.972
721.8646, 1034.203
722.3467, 1030.774
722.8288, 1041.366
723.3109, 1046.246
723.7930, 1043.512
724.2751, 1038.987
724.7573, 1034.406
725.2394, 1030.249
725.7215, 1026.972
726.2036, 1023.924
726.6857, 1024.755
727.1678, 1034.242
727.6500, 1042.693
728.1321, 1046.218
728.6142, 1045.848
729.0963, 1041.591
729.5784, 1034.362
730.0605, 1029.225
730.5427, 1032.527
731.0248, 1038.701
731.5069, 1037.505
731.9890, 1030.407
732.4711, 1024.776
732.9532, 1022.586
733.4354, 1020.408
733.9175, 1014.257
734.3996, 1005.394
734.8817, 1003.742
735.3638, 1013.093
735.8459, 1021.704
736.3281, 1029.051
736.8102, 1034.221
737.2923, 1038.697
737.7744, 1040.556
738.2565, 1033.344
738.7386, 1008.112
739.2208, 989.7410
739.7029, 995.6064
740.1850, 1008.800
740.6671, 1013.008
741.1492, 1008.900
741.6313, 1004.512
742.1135, 1003.655
742.5956, 1001.334
743.0777, 986.2061
743.5598, 962.1241
744.0419, 954.8356
744.5240, 966.6705
745.0062, 981.3696
745.4883, 993.5210
745.9704, 1001.808
746.4525, 1003.449
746.9346, 996.8585
747.4167, 992.8922
747.8989, 991.7158
748.3810, 992.9033
748.8631, 1000.473
749.3452, 1007.532
749.8273, 1005.774
750.3094, 996.0178
750.7916, 988.8036
751.2737, 990.9112
751.7558, 994.9891
752.2379, 994.9341
752.7200, 993.0775
753.2021, 994.9806
753.6843, 1000.234
754.1664, 1000.546
754.6485, 989.0003
755.1306, 973.1481
755.6127, 972.8220
756.0948, 988.7631
756.5770, 996.8006
757.0591, 992.8153
757.5412, 985.6317
758.0233, 978.3230
758.5054, 972.7906
758.9875, 974.2908
759.4697, 988.3633
759.9518, 996.1075
760.4339, 996.1842
760.9160, 991.3264
761.3981, 977.0573
761.8802, 961.4367
762.3624, 956.0818
762.8445, 962.6776
763.3266, 968.3884
763.8087, 961.7062
764.2908, 953.6011
764.7729, 959.6080
765.2551, 972.8383
765.7372, 975.2527
766.2193, 963.5837
766.7014, 950.7586
767.1835, 948.4014
767.6656, 952.9359
768.1478, 951.3079
768.6299, 942.3175
769.1120, 939.1064
769.5941, 946.2407
770.0762, 953.1188
770.5583, 950.9852
771.0405, 943.1544
771.5226, 941.1552
772.0047, 948.0675
772.4868, 954.6750
772.9689, 962.9653
773.4510, 968.3952
773.9332, 967.6752
774.4153, 963.0255
774.8974, 957.3427
775.3795, 951.3226
775.8616, 945.9352
776.3438, 940.5882
776.8259, 937.1297
777.3080, 939.1750
777.7901, 944.4958
778.2722, 946.9661
778.7543, 945.3201
779.2365, 944.2817
779.7186, 948.8470
780.2007, 956.6435
780.6828, 958.4956
781.1649, 953.7581
781.6470, 952.7431
782.1292, 958.6420
782.6113, 964.5409
783.0934, 965.4741
783.5755, 962.2973
784.0576, 958.1635
784.5397, 952.2261
785.0219, 946.7900
785.5040, 940.1229
785.9861, 935.8296
786.4682, 936.7895
786.9503, 940.6141
787.4324, 944.8162
787.9146, 949.0240
788.3967, 949.5122
788.8788, 939.0582
789.3609, 929.0599
789.8430, 931.6608
790.3251, 941.2600
790.8073, 947.0537
791.2894, 946.6625
791.7715, 944.3443
792.2536, 943.6658
792.7357, 943.3116
793.2178, 939.4743
793.7000, 932.5479
794.1821, 927.1056
794.6642, 923.8162
795.1463, 922.9911
795.6284, 925.5211
796.1105, 929.7760
796.5927, 930.8242
797.0748, 926.1849
797.5569, 924.9327
798.0390, 931.7018
798.5211, 935.9485
799.0032, 930.3983
799.4854, 922.0704
799.9675, 920.6805
800.4496, 927.3743
800.9317, 931.2523
801.4138, 924.7507
801.8959, 919.9498
802.3781, 925.9205
802.8602, 935.6403
803.3423, 940.6646
803.8244, 940.1204
804.3065, 937.4753
804.7886, 934.4576
805.2708, 931.1183
805.7529, 925.3673
806.2350, 919.6997
806.7171, 922.9423
807.1992, 934.9123
807.6813, 944.3021
808.1635, 944.9891
808.6456, 940.6557
809.1277, 937.1945
809.6098, 934.5673
810.0919, 933.7587
810.5740, 935.5743
811.0562, 936.7750
811.5383, 936.5942
812.0204, 934.8629
812.5025, 930.6430
812.9846, 923.8508
813.4667, 919.6338
813.9489, 918.9526
814.4310, 919.4299
814.9131, 920.5743
815.3952, 922.8781
815.8773, 929.3863
816.3594, 937.0297
816.8416, 937.4567
817.3237, 925.7541
817.8058, 915.7573
818.2879, 917.3018
818.7700, 923.1761
819.2521, 928.7609
819.7343, 931.9900
820.2164, 928.1935
820.6985, 916.5402
821.1806, 904.4448
821.6627, 898.2687
822.1448, 897.3460
822.6270, 901.8564
823.1091, 910.9087
823.5912, 917.5203
824.0733, 920.1840
824.5554, 919.9144
825.0375, 917.2009
825.5197, 912.6456
826.0018, 908.2031
826.4839, 903.9016
826.9660, 899.1406
827.4481, 891.1192
827.9302, 887.8036
828.4124, 896.0886
828.8945, 909.5872
829.3766, 919.1146
829.8587, 925.1680
830.3408, 923.8979
830.8229, 907.1013
831.3051, 892.8530
831.7872, 888.4921
832.2693, 888.0797
832.7514, 885.4232
833.2335, 880.9602
833.7156, 879.3989
834.1978, 884.0228
834.6799, 889.1433
835.1620, 889.6022
835.6441, 889.1820
836.1262, 895.2618
836.6083, 904.6771
837.0905, 905.7514
837.5726, 894.0195
838.0547, 880.2134
838.5368, 877.2604
839.0189, 881.5751
839.5010, 882.2916
839.9832, 879.9833
840.4653, 880.3016
840.9474, 884.8697
841.4295, 889.3325
841.9116, 889.6185
842.3937, 886.9122
842.8759, 885.8916
843.3580, 886.7745
843.8401, 888.6159
844.3222, 892.4720
844.8043, 895.0032
845.2864, 895.0660
845.7686, 892.2659
846.2507, 884.1875
846.7328, 867.2307
847.2149, 860.4821
847.6970, 877.6751
848.1791, 887.5593
848.6613, 873.2065
849.1434, 854.4800
849.6255, 850.9066
850.1076, 860.4626
850.5897, 867.1719
851.0718, 863.8239
851.5540, 861.2309
852.0361, 868.1994
852.5182, 875.5491
853.0003, 873.0462
853.4824, 863.9453
853.9645, 856.3964
854.4467, 853.2923
854.9288, 853.4446
855.4109, 857.6990
855.8930, 863.3859
856.3751, 866.3893
856.8572, 867.0422
857.3394, 865.2327
857.8215, 861.4910
858.3036, 861.1953
858.7857, 869.3710
859.2678, 880.2496
859.7499, 878.4822
860.2321, 864.5195
860.7142, 857.4484
861.1963, 859.4473
861.6784, 862.2488
862.1605, 862.3128
862.6426, 860.5792
863.1248, 858.2186
863.6069, 855.1709
864.0890, 852.7359
864.5711, 851.0701
865.0532, 849.6144
865.5353, 847.3832
866.0175, 846.2738
866.4996, 848.6486
866.9817, 853.3071
867.4638, 856.6844
867.9459, 858.6106
868.4280, 859.3561
868.9102, 859.4885
869.3923, 857.8325
869.8744, 852.9791
870.3565, 846.4731
870.8386, 838.7781
871.3207, 830.6227
871.8029, 827.0891
872.2850, 834.0908
872.7671, 842.1033
873.2492, 845.8207
873.7313, 847.0101
874.2134, 847.0322
874.6956, 846.5883
875.1777, 846.8508
875.6598, 848.3825
876.1419, 849.9352
876.6240, 850.4995
877.1061, 850.1241
877.5883, 848.8065
878.0704, 846.6165
878.5525, 843.4127
879.0346, 839.3083
879.5167, 835.5622
879.9988, 832.9668
880.4810, 832.1642
880.9631, 837.2117
881.4452, 847.1179
881.9273, 847.1115
882.4094, 835.0126
882.8915, 823.2008
883.3737, 817.8596
883.8558, 816.5526
884.3379, 815.6297
884.8200, 815.0719
885.3021, 815.7934
885.7842, 818.1539
886.2664, 820.7807
886.7485, 823.6080
887.2306, 826.3525
887.7127, 830.1153
888.1948, 833.4218
888.6769, 830.1266
889.1591, 811.9420
889.6412, 803.9224
890.1233, 814.8152
890.6054, 825.0502
891.0875, 826.3090
891.5696, 824.1949
892.0518, 825.2013
892.5339, 829.5378
893.0160, 833.3311
893.4981, 837.8499
893.9802, 838.9089
894.4623, 830.4100
894.9445, 822.1317
895.4266, 823.6863
895.9087, 831.3250
896.3908, 836.0998
896.8729, 835.4492
897.3550, 832.7979
897.8372, 828.1895
898.3193, 824.2639
898.8014, 823.6414
899.2835, 825.0874
899.7656, 827.6435
900.2477, 830.3608
900.7299, 830.6565
901.2120, 826.7137
901.6941, 821.2601
902.1762, 818.7840
902.6583, 816.3424
903.1404, 805.4048
903.6226, 788.8010
904.1047, 778.8470
904.5868, 779.4694
905.0689, 785.2942
905.5510, 791.6982
906.0331, 798.7524
906.5153, 808.5071
906.9974, 819.8191
907.4795, 823.1932
907.9616, 817.3291
908.4437, 809.6128
908.9258, 803.7526
909.4080, 800.1060
909.8900, 799.4884
910.3721, 801.8500
910.8542, 805.8075
911.3364, 812.3544
911.8185, 813.7330
912.3006, 806.7822
912.7827, 797.6929
913.2648, 790.5618
913.7469, 785.9697
914.2291, 786.1793
914.7112, 793.0170
915.1933, 799.6034
915.6754, 807.8482
916.1575, 811.9869
916.6396, 806.6902
917.1218, 799.4131
917.6039, 800.0024
918.0860, 808.0423
918.5681, 810.4867
919.0502, 800.6430
919.5323, 795.2802
920.0145, 803.2690
920.4966, 807.7051
920.9787, 793.6433
921.4608, 773.0687
921.9429, 766.8201
922.4250, 778.0419
922.9072, 786.0242
923.3893, 784.7808
923.8714, 782.2182
924.3535, 778.0971
924.8356, 776.2971
925.3177, 782.2806
925.7999, 793.0333
926.2820, 800.6861
926.7641, 803.2117
927.2462, 802.2802
927.7283, 795.4669
928.2104, 788.8406
928.6926, 786.7739
929.1747, 787.3907
929.6568, 788.4040
930.1389, 789.2153
930.6210, 789.3974
931.1031, 788.1766
931.5853, 787.8924
932.0674, 792.9158
932.5495, 797.9728
933.0316, 794.6710
933.5137, 786.7672
933.9958, 784.7832
934.4780, 790.4963
934.9601, 793.6235
935.4422, 784.4203
935.9243, 772.0233
936.4064, 769.2837
936.8885, 771.8694
937.3707, 771.4895
937.8528, 767.6932
938.3349, 762.0166
938.8170, 755.2391
939.2991, 751.7163
939.7813, 757.5880
940.2634, 769.1947
940.7455, 781.3541
941.2276, 791.9276
941.7097, 788.5026
942.1918, 770.8372
942.6740, 756.6771
943.1561, 756.4602
943.6382, 763.5144
944.1203, 768.7175
944.6024, 771.9987
945.0845, 771.5037
945.5667, 767.6074
946.0488, 769.0593
946.5309, 778.3538
947.0130, 784.3130
947.4951, 777.5663
947.9772, 763.9775
948.4594, 757.5446
948.9415, 758.4174
949.4236, 757.9084
949.9057, 755.2406
950.3878, 756.7839
950.8699, 765.7734
951.3521, 774.8340
951.8342, 776.4096
952.3163, 772.1955
952.7984, 769.0891
953.2805, 766.8724
953.7626, 767.3370
954.2448, 771.7578
954.7269, 774.9860
955.2090, 775.0135
955.6911, 772.4061
956.1732, 767.3322
956.6553, 760.0908
957.1375, 754.3642
957.6196, 748.4413
958.1017, 749.9387
958.5838, 765.5986
959.0659, 776.9235
959.5480, 771.9348
960.0302, 759.4288
960.5123, 753.6232
960.9944, 755.2533
961.4765, 752.4534
961.9586, 736.8666
962.4407, 733.1339
962.9229, 755.9431
963.4050, 777.2199
963.8871, 777.1870
964.3692, 765.1226
964.8513, 759.8348
965.3334, 763.3301
965.8156, 764.4671
966.2977, 760.5013
966.7798, 757.9601
967.2619, 757.6569
967.7440, 759.4136
968.2261, 765.9033
968.7083, 773.9090
969.1904, 775.0225
969.6725, 767.0704
970.1546, 758.4343
970.6367, 743.4484
971.1188, 735.9705
971.6010, 748.0138
972.0831, 762.5101
972.5652, 764.0394
973.0473, 755.6051
973.5294, 749.2809
974.0115, 747.0398
974.4937, 745.3361
974.9758, 742.8344
975.4579, 741.7466
975.9400, 742.1493
976.4221, 745.0162
976.9042, 754.1539
977.3864, 767.1158
977.8685, 772.8285
978.3506, 765.5414
978.8327, 759.2668
979.3148, 759.3259
979.7969, 758.8029
980.2791, 752.8403
980.7612, 745.1243
981.2433, 738.9300
981.7254, 735.0937
982.2075, 735.6721
982.6896, 744.6766
983.1718, 751.5002
983.6539, 751.1605
984.1360, 749.4771
984.6181, 750.4695
985.1002, 752.0682
985.5823, 750.0205
986.0645, 744.7888
986.5466, 743.4096
987.0287, 753.1351
987.5108, 758.7202
987.9929, 749.9114
988.4750, 739.6868
988.9572, 737.5451
989.4393, 739.8466
989.9214, 740.9832
990.4035, 739.9443
990.8856, 737.1430
991.3677, 730.2144
991.8499, 725.2744
992.3320, 726.6431
992.8141, 729.3311
993.2962, 729.1398
993.7783, 727.6840
994.2604, 728.3698
994.7426, 731.5834
995.2247, 734.0824
995.7068, 732.8352
996.1889, 732.9114
996.6710, 739.8046
997.1531, 746.0554
997.6353, 744.8557
998.1174, 738.6893
998.5995, 731.7277
999.0816, 725.0459
999.5637, 720.0654
1000.046, 715.9211
1000.528, 715.5344
1001.010, 722.3527
1001.492, 731.6927
1001.974, 743.4643
1002.456, 753.1467
1002.939, 751.0972
1003.421, 736.1420
1003.903, 724.7172
1004.385, 728.6995
1004.867, 732.0221
1005.349, 723.8264
1005.831, 714.1595
1006.313, 712.1216
1006.795, 715.3179
1007.278, 718.2866
1007.760, 719.8621
1008.242, 721.2102
1008.724, 724.0488
1009.206, 725.2051
1009.688, 719.7575
1010.170, 715.0408
1010.652, 719.8456
1011.135, 729.3153
1011.617, 732.7678
1012.099, 728.3089
1012.581, 726.0463
1013.063, 734.2999
1013.545, 740.1639
1014.027, 734.0360
1014.509, 726.5662
1014.991, 727.6109
1015.474, 733.5931
1015.956, 737.2525
1016.438, 737.1992
1016.920, 734.9589
1017.402, 730.5681
1017.884, 724.7849
1018.366, 715.1485
1018.848, 706.8535
1019.331, 703.8242
1019.813, 705.0965
1020.295, 709.7878
1020.777, 717.5227
1021.259, 722.8191
1021.741, 722.0739
1022.223, 721.2186
1022.705, 724.2740
1023.187, 725.9777
1023.670, 719.7074
1024.152, 710.8597
1024.634, 708.6719
1025.116, 714.2046
1025.598, 720.3323
1026.080, 729.3610
1026.562, 732.9724
1027.044, 724.3637
1027.526, 714.4879
1028.009, 709.8993
1028.491, 708.7076
1028.973, 707.4738
1029.455, 705.9501
1029.937, 706.5310
1030.419, 714.7650
1030.901, 717.5598
1031.383, 703.8204
1031.866, 693.5881
1032.348, 702.8893
1032.830, 719.1246
1033.312, 724.6663
1033.794, 719.2329
1034.276, 715.7527
1034.758, 715.9461
1035.240, 717.3856
1035.723, 720.2800
1036.205, 723.8606
1036.687, 731.0391
1037.169, 736.5969
1037.651, 732.2781
1038.133, 719.1678
1038.615, 711.2654
1039.097, 711.7805
1039.579, 712.2532
1040.062, 712.9064
1040.544, 713.0554
1041.026, 712.0604
1041.508, 710.8298
1041.990, 710.7360
1042.472, 711.3185
1042.954, 709.6679
1043.436, 703.0530
1043.918, 700.4117
1044.401, 702.3291
1044.883, 707.6273
1045.365, 719.5139
1045.847, 729.1462
1046.329, 727.5078
1046.811, 717.2698
1047.293, 707.1312
1047.775, 694.4204
1048.258, 693.7733
1048.740, 710.4308
1049.222, 722.8270
1049.704, 723.4039
1050.186, 722.5837
1050.668, 730.0477
1051.150, 740.0685
1051.632, 736.1833
1052.115, 716.3921
1052.597, 706.8171
1053.079, 708.7422
1053.561, 713.9408
1054.043, 721.9293
1054.525, 724.0414
1055.007, 712.8305
1055.489, 697.6868
1055.971, 697.7957
1056.453, 711.4467
1056.936, 716.8746
1057.418, 714.1180
1057.900, 711.5551
1058.382, 710.6767
1058.864, 709.7935
1059.346, 707.8977
1059.828, 706.4249
1060.310, 708.7338
1060.793, 712.3011
1061.275, 704.2267
1061.757, 687.9609
1062.239, 685.4208
1062.721, 697.5193
1063.203, 707.4129
1063.685, 707.8096
1064.167, 704.3107
1064.650, 701.5732
1065.132, 700.3909
1065.614, 702.5193
1066.096, 707.3969
1066.578, 716.3223
1067.060, 726.7391
1067.542, 727.4375
1068.024, 716.2407
1068.506, 707.5414
1068.989, 714.3065
1069.471, 723.6333
1069.953, 718.4769
1070.435, 707.1579
1070.917, 701.1774
1071.399, 699.4827
1071.881, 697.3617
1072.363, 694.3320
1072.845, 694.3874
1073.328, 700.7800
1073.810, 706.6570
1074.292, 705.9581
1074.774, 703.2955
1075.256, 700.9454
1075.738, 700.5947
1076.220, 706.4490
1076.702, 716.3052
1077.184, 720.9412
1077.667, 715.9012
1078.149, 713.0189
1078.631, 720.1682
1079.113, 727.5352
1079.595, 729.9526
1080.077, 730.1337
1080.559, 728.4350
1081.041, 727.2869
1081.524, 732.1573
1082.006, 744.5627
1082.488, 756.6592
1082.970, 766.4943
1083.452, 776.5035
1083.934, 783.7985
1084.416, 795.1029
1084.898, 822.8440
1085.380, 852.8973
1085.863, 862.9887
1086.345, 853.0125
1086.827, 835.8644
1087.309, 805.5359
1087.791, 780.3287
1088.273, 761.8885
1088.755, 747.4985
1089.237, 737.4074
1089.719, 728.7296
1090.202, 718.1583
1090.684, 706.4476
1091.166, 697.3076
1091.648, 690.8276
1092.130, 686.4484
1092.612, 684.3962
1093.094, 683.0072
1093.576, 681.6924
1094.059, 682.1802
1094.541, 686.6450
1095.023, 690.9324
1095.505, 683.0662
1095.987, 665.7540
1096.469, 668.0814
1096.951, 687.6343
1097.433, 698.0162
1097.916, 695.1151
1098.398, 691.4128
1098.880, 693.4608
1099.362, 694.9364
1099.844, 684.7616
1100.326, 672.3328
1100.808, 681.9616
1101.290, 702.9831
1101.772, 709.5409
1102.255, 702.4800
1102.737, 694.4967
1103.219, 689.8893
1103.701, 686.4592
1104.183, 682.5745
1104.665, 679.3724
1105.147, 678.1408
1105.629, 677.9968
1106.111, 677.2610
1106.594, 677.2192
1107.076, 680.8873
1107.558, 687.7684
1108.040, 694.0723
1108.522, 699.2094
1109.004, 700.6912
1109.486, 695.3792
1109.968, 688.6135
1110.451, 680.1468
1110.933, 674.2689
1111.415, 677.3974
1111.897, 685.7455
1112.379, 689.2385
1112.861, 685.7892
1113.343, 684.2539
1113.825, 687.9702
1114.307, 689.8466
1114.790, 686.9227
1115.272, 684.6497
1115.754, 686.7211
1116.236, 689.9235
1116.718, 690.2372
1117.200, 687.7988
1117.682, 683.3457
1118.164, 675.1785
1118.646, 673.3077
1119.129, 680.5107
1119.611, 682.3696
1120.093, 672.6434
1120.575, 664.3959
1121.057, 669.0154
1121.539, 680.9016
1122.021, 689.6105
1122.503, 694.6434
1122.986, 689.7476
1123.468, 676.7042
1123.950, 669.4744
1124.432, 670.0058
1124.914, 670.9948
1125.396, 668.8064
1125.878, 665.9647
1126.360, 664.4163
1126.843, 664.8284
1127.325, 669.4811
1127.807, 676.1279
1128.289, 681.9930
1128.771, 686.0079
1129.253, 685.6746
1129.735, 681.1973
1130.217, 677.6556
1130.699, 677.5701
1131.182, 679.5251
1131.664, 686.9653
1132.146, 691.3708
1132.628, 681.6700
1133.110, 668.8316
1133.592, 668.4122
1134.074, 676.6542
1134.556, 676.7321
1135.038, 663.1551
1135.521, 654.7690
1136.003, 657.3906
1136.485, 661.3796
1136.967, 666.1197
1137.449, 669.9671
1137.931, 671.8390
1138.413, 672.4912
1138.895, 672.8586
1139.378, 672.9673
1139.860, 673.1217
1140.342, 673.4329
1140.824, 673.4732
1141.306, 673.4649
1141.788, 671.2323
1142.270, 665.5494
1142.752, 661.5310
1143.234, 663.8013
1143.717, 668.2649
1144.199, 664.5309
1144.681, 656.0851
1145.163, 661.9902
1145.645, 678.0297
1146.127, 685.0830
1146.609, 681.8397
1147.091, 679.3669
1147.573, 682.1434
1148.056, 683.1160
1148.538, 674.0748
1149.020, 663.7895
1149.502, 662.4915
1149.984, 664.8225
1150.466, 664.2996
1150.948, 662.4995
1151.430, 662.2374
1151.913, 664.4416
1152.395, 671.1854
1152.877, 686.3427
1153.359, 695.2153
1153.841, 687.7502
1154.323, 679.7123
1154.805, 680.1395
1155.287, 680.1913
1155.770, 668.4862
1156.252, 653.1350
1156.734, 652.2014
1157.216, 666.3146
1157.698, 671.1800
1158.180, 662.9613
1158.662, 656.4094
1159.144, 652.2707
1159.626, 651.8926
1160.109, 656.9802
1160.591, 660.8632
1161.073, 657.0047
1161.555, 649.3293
1162.037, 646.7135
1162.519, 648.6498
1163.001, 653.4564
1163.483, 660.0565
1163.965, 661.7342
1164.448, 658.5294
1164.930, 658.1501
1165.412, 663.8624
1165.894, 670.5743
1166.376, 675.6437
1166.858, 676.6241
1167.340, 665.7158
1167.822, 653.4789
1168.305, 654.3824
1168.787, 662.5357
1169.269, 667.5434
1169.751, 667.9484
1170.233, 666.0584
1170.715, 661.4642
1171.197, 658.5919
1171.679, 657.8162
1172.161, 660.1833
1172.644, 671.2457
1173.126, 680.0310
1173.608, 677.2200
1174.090, 669.0452
1174.572, 664.2926
1175.054, 662.9115
1175.536, 664.7691
1176.018, 671.6844
1176.500, 672.1734
1176.983, 664.4794
1177.465, 657.9929
1177.947, 655.5820
1178.429, 654.9803
1178.911, 654.6435
1179.393, 654.5079
1179.875, 653.9506
1180.357, 653.7380
1180.840, 657.1962
1181.322, 662.3872
1181.804, 663.7403
1182.286, 661.8564
1182.768, 661.4590
1183.250, 663.5688
1183.732, 663.5789
1184.214, 657.3116
1184.697, 651.7073
1185.179, 652.4120
1185.661, 654.0774
1186.143, 652.6478
1186.625, 650.3565
1187.107, 648.4971
1187.589, 648.2677
1188.071, 653.4978
1188.553, 666.3138
1189.036, 672.3493
1189.518, 667.6600
1190.000, 664.3909
1190.482, 665.4336
1190.964, 663.0315
1191.446, 652.0956
1191.928, 642.6857
1192.410, 645.4791
1192.892, 654.7753
1193.375, 656.6311
1193.857, 651.9278
1194.339, 644.6885
1194.821, 636.6570
1195.303, 638.6771
1195.785, 650.1742
1196.267, 658.7148
1196.749, 659.3509
1197.232, 657.2354
1197.714, 656.6249
1198.196, 654.4731
1198.678, 643.9515
1199.160, 634.5588
1199.642, 638.6097
1200.124, 647.4272
1200.606, 647.3820
1201.089, 640.6014
1201.571, 639.5345
1202.053, 647.7466
1202.535, 653.1461
1203.017, 652.0354
1203.499, 651.7116
1203.981, 654.7407
1204.463, 655.1536
1204.945, 649.2822
1205.427, 641.6129
1205.910, 635.9348
1206.392, 633.4374
1206.874, 639.3049
1207.356, 652.5360
1207.838, 660.0768
1208.320, 662.5293
1208.802, 665.5080
1209.284, 669.3483
1209.767, 669.1556
1210.249, 663.1328
1210.731, 656.6105
1211.213, 653.4203
1211.695, 652.4127
1212.177, 652.7664
1212.659, 654.4884
1213.141, 660.8757
1213.624, 666.3202
1214.106, 660.4419
1214.588, 647.2785
1215.070, 642.3968
1215.552, 649.9162
1216.034, 653.7997
1216.516, 649.2411
1216.998, 646.9488
1217.480, 648.6807
1217.963, 651.1290
1218.445, 653.2270
1218.927, 655.0253
1219.409, 656.6743
1219.891, 657.7823
1220.373, 657.5966
1220.855, 656.0422
1221.337, 651.2477
1221.819, 644.6691
1222.302, 643.5055
1222.784, 647.3425
1223.266, 649.7244
1223.748, 648.7372
1224.230, 649.0068
1224.712, 655.0334
1225.194, 659.0045
1225.676, 652.4760
1226.159, 644.9538
1226.641, 643.3877
1227.123, 644.3597
1227.605, 643.7482
1228.087, 642.7271
1228.569, 645.0815
1229.051, 651.1141
1229.533, 655.7603
1230.016, 659.2723
1230.498, 660.9474
1230.980, 661.1558
1231.462, 656.9587
1231.944, 646.6658
1232.426, 637.8578
1232.908, 635.8242
1233.390, 637.8508
1233.872, 641.3596
1234.354, 644.7148
1234.837, 643.8239
1235.319, 640.1331
1235.801, 635.4969
1236.283, 631.0815
1236.765, 629.3595
1237.247, 630.1428
1237.729, 629.9582
1238.211, 626.9822
1238.694, 625.5898
1239.176, 625.7902
1239.658, 630.2202
1240.140, 644.6154
1240.622, 657.9111
1241.104, 664.4553
1241.586, 666.0325
1242.068, 663.7224
1242.551, 658.6976
1243.033, 655.4186
1243.515, 653.9708
1243.997, 649.8464
1244.479, 643.5862
1244.961, 647.9724
1245.443, 662.9282
1245.925, 669.7410
1246.407, 661.2027
1246.890, 646.8304
1247.372, 631.2423
1247.854, 620.6454
1248.336, 624.6892
1248.818, 632.8267
1249.300, 635.0657
1249.782, 636.2630
1250.264, 645.7867
1250.746, 658.2267
1251.229, 657.3817
1251.711, 641.0662
1252.193, 638.1788
1252.675, 659.5371
1253.157, 666.5424
1253.639, 652.9567
1254.121, 643.5456
1254.603, 645.0858
1255.086, 651.4424
1255.568, 659.4548
1256.050, 664.0519
1256.532, 657.4890
1257.014, 644.6978
1257.496, 632.1275
1257.978, 622.5629
1258.460, 622.0212
1258.943, 628.2587
1259.425, 637.9916
1259.907, 649.2897
1260.389, 659.6065
1260.871, 668.6846
1261.353, 671.9626
1261.835, 663.1913
1262.317, 656.2682
1262.799, 656.8143
1263.281, 654.7922
1263.764, 644.2715
##END=



