##NAMES=Brushite
##RRUFFID=R070554
##IDEAL CHEMISTRY=Ca(PO_3_OH)&#183;2H_2_O
##LOCALITY=Biogenic
##OWNER=RRUFF
##SOURCE=Henry J. Sun
##DESCRIPTION=Colorless platy crystals
##STATUS=The identification of this mineral has been confirmed by single-crystal X-ray diffraction.
##URL=rruff.info/R070554
162.9936, 10333.00
163.4757, 10364.85
163.9578, 10389.41
164.4400, 10430.68
164.9221, 10501.12
165.4042, 10594.80
165.8863, 10688.22
166.3684, 10799.64
166.8505, 10889.39
167.3327, 10943.56
167.8148, 10972.65
168.2969, 10987.61
168.7790, 10991.88
169.2611, 10991.73
169.7432, 11028.21
170.2254, 11154.30
170.7075, 11254.96
171.1896, 11291.41
171.6717, 11285.44
172.1538, 11277.46
172.6359, 11291.29
173.1181, 11323.72
173.6002, 11348.07
174.0823, 11371.49
174.5644, 11381.61
175.0465, 11388.25
175.5286, 11379.44
176.0108, 11324.63
176.4929, 11197.82
176.9750, 11010.63
177.4571, 10874.95
177.9392, 10849.52
178.4213, 10803.68
178.9035, 10669.10
179.3856, 10478.74
179.8677, 10316.06
180.3498, 10237.80
180.8319, 10235.53
181.3140, 10194.16
181.7962, 10068.71
182.2783, 9960.105
182.7604, 9909.947
183.2425, 9905.999
183.7246, 9912.402
184.2067, 9905.396
184.6889, 9886.994
185.1710, 9888.688
185.6531, 9947.368
186.1352, 9984.742
186.6173, 9956.905
187.0994, 9881.159
187.5816, 9805.732
188.0637, 9761.013
188.5458, 9745.769
189.0279, 9736.996
189.5100, 9719.952
189.9921, 9722.079
190.4743, 9758.722
190.9564, 9823.988
191.4385, 9904.735
191.9206, 9995.867
192.4027, 10095.46
192.8848, 10167.33
193.3670, 10195.62
193.8491, 10218.43
194.3312, 10250.19
194.8133, 10288.43
195.2954, 10323.99
195.7775, 10350.00
196.2597, 10367.31
196.7418, 10389.49
197.2239, 10402.50
197.7060, 10432.43
198.1881, 10493.93
198.6702, 10580.75
199.1524, 10677.61
199.6345, 10776.21
200.1166, 10876.23
200.5987, 10971.95
201.0808, 11059.65
201.5629, 11147.87
202.0451, 11239.72
202.5272, 11334.19
203.0093, 11430.25
203.4914, 11530.18
203.9735, 11630.49
204.4556, 11697.42
204.9378, 11714.84
205.4199, 11724.35
205.9020, 11758.09
206.3841, 11794.65
206.8662, 11784.32
207.3483, 11693.14
207.8305, 11533.73
208.3126, 11390.28
208.7947, 11280.19
209.2768, 11164.57
209.7589, 11042.20
210.2410, 10906.63
210.7232, 10738.47
211.2053, 10521.53
211.6874, 10271.90
212.1695, 10073.37
212.6516, 9923.439
213.1337, 9820.404
213.6159, 9808.288
214.0980, 9837.569
214.5801, 9825.496
215.0622, 9726.444
215.5443, 9562.749
216.0264, 9430.024
216.5086, 9334.579
216.9907, 9260.722
217.4728, 9223.928
217.9549, 9203.208
218.4370, 9163.920
218.9191, 9087.588
219.4013, 8993.993
219.8834, 8948.396
220.3655, 9020.217
220.8476, 9060.818
221.3297, 9030.667
221.8118, 8972.269
222.2940, 8946.662
222.7761, 8980.565
223.2582, 9037.466
223.7403, 9023.107
224.2224, 8820.373
224.7046, 8691.372
225.1867, 8691.714
225.6688, 8747.468
226.1509, 8787.210
226.6330, 8783.880
227.1151, 8754.217
227.5973, 8733.779
228.0794, 8748.847
228.5615, 8731.658
229.0436, 8641.545
229.5257, 8542.744
230.0078, 8494.576
230.4900, 8513.038
230.9721, 8566.178
231.4542, 8600.286
231.9363, 8599.908
232.4184, 8609.233
232.9005, 8635.744
233.3827, 8666.098
233.8648, 8696.216
234.3469, 8723.100
234.8290, 8738.422
235.3111, 8725.764
235.7932, 8664.235
236.2754, 8626.912
236.7575, 8617.894
237.2396, 8625.815
237.7217, 8655.838
238.2038, 8702.235
238.6859, 8741.516
239.1681, 8743.635
239.6502, 8697.477
240.1323, 8657.928
240.6144, 8631.573
241.0965, 8606.014
241.5786, 8559.428
242.0608, 8501.997
242.5429, 8474.663
243.0250, 8539.703
243.5071, 8712.115
243.9892, 8794.450
244.4713, 8680.056
244.9535, 8571.167
245.4356, 8558.736
245.9177, 8620.091
246.3998, 8676.491
246.8819, 8664.709
247.3640, 8591.082
247.8462, 8530.537
248.3283, 8479.930
248.8104, 8449.246
249.2925, 8454.744
249.7746, 8480.824
250.2567, 8496.212
250.7389, 8478.888
251.2210, 8437.796
251.7031, 8405.606
252.1852, 8387.156
252.6673, 8368.819
253.1494, 8332.517
253.6316, 8294.430
254.1137, 8283.928
254.5958, 8332.646
255.0779, 8398.866
255.5600, 8386.591
256.0421, 8261.965
256.5243, 8169.090
257.0064, 8219.388
257.4885, 8324.912
257.9706, 8384.935
258.4527, 8360.986
258.9348, 8301.643
259.4170, 8256.888
259.8991, 8226.275
260.3812, 8215.749
260.8633, 8243.400
261.3454, 8284.854
261.8275, 8311.083
262.3097, 8321.517
262.7918, 8310.186
263.2739, 8253.854
263.7560, 8161.336
264.2381, 8098.548
264.7202, 8096.448
265.2024, 8128.249
265.6845, 8157.359
266.1666, 8190.881
266.6487, 8197.117
267.1308, 8118.477
267.6129, 8000.000
268.0951, 7969.658
268.5772, 8084.309
269.0593, 8245.012
269.5414, 8296.356
270.0235, 8230.027
270.5056, 8182.449
270.9878, 8214.475
271.4699, 8275.805
271.9520, 8294.262
272.4341, 8253.925
272.9162, 8197.482
273.3983, 8173.854
273.8805, 8190.668
274.3626, 8194.835
274.8447, 8172.102
275.3268, 8143.401
275.8089, 8123.617
276.2910, 8114.636
276.7732, 8113.949
277.2553, 8119.000
277.7374, 8129.797
278.2195, 8152.848
278.7016, 8203.241
279.1837, 8249.933
279.6659, 8281.661
280.1480, 8297.121
280.6301, 8295.798
281.1122, 8275.960
281.5943, 8239.217
282.0764, 8203.784
282.5586, 8145.457
283.0407, 8115.122
283.5228, 8147.168
284.0049, 8210.189
284.4870, 8260.069
284.9691, 8274.892
285.4513, 8258.405
285.9334, 8219.117
286.4155, 8112.670
286.8976, 8047.931
287.3797, 8060.398
287.8618, 8103.074
288.3440, 8134.429
288.8261, 8140.491
289.3082, 8130.518
289.7903, 8117.155
290.2724, 8094.443
290.7545, 8084.580
291.2367, 8106.663
291.7188, 8128.364
292.2009, 8122.795
292.6830, 8090.145
293.1651, 8059.678
293.6472, 8073.093
294.1294, 8137.060
294.6115, 8157.720
295.0936, 8079.911
295.5757, 8008.887
296.0578, 8005.357
296.5399, 8057.290
297.0221, 8113.122
297.5042, 8141.892
297.9863, 8147.525
298.4684, 8146.351
298.9505, 8138.934
299.4326, 8123.054
299.9148, 8078.993
300.3969, 8026.940
300.8790, 8008.469
301.3611, 8059.098
301.8432, 8136.037
302.3253, 8181.400
302.8075, 8193.511
303.2896, 8191.864
303.7717, 8179.815
304.2538, 8162.129
304.7359, 8148.040
305.2180, 8134.507
305.7002, 8129.833
306.1823, 8144.362
306.6644, 8173.545
307.1465, 8199.602
307.6286, 8213.271
308.1107, 8223.241
308.5929, 8249.756
309.0750, 8300.555
309.5571, 8343.064
310.0392, 8367.766
310.5213, 8379.290
311.0034, 8376.865
311.4856, 8359.968
311.9677, 8350.644
312.4498, 8382.838
312.9319, 8484.888
313.4140, 8539.153
313.8961, 8510.116
314.3783, 8461.645
314.8604, 8439.271
315.3425, 8443.593
315.8246, 8446.963
316.3067, 8423.501
316.7888, 8371.242
317.2710, 8336.356
317.7531, 8341.042
318.2352, 8338.556
318.7173, 8302.931
319.1994, 8251.239
319.6815, 8215.684
320.1637, 8216.740
320.6458, 8243.791
321.1279, 8255.877
321.6100, 8234.981
322.0921, 8227.897
322.5742, 8256.635
323.0564, 8293.670
323.5385, 8310.342
324.0206, 8297.112
324.5027, 8272.177
324.9848, 8269.088
325.4669, 8298.685
325.9491, 8291.147
326.4312, 8187.142
326.9133, 8078.669
327.3954, 8021.787
327.8775, 8018.897
328.3596, 8040.541
328.8418, 8086.603
329.3239, 8144.509
329.8060, 8151.626
330.2881, 8082.524
330.7702, 8001.591
331.2523, 7956.835
331.7345, 7939.797
332.2166, 7927.280
332.6987, 7905.105
333.1808, 7887.866
333.6629, 7894.320
334.1451, 7924.669
334.6272, 7968.542
335.1093, 8028.475
335.5914, 8094.947
336.0735, 8135.558
336.5556, 8124.811
337.0378, 8118.550
337.5199, 8151.218
338.0020, 8205.870
338.4841, 8248.026
338.9662, 8264.896
339.4483, 8260.519
339.9305, 8239.871
340.4126, 8163.803
340.8947, 8142.154
341.3768, 8244.175
341.8589, 8362.452
342.3410, 8391.574
342.8232, 8321.500
343.3053, 8228.255
343.7874, 8194.978
344.2695, 8233.338
344.7516, 8265.401
345.2337, 8289.876
345.7159, 8309.554
346.1980, 8321.714
346.6801, 8329.883
347.1622, 8340.485
347.6443, 8357.239
348.1265, 8379.970
348.6086, 8408.328
349.0907, 8444.979
349.5728, 8482.432
350.0549, 8518.341
350.5370, 8553.939
351.0192, 8590.769
351.5013, 8629.190
351.9834, 8668.064
352.4655, 8712.321
352.9476, 8762.552
353.4297, 8785.309
353.9119, 8748.698
354.3940, 8707.128
354.8761, 8722.289
355.3582, 8793.870
355.8403, 8849.470
356.3224, 8838.371
356.8046, 8793.106
357.2867, 8771.960
357.7688, 8783.192
358.2509, 8807.613
358.7330, 8835.546
359.2151, 8865.183
359.6973, 8881.327
360.1794, 8866.400
360.6615, 8853.021
361.1436, 8870.926
361.6257, 8908.209
362.1078, 8923.716
362.5900, 8891.660
363.0721, 8833.267
363.5542, 8817.204
364.0363, 8874.778
364.5184, 8936.044
365.0005, 9005.535
365.4827, 9072.746
365.9648, 9128.309
366.4469, 9169.937
366.9290, 9198.849
367.4111, 9212.642
367.8932, 9202.170
368.3754, 9213.731
368.8575, 9273.380
369.3396, 9331.074
369.8217, 9355.200
370.3038, 9359.537
370.7859, 9384.206
371.2681, 9467.619
371.7502, 9584.538
372.2323, 9642.723
372.7144, 9615.890
373.1965, 9595.710
373.6786, 9626.772
374.1608, 9681.641
374.6429, 9733.547
375.1250, 9777.864
375.6071, 9814.710
376.0892, 9838.522
376.5714, 9852.668
377.0535, 9879.312
377.5356, 9931.932
378.0177, 9985.333
378.4998, 10005.63
378.9819, 9994.757
379.4641, 9967.570
379.9462, 9916.810
380.4283, 9857.943
380.9104, 9810.096
381.3925, 9773.007
381.8746, 9725.264
382.3568, 9648.053
382.8389, 9542.876
383.3210, 9451.788
383.8031, 9378.352
384.2852, 9311.890
384.7673, 9253.688
385.2495, 9199.498
385.7316, 9146.339
386.2137, 9093.029
386.6958, 9033.471
387.1779, 8948.853
387.6600, 8804.237
388.1422, 8719.512
388.6243, 8760.753
389.1064, 8811.273
389.5885, 8783.487
390.0706, 8808.438
390.5527, 8719.492
391.0349, 8767.618
391.5170, 8788.515
391.9991, 8700.638
392.4812, 8753.219
392.9633, 8749.511
393.4454, 8743.495
393.9276, 8815.848
394.4097, 8743.791
394.8918, 8814.899
395.3739, 8828.858
395.8560, 8868.973
396.3381, 8852.450
396.8203, 8853.423
397.3024, 8857.140
397.7845, 8873.877
398.2666, 8909.125
398.7487, 8976.240
399.2308, 9010.726
399.7130, 8971.994
400.1951, 8915.766
400.6772, 8889.038
401.1593, 8897.001
401.6414, 8926.671
402.1235, 8968.992
402.6057, 9023.893
403.0878, 9079.672
403.5699, 9145.628
404.0520, 9201.823
404.5341, 9244.361
405.0162, 9274.635
405.4984, 9291.804
405.9805, 9295.275
406.4626, 9295.368
406.9447, 9310.832
407.4268, 9346.189
407.9089, 9376.403
408.3911, 9403.316
408.8732, 9419.155
409.3553, 9410.281
409.8374, 9381.890
410.3195, 9364.041
410.8016, 9392.613
411.2838, 9438.483
411.7659, 9440.115
412.2480, 9392.033
412.7301, 9328.910
413.2122, 9259.399
413.6943, 9192.942
414.1765, 9155.149
414.6586, 9173.048
415.1407, 9183.354
415.6228, 9152.638
416.1049, 9097.922
416.5870, 9049.931
417.0692, 9018.067
417.5513, 8984.521
418.0334, 8919.627
418.5155, 8797.988
418.9976, 8730.353
419.4797, 8780.611
419.9619, 8816.898
420.4440, 8753.665
420.9261, 8620.993
421.4082, 8501.589
421.8903, 8447.719
422.3724, 8444.632
422.8546, 8448.995
423.3367, 8474.373
423.8188, 8475.088
424.3009, 8428.071
424.7830, 8359.296
425.2651, 8281.734
425.7473, 8197.372
426.2294, 8124.443
426.7115, 8079.510
427.1936, 8057.613
427.6757, 8050.260
428.1578, 8064.810
428.6400, 8061.923
429.1221, 7993.617
429.6042, 7872.505
430.0863, 7789.163
430.5684, 7784.553
431.0505, 7785.026
431.5327, 7735.947
432.0148, 7660.567
432.4969, 7615.553
432.9790, 7625.608
433.4611, 7668.647
433.9432, 7703.427
434.4254, 7739.435
434.9075, 7746.510
435.3896, 7716.552
435.8717, 7668.006
436.3538, 7602.944
436.8359, 7528.049
437.3181, 7458.575
437.8002, 7404.108
438.2823, 7364.576
438.7644, 7341.069
439.2465, 7341.640
439.7286, 7339.843
440.2108, 7304.419
440.6929, 7271.668
441.1750, 7291.948
441.6571, 7387.313
442.1392, 7467.996
442.6213, 7456.154
443.1035, 7380.952
443.5856, 7315.066
444.0677, 7269.772
444.5498, 7243.779
445.0319, 7237.844
445.5140, 7253.669
445.9962, 7276.884
446.4783, 7330.703
446.9604, 7368.747
447.4425, 7366.690
447.9246, 7333.009
448.4067, 7278.488
448.8889, 7207.590
449.3710, 7136.658
449.8531, 7103.083
450.3352, 7126.595
450.8173, 7142.289
451.2994, 7144.538
451.7816, 7141.875
452.2637, 7140.576
452.7458, 7138.902
453.2279, 7129.008
453.7100, 7101.281
454.1921, 7063.867
454.6743, 7032.821
455.1564, 7005.892
455.6385, 7000.178
456.1206, 7039.756
456.6027, 7095.937
457.0848, 7120.208
457.5670, 7104.265
458.0491, 7079.468
458.5312, 7048.398
459.0133, 7020.456
459.4954, 7015.752
459.9775, 7035.414
460.4597, 7051.590
460.9418, 7038.854
461.4239, 6996.998
461.9060, 6953.070
462.3881, 6868.653
462.8702, 6826.286
463.3524, 6882.876
463.8345, 6977.439
464.3166, 7034.852
464.7987, 7029.476
465.2808, 6992.127
465.7629, 6953.745
466.2451, 6911.606
466.7272, 6908.910
467.2093, 6979.845
467.6914, 7050.807
468.1735, 7069.257
468.6556, 7050.458
469.1378, 7037.779
469.6199, 7057.101
470.1020, 7078.028
470.5841, 7065.670
471.0662, 7027.422
471.5483, 6998.899
472.0305, 6996.644
472.5126, 7000.598
472.9947, 6973.619
473.4768, 6888.745
473.9589, 6838.711
474.4410, 6844.342
474.9232, 6867.649
475.4053, 6894.409
475.8874, 6917.907
476.3695, 6927.078
476.8516, 6912.238
477.3337, 6883.440
477.8159, 6875.727
478.2980, 6900.648
478.7801, 6917.963
479.2622, 6912.782
479.7443, 6900.505
480.2264, 6885.586
480.7086, 6869.807
481.1907, 6870.521
481.6728, 6902.933
482.1549, 6957.235
482.6370, 7026.462
483.1191, 7111.337
483.6013, 7169.602
484.0834, 7171.782
484.5655, 7128.730
485.0476, 7084.793
485.5297, 7022.556
486.0118, 6982.494
486.4940, 6986.448
486.9761, 7008.065
487.4582, 7016.091
487.9403, 7008.318
488.4224, 7011.294
488.9045, 7058.424
489.3867, 7147.056
489.8688, 7189.538
490.3509, 7147.015
490.8330, 7118.233
491.3151, 7145.846
491.7972, 7197.923
492.2794, 7177.744
492.7615, 7253.926
493.2436, 7301.336
493.7257, 7321.519
494.2078, 7232.927
494.6899, 7284.796
495.1721, 7280.375
495.6542, 7273.646
496.1363, 7345.283
496.6184, 7272.513
497.1005, 7342.907
497.5826, 7356.152
498.0648, 7395.555
498.5469, 7378.319
499.0290, 7378.576
499.5111, 7435.489
499.9932, 7461.031
500.4753, 7437.275
500.9575, 7478.340
501.4396, 7403.592
501.9217, 7430.470
502.4038, 7501.196
502.8859, 7480.287
503.3680, 7522.387
503.8502, 7540.491
504.3323, 7449.538
504.8144, 7548.243
505.2965, 7564.927
505.7786, 7497.394
506.2607, 7589.601
506.7429, 7533.679
507.2250, 7530.630
507.7071, 7567.370
508.1892, 7562.631
508.6713, 7623.290
509.1534, 7620.946
509.6356, 7508.934
510.1177, 7446.732
510.5998, 7475.396
511.0819, 7550.083
511.5641, 7598.543
512.0461, 7593.319
512.5283, 7564.766
513.0104, 7560.396
513.4925, 7584.812
513.9746, 7591.249
514.4567, 7561.035
514.9388, 7533.508
515.4210, 7529.151
515.9031, 7544.134
516.3852, 7572.005
516.8673, 7625.962
517.3494, 7672.372
517.8315, 7685.320
518.3137, 7669.650
518.7958, 7628.832
519.2779, 7560.701
519.7600, 7501.074
520.2421, 7497.542
520.7242, 7563.839
521.2064, 7606.582
521.6885, 7602.610
522.1706, 7604.177
522.6527, 7637.565
523.1348, 7686.197
523.6169, 7729.836
524.0991, 7761.749
524.5812, 7768.439
525.0633, 7718.329
525.5454, 7612.992
526.0275, 7532.605
526.5096, 7491.915
526.9918, 7465.080
527.4739, 7428.197
527.9560, 7389.044
528.4381, 7374.213
528.9202, 7429.217
529.4023, 7464.946
529.8845, 7404.562
530.3666, 7300.456
530.8487, 7247.114
531.3308, 7269.391
531.8129, 7322.864
532.2950, 7356.496
532.7772, 7367.720
533.2593, 7383.146
533.7414, 7411.914
534.2235, 7433.725
534.7056, 7440.352
535.1877, 7438.083
535.6699, 7433.939
536.1520, 7429.430
536.6341, 7427.859
537.1162, 7441.704
537.5983, 7461.621
538.0804, 7449.538
538.5626, 7395.983
539.0447, 7343.958
539.5268, 7331.438
540.0089, 7350.652
540.4910, 7339.419
540.9731, 7268.975
541.4553, 7207.935
541.9374, 7158.784
542.4195, 7134.298
542.9016, 7166.077
543.3837, 7248.468
543.8658, 7321.806
544.3480, 7330.293
544.8301, 7278.725
545.3122, 7197.388
545.7943, 7061.334
546.2764, 6956.126
546.7585, 6934.354
547.2407, 6951.888
547.7228, 6963.552
548.2049, 6966.007
548.6870, 6960.372
549.1691, 6951.651
549.6512, 6932.496
550.1334, 6889.826
550.6155, 6825.363
551.0976, 6751.298
551.5797, 6669.772
552.0618, 6594.457
552.5439, 6576.437
553.0261, 6669.324
553.5082, 6727.471
553.9903, 6724.613
554.4724, 6703.200
554.9545, 6696.429
555.4366, 6698.446
555.9188, 6674.373
556.4009, 6582.980
556.8830, 6472.027
557.3651, 6421.995
557.8472, 6429.125
558.3293, 6442.364
558.8115, 6445.104
559.2936, 6445.665
559.7757, 6455.920
560.2578, 6478.619
560.7399, 6500.766
561.2220, 6536.275
561.7042, 6557.122
562.1863, 6542.304
562.6684, 6504.243
563.1505, 6461.149
563.6326, 6420.498
564.1147, 6391.284
564.5969, 6397.458
565.0790, 6440.916
565.5611, 6444.193
566.0432, 6367.794
566.5253, 6309.880
567.0074, 6367.474
567.4896, 6491.260
567.9717, 6570.148
568.4538, 6579.646
568.9359, 6557.281
569.4180, 6487.936
569.9001, 6411.503
570.3823, 6391.458
570.8644, 6434.665
571.3465, 6490.734
571.8286, 6512.799
572.3107, 6505.115
572.7928, 6512.047
573.2750, 6541.668
573.7571, 6572.026
574.2392, 6587.929
574.7213, 6609.108
575.2034, 6661.063
575.6855, 6744.577
576.1677, 6816.275
576.6498, 6834.861
577.1319, 6837.615
577.6140, 6887.514
578.0961, 6976.423
578.5782, 7028.778
579.0604, 6999.964
579.5425, 6943.981
580.0246, 6973.989
580.5067, 7146.446
580.9888, 7278.328
581.4709, 7366.712
581.9531, 7423.647
582.4352, 7426.379
582.9173, 7406.229
583.3994, 7425.604
583.8815, 7519.334
584.3636, 7631.153
584.8458, 7707.887
585.3279, 7746.794
585.8100, 7724.293
586.2921, 7626.707
586.7742, 7512.433
587.2563, 7425.835
587.7385, 7366.207
588.2206, 7315.571
588.7027, 7296.983
589.1848, 7257.595
589.6669, 7173.102
590.1490, 7070.689
590.6312, 6971.263
591.1133, 6881.065
591.5954, 6803.277
592.0775, 6743.228
592.5597, 6696.084
593.0418, 6643.397
593.5239, 6582.731
594.0060, 6536.137
594.4882, 6524.950
594.9703, 6518.258
595.4524, 6453.184
595.9345, 6315.589
596.4166, 6244.771
596.8987, 6317.858
597.3809, 6410.218
597.8630, 6451.004
598.3451, 6449.635
598.8272, 6434.335
599.3093, 6416.900
599.7914, 6392.122
600.2736, 6340.637
600.7557, 6258.927
601.2378, 6227.488
601.7199, 6269.264
602.2020, 6325.418
602.6841, 6371.968
603.1663, 6407.242
603.6484, 6426.441
604.1305, 6424.244
604.6126, 6415.870
605.0947, 6404.218
605.5768, 6391.278
606.0590, 6382.938
606.5411, 6376.813
607.0232, 6359.916
607.5053, 6322.251
607.9874, 6270.118
608.4695, 6217.931
608.9517, 6155.679
609.4338, 6128.376
609.9159, 6175.558
610.3980, 6227.676
610.8801, 6227.299
611.3622, 6186.565
611.8444, 6160.389
612.3265, 6179.900
612.8086, 6203.639
613.2907, 6204.553
613.7728, 6190.375
614.2549, 6172.452
614.7371, 6154.515
615.2192, 6142.582
615.7013, 6145.465
616.1834, 6161.937
616.6655, 6159.663
617.1476, 6129.108
617.6298, 6097.103
618.1119, 6060.683
618.5940, 6032.459
619.0761, 6029.793
619.5582, 6053.407
620.0403, 6071.833
620.5225, 6068.455
621.0046, 6055.261
621.4867, 6047.917
621.9688, 6041.749
622.4509, 6013.162
622.9330, 5951.432
623.4152, 5889.418
623.8973, 5882.525
624.3794, 5945.305
624.8615, 5983.681
625.3436, 5974.557
625.8257, 5970.819
626.3079, 6014.120
626.7900, 6064.568
627.2721, 6057.372
627.7542, 5968.610
628.2363, 5893.639
628.7184, 5908.591
629.2006, 5956.776
629.6827, 5958.640
630.1648, 5914.806
630.6469, 5865.116
631.1290, 5829.675
631.6111, 5811.750
632.0933, 5824.111
632.5754, 5885.479
633.0575, 5924.224
633.5396, 5916.748
634.0217, 5908.420
634.5038, 5925.898
634.9860, 5956.808
635.4681, 5976.164
635.9502, 5980.080
636.4323, 5965.135
636.9144, 5908.896
637.3965, 5840.381
637.8787, 5810.607
638.3608, 5822.549
638.8429, 5840.576
639.3250, 5839.511
639.8071, 5825.453
640.2892, 5820.528
640.7714, 5825.527
641.2535, 5838.181
641.7356, 5883.317
642.2177, 5912.522
642.6998, 5875.961
643.1819, 5797.641
643.6641, 5757.980
644.1462, 5802.992
644.6283, 5863.334
645.1104, 5911.301
645.5925, 5935.568
646.0746, 5890.094
646.5568, 5778.905
647.0389, 5705.655
647.5210, 5771.901
648.0031, 5940.383
648.4852, 5997.522
648.9673, 5896.611
649.4495, 5803.218
649.9316, 5740.014
650.4137, 5704.957
650.8958, 5706.433
651.3779, 5738.188
651.8600, 5765.223
652.3422, 5774.568
652.8243, 5778.863
653.3064, 5776.964
653.7885, 5778.472
654.2706, 5811.588
654.7527, 5876.716
655.2349, 5924.807
655.7170, 5902.271
656.1991, 5824.011
656.6812, 5787.136
657.1633, 5807.194
657.6454, 5822.090
658.1276, 5822.195
658.6097, 5804.190
659.0918, 5746.413
659.5739, 5654.346
660.0560, 5615.439
660.5381, 5688.524
661.0203, 5776.682
661.5024, 5843.005
661.9845, 5883.170
662.4666, 5884.235
662.9487, 5848.068
663.4308, 5806.884
663.9130, 5798.396
664.3951, 5810.400
664.8772, 5769.351
665.3593, 5657.378
665.8414, 5590.043
666.3235, 5618.805
666.8057, 5689.467
667.2878, 5745.632
667.7699, 5788.809
668.2520, 5799.003
668.7341, 5745.026
669.2162, 5690.734
669.6984, 5656.718
670.1805, 5642.585
670.6626, 5652.855
671.1447, 5684.870
671.6268, 5717.804
672.1089, 5735.337
672.5911, 5738.354
673.0732, 5726.163
673.5553, 5698.470
674.0374, 5668.267
674.5195, 5636.399
675.0016, 5611.752
675.4838, 5608.638
675.9659, 5631.821
676.4480, 5642.426
676.9301, 5623.304
677.4122, 5613.083
677.8943, 5632.828
678.3765, 5661.761
678.8586, 5678.560
679.3407, 5679.139
679.8228, 5669.519
680.3049, 5642.657
680.7870, 5614.320
681.2692, 5616.209
681.7513, 5642.683
682.2334, 5657.107
682.7155, 5645.271
683.1976, 5634.966
683.6797, 5666.296
684.1619, 5744.720
684.6440, 5774.749
685.1261, 5715.401
685.6082, 5664.931
686.0903, 5662.231
686.5724, 5665.749
687.0546, 5628.008
687.5367, 5549.210
688.0188, 5488.541
688.5009, 5487.943
688.9830, 5503.571
689.4651, 5492.628
689.9473, 5467.239
690.4294, 5452.305
690.9115, 5455.992
691.3936, 5486.562
691.8757, 5566.450
692.3578, 5682.957
692.8400, 5707.227
693.3221, 5601.388
693.8042, 5516.925
694.2863, 5510.142
694.7684, 5527.643
695.2505, 5509.422
695.7327, 5458.886
696.2148, 5429.082
696.6969, 5446.736
697.1790, 5466.304
697.6611, 5461.634
698.1432, 5449.344
698.6254, 5454.856
699.1075, 5479.409
699.5896, 5499.799
700.0717, 5494.145
700.5538, 5474.759
701.0359, 5470.983
701.5181, 5482.578
702.0002, 5503.446
702.4823, 5537.205
702.9644, 5563.150
703.4465, 5559.763
703.9286, 5528.022
704.4108, 5496.502
704.8929, 5437.252
705.3750, 5415.712
705.8571, 5481.915
706.3392, 5556.328
706.8214, 5575.274
707.3035, 5542.253
707.7856, 5498.203
708.2677, 5455.180
708.7498, 5420.776
709.2319, 5400.377
709.7141, 5394.981
710.1962, 5413.766
710.6783, 5455.830
711.1604, 5494.060
711.6425, 5506.962
712.1246, 5500.914
712.6068, 5500.014
713.0889, 5506.077
713.5710, 5512.202
714.0531, 5525.591
714.5352, 5529.101
715.0173, 5494.292
715.4995, 5441.901
715.9816, 5430.949
716.4637, 5506.986
716.9458, 5556.648
717.4279, 5520.976
717.9100, 5454.067
718.3922, 5393.206
718.8743, 5348.806
719.3564, 5334.512
719.8385, 5360.729
720.3206, 5397.175
720.8027, 5393.383
721.2849, 5356.780
721.7670, 5339.204
722.2491, 5347.606
722.7312, 5356.392
723.2133, 5346.048
723.6954, 5332.269
724.1776, 5356.444
724.6597, 5455.774
725.1418, 5507.492
725.6239, 5481.717
726.1060, 5445.083
726.5881, 5416.391
727.0703, 5397.644
727.5524, 5390.462
728.0345, 5395.566
728.5166, 5406.381
728.9987, 5426.237
729.4808, 5444.656
729.9630, 5444.669
730.4451, 5431.820
730.9272, 5425.703
731.4093, 5433.613
731.8914, 5446.860
732.3735, 5455.173
732.8557, 5458.578
733.3378, 5454.581
733.8199, 5436.594
734.3020, 5435.044
734.7841, 5470.683
735.2662, 5516.822
735.7484, 5540.462
736.2305, 5541.410
736.7126, 5534.990
737.1947, 5514.233
737.6768, 5495.664
738.1589, 5491.439
738.6411, 5488.249
739.1232, 5464.573
739.6053, 5423.698
740.0874, 5397.844
740.5695, 5416.590
741.0516, 5449.643
741.5338, 5459.597
742.0159, 5449.887
742.4980, 5426.369
742.9801, 5390.956
743.4622, 5364.691
743.9443, 5367.501
744.4265, 5389.799
744.9086, 5385.283
745.3907, 5334.253
745.8728, 5317.579
746.3549, 5371.327
746.8370, 5428.186
747.3192, 5441.037
747.8013, 5424.404
748.2834, 5412.943
748.7655, 5417.685
749.2476, 5411.892
749.7297, 5370.408
750.2119, 5330.321
750.6940, 5322.934
751.1761, 5341.233
751.6582, 5363.383
752.1403, 5380.333
752.6224, 5399.954
753.1046, 5442.288
753.5867, 5492.339
754.0688, 5502.992
754.5509, 5474.003
755.0330, 5440.198
755.5151, 5415.898
755.9973, 5397.779
756.4794, 5380.179
756.9615, 5361.706
757.4436, 5355.086
757.9257, 5369.646
758.4078, 5380.861
758.8900, 5374.940
759.3721, 5366.653
759.8542, 5368.560
760.3363, 5381.164
760.8184, 5401.894
761.3005, 5444.493
761.7827, 5478.902
762.2648, 5494.402
762.7469, 5490.493
763.2290, 5454.688
763.7111, 5395.021
764.1932, 5350.724
764.6754, 5351.452
765.1575, 5376.097
765.6396, 5391.229
766.1217, 5399.646
766.6038, 5421.556
767.0859, 5461.221
767.5681, 5479.131
768.0502, 5440.497
768.5323, 5371.166
769.0144, 5354.503
769.4965, 5415.392
769.9786, 5461.364
770.4608, 5489.985
770.9429, 5501.774
771.4250, 5485.853
771.9071, 5457.804
772.3892, 5442.893
772.8713, 5445.529
773.3535, 5452.132
773.8356, 5468.464
774.3177, 5478.374
774.7998, 5460.674
775.2819, 5432.834
775.7640, 5426.169
776.2462, 5447.783
776.7283, 5474.335
777.2104, 5490.614
777.6925, 5495.615
778.1746, 5481.273
778.6567, 5452.182
779.1389, 5427.791
779.6210, 5413.410
780.1031, 5417.433
780.5852, 5454.421
781.0673, 5514.208
781.5494, 5526.707
782.0316, 5473.500
782.5137, 5427.551
782.9958, 5389.247
783.4779, 5375.642
783.9600, 5418.481
784.4421, 5497.395
784.9243, 5543.798
785.4064, 5539.495
785.8885, 5529.917
786.3706, 5513.370
786.8527, 5503.381
787.3348, 5509.269
787.8170, 5528.690
788.2991, 5561.624
788.7812, 5610.143
789.2633, 5643.010
789.7454, 5624.349
790.2275, 5581.656
790.7097, 5542.459
791.1918, 5515.240
791.6739, 5531.772
792.1560, 5601.754
792.6381, 5670.876
793.1202, 5670.137
793.6024, 5612.862
794.0845, 5594.768
794.5666, 5622.790
795.0487, 5643.289
795.5308, 5637.304
796.0129, 5632.375
796.4951, 5660.679
796.9772, 5716.597
797.4593, 5741.563
797.9414, 5701.960
798.4235, 5678.643
798.9056, 5695.513
799.3878, 5711.465
799.8699, 5697.548
800.3520, 5663.983
800.8341, 5636.118
801.3162, 5621.831
801.7983, 5609.351
802.2805, 5581.240
802.7626, 5561.242
803.2447, 5569.787
803.7268, 5606.080
804.2089, 5672.765
804.6910, 5768.295
805.1732, 5859.051
805.6553, 5910.697
806.1374, 5930.424
806.6195, 5924.974
807.1016, 5899.092
807.5837, 5907.874
808.0659, 5970.510
808.5480, 6034.972
809.0301, 6045.673
809.5122, 6086.915
809.9943, 6115.309
810.4764, 6098.328
810.9586, 6131.257
811.4407, 6081.127
811.9228, 6014.129
812.4049, 5972.182
812.8870, 5948.463
813.3691, 5923.104
813.8513, 5888.580
814.3334, 5867.790
814.8155, 5879.917
815.2976, 5890.364
815.7797, 5879.536
816.2618, 5853.785
816.7440, 5821.326
817.2261, 5784.505
817.7082, 5755.668
818.1903, 5744.730
818.6724, 5743.521
819.1545, 5756.148
819.6367, 5768.534
820.1188, 5739.947
820.6009, 5668.534
821.0830, 5610.324
821.5651, 5615.791
822.0472, 5658.202
822.5294, 5681.501
823.0115, 5685.268
823.4936, 5656.790
823.9757, 5589.586
824.4578, 5531.594
824.9399, 5514.749
825.4221, 5527.387
825.9042, 5542.933
826.3863, 5568.921
826.8684, 5571.970
827.3505, 5534.048
827.8326, 5501.665
828.3148, 5498.906
828.7969, 5508.920
829.2790, 5512.444
829.7611, 5509.623
830.2432, 5495.145
830.7253, 5442.685
831.2075, 5409.962
831.6896, 5436.840
832.1717, 5479.171
832.6538, 5486.518
833.1359, 5464.600
833.6180, 5462.998
834.1002, 5513.737
834.5823, 5571.063
835.0644, 5608.687
835.5465, 5625.220
836.0286, 5615.051
836.5107, 5581.696
836.9929, 5532.611
837.4750, 5471.015
837.9571, 5413.386
838.4392, 5377.344
838.9213, 5363.566
839.4034, 5384.027
839.8856, 5436.519
840.3677, 5477.101
840.8498, 5490.601
841.3319, 5489.088
841.8140, 5481.055
842.2961, 5470.385
842.7783, 5499.315
843.2604, 5594.389
843.7425, 5639.201
844.2246, 5583.031
844.7067, 5524.169
845.1888, 5531.266
845.6710, 5589.388
846.1531, 5649.110
846.6352, 5706.211
847.1173, 5773.668
847.5994, 5886.394
848.0815, 5971.714
848.5637, 5974.979
849.0458, 5943.113
849.5279, 5936.139
850.0100, 5963.213
850.4921, 6004.117
850.9742, 6061.321
851.4564, 6118.174
851.9385, 6169.436
852.4206, 6211.238
852.9027, 6229.282
853.3848, 6230.940
853.8669, 6249.620
854.3491, 6306.618
854.8312, 6379.279
855.3133, 6449.363
855.7954, 6512.250
856.2775, 6554.583
856.7596, 6577.868
857.2418, 6594.151
857.7239, 6608.694
858.2060, 6624.908
858.6881, 6657.880
859.1702, 6698.660
859.6523, 6664.188
860.1345, 6545.989
860.6166, 6485.840
861.0987, 6530.751
861.5808, 6610.311
862.0629, 6667.611
862.5450, 6701.339
863.0272, 6700.829
863.5093, 6647.608
863.9914, 6607.358
864.4735, 6587.065
864.9556, 6576.309
865.4377, 6552.182
865.9199, 6541.016
866.4020, 6606.718
866.8841, 6784.443
867.3662, 6888.617
867.8483, 6808.924
868.3304, 6768.922
868.8126, 6896.834
869.2947, 7069.558
869.7768, 7154.256
870.2589, 7152.158
870.7410, 7154.381
871.2231, 7187.317
871.7053, 7242.051
872.1874, 7321.804
872.6695, 7414.877
873.1516, 7513.496
873.6337, 7614.315
874.1158, 7720.915
874.5980, 7834.706
875.0801, 7926.966
875.5622, 7958.646
876.0443, 7961.248
876.5264, 7980.125
877.0085, 8013.002
877.4907, 8052.995
877.9728, 8096.269
878.4549, 8127.752
878.9370, 8132.574
879.4191, 8121.786
879.9012, 8129.395
880.3834, 8149.908
880.8655, 8129.312
881.3476, 8060.374
881.8297, 7969.389
882.3118, 7865.375
882.7939, 7770.380
883.2761, 7735.873
883.7582, 7769.915
884.2403, 7733.091
884.7224, 7610.374
885.2045, 7460.783
885.6866, 7286.362
886.1688, 7117.187
886.6509, 6990.687
887.1330, 6899.306
887.6151, 6772.571
888.0972, 6564.275
888.5793, 6399.755
889.0615, 6315.377
889.5436, 6243.484
890.0257, 6157.645
890.5078, 6061.867
890.9899, 5960.229
891.4720, 5848.624
891.9542, 5755.599
892.4363, 5691.338
892.9184, 5641.010
893.4005, 5602.617
893.8826, 5572.532
894.3647, 5557.459
894.8469, 5549.276
895.3290, 5516.368
895.8111, 5435.455
896.2932, 5352.810
896.7753, 5288.412
897.2574, 5240.872
897.7396, 5220.931
898.2217, 5213.722
898.7038, 5182.916
899.1859, 5119.344
899.6680, 5067.850
900.1501, 5075.580
900.6323, 5106.952
901.1144, 5125.624
901.5965, 5128.964
902.0786, 5107.314
902.5607, 5062.614
903.0428, 5010.840
903.5250, 4958.956
904.0071, 4919.094
904.4892, 4916.414
904.9713, 4941.165
905.4534, 4963.068
905.9355, 4978.799
906.4177, 4975.371
906.8998, 4947.689
907.3819, 4905.947
907.8640, 4857.259
908.3461, 4807.225
908.8282, 4783.967
909.3104, 4787.771
909.7925, 4821.422
910.2746, 4894.451
910.7567, 4946.797
911.2388, 4933.730
911.7209, 4886.015
912.2031, 4878.272
912.6852, 4847.789
913.1673, 4803.108
913.6494, 4815.254
914.1315, 4746.465
914.6136, 4764.147
915.0958, 4810.117
915.5779, 4830.564
916.0600, 4826.397
916.5421, 4805.711
917.0242, 4732.637
917.5063, 4704.516
917.9885, 4777.785
918.4706, 4840.513
918.9527, 4829.305
919.4348, 4779.467
919.9169, 4743.253
920.3990, 4722.384
920.8812, 4717.598
921.3633, 4737.878
921.8455, 4762.777
922.3276, 4797.706
922.8097, 4824.970
923.2918, 4825.733
923.7739, 4805.274
924.2560, 4782.520
924.7382, 4756.387
925.2203, 4743.843
925.7024, 4764.408
926.1845, 4787.486
926.6666, 4797.465
927.1487, 4793.677
927.6309, 4769.098
928.1130, 4727.310
928.5951, 4701.638
929.0772, 4724.524
929.5593, 4749.350
930.0414, 4736.435
930.5236, 4712.230
931.0057, 4711.986
931.4878, 4728.832
931.9699, 4732.643
932.4520, 4711.763
932.9341, 4690.494
933.4163, 4689.357
933.8984, 4699.316
934.3805, 4711.550
934.8626, 4725.032
935.3447, 4742.886
935.8268, 4762.306
936.3090, 4767.472
936.7911, 4746.819
937.2732, 4714.503
937.7553, 4684.364
938.2374, 4659.166
938.7195, 4641.166
939.2017, 4633.665
939.6838, 4656.948
940.1659, 4715.708
940.6480, 4770.050
941.1301, 4778.607
941.6122, 4799.547
942.0944, 4756.582
942.5765, 4766.102
943.0586, 4730.484
943.5407, 4646.576
944.0228, 4603.946
944.5049, 4652.472
944.9871, 4737.062
945.4692, 4780.765
945.9513, 4784.891
946.4334, 4740.684
946.9155, 4645.703
947.3976, 4635.845
947.8798, 4753.468
948.3619, 4866.800
948.8440, 4869.848
949.3261, 4807.696
949.8082, 4807.417
950.2903, 4878.300
950.7725, 4900.948
951.2546, 4861.744
951.7367, 4826.740
952.2188, 4818.926
952.7009, 4827.475
953.1830, 4841.034
953.6652, 4860.076
954.1473, 4889.283
954.6294, 4931.874
955.1115, 4976.959
955.5936, 5038.664
956.0757, 5060.948
956.5579, 4990.468
957.0400, 4895.924
957.5221, 4896.204
958.0042, 5001.612
958.4863, 5063.268
958.9684, 5047.254
959.4506, 5064.813
959.9327, 5170.363
960.4148, 5262.964
960.8969, 5254.206
961.3790, 5188.324
961.8611, 5188.566
962.3433, 5291.386
962.8254, 5345.873
963.3075, 5304.353
963.7896, 5285.632
964.2717, 5345.321
964.7538, 5420.878
965.2360, 5456.105
965.7181, 5456.634
966.2002, 5455.990
966.6823, 5436.283
967.1644, 5445.116
967.6465, 5510.063
968.1287, 5572.599
968.6108, 5598.385
969.0929, 5615.689
969.5750, 5662.823
970.0571, 5739.862
970.5392, 5805.807
971.0214, 5833.011
971.5035, 5883.193
971.9856, 5981.211
972.4677, 6089.242
972.9498, 6171.357
973.4319, 6253.842
973.9141, 6398.304
974.3962, 6621.187
974.8783, 6784.677
975.3604, 6794.347
975.8425, 6834.503
976.3246, 6955.993
976.8068, 7135.015
977.2889, 7379.782
977.7710, 7661.907
978.2531, 7911.687
978.7352, 8104.004
979.2173, 8322.476
979.6995, 8603.642
980.1816, 8896.987
980.6637, 9169.936
981.1458, 9450.043
981.6279, 9778.358
982.1100, 10141.81
982.5922, 10477.25
983.0743, 10744.20
983.5564, 11045.75
984.0385, 11469.57
984.5206, 11876.01
985.0027, 12202.11
985.4849, 12451.70
985.9670, 12625.96
986.4491, 12733.42
986.9312, 12813.84
987.4133, 12906.72
987.8954, 12930.45
988.3776, 12830.43
988.8597, 12671.80
989.3418, 12507.92
989.8239, 12315.29
990.3060, 12036.36
990.7881, 11668.48
991.2703, 11312.90
991.7524, 11022.46
992.2345, 10736.22
992.7166, 10421.68
993.1987, 10104.11
993.6808, 9808.203
994.1630, 9526.195
994.6451, 9225.766
995.1272, 8900.876
995.6093, 8612.544
996.0914, 8423.027
996.5735, 8236.026
997.0557, 7954.599
997.5378, 7685.209
998.0199, 7549.709
998.5020, 7514.048
998.9841, 7475.885
999.4662, 7409.316
999.9484, 7319.762
1000.430, 7164.065
1000.913, 7039.313
1001.395, 7035.591
1001.877, 7070.104
1002.359, 7055.007
1002.841, 6990.818
1003.323, 6912.311
1003.805, 6820.399
1004.287, 6756.147
1004.770, 6784.667
1005.252, 6797.304
1005.734, 6694.487
1006.216, 6553.440
1006.698, 6479.127
1007.180, 6464.315
1007.662, 6420.238
1008.144, 6305.072
1008.626, 6191.737
1009.109, 6127.278
1009.591, 6062.840
1010.073, 5943.658
1010.555, 5816.528
1011.037, 5759.910
1011.519, 5766.627
1012.001, 5737.851
1012.483, 5613.835
1012.966, 5500.768
1013.448, 5447.679
1013.930, 5417.591
1014.412, 5390.497
1014.894, 5366.176
1015.376, 5349.412
1015.858, 5339.199
1016.340, 5324.293
1016.822, 5305.990
1017.305, 5273.910
1017.787, 5201.135
1018.269, 5136.313
1018.751, 5123.639
1019.233, 5138.028
1019.715, 5144.330
1020.197, 5136.070
1020.679, 5108.616
1021.161, 5011.166
1021.644, 4962.538
1022.126, 5063.403
1022.608, 5165.079
1023.090, 5152.777
1023.572, 5075.056
1024.054, 5014.454
1024.536, 4983.209
1025.018, 4969.889
1025.500, 4979.109
1025.983, 4995.628
1026.465, 5037.056
1026.947, 5062.220
1027.429, 5020.561
1027.911, 4951.882
1028.393, 4932.930
1028.875, 4976.101
1029.357, 5001.359
1029.840, 4988.635
1030.322, 4964.185
1030.804, 4889.762
1031.286, 4850.346
1031.768, 4952.726
1032.250, 5110.754
1032.732, 5149.513
1033.214, 5036.365
1033.697, 4973.102
1034.179, 5029.847
1034.661, 5067.963
1035.143, 5052.268
1035.625, 5017.781
1036.107, 4962.236
1036.589, 4912.011
1037.071, 4928.084
1037.553, 5031.078
1038.036, 5095.360
1038.518, 5092.741
1039.000, 5092.245
1039.482, 5120.557
1039.964, 5134.860
1040.446, 5088.748
1040.928, 5020.265
1041.410, 5008.903
1041.892, 5065.452
1042.375, 5114.232
1042.857, 5153.397
1043.339, 5188.998
1043.821, 5231.147
1044.303, 5253.656
1044.785, 5222.540
1045.267, 5175.258
1045.749, 5195.385
1046.232, 5296.133
1046.714, 5340.163
1047.196, 5300.939
1047.678, 5279.754
1048.160, 5295.879
1048.642, 5332.832
1049.124, 5383.702
1049.606, 5443.678
1050.089, 5503.046
1050.571, 5561.442
1051.053, 5632.804
1051.535, 5724.328
1052.017, 5787.489
1052.499, 5805.664
1052.981, 5829.463
1053.463, 5893.728
1053.945, 5971.804
1054.427, 6011.147
1054.910, 6015.731
1055.392, 6060.969
1055.874, 6148.539
1056.356, 6221.301
1056.838, 6269.998
1057.320, 6276.982
1057.802, 6227.961
1058.284, 6157.016
1058.767, 6113.180
1059.249, 6094.155
1059.731, 6102.068
1060.213, 6128.892
1060.695, 6098.178
1061.177, 6002.792
1061.659, 5929.559
1062.141, 5926.506
1062.624, 5927.438
1063.106, 5833.987
1063.588, 5685.807
1064.070, 5580.814
1064.552, 5513.170
1065.034, 5472.438
1065.516, 5452.029
1065.998, 5436.197
1066.480, 5417.646
1066.963, 5386.573
1067.445, 5316.595
1067.927, 5240.318
1068.409, 5213.091
1068.891, 5214.947
1069.373, 5199.986
1069.855, 5176.245
1070.337, 5196.039
1070.819, 5277.476
1071.302, 5359.378
1071.784, 5385.585
1072.266, 5398.537
1072.748, 5445.548
1073.230, 5497.094
1073.712, 5496.623
1074.194, 5472.785
1074.676, 5507.852
1075.159, 5622.298
1075.641, 5736.075
1076.123, 5813.886
1076.605, 5869.306
1077.087, 5898.227
1077.569, 5919.500
1078.051, 5947.295
1078.533, 5981.134
1079.016, 6019.442
1079.498, 6061.678
1079.980, 6098.139
1080.462, 6139.363
1080.944, 6155.371
1081.426, 6123.643
1081.908, 6079.315
1082.390, 6043.576
1082.872, 6008.581
1083.354, 5964.140
1083.837, 5909.391
1084.319, 5839.518
1084.801, 5737.846
1085.283, 5646.766
1085.765, 5577.388
1086.247, 5506.081
1086.729, 5409.756
1087.212, 5321.546
1087.694, 5293.168
1088.176, 5310.029
1088.658, 5253.365
1089.140, 5073.710
1089.622, 4982.976
1090.104, 5019.858
1090.586, 5053.782
1091.068, 5042.650
1091.551, 5001.765
1092.033, 4939.422
1092.515, 4867.791
1092.997, 4834.610
1093.479, 4788.743
1093.961, 4739.249
1094.443, 4731.165
1094.925, 4673.279
1095.407, 4653.753
1095.890, 4667.542
1096.372, 4715.575
1096.854, 4773.201
1097.336, 4791.361
1097.818, 4779.207
1098.300, 4768.511
1098.782, 4760.564
1099.264, 4765.685
1099.747, 4780.162
1100.229, 4758.809
1100.711, 4671.647
1101.193, 4589.663
1101.675, 4607.130
1102.157, 4671.258
1102.639, 4716.684
1103.121, 4742.104
1103.604, 4737.649
1104.086, 4713.415
1104.568, 4706.187
1105.050, 4730.551
1105.532, 4743.975
1106.014, 4692.615
1106.496, 4648.730
1106.978, 4671.674
1107.460, 4723.111
1107.943, 4777.427
1108.425, 4821.865
1108.907, 4829.138
1109.389, 4794.181
1109.871, 4793.037
1110.353, 4888.646
1110.835, 4964.804
1111.317, 4956.776
1111.799, 4953.038
1112.282, 5023.881
1112.764, 5122.862
1113.246, 5182.695
1113.728, 5201.643
1114.210, 5209.552
1114.692, 5214.045
1115.174, 5190.662
1115.656, 5115.931
1116.139, 5056.146
1116.621, 5037.479
1117.103, 5039.888
1117.585, 5046.111
1118.067, 5055.505
1118.549, 5068.938
1119.031, 5089.573
1119.513, 5082.411
1119.995, 5043.809
1120.478, 5001.736
1120.960, 4961.051
1121.442, 4956.262
1121.924, 5018.884
1122.406, 5099.586
1122.888, 5108.348
1123.370, 5059.209
1123.852, 4991.477
1124.334, 4915.558
1124.817, 4873.922
1125.299, 4871.722
1125.781, 4898.225
1126.263, 4948.935
1126.745, 4991.175
1127.227, 4980.340
1127.709, 4954.444
1128.191, 4962.313
1128.674, 4984.286
1129.156, 4975.366
1129.638, 4958.812
1130.120, 5013.314
1130.602, 5151.929
1131.084, 5260.014
1131.566, 5259.645
1132.048, 5243.346
1132.531, 5257.609
1133.013, 5266.891
1133.495, 5237.004
1133.977, 5192.209
1134.459, 5172.357
1134.941, 5175.211
1135.423, 5156.158
1135.905, 5087.918
1136.387, 5040.207
1136.870, 5039.989
1137.352, 5020.907
1137.834, 4950.486
1138.316, 4872.881
1138.798, 4823.303
1139.280, 4794.365
1139.762, 4767.903
1140.244, 4744.264
1140.726, 4719.688
1141.209, 4696.053
1141.691, 4653.818
1142.173, 4588.074
1142.655, 4513.099
1143.137, 4434.311
1143.619, 4374.992
1144.101, 4374.980
1144.583, 4412.831
1145.066, 4434.131
1145.548, 4439.585
1146.030, 4423.705
1146.512, 4394.022
1146.994, 4381.723
1147.476, 4395.425
1147.958, 4410.311
1148.440, 4408.909
1148.922, 4400.386
1149.405, 4396.074
1149.887, 4386.688
1150.369, 4350.916
1150.851, 4309.255
1151.333, 4300.528
1151.815, 4320.926
1152.297, 4325.290
1152.779, 4286.598
1153.261, 4275.511
1153.744, 4363.968
1154.226, 4416.198
1154.708, 4337.605
1155.190, 4241.083
1155.672, 4204.083
1156.154, 4222.400
1156.636, 4308.201
1157.118, 4477.737
1157.601, 4510.261
1158.083, 4345.217
1158.565, 4246.787
1159.047, 4259.963
1159.529, 4299.374
1160.011, 4332.102
1160.493, 4346.452
1160.975, 4323.968
1161.458, 4281.027
1161.940, 4272.411
1162.422, 4290.348
1162.904, 4294.320
1163.386, 4283.292
1163.868, 4262.885
1164.350, 4236.673
1164.832, 4215.713
1165.314, 4206.169
1165.797, 4208.561
1166.279, 4240.869
1166.761, 4268.934
1167.243, 4236.489
1167.725, 4186.894
1168.207, 4184.816
1168.689, 4221.134
1169.171, 4258.510
1169.653, 4289.344
1170.136, 4278.670
1170.618, 4164.088
1171.100, 4078.817
1171.582, 4073.501
1172.064, 4096.014
1172.546, 4132.956
1173.028, 4169.031
1173.510, 4189.669
1173.993, 4194.270
1174.475, 4175.971
1174.957, 4122.702
1175.439, 4091.214
1175.921, 4082.229
1176.403, 4099.151
1176.885, 4145.243
1177.367, 4203.903
1177.849, 4267.000
1178.332, 4317.344
1178.814, 4314.139
1179.296, 4278.452
1179.778, 4300.713
1180.260, 4348.083
1180.742, 4289.120
1181.224, 4146.605
1181.706, 4077.854
1182.188, 4132.528
1182.671, 4190.023
1183.153, 4162.144
1183.635, 4116.249
1184.117, 4095.430
1184.599, 4087.370
1185.081, 4076.406
1185.563, 4074.416
1186.045, 4110.366
1186.528, 4173.643
1187.010, 4206.968
1187.492, 4192.542
1187.974, 4174.236
1188.456, 4140.129
1188.938, 4129.601
1189.420, 4170.567
1189.902, 4199.072
1190.385, 4169.003
1190.867, 4120.179
1191.349, 4118.846
1191.831, 4087.360
1192.313, 4129.402
1192.795, 4052.945
1193.277, 4002.339
1193.759, 3985.631
1194.241, 4028.978
1194.724, 4133.343
1195.206, 4204.343
1195.688, 4167.225
1196.170, 4101.445
1196.652, 4099.764
1197.134, 4126.211
1197.616, 4143.419
1198.098, 4152.307
1198.580, 4159.753
1199.063, 4162.448
1199.545, 4143.875
1200.027, 4098.485
1200.509, 4073.139
1200.991, 4089.063
1201.473, 4116.938
1201.955, 4179.648
1202.437, 4214.648
1202.920, 4168.981
1203.402, 4108.160
1203.884, 4104.456
1204.366, 4083.815
1204.848, 4145.568
1205.330, 4111.180
1205.812, 4127.648
1206.294, 4199.004
1206.776, 4220.333
1207.259, 4171.492
1207.741, 4124.580
1208.223, 4117.916
1208.705, 4138.898
1209.187, 4184.500
1209.669, 4234.859
1210.151, 4271.380
1210.633, 4281.904
1211.115, 4221.204
1211.598, 4128.593
1212.080, 4092.663
1212.562, 4119.052
1213.044, 4135.194
1213.526, 4107.453
1214.008, 4091.557
1214.490, 4110.606
1214.972, 4137.630
1215.455, 4192.209
1215.937, 4216.985
1216.419, 4146.798
1216.901, 4045.893
1217.383, 4029.883
1217.865, 4090.824
1218.347, 4104.717
1218.829, 4066.718
1219.312, 4041.929
1219.794, 4035.383
1220.276, 4012.749
1220.758, 3964.831
1221.240, 3949.934
1221.722, 4016.571
1222.204, 4098.829
1222.686, 4111.618
1223.168, 4086.828
1223.651, 4055.631
1224.133, 4026.975
1224.615, 4014.385
1225.097, 4013.987
1225.579, 4013.455
1226.061, 4010.109
1226.543, 4009.164
1227.025, 3997.038
1227.507, 4011.235
1227.990, 4106.077
1228.472, 4161.696
1228.954, 4099.202
1229.436, 4037.996
1229.918, 4092.069
1230.400, 4038.497
1230.882, 4034.663
1231.364, 4051.876
1231.847, 4031.312
1232.329, 4106.470
1232.811, 4158.859
1233.293, 4171.271
1233.775, 4132.245
1234.257, 4043.650
1234.739, 3975.591
1235.221, 3988.749
1235.703, 4022.293
1236.186, 4016.301
1236.668, 4001.114
1237.150, 4015.953
1237.632, 4032.401
1238.114, 3991.071
1238.596, 4027.129
1239.078, 3933.035
1239.560, 4049.144
1240.042, 4114.053
1240.525, 4100.391
1241.007, 4070.317
1241.489, 4010.415
1241.971, 3986.649
1242.453, 4034.529
1242.935, 4084.104
1243.417, 4072.520
1243.899, 4026.948
1244.382, 3998.871
1244.864, 3985.639
1245.346, 3981.060
1245.828, 3982.854
1246.310, 3988.457
1246.792, 3994.156
1247.274, 3987.925
1247.756, 3967.573
1248.239, 3952.128
1248.721, 3954.519
1249.203, 3958.869
1249.685, 3954.343
1250.167, 3954.020
1250.649, 3966.349
1251.131, 3985.255
1251.613, 4010.882
1252.095, 4035.267
1252.578, 4042.503
1253.060, 4032.589
1253.542, 3997.151
1254.024, 3929.502
1254.506, 3948.236
1254.988, 4061.317
1255.470, 4128.498
1255.952, 4106.010
1256.434, 4052.833
1256.917, 4006.303
1257.399, 3974.654
1257.881, 3965.138
1258.363, 3977.844
1258.845, 4046.291
1259.327, 4109.697
1259.809, 4073.841
1260.291, 3983.316
1260.774, 3944.868
1261.256, 3970.763
1261.738, 3984.248
1262.220, 3959.964
1262.702, 3953.266
1263.184, 3957.739
1263.666, 4005.556
1264.148, 4123.392
1264.630, 4209.403
1265.113, 4194.545
1265.595, 4137.772
1266.077, 4122.066
1266.559, 4126.611
1267.041, 4093.808
1267.523, 4043.686
1268.005, 4020.188
1268.487, 4019.160
1268.969, 4028.635
1269.452, 4040.726
1269.934, 4034.812
1270.416, 3997.876
1270.898, 3973.210
1271.380, 3985.300
1271.862, 3998.503
1272.344, 4013.611
1272.826, 4010.612
1273.309, 3966.617
1273.791, 3920.631
1274.273, 3915.704
1274.755, 3941.456
1275.237, 3973.749
1275.719, 4008.959
1276.201, 4006.572
1276.683, 3974.595
1277.166, 3949.747
1277.648, 3940.112
1278.130, 3954.819
1278.612, 3994.617
1279.094, 4026.126
1279.576, 4030.328
1280.058, 4017.271
1280.540, 3972.613
1281.022, 3936.663
1281.505, 3944.339
1281.987, 3963.032
1282.469, 3967.169
##END=



