##NAMES=Brushite
##RRUFFID=R070554
##IDEAL CHEMISTRY=Ca(PO_3_OH)&#183;2H_2_O
##LOCALITY=Biogenic
##OWNER=RRUFF
##SOURCE=Henry J. Sun
##DESCRIPTION=Colorless platy crystals
##STATUS=The identification of this mineral has been confirmed by single-crystal X-ray diffraction.
##URL=rruff.info/R070554
135.1555, 14810.59
135.6376, 15027.64
136.1197, 15247.53
136.6018, 15458.17
137.0839, 15650.76
137.5661, 15826.17
138.0482, 15983.32
138.5303, 16103.48
139.0124, 16193.74
139.4945, 16350.85
139.9766, 16588.01
140.4588, 16868.14
140.9409, 17156.31
141.4230, 17465.77
141.9051, 17732.70
142.3872, 17924.60
142.8693, 18021.88
143.3515, 18109.73
143.8336, 18195.92
144.3157, 18271.11
144.7978, 18265.42
145.2799, 18053.81
145.7620, 17818.26
146.2442, 17562.92
146.7263, 17244.85
147.2084, 16980.70
147.6905, 16794.60
148.1726, 16692.39
148.6548, 16576.24
149.1369, 16419.55
149.6190, 16261.81
150.1011, 16148.74
150.5832, 16125.94
151.0653, 16098.65
151.5475, 16043.05
152.0296, 15952.17
152.5117, 15848.41
152.9938, 15716.93
153.4759, 15572.04
153.9580, 15449.57
154.4402, 15370.24
154.9223, 15300.47
155.4044, 15224.65
155.8865, 15129.65
156.3686, 15040.09
156.8507, 14967.98
157.3329, 14912.23
157.8150, 14837.91
158.2971, 14712.97
158.7792, 14577.93
159.2613, 14470.27
159.7434, 14389.78
160.2256, 14342.87
160.7077, 14345.66
161.1898, 14417.59
161.6719, 14467.32
162.1540, 14449.54
162.6361, 14392.29
163.1183, 14348.32
163.6004, 14340.99
164.0825, 14349.20
164.5646, 14361.28
165.0467, 14380.26
165.5288, 14395.04
166.0110, 14383.09
166.4931, 14354.31
166.9752, 14359.96
167.4573, 14458.21
167.9394, 14591.85
168.4215, 14702.57
168.9037, 14745.72
169.3858, 14774.23
169.8679, 14817.08
170.3500, 14874.98
170.8321, 14945.40
171.3142, 15031.31
171.7964, 15128.27
172.2785, 15228.30
172.7606, 15365.26
173.2427, 15485.59
173.7248, 15528.67
174.2069, 15465.48
174.6891, 15383.01
175.1712, 15379.97
175.6533, 15431.57
176.1354, 15443.06
176.6175, 15320.92
177.0996, 15126.37
177.5818, 14954.10
178.0639, 14831.93
178.5460, 14735.56
179.0281, 14639.52
179.5102, 14543.19
179.9923, 14449.23
180.4745, 14365.77
180.9566, 14287.60
181.4387, 14200.59
181.9208, 14094.71
182.4029, 13977.64
182.8850, 13858.25
183.3672, 13734.72
183.8493, 13623.95
184.3314, 13558.84
184.8135, 13531.29
185.2956, 13500.58
185.7777, 13436.37
186.2599, 13351.59
186.7420, 13283.45
187.2241, 13241.10
187.7062, 13210.12
188.1883, 13156.05
188.6705, 13079.41
189.1526, 13026.27
189.6347, 13070.59
190.1168, 13186.71
190.5989, 13221.70
191.0810, 13104.64
191.5632, 12901.30
192.0453, 12795.58
192.5274, 12795.60
193.0095, 12845.50
193.4916, 12904.47
193.9737, 12970.97
194.4559, 13018.14
194.9380, 13024.50
195.4201, 12997.55
195.9022, 12998.34
196.3843, 13029.95
196.8664, 13081.43
197.3486, 13145.89
197.8307, 13225.24
198.3128, 13285.65
198.7949, 13292.42
199.2770, 13245.00
199.7591, 13240.85
200.2413, 13291.90
200.7234, 13382.91
201.2055, 13480.91
201.6876, 13587.25
202.1697, 13693.37
202.6518, 13794.43
203.1340, 13888.80
203.6161, 13986.29
204.0982, 14090.18
204.5803, 14198.28
205.0624, 14301.94
205.5445, 14405.42
206.0267, 14494.63
206.5088, 14554.76
206.9909, 14582.33
207.4730, 14599.90
207.9551, 14621.43
208.4372, 14647.68
208.9194, 14620.01
209.4015, 14526.82
209.8836, 14396.27
210.3657, 14268.69
210.8478, 14147.43
211.3299, 14017.62
211.8121, 13868.84
212.2942, 13693.72
212.7763, 13538.37
213.2584, 13408.80
213.7405, 13295.31
214.2226, 13172.97
214.7048, 13037.13
215.1869, 12901.41
215.6690, 12770.18
216.1511, 12641.07
216.6332, 12526.58
217.1153, 12423.70
217.5975, 12334.71
218.0796, 12282.73
218.5617, 12285.16
219.0438, 12293.23
219.5259, 12268.79
220.0080, 12202.01
220.4902, 12124.59
220.9723, 12028.44
221.4544, 11913.88
221.9365, 11863.90
222.4186, 11906.79
222.9007, 11981.89
223.3829, 12023.77
223.8650, 12025.60
224.3471, 12010.38
224.8292, 11980.93
225.3113, 11935.28
225.7934, 11890.04
226.2756, 11841.34
226.7577, 11797.04
227.2398, 11772.15
227.7219, 11774.16
228.2040, 11782.04
228.6861, 11788.81
229.1683, 11793.60
229.6504, 11800.24
230.1325, 11816.01
230.6146, 11831.18
231.0967, 11818.00
231.5789, 11757.84
232.0610, 11696.14
232.5431, 11654.43
233.0252, 11632.39
233.5073, 11632.27
233.9894, 11664.09
234.4716, 11720.04
234.9537, 11760.53
235.4358, 11786.05
235.9179, 11795.99
236.4000, 11786.98
236.8821, 11744.44
237.3643, 11711.74
237.8464, 11695.57
238.3285, 11695.53
238.8106, 11699.13
239.2927, 11706.44
239.7748, 11717.07
240.2570, 11732.72
240.7391, 11764.26
241.2212, 11780.67
241.7033, 11768.97
242.1854, 11723.12
242.6675, 11702.72
243.1497, 11723.27
243.6318, 11757.32
244.1139, 11765.64
244.5960, 11722.77
245.0781, 11698.77
245.5602, 11723.84
246.0424, 11823.72
246.5245, 11874.80
247.0066, 11856.18
247.4887, 11800.32
247.9708, 11766.64
248.4529, 11766.53
248.9351, 11770.20
249.4172, 11764.88
249.8993, 11741.71
250.3814, 11732.59
250.8635, 11750.08
251.3456, 11778.85
251.8278, 11770.30
252.3099, 11694.29
252.7920, 11626.22
253.2741, 11615.44
253.7562, 11715.89
254.2383, 11743.83
254.7205, 11654.77
255.2026, 11481.63
255.6847, 11384.65
256.1668, 11398.06
256.6489, 11439.34
257.1310, 11451.48
257.6132, 11412.74
258.0953, 11397.78
258.5774, 11425.77
259.0595, 11490.61
259.5416, 11529.47
260.0237, 11535.90
260.5059, 11525.42
260.9880, 11508.34
261.4701, 11479.33
261.9522, 11459.08
262.4343, 11455.71
262.9164, 11468.91
263.3986, 11467.35
263.8807, 11439.59
264.3628, 11411.91
264.8449, 11414.25
265.3270, 11454.26
265.8091, 11503.82
266.2913, 11560.96
266.7734, 11625.82
267.2555, 11676.34
267.7376, 11714.02
268.2197, 11733.82
268.7018, 11722.35
269.1840, 11665.82
269.6661, 11618.41
270.1482, 11601.63
270.6303, 11620.00
271.1124, 11630.71
271.5945, 11629.73
272.0767, 11626.47
272.5588, 11638.11
273.0409, 11668.99
273.5230, 11701.37
274.0051, 11730.63
274.4872, 11758.02
274.9694, 11773.46
275.4515, 11773.70
275.9336, 11766.13
276.4157, 11766.03
276.8978, 11774.97
277.3799, 11784.31
277.8621, 11787.21
278.3442, 11781.95
278.8263, 11787.13
279.3084, 11806.86
279.7905, 11833.38
280.2726, 11848.15
280.7548, 11849.15
281.2369, 11847.51
281.7190, 11849.08
282.2011, 11853.78
282.6832, 11862.67
283.1653, 11880.66
283.6475, 11898.54
284.1296, 11887.79
284.6117, 11845.19
285.0938, 11799.82
285.5759, 11768.46
286.0580, 11751.45
286.5402, 11754.38
287.0223, 11786.58
287.5044, 11832.99
287.9865, 11853.06
288.4686, 11845.63
288.9507, 11828.07
289.4329, 11812.91
289.9150, 11799.80
290.3971, 11783.80
290.8792, 11761.60
291.3614, 11737.37
291.8435, 11721.67
292.3256, 11714.67
292.8077, 11709.66
293.2898, 11696.90
293.7719, 11679.33
294.2541, 11673.89
294.7362, 11694.32
295.2183, 11723.68
295.7004, 11722.27
296.1825, 11689.51
296.6646, 11651.17
297.1468, 11623.09
297.6289, 11607.15
298.1110, 11612.32
298.5931, 11659.80
299.0752, 11719.65
299.5573, 11723.37
300.0395, 11670.26
300.5216, 11632.48
301.0037, 11705.97
301.4858, 11847.82
301.9679, 11952.32
302.4500, 11963.41
302.9322, 11923.59
303.4143, 11883.79
303.8964, 11843.70
304.3785, 11813.13
304.8606, 11805.24
305.3427, 11812.45
305.8249, 11819.58
306.3070, 11805.65
306.7891, 11796.27
307.2712, 11825.94
307.7533, 11895.84
308.2354, 11970.85
308.7176, 12033.21
309.1997, 12081.45
309.6818, 12112.00
310.1639, 12113.08
310.6460, 12102.22
311.1281, 12089.47
311.6103, 12074.40
312.0924, 12068.92
312.5745, 12090.55
313.0566, 12124.92
313.5387, 12150.85
314.0208, 12159.05
314.5030, 12157.32
314.9851, 12145.48
315.4672, 12122.31
315.9493, 12109.44
316.4314, 12125.83
316.9135, 12157.26
317.3957, 12185.55
317.8778, 12206.14
318.3599, 12220.40
318.8420, 12227.52
319.3241, 12226.46
319.8062, 12224.04
320.2884, 12214.80
320.7705, 12206.88
321.2526, 12210.50
321.7347, 12247.03
322.2168, 12278.47
322.6989, 12292.54
323.1811, 12288.22
323.6632, 12263.66
324.1453, 12180.88
324.6274, 12088.98
325.1095, 12047.66
325.5916, 12133.30
326.0738, 12209.70
326.5559, 12235.45
327.0380, 12197.96
327.5201, 12156.87
328.0022, 12094.48
328.4843, 12038.95
328.9665, 12023.80
329.4486, 12110.94
329.9307, 12178.87
330.4128, 12194.99
330.8949, 12140.71
331.3770, 12109.58
331.8592, 12115.34
332.3413, 12136.89
332.8234, 12149.69
333.3055, 12159.45
333.7876, 12150.89
334.2697, 12107.94
334.7519, 12014.68
335.2340, 11979.47
335.7161, 12021.19
336.1982, 12104.08
336.6803, 12189.33
337.1624, 12290.66
337.6446, 12363.67
338.1267, 12387.98
338.6088, 12358.23
339.0909, 12352.40
339.5730, 12375.47
340.0551, 12414.89
340.5373, 12458.57
341.0194, 12508.81
341.5015, 12555.03
341.9836, 12598.37
342.4657, 12637.78
342.9478, 12650.39
343.4300, 12627.88
343.9121, 12601.27
344.3942, 12603.95
344.8763, 12636.35
345.3584, 12693.14
345.8405, 12789.58
346.3227, 12911.57
346.8048, 12981.12
347.2869, 12990.63
347.7690, 12992.53
348.2511, 13053.13
348.7332, 13163.02
349.2154, 13258.19
349.6975, 13307.57
350.1796, 13330.43
350.6617, 13370.68
351.1438, 13428.78
351.6259, 13502.36
352.1081, 13591.15
352.5902, 13694.72
353.0723, 13811.08
353.5544, 13963.32
354.0365, 14112.98
354.5186, 14205.33
355.0008, 14241.08
355.4829, 14254.81
355.9650, 14263.68
356.4471, 14270.70
356.9292, 14280.71
357.4113, 14299.51
357.8935, 14319.29
358.3756, 14333.56
358.8577, 14343.06
359.3398, 14351.68
359.8219, 14363.67
360.3040, 14375.69
360.7862, 14384.43
361.2683, 14389.32
361.7504, 14390.18
362.2325, 14381.51
362.7146, 14365.56
363.1967, 14358.65
363.6789, 14359.43
364.1610, 14375.21
364.6431, 14411.59
365.1252, 14507.41
365.6073, 14582.35
366.0894, 14602.61
366.5716, 14578.75
367.0537, 14563.07
367.5358, 14575.35
368.0179, 14591.75
368.5000, 14599.43
368.9821, 14563.99
369.4643, 14559.25
369.9464, 14615.98
370.4285, 14714.00
370.9106, 14773.67
371.3927, 14767.11
371.8748, 14749.41
372.3570, 14742.66
372.8391, 14736.30
373.3212, 14763.96
373.8033, 14852.58
374.2855, 14970.67
374.7676, 15029.39
375.2497, 14988.04
375.7318, 14957.69
376.2139, 14995.42
376.6960, 15129.62
377.1782, 15226.57
377.6603, 15279.71
378.1424, 15300.86
378.6245, 15303.75
379.1066, 15279.81
379.5887, 15272.37
380.0709, 15313.68
380.5530, 15403.91
381.0351, 15452.81
381.5172, 15454.43
381.9993, 15426.42
382.4814, 15389.05
382.9636, 15342.63
383.4457, 15223.28
383.9278, 15218.30
384.4099, 15183.06
384.8920, 15119.18
385.3741, 14940.90
385.8563, 14910.33
386.3384, 14820.57
386.8205, 14728.38
387.3026, 14718.62
387.7847, 14556.98
388.2668, 14545.90
388.7490, 14517.44
389.2311, 14494.67
389.7132, 14457.43
390.1953, 14372.21
390.6774, 14262.34
391.1595, 14162.77
391.6417, 14067.93
392.1238, 14001.94
392.6059, 13990.96
393.0880, 14030.67
393.5701, 14082.06
394.0522, 14143.05
394.5344, 14197.32
395.0165, 14229.70
395.4986, 14210.05
395.9807, 14194.57
396.4628, 14198.15
396.9449, 14219.93
397.4271, 14257.10
397.9092, 14313.66
398.3913, 14381.40
398.8734, 14456.14
399.3555, 14552.89
399.8376, 14635.60
400.3198, 14705.51
400.8019, 14759.44
401.2840, 14787.57
401.7661, 14765.77
402.2482, 14742.06
402.7303, 14732.38
403.2125, 14728.89
403.6946, 14760.33
404.1767, 14844.43
404.6588, 14955.91
405.1409, 15044.05
405.6230, 15105.09
406.1052, 15154.07
406.5873, 15195.34
407.0694, 15228.80
407.5515, 15257.15
408.0336, 15280.33
408.5157, 15298.77
408.9979, 15305.25
409.4800, 15297.39
409.9621, 15312.38
410.4442, 15382.02
410.9263, 15486.60
411.4084, 15529.83
411.8906, 15506.04
412.3727, 15461.82
412.8548, 15443.81
413.3369, 15445.59
413.8190, 15442.46
414.3011, 15424.96
414.7833, 15400.14
415.2654, 15386.30
415.7475, 15381.16
416.2296, 15357.58
416.7117, 15262.97
417.1938, 15146.40
417.6760, 15080.85
418.1581, 15113.06
418.6402, 15159.00
419.1223, 15157.72
419.6044, 15117.16
420.0865, 15064.42
420.5687, 15010.54
421.0508, 14950.87
421.5329, 14880.60
422.0150, 14789.65
422.4971, 14706.59
422.9792, 14653.47
423.4614, 14613.67
423.9435, 14552.70
424.4256, 14439.64
424.9077, 14324.68
425.3898, 14222.97
425.8719, 14135.85
426.3541, 14064.20
426.8362, 14008.45
427.3183, 13967.60
427.8004, 13941.91
428.2825, 13955.82
428.7646, 13948.03
429.2468, 13898.72
429.7289, 13805.63
430.2110, 13730.35
430.6931, 13680.09
431.1752, 13636.80
431.6573, 13578.92
432.1395, 13499.25
432.6216, 13445.18
433.1037, 13436.22
433.5858, 13454.73
434.0679, 13431.81
434.5500, 13361.92
435.0322, 13291.61
435.5143, 13265.30
435.9964, 13272.75
436.4785, 13255.36
436.9606, 13195.70
437.4427, 13127.31
437.9249, 13104.41
438.4070, 13119.74
438.8891, 13136.77
439.3712, 13138.98
439.8533, 13128.31
440.3354, 13104.73
440.8176, 13066.19
441.2997, 13025.73
441.7818, 12988.43
442.2639, 12956.84
442.7460, 12935.81
443.2281, 12942.98
443.7103, 12948.85
444.1924, 12932.23
444.6745, 12891.57
445.1566, 12856.80
445.6387, 12842.68
446.1208, 12837.41
446.6030, 12830.46
447.0851, 12806.93
447.5672, 12795.27
448.0493, 12809.76
448.5314, 12846.47
449.0135, 12866.70
449.4957, 12873.95
449.9778, 12861.46
450.4599, 12820.76
450.9420, 12716.04
451.4241, 12658.07
451.9063, 12667.87
452.3884, 12716.74
452.8705, 12739.39
453.3526, 12734.52
453.8347, 12708.56
454.3168, 12650.96
454.7990, 12558.38
455.2811, 12515.07
455.7632, 12527.60
456.2453, 12567.27
456.7274, 12604.82
457.2096, 12639.58
457.6917, 12660.51
458.1738, 12656.82
458.6559, 12639.67
459.1380, 12632.48
459.6201, 12635.28
460.1023, 12644.17
460.5844, 12655.35
461.0665, 12670.62
461.5486, 12694.62
462.0307, 12738.82
462.5128, 12777.41
462.9950, 12787.00
463.4771, 12772.80
463.9592, 12751.15
464.4413, 12700.72
464.9234, 12664.74
465.4055, 12681.94
465.8877, 12786.66
466.3698, 12865.29
466.8519, 12860.32
467.3340, 12813.65
467.8161, 12787.96
468.2982, 12807.63
468.7804, 12834.84
469.2625, 12865.50
469.7446, 12901.95
470.2267, 12920.94
470.7088, 12916.55
471.1909, 12900.96
471.6731, 12882.46
472.1552, 12857.08
472.6373, 12840.54
473.1194, 12835.85
473.6015, 12841.65
474.0836, 12852.44
474.5658, 12867.88
475.0479, 12889.45
475.5300, 12923.72
476.0121, 12968.30
476.4942, 12997.82
476.9763, 13008.27
477.4585, 13007.18
477.9406, 12998.69
478.4227, 12985.54
478.9048, 12981.50
479.3869, 13001.58
479.8690, 13030.92
480.3512, 13044.49
480.8333, 13041.13
481.3154, 13046.48
481.7975, 13087.17
482.2796, 13145.49
482.7617, 13198.97
483.2439, 13245.03
483.7260, 13280.85
484.2081, 13292.90
484.6902, 13289.00
485.1723, 13306.52
485.6544, 13395.76
486.1366, 13480.41
486.6187, 13515.75
487.1008, 13442.96
487.5829, 13414.59
488.0650, 13466.10
488.5471, 13554.18
489.0293, 13604.00
489.5114, 13588.43
489.9935, 13580.04
490.4756, 13604.37
490.9577, 13662.26
491.4398, 13698.78
491.9220, 13706.22
492.4041, 13710.56
492.8862, 13737.67
493.3683, 13788.17
493.8504, 13845.09
494.3326, 13907.99
494.8147, 13973.14
495.2968, 14036.50
495.7789, 14097.61
496.2610, 14155.92
496.7431, 14207.83
497.2253, 14257.22
497.7074, 14314.05
498.1895, 14381.83
498.6716, 14445.58
499.1537, 14483.60
499.6358, 14510.83
500.1180, 14554.62
500.6001, 14643.86
501.0822, 14737.17
501.5643, 14819.91
502.0464, 14890.78
502.5285, 14930.65
503.0107, 14904.40
503.4928, 14862.38
503.9749, 14839.90
504.4570, 14864.05
504.9391, 14879.42
505.4212, 14873.16
505.9034, 14857.11
506.3855, 14869.76
506.8676, 14941.31
507.3497, 14990.52
507.8318, 14972.23
508.3139, 14873.38
508.7961, 14831.71
509.2782, 14859.10
509.7603, 14917.75
510.2424, 14965.57
510.7245, 15002.55
511.2066, 15035.57
511.6888, 15064.55
512.1709, 15091.66
512.6530, 15127.56
513.1351, 15170.17
513.6172, 15199.23
514.0994, 15193.42
514.5815, 15166.19
515.0636, 15135.34
515.5457, 15101.62
516.0278, 15070.37
516.5099, 15033.85
516.9921, 15003.63
517.4742, 15000.75
517.9563, 15093.46
518.4384, 15162.15
518.9205, 15131.98
519.4026, 14992.18
519.8848, 14901.05
520.3669, 14932.06
520.8490, 14993.35
521.3311, 15017.53
521.8132, 14963.54
522.2953, 14941.24
522.7775, 14969.66
523.2596, 15031.14
523.7417, 15070.37
524.2238, 15076.86
524.7059, 15092.06
525.1880, 15153.04
525.6702, 15257.13
526.1523, 15280.24
526.6344, 15209.97
527.1165, 15107.67
527.5986, 15045.14
528.0807, 15011.71
528.5629, 14964.52
529.0450, 14879.77
529.5271, 14786.53
530.0092, 14732.00
530.4913, 14708.32
530.9734, 14675.29
531.4556, 14593.66
531.9377, 14502.03
532.4198, 14432.88
532.9019, 14394.34
533.3840, 14371.52
533.8661, 14359.20
534.3483, 14359.68
534.8304, 14375.89
535.3125, 14445.80
535.7946, 14491.43
536.2767, 14475.78
536.7589, 14403.87
537.2410, 14386.17
537.7231, 14460.13
538.2052, 14539.11
538.6873, 14564.42
539.1694, 14520.52
539.6516, 14494.11
540.1337, 14494.63
540.6158, 14507.57
541.0979, 14508.67
541.5800, 14498.04
542.0621, 14484.12
542.5443, 14475.38
543.0264, 14464.98
543.5085, 14434.93
543.9906, 14385.66
544.4727, 14329.06
544.9548, 14260.33
545.4370, 14195.18
545.9191, 14158.78
546.4012, 14174.57
546.8833, 14187.61
547.3654, 14155.93
547.8475, 14098.23
548.3297, 14055.60
548.8118, 14058.40
549.2939, 14061.41
549.7760, 14044.13
550.2581, 14000.61
550.7402, 13961.41
551.2224, 13916.04
551.7045, 13883.36
552.1866, 13885.94
552.6687, 13953.85
553.1508, 13971.20
553.6329, 13906.78
554.1151, 13798.64
554.5972, 13745.24
555.0793, 13751.79
555.5614, 13759.89
556.0435, 13736.44
556.5256, 13690.84
557.0078, 13662.34
557.4899, 13653.68
557.9720, 13636.79
558.4541, 13571.55
558.9362, 13482.43
559.4183, 13414.72
559.9005, 13393.21
560.3826, 13379.21
560.8647, 13339.10
561.3468, 13284.54
561.8289, 13249.55
562.3110, 13264.08
562.7932, 13286.38
563.2753, 13300.08
563.7574, 13304.89
564.2395, 13295.59
564.7216, 13256.08
565.2037, 13213.43
565.6859, 13190.40
566.1680, 13184.92
566.6501, 13204.54
567.1322, 13258.40
567.6143, 13333.01
568.0964, 13390.66
568.5786, 13430.15
569.0607, 13455.88
569.5428, 13457.29
570.0249, 13444.57
570.5070, 13460.44
570.9891, 13507.43
571.4713, 13561.10
571.9534, 13599.62
572.4355, 13628.08
572.9176, 13654.59
573.3997, 13680.81
573.8818, 13707.20
574.3640, 13733.26
574.8461, 13760.06
575.3282, 13790.99
575.8103, 13832.85
576.2924, 13874.69
576.7745, 13909.98
577.2567, 13933.81
577.7388, 13971.27
578.2209, 14030.39
578.7030, 14097.61
579.1851, 14163.90
579.6672, 14231.87
580.1494, 14288.78
580.6315, 14327.30
581.1136, 14358.75
581.5957, 14411.94
582.0778, 14487.56
582.5599, 14565.12
583.0421, 14634.30
583.5242, 14697.83
584.0063, 14764.43
584.4884, 14834.45
584.9705, 14903.63
585.4526, 14961.33
585.9348, 15019.64
586.4169, 15099.58
586.8990, 15230.98
587.3811, 15342.62
587.8632, 15397.86
588.3453, 15407.11
588.8275, 15392.81
589.3096, 15368.06
589.7917, 15313.20
590.2738, 15208.58
590.7559, 15050.90
591.2380, 14919.13
591.7202, 14825.02
592.2023, 14742.32
592.6844, 14650.12
593.1665, 14547.07
593.6486, 14455.80
594.1307, 14378.51
594.6129, 14314.06
595.0950, 14261.28
595.5771, 14220.05
596.0592, 14188.40
596.5413, 14169.07
597.0234, 14157.07
597.5056, 14143.75
597.9877, 14129.74
598.4698, 14122.47
598.9519, 14127.98
599.4340, 14141.00
599.9161, 14156.49
600.3983, 14172.15
600.8804, 14193.17
601.3625, 14235.20
601.8446, 14278.88
602.3267, 14297.14
602.8088, 14265.54
603.2910, 14240.48
603.7731, 14237.16
604.2552, 14248.97
604.7373, 14234.57
605.2194, 14185.26
605.7015, 14138.37
606.1837, 14118.33
606.6658, 14122.67
607.1479, 14124.08
607.6300, 14121.80
608.1121, 14117.84
608.5942, 14112.96
609.0764, 14108.28
609.5585, 14108.41
610.0406, 14128.07
610.5227, 14134.36
611.0048, 14080.67
611.4869, 13991.21
611.9691, 13930.33
612.4512, 13952.46
612.9333, 13985.37
613.4154, 14002.09
613.8975, 14001.47
614.3796, 13975.64
614.8618, 13894.30
615.3439, 13815.95
615.8260, 13786.41
616.3081, 13825.46
616.7902, 13847.01
617.2723, 13843.05
617.7545, 13821.53
618.2366, 13790.44
618.7187, 13750.26
619.2008, 13721.50
619.6829, 13716.67
620.1650, 13725.71
620.6472, 13734.78
621.1293, 13743.17
621.6114, 13744.95
622.0935, 13728.39
622.5756, 13708.07
623.0577, 13699.35
623.5399, 13708.94
624.0220, 13712.96
624.5041, 13702.26
624.9862, 13681.86
625.4683, 13657.09
625.9504, 13614.23
626.4326, 13586.77
626.9147, 13584.08
627.3968, 13598.42
627.8789, 13604.94
628.3610, 13603.81
628.8431, 13595.01
629.3253, 13575.94
629.8074, 13548.65
630.2895, 13523.78
630.7716, 13501.28
631.2537, 13485.06
631.7358, 13485.84
632.2180, 13493.86
632.7001, 13490.48
633.1822, 13467.38
633.6643, 13443.54
634.1464, 13415.70
634.6285, 13398.05
635.1107, 13414.40
635.5928, 13520.27
636.0749, 13611.22
636.5570, 13657.13
637.0391, 13659.80
637.5212, 13632.76
638.0034, 13537.25
638.4855, 13469.22
638.9676, 13490.48
639.4497, 13618.17
639.9318, 13676.11
640.4139, 13652.48
640.8961, 13601.67
641.3782, 13572.35
641.8603, 13564.71
642.3424, 13583.36
642.8245, 13642.16
643.3066, 13701.87
643.7888, 13725.05
644.2709, 13717.06
644.7530, 13691.22
645.2351, 13624.51
645.7172, 13567.75
646.1993, 13549.53
646.6815, 13570.27
647.1636, 13600.51
647.6457, 13669.10
648.1278, 13717.40
648.6099, 13707.93
649.0920, 13604.73
649.5742, 13576.46
650.0563, 13652.19
650.5384, 13752.82
651.0205, 13768.30
651.5026, 13704.03
651.9847, 13656.60
652.4669, 13647.03
652.9490, 13667.31
653.4311, 13725.93
653.9132, 13808.70
654.3953, 13867.50
654.8774, 13853.69
655.3596, 13824.18
655.8417, 13822.34
656.3238, 13848.82
656.8059, 13870.61
657.2880, 13863.23
657.7701, 13858.36
658.2523, 13880.98
658.7344, 13967.49
659.2165, 13993.79
659.6986, 13934.15
660.1807, 13845.83
660.6628, 13802.93
661.1450, 13810.15
661.6271, 13806.90
662.1093, 13773.59
662.5914, 13733.11
663.0735, 13735.23
663.5556, 13772.39
664.0377, 13807.29
664.5198, 13821.95
665.0020, 13824.11
665.4841, 13816.83
665.9662, 13800.95
666.4483, 13788.41
666.9304, 13777.73
667.4125, 13776.34
667.8947, 13790.06
668.3768, 13828.31
668.8589, 13862.39
669.3410, 13890.93
669.8231, 13915.84
670.3052, 13947.01
670.7874, 13992.51
671.2695, 13988.68
671.7516, 13906.14
672.2337, 13792.35
672.7158, 13749.16
673.1979, 13767.38
673.6801, 13793.40
674.1622, 13806.64
674.6443, 13809.75
675.1264, 13797.24
675.6085, 13772.68
676.0906, 13764.56
676.5728, 13827.66
677.0549, 13882.08
677.5370, 13866.56
678.0191, 13729.72
678.5012, 13652.96
678.9833, 13680.01
679.4655, 13736.21
679.9476, 13748.63
680.4297, 13704.16
680.9118, 13674.88
681.3939, 13670.32
681.8760, 13684.45
682.3582, 13719.18
682.8403, 13768.33
683.3224, 13795.02
683.8045, 13772.29
684.2866, 13727.21
684.7687, 13677.72
685.2509, 13629.04
685.7330, 13608.66
686.2151, 13658.98
686.6972, 13718.27
687.1793, 13748.28
687.6614, 13738.61
688.1436, 13735.55
688.6257, 13753.23
689.1078, 13766.56
689.5899, 13750.57
690.0720, 13689.36
690.5541, 13669.89
691.0363, 13707.85
691.5184, 13765.73
692.0005, 13790.74
692.4826, 13786.56
692.9647, 13771.04
693.4468, 13745.72
693.9290, 13717.30
694.4111, 13678.20
694.8932, 13640.19
695.3753, 13636.09
695.8574, 13721.27
696.3395, 13807.79
696.8217, 13854.69
697.3038, 13858.67
697.7859, 13846.79
698.2680, 13804.87
698.7501, 13766.73
699.2322, 13751.02
699.7144, 13760.71
700.1965, 13776.24
700.6786, 13800.22
701.1607, 13821.57
701.6428, 13835.42
702.1249, 13837.62
702.6071, 13804.22
703.0892, 13711.65
703.5713, 13632.17
704.0534, 13653.95
704.5355, 13734.17
705.0176, 13795.58
705.4998, 13793.69
705.9819, 13784.93
706.4640, 13792.10
706.9461, 13809.74
707.4282, 13807.34
707.9103, 13766.77
708.3925, 13735.40
708.8746, 13731.78
709.3567, 13754.67
709.8388, 13782.40
710.3209, 13816.00
710.8030, 13846.92
711.2852, 13863.36
711.7673, 13872.53
712.2494, 13893.08
712.7315, 13928.98
713.2136, 13960.36
713.6957, 13974.11
714.1779, 13974.85
714.6600, 13966.49
715.1421, 13921.55
715.6242, 13905.45
716.1063, 13960.48
716.5884, 14041.20
717.0706, 14076.00
717.5527, 14050.23
718.0348, 14014.30
718.5169, 13972.59
718.9990, 13932.77
719.4811, 13922.20
719.9633, 13939.91
720.4454, 13963.25
720.9275, 13985.75
721.4096, 14004.51
721.8917, 14016.35
722.3738, 14021.52
722.8560, 14019.96
723.3381, 14013.24
723.8202, 13999.23
724.3023, 13967.60
724.7844, 13898.06
725.2665, 13885.16
725.7487, 13970.59
726.2308, 14073.54
726.7129, 14126.27
727.1950, 14118.65
727.6771, 14117.66
728.1592, 14129.48
728.6414, 14147.33
729.1235, 14166.72
729.6056, 14184.38
730.0877, 14187.54
730.5698, 14156.87
731.0519, 14131.46
731.5341, 14154.15
732.0162, 14207.94
732.4983, 14251.12
732.9804, 14262.91
733.4625, 14269.22
733.9446, 14278.52
734.4268, 14290.04
734.9089, 14294.36
735.3910, 14281.39
735.8731, 14284.24
736.3552, 14338.06
736.8373, 14431.21
737.3195, 14441.56
737.8016, 14365.71
738.2837, 14284.51
738.7658, 14266.55
739.2479, 14285.51
739.7300, 14305.52
740.2122, 14322.11
740.6943, 14335.74
741.1764, 14337.21
741.6585, 14340.55
742.1406, 14359.59
742.6227, 14426.11
743.1049, 14463.73
743.5870, 14457.61
744.0691, 14432.58
744.5512, 14426.29
745.0333, 14440.02
745.5154, 14456.63
745.9976, 14473.70
746.4797, 14488.12
746.9618, 14492.89
747.4439, 14489.82
747.9260, 14485.95
748.4081, 14483.31
748.8903, 14482.47
749.3724, 14487.98
749.8545, 14497.72
750.3366, 14498.03
750.8187, 14473.54
751.3008, 14451.62
751.7830, 14442.43
752.2651, 14446.44
752.7472, 14453.55
753.2293, 14463.85
753.7114, 14478.04
754.1935, 14506.68
754.6757, 14541.63
755.1578, 14537.75
755.6399, 14488.86
756.1220, 14448.74
756.6041, 14473.00
757.0862, 14526.36
757.5684, 14569.11
758.0505, 14590.53
758.5326, 14604.66
759.0147, 14612.23
759.4968, 14615.27
759.9789, 14614.23
760.4611, 14599.29
760.9432, 14606.79
761.4253, 14651.31
761.9074, 14706.07
762.3895, 14712.35
762.8716, 14675.72
763.3538, 14653.49
763.8359, 14671.38
764.3180, 14707.35
764.8001, 14744.19
765.2822, 14778.93
765.7643, 14801.97
766.2465, 14801.45
766.7286, 14796.47
767.2107, 14796.88
767.6928, 14802.17
768.1749, 14796.54
768.6570, 14765.60
769.1392, 14752.50
769.6213, 14792.92
770.1034, 14878.11
770.5855, 14881.25
771.0676, 14798.33
771.5497, 14726.13
772.0319, 14760.89
772.5140, 14844.83
772.9961, 14893.09
773.4782, 14893.63
773.9603, 14891.60
774.4424, 14910.42
774.9246, 14935.35
775.4067, 14954.07
775.8888, 14958.37
776.3709, 14970.76
776.8530, 14990.42
777.3351, 15019.29
777.8173, 15070.16
778.2994, 15143.40
778.7815, 15179.03
779.2636, 15162.10
779.7457, 15122.57
780.2278, 15071.94
780.7100, 15030.31
781.1921, 15039.89
781.6742, 15166.33
782.1563, 15284.43
782.6384, 15327.87
783.1205, 15322.10
783.6027, 15326.41
784.0848, 15361.83
784.5669, 15379.70
785.0490, 15367.12
785.5311, 15332.01
786.0132, 15296.86
786.4954, 15262.00
786.9775, 15230.95
787.4596, 15201.97
787.9417, 15180.10
788.4238, 15172.15
788.9059, 15178.47
789.3881, 15200.08
789.8702, 15269.77
790.3523, 15327.53
790.8344, 15323.17
791.3165, 15248.74
791.7986, 15234.63
792.2808, 15321.53
792.7629, 15408.33
793.2450, 15435.63
793.7271, 15404.01
794.2092, 15401.62
794.6913, 15429.15
795.1735, 15470.43
795.6556, 15523.34
796.1377, 15575.83
796.6198, 15606.12
797.1019, 15608.93
797.5840, 15607.97
798.0662, 15612.38
798.5483, 15619.55
799.0304, 15627.50
799.5125, 15635.43
799.9946, 15645.24
800.4767, 15652.75
800.9589, 15669.76
801.4410, 15721.72
801.9231, 15805.21
802.4052, 15854.51
802.8873, 15854.34
803.3694, 15838.60
803.8516, 15823.60
804.3337, 15824.33
804.8158, 15868.26
805.2979, 16002.41
805.7800, 16126.50
806.2621, 16191.04
806.7443, 16227.94
807.2264, 16298.52
807.7085, 16425.87
808.1906, 16529.61
808.6727, 16587.44
809.1548, 16622.38
809.6370, 16686.93
810.1191, 16777.02
810.6012, 16863.65
811.0833, 16935.95
811.5654, 16998.62
812.0475, 17052.56
812.5297, 17100.95
813.0118, 17151.52
813.4939, 17235.71
813.9760, 17292.61
814.4581, 17299.29
814.9402, 17262.69
815.4224, 17204.20
815.9045, 17112.99
816.3866, 17040.19
816.8687, 17028.36
817.3508, 17043.73
817.8329, 16970.58
818.3151, 16820.60
818.7972, 16675.52
819.2793, 16578.54
819.7614, 16512.29
820.2435, 16474.83
820.7256, 16464.56
821.2078, 16437.51
821.6899, 16359.30
822.1720, 16289.00
822.6541, 16257.21
823.1362, 16264.89
823.6183, 16218.47
824.1005, 16106.36
824.5826, 16011.55
825.0647, 16019.08
825.5469, 16081.19
826.0290, 16099.23
826.5111, 16067.53
826.9932, 16029.53
827.4753, 16000.14
827.9575, 15983.20
828.4396, 15986.57
828.9217, 16022.94
829.4038, 16037.91
829.8859, 16024.50
830.3680, 16000.18
830.8502, 15971.69
831.3323, 15939.94
831.8144, 15935.35
832.2965, 15962.82
832.7786, 15988.44
833.2607, 15964.31
833.7429, 15924.99
834.2250, 15926.12
834.7071, 15996.28
835.1892, 16038.23
835.6713, 15981.60
836.1534, 15903.71
836.6356, 15875.25
837.1177, 15918.54
837.5998, 15947.86
838.0819, 15959.48
838.5640, 15959.68
839.0461, 15943.65
839.5283, 15920.89
840.0104, 15930.47
840.4925, 15984.14
840.9746, 16053.85
841.4567, 16140.57
841.9388, 16220.38
842.4210, 16265.13
842.9031, 16225.61
843.3852, 16211.77
843.8673, 16238.39
844.3494, 16285.99
844.8315, 16331.19
845.3137, 16373.66
845.7958, 16414.79
846.2779, 16449.11
846.7600, 16499.55
847.2421, 16606.43
847.7242, 16749.49
848.2064, 16889.99
848.6885, 17022.42
849.1706, 17139.08
849.6527, 17214.36
850.1348, 17278.88
850.6169, 17383.53
851.0991, 17545.73
851.5812, 17708.30
852.0633, 17867.82
852.5454, 18015.70
853.0275, 18124.92
853.5096, 18203.89
853.9918, 18297.27
854.4739, 18420.51
854.9560, 18560.21
855.4381, 18738.69
855.9202, 18921.12
856.4023, 19047.68
856.8845, 19041.50
857.3666, 19053.03
857.8487, 19110.87
858.3308, 19194.33
858.8129, 19264.70
859.2950, 19322.05
859.7772, 19377.33
860.2593, 19439.69
860.7414, 19491.50
861.2235, 19501.80
861.7056, 19480.76
862.1877, 19451.13
862.6699, 19432.46
863.1520, 19396.22
863.6341, 19315.04
864.1162, 19211.18
864.5983, 19136.62
865.0804, 19096.20
865.5626, 19072.82
866.0447, 19066.57
866.5268, 19070.78
867.0089, 19079.49
867.4910, 19088.28
867.9731, 19075.86
868.4553, 19011.70
868.9374, 18950.80
869.4195, 18927.07
869.9016, 18937.87
870.3837, 18977.87
870.8658, 19082.56
871.3480, 19167.67
871.8301, 19207.07
872.3122, 19228.66
872.7943, 19299.50
873.2764, 19419.32
873.7585, 19551.09
874.2407, 19687.88
874.7228, 19823.50
875.2049, 19959.78
875.6870, 20088.32
876.1691, 20190.58
876.6512, 20223.39
877.1334, 20273.54
877.6155, 20387.42
878.0976, 20529.86
878.5797, 20632.82
879.0618, 20686.74
879.5439, 20751.31
880.0261, 20850.78
880.5082, 20951.28
880.9903, 20988.96
881.4724, 20977.86
881.9545, 20956.94
882.4366, 20937.19
882.9188, 20916.69
883.4009, 20892.96
883.8830, 20867.51
884.3651, 20847.97
884.8472, 20869.82
885.3293, 20816.04
885.8115, 20642.46
886.2936, 20417.78
886.7757, 20287.11
887.2578, 20230.64
887.7399, 20141.41
888.2220, 19982.48
888.7042, 19781.93
889.1863, 19529.91
889.6684, 19257.46
890.1505, 19015.89
890.6326, 18847.72
891.1147, 18672.22
891.5969, 18480.37
892.0790, 18277.64
892.5611, 18062.02
893.0432, 17837.72
893.5253, 17646.96
894.0074, 17504.01
894.4896, 17385.73
894.9717, 17272.47
895.4538, 17161.14
895.9359, 17047.41
896.4180, 16920.39
896.9001, 16804.62
897.3823, 16705.79
897.8644, 16621.21
898.3465, 16553.16
898.8286, 16504.29
899.3107, 16451.51
899.7928, 16391.76
900.2750, 16325.23
900.7571, 16237.61
901.2392, 16146.42
901.7213, 16085.83
902.2034, 16074.18
902.6855, 16072.20
903.1677, 16083.48
903.6498, 16084.45
904.1319, 16043.29
904.6140, 15927.55
905.0961, 15876.52
905.5782, 15910.77
906.0604, 15973.51
906.5425, 16018.87
907.0246, 16039.41
907.5067, 16002.17
907.9888, 15888.07
908.4709, 15791.93
908.9531, 15783.60
909.4352, 15813.37
909.9173, 15838.30
910.3994, 15852.95
910.8815, 15867.49
911.3636, 15885.61
911.8458, 15895.17
912.3279, 15875.06
912.8100, 15835.24
913.2921, 15826.26
913.7742, 15853.47
914.2563, 15872.37
914.7385, 15839.87
915.2206, 15791.73
915.7027, 15759.84
916.1848, 15755.63
916.6669, 15726.45
917.1490, 15642.93
917.6312, 15580.87
918.1133, 15606.49
918.5954, 15707.29
919.0775, 15752.08
919.5596, 15741.12
920.0417, 15715.54
920.5239, 15702.26
921.0060, 15690.14
921.4881, 15662.43
921.9702, 15618.47
922.4523, 15601.88
922.9344, 15643.38
923.4166, 15676.11
923.8987, 15665.95
924.3808, 15622.89
924.8629, 15615.48
925.3450, 15642.31
925.8271, 15673.55
926.3093, 15695.95
926.7914, 15710.35
927.2735, 15718.40
927.7556, 15719.72
928.2377, 15712.66
928.7198, 15658.64
929.2020, 15646.61
929.6841, 15725.53
930.1662, 15852.41
930.6483, 15866.76
931.1304, 15771.88
931.6125, 15685.13
932.0947, 15650.11
932.5768, 15648.53
933.0589, 15682.26
933.5410, 15731.83
934.0231, 15752.96
934.5052, 15691.20
934.9874, 15652.39
935.4695, 15659.75
935.9516, 15694.93
936.4337, 15729.37
936.9158, 15762.88
937.3979, 15782.14
937.8801, 15778.79
938.3622, 15773.63
938.8443, 15799.16
939.3264, 15836.00
939.8085, 15854.74
940.2906, 15837.49
940.7728, 15815.62
941.2549, 15773.79
941.7370, 15746.91
942.2191, 15780.48
942.7012, 15878.82
943.1833, 15950.26
943.6655, 15984.40
944.1476, 16007.21
944.6297, 16057.32
945.1118, 16105.95
945.5939, 16107.10
946.0760, 16039.63
946.5582, 15992.99
947.0403, 15987.19
947.5224, 16010.89
948.0045, 16070.82
948.4866, 16169.73
948.9688, 16217.29
949.4509, 16209.92
949.9330, 16195.44
950.4151, 16207.90
950.8972, 16234.57
951.3793, 16260.76
951.8615, 16286.01
952.3436, 16318.13
952.8257, 16370.35
953.3078, 16417.67
953.7899, 16447.87
954.2720, 16465.97
954.7542, 16506.91
955.2363, 16570.50
955.7184, 16626.54
956.2005, 16653.46
956.6826, 16669.56
957.1647, 16688.81
957.6469, 16713.58
958.1290, 16750.63
958.6111, 16806.86
959.0932, 16871.03
959.5753, 16950.63
960.0574, 17029.74
960.5396, 17065.68
961.0217, 17061.19
961.5038, 17076.97
961.9859, 17139.65
962.4680, 17203.13
962.9501, 17201.22
963.4323, 17176.33
963.9144, 17188.59
964.3965, 17280.01
964.8786, 17369.27
965.3607, 17452.57
965.8428, 17531.83
966.3250, 17607.48
966.8071, 17680.57
967.2892, 17763.60
967.7713, 17858.71
968.2534, 17949.18
968.7355, 18011.78
969.2177, 18069.76
969.6998, 18143.16
970.1819, 18236.05
970.6640, 18343.49
971.1461, 18476.67
971.6282, 18604.94
972.1104, 18692.14
972.5925, 18757.02
973.0746, 18922.27
973.5567, 19180.10
974.0388, 19433.08
974.5209, 19597.90
975.0031, 19759.67
975.4852, 19974.18
975.9673, 20240.35
976.4494, 20517.95
976.9315, 20800.55
977.4136, 21106.39
977.8958, 21438.60
978.3779, 21796.97
978.8600, 22187.29
979.3421, 22606.10
979.8242, 23058.94
980.3063, 23544.40
980.7885, 24067.51
981.2706, 24656.13
981.7527, 25270.49
982.2348, 25840.66
982.7169, 26317.88
983.1990, 26908.40
983.6812, 27653.81
984.1633, 28441.79
984.6454, 29151.27
985.1275, 29800.19
985.6096, 30418.42
986.0917, 31009.02
986.5739, 31598.15
987.0560, 32233.05
987.5381, 32846.63
988.0202, 33402.98
988.5023, 33901.84
988.9844, 34345.77
989.4666, 34738.25
989.9487, 35044.68
990.4308, 35248.54
990.9130, 35343.28
991.3951, 35324.39
991.8772, 35187.72
992.3593, 34915.52
992.8414, 34456.69
993.3235, 33900.16
993.8057, 33268.08
994.2878, 32572.98
994.7699, 31828.70
995.2520, 31036.90
995.7341, 30242.30
996.2162, 29463.38
996.6984, 28700.19
997.1805, 27923.28
997.6626, 27169.14
998.1447, 26515.77
998.6268, 26050.08
999.1089, 25571.19
999.5911, 25053.08
1000.073, 24547.13
1000.555, 24103.65
1001.037, 23715.47
1001.520, 23346.84
1002.002, 22992.08
1002.484, 22680.49
1002.966, 22446.77
1003.448, 22250.04
1003.930, 22058.95
1004.412, 21866.43
1004.894, 21711.16
1005.376, 21603.67
1005.859, 21498.86
1006.341, 21371.30
1006.823, 21228.76
1007.305, 21083.61
1007.787, 20937.73
1008.269, 20796.45
1008.751, 20663.68
1009.233, 20533.54
1009.716, 20403.75
1010.198, 20272.90
1010.680, 20134.55
1011.162, 19984.37
1011.644, 19850.52
1012.126, 19739.94
1012.608, 19642.05
1013.090, 19561.97
1013.572, 19479.10
1014.055, 19353.55
1014.537, 19144.38
1015.019, 18982.74
1015.501, 18916.62
1015.983, 18872.99
1016.465, 18803.51
1016.947, 18709.83
1017.429, 18603.52
1017.911, 18485.64
1018.394, 18395.52
1018.876, 18393.25
1019.358, 18403.59
1019.840, 18357.01
1020.322, 18258.87
1020.804, 18190.42
1021.286, 18161.62
1021.768, 18149.39
1022.251, 18153.90
1022.733, 18162.50
1023.215, 18146.17
1023.697, 18110.53
1024.179, 18072.29
1024.661, 18025.83
1025.143, 17996.16
1025.625, 18015.05
1026.107, 18044.18
1026.590, 18039.71
1027.072, 17996.16
1027.554, 17934.91
1028.036, 17849.86
1028.518, 17795.16
1029.000, 17852.53
1029.482, 17954.46
1029.964, 18012.20
1030.447, 18016.32
1030.929, 18024.51
1031.411, 18056.40
1031.893, 18088.09
1032.375, 18112.82
1032.857, 18130.61
1033.339, 18138.93
1033.821, 18138.69
1034.303, 18136.76
1034.786, 18138.62
1035.268, 18136.90
1035.750, 18118.56
1036.232, 18095.11
1036.714, 18089.11
1037.196, 18108.44
1037.678, 18122.22
1038.160, 18123.82
1038.642, 18130.37
1039.125, 18178.85
1039.607, 18242.03
1040.089, 18258.21
1040.571, 18215.23
1041.053, 18182.24
1041.535, 18200.41
1042.017, 18222.85
1042.499, 18221.30
1042.982, 18200.99
1043.464, 18221.12
1043.946, 18280.94
1044.428, 18323.99
1044.910, 18304.73
1045.392, 18270.54
1045.874, 18239.73
1046.356, 18229.51
1046.839, 18285.86
1047.321, 18478.38
1047.803, 18608.61
1048.285, 18637.71
1048.767, 18635.15
1049.249, 18690.46
1049.731, 18790.42
1050.213, 18902.77
1050.695, 19025.74
1051.177, 19135.04
1051.660, 19209.06
1052.142, 19275.00
1052.624, 19353.09
1053.106, 19443.11
1053.588, 19508.30
1054.070, 19546.10
1054.552, 19611.63
1055.034, 19770.08
1055.517, 19944.30
1055.999, 20025.47
1056.481, 20054.82
1056.963, 20138.03
1057.445, 20375.82
1057.927, 20546.29
1058.409, 20610.52
1058.891, 20629.49
1059.374, 20693.60
1059.856, 20784.71
1060.338, 20841.55
1060.820, 20851.97
1061.302, 20845.84
1061.784, 20855.37
1062.266, 20839.42
1062.748, 20763.01
1063.230, 20628.65
1063.713, 20526.03
1064.195, 20458.87
1064.677, 20377.97
1065.159, 20251.17
1065.641, 20103.81
1066.123, 19943.02
1066.605, 19787.18
1067.087, 19676.76
1067.569, 19695.62
1068.052, 19639.94
1068.534, 19461.78
1069.016, 19257.46
1069.498, 19144.07
1069.980, 19105.63
1070.462, 19094.99
1070.944, 19107.28
1071.426, 19125.12
1071.909, 19135.43
1072.391, 19152.43
1072.873, 19186.53
1073.355, 19236.37
1073.837, 19283.46
1074.319, 19327.08
1074.801, 19390.68
1075.283, 19494.13
1075.766, 19612.88
1076.248, 19720.13
1076.730, 19822.41
1077.212, 19928.51
1077.694, 20044.71
1078.176, 20157.99
1078.658, 20269.42
1079.140, 20374.53
1079.622, 20450.88
1080.105, 20520.07
1080.587, 20673.70
1081.069, 20915.84
1081.551, 21068.84
1082.033, 20957.21
1082.515, 20825.25
1082.997, 20791.35
1083.479, 20828.82
1083.962, 20822.67
1084.444, 20773.98
1084.926, 20684.88
1085.408, 20548.76
1085.890, 20387.92
1086.372, 20210.08
1086.854, 20024.14
1087.336, 19844.48
1087.818, 19659.83
1088.301, 19501.99
1088.783, 19371.83
1089.265, 19262.71
1089.747, 19186.33
1090.229, 19118.76
1090.711, 19006.06
1091.193, 18853.29
1091.675, 18718.13
1092.157, 18624.81
1092.640, 18551.48
1093.122, 18496.94
1093.604, 18454.21
1094.086, 18405.44
1094.568, 18352.78
1095.050, 18308.91
1095.532, 18274.96
1096.014, 18257.14
1096.497, 18282.77
1096.979, 18310.39
1097.461, 18297.19
1097.943, 18234.98
1098.425, 18198.08
1098.907, 18187.93
1099.389, 18187.42
1099.871, 18185.04
1100.354, 18186.49
1100.836, 18198.71
1101.318, 18220.63
1101.800, 18250.06
1102.282, 18320.22
1102.764, 18330.21
1103.246, 18240.10
1103.728, 18142.92
1104.210, 18193.69
1104.693, 18332.10
1105.175, 18400.65
1105.657, 18372.88
1106.139, 18339.58
1106.621, 18318.46
1107.103, 18329.03
1107.585, 18394.86
1108.067, 18498.37
1108.549, 18530.61
1109.032, 18499.22
1109.514, 18498.66
1109.996, 18588.05
1110.478, 18690.16
1110.960, 18736.15
1111.442, 18831.26
1111.924, 18912.48
1112.406, 18972.75
1112.889, 19067.32
1113.371, 19109.64
1113.853, 19150.35
1114.335, 19245.45
1114.817, 19354.99
1115.299, 19418.96
1115.781, 19442.48
1116.263, 19483.24
1116.745, 19583.62
1117.228, 19645.97
1117.710, 19644.07
1118.192, 19604.56
1118.674, 19563.28
1119.156, 19524.65
1119.638, 19504.21
1120.120, 19512.32
1120.602, 19508.66
1121.084, 19465.14
1121.567, 19416.33
1122.049, 19387.13
1122.531, 19372.47
1123.013, 19317.61
1123.495, 19225.58
1123.977, 19131.18
1124.459, 19056.67
1124.941, 18980.35
1125.424, 18862.89
1125.906, 18746.94
1126.388, 18709.01
1126.870, 18772.33
1127.352, 18803.41
1127.834, 18790.41
1128.316, 18762.64
1128.798, 18744.36
1129.281, 18727.30
1129.763, 18692.68
1130.245, 18643.23
1130.727, 18633.40
1131.209, 18680.76
1131.691, 18732.89
1132.173, 18781.25
1132.655, 18817.99
1133.137, 18818.28
1133.620, 18800.25
1134.102, 18802.56
1134.584, 18844.37
1135.066, 18873.65
1135.548, 18868.87
1136.030, 18863.48
1136.512, 18883.42
1136.994, 18919.16
1137.476, 18918.71
1137.959, 18887.08
1138.441, 18850.65
1138.923, 18830.62
1139.405, 18800.23
1139.887, 18732.24
1140.369, 18657.08
1140.851, 18622.77
1141.333, 18630.45
1141.816, 18587.86
1142.298, 18485.60
1142.780, 18382.27
1143.262, 18323.63
1143.744, 18281.32
1144.226, 18233.14
1144.708, 18180.91
1145.190, 18139.83
1145.672, 18110.74
1146.155, 18090.70
1146.637, 18081.73
1147.119, 18074.21
1147.601, 18053.99
1148.083, 18029.04
1148.565, 18008.90
1149.047, 17995.44
1149.529, 17986.25
1150.011, 17980.33
1150.494, 17980.09
1150.976, 17984.71
1151.458, 17997.27
1151.940, 18040.14
1152.422, 18096.42
1152.904, 18120.51
1153.386, 18045.88
1153.868, 18015.09
1154.351, 18061.81
1154.833, 18126.04
1155.315, 18147.91
1155.797, 18134.29
1156.279, 18093.14
1156.761, 18029.38
1157.243, 17993.11
1157.725, 18035.57
1158.208, 18079.00
1158.690, 18093.25
1159.172, 18091.01
1159.654, 18108.05
1160.136, 18138.42
1160.618, 18134.82
1161.100, 18078.61
1161.582, 18035.29
1162.064, 18072.60
1162.547, 18117.39
1163.029, 18113.98
1163.511, 18066.09
1163.993, 18034.56
1164.475, 18019.08
1164.957, 17996.70
1165.439, 17948.06
1165.921, 17903.55
1166.403, 17887.23
1166.886, 17891.29
1167.368, 17907.06
1167.850, 17941.25
1168.332, 17962.29
1168.814, 17971.88
1169.296, 17954.32
1169.778, 17858.39
1170.260, 17760.03
1170.743, 17760.11
1171.225, 17719.14
1171.707, 17701.26
1172.189, 17752.99
1172.671, 17728.15
1173.153, 17807.06
1173.635, 17895.79
1174.117, 17867.19
1174.599, 17789.34
1175.082, 17766.39
1175.564, 17809.26
1176.046, 17822.27
1176.528, 17766.16
1177.010, 17742.90
1177.492, 17795.82
1177.974, 17877.49
1178.456, 17904.58
1178.938, 17894.35
1179.421, 17885.79
1179.903, 17900.37
1180.385, 17870.65
1180.867, 17747.29
1181.349, 17641.95
1181.831, 17620.00
1182.313, 17661.05
1182.795, 17715.43
1183.278, 17772.98
1183.760, 17797.82
1184.242, 17732.27
1184.724, 17689.86
1185.206, 17703.90
1185.688, 17737.50
1186.170, 17767.06
1186.652, 17787.95
1187.135, 17758.03
1187.617, 17683.85
1188.099, 17636.87
1188.581, 17695.36
1189.063, 17742.37
1189.545, 17714.69
1190.027, 17759.20
1190.509, 17681.97
1190.991, 17762.04
1191.474, 17788.32
1191.956, 17742.44
1192.438, 17687.95
1192.920, 17659.66
1193.402, 17642.08
1193.884, 17623.30
1194.366, 17606.94
1194.848, 17616.69
1195.330, 17649.66
1195.813, 17666.08
1196.295, 17649.95
1196.777, 17629.11
1197.259, 17624.28
1197.741, 17624.12
1198.223, 17615.76
1198.705, 17599.37
1199.187, 17609.28
1199.670, 17645.54
1200.152, 17666.61
1200.634, 17640.99
1201.116, 17609.20
1201.598, 17604.73
1202.080, 17611.90
1202.562, 17606.01
1203.044, 17579.27
1203.526, 17577.35
1204.009, 17601.19
1204.491, 17640.45
1204.973, 17726.80
1205.455, 17790.13
1205.937, 17738.28
1206.419, 17620.57
1206.901, 17574.12
1207.383, 17616.99
1207.865, 17652.99
1208.348, 17673.31
1208.830, 17678.08
1209.312, 17638.16
1209.794, 17605.31
1210.276, 17651.06
1210.758, 17761.96
1211.240, 17799.85
1211.722, 17748.04
1212.205, 17697.24
1212.687, 17665.41
1213.169, 17644.62
1213.651, 17617.93
1214.133, 17602.25
1214.615, 17627.09
1215.097, 17625.10
1215.579, 17628.76
1216.062, 17678.66
1216.544, 17660.18
1217.026, 17719.63
1217.508, 17787.72
1217.990, 17764.33
1218.472, 17698.31
1218.954, 17655.25
1219.436, 17649.09
1219.918, 17657.46
1220.401, 17684.54
1220.883, 17703.44
1221.365, 17687.08
1221.847, 17665.64
1222.329, 17682.09
1222.811, 17722.50
1223.293, 17760.31
1223.775, 17800.50
1224.257, 17812.74
1224.740, 17790.28
1225.222, 17768.26
1225.704, 17777.07
1226.186, 17801.35
1226.668, 17821.74
1227.150, 17840.58
1227.632, 17868.90
1228.114, 17915.64
1228.597, 17948.05
1229.079, 17960.91
1229.561, 17966.66
1230.043, 17975.30
1230.525, 17985.89
1231.007, 18003.72
1231.489, 18025.14
1231.971, 18019.05
1232.453, 17968.21
1232.936, 17947.14
1233.418, 17979.10
1233.900, 18015.71
1234.382, 17984.90
1234.864, 17931.21
1235.346, 17907.99
1235.828, 17922.76
1236.310, 17939.17
1236.792, 17955.12
1237.275, 17975.98
1237.757, 18006.07
1238.239, 18035.09
1238.721, 18040.88
1239.203, 18041.45
1239.685, 18065.87
1240.167, 18128.24
1240.650, 18147.42
1241.132, 18113.46
1241.614, 18082.38
1242.096, 18078.96
1242.578, 18090.69
1243.060, 18108.96
1243.542, 18128.58
1244.024, 18143.65
1244.506, 18158.31
1244.989, 18141.60
1245.471, 18086.71
1245.953, 18045.44
1246.435, 18070.44
1246.917, 18106.72
1247.399, 18071.63
1247.881, 18117.14
1248.363, 18018.75
1248.845, 18141.69
1249.328, 18190.75
1249.810, 18154.74
1250.292, 18099.38
1250.774, 18059.95
1251.256, 18037.15
1251.738, 18035.91
1252.220, 18051.33
1252.702, 18066.89
1253.185, 18076.16
1253.667, 18126.12
1254.149, 18227.06
1254.631, 18303.52
1255.113, 18259.32
1255.595, 18190.96
1256.077, 18185.38
1256.559, 18223.11
1257.042, 18225.24
1257.524, 18187.71
1258.006, 18155.48
1258.488, 18134.25
1258.970, 18128.08
1259.452, 18148.04
1259.934, 18177.99
1260.416, 18210.12
1260.898, 18241.64
1261.380, 18263.42
1261.863, 18275.55
1262.345, 18283.41
1262.827, 18286.50
1263.309, 18295.13
1263.791, 18320.71
1264.273, 18352.01
1264.755, 18388.00
1265.237, 18422.65
1265.720, 18418.57
1266.202, 18380.18
1266.684, 18351.10
1267.166, 18345.85
1267.648, 18343.94
1268.130, 18327.02
1268.612, 18314.39
1269.094, 18319.31
1269.577, 18338.30
1270.059, 18353.28
1270.541, 18364.93
1271.023, 18378.74
1271.505, 18395.89
1271.987, 18417.10
1272.469, 18452.71
1272.951, 18482.23
1273.433, 18490.49
1273.916, 18482.97
1274.398, 18479.94
1274.880, 18482.84
1275.362, 18497.20
1275.844, 18554.00
1276.326, 18571.55
1276.808, 18514.35
1277.290, 18443.82
1277.772, 18400.18
1278.255, 18379.93
1278.737, 18384.29
1279.219, 18402.69
1279.701, 18400.28
1280.183, 18334.75
1280.665, 18288.55
1281.147, 18263.60
1281.629, 18269.27
1282.112, 18344.41
1282.594, 18441.01
1283.076, 18456.46
1283.558, 18407.82
1284.040, 18363.16
1284.522, 18328.89
1285.004, 18323.13
1285.486, 18352.04
1285.969, 18393.77
1286.451, 18449.28
1286.933, 18490.40
1287.415, 18465.31
1287.897, 18389.32
1288.379, 18333.66
1288.861, 18308.26
1289.343, 18286.83
1289.825, 18267.18
1290.307, 18248.65
1290.790, 18230.66
1291.272, 18213.55
1291.754, 18191.82
1292.236, 18171.46
1292.718, 18173.95
1293.200, 18200.93
1293.682, 18234.82
1294.164, 18274.16
1294.647, 18305.76
1295.129, 18309.10
1295.611, 18308.69
1296.093, 18327.22
1296.575, 18327.04
1297.057, 18359.48
1297.539, 18344.95
1298.021, 18345.32
1298.504, 18368.18
1298.986, 18390.61
1299.468, 18397.17
1299.950, 18401.25
1300.432, 18409.06
1300.914, 18421.10
1301.396, 18433.69
1301.878, 18450.53
1302.360, 18499.61
1302.843, 18594.51
1303.325, 18629.94
1303.807, 18484.53
1304.289, 18368.73
1304.771, 18365.03
1305.253, 18411.22
1305.735, 18364.30
##END=



