##NAMES=Buddingtonite
##RRUFFID=R061115
##IDEAL CHEMISTRY=(N^3-^H_4_)AlSi_3_O_8_
##LOCALITY=Sharon Heights, Menlo Park, Santa Clara County, California, USA
##OWNER=RRUFF
##SOURCE=Michael Scott
##DESCRIPTION=Grey fine-grained massive
##STATUS=The identification of this mineral has been confirmed by X-ray diffraction.
##URL=rruff.info/R061115
193.6272, 83302.83
194.1093, 83472.87
194.5914, 83628.59
195.0736, 83743.30
195.5557, 83825.75
196.0378, 83937.70
196.5199, 84102.59
197.0020, 84288.86
197.4841, 84475.95
197.9663, 84662.59
198.4484, 84827.92
198.9305, 84954.72
199.4126, 85046.75
199.8947, 85127.07
200.3768, 85185.24
200.8590, 85249.77
201.3411, 85342.76
201.8232, 85460.84
202.3053, 85584.37
202.7874, 85709.45
203.2695, 85832.31
203.7517, 85932.70
204.2338, 85993.52
204.7159, 86053.90
205.1980, 86184.80
205.6801, 86349.88
206.1622, 86425.04
206.6444, 86250.13
207.1265, 85912.69
207.6086, 85763.34
208.0907, 85907.26
208.5728, 86081.26
209.0549, 86110.38
209.5371, 86047.85
210.0192, 86011.91
210.5013, 86096.68
210.9834, 86248.88
211.4655, 86291.54
211.9476, 86141.80
212.4298, 86055.86
212.9119, 86238.42
213.3940, 86561.76
213.8761, 86815.45
214.3582, 86883.67
214.8403, 86840.77
215.3225, 86837.68
215.8046, 86880.29
216.2867, 86948.27
216.7688, 87043.40
217.2509, 87153.68
217.7330, 87266.00
218.2152, 87376.95
218.6973, 87485.98
219.1794, 87597.08
219.6615, 87715.55
220.1436, 87815.30
220.6257, 87869.85
221.1079, 87905.91
221.5900, 87948.52
222.0721, 88006.35
222.5542, 88066.88
223.0363, 88120.43
223.5184, 88170.76
224.0006, 88190.12
224.4827, 88121.46
224.9648, 88043.02
225.4469, 88028.60
225.9290, 88098.23
226.4111, 88187.36
226.8933, 88223.66
227.3754, 88204.24
227.8575, 88200.72
228.3396, 88244.39
228.8217, 88301.03
229.3038, 88344.38
229.7859, 88371.94
230.2681, 88392.09
230.7502, 88399.62
231.2323, 88397.64
231.7144, 88432.94
232.1965, 88550.07
232.6786, 88667.56
233.1608, 88714.59
233.6429, 88696.37
234.1250, 88676.64
234.6071, 88693.15
235.0892, 88741.80
235.5714, 88806.41
236.0535, 88901.44
236.5356, 88986.91
237.0177, 89020.88
237.4998, 89018.91
237.9819, 89035.75
238.4641, 89130.10
238.9462, 89261.01
239.4283, 89310.35
239.9104, 89235.27
240.3925, 89172.71
240.8746, 89254.33
241.3568, 89413.42
241.8389, 89519.48
242.3210, 89485.45
242.8031, 89391.78
243.2852, 89372.04
243.7673, 89442.90
244.2495, 89509.38
244.7316, 89492.57
245.2137, 89442.86
245.6958, 89439.54
246.1779, 89529.93
246.6600, 89634.77
247.1422, 89659.45
247.6243, 89602.05
248.1064, 89557.85
248.5885, 89572.12
249.0706, 89623.03
249.5527, 89679.87
250.0349, 89750.16
250.5170, 89802.98
250.9991, 89801.59
251.4812, 89755.81
251.9633, 89725.39
252.4454, 89725.15
252.9276, 89755.94
253.4097, 89826.84
253.8918, 89948.62
254.3739, 90044.02
254.8560, 90050.61
255.3381, 90002.28
255.8203, 89986.41
256.3024, 90027.62
256.7845, 90093.20
257.2666, 90142.69
257.7487, 90176.89
258.2308, 90223.27
258.7130, 90293.45
259.1951, 90379.14
259.6772, 90487.48
260.1593, 90627.07
260.6414, 90723.97
261.1235, 90678.07
261.6057, 90507.74
262.0878, 90397.09
262.5699, 90403.55
263.0520, 90453.98
263.5341, 90494.78
264.0162, 90522.40
264.4984, 90536.81
264.9805, 90530.55
265.4626, 90510.63
265.9447, 90516.86
266.4268, 90586.18
266.9089, 90644.80
267.3911, 90643.74
267.8732, 90598.91
268.3553, 90557.29
268.8374, 90538.97
269.3195, 90543.03
269.8016, 90572.27
270.2838, 90660.61
270.7659, 90717.01
271.2480, 90691.13
271.7301, 90625.39
272.2122, 90584.59
272.6943, 90591.13
273.1765, 90625.16
273.6586, 90654.71
274.1407, 90684.07
274.6228, 90698.01
275.1049, 90673.52
275.5870, 90646.15
276.0692, 90647.31
276.5513, 90682.58
277.0334, 90741.16
277.5155, 90814.46
277.9976, 90908.31
278.4797, 90989.19
278.9619, 91053.61
279.4440, 91109.92
279.9261, 91154.22
280.4082, 91192.78
280.8903, 91247.30
281.3724, 91341.71
281.8546, 91471.76
282.3367, 91523.23
282.8188, 91416.74
283.3009, 91323.63
283.7830, 91272.07
284.2651, 91263.90
284.7473, 91305.59
285.2294, 91402.62
285.7115, 91532.17
286.1936, 91624.77
286.6757, 91675.13
287.1578, 91689.27
287.6400, 91649.81
288.1221, 91586.99
288.6042, 91524.86
289.0863, 91470.94
289.5684, 91420.94
290.0505, 91365.33
290.5327, 91293.35
291.0148, 91246.23
291.4969, 91245.95
291.9790, 91250.94
292.4611, 91235.38
292.9432, 91201.66
293.4254, 91172.32
293.9075, 91174.23
294.3896, 91207.98
294.8717, 91208.87
295.3538, 91128.41
295.8359, 91071.05
296.3181, 91096.06
296.8002, 91167.52
297.2823, 91216.48
297.7644, 91197.98
298.2465, 91139.30
298.7286, 91116.14
299.2108, 91139.02
299.6929, 91173.01
300.1750, 91214.23
300.6571, 91256.13
301.1392, 91288.72
301.6213, 91306.96
302.1035, 91328.57
302.5855, 91382.75
303.0677, 91471.88
303.5498, 91543.72
304.0319, 91586.27
304.5140, 91603.65
304.9961, 91593.59
305.4782, 91556.45
305.9604, 91522.59
306.4425, 91517.60
306.9246, 91531.13
307.4067, 91525.84
307.8888, 91485.37
308.3709, 91453.98
308.8531, 91490.20
309.3352, 91571.87
309.8173, 91626.95
310.2994, 91619.51
310.7815, 91585.41
311.2636, 91568.89
311.7458, 91570.63
312.2279, 91557.88
312.7100, 91508.34
313.1921, 91428.50
313.6742, 91347.16
314.1563, 91242.52
314.6385, 91164.09
315.1206, 91153.63
315.6027, 91187.77
316.0848, 91210.58
316.5669, 91201.37
317.0490, 91170.44
317.5312, 91132.82
318.0133, 91075.33
318.4954, 91044.96
318.9775, 91073.17
319.4596, 91117.24
319.9417, 91129.56
320.4239, 91104.86
320.9060, 91077.81
321.3881, 91085.20
321.8702, 91132.67
322.3523, 91175.63
322.8344, 91219.47
323.3166, 91254.23
323.7987, 91270.96
324.2808, 91274.81
324.7629, 91273.81
325.2450, 91270.41
325.7271, 91271.77
326.2093, 91313.58
326.6914, 91478.67
327.1735, 91578.18
327.6556, 91540.27
328.1377, 91456.29
328.6198, 91428.85
329.1020, 91486.89
329.5841, 91561.50
330.0662, 91536.88
330.5483, 91364.27
331.0304, 91247.02
331.5125, 91212.13
331.9947, 91216.23
332.4768, 91261.38
332.9589, 91332.52
333.4410, 91391.48
333.9231, 91412.05
334.4052, 91395.36
334.8874, 91340.02
335.3695, 91207.55
335.8516, 91103.57
336.3337, 91080.86
336.8158, 91107.55
337.2979, 91143.64
337.7801, 91180.74
338.2622, 91209.59
338.7443, 91220.32
339.2264, 91213.18
339.7085, 91179.43
340.1906, 91086.29
340.6728, 90990.57
341.1549, 90965.86
341.6370, 91022.05
342.1191, 91066.06
342.6012, 91020.69
343.0833, 90928.97
343.5655, 90901.29
344.0476, 90967.68
344.5297, 91040.55
345.0118, 91020.41
345.4939, 90921.26
345.9760, 90874.27
346.4582, 90951.52
346.9403, 91039.89
347.4224, 91041.34
347.9045, 90971.10
348.3866, 90907.14
348.8687, 90887.80
349.3509, 90911.19
349.8330, 90976.42
350.3151, 91155.01
350.7972, 91272.96
351.2793, 91268.88
351.7614, 91201.97
352.2436, 91125.84
352.7257, 91058.88
353.2078, 91018.86
353.6899, 91037.77
354.1720, 91151.95
354.6541, 91193.55
355.1363, 91105.75
355.6184, 91012.62
356.1005, 90987.03
356.5826, 91008.09
357.0647, 91007.33
357.5468, 90933.30
358.0290, 90805.29
358.5111, 90722.83
358.9932, 90694.13
359.4753, 90702.86
359.9574, 90782.65
360.4395, 90873.79
360.9217, 90924.01
361.4038, 90917.94
361.8859, 90863.11
362.3680, 90739.87
362.8501, 90539.32
363.3322, 90416.73
363.8144, 90434.08
364.2965, 90491.67
364.7786, 90536.46
365.2607, 90566.62
365.7428, 90581.09
366.2249, 90566.91
366.7071, 90540.28
367.1892, 90536.12
367.6713, 90558.46
368.1534, 90573.71
368.6355, 90555.85
369.1176, 90521.58
369.5998, 90505.73
370.0819, 90514.13
370.5640, 90533.48
371.0461, 90567.23
371.5282, 90606.07
372.0103, 90625.05
372.4925, 90615.02
372.9746, 90595.03
373.4567, 90591.23
373.9388, 90609.95
374.4209, 90615.28
374.9030, 90598.09
375.3852, 90573.24
375.8673, 90539.96
376.3494, 90505.89
376.8315, 90497.55
377.3136, 90538.32
377.7957, 90614.50
378.2779, 90644.91
378.7600, 90597.50
379.2421, 90538.66
379.7242, 90446.98
380.2063, 90360.66
380.6884, 90334.52
381.1706, 90376.70
381.6527, 90425.97
382.1348, 90393.45
382.6169, 90258.04
383.0990, 90141.01
383.5811, 90025.16
384.0633, 89948.05
384.5454, 89948.51
385.0275, 90000.31
385.5096, 90043.95
385.9917, 90044.16
386.4738, 90018.61
386.9560, 90001.64
387.4381, 89992.01
387.9202, 89998.04
388.4023, 90036.67
388.8844, 90084.78
389.3665, 90121.08
389.8487, 90144.97
390.3308, 90149.06
390.8129, 90107.30
391.2950, 90044.61
391.7771, 90029.20
392.2592, 90080.67
392.7414, 90132.91
393.2235, 90119.63
393.7056, 90044.01
394.1877, 89987.77
394.6698, 89955.13
395.1519, 89941.09
395.6341, 89945.89
396.1162, 89966.97
396.5983, 90005.96
397.0804, 90066.91
397.5625, 90128.09
398.0446, 90139.14
398.5268, 90060.43
399.0089, 89991.89
399.4910, 89931.41
399.9731, 89882.56
400.4552, 89862.85
400.9373, 89862.81
401.4194, 89841.13
401.9016, 89751.67
402.3837, 89604.45
402.8658, 89531.44
403.3479, 89607.81
403.8300, 89653.43
404.3121, 89603.21
404.7943, 89510.06
405.2764, 89429.81
405.7585, 89379.40
406.2406, 89350.40
406.7227, 89337.20
407.2048, 89339.52
407.6870, 89343.39
408.1691, 89349.36
408.6512, 89352.59
409.1333, 89345.75
409.6154, 89332.01
410.0975, 89324.55
410.5797, 89346.88
411.0618, 89365.60
411.5439, 89326.62
412.0260, 89237.75
412.5081, 89178.34
412.9902, 89194.98
413.4724, 89257.45
413.9545, 89285.36
414.4366, 89259.43
414.9187, 89249.02
415.4008, 89284.91
415.8829, 89332.13
416.3651, 89354.77
416.8472, 89348.63
417.3293, 89332.40
417.8114, 89325.80
418.2935, 89329.10
418.7756, 89296.91
419.2578, 89175.55
419.7399, 89079.03
420.2220, 89044.45
420.7041, 89042.32
421.1862, 89031.77
421.6683, 88998.73
422.1505, 88968.27
422.6326, 88998.24
423.1147, 89108.76
423.5968, 89122.43
424.0789, 88922.53
424.5610, 88732.20
425.0432, 88700.26
425.5253, 88782.65
426.0074, 88847.69
426.4895, 88831.58
426.9716, 88770.59
427.4537, 88703.69
427.9359, 88631.19
428.4180, 88583.38
428.9001, 88580.07
429.3822, 88600.34
429.8643, 88607.11
430.3464, 88598.02
430.8286, 88588.43
431.3107, 88590.08
431.7928, 88588.71
432.2749, 88565.12
432.7570, 88519.72
433.2391, 88470.98
433.7213, 88431.90
434.2034, 88402.09
434.6855, 88379.34
435.1676, 88368.11
435.6497, 88358.67
436.1318, 88365.40
436.6140, 88365.23
437.0961, 88321.07
437.5782, 88229.71
438.0603, 88140.00
438.5424, 88124.51
439.0245, 88193.59
439.5067, 88204.54
439.9888, 88096.57
440.4709, 88009.33
440.9530, 88030.19
441.4351, 88103.97
441.9172, 88130.28
442.3994, 88055.13
442.8815, 87962.55
443.3636, 87971.65
443.8457, 88065.30
444.3278, 88084.73
444.8099, 87955.91
445.2921, 87797.56
445.7742, 87769.52
446.2563, 87864.59
446.7384, 87932.44
447.2205, 87951.79
447.7026, 87931.05
448.1848, 87841.83
448.6669, 87712.16
449.1490, 87636.70
449.6311, 87669.70
450.1132, 87766.21
450.5953, 87809.10
451.0775, 87762.22
451.5596, 87713.24
452.0417, 87644.19
452.5238, 87587.29
453.0059, 87573.25
453.4880, 87594.98
453.9702, 87620.52
454.4523, 87631.05
454.9344, 87623.19
455.4165, 87571.84
455.8986, 87444.40
456.3807, 87354.05
456.8629, 87394.41
457.3450, 87457.24
457.8271, 87437.46
458.3092, 87317.51
458.7913, 87200.48
459.2734, 87155.94
459.7556, 87159.89
460.2377, 87164.87
460.7198, 87166.33
461.2019, 87166.81
461.6840, 87172.73
462.1661, 87178.72
462.6483, 87158.92
463.1304, 87078.05
463.6125, 87016.30
464.0946, 86994.43
464.5767, 87004.84
465.0588, 87052.86
465.5410, 87133.62
466.0231, 87207.59
466.5052, 87228.88
466.9873, 87193.22
467.4694, 87163.65
467.9515, 87171.48
468.4337, 87147.98
468.9158, 87043.66
469.3979, 86911.41
469.8800, 86821.50
470.3621, 86797.02
470.8442, 86801.02
471.3264, 86795.40
471.8085, 86780.48
472.2906, 86759.23
472.7727, 86729.76
473.2548, 86698.54
473.7369, 86686.14
474.2191, 86678.12
474.7012, 86628.42
475.1833, 86463.48
475.6654, 86320.87
476.1475, 86333.30
476.6296, 86434.23
477.1118, 86452.34
477.5939, 86328.66
478.0760, 86173.16
478.5581, 86144.31
479.0402, 86298.48
479.5223, 86337.60
480.0045, 86150.65
480.4866, 85982.10
480.9687, 85942.08
481.4508, 85986.71
481.9329, 86030.38
482.4150, 86035.06
482.8972, 86026.49
483.3793, 86063.70
483.8614, 86163.46
484.3435, 86182.89
484.8256, 86034.68
485.3077, 85885.47
485.7899, 85845.63
486.2720, 85889.77
486.7541, 85940.16
487.2362, 85962.97
487.7183, 85987.44
488.2004, 86078.34
488.6826, 86206.23
489.1647, 86224.26
489.6468, 86063.16
490.1289, 85848.15
490.6110, 85756.48
491.0931, 85830.33
491.5753, 85873.96
492.0574, 85882.26
492.5395, 85866.03
493.0216, 85811.04
493.5037, 85738.66
493.9858, 85695.95
494.4680, 85706.20
494.9501, 85729.48
495.4322, 85678.32
495.9143, 85522.20
496.3964, 85417.43
496.8785, 85426.84
497.3607, 85440.54
497.8428, 85399.54
498.3249, 85318.28
498.8070, 85236.20
499.2891, 85160.38
499.7712, 85103.10
500.2533, 85080.98
500.7354, 85091.27
501.2176, 85125.63
501.6997, 85192.67
502.1818, 85252.27
502.6639, 85248.34
503.1460, 85168.16
503.6281, 85106.76
504.1103, 85065.20
504.5924, 85043.84
505.0745, 85044.07
505.5566, 85064.52
506.0387, 85116.18
506.5208, 85202.92
507.0030, 85282.52
507.4851, 85269.03
507.9672, 85124.80
508.4493, 85041.50
508.9314, 85042.41
509.4135, 85087.08
509.8957, 85209.80
510.3778, 85354.42
510.8599, 85407.96
511.3420, 85306.11
511.8241, 85155.16
512.3063, 85048.72
512.7884, 84985.47
513.2705, 84966.07
513.7526, 84997.23
514.2347, 85047.43
514.7169, 85097.98
515.1990, 85147.81
515.6811, 85139.33
516.1632, 85023.81
516.6453, 84905.92
517.1274, 84824.03
517.6096, 84766.25
518.0917, 84713.78
518.5738, 84660.88
519.0559, 84611.23
519.5380, 84569.81
520.0201, 84537.16
520.5023, 84506.89
520.9844, 84479.27
521.4665, 84453.87
521.9486, 84452.19
522.4307, 84443.94
522.9128, 84372.42
523.3950, 84208.29
523.8771, 84070.62
524.3592, 84083.56
524.8413, 84184.44
525.3234, 84213.30
525.8055, 84145.39
526.2877, 84079.02
526.7698, 84093.87
527.2519, 84172.53
527.7340, 84196.27
528.2161, 84131.12
528.6982, 84064.45
529.1804, 84004.40
529.6625, 83952.27
530.1446, 83913.18
530.6267, 83884.82
531.1088, 83855.24
531.5909, 83811.18
532.0731, 83759.29
532.5552, 83736.25
533.0373, 83759.25
533.5194, 83763.80
534.0015, 83722.13
534.4836, 83658.20
534.9658, 83580.05
535.4479, 83489.52
535.9300, 83430.14
536.4121, 83444.37
536.8942, 83485.05
537.3763, 83505.87
537.8585, 83503.78
538.3406, 83470.91
538.8227, 83397.72
539.3048, 83312.71
539.7869, 83279.98
540.2690, 83355.73
540.7512, 83355.91
541.2333, 83193.22
541.7154, 83046.98
542.1975, 83027.72
542.6796, 83092.91
543.1617, 83149.55
543.6439, 83155.09
544.1260, 83123.20
544.6081, 83050.66
545.0902, 82939.31
545.5723, 82902.36
546.0544, 82984.55
546.5366, 83093.59
547.0187, 83182.65
547.5008, 83240.16
547.9829, 83216.66
548.4650, 83017.33
548.9471, 82835.16
549.4292, 82789.41
549.9113, 82806.63
550.3934, 82770.45
550.8755, 82659.09
551.3577, 82543.20
551.8398, 82494.25
552.3219, 82509.48
552.8040, 82515.73
553.2861, 82500.65
553.7682, 82496.11
554.2504, 82522.45
554.7325, 82552.58
555.2146, 82560.39
555.6967, 82543.21
556.1788, 82520.91
556.6609, 82490.95
557.1431, 82470.63
557.6252, 82513.38
558.1073, 82615.35
558.5894, 82667.02
559.0715, 82607.84
559.5536, 82486.91
560.0358, 82395.15
560.5179, 82339.63
561.0000, 82297.88
561.4821, 82278.05
561.9642, 82263.76
562.4464, 82253.23
562.9285, 82239.83
563.4106, 82211.18
563.8927, 82161.19
564.3748, 82101.41
564.8569, 82051.13
565.3391, 82011.11
565.8212, 81957.99
566.3033, 81878.36
566.7854, 81805.78
567.2675, 81763.50
567.7496, 81745.09
568.2318, 81742.30
568.7139, 81774.63
569.1960, 81786.85
569.6781, 81730.83
570.1602, 81650.17
570.6423, 81606.70
571.1245, 81606.20
571.6066, 81609.23
572.0887, 81583.00
572.5708, 81535.09
573.0529, 81506.56
573.5350, 81499.35
574.0172, 81508.16
574.4993, 81559.88
574.9814, 81604.23
575.4635, 81606.33
575.9456, 81568.41
576.4277, 81512.12
576.9099, 81420.07
577.3920, 81340.90
577.8741, 81355.46
578.3562, 81442.72
578.8383, 81506.23
579.3204, 81517.36
579.8026, 81488.73
580.2847, 81427.78
580.7668, 81327.30
581.2489, 81257.91
581.7310, 81239.45
582.2131, 81223.85
582.6953, 81206.87
583.1774, 81180.77
583.6595, 81125.79
584.1416, 81043.24
584.6237, 80975.24
585.1058, 80968.66
585.5880, 81010.36
586.0701, 81058.78
586.5522, 81121.05
587.0343, 81143.74
587.5164, 81099.80
587.9985, 81007.29
588.4807, 80878.58
588.9628, 80696.25
589.4449, 80577.34
589.9270, 80587.62
590.4091, 80623.91
590.8912, 80628.18
591.3734, 80602.79
591.8555, 80564.05
592.3376, 80518.84
592.8197, 80466.07
593.3018, 80394.88
593.7839, 80300.42
594.2661, 80249.70
594.7482, 80263.57
595.2303, 80287.63
595.7124, 80305.86
596.1945, 80312.80
596.6766, 80297.45
597.1588, 80254.82
597.6409, 80203.52
598.1230, 80133.87
598.6051, 80071.16
599.0872, 80064.32
599.5693, 80100.48
600.0515, 80098.05
600.5336, 80003.77
601.0157, 79871.27
601.4978, 79839.21
601.9799, 79963.63
602.4620, 80035.99
602.9442, 79999.62
603.4263, 79957.81
603.9084, 79961.58
604.3905, 79991.55
604.8726, 80007.04
605.3547, 79995.70
605.8369, 79968.05
606.3190, 79941.06
606.8011, 79901.33
607.2832, 79794.69
607.7653, 79620.49
608.2474, 79496.59
608.7296, 79517.96
609.2117, 79641.45
609.6938, 79687.38
610.1759, 79603.91
610.6580, 79526.68
611.1401, 79463.45
611.6223, 79405.52
612.1044, 79339.27
612.5865, 79274.24
613.0686, 79238.35
613.5507, 79251.73
614.0328, 79279.68
614.5150, 79293.23
614.9971, 79288.73
615.4792, 79234.12
615.9613, 79116.03
616.4434, 79032.27
616.9255, 79082.34
617.4077, 79236.45
617.8898, 79282.89
618.3719, 79084.91
618.8540, 78967.08
619.3361, 79019.07
619.8182, 79106.92
620.3004, 79144.33
620.7825, 79123.97
621.2646, 79061.69
621.7467, 78949.95
622.2288, 78834.44
622.7109, 78793.75
623.1931, 78819.52
623.6752, 78842.08
624.1573, 78848.39
624.6394, 78846.70
625.1215, 78844.58
625.6036, 78841.13
626.0858, 78827.05
626.5679, 78810.72
627.0500, 78773.92
627.5321, 78696.48
628.0142, 78609.80
628.4963, 78535.49
628.9785, 78477.66
629.4606, 78437.33
629.9427, 78416.24
630.4248, 78410.32
630.9069, 78423.68
631.3890, 78454.37
631.8712, 78443.82
632.3533, 78364.15
632.8354, 78286.08
633.3175, 78281.34
633.7996, 78339.18
634.2817, 78352.77
634.7639, 78297.69
635.2460, 78232.25
635.7281, 78171.31
636.2102, 78104.40
636.6923, 78003.38
637.1744, 77882.45
637.6566, 77800.26
638.1387, 77801.64
638.6208, 77847.49
639.1029, 77860.52
639.5850, 77840.97
640.0671, 77829.30
640.5493, 77842.34
641.0314, 77840.35
641.5135, 77781.84
641.9956, 77675.17
642.4777, 77588.92
642.9598, 77521.25
643.4420, 77476.20
643.9241, 77472.70
644.4062, 77479.09
644.8883, 77463.03
645.3704, 77428.49
645.8525, 77401.68
646.3347, 77397.88
646.8168, 77413.36
647.2989, 77464.78
647.7810, 77549.06
648.2631, 77536.56
648.7452, 77374.60
649.2274, 77205.80
649.7095, 77141.45
650.1916, 77164.08
650.6737, 77172.54
651.1558, 77139.12
651.6379, 77132.55
652.1201, 77226.21
652.6022, 77301.69
653.0843, 77223.97
653.5664, 77038.91
654.0485, 76906.44
654.5306, 76917.51
655.0128, 76996.10
655.4949, 77038.47
655.9770, 77044.55
656.4591, 76995.41
656.9412, 76866.41
657.4233, 76784.03
657.9055, 76870.26
658.3876, 77060.11
658.8697, 77109.23
659.3518, 76938.79
659.8339, 76785.58
660.3160, 76667.49
660.7982, 76576.14
661.2803, 76518.65
661.7624, 76480.96
662.2445, 76434.70
662.7266, 76366.73
663.2087, 76296.20
663.6909, 76242.86
664.1730, 76206.16
664.6551, 76185.63
665.1372, 76182.55
665.6193, 76179.88
666.1014, 76162.17
666.5836, 76145.92
667.0657, 76175.13
667.5478, 76302.48
668.0299, 76353.65
668.5120, 76270.22
668.9941, 76173.93
669.4763, 76127.70
669.9584, 76104.02
670.4405, 76043.73
670.9226, 75929.06
671.4047, 75829.23
671.8868, 75821.44
672.3690, 75867.16
672.8511, 75869.80
673.3332, 75830.06
673.8153, 75829.46
674.2974, 75913.21
674.7795, 76017.72
675.2617, 76040.13
675.7438, 75963.39
676.2259, 75890.46
676.7080, 75798.69
677.1901, 75737.61
677.6722, 75733.02
678.1544, 75758.22
678.6365, 75804.40
679.1186, 75862.52
679.6007, 75870.90
680.0828, 75741.10
680.5649, 75577.53
681.0471, 75532.85
681.5292, 75568.80
682.0113, 75544.04
682.4934, 75415.98
682.9755, 75262.26
683.4576, 75162.66
683.9398, 75116.59
684.4219, 75117.55
684.9040, 75207.67
685.3861, 75266.63
685.8682, 75244.13
686.3503, 75203.95
686.8325, 75202.59
687.3146, 75227.37
687.7967, 75210.28
688.2788, 75090.46
688.7609, 74971.97
689.2430, 74929.80
689.7252, 74929.33
690.2073, 74918.29
690.6894, 74890.15
691.1715, 74871.40
691.6536, 74884.64
692.1357, 74909.33
692.6179, 74875.48
693.1000, 74764.25
693.5821, 74708.33
694.0642, 74753.26
694.5463, 74806.40
695.0284, 74797.78
695.5106, 74753.04
695.9927, 74733.09
696.4748, 74746.87
696.9569, 74771.89
697.4390, 74853.31
697.9211, 74900.21
698.4033, 74803.54
698.8854, 74616.19
699.3675, 74465.52
699.8496, 74406.45
700.3317, 74393.80
700.8138, 74374.41
701.2960, 74351.54
701.7781, 74347.42
702.2602, 74365.34
702.7423, 74383.03
703.2244, 74400.26
703.7065, 74396.05
704.1887, 74324.77
704.6708, 74154.66
705.1529, 74056.05
705.6350, 74073.78
706.1171, 74106.54
706.5992, 74153.59
707.0814, 74180.12
707.5635, 74127.40
708.0456, 74000.36
708.5277, 73898.55
709.0098, 73918.50
709.4919, 73972.91
709.9741, 73939.34
710.4562, 73837.41
710.9383, 73726.90
711.4204, 73622.55
711.9025, 73549.16
712.3846, 73536.08
712.8668, 73570.05
713.3489, 73562.02
713.8310, 73490.48
714.3131, 73424.86
714.7952, 73362.58
715.2773, 73320.10
715.7595, 73333.50
716.2416, 73372.66
716.7237, 73353.09
717.2058, 73218.74
717.6879, 73110.84
718.1700, 73118.65
718.6522, 73173.03
719.1343, 73207.95
719.6164, 73220.11
720.0985, 73230.41
720.5806, 73249.41
721.0627, 73256.48
721.5449, 73216.19
722.0270, 73131.30
722.5091, 73038.28
722.9912, 72930.66
723.4733, 72851.89
723.9554, 72832.83
724.4376, 72838.47
724.9197, 72814.44
725.4018, 72754.34
725.8839, 72694.51
726.3660, 72626.18
726.8481, 72569.29
727.3303, 72537.29
727.8124, 72516.13
728.2945, 72490.88
728.7766, 72459.73
729.2587, 72429.41
729.7408, 72403.48
730.2230, 72381.39
730.7051, 72364.71
731.1872, 72351.21
731.6693, 72336.13
732.1514, 72318.06
732.6335, 72290.73
733.1157, 72248.82
733.5978, 72194.41
734.0799, 72131.60
734.5620, 72048.19
735.0441, 71992.70
735.5262, 71979.79
736.0084, 71982.27
736.4905, 71998.41
736.9726, 72015.49
737.4547, 72011.77
737.9368, 71984.93
738.4189, 71936.64
738.9011, 71829.25
739.3832, 71734.95
739.8653, 71742.77
740.3474, 71798.77
740.8295, 71778.67
741.3116, 71649.97
741.7938, 71519.03
742.2759, 71510.55
742.7580, 71582.89
743.2401, 71608.47
743.7222, 71587.43
744.2043, 71521.84
744.6865, 71400.55
745.1686, 71276.27
745.6507, 71200.20
746.1328, 71170.99
746.6149, 71165.44
747.0970, 71213.89
747.5791, 71240.63
748.0612, 71244.73
748.5433, 71221.02
749.0255, 71153.05
749.5076, 71055.59
749.9897, 70960.41
750.4718, 70865.90
750.9539, 70807.91
751.4360, 70846.03
751.9182, 70908.81
752.4003, 70910.43
752.8824, 70854.97
753.3645, 70772.98
753.8466, 70678.27
754.3287, 70600.30
754.8109, 70596.16
755.2930, 70655.52
755.7751, 70659.58
756.2572, 70604.48
756.7393, 70508.37
757.2214, 70351.11
757.7036, 70198.96
758.1857, 70136.34
758.6678, 70167.27
759.1499, 70179.02
759.6320, 70137.29
760.1141, 70124.11
760.5963, 70192.14
761.0784, 70261.98
761.5605, 70273.36
762.0426, 70230.65
762.5247, 70163.10
763.0068, 70070.82
763.4890, 69987.99
763.9711, 69941.88
764.4532, 69921.74
764.9353, 69921.10
765.4174, 69932.05
765.8995, 69928.20
766.3817, 69896.84
766.8638, 69854.67
767.3459, 69831.23
767.8280, 69825.71
768.3101, 69790.83
768.7922, 69718.45
769.2744, 69650.66
769.7565, 69598.32
770.2386, 69563.95
770.7207, 69563.88
771.2028, 69600.45
771.6849, 69579.09
772.1671, 69431.40
772.6492, 69319.63
773.1313, 69294.05
773.6134, 69300.55
774.0955, 69305.40
774.5776, 69303.65
775.0598, 69294.41
775.5419, 69273.22
776.0240, 69258.17
776.5061, 69295.85
776.9882, 69330.79
777.4703, 69263.67
777.9525, 69110.41
778.4346, 68948.84
778.9167, 68814.13
779.3988, 68724.78
779.8809, 68728.42
780.3630, 68812.34
780.8452, 68820.15
781.3273, 68736.80
781.8094, 68662.92
782.2915, 68630.77
782.7736, 68616.06
783.2557, 68595.23
783.7379, 68568.66
784.2200, 68543.17
784.7021, 68508.35
785.1842, 68489.44
785.6663, 68506.38
786.1484, 68523.67
786.6306, 68505.54
787.1127, 68472.06
787.5948, 68480.70
788.0769, 68563.64
788.5590, 68611.93
789.0411, 68520.87
789.5233, 68390.55
790.0054, 68337.71
790.4875, 68339.73
790.9696, 68318.53
791.4517, 68250.11
791.9338, 68174.30
792.4160, 68136.75
792.8981, 68122.29
793.3802, 68062.09
793.8623, 67955.98
794.3444, 67913.98
794.8265, 67974.65
795.3087, 68046.57
795.7908, 68060.59
796.2729, 68022.47
796.7550, 67952.90
797.2371, 67801.39
797.7192, 67715.52
798.2014, 67760.18
798.6835, 67804.70
799.1656, 67783.91
799.6477, 67736.69
800.1298, 67732.48
800.6119, 67786.44
801.0941, 67797.70
801.5762, 67690.37
802.0583, 67572.71
802.5404, 67518.72
803.0225, 67495.61
803.5046, 67447.81
803.9868, 67372.80
804.4689, 67317.47
804.9510, 67322.63
805.4331, 67341.19
805.9152, 67294.75
806.3973, 67202.82
806.8795, 67130.66
807.3616, 67086.24
807.8437, 67057.56
808.3258, 67039.34
808.8079, 67026.50
809.2900, 67009.09
809.7722, 66985.81
810.2543, 66969.19
810.7364, 66955.93
811.2185, 66960.91
811.7006, 67023.17
812.1827, 67070.45
812.6649, 67001.07
813.1470, 66824.52
813.6291, 66702.81
814.1112, 66675.05
814.5933, 66655.50
815.0754, 66622.35
815.5576, 66597.49
816.0397, 66596.11
816.5218, 66615.83
817.0039, 66657.39
817.4860, 66728.02
817.9681, 66768.99
818.4503, 66728.70
818.9324, 66648.99
819.4145, 66561.65
819.8966, 66476.49
820.3787, 66414.99
820.8608, 66379.86
821.3430, 66341.31
821.8251, 66262.90
822.3072, 66175.36
822.7893, 66170.75
823.2714, 66240.76
823.7535, 66280.01
824.2357, 66270.43
824.7178, 66234.77
825.1999, 66183.66
825.6820, 66124.41
826.1641, 66075.80
826.6462, 66045.78
827.1284, 65992.95
827.6105, 65888.03
828.0926, 65808.76
828.5747, 65794.40
829.0568, 65810.05
829.5389, 65827.08
830.0211, 65843.95
830.5032, 65839.92
830.9853, 65788.27
831.4674, 65747.49
831.9495, 65760.99
832.4316, 65768.67
832.9138, 65690.99
833.3959, 65570.34
833.8780, 65527.46
834.3601, 65614.25
834.8422, 65696.28
835.3243, 65651.84
835.8065, 65565.56
836.2886, 65550.22
836.7707, 65579.84
837.2528, 65580.51
837.7349, 65531.67
838.2170, 65447.73
838.6992, 65326.10
839.1813, 65203.57
839.6634, 65193.17
840.1455, 65280.55
840.6276, 65307.45
841.1097, 65246.69
841.5919, 65182.93
842.0740, 65168.45
842.5561, 65174.43
843.0382, 65136.95
843.5203, 65040.93
844.0024, 65004.19
844.4846, 65076.08
844.9667, 65105.31
845.4488, 65016.58
845.9309, 64894.63
846.4130, 64819.39
846.8951, 64786.39
847.3773, 64768.64
847.8594, 64774.18
848.3415, 64781.59
848.8236, 64810.96
849.3057, 64818.36
849.7878, 64752.12
850.2700, 64652.32
850.7521, 64591.54
851.2342, 64587.37
851.7163, 64595.39
852.1984, 64602.15
852.6805, 64601.81
853.1627, 64579.04
853.6448, 64550.73
854.1269, 64558.79
854.6090, 64595.47
855.0911, 64590.22
855.5732, 64488.90
856.0554, 64366.74
856.5375, 64346.07
857.0196, 64387.57
857.5017, 64375.96
857.9838, 64307.07
858.4659, 64215.52
858.9481, 64113.03
859.4302, 64048.33
859.9123, 64097.12
860.3944, 64235.41
860.8765, 64278.19
861.3586, 64211.91
861.8408, 64143.32
862.3229, 64091.12
862.8050, 64042.32
863.2871, 63982.01
863.7692, 63922.08
864.2513, 63898.34
864.7335, 63930.44
865.2156, 63943.93
865.6977, 63938.38
866.1798, 63914.48
866.6619, 63842.38
867.1440, 63773.85
867.6262, 63776.13
868.1083, 63840.84
868.5904, 63869.60
869.0725, 63819.19
869.5546, 63767.93
870.0367, 63744.21
870.5189, 63721.20
871.0010, 63686.18
871.4831, 63634.23
871.9652, 63543.28
872.4473, 63405.78
872.9294, 63316.30
873.4116, 63387.38
873.8937, 63478.96
874.3758, 63450.20
874.8579, 63356.78
875.3400, 63291.89
875.8221, 63270.32
876.3043, 63264.49
876.7864, 63257.46
877.2685, 63260.30
877.7506, 63320.03
878.2327, 63394.03
878.7148, 63334.30
879.1970, 63160.54
879.6791, 63050.67
880.1612, 63069.86
880.6433, 63139.11
881.1254, 63183.43
881.6075, 63198.04
882.0897, 63150.50
882.5718, 63036.77
883.0539, 62937.89
883.5360, 62862.07
884.0181, 62824.29
884.5002, 62843.00
884.9824, 62888.87
885.4645, 62905.41
885.9466, 62890.36
886.4287, 62860.90
886.9108, 62808.50
887.3929, 62757.77
887.8751, 62705.70
888.3572, 62667.73
888.8393, 62674.56
889.3214, 62709.85
889.8035, 62694.47
890.2856, 62573.79
890.7678, 62504.71
891.2499, 62542.31
891.7320, 62583.76
892.2141, 62595.74
892.6962, 62578.16
893.1783, 62526.56
893.6605, 62443.69
894.1426, 62360.34
894.6247, 62256.45
895.1068, 62192.78
895.5889, 62229.76
896.0710, 62291.06
896.5532, 62317.82
897.0353, 62307.98
897.5174, 62262.60
897.9995, 62182.05
898.4816, 62127.14
898.9637, 62186.28
899.4459, 62251.93
899.9280, 62171.16
900.4101, 62031.23
900.8922, 62026.41
901.3743, 62147.76
901.8564, 62183.11
902.3386, 61998.41
902.8207, 61764.28
903.3028, 61716.15
903.7849, 61785.54
904.2670, 61810.20
904.7491, 61790.25
905.2313, 61762.67
905.7134, 61740.41
906.1955, 61747.79
906.6776, 61817.13
907.1597, 61911.18
907.6418, 61927.97
908.1240, 61870.07
908.6061, 61770.04
909.0882, 61624.73
909.5703, 61543.10
910.0524, 61589.89
910.5345, 61664.89
911.0167, 61619.98
911.4988, 61465.02
911.9809, 61383.73
912.4630, 61392.58
912.9451, 61410.81
913.4272, 61430.20
913.9094, 61445.57
914.3915, 61457.44
914.8736, 61459.69
915.3557, 61436.20
915.8378, 61377.85
916.3199, 61333.88
916.8021, 61317.16
917.2842, 61293.82
917.7663, 61249.36
918.2484, 61201.27
918.7305, 61159.70
919.2126, 61126.20
919.6948, 61106.84
920.1769, 61106.00
920.6590, 61110.29
921.1411, 61144.62
921.6232, 61153.15
922.1053, 61072.78
922.5875, 60981.02
923.0696, 60975.50
923.5517, 61050.21
924.0338, 61105.58
924.5159, 61135.46
924.9980, 61111.88
925.4802, 60982.22
925.9623, 60837.27
926.4444, 60737.44
926.9265, 60672.47
927.4086, 60612.98
927.8907, 60554.84
928.3729, 60530.93
928.8550, 60588.08
929.3371, 60650.32
929.8192, 60661.17
930.3013, 60653.50
930.7834, 60683.32
931.2656, 60726.94
931.7477, 60695.26
932.2298, 60557.25
932.7119, 60445.43
933.1940, 60510.20
933.6761, 60618.68
934.1583, 60611.73
934.6404, 60533.51
935.1225, 60458.47
935.6046, 60402.40
936.0867, 60369.80
936.5688, 60365.16
937.0510, 60354.92
937.5331, 60277.37
938.0152, 60176.70
938.4973, 60149.14
938.9794, 60180.17
939.4615, 60220.15
939.9437, 60254.18
940.4258, 60271.32
940.9079, 60264.73
941.3900, 60232.73
941.8721, 60156.89
942.3542, 60052.19
942.8364, 59983.89
943.3185, 59953.73
943.8006, 59954.21
944.2827, 59982.87
944.7648, 60016.20
945.2469, 60034.19
945.7290, 60037.04
946.2111, 60020.80
946.6932, 59986.61
947.1754, 59958.98
947.6575, 59940.16
948.1396, 59922.07
948.6217, 59900.91
949.1038, 59883.36
949.5859, 59878.83
950.0681, 59883.35
950.5502, 59885.67
951.0323, 59894.66
951.5144, 59804.84
951.9965, 59563.65
952.4786, 59410.61
952.9608, 59489.53
953.4429, 59653.63
953.9250, 59693.33
954.4071, 59613.60
954.8892, 59558.64
955.3713, 59526.00
955.8535, 59534.40
956.3356, 59616.17
956.8177, 59670.27
957.2998, 59630.68
957.7819, 59536.88
958.2640, 59453.17
958.7462, 59377.86
959.2283, 59334.08
959.7104, 59336.78
960.1925, 59340.18
960.6746, 59338.46
961.1567, 59333.67
961.6389, 59336.60
962.1210, 59332.26
962.6031, 59278.40
963.0852, 59151.25
963.5673, 59086.84
964.0494, 59144.41
964.5316, 59176.19
965.0137, 59149.73
965.4958, 59091.98
965.9779, 58996.88
966.4600, 58888.07
966.9421, 58826.36
967.4243, 58816.36
967.9064, 58839.38
968.3885, 58965.73
968.8706, 59031.62
969.3527, 58945.68
969.8348, 58825.13
970.3170, 58766.15
970.7991, 58750.98
971.2812, 58709.79
971.7633, 58603.74
972.2454, 58566.57
972.7275, 58701.90
973.2097, 58798.92
973.6918, 58756.37
974.1739, 58661.48
974.6560, 58574.56
975.1381, 58508.16
975.6202, 58493.14
976.1024, 58570.21
976.5845, 58604.27
977.0666, 58531.20
977.5487, 58452.70
978.0308, 58403.20
978.5129, 58380.04
978.9951, 58386.04
979.4772, 58414.41
979.9593, 58440.02
980.4414, 58455.07
980.9235, 58473.20
981.4056, 58492.91
981.8878, 58522.79
982.3699, 58602.79
982.8520, 58671.55
983.3341, 58634.48
983.8162, 58511.08
984.2983, 58436.38
984.7805, 58477.36
985.2626, 58499.16
985.7447, 58434.95
986.2268, 58358.59
986.7089, 58315.78
987.1910, 58287.05
987.6732, 58243.52
988.1553, 58185.09
988.6374, 58131.30
989.1195, 58084.40
989.6016, 58051.65
990.0837, 58045.31
990.5659, 58043.98
991.0480, 58042.34
991.5301, 58031.18
992.0122, 57991.79
992.4943, 57929.28
992.9764, 57879.46
993.4586, 57851.92
993.9407, 57845.07
994.4228, 57880.88
994.9049, 57913.83
995.3870, 57916.76
995.8691, 57892.64
996.3513, 57834.53
996.8334, 57752.45
997.3155, 57696.27
997.7976, 57694.91
998.2797, 57700.13
998.7618, 57709.98
999.2440, 57696.87
999.7261, 57615.34
1000.208, 57511.73
1000.690, 57440.05
1001.172, 57412.40
1001.655, 57441.18
1002.137, 57574.57
1002.619, 57667.45
1003.101, 57595.89
1003.583, 57514.32
1004.065, 57564.86
1004.547, 57661.45
1005.029, 57674.25
1005.511, 57596.88
1005.994, 57509.28
1006.476, 57440.80
1006.958, 57365.06
1007.440, 57227.23
1007.922, 57122.38
1008.404, 57141.11
1008.886, 57221.58
1009.368, 57291.49
1009.851, 57336.55
1010.333, 57356.28
1010.815, 57347.73
1011.297, 57320.96
1011.779, 57268.98
1012.261, 57212.55
1012.743, 57161.48
1013.225, 57116.74
1013.707, 57078.59
1014.190, 57046.80
1014.672, 57023.38
1015.154, 57020.38
1015.636, 56994.18
1016.118, 56891.05
1016.600, 56800.10
1017.082, 56783.95
1017.564, 56804.55
1018.047, 56824.36
1018.529, 56835.70
1019.011, 56831.04
1019.493, 56800.14
1019.975, 56778.55
1020.457, 56798.13
1020.939, 56807.24
1021.421, 56764.93
1021.903, 56707.84
1022.386, 56677.41
1022.868, 56668.68
1023.350, 56648.64
1023.832, 56602.02
1024.314, 56573.64
1024.796, 56582.29
1025.278, 56604.15
1025.760, 56647.70
1026.243, 56683.85
1026.725, 56661.59
1027.207, 56611.70
1027.689, 56644.39
1028.171, 56825.27
1028.653, 56884.76
1029.135, 56665.66
1029.617, 56451.33
1030.099, 56304.16
1030.582, 56231.75
1031.064, 56286.86
1031.546, 56408.13
1032.028, 56445.58
1032.510, 56363.79
1032.992, 56312.40
1033.474, 56351.09
1033.956, 56363.90
1034.438, 56284.65
1034.921, 56208.13
1035.403, 56215.02
1035.885, 56265.23
1036.367, 56278.80
1036.849, 56249.94
1037.331, 56207.00
1037.813, 56094.98
1038.295, 56052.21
1038.778, 56189.25
1039.260, 56292.52
1039.742, 56214.55
1040.224, 56051.24
1040.706, 55944.52
1041.188, 55894.57
1041.670, 55892.02
1042.152, 55981.14
1042.635, 56031.34
1043.117, 56019.41
1043.599, 55983.25
1044.081, 55918.66
1044.563, 55864.38
1045.045, 55885.90
1045.527, 55972.26
1046.009, 55981.47
1046.491, 55886.71
1046.974, 55785.86
1047.456, 55654.83
1047.938, 55600.09
1048.420, 55694.33
1048.902, 55819.98
1049.384, 55855.88
1049.866, 55816.18
1050.348, 55762.18
1050.830, 55690.09
1051.313, 55619.81
1051.795, 55543.50
1052.277, 55517.48
1052.759, 55575.06
1053.241, 55618.43
1053.723, 55551.73
1054.205, 55433.65
1054.687, 55441.96
1055.169, 55580.82
1055.652, 55577.31
1056.134, 55419.76
1056.616, 55366.41
1057.098, 55488.69
1057.580, 55572.92
1058.062, 55463.00
1058.544, 55288.08
1059.026, 55293.45
1059.509, 55438.03
1059.991, 55472.77
1060.473, 55411.43
1060.955, 55358.88
1061.437, 55334.13
1061.919, 55329.20
1062.401, 55341.09
1062.883, 55333.52
1063.365, 55239.55
1063.848, 55112.44
1064.330, 55107.98
1064.812, 55176.19
1065.294, 55133.11
1065.776, 54996.30
1066.258, 54969.18
1066.740, 55118.51
1067.222, 55260.28
1067.704, 55228.98
1068.187, 55117.23
1068.669, 55027.78
1069.151, 54962.31
1069.633, 54928.55
1070.115, 54920.17
1070.597, 54928.27
1071.079, 54946.34
1071.561, 54957.87
1072.044, 54957.30
1072.526, 54934.36
1073.008, 54835.31
1073.490, 54750.80
1073.972, 54824.15
1074.454, 54948.89
1074.936, 54936.58
1075.418, 54798.75
1075.901, 54697.54
1076.383, 54696.51
1076.865, 54720.05
1077.347, 54745.18
1077.829, 54765.63
1078.311, 54799.94
1078.793, 54809.30
1079.275, 54719.72
1079.757, 54581.05
1080.240, 54530.42
1080.722, 54604.62
1081.204, 54642.18
1081.686, 54572.31
1082.168, 54505.71
1082.650, 54463.38
1083.132, 54444.43
1083.614, 54475.00
1084.096, 54514.54
1084.579, 54493.66
1085.061, 54409.55
1085.543, 54343.69
1086.025, 54281.23
1086.507, 54267.53
1086.989, 54348.99
1087.471, 54409.13
1087.953, 54406.50
1088.436, 54357.92
1088.918, 54259.71
1089.400, 54136.75
1089.882, 54104.93
1090.364, 54197.59
1090.846, 54236.79
1091.328, 54209.98
1091.810, 54178.48
1092.292, 54154.59
1092.775, 54149.85
1093.257, 54181.18
1093.739, 54210.62
1094.221, 54152.23
1094.703, 54019.09
1095.185, 53955.54
1095.667, 53958.39
1096.149, 53967.42
1096.631, 53972.37
1097.114, 53960.52
1097.596, 53925.29
1098.078, 53894.67
1098.560, 53904.34
1099.042, 53933.17
1099.524, 53937.53
1100.006, 53922.26
1100.488, 53900.37
1100.971, 53871.79
1101.453, 53814.89
1101.935, 53734.79
1102.417, 53713.00
1102.899, 53823.36
1103.381, 53938.68
1103.863, 53916.73
1104.345, 53833.73
1104.828, 53764.31
1105.310, 53708.86
1105.792, 53647.20
1106.274, 53592.26
1106.756, 53598.88
1107.238, 53692.12
1107.720, 53789.16
1108.202, 53887.45
1108.684, 53926.05
1109.167, 53818.85
1109.649, 53686.20
1110.131, 53649.67
1110.613, 53658.40
1111.095, 53589.03
1111.577, 53428.73
1112.059, 53340.71
1112.541, 53393.81
1113.023, 53453.43
1113.506, 53534.24
1113.988, 53577.93
1114.470, 53541.85
1114.952, 53477.25
1115.434, 53438.84
1115.916, 53413.14
1116.398, 53336.05
1116.880, 53168.71
1117.363, 53122.30
1117.845, 53237.72
1118.327, 53342.68
1118.809, 53407.52
1119.291, 53416.31
1119.773, 53348.31
1120.255, 53251.84
1120.737, 53204.25
1121.219, 53199.24
1121.702, 53198.28
1122.184, 53202.58
1122.666, 53235.30
1123.148, 53294.93
1123.630, 53341.60
1124.112, 53359.48
1124.594, 53338.23
1125.076, 53256.09
1125.558, 53168.98
1126.041, 53189.27
1126.523, 53251.74
1127.005, 53208.68
1127.487, 53109.85
1127.969, 53108.91
1128.451, 53198.37
1128.933, 53216.64
1129.415, 53085.39
1129.898, 52958.42
1130.380, 52952.77
1130.862, 52978.36
1131.344, 52981.76
1131.826, 52973.27
1132.308, 52948.50
1132.790, 52927.80
1133.272, 52958.80
1133.755, 53043.51
1134.237, 53091.49
1134.719, 53068.68
1135.201, 53027.25
1135.683, 52933.78
1136.165, 52874.91
1136.647, 52940.38
1137.129, 53007.36
1137.611, 52958.38
1138.094, 52830.27
1138.576, 52730.87
1139.058, 52659.15
1139.540, 52625.53
1140.022, 52637.91
1140.504, 52658.05
1140.986, 52680.26
1141.468, 52707.88
1141.950, 52745.70
1142.433, 52775.73
1142.915, 52776.56
1143.397, 52749.53
1143.879, 52688.89
1144.361, 52603.09
1144.843, 52530.50
1145.325, 52476.52
1145.807, 52459.68
1146.290, 52481.35
1146.772, 52517.99
1147.254, 52557.64
1147.736, 52587.29
1148.218, 52586.22
1148.700, 52573.40
1149.182, 52583.71
1149.664, 52590.02
1150.146, 52534.60
1150.629, 52443.63
1151.111, 52398.05
1151.593, 52414.30
1152.075, 52412.91
1152.557, 52316.73
1153.039, 52264.71
1153.521, 52370.20
1154.003, 52457.86
1154.485, 52395.23
1154.968, 52291.07
1155.450, 52286.89
1155.932, 52348.21
1156.414, 52319.66
1156.896, 52161.14
1157.378, 52097.15
1157.860, 52178.32
1158.342, 52214.39
1158.825, 52157.46
1159.307, 52101.20
1159.789, 52094.18
1160.271, 52111.46
1160.753, 52124.66
1161.235, 52133.68
1161.717, 52146.63
1162.199, 52157.57
1162.682, 52117.27
1163.164, 52029.13
1163.646, 51913.93
1164.128, 51786.63
1164.610, 51713.98
1165.092, 51736.41
1165.574, 51791.89
1166.056, 51838.20
1166.538, 51859.14
1167.021, 51807.84
1167.503, 51739.83
1167.985, 51733.49
1168.467, 51770.36
1168.949, 51812.79
1169.431, 51844.40
1169.913, 51811.90
1170.395, 51629.14
1170.877, 51525.91
1171.360, 51647.38
1171.842, 51761.09
1172.324, 51783.59
1172.806, 51741.11
1173.288, 51620.79
1173.770, 51472.98
1174.252, 51399.18
1174.734, 51400.67
1175.217, 51444.64
1175.699, 51545.19
1176.181, 51631.32
1176.663, 51702.51
1177.145, 51711.34
1177.627, 51636.15
1178.109, 51524.25
1178.591, 51408.44
1179.073, 51316.31
1179.556, 51313.50
1180.038, 51371.08
1180.520, 51422.51
1181.002, 51455.56
1181.484, 51420.11
1181.966, 51335.07
1182.448, 51295.73
1182.930, 51331.95
1183.412, 51366.63
1183.895, 51343.53
1184.377, 51316.03
1184.859, 51328.28
1185.341, 51340.92
1185.823, 51325.98
1186.305, 51292.29
1186.787, 51233.64
1187.269, 51168.59
1187.752, 51164.05
1188.234, 51254.27
1188.716, 51272.74
1189.198, 51172.44
1189.680, 51088.75
1190.162, 51033.43
1190.644, 51009.56
1191.126, 51026.30
1191.609, 51054.55
1192.091, 51067.45
1192.573, 51061.96
1193.055, 51022.67
1193.537, 50955.16
1194.019, 50896.55
1194.501, 50850.41
1194.983, 50836.13
1195.465, 50851.86
1195.948, 50866.46
1196.430, 50867.55
1196.912, 50879.71
1197.394, 50930.36
1197.876, 50987.17
1198.358, 51053.18
1198.840, 51077.41
1199.322, 50951.22
1199.804, 50790.40
1200.287, 50778.29
1200.769, 50880.47
1201.251, 50908.33
1201.733, 50812.76
1202.215, 50735.62
1202.697, 50686.53
1203.179, 50670.39
1203.661, 50705.20
1204.144, 50744.89
1204.626, 50783.91
1205.108, 50786.01
1205.590, 50700.86
1206.072, 50571.75
1206.554, 50526.05
1207.036, 50556.21
1207.518, 50576.39
1208.000, 50587.91
1208.483, 50609.65
1208.965, 50640.34
1209.447, 50653.12
1209.929, 50638.04
1210.411, 50608.70
1210.893, 50565.38
1211.375, 50535.33
1211.857, 50571.14
1212.339, 50604.57
1212.822, 50565.27
1213.304, 50488.08
1213.786, 50398.12
1214.268, 50317.62
1214.750, 50301.33
1215.232, 50367.25
1215.714, 50393.76
1216.196, 50331.32
1216.679, 50299.31
1217.161, 50316.29
1217.643, 50342.39
1218.125, 50365.61
1218.607, 50389.98
1219.089, 50421.88
1219.571, 50448.85
1220.053, 50443.21
1220.536, 50411.18
1221.018, 50383.66
1221.500, 50357.99
1221.982, 50309.18
1222.464, 50249.49
1222.946, 50257.73
1223.428, 50338.57
1223.910, 50349.28
1224.392, 50180.54
1224.875, 50036.30
1225.357, 50110.80
1225.839, 50198.95
1226.321, 50126.77
1226.803, 50035.53
1227.285, 50090.47
1227.767, 50206.47
1228.249, 50209.61
1228.731, 50100.02
1229.214, 50008.55
1229.696, 49932.65
1230.178, 49881.64
1230.660, 49851.66
1231.142, 49875.78
1231.624, 49972.06
1232.106, 50037.27
1232.588, 50011.96
1233.071, 49945.16
1233.553, 49893.64
1234.035, 49844.52
1234.517, 49745.24
##END=



