##NAMES=Bultfonteinite
##RRUFFID=R050088
##IDEAL CHEMISTRY=Ca_2_[SiO_3_(OH)]F&#183;H_2_O
##LOCALITY=N'Chwaning II mine, Kuruman, South Africa
##OWNER=RRUFF
##SOURCE=Rock Currier
##DESCRIPTION=Sprays of acicular white crystals associated with olmiite, R050144
##STATUS=The identification of this mineral is confirmed by single-crystal X-ray diffraction and chemical analysis.
##URL=rruff.info/R050088
##MEASURED CHEMISTRY=Ca_1.96_[Si_0.97_O_3_(OH)_1.00_]F_1.00_&#183;0.61H_2_O; OH estimated by charge balance; H_2_O by difference
139.7984, 449.4367
140.2805, 462.7074
140.7626, 470.2623
141.2447, 478.4118
141.7268, 490.0027
142.2089, 505.9503
142.6911, 516.6224
143.1732, 517.7279
143.6553, 516.5495
144.1374, 528.1315
144.6195, 559.7916
145.1016, 591.9013
145.5838, 616.3047
146.0659, 629.3437
146.5480, 642.6172
147.0301, 656.5152
147.5122, 670.7264
147.9943, 684.7067
148.4765, 699.5492
148.9586, 712.9644
149.4407, 724.0307
149.9228, 733.2627
150.4049, 739.3054
150.8870, 740.3106
151.3692, 736.3536
151.8513, 735.0327
152.3334, 738.1128
152.8155, 742.8889
153.2976, 747.3932
153.7797, 743.4082
154.2619, 747.2308
154.7440, 766.5383
155.2261, 805.6320
155.7082, 833.6154
156.1903, 838.5936
156.6724, 833.1778
157.1546, 832.1581
157.6367, 847.1588
158.1188, 859.3284
158.6009, 861.8265
159.0830, 851.9914
159.5652, 838.2944
160.0473, 820.5419
160.5294, 800.3071
161.0115, 780.9481
161.4936, 765.8437
161.9757, 750.1198
162.4579, 730.4788
162.9400, 702.6546
163.4221, 677.0867
163.9042, 657.1121
164.3863, 642.5839
164.8684, 632.9714
165.3506, 631.2872
165.8327, 632.9560
166.3148, 634.3472
166.7969, 634.7245
167.2790, 634.3015
167.7611, 631.2175
168.2433, 626.1517
168.7254, 624.9744
169.2075, 634.6216
169.6896, 648.9979
170.1717, 660.9141
170.6538, 667.7991
171.1360, 671.1542
171.6181, 669.1225
172.1002, 661.3881
172.5823, 658.3200
173.0644, 670.6397
173.5465, 692.6631
174.0287, 714.4067
174.5108, 732.4764
174.9929, 747.4070
175.4750, 759.4485
175.9571, 768.2832
176.4392, 776.1952
176.9214, 785.4327
177.4035, 795.4172
177.8856, 804.6827
178.3677, 810.0039
178.8498, 814.6378
179.3319, 824.3994
179.8141, 841.1180
180.2962, 860.2276
180.7783, 879.7328
181.2604, 898.2471
181.7425, 910.3999
182.2246, 907.6022
182.7068, 895.7256
183.1889, 888.3429
183.6710, 888.1518
184.1531, 893.2447
184.6352, 903.2868
185.1173, 917.9779
185.5995, 930.2019
186.0816, 931.5699
186.5637, 925.1069
187.0458, 922.2217
187.5279, 927.0037
188.0100, 936.1980
188.4922, 941.9078
188.9743, 943.9526
189.4564, 945.9338
189.9385, 952.7443
190.4206, 963.5037
190.9027, 971.3203
191.3849, 973.1456
191.8670, 970.5077
192.3491, 968.7195
192.8312, 967.6399
193.3133, 968.0365
193.7955, 971.3198
194.2776, 977.4396
194.7597, 983.9185
195.2418, 990.5547
195.7239, 997.0611
196.2060, 1001.821
196.6882, 1005.313
197.1703, 1005.712
197.6524, 998.6927
198.1345, 983.8432
198.6166, 969.2860
199.0987, 960.3118
199.5809, 956.9297
200.0630, 947.1784
200.5451, 928.8223
201.0272, 907.3792
201.5093, 893.3718
201.9914, 888.1856
202.4736, 883.6036
202.9557, 874.4861
203.4378, 860.1693
203.9199, 849.2886
204.4020, 842.5488
204.8841, 839.2384
205.3663, 838.5950
205.8484, 841.7532
206.3305, 843.6896
206.8126, 840.2532
207.2947, 830.0359
207.7768, 823.4006
208.2590, 822.0466
208.7411, 824.6141
209.2232, 826.8432
209.7053, 829.3180
210.1874, 830.0347
210.6695, 826.9442
211.1517, 818.8533
211.6338, 812.0309
212.1159, 807.2996
212.5980, 804.4849
213.0801, 802.9725
213.5622, 803.6900
214.0444, 803.9842
214.5265, 801.9263
215.0086, 797.5126
215.4907, 790.6165
215.9728, 780.7790
216.4549, 768.1757
216.9371, 754.5253
217.4192, 738.3708
217.9013, 723.4984
218.3834, 715.6295
218.8655, 720.3807
219.3476, 716.3023
219.8298, 693.8882
220.3119, 653.0092
220.7940, 631.6049
221.2761, 637.2736
221.7582, 653.7227
222.2403, 663.6959
222.7225, 665.1641
223.2046, 664.2881
223.6867, 661.6801
224.1688, 656.9782
224.6509, 654.6438
225.1330, 655.7124
225.6152, 658.1533
226.0973, 659.2309
226.5794, 658.0757
227.0615, 657.3051
227.5436, 657.5501
228.0257, 658.8430
228.5079, 661.1464
228.9900, 665.2979
229.4721, 669.8517
229.9542, 672.0777
230.4363, 668.8220
230.9185, 669.0972
231.4006, 677.4927
231.8827, 697.8455
232.3648, 709.3918
232.8469, 707.9469
233.3290, 700.2406
233.8112, 697.5278
234.2933, 700.2167
234.7754, 707.3339
235.2575, 720.5493
235.7396, 745.0201
236.2217, 757.6858
236.7039, 750.2031
237.1860, 734.8245
237.6681, 737.6124
238.1502, 771.2568
238.6323, 803.0336
239.1144, 821.0394
239.5966, 820.7525
240.0787, 818.0734
240.5608, 811.3667
241.0429, 802.8675
241.5250, 798.0651
242.0071, 800.2489
242.4893, 801.1259
242.9714, 797.1526
243.4535, 786.4630
243.9356, 774.8701
244.4177, 760.9145
244.8998, 746.4222
245.3820, 736.3344
245.8641, 732.0920
246.3462, 730.1294
246.8283, 729.3553
247.3104, 731.3687
247.7925, 730.3036
248.2747, 723.0688
248.7568, 713.3804
249.2389, 712.4908
249.7210, 725.1146
250.2031, 739.3983
250.6852, 749.8586
251.1674, 755.3732
251.6495, 759.2235
252.1316, 759.9316
252.6137, 759.2731
253.0958, 763.4839
253.5779, 775.9536
254.0601, 788.0672
254.5422, 794.1105
255.0243, 789.0192
255.5064, 791.6892
255.9885, 807.5930
256.4706, 831.0093
256.9528, 842.4680
257.4349, 836.9295
257.9170, 827.7379
258.3991, 821.0255
258.8812, 815.7643
259.3633, 816.5568
259.8455, 826.1957
260.3276, 841.6246
260.8097, 851.5768
261.2918, 853.8201
261.7739, 854.8327
262.2560, 857.7551
262.7382, 862.0922
263.2203, 870.2436
263.7024, 883.5235
264.1845, 900.4673
264.6666, 917.0162
265.1487, 933.8848
265.6309, 948.5831
266.1130, 957.9816
266.5951, 959.1182
267.0772, 966.5423
267.5593, 982.9459
268.0414, 1005.823
268.5236, 1027.138
269.0057, 1048.428
269.4878, 1064.895
269.9699, 1072.525
270.4520, 1069.078
270.9341, 1066.627
271.4163, 1065.850
271.8984, 1066.837
272.3805, 1070.928
272.8626, 1079.848
273.3447, 1086.891
273.8268, 1086.587
274.3090, 1077.431
274.7911, 1071.876
275.2732, 1072.578
275.7553, 1076.537
276.2374, 1075.655
276.7195, 1069.484
277.2017, 1060.153
277.6838, 1047.433
278.1659, 1030.766
278.6480, 1017.488
279.1301, 1007.866
279.6122, 1002.388
280.0944, 1004.564
280.5765, 1016.268
281.0586, 1024.899
281.5407, 1020.233
282.0229, 1002.134
282.5050, 988.6588
282.9871, 981.9691
283.4692, 979.9412
283.9513, 979.1613
284.4334, 979.9021
284.9156, 978.6942
285.3977, 970.9349
285.8798, 957.4951
286.3619, 950.7319
286.8440, 952.9808
287.3261, 960.2083
287.8083, 965.8853
288.2904, 970.0142
288.7725, 972.3115
289.2546, 971.5670
289.7367, 968.4254
290.2188, 967.5717
290.7010, 970.7913
291.1831, 973.1895
291.6652, 964.5380
292.1473, 945.5674
292.6294, 927.6132
293.1115, 918.5732
293.5937, 915.8392
294.0758, 909.5855
294.5579, 897.9268
295.0400, 885.9629
295.5221, 882.5436
296.0042, 886.1544
296.4864, 888.0121
296.9685, 881.2363
297.4506, 869.4290
297.9327, 860.9308
298.4148, 856.3139
298.8969, 854.7645
299.3791, 857.4133
299.8612, 862.9304
300.3433, 866.6396
300.8254, 863.3281
301.3075, 857.4117
301.7896, 857.0237
302.2718, 863.2941
302.7539, 870.5767
303.2360, 873.1359
303.7181, 872.3290
304.2002, 871.4726
304.6823, 870.9589
305.1645, 871.7831
305.6466, 875.3087
306.1287, 881.7122
306.6108, 889.7524
307.0929, 899.3323
307.5750, 909.7579
308.0572, 920.1696
308.5393, 930.2515
309.0214, 939.9528
309.5035, 949.0372
309.9856, 957.4327
310.4677, 966.2797
310.9499, 977.8144
311.4320, 989.9758
311.9141, 1000.115
312.3962, 1004.276
312.8783, 1008.451
313.3604, 1017.119
313.8426, 1030.142
314.3247, 1043.324
314.8068, 1052.796
315.2889, 1061.745
315.7710, 1073.578
316.2531, 1093.930
316.7353, 1113.488
317.2174, 1129.658
317.6995, 1142.128
318.1816, 1148.392
318.6637, 1140.720
319.1458, 1129.860
319.6280, 1124.440
320.1101, 1131.489
320.5922, 1139.328
321.0743, 1147.387
321.5564, 1154.599
322.0385, 1155.112
322.5207, 1139.108
323.0028, 1121.115
323.4849, 1110.268
323.9670, 1111.990
324.4491, 1115.987
324.9312, 1124.739
325.4134, 1135.661
325.8955, 1139.029
326.3776, 1125.161
326.8597, 1109.861
327.3418, 1100.493
327.8239, 1103.368
328.3061, 1104.039
328.7882, 1101.137
329.2703, 1095.771
329.7524, 1090.730
330.2345, 1085.457
330.7166, 1081.043
331.1988, 1077.370
331.6809, 1072.261
332.1630, 1073.474
332.6451, 1086.579
333.1272, 1104.032
333.6093, 1111.074
334.0915, 1101.420
334.5736, 1091.202
335.0557, 1084.839
335.5378, 1082.080
336.0199, 1085.662
336.5020, 1100.081
336.9842, 1116.528
337.4663, 1121.289
337.9484, 1108.808
338.4305, 1099.958
338.9126, 1102.466
339.3947, 1116.432
339.8769, 1123.047
340.3590, 1119.786
340.8411, 1114.419
341.3232, 1116.902
341.8053, 1128.683
342.2874, 1136.646
342.7696, 1135.550
343.2517, 1127.816
343.7338, 1126.708
344.2159, 1132.954
344.6980, 1141.779
345.1801, 1150.811
345.6623, 1159.675
346.1444, 1163.351
346.6265, 1158.732
347.1086, 1150.057
347.5907, 1146.795
348.0728, 1148.985
348.5550, 1154.153
349.0371, 1162.808
349.5192, 1173.251
350.0013, 1179.127
350.4834, 1177.274
350.9655, 1174.499
351.4477, 1185.061
351.9298, 1205.657
352.4119, 1219.124
352.8940, 1205.459
353.3762, 1180.358
353.8583, 1169.801
354.3404, 1178.400
354.8225, 1196.221
355.3046, 1220.200
355.7867, 1246.563
356.2689, 1266.244
356.7510, 1269.375
357.2331, 1266.838
357.7152, 1267.452
358.1973, 1271.761
358.6794, 1280.457
359.1616, 1297.303
359.6437, 1318.070
360.1258, 1336.842
360.6079, 1351.169
361.0900, 1363.033
361.5721, 1373.876
362.0543, 1383.701
362.5364, 1390.363
363.0185, 1388.127
363.5006, 1384.581
363.9827, 1386.539
364.4648, 1404.630
364.9470, 1419.226
365.4291, 1423.866
365.9112, 1419.591
366.3933, 1414.579
366.8754, 1408.441
367.3575, 1403.274
367.8397, 1400.364
368.3218, 1404.973
368.8039, 1405.433
369.2860, 1399.256
369.7681, 1388.271
370.2502, 1377.834
370.7324, 1369.522
371.2145, 1360.120
371.6966, 1348.102
372.1787, 1331.547
372.6608, 1317.726
373.1429, 1310.250
373.6251, 1303.561
374.1072, 1286.393
374.5893, 1250.043
375.0714, 1220.817
375.5535, 1209.421
376.0356, 1217.369
376.5178, 1219.816
376.9999, 1215.244
377.4820, 1207.723
377.9641, 1201.718
378.4462, 1197.315
378.9283, 1193.854
379.4105, 1192.238
379.8926, 1191.369
380.3747, 1184.858
380.8568, 1171.667
381.3389, 1158.943
381.8210, 1153.614
382.3032, 1154.820
382.7853, 1155.124
383.2674, 1153.201
383.7495, 1149.658
384.2316, 1145.639
384.7137, 1141.078
385.1959, 1135.816
385.6780, 1129.030
386.1601, 1121.525
386.6422, 1115.481
387.1243, 1111.470
387.6064, 1107.508
388.0886, 1099.832
388.5707, 1090.238
389.0528, 1083.583
389.5349, 1083.557
390.0170, 1086.869
390.4991, 1093.692
390.9813, 1104.670
391.4634, 1107.243
391.9455, 1083.034
392.4276, 1048.556
392.9097, 1024.786
393.3918, 1030.949
393.8740, 1039.002
394.3561, 1035.148
394.8382, 1020.361
395.3203, 1005.556
395.8024, 992.4493
396.2845, 982.2320
396.7667, 975.7883
397.2488, 974.1224
397.7309, 975.1730
398.2130, 984.1690
398.6951, 996.5621
399.1772, 998.0035
399.6594, 973.5606
400.1415, 949.4812
400.6236, 935.2795
401.1057, 934.0165
401.5878, 935.7751
402.0699, 944.6284
402.5521, 954.5169
403.0342, 956.1937
403.5163, 945.9832
403.9984, 933.9182
404.4805, 921.4590
404.9626, 908.6423
405.4448, 899.6905
405.9269, 895.5234
406.4090, 893.5333
406.8911, 891.4874
407.3732, 889.3876
407.8553, 887.2955
408.3375, 885.6767
408.8196, 883.8152
409.3017, 878.5142
409.7838, 869.3824
410.2659, 861.1916
410.7480, 858.9730
411.2302, 861.1736
411.7123, 859.1080
412.1944, 850.5323
412.6765, 841.2679
413.1586, 841.5739
413.6407, 849.0344
414.1229, 853.0472
414.6050, 844.0268
415.0871, 829.8759
415.5692, 823.7209
416.0513, 826.2957
416.5334, 829.2402
417.0156, 823.6615
417.4977, 814.6547
417.9798, 809.9149
418.4619, 815.1699
418.9440, 822.9549
419.4261, 830.5088
419.9083, 837.2240
420.3904, 840.4003
420.8725, 834.6614
421.3546, 827.4145
421.8367, 824.2488
422.3188, 829.1600
422.8010, 832.9713
423.2831, 833.9042
423.7652, 832.1650
424.2473, 828.3091
424.7295, 819.3513
425.2116, 811.0802
425.6937, 805.4257
426.1758, 803.0347
426.6579, 800.9173
427.1400, 798.6628
427.6222, 796.9437
428.1043, 796.4630
428.5864, 797.6426
429.0685, 799.0820
429.5506, 799.7616
430.0327, 800.2289
430.5149, 806.0338
430.9970, 820.1054
431.4791, 832.4168
431.9612, 833.9426
432.4433, 823.7775
432.9254, 818.4545
433.4076, 820.0675
433.8897, 826.3082
434.3718, 835.8605
434.8539, 848.4654
435.3360, 855.0564
435.8181, 845.4409
436.3003, 826.5611
436.7824, 818.5425
437.2645, 822.4305
437.7466, 830.0551
438.2287, 834.1875
438.7108, 836.0285
439.1930, 838.2888
439.6751, 842.6361
440.1572, 847.0192
440.6393, 850.1688
441.1214, 851.8788
441.6035, 851.1337
442.0857, 846.3236
442.5678, 839.3842
443.0499, 831.3442
443.5320, 821.2094
444.0141, 813.1707
444.4962, 808.5175
444.9784, 807.1089
445.4605, 808.7080
445.9426, 820.2636
446.4247, 828.2719
446.9068, 825.1339
447.3889, 807.9629
447.8711, 800.0121
448.3532, 809.4993
448.8353, 824.1633
449.3174, 835.3961
449.7995, 843.6982
450.2816, 847.4214
450.7638, 844.1768
451.2459, 836.2700
451.7280, 832.9161
452.2101, 835.2209
452.6922, 839.4065
453.1743, 845.1348
453.6565, 853.1145
454.1386, 853.5135
454.6207, 843.8182
455.1028, 831.8646
455.5849, 829.7839
456.0670, 836.9792
456.5492, 843.0990
457.0313, 843.6636
457.5134, 841.0701
457.9955, 841.2438
458.4776, 844.0877
458.9597, 846.9394
459.4419, 847.3772
459.9240, 846.4637
460.4061, 846.3242
460.8882, 848.1696
461.3703, 849.0313
461.8524, 843.1533
462.3346, 834.1389
462.8167, 830.5012
463.2988, 843.4541
463.7809, 857.6353
464.2630, 861.5011
464.7451, 852.9736
465.2273, 848.4333
465.7094, 861.3376
466.1915, 876.9753
466.6736, 882.2375
467.1557, 859.2891
467.6378, 843.1775
468.1200, 842.9113
468.6021, 854.7687
469.0842, 862.1719
469.5663, 863.4765
470.0484, 862.2318
470.5305, 859.3799
471.0127, 853.8386
471.4948, 850.3611
471.9769, 849.1005
472.4590, 849.6624
472.9411, 852.2171
473.4232, 857.2994
473.9054, 860.7549
474.3875, 860.7032
474.8696, 858.2615
475.3517, 857.6711
475.8338, 858.9348
476.3159, 861.7695
476.7981, 865.0759
477.2802, 869.7073
477.7623, 879.3306
478.2444, 895.9067
478.7265, 913.1289
479.2086, 924.4409
479.6908, 930.6042
480.1729, 933.3455
480.6550, 927.0107
481.1371, 922.0408
481.6192, 930.0209
482.1013, 950.7493
482.5835, 968.9628
483.0656, 972.3002
483.5477, 972.1004
484.0298, 978.0902
484.5119, 1000.204
484.9940, 1018.271
485.4762, 1025.001
485.9583, 1024.516
486.4404, 1027.424
486.9225, 1034.285
487.4046, 1045.219
487.8867, 1061.741
488.3689, 1085.521
488.8510, 1104.998
489.3331, 1118.425
489.8152, 1129.844
490.2973, 1143.421
490.7794, 1159.820
491.2616, 1175.216
491.7437, 1188.884
492.2258, 1201.234
492.7079, 1213.386
493.1900, 1225.280
493.6722, 1236.186
494.1543, 1244.724
494.6364, 1251.774
495.1185, 1260.810
495.6006, 1272.112
496.0828, 1282.954
496.5649, 1290.578
497.0470, 1295.597
497.5291, 1299.265
498.0112, 1304.512
498.4933, 1306.023
498.9755, 1295.755
499.4576, 1276.845
499.9397, 1261.738
500.4218, 1260.914
500.9039, 1262.387
501.3860, 1258.358
501.8682, 1246.403
502.3503, 1233.491
502.8324, 1221.346
503.3145, 1209.018
503.7966, 1195.420
504.2787, 1179.184
504.7609, 1163.038
505.2430, 1147.134
505.7251, 1131.607
506.2072, 1116.801
506.6893, 1102.601
507.1714, 1089.475
507.6536, 1077.579
508.1357, 1066.983
508.6178, 1057.514
509.0999, 1049.509
509.5820, 1041.989
510.0641, 1032.955
510.5463, 1022.628
511.0284, 1014.452
511.5105, 1010.713
511.9926, 1008.724
512.4747, 1001.911
512.9568, 991.0347
513.4390, 982.4664
513.9211, 982.7194
514.4032, 986.9235
514.8853, 989.6500
515.3674, 990.4962
515.8495, 988.2592
516.3317, 978.3159
516.8138, 965.8632
517.2959, 958.0878
517.7780, 961.3777
518.2601, 965.5882
518.7422, 967.3359
519.2244, 966.8250
519.7065, 966.7471
520.1886, 964.7032
520.6707, 965.5113
521.1528, 972.4856
521.6349, 991.3281
522.1171, 1000.838
522.5992, 996.2833
523.0813, 987.1129
523.5634, 986.7855
524.0455, 997.1184
524.5276, 1006.717
525.0098, 1013.111
525.4919, 1016.506
525.9740, 1015.284
526.4561, 1009.221
526.9382, 1007.860
527.4203, 1024.457
527.9025, 1049.898
528.3846, 1059.684
528.8667, 1049.383
529.3488, 1037.854
529.8309, 1041.882
530.3130, 1056.814
530.7952, 1075.246
531.2773, 1100.418
531.7594, 1122.622
532.2415, 1135.687
532.7236, 1140.958
533.2057, 1143.649
533.6879, 1140.711
534.1700, 1139.428
534.6521, 1144.229
535.1342, 1158.818
535.6163, 1169.945
536.0984, 1175.821
536.5806, 1179.153
537.0627, 1182.661
537.5448, 1186.822
538.0269, 1190.392
538.5090, 1194.289
538.9911, 1196.977
539.4733, 1192.314
539.9554, 1179.465
540.4375, 1165.028
540.9196, 1152.434
541.4017, 1141.198
541.8839, 1130.332
542.3660, 1120.001
542.8481, 1107.718
543.3302, 1087.957
543.8123, 1064.665
544.2944, 1045.990
544.7766, 1037.144
545.2587, 1028.842
545.7408, 1012.996
546.2229, 992.1287
546.7050, 972.1047
547.1871, 952.6926
547.6693, 936.9454
548.1514, 928.8824
548.6335, 929.8752
549.1156, 925.5748
549.5977, 905.7629
550.0798, 885.4082
550.5620, 875.3825
551.0441, 883.8234
551.5262, 886.2714
552.0083, 879.9898
552.4904, 868.5052
552.9725, 857.8484
553.4547, 847.6208
553.9368, 840.4836
554.4189, 838.7525
554.9010, 840.6652
555.3831, 838.6226
555.8652, 832.5372
556.3474, 826.9973
556.8295, 828.4196
557.3116, 832.5170
557.7937, 828.6534
558.2758, 813.1642
558.7579, 799.3207
559.2401, 803.1445
559.7222, 815.1382
560.2043, 820.5922
560.6864, 803.8459
561.1685, 789.1989
561.6506, 791.0050
562.1328, 805.7088
562.6149, 813.7094
563.0970, 802.4651
563.5791, 791.6281
564.0612, 790.1221
564.5433, 801.6426
565.0255, 808.2064
565.5076, 807.7910
565.9897, 804.7401
566.4718, 803.8398
566.9539, 805.8330
567.4360, 804.7167
567.9182, 797.9906
568.4003, 789.6563
568.8824, 790.7584
569.3645, 800.2809
569.8466, 805.8351
570.3287, 796.2664
570.8109, 780.2372
571.2930, 772.7543
571.7751, 773.6932
572.2572, 776.6422
572.7393, 777.3192
573.2214, 777.6298
573.7036, 780.0171
574.1857, 786.8310
574.6678, 791.4203
575.1499, 790.2745
575.6320, 785.6769
576.1141, 780.9376
576.5963, 776.3155
577.0784, 771.8665
577.5605, 767.1608
578.0426, 762.5317
578.5247, 759.7496
579.0068, 758.8841
579.4890, 759.7756
579.9711, 763.6403
580.4532, 770.8573
580.9353, 772.8894
581.4174, 768.9382
581.8995, 763.0968
582.3817, 757.2131
582.8638, 752.7496
583.3459, 756.7124
583.8280, 775.2651
584.3101, 794.1566
584.7922, 794.0623
585.2744, 780.9895
585.7565, 770.4097
586.2386, 770.8896
586.7207, 775.0444
587.2028, 779.9301
587.6849, 785.2340
588.1671, 788.2131
588.6492, 785.9428
589.1313, 782.6635
589.6134, 781.1353
590.0955, 783.2604
590.5776, 782.8927
591.0598, 778.5070
591.5419, 772.9977
592.0240, 770.3294
592.5061, 771.0342
592.9882, 772.0993
593.4703, 773.3958
593.9525, 774.1584
594.4346, 770.5974
594.9167, 763.2324
595.3988, 759.3694
595.8809, 768.6930
596.3630, 782.1501
596.8452, 782.8032
597.3273, 770.2584
597.8094, 758.3227
598.2915, 756.0200
598.7736, 758.9803
599.2557, 763.4169
599.7379, 769.8461
600.2200, 774.8544
600.7021, 777.1237
601.1843, 777.4484
601.6664, 777.1444
602.1485, 778.0883
602.6306, 775.6750
603.1127, 766.3432
603.5948, 752.7155
604.0770, 749.7787
604.5591, 760.7953
605.0412, 771.8181
605.5233, 773.9858
606.0054, 768.6755
606.4875, 768.6916
606.9697, 774.5442
607.4518, 780.6182
607.9339, 780.6318
608.4160, 777.0326
608.8981, 774.5810
609.3802, 773.9310
609.8624, 775.4342
610.3445, 782.3077
610.8266, 790.9668
611.3087, 795.5390
611.7908, 791.1442
612.2729, 785.1175
612.7551, 778.6276
613.2372, 772.1621
613.7193, 768.6730
614.2014, 768.5909
614.6835, 771.1292
615.1656, 777.6368
615.6478, 789.3354
616.1299, 791.5176
616.6120, 780.6218
617.0941, 769.4530
617.5762, 772.7493
618.0583, 788.3444
618.5405, 797.3961
619.0226, 796.2386
619.5047, 790.3563
619.9868, 784.2836
620.4689, 778.8484
620.9510, 775.8274
621.4332, 777.1633
621.9153, 780.1329
622.3974, 784.5756
622.8795, 789.6107
623.3616, 791.7082
623.8438, 785.9189
624.3259, 780.2095
624.8080, 778.3687
625.2901, 780.9687
625.7722, 784.4404
626.2543, 789.8671
626.7365, 794.8186
627.2186, 797.7123
627.7007, 798.6173
628.1828, 795.8348
628.6649, 787.4444
629.1470, 779.7618
629.6292, 785.6963
630.1113, 801.9971
630.5934, 811.3834
631.0755, 804.1419
631.5576, 792.2253
632.0397, 790.8322
632.5219, 797.2372
633.0040, 802.9744
633.4861, 804.2631
633.9682, 803.1589
634.4503, 800.3080
634.9324, 795.7417
635.4146, 791.0496
635.8967, 781.6182
636.3788, 776.2753
636.8609, 780.9951
637.3430, 802.4909
637.8251, 814.9176
638.3073, 815.4458
638.7894, 811.0353
639.2715, 809.5159
639.7536, 810.9182
640.2357, 813.9666
640.7178, 819.5780
641.2000, 824.5622
641.6821, 822.5681
642.1642, 815.2900
642.6463, 808.8329
643.1284, 805.5258
643.6105, 804.6994
644.0927, 806.9197
644.5748, 811.6085
645.0569, 815.4045
645.5390, 816.7653
646.0211, 817.0898
646.5032, 816.7819
646.9854, 815.3223
647.4675, 815.7258
647.9496, 820.7955
648.4317, 824.5645
648.9138, 820.5218
649.3959, 806.2608
649.8781, 799.4061
650.3602, 802.9988
650.8423, 811.0886
651.3244, 815.6371
651.8065, 817.0047
652.2886, 817.1223
652.7708, 816.2440
653.2529, 814.8910
653.7350, 812.1907
654.2171, 809.2878
654.6992, 809.6279
655.1813, 818.1713
655.6635, 827.4571
656.1456, 833.5543
656.6277, 836.2664
657.1098, 838.6989
657.5919, 842.9034
658.0740, 845.2864
658.5562, 843.1211
659.0383, 834.1908
659.5204, 831.1063
660.0025, 835.3405
660.4846, 841.8754
660.9667, 845.7651
661.4489, 847.2151
661.9310, 847.2745
662.4131, 845.4142
662.8952, 844.3262
663.3773, 848.6348
663.8594, 856.2040
664.3416, 862.4786
664.8237, 866.0023
665.3058, 867.3040
665.7879, 865.2562
666.2700, 860.9590
666.7521, 858.1449
667.2343, 856.9926
667.7164, 858.3680
668.1985, 863.9998
668.6806, 873.8109
669.1627, 878.5496
669.6448, 877.0865
670.1270, 873.1184
670.6091, 867.5386
671.0912, 860.6102
671.5733, 858.1315
672.0554, 860.4504
672.5375, 865.7909
673.0197, 876.8247
673.5018, 888.7927
673.9839, 891.0036
674.4660, 876.6442
674.9481, 863.8254
675.4302, 865.6362
675.9124, 875.9231
676.3945, 885.6952
676.8766, 897.5353
677.3587, 902.8560
677.8408, 893.7302
678.3229, 877.1907
678.8051, 874.6954
679.2872, 893.5763
679.7693, 908.0002
680.2514, 907.2133
680.7335, 894.8078
681.2156, 887.9022
681.6978, 886.4453
682.1799, 890.5355
682.6620, 907.0333
683.1441, 926.5665
683.6262, 931.7269
684.1083, 921.2531
684.5905, 909.9474
685.0726, 907.0370
685.5547, 907.7939
686.0368, 908.4555
686.5189, 908.9059
687.0010, 907.9754
687.4832, 902.8842
687.9653, 897.8564
688.4474, 897.9135
688.9295, 906.0886
689.4116, 910.0228
689.8937, 906.5397
690.3759, 900.2801
690.8580, 901.5618
691.3401, 909.5577
691.8222, 914.5249
692.3043, 911.6931
692.7864, 905.1410
693.2686, 899.0370
693.7507, 893.8254
694.2328, 891.2146
694.7149, 894.6850
695.1970, 898.6483
695.6791, 899.9303
696.1613, 898.3880
696.6434, 896.2333
697.1255, 892.7310
697.6076, 889.7141
698.0897, 887.5613
698.5718, 885.9496
699.0540, 888.4766
699.5361, 896.4795
700.0182, 904.5634
700.5003, 908.2225
700.9824, 907.7150
701.4645, 903.3771
701.9467, 894.6082
702.4288, 885.7368
702.9109, 879.1616
703.3930, 875.7953
703.8751, 877.4791
704.3572, 890.2526
704.8394, 899.9882
705.3215, 898.0306
705.8036, 890.0154
706.2857, 886.9615
706.7678, 894.3694
707.2499, 898.8123
707.7321, 897.0538
708.2142, 891.0411
708.6963, 887.7363
709.1784, 887.4833
709.6605, 886.2546
710.1426, 880.0319
710.6248, 872.5428
711.1069, 875.2071
711.5890, 886.3984
712.0711, 894.9425
712.5532, 889.5423
713.0353, 881.2156
713.5175, 880.7291
713.9996, 889.4283
714.4817, 893.4755
714.9638, 882.8248
715.4459, 871.2965
715.9280, 866.8497
716.4102, 870.9040
716.8923, 878.6285
717.3744, 893.3039
717.8565, 905.5924
718.3386, 902.2488
718.8207, 885.4230
719.3029, 879.8443
719.7850, 891.1906
720.2671, 905.6302
720.7492, 905.3796
721.2313, 897.1192
721.7134, 893.1994
722.1956, 902.0872
722.6777, 909.4380
723.1598, 906.1700
723.6419, 897.1849
724.1240, 892.1304
724.6061, 895.4940
725.0883, 898.3464
725.5704, 897.9390
726.0525, 896.3654
726.5346, 902.7969
727.0167, 918.9434
727.4988, 929.4102
727.9810, 924.2955
728.4631, 910.6176
728.9452, 906.0540
729.4273, 909.2399
729.9094, 911.4017
730.3915, 904.2170
730.8737, 895.9016
731.3558, 892.9442
731.8379, 895.8144
732.3200, 900.5785
732.8021, 909.6003
733.2842, 917.1860
733.7664, 920.0753
734.2485, 917.0460
734.7306, 915.7482
735.2127, 916.5417
735.6948, 918.2197
736.1769, 919.8555
736.6591, 921.4807
737.1412, 923.0732
737.6233, 924.5353
738.1054, 926.7158
738.5875, 931.8347
739.0696, 937.7326
739.5518, 941.2398
740.0339, 940.9316
740.5161, 939.4972
740.9982, 937.0162
741.4803, 934.3414
741.9624, 932.5305
742.4445, 930.0232
742.9266, 931.6543
743.4088, 940.1873
743.8909, 951.0174
744.3730, 952.8622
744.8551, 945.6471
745.3372, 945.4780
745.8193, 962.6705
746.3015, 981.8101
746.7836, 972.2532
747.2657, 943.9564
747.7478, 926.2394
748.2299, 945.3004
748.7120, 967.7510
749.1942, 977.8242
749.6763, 976.1276
750.1584, 967.1305
750.6405, 938.4933
751.1226, 919.7591
751.6047, 923.1728
752.0869, 946.2037
752.5690, 961.7797
753.0511, 969.3177
753.5332, 973.7512
754.0153, 977.5050
754.4974, 980.4812
754.9796, 982.6119
755.4617, 983.8670
755.9438, 984.0414
756.4259, 982.5980
756.9080, 980.2972
757.3901, 976.9725
757.8723, 971.8802
758.3544, 970.1928
758.8365, 974.6713
759.3186, 981.1072
759.8007, 987.2011
760.2828, 992.7792
760.7650, 999.7596
761.2471, 1009.516
761.7292, 1016.269
762.2113, 1010.293
762.6934, 996.2018
763.1755, 988.7781
763.6577, 990.7515
764.1398, 997.6113
764.6219, 1010.898
765.1040, 1024.902
765.5861, 1032.645
766.0682, 1027.165
766.5504, 1023.904
767.0325, 1025.934
767.5146, 1031.133
767.9967, 1038.135
768.4788, 1048.502
768.9609, 1053.802
769.4431, 1051.234
769.9252, 1046.019
770.4073, 1046.636
770.8894, 1052.263
771.3715, 1059.510
771.8536, 1068.144
772.3358, 1076.665
772.8179, 1085.852
773.3000, 1093.742
773.7821, 1096.447
774.2642, 1083.602
774.7463, 1076.100
775.2285, 1081.290
775.7106, 1094.839
776.1927, 1105.980
776.6748, 1114.455
777.1569, 1121.446
777.6390, 1127.213
778.1212, 1131.823
778.6033, 1135.436
779.0854, 1138.026
779.5675, 1139.606
780.0496, 1140.056
780.5317, 1139.589
781.0139, 1136.348
781.4960, 1131.663
781.9781, 1131.840
782.4602, 1142.632
782.9423, 1154.741
783.4244, 1164.019
783.9066, 1171.106
784.3887, 1184.605
784.8708, 1206.294
785.3529, 1227.071
785.8350, 1241.201
786.3171, 1250.527
786.7993, 1262.737
787.2814, 1277.385
787.7635, 1289.755
788.2456, 1298.566
788.7277, 1302.573
789.2098, 1296.084
789.6920, 1278.453
790.1741, 1272.623
790.6562, 1293.348
791.1383, 1318.751
791.6204, 1340.760
792.1025, 1359.441
792.5847, 1369.711
793.0668, 1369.115
793.5489, 1370.483
794.0310, 1386.685
794.5131, 1412.437
794.9952, 1431.767
795.4774, 1443.751
795.9595, 1459.285
796.4416, 1490.644
796.9237, 1526.115
797.4058, 1555.511
797.8879, 1576.998
798.3701, 1595.046
798.8522, 1607.109
799.3343, 1619.587
799.8164, 1635.677
800.2985, 1654.790
800.7806, 1684.240
801.2628, 1726.444
801.7449, 1769.223
802.2270, 1793.156
802.7091, 1809.903
803.1912, 1846.231
803.6733, 1909.428
804.1555, 1970.520
804.6376, 2007.874
805.1197, 2037.141
805.6018, 2071.969
806.0839, 2112.444
806.5660, 2163.900
807.0482, 2232.578
807.5303, 2304.413
808.0124, 2362.458
808.4945, 2406.702
808.9766, 2461.455
809.4587, 2530.184
809.9409, 2606.498
810.4230, 2688.474
810.9051, 2772.669
811.3872, 2852.969
811.8693, 2925.784
812.3514, 3000.566
812.8336, 3083.206
813.3157, 3169.126
813.7978, 3251.883
814.2799, 3327.325
814.7620, 3410.796
815.2441, 3505.431
815.7263, 3602.248
816.2084, 3686.969
816.6905, 3761.907
817.1726, 3844.256
817.6547, 3940.070
818.1368, 4031.373
818.6190, 4095.434
819.1011, 4147.185
819.5832, 4208.165
820.0653, 4303.079
820.5474, 4376.332
821.0295, 4401.915
821.5117, 4408.400
821.9938, 4425.906
822.4759, 4458.025
822.9580, 4486.946
823.4401, 4512.642
823.9222, 4528.708
824.4044, 4521.500
824.8865, 4497.065
825.3686, 4472.964
825.8507, 4458.865
826.3328, 4433.628
826.8149, 4374.695
827.2971, 4299.571
827.7792, 4231.569
828.2613, 4186.622
828.7434, 4131.456
829.2255, 4061.581
829.7076, 3983.776
830.1898, 3904.049
830.6719, 3823.043
831.1540, 3747.388
831.6361, 3681.094
832.1182, 3612.937
832.6003, 3524.216
833.0825, 3425.894
833.5646, 3335.076
834.0467, 3259.809
834.5288, 3189.194
835.0109, 3117.239
835.4930, 3048.505
835.9752, 2988.500
836.4573, 2942.057
836.9394, 2893.103
837.4215, 2840.723
837.9036, 2784.900
838.3857, 2723.280
838.8679, 2657.469
839.3500, 2595.433
839.8321, 2539.045
840.3142, 2488.547
840.7963, 2445.986
841.2784, 2408.778
841.7606, 2374.438
842.2427, 2349.006
842.7248, 2315.818
843.2069, 2264.122
843.6890, 2213.290
844.1711, 2192.794
844.6533, 2204.866
845.1354, 2198.669
845.6175, 2164.774
846.0996, 2121.722
846.5817, 2088.086
847.0638, 2061.592
847.5460, 2038.696
848.0281, 2018.157
848.5102, 2001.539
848.9923, 1999.164
849.4744, 1995.547
849.9565, 1972.318
850.4387, 1913.252
850.9208, 1877.853
851.4029, 1874.817
851.8850, 1881.436
852.3671, 1868.882
852.8492, 1842.957
853.3314, 1827.263
853.8135, 1827.431
854.2956, 1827.205
854.7777, 1808.575
855.2598, 1785.643
855.7419, 1773.698
856.2241, 1784.069
856.7062, 1786.266
857.1883, 1776.713
857.6704, 1760.942
858.1525, 1741.604
858.6346, 1718.406
859.1168, 1700.875
859.5989, 1689.971
860.0810, 1681.819
860.5631, 1673.049
861.0452, 1664.680
861.5273, 1659.013
862.0095, 1657.254
862.4916, 1652.861
862.9737, 1635.990
863.4558, 1621.796
863.9379, 1622.650
864.4200, 1644.367
864.9022, 1650.794
865.3843, 1639.525
865.8664, 1622.209
866.3485, 1603.863
866.8306, 1587.704
867.3127, 1583.292
867.7949, 1591.029
868.2770, 1599.425
868.7591, 1604.717
869.2412, 1605.432
869.7233, 1598.103
870.2054, 1579.985
870.6876, 1572.024
871.1697, 1579.315
871.6518, 1586.913
872.1339, 1585.751
872.6160, 1577.203
873.0981, 1571.136
873.5803, 1567.338
874.0624, 1562.863
874.5445, 1552.907
875.0266, 1543.347
875.5087, 1540.801
875.9908, 1544.854
876.4730, 1546.624
876.9551, 1536.384
877.4372, 1533.010
877.9193, 1548.448
878.4014, 1576.840
878.8835, 1575.121
879.3657, 1542.489
879.8478, 1515.776
880.3299, 1521.753
880.8120, 1540.451
881.2941, 1544.403
881.7763, 1536.909
882.2584, 1529.606
882.7405, 1524.922
883.2227, 1523.777
883.7048, 1530.281
884.1869, 1540.164
884.6690, 1539.549
885.1511, 1525.672
885.6332, 1515.850
886.1154, 1517.235
886.5975, 1522.939
887.0796, 1521.442
887.5617, 1514.061
888.0438, 1504.248
888.5259, 1484.082
889.0081, 1472.662
889.4902, 1489.650
889.9723, 1518.337
890.4544, 1524.897
890.9365, 1493.947
891.4186, 1481.166
891.9008, 1500.527
892.3829, 1528.766
892.8650, 1526.020
893.3471, 1500.483
893.8292, 1480.796
894.3113, 1475.048
894.7935, 1474.345
895.2756, 1478.037
895.7577, 1480.702
896.2398, 1475.546
896.7219, 1448.838
897.2040, 1437.700
897.6862, 1447.588
898.1683, 1464.187
898.6504, 1475.066
899.1325, 1480.074
899.6146, 1475.703
900.0967, 1460.877
900.5789, 1445.271
901.0610, 1433.883
901.5431, 1427.210
902.0252, 1427.372
902.5073, 1437.007
902.9894, 1440.469
903.4716, 1428.689
903.9537, 1420.636
904.4358, 1430.965
904.9179, 1458.077
905.4000, 1467.837
905.8821, 1460.071
906.3643, 1449.709
906.8464, 1446.526
907.3285, 1446.680
907.8106, 1444.108
908.2927, 1439.633
908.7748, 1442.672
909.2570, 1469.314
909.7391, 1488.417
910.2212, 1486.084
910.7033, 1468.383
911.1854, 1467.198
911.6675, 1483.014
912.1497, 1499.798
912.6318, 1511.717
913.1139, 1519.267
913.5960, 1519.156
914.0781, 1515.187
914.5602, 1516.616
915.0424, 1531.515
915.5245, 1546.819
916.0066, 1561.100
916.4887, 1572.873
916.9708, 1578.038
917.4529, 1575.814
917.9351, 1575.348
918.4172, 1578.545
918.8993, 1584.003
919.3814, 1589.188
919.8635, 1595.477
920.3456, 1606.051
920.8278, 1625.806
921.3099, 1640.669
921.7920, 1640.574
922.2741, 1637.823
922.7562, 1643.547
923.2383, 1659.893
923.7205, 1672.793
924.2026, 1681.156
924.6847, 1689.491
925.1668, 1707.933
925.6489, 1726.829
926.1310, 1725.852
926.6132, 1702.074
927.0953, 1686.475
927.5774, 1695.866
928.0595, 1713.610
928.5416, 1732.233
929.0237, 1751.734
929.5059, 1765.465
929.9880, 1772.760
930.4701, 1779.558
930.9522, 1790.417
931.4343, 1802.320
931.9164, 1807.229
932.3986, 1807.932
932.8807, 1815.383
933.3628, 1841.917
933.8449, 1867.864
934.3270, 1883.740
934.8091, 1894.116
935.2913, 1910.772
935.7734, 1935.178
936.2555, 1956.051
936.7376, 1968.062
937.2197, 1980.990
937.7018, 2014.486
938.1840, 2059.389
938.6661, 2096.302
939.1482, 2115.783
939.6303, 2134.200
940.1124, 2156.967
940.5945, 2181.251
941.0767, 2203.132
941.5588, 2220.902
942.0409, 2247.893
942.5230, 2285.807
943.0051, 2326.128
943.4872, 2360.453
943.9694, 2391.952
944.4515, 2425.732
944.9336, 2462.301
945.4157, 2500.295
945.8978, 2543.828
946.3799, 2582.853
946.8621, 2608.852
947.3442, 2622.778
947.8263, 2655.531
948.3084, 2709.200
948.7905, 2761.977
949.2726, 2798.657
949.7548, 2828.769
950.2369, 2862.216
950.7190, 2900.886
951.2011, 2950.952
951.6832, 3041.963
952.1653, 3110.735
952.6475, 3129.387
953.1296, 3122.500
953.6117, 3145.008
954.0938, 3198.310
954.5759, 3243.052
955.0580, 3269.341
955.5402, 3286.844
956.0223, 3307.142
956.5044, 3326.093
956.9865, 3337.459
957.4686, 3337.756
957.9507, 3334.241
958.4329, 3333.032
958.9150, 3323.479
959.3971, 3296.981
959.8792, 3253.225
960.3613, 3197.242
960.8434, 3128.376
961.3256, 3055.742
961.8077, 2985.781
962.2898, 2915.435
962.7719, 2842.833
963.2540, 2767.435
963.7361, 2681.502
964.2183, 2573.390
964.7004, 2469.801
965.1825, 2382.295
965.6646, 2306.175
966.1467, 2226.641
966.6288, 2145.102
967.1110, 2067.556
967.5931, 1996.810
968.0752, 1930.597
968.5573, 1867.858
969.0394, 1808.159
969.5215, 1749.701
970.0037, 1687.448
970.4858, 1636.738
970.9679, 1603.136
971.4500, 1574.202
971.9321, 1531.962
972.4142, 1480.939
972.8964, 1440.082
973.3785, 1412.508
973.8606, 1388.732
974.3427, 1363.660
974.8248, 1339.003
975.3069, 1316.824
975.7891, 1297.556
976.2712, 1276.412
976.7533, 1251.774
977.2354, 1230.417
977.7175, 1216.839
978.1996, 1208.630
978.6818, 1201.299
979.1639, 1194.049
979.6460, 1183.696
980.1281, 1167.422
980.6102, 1149.099
981.0923, 1123.962
981.5745, 1099.813
982.0566, 1094.262
982.5387, 1112.017
983.0208, 1125.023
983.5029, 1129.877
983.9850, 1123.701
984.4672, 1092.479
984.9493, 1051.425
985.4314, 1025.676
985.9135, 1023.132
986.3956, 1025.289
986.8777, 1033.720
987.3599, 1038.688
987.8420, 1033.060
988.3241, 1016.775
988.8062, 1003.609
989.2883, 993.5111
989.7704, 991.4661
990.2526, 1008.372
990.7347, 1029.336
991.2168, 1040.180
991.6989, 1041.759
992.1810, 1038.969
992.6631, 1028.174
993.1453, 1020.061
993.6274, 1017.200
994.1095, 1017.531
994.5916, 1016.699
995.0737, 1015.271
995.5558, 1016.479
996.0380, 1021.983
996.5201, 1027.494
997.0022, 1028.819
997.4843, 1029.182
997.9664, 1032.625
998.4485, 1033.585
998.9307, 1045.736
999.4128, 1051.358
999.8949, 1050.801
1000.377, 1025.560
1000.859, 1032.195
1001.341, 1026.055
1001.823, 1019.392
1002.305, 1030.513
1002.788, 1008.857
1003.270, 1019.695
1003.752, 1017.565
1004.234, 1021.370
1004.716, 1012.323
1005.198, 1007.245
1005.680, 1015.024
1006.162, 1015.684
1006.645, 1005.151
1007.127, 1009.334
1007.609, 987.2348
1008.091, 988.1982
1008.573, 975.1603
1009.055, 962.3924
1009.537, 945.7581
1010.019, 932.3624
1010.501, 927.4095
1010.984, 930.4690
1011.466, 941.1650
1011.948, 958.5576
1012.430, 967.9648
1012.912, 950.9542
1013.394, 930.3967
1013.876, 922.0442
1014.358, 924.3602
1014.841, 926.9612
1015.323, 930.8133
1015.805, 930.9319
1016.287, 925.0588
1016.769, 917.3143
1017.251, 914.1404
1017.733, 914.4750
1018.215, 917.1004
1018.697, 924.0182
1019.180, 925.7162
1019.662, 913.8256
1020.144, 898.8005
1020.626, 886.2624
1021.108, 875.8240
1021.590, 878.8574
1022.072, 895.9546
1022.554, 912.3304
1023.037, 919.0572
1023.519, 919.0416
1024.001, 909.1227
1024.483, 894.1415
1024.965, 892.2715
1025.447, 924.9741
1025.929, 941.7771
1026.411, 929.7475
1026.893, 905.1640
1027.376, 896.4238
1027.858, 899.8640
1028.340, 901.4888
1028.822, 897.8651
1029.304, 895.5644
1029.786, 904.2628
1030.268, 911.7314
1030.750, 905.7489
1031.233, 884.6635
1031.715, 873.5778
1032.197, 861.6321
1032.679, 876.4994
1033.161, 884.8372
1033.643, 886.9964
1034.125, 864.4712
1034.607, 873.8207
1035.089, 870.3963
1035.572, 866.4480
1036.054, 880.2838
1036.536, 861.3488
1037.018, 874.9026
1037.500, 875.4874
1037.982, 882.0078
1038.464, 875.6754
1038.946, 873.3128
1039.428, 883.8071
1039.911, 887.1824
1040.393, 879.3704
1040.875, 886.2681
1041.357, 866.8842
1041.839, 870.5627
1042.321, 884.1917
1042.803, 877.0259
1043.285, 884.1586
1043.768, 885.8456
1044.250, 862.7845
1044.732, 882.7629
1045.214, 884.1281
1045.696, 866.3817
1046.178, 884.8854
1046.660, 869.7737
1047.142, 866.6606
1047.625, 872.5772
1048.107, 869.0807
1048.589, 880.4252
1049.071, 877.4723
1049.553, 873.2420
1050.035, 874.5864
1050.517, 860.1339
1050.999, 874.9877
1051.481, 869.8229
1051.964, 874.6088
1052.446, 881.6503
1052.928, 871.4214
1053.410, 879.4764
1053.892, 859.1776
1054.374, 862.6033
1054.856, 863.4744
1055.338, 879.5098
1055.820, 859.3492
1056.303, 862.1157
1056.785, 874.6444
1057.267, 873.5137
1057.749, 878.0941
1058.231, 865.7673
1058.713, 869.3235
1059.195, 868.5018
1059.677, 882.8083
1060.160, 885.1716
1060.642, 873.1318
1061.124, 861.1529
1061.606, 876.5482
1062.088, 865.9980
1062.570, 869.4451
1063.052, 858.4359
1063.534, 859.9086
1064.016, 861.1834
1064.499, 868.8566
1064.981, 857.1279
1065.463, 870.5667
1065.945, 869.4593
1066.427, 872.6368
1066.909, 875.3376
1067.391, 858.5188
1067.873, 857.7014
1068.355, 879.7805
1068.838, 866.9412
1069.320, 861.1497
1069.802, 860.3682
1070.284, 883.2314
1070.766, 884.1171
1071.248, 858.7332
1071.730, 880.5544
1072.212, 873.3340
1072.695, 874.7438
1073.177, 873.0051
1073.659, 872.1983
1074.141, 859.5359
1074.623, 862.4970
1075.105, 878.1617
1075.587, 872.1688
1076.069, 880.8921
1076.552, 862.7957
1077.034, 860.6190
1077.516, 862.6680
1077.998, 866.2581
1078.480, 857.5344
1078.962, 873.4366
1079.444, 872.9423
1079.926, 858.2387
1080.408, 858.9490
1080.891, 857.1000
1081.373, 881.8945
1081.855, 870.0574
1082.337, 855.6264
1082.819, 870.2352
1083.301, 875.5361
1083.783, 868.2534
1084.265, 867.6573
1084.747, 845.0112
1085.230, 860.3453
1085.712, 869.1490
1086.194, 871.7739
1086.676, 849.7146
1087.158, 859.5299
1087.640, 856.5714
1088.122, 853.0889
1088.604, 867.3906
1089.087, 848.9224
1089.569, 862.9419
1090.051, 863.9926
1090.533, 870.9788
1091.015, 865.1122
1091.497, 863.2153
1091.979, 874.1756
1092.461, 878.0168
1092.943, 870.6705
1093.426, 878.0350
1093.908, 859.1168
1094.390, 863.2612
1094.872, 877.3560
1095.354, 870.6561
1095.836, 878.2546
1096.318, 880.4074
1096.800, 857.8121
1097.283, 878.2572
1097.765, 880.0883
1098.247, 862.8076
1098.729, 881.7772
1099.211, 867.1313
1099.693, 864.4840
1100.175, 870.8666
1100.657, 889.3632
1101.140, 897.3785
1101.622, 878.6057
1102.104, 866.2783
1102.586, 860.9679
1103.068, 860.9750
1103.550, 869.0825
1104.032, 879.8986
1104.514, 882.1160
1104.996, 876.7368
1105.479, 870.0872
1105.961, 861.4106
1106.443, 856.0672
1106.925, 855.6116
1107.407, 858.1274
1107.889, 861.0950
1108.371, 864.4058
1108.853, 867.2905
1109.335, 869.6451
1109.818, 872.0395
1110.300, 874.0081
1110.782, 877.0261
1111.264, 883.4874
1111.746, 892.0544
1112.228, 894.7397
1112.710, 891.4925
1113.192, 884.5814
1113.675, 873.9027
1114.157, 862.1621
1114.639, 845.7368
1115.121, 833.2549
1115.603, 838.0092
1116.085, 869.8301
1116.567, 886.1174
1117.049, 884.7548
1117.531, 876.2371
1118.014, 860.6156
1118.496, 846.2794
1118.978, 852.7474
1119.460, 871.8087
1119.942, 882.4544
1120.424, 868.8035
1120.906, 859.2743
1121.388, 856.9363
1121.870, 858.3436
1122.353, 860.9418
1122.835, 864.0662
1123.317, 865.0858
1123.799, 864.0851
1124.281, 864.1826
1124.763, 868.3972
1125.245, 872.5153
1125.727, 876.8754
1126.210, 878.9945
1126.692, 870.0739
1127.174, 851.9175
1127.656, 841.1213
1128.138, 841.4495
1128.620, 848.2059
1129.102, 867.9225
1129.584, 884.6672
1130.067, 881.3351
1130.549, 860.3796
1131.031, 858.0248
1131.513, 875.9607
1131.995, 885.5229
1132.477, 868.7430
1132.959, 850.5325
1133.441, 862.6899
1133.923, 887.1470
1134.406, 897.6959
1134.888, 885.0947
1135.370, 877.9826
1135.852, 877.2524
1136.334, 878.6530
1136.816, 881.3172
1137.298, 883.0677
1137.780, 877.0574
1138.262, 867.1047
1138.745, 864.1953
1139.227, 884.9861
1139.709, 891.5404
1140.191, 876.3486
1140.673, 855.8083
1141.155, 845.9955
1141.637, 845.6611
1142.119, 856.8693
1142.602, 877.8978
1143.084, 889.5557
1143.566, 869.9084
1144.048, 858.2287
1144.530, 869.5871
1145.012, 890.6716
1145.494, 894.7778
1145.976, 885.1812
1146.458, 876.4593
1146.941, 870.9957
1147.423, 868.8928
1147.905, 872.7783
1148.387, 877.5693
1148.869, 880.2745
1149.351, 881.3327
1149.833, 883.5275
1150.315, 886.6605
1150.797, 887.6086
1151.280, 884.5347
1151.762, 881.0609
1152.244, 881.4219
1152.726, 881.6666
1153.208, 877.0405
1153.690, 866.7219
1154.172, 860.4714
1154.654, 858.3029
1155.137, 859.0199
1155.619, 861.9956
1156.101, 867.4973
1156.583, 878.8149
1157.065, 891.9297
1157.547, 898.8021
1158.029, 895.9111
1158.511, 897.3019
1158.994, 904.4410
1159.476, 909.7119
1159.958, 905.9930
1160.440, 897.3193
1160.922, 885.4122
1161.404, 872.6788
1161.886, 868.0631
1162.368, 879.2125
1162.850, 883.8195
1163.333, 877.8533
1163.815, 868.5644
1164.297, 859.9778
1164.779, 855.8798
1165.261, 867.5980
1165.743, 894.4755
1166.225, 910.2803
1166.707, 900.6437
1167.189, 892.7072
1167.672, 893.4796
1168.154, 897.9850
1168.636, 897.7535
1169.118, 894.1432
1169.600, 889.9879
1170.082, 885.7494
1170.564, 881.3314
1171.046, 875.3074
1171.529, 871.0660
1172.011, 871.4012
1172.493, 873.4050
1172.975, 864.3599
1173.457, 849.4334
1173.939, 847.0829
1174.421, 869.8179
1174.903, 887.4122
1175.385, 883.3248
1175.868, 874.2594
1176.350, 867.3888
1176.832, 863.6825
1177.314, 874.9595
1177.796, 897.5464
1178.278, 911.1045
1178.760, 900.7249
1179.242, 887.2626
1179.724, 874.6052
1180.207, 867.2331
1180.689, 871.8000
1181.171, 888.0802
1181.653, 897.3237
1182.135, 899.5185
1182.617, 896.4298
1183.099, 879.9054
1183.581, 868.6010
1184.064, 880.1690
1184.546, 898.9421
1185.028, 901.1079
1185.510, 886.0938
1185.992, 871.7479
1186.474, 859.2188
1186.956, 854.9245
1187.438, 870.3298
1187.921, 888.7944
1188.403, 901.5792
1188.885, 908.1062
1189.367, 907.3310
1189.849, 898.9714
1190.331, 884.7428
1190.813, 863.4047
1191.295, 851.5289
1191.777, 877.7070
1192.260, 907.0602
1192.742, 905.9615
1193.224, 880.6860
1193.706, 876.6973
1194.188, 896.9204
1194.670, 908.2830
1195.152, 901.7623
1195.634, 890.0781
1196.116, 880.8017
1196.599, 875.9134
1197.081, 879.9971
1197.563, 892.8047
1198.045, 885.0598
1198.527, 899.7975
1199.009, 908.0057
1199.491, 910.0353
1199.973, 887.3804
1200.456, 896.6000
1200.938, 893.0460
1201.420, 888.9682
1201.902, 902.6744
1202.384, 883.6099
1202.866, 897.0340
1203.348, 897.4893
1203.830, 903.8801
1204.313, 897.4177
1204.795, 894.9254
1205.277, 905.2902
1205.759, 908.5359
1206.241, 900.5944
1206.723, 907.3624
1207.205, 887.8490
1207.687, 891.3979
1208.169, 904.8973
1208.651, 897.6019
1209.134, 904.6047
1209.616, 906.1622
1210.098, 882.9714
1210.580, 902.8203
1211.062, 904.0558
1211.544, 886.1799
1212.026, 904.5540
1212.508, 889.3126
1212.991, 886.0696
1213.473, 891.8568
1213.955, 888.2307
1214.437, 899.4456
1214.919, 896.3631
1215.401, 892.0032
1215.883, 893.2180
1216.365, 878.6358
1216.848, 893.3597
1217.330, 888.0653
1217.812, 892.7217
1218.294, 899.6336
1218.776, 889.2752
1219.258, 897.2006
1219.740, 876.7722
1220.222, 880.0684
1220.704, 880.8099
1221.187, 896.7153
1221.669, 876.4251
1222.151, 879.0621
1222.633, 891.4612
1223.115, 890.2010
1223.597, 894.6517
1224.079, 882.1954
1224.561, 885.6220
1225.043, 884.6707
1225.526, 898.8473
1226.008, 889.2075
1226.490, 904.3833
1226.972, 913.0297
1227.454, 915.4974
1227.936, 893.2808
1228.418, 902.9389
1228.900, 899.8231
1229.383, 896.1840
1229.865, 910.3284
1230.347, 891.7020
1230.829, 905.5643
1231.311, 906.4578
1231.793, 913.2867
1232.275, 907.2629
1232.757, 905.2089
1233.240, 916.0123
1233.722, 919.6963
1234.204, 912.1928
1234.686, 919.3992
1235.168, 900.3238
1235.650, 904.3110
1236.132, 918.2485
1236.614, 911.3913
1237.096, 918.8326
1237.579, 920.8287
1238.061, 898.0762
1238.543, 918.3632
1239.025, 920.0370
1239.507, 902.5991
1239.989, 921.4114
1240.471, 906.6083
1240.953, 903.8038
1241.436, 910.0297
1241.918, 906.8417
1242.400, 918.4948
1242.882, 915.8505
1243.364, 911.9288
1243.846, 913.5817
1244.328, 899.4377
1244.810, 914.6002
1245.292, 909.7439
1245.775, 914.8391
1246.257, 922.1891
1246.739, 912.2689
1247.221, 920.6324
1247.703, 900.6422
1248.185, 904.3766
1248.667, 905.5562
1249.149, 921.9001
1249.631, 902.0481
1250.114, 905.1238
1250.596, 917.9611
1251.078, 917.1390
1251.560, 922.0280
1252.042, 910.0098
1252.524, 913.8746
1253.006, 913.3614
1253.488, 927.9765
1253.971, 930.6490
1254.453, 918.9178
1254.935, 907.2475
1255.417, 922.9514
1255.899, 912.7097
1256.381, 916.4653
1256.863, 905.7648
1257.345, 907.5460
1257.828, 909.1300
1258.310, 917.1119
1258.792, 905.6917
1259.274, 919.4391
1259.756, 918.6403
1260.238, 922.1264
1260.720, 925.1357
1261.202, 908.6255
1261.684, 908.1167
1262.167, 930.5048
1262.649, 917.9743
1263.131, 912.4913
1263.613, 912.0185
1264.095, 935.1902
1264.577, 936.3845
1265.059, 911.3091
1265.541, 933.4390
1266.023, 926.5272
1266.506, 928.2462
1266.988, 926.8160
1267.470, 926.3178
1267.952, 913.9639
1268.434, 917.2336
1268.916, 933.2069
1269.398, 927.5225
1269.880, 936.5544
1270.363, 918.7673
1270.845, 916.8991
1271.327, 935.7601
1271.809, 942.4315
1272.291, 943.1642
1272.773, 944.2703
1273.255, 946.7109
1273.737, 948.3757
1274.219, 946.3643
1274.702, 943.0981
1275.184, 940.7878
1275.666, 939.5011
1276.148, 938.3860
1276.630, 936.9886
1277.112, 938.6988
1277.594, 944.2448
1278.076, 949.8441
1278.558, 956.5574
1279.041, 957.9989
1279.523, 941.7335
1280.005, 917.6843
1280.487, 913.5787
1280.969, 929.9082
1281.451, 937.8101
1281.933, 933.3484
1282.415, 930.1018
1282.898, 941.4280
1283.380, 952.6726
1283.862, 954.5690
1284.344, 951.5806
1284.826, 952.6968
1285.308, 956.8764
1285.790, 956.0005
1286.272, 949.2575
1286.755, 943.8695
1287.237, 948.7430
1287.719, 948.4229
1288.201, 933.7926
1288.683, 916.9702
1289.165, 923.4854
1289.647, 943.9021
1290.129, 951.0714
1290.611, 942.7200
1291.094, 934.8024
1291.576, 931.1532
1292.058, 931.5571
1292.540, 937.0238
1293.022, 944.2672
1293.504, 950.1370
1293.986, 953.9679
1294.468, 953.0787
1294.950, 947.9212
1295.433, 947.7137
1295.915, 957.4688
1296.397, 958.3779
1296.879, 945.1329
1297.361, 930.1144
1297.843, 926.9073
1298.325, 929.5986
1298.807, 932.3079
1299.290, 935.0544
1299.772, 941.3109
1300.254, 952.2470
1300.736, 955.6977
1301.218, 948.7200
1301.700, 942.0854
1302.182, 946.8202
1302.664, 953.9868
##END=



