##NAMES=Bunsenite
##RRUFFID=R080121
##IDEAL CHEMISTRY=Ni^2+^O
##LOCALITY=Johanngeorgenstadt, Saxony, Germany
##OWNER=RRUFF
##SOURCE=William W. Pinch
##DESCRIPTION=Dark green octahedra
##STATUS=The identification of this mineral has been confirmed by single-crystal X-ray diffraction.
##URL=rruff.info/R080121
##MEASURED CHEMISTRY=Ni_1.00_O
91.00781, 7.728952
91.48993, 7.824455
91.97205, 7.862880
92.45416, 7.840457
92.93628, 7.761633
93.41840, 7.599044
93.90051, 7.283149
94.38263, 6.994533
94.86475, 7.109840
95.34686, 7.625015
95.82898, 8.151965
96.31110, 8.299644
96.79321, 8.114354
97.27533, 8.093438
97.75745, 8.397223
98.23956, 8.941672
98.72168, 9.350752
99.20380, 9.583491
99.68591, 9.796398
100.1680, 10.12930
100.6501, 10.56771
101.1323, 11.19024
101.6144, 12.08301
102.0965, 13.28230
102.5786, 14.27886
103.0607, 14.97076
103.5428, 15.55722
104.0250, 16.39796
104.5071, 17.59656
104.9892, 18.86412
105.4713, 20.09421
105.9534, 21.28930
106.4355, 22.43684
106.9177, 23.54767
107.3998, 24.61136
107.8819, 25.63155
108.3640, 26.53244
108.8461, 27.43877
109.3282, 28.42157
109.8104, 29.47159
110.2925, 30.58500
110.7746, 31.80598
111.2567, 33.10871
111.7388, 34.34258
112.2209, 35.30890
112.7031, 36.28543
113.1852, 37.47625
113.6673, 38.97308
114.1494, 40.62641
114.6315, 42.46191
115.1136, 44.50120
115.5958, 46.49897
116.0779, 48.54747
116.5600, 50.46553
117.0421, 52.04350
117.5242, 52.92403
118.0063, 53.67484
118.4885, 54.53685
118.9706, 55.50016
119.4527, 56.75523
119.9348, 58.58603
120.4169, 60.76961
120.8990, 62.92908
121.3812, 65.09734
121.8633, 67.03799
122.3454, 68.51575
122.8275, 69.50864
123.3096, 70.03751
123.7917, 69.81674
124.2739, 69.04066
124.7560, 68.42253
125.2381, 68.39439
125.7202, 68.83257
126.2023, 69.55334
126.6844, 70.61055
127.1666, 71.81718
127.6487, 72.96127
128.1308, 74.04543
128.6129, 75.03238
129.0950, 75.84341
129.5771, 76.52700
130.0593, 77.27055
130.5414, 78.18731
131.0235, 79.16972
131.5056, 79.76663
131.9877, 79.64256
132.4698, 79.20515
132.9520, 79.45167
133.4341, 80.33585
133.9162, 80.97350
134.3983, 80.88102
134.8804, 80.20652
135.3625, 80.08076
135.8447, 80.55547
136.3268, 81.41544
136.8089, 82.48818
137.2910, 83.84469
137.7731, 85.03206
138.2552, 86.05961
138.7374, 87.03461
139.2195, 86.87149
139.7016, 85.20541
140.1837, 82.76583
140.6658, 81.07222
141.1479, 80.24023
141.6301, 79.80701
142.1122, 79.58112
142.5943, 79.60447
143.0764, 79.71328
143.5585, 79.94124
144.0406, 80.24429
144.5228, 80.48680
145.0049, 80.69957
145.4870, 80.81339
145.9691, 80.78181
146.4512, 80.51031
146.9333, 80.24678
147.4155, 79.96086
147.8976, 79.66847
148.3797, 79.54774
148.8618, 79.74706
149.3439, 80.01011
149.8260, 80.17146
150.3082, 80.08219
150.7903, 80.05788
151.2724, 80.16895
151.7545, 80.41939
152.2366, 80.57910
152.7188, 80.47984
153.2009, 80.36256
153.6830, 80.42183
154.1651, 81.15913
154.6472, 81.60071
155.1293, 81.42226
155.6115, 80.54136
156.0936, 79.69719
156.5757, 78.91531
157.0578, 78.26211
157.5399, 77.82252
158.0220, 77.75260
158.5042, 77.78098
158.9863, 77.81168
159.4684, 77.82820
159.9505, 77.89294
160.4326, 78.07623
160.9147, 78.31277
161.3969, 78.50474
161.8790, 78.65507
162.3611, 78.72778
162.8432, 78.69740
163.3253, 78.54829
163.8074, 78.33575
164.2896, 78.04147
164.7717, 77.69962
165.2538, 77.37951
165.7359, 77.01139
166.2180, 76.73089
166.7001, 76.67168
167.1823, 76.94701
167.6644, 77.23992
168.1465, 77.27978
168.6286, 77.16277
169.1107, 77.16079
169.5928, 77.64009
170.0750, 78.21977
170.5571, 78.50155
171.0392, 78.32167
171.5213, 77.94612
172.0034, 77.50086
172.4855, 77.01295
172.9677, 76.61122
173.4498, 76.41631
173.9319, 76.34520
174.4140, 76.28439
174.8961, 76.21947
175.3782, 76.13570
175.8604, 75.98711
176.3425, 75.78348
176.8246, 75.61313
177.3067, 75.57497
177.7888, 75.61449
178.2709, 75.62467
178.7531, 75.59011
179.2352, 75.49754
179.7173, 75.25636
180.1994, 74.87411
180.6815, 74.57824
181.1636, 74.71323
181.6458, 75.12348
182.1279, 75.32817
182.6100, 75.01149
183.0921, 74.46204
183.5742, 74.29743
184.0563, 74.53333
184.5385, 74.88544
185.0206, 75.11496
185.5027, 75.23105
185.9848, 75.26816
186.4669, 75.24379
186.9490, 75.14926
187.4312, 74.91097
187.9133, 74.51070
188.3954, 74.11394
188.8775, 73.88125
189.3596, 73.81245
189.8417, 73.91671
190.3239, 74.30351
190.8060, 74.89590
191.2881, 75.27696
191.7702, 75.42369
192.2523, 75.44027
192.7344, 75.43448
193.2166, 75.40704
193.6987, 75.37626
194.1808, 75.36671
194.6629, 75.37204
195.1450, 75.28509
195.6271, 75.07143
196.1093, 74.85335
196.5914, 74.80207
197.0735, 74.92170
197.5556, 75.14906
198.0377, 75.50288
198.5198, 75.98710
199.0020, 76.36916
199.4841, 76.61935
199.9662, 76.81890
200.4483, 77.13672
200.9304, 77.60424
201.4125, 77.99619
201.8947, 78.14466
202.3768, 78.01400
202.8589, 78.11609
203.3410, 78.51646
203.8231, 79.06922
204.3052, 79.49736
204.7874, 79.78175
205.2695, 80.03628
205.7516, 80.33644
206.2337, 80.70948
206.7158, 80.94767
207.1979, 81.04749
207.6801, 81.01415
208.1622, 80.79458
208.6443, 80.28452
209.1264, 79.90506
209.6085, 79.94991
210.0906, 80.59570
210.5728, 80.82780
211.0549, 80.51084
211.5370, 79.85917
212.0191, 79.33630
212.5012, 78.92742
212.9833, 78.67326
213.4655, 78.64899
213.9476, 78.96249
214.4297, 79.09583
214.9118, 78.98144
215.3939, 78.71230
215.8760, 78.49738
216.3581, 78.31496
216.8403, 78.23450
217.3224, 78.32460
217.8045, 78.68198
218.2866, 78.90562
218.7687, 78.95187
219.2508, 78.86997
219.7330, 78.82446
220.2151, 78.93633
220.6972, 78.85810
221.1793, 78.34026
221.6614, 77.06343
222.1435, 76.21400
222.6257, 75.94419
223.1078, 76.07019
223.5899, 76.06960
224.0720, 75.85123
224.5541, 75.65370
225.0362, 75.63586
225.5184, 76.02161
226.0005, 76.00284
226.4826, 75.34776
226.9647, 74.33981
227.4468, 73.79655
227.9289, 74.03837
228.4111, 74.26232
228.8932, 74.06381
229.3753, 73.17834
229.8574, 72.50756
230.3395, 72.11906
230.8216, 71.94548
231.3038, 71.82072
231.7859, 71.83883
232.2680, 71.76714
232.7501, 71.45858
233.2322, 70.68077
233.7143, 70.20452
234.1965, 70.16727
234.6786, 70.40273
235.1607, 70.44900
235.6428, 70.24805
236.1249, 69.93999
236.6070, 69.55791
237.0892, 68.98260
237.5713, 68.61075
238.0534, 68.56702
238.5355, 68.69349
239.0176, 68.55762
239.4997, 67.93077
239.9819, 67.36708
240.4640, 67.16099
240.9461, 67.63053
241.4282, 67.67458
241.9103, 67.06334
242.3924, 66.10029
242.8746, 65.53652
243.3567, 65.62110
243.8388, 65.72803
244.3209, 65.60508
244.8030, 65.17534
245.2851, 64.72908
245.7673, 64.28242
246.2494, 63.81386
246.7315, 63.24713
247.2136, 62.42657
247.6957, 61.75636
248.1778, 61.43022
248.6600, 61.60543
249.1421, 61.66210
249.6242, 61.60485
250.1063, 61.42790
250.5884, 61.08795
251.0705, 60.43756
251.5527, 59.87501
252.0348, 59.59697
252.5169, 59.74242
252.9990, 59.63073
253.4811, 59.10251
253.9632, 58.41828
254.4454, 58.06466
254.9275, 58.19452
255.4096, 58.35697
255.8917, 58.39981
256.3738, 58.29142
256.8560, 58.20430
257.3381, 58.13165
257.8202, 58.08538
258.3023, 58.10687
258.7844, 58.27560
259.2665, 58.33813
259.7487, 58.19261
260.2308, 57.80571
260.7129, 57.42154
261.1950, 56.96935
261.6771, 56.59625
262.1592, 56.56259
262.6414, 57.04637
263.1235, 57.41349
263.6056, 57.42537
264.0877, 57.04499
264.5698, 56.88879
265.0519, 57.03772
265.5341, 57.29962
266.0162, 57.48633
266.4983, 57.63484
266.9804, 57.57179
267.4625, 57.13900
267.9446, 56.35106
268.4268, 56.01434
268.9089, 56.30198
269.3910, 56.74594
269.8731, 56.83181
270.3552, 56.44912
270.8373, 56.16024
271.3195, 56.13964
271.8016, 56.34643
272.2837, 56.31023
272.7658, 55.93459
273.2479, 55.53068
273.7300, 55.41737
274.2122, 55.65171
274.6943, 55.81446
275.1764, 55.78596
275.6585, 55.62053
276.1406, 55.62896
276.6227, 55.85794
277.1049, 56.10833
277.5870, 56.26534
278.0691, 56.34058
278.5512, 56.15649
279.0333, 55.57357
279.5154, 54.76892
279.9976, 54.36944
280.4797, 54.42989
280.9618, 54.60968
281.4439, 54.69559
281.9260, 54.68620
282.4081, 54.61996
282.8903, 54.48487
283.3724, 54.31334
283.8545, 54.17847
284.3366, 54.08101
284.8187, 54.01117
285.3008, 53.96787
285.7830, 53.94966
286.2651, 53.94013
286.7472, 53.93204
287.2293, 53.94249
287.7114, 54.04319
288.1935, 54.23259
288.6757, 54.34953
289.1578, 54.20665
289.6399, 53.87976
290.1220, 53.82338
290.6041, 54.13084
291.0862, 54.48541
291.5684, 54.34928
292.0505, 53.77554
292.5326, 53.27466
293.0147, 53.15464
293.4968, 53.30005
293.9789, 53.37902
294.4611, 53.38511
294.9432, 53.30984
295.4253, 53.07214
295.9074, 52.71792
296.3895, 52.44973
296.8716, 52.38614
297.3538, 52.45670
297.8359, 52.52546
298.3180, 52.59283
298.8001, 52.66444
299.2822, 52.77237
299.7643, 52.89225
300.2465, 52.95910
300.7286, 52.94314
301.2107, 52.86715
301.6928, 52.72121
302.1749, 52.51393
302.6570, 52.35692
303.1392, 52.38580
303.6213, 52.51975
304.1034, 52.62594
304.5855, 52.69720
305.0676, 52.69067
305.5497, 52.41827
306.0319, 51.96228
306.5140, 51.73730
306.9961, 52.35064
307.4782, 53.22663
307.9603, 53.65372
308.4424, 53.31023
308.9246, 52.77214
309.4067, 52.39463
309.8888, 52.16790
310.3709, 52.06005
310.8530, 52.14166
311.3351, 52.28864
311.8173, 52.41112
312.2994, 52.51406
312.7815, 52.53539
313.2636, 52.41053
313.7457, 52.18220
314.2278, 51.92426
314.7100, 51.48621
315.1921, 51.16394
315.6742, 51.13240
316.1563, 50.65839
316.6384, 51.53238
317.1205, 52.03094
317.6027, 52.17423
318.0848, 50.89821
318.5669, 51.45494
319.0490, 51.27719
319.5311, 51.06932
320.0132, 51.88400
320.4954, 50.81443
320.9775, 51.61290
321.4596, 50.95868
321.9417, 50.71322
322.4238, 51.41807
322.9059, 52.01968
323.3881, 52.27964
323.8702, 52.20809
324.3523, 52.01972
324.8344, 51.45628
325.3165, 50.97448
325.7986, 50.83859
326.2808, 51.67751
326.7629, 52.14734
327.2450, 51.86409
327.7271, 51.06980
328.2092, 50.72050
328.6913, 51.17685
329.1735, 51.76830
329.6556, 52.25413
330.1377, 52.65872
330.6198, 52.90852
331.1019, 52.96508
331.5840, 52.87707
332.0662, 52.72364
332.5483, 52.41376
333.0304, 52.16911
333.5125, 52.10076
333.9946, 52.27414
334.4767, 52.24486
334.9589, 51.86361
335.4410, 51.42560
335.9231, 51.33465
336.4052, 51.72937
336.8873, 52.11199
337.3694, 52.37258
337.8516, 52.51443
338.3336, 52.58052
338.8158, 52.54010
339.2979, 52.49158
339.7800, 52.47778
340.2621, 52.47053
340.7442, 52.75401
341.2263, 53.54319
341.7085, 54.57212
342.1906, 54.73000
342.6727, 53.86283
343.1548, 53.09819
343.6369, 53.46686
344.1190, 54.86489
344.6012, 55.56771
345.0833, 55.24593
345.5654, 54.42778
346.0475, 53.98256
346.5296, 53.89687
347.0117, 53.95348
347.4939, 54.08838
347.9760, 54.27746
348.4581, 54.43610
348.9402, 54.55134
349.4223, 54.68583
349.9044, 55.00702
350.3866, 55.43164
350.8687, 55.67783
351.3508, 55.48116
351.8329, 55.10535
352.3150, 54.96968
352.7971, 55.06882
353.2793, 55.22294
353.7614, 55.32053
354.2435, 55.37468
354.7256, 55.40319
355.2077, 55.38522
355.6898, 55.37585
356.1720, 55.45368
356.6541, 55.59374
357.1362, 55.68925
357.6183, 55.55290
358.1004, 55.41183
358.5826, 55.48959
359.0647, 55.89213
359.5468, 56.34958
360.0289, 56.75077
360.5110, 57.10273
360.9931, 57.42025
361.4753, 57.77675
361.9574, 58.04248
362.4395, 58.10731
362.9216, 57.92290
363.4037, 57.79234
363.8858, 57.80439
364.3680, 57.91660
364.8501, 58.08501
365.3322, 58.47063
365.8143, 58.73700
366.2964, 58.67911
366.7785, 58.31062
367.2607, 58.22584
367.7428, 58.74847
368.2249, 59.39268
368.7070, 59.86823
369.1891, 60.11749
369.6712, 60.26226
370.1534, 60.23029
370.6355, 60.09367
371.1176, 60.08121
371.5997, 60.25477
372.0818, 60.47069
372.5639, 60.67446
373.0461, 60.85876
373.5282, 61.05608
374.0103, 61.27879
374.4924, 61.50483
374.9745, 61.70715
375.4566, 61.90015
375.9388, 62.02421
376.4209, 62.03068
376.9030, 61.93270
377.3851, 61.94281
377.8672, 62.08250
378.3493, 62.26632
378.8315, 62.42107
379.3136, 62.54905
379.7957, 62.64838
380.2778, 62.69918
380.7599, 62.74358
381.2420, 62.91463
381.7242, 63.20937
382.2063, 63.48731
382.6884, 63.59927
383.1705, 63.60918
383.6526, 63.75100
384.1347, 64.06319
384.6169, 64.43413
385.0990, 64.75153
385.5811, 65.01329
386.0632, 65.19903
386.5453, 65.23978
387.0274, 65.22661
387.5096, 65.29725
387.9917, 65.45213
388.4738, 65.58627
388.9559, 65.58454
389.4380, 65.52156
389.9201, 65.49389
390.4023, 65.52534
390.8844, 65.61116
391.3665, 65.78922
391.8486, 66.03213
392.3307, 66.23170
392.8128, 66.31062
393.2950, 66.34449
393.7771, 66.36700
394.2592, 66.34381
394.7413, 66.41280
395.2234, 66.77166
395.7055, 67.21869
396.1877, 67.44251
396.6698, 67.12882
397.1519, 66.81588
397.6340, 66.67066
398.1161, 66.71688
398.5982, 66.77849
399.0804, 66.92129
399.5625, 67.03011
400.0446, 67.01380
400.5267, 66.68566
401.0088, 66.51470
401.4909, 66.62650
401.9731, 66.93447
402.4552, 67.05765
402.9373, 66.83056
403.4194, 66.69043
403.9015, 66.92901
404.3836, 67.75001
404.8658, 68.07706
405.3479, 67.71225
405.8300, 67.11565
406.3121, 67.02833
406.7942, 67.53324
407.2763, 67.94857
407.7585, 67.97236
408.2406, 67.71419
408.7227, 67.88094
409.2048, 68.52604
409.6869, 69.13586
410.1690, 69.15681
410.6512, 68.70898
411.1333, 68.37786
411.6154, 68.28426
412.0975, 68.33496
412.5796, 68.44053
413.0617, 68.58410
413.5439, 68.68301
414.0260, 68.69001
414.5081, 68.62550
414.9902, 68.52339
415.4723, 68.38881
415.9544, 68.19201
416.4366, 67.75998
416.9187, 67.28288
417.4008, 67.04601
417.8829, 67.41846
418.3650, 67.83398
418.8471, 67.96960
419.3293, 67.85291
419.8114, 67.66706
420.2935, 67.53975
420.7756, 67.33701
421.2577, 66.93398
421.7398, 66.07555
422.2220, 65.46430
422.7041, 65.37749
423.1862, 65.61272
423.6683, 65.80211
424.1504, 65.99587
424.6325, 66.04586
425.1147, 65.84256
425.5968, 65.33305
426.0789, 65.03468
426.5610, 65.04277
427.0431, 65.17480
427.5252, 65.27920
428.0074, 65.30467
428.4895, 65.44168
428.9716, 65.80572
429.4537, 66.26033
429.9358, 66.29499
430.4179, 65.77320
430.9001, 65.31257
431.3822, 65.31756
431.8643, 65.79892
432.3464, 65.97900
432.8285, 65.80766
433.3106, 65.49341
433.7928, 65.27132
434.2749, 65.13513
434.7570, 65.03400
435.2391, 64.96186
435.7212, 64.90791
436.2033, 64.84231
436.6855, 64.76937
437.1676, 64.72346
437.6497, 64.71456
438.1318, 64.75345
438.6139, 64.89202
439.0960, 65.18355
439.5782, 65.40898
440.0603, 65.29143
440.5424, 64.98673
441.0245, 64.78834
441.5066, 64.98059
441.9887, 65.18235
442.4709, 65.07928
442.9530, 64.68254
443.4351, 64.48245
443.9172, 64.07236
444.3993, 64.92819
444.8814, 65.40858
445.3636, 65.53370
445.8457, 64.23952
446.3278, 64.77808
446.8099, 64.58215
447.2920, 64.35612
447.7741, 65.15263
448.2563, 64.06487
448.7384, 64.84517
449.2205, 64.87978
449.7026, 65.25567
450.1847, 64.96837
450.6668, 65.26785
451.1490, 65.29782
451.6311, 64.95609
452.1132, 64.75056
452.5953, 64.78349
453.0774, 64.97638
453.5595, 65.11033
454.0417, 65.17542
454.5238, 65.27793
455.0059, 65.55308
455.4880, 65.93789
455.9701, 66.06291
456.4522, 65.88142
456.9344, 65.67207
457.4165, 65.73977
457.8986, 66.02160
458.3807, 66.35686
458.8628, 66.80167
459.3449, 67.15877
459.8271, 67.03545
460.3092, 66.56712
460.7913, 66.33168
461.2734, 66.92523
461.7555, 67.74154
462.2376, 68.26563
462.7198, 68.37769
463.2019, 68.40412
463.6840, 68.40395
464.1661, 68.43099
464.6482, 68.55032
465.1303, 68.86730
465.6125, 69.18446
466.0946, 69.42765
466.5767, 69.61072
467.0588, 69.85351
467.5409, 70.24649
468.0230, 70.62935
468.5052, 70.91909
468.9873, 71.03265
469.4694, 71.27261
469.9515, 71.71737
470.4336, 72.22050
470.9157, 72.57799
471.3979, 72.76054
471.8800, 72.88307
472.3621, 72.92988
472.8442, 72.94373
473.3263, 73.14580
473.8084, 73.54930
474.2906, 74.03682
474.7727, 74.55033
475.2548, 75.08157
475.7369, 75.59912
476.2190, 76.10661
476.7011, 76.57555
477.1833, 76.97121
477.6654, 77.30566
478.1475, 77.61193
478.6296, 77.86076
479.1117, 78.11814
479.5938, 78.46972
480.0760, 78.90389
480.5581, 79.32896
481.0402, 79.68218
481.5223, 80.01549
482.0044, 80.35870
482.4865, 80.68420
482.9687, 81.10144
483.4508, 81.66786
483.9329, 82.34532
484.4150, 83.07053
484.8971, 84.00070
485.3792, 84.80620
485.8614, 85.41071
486.3435, 85.82320
486.8256, 86.11181
487.3077, 86.12549
487.7898, 86.18893
488.2719, 86.49217
488.7541, 87.10555
489.2362, 87.72495
489.7183, 88.37922
490.2004, 88.99947
490.6825, 89.42487
491.1646, 89.62023
491.6468, 90.00967
492.1289, 90.79749
492.6110, 91.82665
493.0931, 92.70307
493.5752, 93.43032
494.0573, 94.05728
494.5395, 94.60466
495.0216, 95.08449
495.5037, 95.51982
495.9858, 95.89388
496.4679, 96.28881
496.9500, 96.70609
497.4322, 97.20308
497.9143, 97.86789
498.3964, 98.90041
498.8785, 99.96404
499.3606, 100.8464
499.8427, 101.5912
500.3249, 102.3416
500.8070, 103.1080
501.2891, 103.9348
501.7712, 104.8911
502.2533, 106.1323
502.7354, 107.0696
503.2176, 107.4125
503.6997, 107.5520
504.1818, 107.8716
504.6639, 108.4026
505.1460, 109.0627
505.6281, 109.8917
506.1103, 110.8347
506.5924, 111.6327
507.0745, 112.2430
507.5566, 112.8533
508.0387, 113.5853
508.5208, 114.4283
509.0030, 115.1578
509.4851, 115.7568
509.9672, 116.3381
510.4493, 117.0622
510.9314, 117.8767
511.4135, 118.5925
511.8957, 119.1148
512.3778, 119.5929
512.8599, 120.2229
513.3420, 120.9559
513.8242, 121.6420
514.3063, 122.1592
514.7884, 122.6439
515.2705, 123.1727
515.7526, 123.7485
516.2347, 124.4274
516.7169, 125.4280
517.1990, 126.4227
517.6811, 127.1541
518.1632, 127.2588
518.6453, 127.5319
519.1274, 128.0972
519.6096, 128.8730
520.0917, 129.7205
520.5738, 130.7138
521.0559, 131.6474
521.5380, 132.4608
522.0201, 133.1598
522.5023, 133.8418
522.9844, 134.5130
523.4665, 135.1597
523.9486, 135.7652
524.4307, 136.3343
524.9128, 136.8977
525.3950, 137.4431
525.8771, 138.0163
526.3592, 138.6970
526.8413, 139.4558
527.3234, 140.2155
527.8055, 140.9621
528.2877, 141.6677
528.7698, 142.2937
529.2519, 142.8475
529.7340, 143.3895
530.2161, 144.0180
530.6982, 144.6018
531.1804, 144.9813
531.6625, 145.0650
532.1446, 145.3587
532.6267, 146.2853
533.1088, 147.3730
533.5909, 148.1724
534.0731, 148.2984
534.5552, 148.5568
535.0373, 149.1421
535.5194, 149.8786
536.0015, 150.3272
536.4836, 150.3438
536.9658, 150.3560
537.4479, 150.5083
537.9300, 150.7926
538.4121, 151.0989
538.8942, 151.4427
539.3763, 151.7263
539.8585, 151.8913
540.3406, 151.9306
540.8227, 151.7425
541.3048, 151.2399
541.7869, 150.7709
542.2690, 150.9060
542.7512, 151.4210
543.2333, 151.7526
543.7154, 151.5699
544.1975, 151.1912
544.6796, 150.9333
545.1617, 150.7263
545.6439, 150.2696
546.1260, 149.1458
546.6081, 147.9464
547.0902, 147.0247
547.5723, 146.4887
548.0544, 145.9796
548.5366, 145.4835
549.0187, 144.9685
549.5008, 144.4158
549.9829, 143.9075
550.4650, 143.1962
550.9471, 142.1505
551.4293, 140.9523
551.9114, 140.0528
552.3935, 139.5334
552.8756, 138.9233
553.3577, 138.0313
553.8398, 136.9041
554.3220, 135.6967
554.8041, 134.3988
555.2862, 133.1996
555.7683, 132.3692
556.2504, 131.7110
556.7325, 130.7675
557.2147, 129.4333
557.6968, 128.0664
558.1789, 127.0028
558.6610, 126.0867
559.1431, 125.0995
559.6252, 123.8883
560.1074, 122.6688
560.5895, 121.4996
561.0716, 120.3808
561.5537, 119.3393
562.0358, 118.5207
562.5179, 117.6280
563.0001, 116.5073
563.4822, 115.1238
563.9643, 113.9687
564.4464, 113.1956
564.9285, 112.4342
565.4106, 111.3030
565.8928, 109.6778
566.3749, 108.5563
566.8570, 108.1368
567.3391, 107.9479
567.8212, 107.2198
568.3033, 106.0201
568.7855, 104.8831
569.2676, 103.9200
569.7497, 103.1758
570.2318, 102.8374
570.7139, 102.8158
571.1960, 102.6933
571.6782, 102.1173
572.1603, 101.4135
572.6424, 100.9151
573.1245, 100.6702
573.6066, 100.2208
574.0887, 99.06364
574.5709, 97.82364
575.0530, 96.98328
575.5351, 96.97832
576.0172, 96.82746
576.4993, 96.47269
576.9814, 95.97442
577.4636, 95.44488
577.9457, 94.92846
578.4278, 94.23826
578.9099, 93.22047
579.3920, 92.04344
579.8741, 91.44437
580.3563, 91.46909
580.8384, 91.48872
581.3205, 91.10928
581.8026, 90.43215
582.2847, 89.72916
582.7668, 89.00395
583.2490, 88.33318
583.7311, 87.76920
584.2132, 87.30421
584.6953, 86.93828
585.1774, 86.72149
585.6595, 86.49229
586.1416, 86.16622
586.6237, 85.77605
587.1058, 85.36620
587.5880, 84.98048
588.0701, 84.54060
588.5522, 83.99499
589.0343, 83.37145
589.5164, 82.79087
589.9985, 82.24435
590.4807, 81.75436
590.9628, 81.33491
591.4449, 80.98689
591.9270, 80.65554
592.4091, 80.35217
592.8912, 80.01407
593.3734, 79.56839
593.8555, 79.03201
594.3376, 78.47633
594.8197, 77.89409
595.3018, 77.37314
595.7839, 77.11838
596.2661, 76.98614
596.7482, 76.69522
597.2303, 75.90495
597.7124, 75.16519
598.1945, 74.90133
598.6766, 74.95731
599.1588, 74.88140
599.6409, 74.33105
600.1230, 73.82574
600.6051, 73.63526
601.0872, 73.79420
601.5693, 73.71873
602.0515, 73.33178
602.5336, 72.81526
603.0157, 72.24825
603.4978, 71.60770
603.9799, 71.02505
604.4620, 70.48072
604.9442, 70.04371
605.4263, 69.88605
605.9084, 69.94926
606.3905, 69.89057
606.8726, 69.57192
607.3547, 69.20679
607.8369, 69.10789
608.3190, 69.17540
608.8011, 69.15161
609.2832, 68.87968
609.7653, 68.50610
610.2474, 68.09528
610.7296, 67.65112
611.2117, 67.21176
611.6938, 66.71487
612.1759, 66.28015
612.6580, 65.96554
613.1401, 65.77310
613.6223, 65.70193
614.1044, 65.91946
614.5865, 66.03537
615.0686, 65.59645
615.5507, 64.50333
616.0328, 63.79394
616.5150, 63.65859
616.9971, 63.73162
617.4792, 63.46753
617.9613, 62.92682
618.4434, 62.37973
618.9255, 61.89117
619.4077, 61.47472
619.8898, 61.15736
620.3719, 60.92514
620.8540, 60.72755
621.3361, 60.61344
621.8182, 60.46645
622.3004, 60.19994
622.7825, 59.81340
623.2646, 59.44848
623.7467, 59.12962
624.2288, 58.84422
624.7109, 58.59104
625.1931, 58.38375
625.6752, 58.15277
626.1573, 57.88235
626.6394, 57.60963
627.1215, 57.37978
627.6036, 57.19315
628.0858, 56.97622
628.5679, 56.69286
629.0500, 56.43721
629.5321, 56.47755
630.0142, 56.68607
630.4963, 56.64432
630.9785, 55.92650
631.4606, 55.14819
631.9427, 54.91198
632.4248, 55.07149
632.9069, 55.15788
633.3890, 54.98631
633.8712, 54.69085
634.3533, 54.24342
634.8354, 53.62238
635.3175, 53.27198
635.7996, 53.37228
636.2817, 53.55128
636.7639, 53.61737
637.2460, 53.55236
637.7281, 53.46903
638.2102, 53.38428
638.6923, 53.23012
639.1744, 52.84800
639.6566, 52.29758
640.1387, 51.93238
640.6208, 51.85513
641.1029, 51.88518
641.5850, 51.82405
642.0671, 51.71824
642.5493, 51.65940
643.0314, 51.83372
643.5135, 51.92260
643.9956, 51.69233
644.4777, 51.23634
644.9598, 50.84446
645.4420, 50.60612
645.9241, 50.42054
646.4062, 50.26856
646.8883, 50.14971
647.3704, 50.03777
647.8525, 49.95403
648.3347, 49.83184
648.8168, 49.58069
649.2989, 49.20668
649.7810, 49.02928
650.2631, 49.05315
650.7452, 49.24012
651.2274, 49.75788
651.7095, 50.37632
652.1916, 50.57670
652.6737, 50.17791
653.1558, 49.67339
653.6379, 49.33804
654.1201, 49.13921
654.6022, 49.03119
655.0843, 49.14398
655.5664, 49.18013
656.0485, 49.00394
656.5306, 48.71192
657.0128, 48.51877
657.4949, 48.44044
657.9770, 48.43160
658.4591, 48.48508
658.9412, 48.59962
659.4233, 48.81582
659.9055, 49.15282
660.3876, 49.38634
660.8697, 49.32806
661.3518, 49.09060
661.8339, 48.94255
662.3160, 48.88243
662.7982, 48.85654
663.2803, 48.85062
663.7624, 48.84666
664.2445, 48.81908
664.7266, 48.75649
665.2087, 48.72218
665.6909, 48.79168
666.1730, 48.86604
666.6551, 48.85805
667.1372, 48.69128
667.6193, 48.56582
668.1014, 48.45930
668.5836, 48.41839
669.0657, 48.54011
669.5478, 48.84046
670.0299, 49.10051
670.5120, 49.27324
670.9941, 49.38845
671.4763, 49.46897
671.9584, 49.53042
672.4405, 49.63335
672.9226, 49.82837
673.4047, 50.05840
673.8868, 50.29554
674.3690, 50.52932
674.8511, 50.73016
675.3332, 50.94226
675.8153, 51.06651
676.2974, 51.00403
676.7795, 50.74370
677.2617, 50.64844
677.7438, 50.80733
678.2259, 50.99321
678.7080, 51.05814
679.1901, 50.98542
679.6722, 51.12828
680.1544, 51.52063
680.6365, 51.93795
681.1186, 52.10015
681.6007, 52.13271
682.0828, 52.40108
682.5649, 52.99137
683.0471, 53.60081
683.5292, 53.97491
684.0113, 54.21516
684.4934, 54.42548
684.9755, 54.55212
685.4576, 54.77937
685.9398, 55.22493
686.4219, 55.78109
686.9040, 56.25644
687.3861, 56.52555
687.8682, 56.98908
688.3503, 57.81119
688.8325, 58.79356
689.3146, 59.31005
689.7967, 59.35017
690.2788, 59.57866
690.7609, 60.32679
691.2430, 61.37983
691.7252, 62.46066
692.2073, 63.54620
692.6894, 64.48679
693.1715, 65.05946
693.6536, 65.56668
694.1357, 66.20180
694.6179, 66.97389
695.1000, 67.82697
695.5821, 68.74293
696.0642, 69.74351
696.5463, 70.85579
697.0284, 72.10532
697.5106, 73.31102
697.9927, 74.50477
698.4748, 75.58537
698.9569, 76.37584
699.4390, 76.92981
699.9211, 77.68230
700.4033, 78.68208
700.8854, 79.74857
701.3675, 80.71777
701.8496, 81.62930
702.3317, 82.53137
702.8138, 83.38657
703.2960, 84.34061
703.7781, 85.58898
704.2602, 86.92850
704.7423, 88.11018
705.2244, 89.16013
705.7065, 89.93266
706.1887, 90.26379
706.6708, 90.39531
707.1529, 90.81148
707.6350, 91.56363
708.1171, 92.28187
708.5992, 92.85939
709.0814, 93.36052
709.5635, 93.87710
710.0456, 94.43414
710.5277, 95.13577
711.0098, 96.24021
711.4919, 97.34815
711.9741, 98.06829
712.4562, 98.47327
712.9383, 98.88565
713.4204, 99.56493
713.9025, 100.1417
714.3846, 100.3811
714.8668, 100.3099
715.3489, 100.3999
715.8310, 100.6862
716.3131, 101.0680
716.7952, 101.5604
717.2773, 102.1385
717.7595, 102.4467
718.2416, 102.4663
718.7237, 102.5093
719.2058, 102.9557
719.6879, 103.5418
720.1700, 103.7596
720.6522, 103.5358
721.1343, 103.4299
721.6164, 104.0524
722.0985, 104.7504
722.5806, 104.9339
723.0627, 104.0582
723.5449, 103.7646
724.0270, 104.6056
724.5091, 105.5931
724.9912, 105.7227
725.4733, 104.7918
725.9554, 104.2047
726.4376, 104.1174
726.9197, 104.2861
727.4018, 104.4333
727.8839, 104.5690
728.3660, 104.7635
728.8481, 105.1370
729.3303, 105.3306
729.8124, 104.8126
730.2945, 103.9723
730.7766, 103.4093
731.2587, 103.6672
731.7408, 103.7840
732.2230, 103.2937
732.7051, 102.5846
733.1872, 102.4527
733.6693, 103.1941
734.1514, 103.6424
734.6335, 103.4426
735.1157, 102.8580
735.5978, 102.5324
736.0799, 102.4459
736.5620, 102.4308
737.0441, 102.4892
737.5262, 102.5154
738.0084, 102.4162
738.4905, 102.1871
738.9726, 101.8127
739.4547, 101.0416
739.9368, 100.3577
740.4189, 100.0012
740.9011, 99.96562
741.3832, 99.96445
741.8653, 100.1438
742.3474, 100.0804
742.8295, 99.51151
743.3116, 98.51677
743.7938, 97.77522
744.2759, 97.29253
744.7580, 96.85792
745.2401, 96.37257
745.7222, 95.82935
746.2043, 95.15686
746.6865, 94.36342
747.1686, 93.67381
747.6507, 93.29470
748.1328, 92.99331
748.6149, 92.59866
749.0970, 92.06445
749.5792, 91.64010
750.0613, 91.41867
750.5434, 91.20049
751.0255, 90.84472
751.5076, 90.34024
751.9897, 89.86881
752.4719, 89.43521
752.9540, 88.99415
753.4361, 88.46262
753.9182, 87.89075
754.4003, 87.38009
754.8824, 86.95680
755.3646, 86.52001
755.8467, 85.97461
756.3288, 85.40221
756.8109, 84.87654
757.2930, 84.30209
757.7751, 84.00723
758.2573, 84.25186
758.7394, 84.54095
759.2215, 84.35627
759.7036, 83.61118
760.1857, 82.99167
760.6678, 82.57563
761.1500, 82.26230
761.6321, 81.94191
762.1142, 81.63180
762.5963, 81.38042
763.0784, 81.22524
763.5605, 81.06145
764.0427, 80.80588
764.5248, 80.50134
765.0069, 80.20171
765.4890, 79.95789
765.9711, 79.66431
766.4532, 79.25640
766.9354, 78.83375
767.4175, 78.53791
767.8996, 78.37885
768.3817, 78.29800
768.8638, 78.30644
769.3459, 78.33926
769.8281, 78.36739
770.3102, 78.34022
770.7923, 78.08826
771.2744, 77.41350
771.7565, 76.71665
772.2386, 76.28792
772.7208, 76.01682
773.2029, 75.71116
773.6850, 75.14637
774.1671, 74.78307
774.6492, 74.77959
775.1313, 74.96339
775.6135, 74.97568
776.0956, 74.80296
776.5777, 74.53114
777.0598, 74.12293
777.5419, 73.71850
778.0240, 73.60467
778.5062, 73.70803
778.9883, 73.80201
779.4704, 73.92479
779.9525, 73.86412
780.4346, 73.39449
780.9167, 72.64446
781.3989, 71.92316
781.8810, 71.08305
782.3631, 70.55566
782.8452, 70.56571
783.3273, 70.89445
783.8094, 70.25786
784.2916, 70.88593
784.7737, 71.13864
785.2558, 71.03606
785.7379, 69.51418
786.2200, 69.82507
786.7021, 69.40146
787.1843, 68.94766
787.6664, 69.51652
788.1485, 68.20107
788.6306, 68.75368
789.1127, 69.26749
789.5948, 69.49567
790.0770, 68.66698
790.5591, 67.87662
791.0412, 67.35190
791.5233, 67.05814
792.0054, 66.94126
792.4875, 67.00806
792.9697, 66.93438
793.4518, 66.47598
793.9339, 65.88251
794.4160, 65.58726
794.8981, 65.50820
795.3802, 65.37288
795.8624, 64.93850
796.3445, 64.53012
796.8266, 64.36187
797.3087, 64.37424
797.7908, 64.23663
798.2729, 63.88465
798.7551, 63.48789
799.2372, 63.03835
799.7193, 62.60006
800.2014, 62.44078
800.6835, 62.54345
801.1656, 62.66208
801.6478, 62.75652
802.1299, 62.73587
802.6120, 62.32591
803.0941, 61.68708
803.5762, 61.32720
804.0583, 61.87724
804.5405, 62.30944
805.0226, 62.14684
805.5047, 61.53119
805.9868, 60.99345
806.4689, 60.56107
806.9510, 60.11962
807.4332, 59.56239
807.9153, 59.01677
808.3974, 58.94373
808.8795, 59.26972
809.3616, 59.57471
809.8438, 59.60976
810.3259, 59.55597
810.8080, 59.60734
811.2901, 59.69831
811.7722, 59.61287
812.2543, 59.05320
812.7365, 58.59418
813.2186, 58.42794
813.7007, 58.45803
814.1828, 58.32481
814.6649, 58.00433
815.1470, 57.69986
815.6292, 57.48745
816.1113, 57.33755
816.5934, 57.18946
817.0755, 57.05624
817.5576, 56.98424
818.0397, 57.14405
818.5219, 57.22134
819.0040, 56.97687
819.4861, 56.51318
819.9682, 56.16779
820.4503, 55.93243
820.9324, 55.87852
821.4146, 56.11269
821.8967, 56.47018
822.3788, 56.47515
822.8609, 56.15156
823.3430, 55.86715
823.8251, 55.78658
824.3073, 55.77080
824.7894, 55.66933
825.2715, 55.50246
825.7536, 55.30965
826.2357, 55.05082
826.7178, 54.83220
827.2000, 54.63995
827.6821, 54.52171
828.1642, 54.63683
828.6463, 55.13140
829.1284, 55.30472
829.6105, 54.91851
830.0927, 54.31053
830.5748, 54.08253
831.0569, 54.15491
831.5390, 54.25482
832.0211, 54.31577
832.5032, 54.33186
832.9854, 54.30943
833.4675, 54.23664
833.9496, 54.09514
834.4317, 53.68103
834.9138, 53.48610
835.3959, 53.62355
835.8781, 53.91665
836.3602, 54.15504
836.8423, 54.33456
837.3244, 54.27105
837.8065, 53.87600
838.2886, 53.40937
838.7708, 53.05111
839.2529, 52.86328
839.7350, 52.98451
840.2171, 53.68315
840.6992, 54.22111
841.1813, 54.28951
841.6635, 54.11523
842.1456, 53.94250
842.6277, 53.79691
843.1098, 53.54140
843.5919, 53.10727
844.0740, 52.72821
844.5562, 52.76980
845.0383, 53.09513
845.5204, 53.29231
846.0025, 53.28608
846.4846, 53.23747
846.9667, 53.23504
847.4489, 53.26212
847.9310, 53.31655
848.4131, 53.44711
848.8952, 53.44941
849.3773, 53.21458
849.8594, 53.00024
850.3416, 53.05913
850.8237, 53.38002
851.3058, 53.47401
851.7879, 53.31234
852.2700, 53.11483
852.7521, 52.98376
853.2343, 52.96437
853.7164, 53.16734
854.1985, 53.61009
854.6806, 53.98112
855.1627, 54.16449
855.6448, 54.25599
856.1270, 54.28608
856.6091, 54.25227
857.0912, 54.29177
857.5733, 54.42280
858.0554, 54.52005
858.5375, 54.48523
859.0197, 54.36464
859.5018, 54.17448
859.9839, 53.95706
860.4660, 53.95858
860.9481, 54.62158
861.4302, 55.25665
861.9124, 55.42588
862.3945, 55.15971
862.8766, 55.06408
863.3587, 55.20644
863.8408, 55.37215
864.3229, 55.50321
864.8051, 55.59605
865.2872, 55.53646
865.7693, 55.38171
866.2514, 55.47537
866.7335, 56.29634
867.2156, 57.12358
867.6978, 57.28571
868.1799, 57.03102
868.6620, 56.92922
869.1441, 57.16430
869.6262, 57.50382
870.1083, 57.97666
870.5905, 58.49750
871.0726, 58.87421
871.5547, 59.11576
872.0368, 59.38013
872.5189, 59.69982
873.0010, 60.07374
873.4832, 60.53672
873.9653, 61.04899
874.4474, 61.55243
874.9295, 62.13015
875.4116, 62.52988
875.8937, 62.39885
876.3759, 62.25979
876.8580, 62.63667
877.3401, 63.62421
877.8222, 64.63398
878.3043, 65.66345
878.7864, 66.55667
879.2686, 67.13046
879.7507, 67.46876
880.2328, 67.64273
880.7149, 67.62752
881.1970, 67.82461
881.6791, 68.63954
882.1613, 69.57880
882.6434, 70.26231
883.1255, 70.61711
883.6076, 71.28649
884.0897, 72.39462
884.5718, 73.41956
885.0540, 73.88428
885.5361, 74.00417
886.0182, 74.48452
886.5003, 75.28993
886.9824, 76.06631
887.4645, 76.46595
887.9467, 76.88655
888.4288, 77.63452
888.9109, 78.67474
889.3930, 79.58263
889.8751, 80.33660
890.3572, 80.94921
890.8394, 81.35761
891.3215, 81.66899
891.8036, 82.23857
892.2857, 83.00632
892.7678, 83.67415
893.2499, 84.07346
893.7321, 84.36049
894.2142, 84.64366
894.6963, 84.90429
895.1784, 85.10197
895.6605, 85.26302
896.1426, 85.29069
896.6248, 85.06590
897.1069, 84.83591
897.5890, 85.03066
898.0711, 85.60615
898.5532, 86.13098
899.0353, 86.54263
899.5175, 86.83291
899.9996, 86.98220
900.4817, 87.01628
900.9638, 86.94955
901.4459, 86.73254
901.9280, 86.57033
902.4102, 86.54851
902.8923, 86.50623
903.3744, 86.29494
903.8565, 85.90669
904.3386, 85.76147
904.8207, 85.87681
905.3029, 85.79858
905.7850, 84.85988
906.2671, 83.74329
906.7492, 83.27217
907.2313, 83.44212
907.7134, 83.50329
908.1956, 83.02705
908.6777, 82.64868
909.1598, 82.65282
909.6419, 82.92178
910.1240, 82.83884
910.6061, 82.40006
911.0883, 81.94127
911.5704, 81.60619
912.0525, 81.33073
912.5346, 80.98234
913.0167, 80.62937
913.4988, 80.42014
913.9810, 80.62804
914.4631, 80.70375
914.9452, 80.49875
915.4273, 80.13412
915.9094, 79.71504
916.3915, 79.22209
916.8737, 79.00817
917.3558, 79.15726
917.8379, 79.43550
918.3200, 79.68242
918.8021, 79.84415
919.2842, 79.80700
919.7664, 79.49813
920.2485, 79.23441
920.7306, 79.16850
921.2127, 79.12883
921.6948, 79.00210
922.1769, 78.77647
922.6591, 78.64617
923.1412, 78.62003
923.6233, 78.59330
924.1054, 78.44607
924.5875, 78.27959
925.0696, 78.28000
925.5518, 78.41187
926.0339, 78.46224
926.5160, 78.36617
926.9981, 78.13771
927.4802, 77.64684
927.9623, 77.06718
928.4445, 77.02710
928.9266, 77.58521
929.4087, 77.95667
929.8908, 77.88660
930.3729, 77.57507
930.8550, 77.16162
931.3372, 76.73366
931.8193, 76.46652
932.3014, 76.55922
932.7835, 76.56663
933.2656, 76.30333
933.7477, 75.97447
934.2299, 75.74430
934.7120, 75.61497
935.1941, 75.62725
935.6762, 75.80564
936.1583, 75.93319
936.6404, 75.65151
937.1226, 75.27915
937.6047, 75.36210
938.0868, 75.94443
938.5689, 76.21611
939.0510, 75.58280
939.5331, 74.93820
940.0153, 74.65443
940.4974, 74.66222
940.9795, 74.42686
941.4616, 73.94015
941.9437, 73.57961
942.4258, 73.54594
942.9080, 73.69874
943.3901, 73.95316
943.8722, 74.25910
944.3543, 74.50866
944.8364, 74.56319
945.3185, 74.71303
945.8007, 75.11408
946.2828, 75.51939
946.7649, 75.47836
947.2470, 75.01256
947.7291, 75.06091
948.2112, 75.82279
948.6934, 76.54520
949.1755, 76.30899
949.6576, 75.76463
950.1397, 75.64792
950.6218, 76.13133
951.1039, 76.59016
951.5861, 76.88219
952.0682, 77.22318
952.5503, 77.79219
953.0324, 78.51633
953.5145, 78.83363
953.9966, 78.77261
954.4788, 78.69942
954.9609, 78.79261
955.4430, 78.98536
955.9251, 79.15577
956.4072, 79.38532
956.8893, 79.91904
957.3715, 81.14844
957.8536, 82.03051
958.3357, 82.33849
958.8178, 82.37495
959.2999, 82.54436
959.7820, 82.84895
960.2642, 83.33095
960.7463, 84.03713
961.2284, 84.70992
961.7105, 85.12096
962.1926, 85.44857
962.6747, 85.87504
963.1569, 86.46510
963.6390, 86.87482
964.1211, 87.01922
964.6032, 87.22381
965.0853, 87.73627
965.5674, 88.44407
966.0496, 89.05250
966.5317, 89.55637
967.0138, 89.95519
967.4959, 90.01752
967.9780, 90.21498
968.4601, 90.91215
968.9423, 91.88228
969.4244, 92.58343
969.9065, 92.96864
970.3886, 93.30415
970.8707, 93.63186
971.3528, 93.94534
971.8350, 94.06773
972.3171, 94.22466
972.7992, 94.93961
973.2813, 96.48896
973.7634, 97.77026
974.2455, 98.16103
974.7277, 98.33569
975.2098, 98.67165
975.6919, 99.17007
976.1740, 99.60400
976.6561, 99.94804
977.1382, 100.7743
977.6204, 103.1983
978.1025, 105.7658
978.5846, 106.5499
979.0667, 106.0056
979.5488, 105.5190
980.0309, 105.2395
980.5131, 105.4704
980.9952, 106.4898
981.4773, 107.7856
981.9594, 108.4288
982.4415, 108.5095
982.9236, 108.8153
983.4058, 109.4963
983.8879, 110.3059
984.3700, 111.0528
984.8521, 111.8172
985.3342, 112.7090
985.8163, 113.7965
986.2985, 114.6894
986.7806, 115.3163
987.2627, 115.9074
987.7448, 116.5423
988.2269, 117.2574
988.7090, 118.3099
989.1912, 119.5830
989.6733, 120.5830
990.1554, 120.6680
990.6375, 120.8609
991.1196, 121.7518
991.6017, 123.0256
992.0839, 124.1259
992.5660, 125.0225
993.0481, 125.8779
993.5302, 126.7125
994.0123, 127.5068
994.4944, 128.1464
994.9766, 128.7716
995.4587, 129.6322
995.9408, 130.7646
996.4229, 131.8707
996.9050, 132.8692
997.3871, 133.7945
997.8693, 134.6503
998.3514, 135.4420
998.8335, 136.1392
999.3156, 136.7458
999.7977, 137.3667
1000.280, 137.9966
1000.762, 138.7227
1001.244, 139.7032
1001.726, 140.8171
1002.208, 141.8630
1002.690, 142.7149
1003.173, 143.6823
1003.655, 144.8496
1004.137, 145.9707
1004.619, 146.6428
1005.101, 147.0539
1005.583, 147.8499
1006.065, 149.0662
1006.547, 150.3575
1007.029, 151.7017
1007.512, 152.9021
1007.994, 153.7608
1008.476, 154.3658
1008.958, 155.0040
1009.440, 155.6389
1009.922, 156.5512
1010.404, 157.9084
1010.886, 159.3934
1011.369, 160.6470
1011.851, 161.7097
1012.333, 162.6338
1012.815, 163.3470
1013.297, 164.1826
1013.779, 165.3946
1014.261, 166.5273
1014.743, 167.1033
1015.225, 167.1893
1015.708, 168.1162
1016.190, 169.8343
1016.672, 171.5099
1017.154, 172.4757
1017.636, 173.2900
1018.118, 174.3742
1018.600, 175.6254
1019.082, 176.6873
1019.565, 177.4200
1020.047, 178.2452
1020.529, 179.2007
1021.011, 180.3369
1021.493, 182.0258
1021.975, 183.8887
1022.457, 185.0117
1022.939, 185.1481
1023.421, 185.3916
1023.904, 186.1143
1024.386, 187.2020
1024.868, 188.7313
1025.350, 190.6123
1025.832, 191.9256
1026.314, 192.6795
1026.796, 193.4527
1027.278, 194.5392
1027.760, 195.7424
1028.243, 196.8607
1028.725, 197.9653
1029.207, 199.1741
1029.689, 200.8535
1030.171, 202.0091
1030.653, 202.4623
1031.135, 202.7564
1031.617, 203.4099
1032.100, 204.3291
1032.582, 205.2613
1033.064, 206.2063
1033.546, 207.2807
1034.028, 208.7498
1034.510, 210.1656
1034.992, 211.2237
1035.474, 212.0834
1035.957, 213.1622
1036.439, 214.4871
1036.921, 215.7948
1037.403, 217.0467
1037.885, 218.2180
1038.367, 219.1864
1038.849, 220.0986
1039.331, 221.0846
1039.813, 222.1559
1040.296, 223.4566
1040.778, 225.1188
1041.260, 226.7354
1041.742, 228.1049
1042.224, 229.2350
1042.706, 229.9805
1043.188, 230.4385
1043.670, 231.0354
1044.152, 231.9381
1044.635, 233.0505
1045.117, 234.5665
1045.599, 236.1348
1046.081, 237.2582
1046.563, 237.8741
1047.045, 238.6646
1047.527, 239.6861
1048.009, 240.7736
1048.492, 241.7848
1048.974, 242.7744
1049.456, 243.8104
1049.938, 244.8970
1050.420, 245.9563
1050.902, 247.0974
1051.384, 247.9709
1051.866, 248.2894
1052.349, 248.6070
1052.831, 250.3308
1053.313, 252.9052
1053.795, 254.6940
1054.277, 255.0467
1054.759, 255.5846
1055.241, 257.6939
1055.723, 259.6374
1056.205, 260.0977
1056.688, 259.1317
1057.170, 259.1865
1057.652, 260.2654
1058.134, 261.5495
1058.616, 262.6643
1059.098, 263.7465
1059.580, 265.0666
1060.062, 266.4127
1060.544, 267.3585
1061.027, 267.5786
1061.509, 267.9451
1061.991, 268.4612
1062.473, 269.2013
1062.955, 270.4322
1063.437, 271.8756
1063.919, 272.8719
1064.401, 273.4294
1064.884, 274.0250
1065.366, 274.7242
1065.848, 275.6974
1066.330, 277.2379
1066.812, 278.8811
1067.294, 279.3933
1067.776, 278.9028
1068.258, 278.7663
1068.740, 279.2574
1069.223, 280.1845
1069.705, 281.9302
1070.187, 283.6609
1070.669, 284.5400
1071.151, 284.4910
1071.633, 284.7758
1072.115, 285.4685
1072.597, 286.1368
1073.079, 286.5445
1073.562, 286.8805
1074.044, 287.4493
1074.526, 288.1578
1075.008, 288.8401
1075.490, 289.3167
1075.972, 290.0424
1076.454, 291.3011
1076.936, 292.3957
1077.419, 292.6529
1077.901, 292.2652
1078.383, 292.0036
1078.865, 291.9128
1079.347, 292.2143
1079.829, 293.4686
1080.311, 294.6542
1080.793, 295.2772
1081.275, 295.5460
1081.758, 295.6953
1082.240, 295.7069
1082.722, 295.9863
1083.204, 296.6208
1083.686, 297.1446
1084.168, 297.1149
1084.650, 296.8177
1085.132, 296.4955
1085.615, 296.1678
1086.097, 295.7671
1086.579, 295.2619
1087.061, 294.7782
1087.543, 294.3009
1088.025, 293.9980
1088.507, 294.2851
1088.989, 294.9101
1089.471, 295.4729
1089.953, 295.9758
1090.436, 296.0449
1090.918, 295.2563
1091.400, 294.4981
1091.882, 294.3367
1092.364, 294.5498
1092.846, 293.8690
1093.328, 292.5522
1093.810, 291.8356
1094.293, 292.9614
1094.775, 293.8809
1095.257, 293.3346
1095.739, 292.2843
1096.221, 291.7810
1096.703, 291.9025
1097.185, 291.8597
1097.667, 291.6327
1098.150, 291.4321
1098.632, 291.7041
1099.114, 291.8168
1099.596, 290.9481
1100.078, 289.4619
1100.560, 288.5977
1101.042, 288.6771
1101.524, 288.5836
1102.006, 288.1304
1102.489, 287.6275
1102.971, 287.5006
1103.453, 287.5116
1103.935, 287.3569
1104.417, 287.0014
1104.899, 286.3386
1105.381, 285.0684
1105.863, 283.9221
1106.345, 283.1991
1106.828, 282.5808
1107.310, 281.1677
1107.792, 279.2975
1108.274, 278.1219
1108.756, 278.0474
1109.238, 277.9564
1109.720, 277.1069
1110.202, 276.2983
1110.685, 276.0197
1111.167, 276.1890
1111.649, 276.3095
1112.131, 276.3596
1112.613, 276.1160
1113.095, 275.4593
1113.577, 274.5290
1114.059, 272.9942
1114.542, 271.5018
1115.024, 270.9250
1115.506, 271.5903
1115.988, 271.3787
1116.470, 270.1949
1116.952, 269.0883
1117.434, 269.0911
1117.916, 269.2748
1118.398, 268.5043
1118.880, 267.1284
1119.363, 266.0156
1119.845, 265.3481
1120.327, 264.8020
1120.809, 264.3854
1121.291, 264.0157
1121.773, 263.6307
1122.255, 263.2295
1122.737, 262.8424
1123.220, 262.4512
1123.702, 261.9346
1124.184, 261.1862
1124.666, 260.3844
1125.148, 259.5115
1125.630, 258.6727
1126.112, 258.0145
1126.594, 257.5331
1127.077, 257.3333
1127.559, 257.4492
1128.041, 257.2588
1128.523, 256.2476
1129.005, 255.0667
1129.487, 253.8789
1129.969, 252.8078
1130.451, 252.3744
1130.933, 252.4664
1131.416, 252.1816
1131.898, 251.1593
1132.380, 250.2095
1132.862, 250.0969
1133.344, 250.0858
1133.826, 249.5599
1134.308, 248.5462
1134.790, 247.5521
1135.272, 246.5666
1135.755, 245.7812
1136.237, 245.3881
1136.719, 244.9902
1137.201, 244.0916
1137.683, 243.0388
1138.165, 242.3654
1138.647, 242.3271
1139.129, 241.5876
1139.612, 240.0462
1140.094, 238.5110
1140.576, 237.4000
1141.058, 236.6755
1141.540, 236.7342
1142.022, 237.0713
1142.504, 236.5716
1142.986, 234.2049
1143.469, 232.6551
1143.951, 232.1847
1144.433, 231.8867
1144.915, 231.0678
1145.397, 229.8255
1145.879, 228.0001
1146.361, 225.8466
1146.843, 224.3633
1147.325, 224.6394
1147.807, 224.4834
1148.290, 223.5459
1148.772, 222.2518
1149.254, 220.9964
1149.736, 219.8140
1150.218, 218.8013
1150.700, 217.9378
1151.182, 217.0163
1151.664, 215.9866
1152.147, 214.8014
1152.629, 213.3451
1153.111, 211.8508
1153.593, 210.8635
1154.075, 210.2535
1154.557, 209.3966
1155.039, 208.1768
1155.521, 207.1279
1156.004, 206.9441
1156.486, 206.5456
1156.968, 205.3197
1157.450, 203.5835
1157.932, 202.2627
1158.414, 201.3199
1158.896, 200.4995
1159.378, 199.7561
1159.860, 199.0473
1160.343, 198.4804
1160.825, 197.8105
1161.307, 196.7971
1161.789, 195.5095
1162.271, 194.4980
1162.753, 193.7497
1163.235, 192.9706
1163.717, 192.0337
1164.199, 191.0785
1164.682, 190.2271
1165.164, 189.4277
1165.646, 188.6655
1166.128, 187.9478
1166.610, 187.0350
1167.092, 185.9294
1167.574, 184.7169
1168.056, 183.3241
1168.539, 182.0362
1169.021, 181.2411
1169.503, 180.6417
1169.985, 179.8044
1170.467, 178.6594
1170.949, 177.5283
1171.431, 176.4061
1171.913, 175.4469
1172.396, 175.0535
1172.878, 174.6187
1173.360, 173.1878
1173.842, 171.3296
1174.324, 170.2051
1174.806, 170.4195
1175.288, 169.7784
1175.770, 168.0341
1176.252, 166.5021
1176.734, 166.5051
1177.217, 167.0896
1177.699, 167.4035
1178.181, 167.3104
1178.663, 166.3974
1179.145, 164.1267
1179.627, 162.2965
1180.109, 161.0825
1180.591, 160.1397
1181.074, 159.2764
1181.556, 158.4189
1182.038, 157.4350
1182.520, 156.3468
1183.002, 155.2955
1183.484, 154.3844
1183.966, 153.2695
1184.448, 151.8262
1184.931, 150.4350
1185.413, 149.6236
1185.895, 149.0861
1186.377, 148.3072
1186.859, 147.2878
1187.341, 146.4002
1187.823, 145.8105
1188.305, 145.1618
1188.787, 144.4020
1189.270, 143.5308
1189.752, 142.4439
1190.234, 141.2924
1190.716, 140.3502
1191.198, 139.6380
1191.680, 138.8732
1192.162, 137.9103
1192.644, 137.0745
1193.126, 136.5086
1193.609, 135.9757
1194.091, 135.0761
1194.573, 133.9497
1195.055, 132.7921
1195.537, 131.6215
1196.019, 130.7249
1196.501, 130.3629
1196.983, 129.9098
1197.466, 129.1608
1197.948, 128.2394
1198.430, 127.2552
1198.912, 126.2880
1199.394, 125.5241
1199.876, 125.0317
1200.358, 124.5189
1200.840, 123.9530
1201.323, 123.3045
1201.805, 122.5639
1202.287, 121.7343
1202.769, 120.7028
1203.251, 119.6183
1203.733, 118.8378
1204.215, 118.4982
1204.697, 118.1765
1205.179, 117.9120
1205.661, 117.4251
1206.144, 116.5450
1206.626, 115.4261
1207.108, 114.2665
1207.590, 113.1890
1208.072, 112.4967
1208.554, 112.3912
1209.036, 112.3229
1209.518, 112.2426
1210.001, 112.1171
1210.483, 111.9798
1210.965, 111.7375
1211.447, 111.0613
1211.929, 110.1314
1212.411, 109.3046
1212.893, 108.6427
1213.375, 108.2593
1213.858, 108.3294
1214.340, 108.3020
1214.822, 107.8050
1215.304, 107.0407
1215.786, 106.4293
1216.268, 105.9509
1216.750, 105.6064
1217.232, 105.6209
1217.714, 105.2075
1218.197, 104.0534
1218.679, 103.0549
1219.161, 102.9017
1219.643, 103.2092
1220.125, 103.2499
1220.607, 103.0637
1221.089, 102.7333
1221.571, 102.0504
1222.053, 101.7070
1222.536, 101.8614
1223.018, 102.0175
1223.500, 101.8750
1223.982, 101.4884
1224.464, 100.8110
1224.946, 99.99900
1225.428, 99.40569
1225.910, 99.17556
1226.393, 99.16476
1226.875, 99.45515
1227.357, 99.70464
1227.839, 99.64268
1228.321, 99.39134
1228.803, 99.12265
1229.285, 98.83074
1229.767, 98.49816
1230.250, 98.07492
1230.732, 97.69325
1231.214, 97.33749
1231.696, 97.08701
1232.178, 97.12064
1232.660, 97.21299
1233.142, 96.96642
1233.624, 96.54720
1234.106, 96.37373
1234.589, 96.69387
1235.071, 96.72787
1235.553, 96.40952
1236.035, 96.06788
1236.517, 95.99183
1236.999, 96.00306
1237.481, 95.85624
1237.963, 95.64814
1238.445, 95.63557
1238.928, 95.96696
1239.410, 95.93851
1239.892, 95.46957
1240.374, 95.14025
1240.856, 95.68771
1241.338, 96.30045
1241.820, 96.13335
1242.302, 95.51088
1242.785, 95.14610
1243.267, 95.11639
1243.749, 95.02721
1244.231, 94.85756
1244.713, 94.79292
1245.195, 95.15113
1245.677, 95.48134
1246.159, 95.38377
1246.641, 95.04160
1247.124, 94.78960
1247.606, 94.62624
1248.088, 94.56687
1248.570, 94.61303
1249.052, 94.77364
1249.534, 95.30311
1250.016, 95.67945
1250.498, 95.41634
1250.980, 94.90928
1251.463, 94.67329
1251.945, 94.70547
1252.427, 94.75585
1252.909, 94.80917
1253.391, 94.81609
1253.873, 94.66562
1254.355, 94.56090
1254.837, 94.62434
1255.320, 94.75033
1255.802, 94.87305
1256.284, 94.96716
1256.766, 94.73499
1257.248, 94.24264
1257.730, 94.02309
1258.212, 94.67773
1258.694, 95.19657
1259.177, 95.24090
1259.659, 95.16011
1260.141, 95.31166
1260.623, 95.63790
1261.105, 96.03654
1261.587, 96.44801
1262.069, 96.62984
1262.551, 96.30327
1263.033, 95.96057
1263.516, 95.58151
1263.998, 95.38013
1264.480, 95.74099
1264.962, 96.35143
1265.444, 96.54069
1265.926, 96.38882
1266.408, 96.26125
1266.890, 96.28017
1267.372, 96.25943
1267.855, 96.14974
1268.337, 96.14136
1268.819, 96.60549
1269.301, 97.12636
1269.783, 96.94466
1270.265, 96.35329
1270.747, 96.23051
1271.229, 96.87595
1271.712, 97.20313
1272.194, 97.11752
1272.676, 97.08006
1273.158, 97.55915
1273.640, 98.14993
1274.122, 98.45436
1274.604, 98.60243
1275.086, 98.89525
1275.568, 99.41418
1276.051, 99.49126
1276.533, 99.10563
1277.015, 98.84738
1277.497, 99.30533
1277.979, 99.78804
1278.461, 99.88501
1278.943, 99.74965
1279.425, 99.48780
1279.907, 99.10774
1280.390, 99.29964
1280.872, 99.98899
1281.354, 100.4859
1281.836, 100.2264
1282.318, 99.94682
1282.800, 99.82392
1283.282, 99.87357
1283.764, 100.2104
1284.247, 100.7467
1284.729, 100.9210
1285.211, 100.8626
1285.693, 101.0624
1286.175, 102.2453
1286.657, 102.8609
1287.139, 102.5623
1287.621, 102.0829
1288.104, 101.9497
1288.586, 102.0482
1289.068, 102.1787
1289.550, 102.3340
1290.032, 102.4971
1290.514, 102.6316
1290.996, 102.8520
1291.478, 103.1761
1291.960, 103.5243
1292.443, 103.9187
1292.925, 104.2399
1293.407, 104.2819
1293.889, 104.1721
1294.371, 104.1077
1294.853, 104.0934
1295.335, 104.1778
1295.817, 104.3618
1296.299, 104.5961
1296.782, 104.9027
1297.264, 105.1716
1297.746, 105.2865
1298.228, 105.3487
1298.710, 105.4780
1299.192, 105.6710
1299.674, 105.8126
1300.156, 105.9012
1300.639, 105.9098
1301.121, 105.7549
1301.603, 105.6919
1302.085, 105.9044
1302.567, 106.2153
1303.049, 106.5535
1303.531, 106.8983
##END=



