##NAMES=Burangaite
##RRUFFID=R070408
##IDEAL CHEMISTRY=NaFe^2+^Al_5_(PO_4_)_4_(OH)_6_&#183;2H_2_O
##LOCALITY=Buranga pegmatite, Gatumba District, Gisenyi Province, Rwanda
##OWNER=RRUFF
##SOURCE=Michael Scott
##DESCRIPTION=Blue to blue-green prismatic, co-type specimen. This is the piece used by Selway et al (1997) to determine structure.
##STATUS=The identification of this mineral has been confirmed by single-crystal X-ray diffraction.
##URL=rruff.info/R070408
146.0895, 1980.403
146.5716, 2059.912
147.0537, 2152.672
147.5358, 2258.065
148.0179, 2346.431
148.5001, 2409.649
148.9822, 2462.243
149.4643, 2514.336
149.9464, 2566.771
150.4285, 2615.423
150.9106, 2658.085
151.3928, 2693.743
151.8749, 2721.552
152.3570, 2743.506
152.8391, 2756.252
153.3212, 2755.207
153.8033, 2739.802
154.2855, 2717.109
154.7676, 2690.079
155.2497, 2659.518
155.7318, 2629.326
156.2139, 2593.360
156.6960, 2561.373
157.1782, 2543.687
157.6603, 2540.844
158.1424, 2551.761
158.6245, 2580.921
159.1066, 2623.903
159.5887, 2672.147
160.0709, 2725.949
160.5530, 2782.844
161.0351, 2838.525
161.5172, 2892.027
161.9993, 2946.665
162.4814, 3004.218
162.9636, 3064.283
163.4457, 3128.218
163.9278, 3199.634
164.4099, 3273.997
164.8920, 3342.780
165.3741, 3405.540
165.8563, 3463.353
166.3384, 3516.140
166.8205, 3564.807
167.3026, 3610.522
167.7847, 3656.222
168.2668, 3698.668
168.7490, 3731.987
169.2311, 3757.848
169.7132, 3769.947
170.1953, 3770.951
170.6774, 3757.118
171.1595, 3718.479
171.6417, 3639.115
172.1238, 3536.715
172.6059, 3456.973
173.0880, 3409.540
173.5701, 3366.172
174.0522, 3304.675
174.5344, 3239.742
175.0165, 3195.133
175.4986, 3187.215
175.9807, 3203.775
176.4628, 3212.177
176.9449, 3212.188
177.4271, 3203.279
177.9092, 3185.690
178.3913, 3160.651
178.8734, 3129.687
179.3555, 3093.166
179.8376, 3051.094
180.3197, 3002.111
180.8019, 2941.253
181.2840, 2882.165
181.7661, 2831.301
182.2482, 2783.680
182.7303, 2732.158
183.2124, 2671.365
183.6946, 2607.432
184.1767, 2559.383
184.6588, 2538.569
185.1409, 2514.782
185.6230, 2472.902
186.1051, 2426.630
186.5873, 2391.913
187.0694, 2376.869
187.5515, 2375.666
188.0336, 2372.993
188.5157, 2368.232
188.9978, 2362.961
189.4800, 2356.634
189.9621, 2350.463
190.4442, 2344.479
190.9263, 2338.353
191.4084, 2334.958
191.8905, 2342.681
192.3727, 2371.401
192.8548, 2393.743
193.3369, 2403.775
193.8190, 2407.091
194.3011, 2408.377
194.7832, 2409.447
195.2654, 2410.460
195.7475, 2411.812
196.2296, 2413.968
196.7117, 2415.575
197.1938, 2414.705
197.6759, 2414.219
198.1581, 2417.169
198.6402, 2424.503
199.1223, 2433.794
199.6044, 2440.304
200.0865, 2441.773
200.5686, 2445.001
201.0508, 2450.267
201.5329, 2457.335
202.0150, 2465.908
202.4971, 2475.966
202.9792, 2487.738
203.4613, 2501.792
203.9435, 2518.944
204.4256, 2536.626
204.9077, 2560.933
205.3898, 2581.561
205.8719, 2587.309
206.3540, 2577.860
206.8362, 2566.443
207.3183, 2573.532
207.8004, 2611.362
208.2825, 2636.180
208.7646, 2640.405
209.2467, 2639.042
209.7289, 2639.497
210.2110, 2643.151
210.6931, 2647.952
211.1752, 2652.301
211.6573, 2657.611
212.1395, 2656.854
212.6216, 2644.062
213.1037, 2630.756
213.5858, 2623.468
214.0679, 2621.583
214.5500, 2619.698
215.0322, 2611.945
215.5143, 2596.992
215.9964, 2585.186
216.4785, 2577.270
216.9606, 2571.693
217.4427, 2568.038
217.9249, 2566.279
218.4070, 2566.816
218.8891, 2570.725
219.3712, 2578.217
219.8533, 2581.359
220.3354, 2574.612
220.8176, 2568.692
221.2997, 2565.051
221.7818, 2564.498
222.2639, 2568.747
222.7460, 2580.106
223.2281, 2597.356
223.7103, 2606.268
224.1924, 2595.983
224.6745, 2588.795
225.1566, 2593.369
225.6387, 2603.162
226.1208, 2607.553
226.6030, 2599.809
227.0851, 2583.487
227.5672, 2573.657
228.0493, 2575.346
228.5314, 2577.227
229.0135, 2580.261
229.4957, 2581.406
229.9778, 2576.361
230.4599, 2563.004
230.9420, 2544.977
231.4241, 2530.797
231.9062, 2520.113
232.3884, 2514.763
232.8705, 2521.735
233.3526, 2529.661
233.8347, 2527.162
234.3168, 2510.771
234.7989, 2488.327
235.2811, 2473.563
235.7632, 2469.926
236.2453, 2465.924
236.7274, 2460.868
237.2095, 2454.941
237.6916, 2445.940
238.1738, 2434.446
238.6559, 2426.097
239.1380, 2429.994
239.6201, 2451.207
240.1022, 2465.837
240.5843, 2467.885
241.0665, 2467.422
241.5486, 2469.020
242.0307, 2472.849
242.5128, 2476.456
242.9949, 2476.559
243.4770, 2472.534
243.9592, 2472.692
244.4413, 2482.484
244.9234, 2491.493
245.4055, 2493.629
245.8876, 2491.509
246.3697, 2492.332
246.8519, 2502.361
247.3340, 2520.391
247.8161, 2534.706
248.2982, 2541.599
248.7803, 2549.733
249.2624, 2565.926
249.7446, 2584.709
250.2267, 2595.745
250.7088, 2590.369
251.1909, 2577.196
251.6730, 2582.886
252.1551, 2617.823
252.6373, 2650.920
253.1194, 2668.451
253.6015, 2680.609
254.0836, 2698.116
254.5657, 2724.953
255.0478, 2757.954
255.5300, 2792.911
256.0121, 2830.071
256.4942, 2867.948
256.9763, 2905.138
257.4584, 2943.437
257.9406, 2986.065
258.4227, 3033.843
258.9048, 3080.764
259.3869, 3124.819
259.8690, 3166.660
260.3511, 3190.640
260.8333, 3186.025
261.3154, 3168.071
261.7975, 3147.628
262.2796, 3125.127
262.7617, 3097.578
263.2438, 3059.008
263.7260, 3011.868
264.2081, 2970.366
264.6902, 2934.419
265.1723, 2907.404
265.6544, 2896.727
266.1365, 2897.246
266.6187, 2891.857
267.1008, 2867.862
267.5829, 2833.337
268.0650, 2805.274
268.5471, 2785.123
269.0292, 2768.090
269.5114, 2750.310
269.9935, 2733.570
270.4756, 2721.644
270.9577, 2717.658
271.4398, 2717.125
271.9219, 2716.292
272.4041, 2715.222
272.8862, 2710.821
273.3683, 2698.085
273.8504, 2682.726
274.3325, 2675.943
274.8146, 2682.359
275.2968, 2689.894
275.7789, 2690.938
276.2610, 2686.421
276.7431, 2679.842
277.2252, 2671.756
277.7073, 2662.997
278.1895, 2654.729
278.6716, 2646.795
279.1537, 2639.829
279.6358, 2633.312
280.1179, 2628.103
280.6000, 2626.296
281.0822, 2628.674
281.5643, 2632.457
282.0464, 2634.761
282.5285, 2635.587
283.0106, 2634.796
283.4927, 2630.140
283.9749, 2625.263
284.4570, 2623.826
284.9391, 2625.955
285.4212, 2628.728
285.9033, 2629.378
286.3854, 2628.093
286.8676, 2630.515
287.3497, 2639.259
287.8318, 2648.802
288.3139, 2660.207
288.7960, 2670.641
289.2781, 2671.805
289.7603, 2657.806
290.2424, 2633.254
290.7245, 2617.887
291.2066, 2620.720
291.6887, 2620.896
292.1708, 2609.534
292.6530, 2595.886
293.1351, 2592.720
293.6172, 2604.376
294.0993, 2623.755
294.5814, 2638.574
295.0635, 2648.550
295.5457, 2653.664
296.0278, 2653.656
296.5099, 2649.401
296.9920, 2635.615
297.4741, 2615.238
297.9562, 2602.761
298.4384, 2615.457
298.9205, 2658.731
299.4026, 2689.786
299.8847, 2698.888
300.3668, 2705.899
300.8489, 2717.948
301.3311, 2733.279
301.8131, 2746.025
302.2953, 2751.370
302.7774, 2752.073
303.2595, 2763.280
303.7416, 2797.379
304.2237, 2823.597
304.7058, 2826.752
305.1880, 2823.483
305.6701, 2832.859
306.1522, 2862.199
306.6343, 2900.855
307.1164, 2931.255
307.5985, 2950.704
308.0807, 2971.500
308.5628, 2999.980
309.0449, 3027.412
309.5270, 3045.768
310.0091, 3055.405
310.4912, 3066.648
310.9734, 3089.466
311.4555, 3122.876
311.9376, 3155.215
312.4197, 3182.449
312.9018, 3213.437
313.3839, 3260.288
313.8661, 3315.548
314.3482, 3358.926
314.8303, 3379.468
315.3124, 3383.401
315.7945, 3380.785
316.2766, 3371.586
316.7588, 3355.719
317.2409, 3326.140
317.7230, 3292.235
318.2051, 3270.166
318.6872, 3266.186
319.1693, 3266.828
319.6515, 3265.476
320.1336, 3261.324
320.6157, 3247.619
321.0978, 3215.660
321.5799, 3183.476
322.0620, 3184.938
322.5442, 3225.044
323.0263, 3258.033
323.5084, 3265.897
323.9905, 3261.730
324.4726, 3261.271
324.9547, 3267.193
325.4369, 3277.246
325.9190, 3290.570
326.4011, 3307.641
326.8832, 3319.287
327.3653, 3320.709
327.8474, 3321.386
328.3296, 3325.187
328.8117, 3332.573
329.2938, 3344.335
329.7759, 3361.540
330.2580, 3382.533
330.7401, 3399.249
331.2223, 3408.916
331.7044, 3417.788
332.1865, 3426.151
332.6686, 3434.220
333.1507, 3440.780
333.6328, 3445.884
334.1150, 3453.334
334.5971, 3470.236
335.0792, 3503.388
335.5613, 3527.135
336.0434, 3539.901
336.5255, 3545.932
337.0077, 3542.696
337.4898, 3533.725
337.9719, 3528.342
338.4540, 3535.873
338.9361, 3553.911
339.4182, 3559.253
339.9004, 3536.530
340.3825, 3524.134
340.8646, 3540.404
341.3467, 3569.581
341.8288, 3592.031
342.3109, 3600.264
342.7931, 3600.360
343.2752, 3599.294
343.7573, 3596.233
344.2394, 3598.351
344.7215, 3613.135
345.2036, 3629.174
345.6858, 3638.064
346.1679, 3639.365
346.6500, 3636.085
347.1321, 3624.765
347.6142, 3610.372
348.0963, 3608.345
348.5785, 3623.190
349.0606, 3641.118
349.5427, 3650.750
350.0248, 3654.722
350.5069, 3660.665
350.9890, 3676.038
351.4712, 3689.033
351.9533, 3684.863
352.4354, 3667.526
352.9175, 3658.860
353.3996, 3671.021
353.8817, 3696.013
354.3639, 3713.120
354.8460, 3720.374
355.3281, 3725.947
355.8102, 3740.481
356.2923, 3750.280
356.7744, 3731.406
357.2566, 3680.796
357.7387, 3628.248
358.2208, 3608.510
358.7029, 3629.486
359.1850, 3640.092
359.6671, 3637.235
360.1493, 3628.836
360.6314, 3612.454
361.1135, 3593.526
361.5956, 3583.171
362.0777, 3588.628
362.5598, 3604.952
363.0420, 3612.988
363.5241, 3598.743
364.0062, 3599.450
364.4883, 3622.581
364.9704, 3658.526
365.4525, 3704.899
365.9347, 3758.808
366.4168, 3808.208
366.8989, 3836.316
367.3810, 3841.821
367.8631, 3851.488
368.3452, 3868.788
368.8274, 3887.641
369.3095, 3904.309
369.7916, 3920.044
370.2737, 3938.272
370.7558, 3963.867
371.2379, 3990.222
371.7201, 4007.531
372.2022, 4016.044
372.6843, 4012.317
373.1664, 3987.365
373.6485, 3953.368
374.1306, 3931.731
374.6128, 3928.939
375.0949, 3917.406
375.5770, 3873.493
376.0591, 3812.426
376.5412, 3765.438
377.0233, 3739.649
377.5055, 3722.029
377.9876, 3699.943
378.4697, 3672.858
378.9518, 3647.772
379.4339, 3620.815
379.9160, 3599.508
380.3982, 3593.495
380.8803, 3597.489
381.3624, 3596.541
381.8445, 3582.089
382.3266, 3558.878
382.8087, 3540.927
383.2909, 3528.374
383.7730, 3521.986
384.2551, 3524.142
384.7372, 3530.795
385.2193, 3539.369
385.7014, 3549.074
386.1836, 3560.159
386.6657, 3575.247
387.1478, 3595.276
387.6299, 3599.576
388.1120, 3570.927
388.5941, 3545.991
389.0763, 3541.754
389.5584, 3547.755
390.0405, 3546.957
390.5226, 3531.249
391.0047, 3508.072
391.4868, 3488.913
391.9690, 3474.377
392.4511, 3459.274
392.9332, 3446.796
393.4153, 3428.681
393.8974, 3393.517
394.3795, 3341.488
394.8617, 3296.030
395.3438, 3273.755
395.8259, 3263.608
396.3080, 3246.506
396.7901, 3220.497
397.2722, 3194.758
397.7544, 3176.954
398.2365, 3164.844
398.7186, 3146.149
399.2007, 3109.499
399.6828, 3079.275
400.1649, 3071.363
400.6471, 3074.633
401.1292, 3069.950
401.6113, 3050.937
402.0934, 3025.479
402.5755, 3005.144
403.0576, 2992.945
403.5398, 2976.885
404.0219, 2954.981
404.5040, 2931.483
404.9861, 2907.358
405.4682, 2883.390
405.9503, 2861.220
406.4325, 2842.177
406.9146, 2825.010
407.3967, 2804.610
407.8788, 2775.776
408.3609, 2754.745
408.8430, 2750.549
409.3252, 2750.700
409.8073, 2745.685
410.2894, 2734.029
410.7715, 2720.157
411.2536, 2706.970
411.7357, 2694.561
412.2179, 2683.982
412.7000, 2675.746
413.1821, 2668.376
413.6642, 2661.938
414.1463, 2655.576
414.6284, 2647.158
415.1106, 2631.352
415.5927, 2619.365
416.0748, 2624.364
416.5569, 2640.477
417.0390, 2647.836
417.5211, 2638.121
418.0033, 2622.949
418.4854, 2619.319
418.9675, 2629.887
419.4496, 2644.504
419.9317, 2671.836
420.4138, 2695.690
420.8960, 2702.770
421.3781, 2696.174
421.8602, 2688.275
422.3423, 2687.173
422.8244, 2690.678
423.3065, 2688.912
423.7887, 2674.438
424.2708, 2666.476
424.7529, 2665.923
425.2350, 2672.655
425.7171, 2691.823
426.1992, 2721.453
426.6814, 2746.511
427.1635, 2747.274
427.6456, 2726.725
428.1277, 2722.294
428.6098, 2742.452
429.0919, 2762.532
429.5741, 2769.766
430.0562, 2768.921
430.5383, 2765.148
431.0204, 2756.118
431.5025, 2752.057
431.9846, 2765.498
432.4668, 2791.644
432.9489, 2813.816
433.4310, 2828.026
433.9131, 2836.123
434.3952, 2838.120
434.8773, 2832.957
435.3595, 2833.783
435.8416, 2848.162
436.3237, 2862.534
436.8058, 2867.774
437.2879, 2866.138
437.7701, 2864.498
438.2522, 2866.369
438.7343, 2870.335
439.2164, 2872.948
439.6985, 2874.904
440.1806, 2874.027
440.6628, 2874.499
441.1449, 2869.156
441.6270, 2846.982
442.1091, 2813.046
442.5912, 2786.413
443.0733, 2784.662
443.5555, 2800.257
444.0376, 2803.333
444.5197, 2789.993
445.0018, 2774.986
445.4839, 2760.255
445.9660, 2748.485
446.4482, 2745.193
446.9303, 2752.733
447.4124, 2755.474
447.8945, 2734.396
448.3766, 2703.572
448.8587, 2695.322
449.3409, 2715.093
449.8230, 2740.530
450.3051, 2755.501
450.7872, 2760.580
451.2693, 2764.555
451.7514, 2763.807
452.2336, 2766.209
452.7157, 2778.484
453.1978, 2793.968
453.6799, 2801.158
454.1620, 2797.435
454.6441, 2792.907
455.1263, 2800.571
455.6084, 2821.765
456.0905, 2847.475
456.5726, 2886.973
457.0547, 2921.238
457.5368, 2942.642
458.0190, 2955.355
458.5011, 2964.237
458.9832, 2969.771
459.4653, 2979.928
459.9474, 3012.469
460.4295, 3067.818
460.9117, 3107.009
461.3938, 3115.522
461.8759, 3115.250
462.3580, 3128.147
462.8401, 3150.902
463.3222, 3165.397
463.8044, 3161.807
464.2865, 3151.829
464.7686, 3144.818
465.2507, 3140.324
465.7328, 3136.732
466.2149, 3134.252
466.6971, 3128.999
467.1792, 3112.692
467.6613, 3075.021
468.1434, 3048.119
468.6255, 3037.974
469.1076, 3033.107
469.5898, 3027.884
470.0719, 3021.776
470.5540, 3015.215
471.0361, 3007.764
471.5182, 3001.857
472.0003, 3006.379
472.4825, 3027.274
472.9646, 3042.280
473.4467, 3041.499
473.9288, 3036.849
474.4109, 3033.931
474.8930, 3033.703
475.3752, 3037.882
475.8573, 3050.890
476.3394, 3067.558
476.8215, 3078.110
477.3036, 3082.252
477.7857, 3088.276
478.2679, 3102.219
478.7500, 3119.074
479.2321, 3124.315
479.7142, 3107.475
480.1963, 3106.198
480.6784, 3144.479
481.1606, 3190.069
481.6427, 3210.231
482.1248, 3206.019
482.6069, 3201.591
483.0890, 3215.260
483.5711, 3243.639
484.0533, 3268.510
484.5354, 3290.132
485.0175, 3307.461
485.4996, 3314.972
485.9817, 3322.469
486.4638, 3339.489
486.9460, 3366.062
487.4281, 3392.250
487.9102, 3409.694
488.3923, 3420.841
488.8744, 3432.718
489.3565, 3445.294
489.8387, 3458.651
490.3208, 3470.123
490.8029, 3484.108
491.2850, 3510.989
491.7671, 3559.048
492.2492, 3596.146
492.7314, 3603.663
493.2135, 3598.644
493.6956, 3597.431
494.1777, 3602.891
494.6598, 3614.871
495.1419, 3633.813
495.6241, 3658.809
496.1062, 3684.639
496.5883, 3713.422
497.0704, 3739.792
497.5525, 3763.820
498.0346, 3785.080
498.5168, 3802.843
498.9989, 3817.231
499.4810, 3829.109
499.9631, 3834.508
500.4452, 3838.153
500.9273, 3862.572
501.4095, 3914.882
501.8916, 3957.864
502.3737, 3972.425
502.8558, 3969.532
503.3379, 3966.100
503.8200, 3961.282
504.3022, 3960.809
504.7843, 3968.769
505.2664, 3981.099
505.7485, 3996.099
506.2306, 4012.065
506.7127, 4020.866
507.1949, 4015.917
507.6770, 4001.198
508.1591, 3994.205
508.6412, 4000.775
509.1233, 4006.886
509.6054, 4012.115
510.0876, 4016.386
510.5697, 4020.104
511.0518, 4022.939
511.5339, 4023.810
512.0161, 4022.519
512.4982, 4018.351
512.9803, 4007.154
513.4624, 3987.026
513.9445, 3971.094
514.4266, 3958.590
514.9088, 3957.827
515.3909, 3983.947
515.8730, 4039.888
516.3551, 4084.378
516.8372, 4100.727
517.3193, 4103.444
517.8015, 4100.259
518.2836, 4094.825
518.7657, 4098.262
519.2478, 4117.685
519.7299, 4143.905
520.2120, 4154.459
520.6942, 4139.176
521.1763, 4127.350
521.6584, 4128.372
522.1405, 4123.816
522.6226, 4101.368
523.1047, 4065.027
523.5869, 4025.984
524.0690, 3988.404
524.5511, 3954.420
525.0332, 3934.354
525.5153, 3927.988
525.9974, 3897.480
526.4796, 3822.477
526.9617, 3739.086
527.4438, 3691.019
527.9259, 3673.233
528.4080, 3643.923
528.8901, 3587.303
529.3723, 3527.410
529.8544, 3473.122
530.3365, 3426.720
530.8186, 3394.839
531.3007, 3379.152
531.7828, 3368.889
532.2650, 3348.585
532.7471, 3315.722
533.2292, 3287.980
533.7113, 3265.923
534.1934, 3248.661
534.6755, 3237.318
535.1577, 3229.987
535.6398, 3226.176
536.1219, 3226.606
536.6040, 3221.970
537.0861, 3195.054
537.5682, 3155.814
538.0504, 3141.424
538.5325, 3159.574
539.0146, 3176.364
539.4967, 3164.132
539.9788, 3130.994
540.4609, 3117.892
540.9431, 3147.971
541.4252, 3163.963
541.9073, 3139.320
542.3894, 3105.164
542.8715, 3092.157
543.3536, 3101.907
543.8358, 3117.201
544.3179, 3125.608
544.8000, 3127.236
545.2821, 3122.099
545.7642, 3108.925
546.2463, 3092.450
546.7285, 3070.556
547.2106, 3048.249
547.6927, 3031.076
548.1748, 3018.411
548.6569, 3001.335
549.1390, 2971.344
549.6211, 2938.415
550.1032, 2913.068
550.5853, 2894.583
551.0674, 2880.996
551.5496, 2872.473
552.0317, 2862.516
552.5138, 2839.358
552.9959, 2795.859
553.4780, 2763.190
553.9601, 2748.402
554.4423, 2735.098
554.9244, 2720.434
555.4065, 2701.741
555.8886, 2673.545
556.3707, 2633.391
556.8528, 2592.762
557.3350, 2564.781
557.8171, 2548.691
558.2992, 2541.049
558.7813, 2546.033
559.2634, 2544.821
559.7455, 2519.310
560.2277, 2478.638
560.7098, 2453.136
561.1919, 2451.588
561.6740, 2450.070
562.1561, 2438.613
562.6382, 2425.035
563.1204, 2417.965
563.6025, 2417.721
564.0846, 2419.823
564.5667, 2421.759
565.0488, 2422.115
565.5309, 2415.043
566.0131, 2398.530
566.4952, 2379.666
566.9773, 2352.417
567.4594, 2329.070
567.9415, 2318.889
568.4236, 2320.206
568.9058, 2323.818
569.3879, 2326.556
569.8700, 2329.284
570.3521, 2334.432
570.8342, 2340.519
571.3163, 2342.301
571.7985, 2338.055
572.2806, 2330.055
572.7627, 2320.231
573.2448, 2307.817
573.7269, 2300.690
574.2090, 2297.760
574.6912, 2301.038
575.1733, 2316.511
575.6554, 2335.596
576.1375, 2348.822
576.6196, 2354.214
577.1017, 2356.726
577.5839, 2358.631
578.0660, 2361.282
578.5481, 2371.549
579.0302, 2390.915
579.5123, 2404.785
579.9944, 2403.539
580.4766, 2395.489
580.9587, 2398.702
581.4408, 2418.032
581.9229, 2426.789
582.4050, 2407.375
582.8871, 2388.866
583.3693, 2394.406
583.8514, 2415.794
584.3335, 2432.540
584.8156, 2435.177
585.2977, 2431.322
585.7798, 2432.891
586.2620, 2440.375
586.7441, 2447.945
587.2262, 2457.186
587.7083, 2463.488
588.1904, 2463.720
588.6725, 2459.466
589.1547, 2452.221
589.6368, 2440.174
590.1189, 2430.442
590.6010, 2429.789
591.0831, 2431.550
591.5652, 2425.003
592.0474, 2411.065
592.5295, 2400.608
593.0116, 2400.999
593.4937, 2409.607
593.9758, 2419.153
594.4579, 2432.366
594.9401, 2439.909
595.4222, 2431.219
595.9043, 2425.610
596.3864, 2431.354
596.8685, 2448.002
597.3506, 2474.926
597.8328, 2518.856
598.3149, 2559.131
598.7970, 2573.607
599.2791, 2570.240
599.7612, 2566.312
600.2433, 2565.110
600.7255, 2575.138
601.2076, 2607.031
601.6897, 2656.375
602.1718, 2686.990
602.6539, 2681.778
603.1360, 2680.535
603.6182, 2684.419
604.1003, 2694.655
604.5824, 2717.804
605.0645, 2749.305
605.5466, 2772.815
606.0287, 2778.036
606.5109, 2771.664
606.9930, 2759.231
607.4751, 2742.365
607.9572, 2735.814
608.4393, 2745.273
608.9214, 2757.753
609.4036, 2759.817
609.8857, 2751.402
610.3678, 2746.917
610.8499, 2746.169
611.3320, 2749.161
611.8141, 2761.559
612.2963, 2774.160
612.7784, 2774.122
613.2605, 2762.763
613.7426, 2755.923
614.2247, 2767.439
614.7068, 2790.389
615.1890, 2809.774
615.6711, 2825.783
616.1532, 2832.123
616.6353, 2821.692
617.1174, 2810.537
617.5995, 2821.427
618.0817, 2854.932
618.5638, 2869.844
619.0459, 2853.093
619.5280, 2830.828
620.0101, 2805.664
620.4922, 2784.335
620.9744, 2776.297
621.4565, 2782.151
621.9386, 2793.140
622.4207, 2804.030
622.9028, 2812.650
623.3849, 2807.158
623.8671, 2783.942
624.3492, 2767.998
624.8313, 2769.000
625.3134, 2778.003
625.7955, 2786.475
626.2776, 2794.436
626.7598, 2798.425
627.2419, 2792.336
627.7240, 2788.226
628.2061, 2795.199
628.6882, 2806.781
629.1703, 2812.857
629.6525, 2811.437
630.1346, 2808.123
630.6167, 2807.479
631.0988, 2809.804
631.5809, 2818.974
632.0630, 2838.982
632.5452, 2849.610
633.0273, 2837.548
633.5094, 2820.447
633.9915, 2819.311
634.4736, 2833.186
634.9557, 2844.464
635.4379, 2855.334
635.9200, 2856.760
636.4021, 2835.250
636.8842, 2804.058
637.3663, 2784.595
637.8484, 2781.328
638.3306, 2782.740
638.8127, 2778.842
639.2948, 2769.406
639.7769, 2752.423
640.2590, 2726.233
640.7411, 2697.890
641.2233, 2666.379
641.7054, 2636.626
642.1875, 2615.391
642.6696, 2601.742
643.1517, 2584.331
643.6339, 2556.225
644.1160, 2528.686
644.5981, 2508.995
645.0802, 2493.412
645.5623, 2476.706
646.0444, 2457.553
646.5266, 2436.785
647.0087, 2414.498
647.4908, 2391.782
647.9729, 2376.316
648.4550, 2372.909
648.9371, 2356.228
649.4193, 2305.701
649.9014, 2255.157
650.3835, 2244.647
650.8656, 2267.216
651.3477, 2272.756
651.8298, 2235.128
652.3120, 2198.943
652.7941, 2185.983
653.2762, 2186.398
653.7583, 2188.651
654.2404, 2189.855
654.7225, 2191.531
655.2047, 2196.594
655.6868, 2200.790
656.1689, 2185.784
656.6510, 2146.471
657.1331, 2120.098
657.6152, 2118.930
658.0974, 2126.381
658.5795, 2128.496
659.0616, 2126.713
659.5437, 2127.478
660.0258, 2136.853
660.5079, 2142.049
660.9901, 2134.589
661.4722, 2123.447
661.9543, 2118.969
662.4364, 2120.888
662.9185, 2120.962
663.4006, 2112.710
663.8828, 2102.218
664.3649, 2104.728
664.8470, 2120.797
665.3291, 2131.251
665.8112, 2131.997
666.2933, 2129.478
666.7755, 2127.533
667.2576, 2126.215
667.7397, 2125.570
668.2218, 2125.227
668.7039, 2126.140
669.1860, 2130.066
669.6682, 2134.022
670.1503, 2136.095
670.6324, 2136.109
671.1145, 2133.498
671.5966, 2127.465
672.0787, 2122.525
672.5609, 2129.258
673.0430, 2144.640
673.5251, 2144.961
674.0072, 2125.760
674.4893, 2103.842
674.9714, 2086.604
675.4536, 2075.356
675.9357, 2074.740
676.4178, 2093.533
676.8999, 2103.677
677.3820, 2099.845
677.8641, 2091.921
678.3463, 2082.939
678.8284, 2074.153
679.3105, 2065.745
679.7926, 2057.802
680.2747, 2054.308
680.7568, 2066.197
681.2390, 2083.607
681.7211, 2077.516
682.2032, 2048.482
682.6853, 2028.996
683.1674, 2034.959
683.6495, 2050.694
684.1317, 2050.682
684.6138, 2029.752
685.0959, 2020.522
685.5780, 2035.985
686.0601, 2047.543
686.5422, 2045.609
687.0244, 2038.097
687.5065, 2033.286
687.9886, 2032.146
688.4707, 2030.654
688.9528, 2027.375
689.4349, 2021.931
689.9171, 2010.640
690.3992, 1996.835
690.8813, 1991.333
691.3634, 1996.929
691.8455, 2005.868
692.3276, 2010.497
692.8098, 2011.326
693.2919, 2012.925
693.7740, 2016.580
694.2561, 2018.249
694.7382, 2021.122
695.2203, 2018.002
695.7025, 1996.673
696.1846, 1964.070
696.6667, 1946.554
697.1488, 1960.298
697.6309, 1975.891
698.1130, 1978.989
698.5952, 1974.368
699.0773, 1964.431
699.5594, 1952.061
700.0415, 1945.852
700.5236, 1951.826
701.0057, 1962.963
701.4879, 1965.501
701.9700, 1959.311
702.4521, 1945.748
702.9342, 1920.013
703.4163, 1899.696
703.8984, 1897.884
704.3806, 1907.600
704.8627, 1912.483
705.3448, 1912.798
705.8269, 1908.052
706.3090, 1893.384
706.7911, 1878.395
707.2733, 1866.449
707.7554, 1858.937
708.2375, 1859.114
708.7196, 1867.489
709.2017, 1876.364
709.6838, 1876.190
710.1660, 1871.525
710.6481, 1876.025
711.1302, 1889.106
711.6123, 1898.171
712.0944, 1899.032
712.5765, 1892.656
713.0587, 1878.333
713.5408, 1855.216
714.0229, 1842.264
714.5050, 1845.497
714.9871, 1851.076
715.4692, 1859.121
715.9514, 1866.865
716.4335, 1872.546
716.9156, 1875.921
717.3977, 1876.886
717.8798, 1874.269
718.3619, 1870.843
718.8441, 1867.027
719.3262, 1864.590
719.8083, 1869.671
720.2904, 1880.970
720.7725, 1886.063
721.2546, 1875.887
721.7368, 1857.078
722.2189, 1844.834
722.7010, 1839.345
723.1831, 1840.452
723.6652, 1853.734
724.1473, 1862.477
724.6295, 1852.786
725.1116, 1833.989
725.5937, 1825.393
726.0758, 1829.593
726.5579, 1835.351
727.0400, 1844.339
727.5222, 1850.597
728.0043, 1846.787
728.4864, 1839.283
728.9685, 1839.554
729.4506, 1850.041
729.9327, 1861.206
730.4149, 1865.059
730.8970, 1863.171
731.3791, 1858.331
731.8612, 1850.736
732.3433, 1841.536
732.8254, 1830.565
733.3076, 1820.941
733.7897, 1815.341
734.2718, 1813.926
734.7539, 1819.099
735.2360, 1838.749
735.7181, 1851.774
736.2003, 1853.956
736.6824, 1850.892
737.1645, 1843.388
737.6466, 1833.535
738.1287, 1825.954
738.6108, 1821.136
739.0930, 1820.506
739.5751, 1829.690
740.0572, 1840.266
740.5393, 1841.123
741.0214, 1833.990
741.5035, 1827.350
741.9857, 1825.213
742.4678, 1825.139
742.9499, 1822.870
743.4320, 1818.861
743.9141, 1819.824
744.3962, 1826.515
744.8784, 1835.248
745.3605, 1847.358
745.8426, 1856.630
746.3247, 1851.960
746.8068, 1830.492
747.2889, 1822.492
747.7711, 1839.500
748.2532, 1854.136
748.7353, 1861.701
749.2174, 1862.953
749.6995, 1854.689
750.1816, 1840.291
750.6638, 1832.192
751.1459, 1839.656
751.6280, 1849.001
752.1101, 1846.595
752.5922, 1837.459
753.0743, 1830.419
753.5565, 1826.611
754.0386, 1824.136
754.5207, 1821.840
755.0028, 1820.651
755.4849, 1822.516
755.9670, 1827.639
756.4492, 1835.627
756.9313, 1851.531
757.4134, 1856.838
757.8955, 1835.828
758.3776, 1805.541
758.8597, 1793.302
759.3419, 1800.823
759.8240, 1804.857
760.3061, 1797.620
760.7882, 1793.728
761.2703, 1800.973
761.7524, 1812.794
762.2346, 1823.440
762.7167, 1831.548
763.1988, 1836.722
763.6809, 1837.582
764.1630, 1837.473
764.6451, 1841.924
765.1273, 1848.132
765.6094, 1847.095
766.0915, 1838.628
766.5736, 1834.107
767.0557, 1841.273
767.5378, 1853.328
768.0200, 1854.543
768.5021, 1842.526
768.9842, 1834.376
769.4663, 1832.328
769.9484, 1829.658
770.4305, 1819.272
770.9127, 1809.592
771.3948, 1815.185
771.8769, 1837.574
772.3590, 1853.500
772.8411, 1859.006
773.3232, 1859.099
773.8054, 1851.535
774.2875, 1842.279
774.7696, 1838.736
775.2517, 1840.155
775.7338, 1838.435
776.2159, 1826.359
776.6981, 1815.266
777.1802, 1821.984
777.6623, 1838.399
778.1444, 1845.831
778.6265, 1842.560
779.1086, 1834.168
779.5908, 1822.895
780.0729, 1814.664
780.5550, 1823.696
781.0371, 1852.974
781.5192, 1868.618
782.0013, 1866.883
782.4835, 1861.275
782.9656, 1854.532
783.4477, 1848.574
783.9298, 1846.304
784.4119, 1847.791
784.8940, 1849.100
785.3762, 1848.578
785.8583, 1849.799
786.3404, 1857.090
786.8225, 1863.851
787.3046, 1863.004
787.7867, 1856.353
788.2689, 1851.743
788.7510, 1853.355
789.2331, 1854.846
789.7152, 1846.526
790.1973, 1836.818
790.6794, 1841.883
791.1616, 1859.247
791.6437, 1875.208
792.1258, 1883.961
792.6079, 1883.818
793.0900, 1867.746
793.5721, 1839.026
794.0543, 1832.907
794.5364, 1852.948
795.0185, 1874.335
795.5006, 1893.164
795.9827, 1903.950
796.4648, 1897.610
796.9470, 1876.638
797.4291, 1868.125
797.9112, 1888.248
798.3933, 1897.663
798.8754, 1883.224
799.3575, 1868.997
799.8397, 1869.827
800.3218, 1880.523
800.8039, 1890.191
801.2860, 1896.204
801.7681, 1902.097
802.2502, 1913.859
802.7324, 1922.538
803.2145, 1914.126
803.6966, 1898.330
804.1787, 1897.326
804.6608, 1914.304
805.1429, 1927.574
805.6251, 1915.200
806.1072, 1892.071
806.5893, 1894.455
807.0714, 1918.044
807.5535, 1929.079
808.0356, 1921.320
808.5178, 1909.203
808.9999, 1901.664
809.4820, 1897.509
809.9641, 1893.269
810.4462, 1886.792
810.9283, 1888.917
811.4105, 1908.301
811.8926, 1922.137
812.3747, 1915.904
812.8568, 1903.445
813.3389, 1901.738
813.8210, 1910.871
814.3032, 1915.833
814.7853, 1913.754
815.2674, 1908.051
815.7495, 1896.808
816.2316, 1884.860
816.7137, 1874.357
817.1959, 1867.168
817.6780, 1867.368
818.1601, 1877.785
818.6422, 1890.573
819.1243, 1901.102
819.6064, 1908.670
820.0886, 1912.114
820.5707, 1911.589
821.0528, 1906.944
821.5349, 1898.292
822.0170, 1889.042
822.4991, 1882.632
822.9813, 1878.849
823.4634, 1875.837
823.9455, 1873.320
824.4276, 1879.435
824.9097, 1899.364
825.3918, 1913.795
825.8740, 1906.360
826.3561, 1883.654
826.8382, 1867.836
827.3203, 1860.917
827.8024, 1856.173
828.2845, 1849.226
828.7667, 1850.031
829.2488, 1868.594
829.7309, 1892.857
830.2130, 1909.366
830.6951, 1917.251
831.1772, 1920.057
831.6594, 1914.448
832.1415, 1909.029
832.6236, 1906.709
833.1057, 1906.975
833.5878, 1907.195
834.0699, 1909.397
834.5521, 1923.204
835.0342, 1956.600
835.5163, 1981.568
835.9984, 1962.472
836.4805, 1923.308
836.9626, 1899.040
837.4448, 1891.239
837.9269, 1898.708
838.4090, 1920.143
838.8911, 1944.216
839.3732, 1960.271
839.8553, 1968.202
840.3375, 1964.355
840.8196, 1948.344
841.3017, 1941.562
841.7838, 1948.955
842.2659, 1960.648
842.7480, 1971.530
843.2302, 1980.125
843.7123, 1982.477
844.1944, 1976.785
844.6765, 1970.612
845.1586, 1961.026
845.6407, 1955.346
846.1229, 1961.706
846.6050, 1969.149
847.0871, 1967.653
847.5692, 1957.266
848.0513, 1941.355
848.5334, 1909.735
849.0156, 1886.970
849.4977, 1885.094
849.9798, 1889.718
850.4619, 1891.499
850.9440, 1890.350
851.4261, 1887.686
851.9083, 1883.658
852.3904, 1882.437
852.8725, 1891.555
853.3546, 1900.795
853.8367, 1896.404
854.3188, 1884.641
854.8010, 1879.317
855.2831, 1882.542
855.7652, 1886.990
856.2473, 1888.108
856.7294, 1885.039
857.2115, 1872.503
857.6937, 1854.006
858.1758, 1846.142
858.6579, 1850.251
859.1400, 1857.601
859.6221, 1864.657
860.1042, 1869.482
860.5864, 1868.914
861.0685, 1863.154
861.5506, 1857.104
862.0327, 1849.542
862.5148, 1847.327
862.9969, 1855.623
863.4791, 1862.131
863.9612, 1854.041
864.4433, 1837.314
864.9254, 1834.049
865.4075, 1853.177
865.8896, 1867.137
866.3718, 1875.868
866.8539, 1879.831
867.3360, 1874.709
867.8181, 1867.749
868.3002, 1867.044
868.7823, 1872.891
869.2645, 1880.415
869.7466, 1890.315
870.2287, 1899.121
870.7108, 1906.201
871.1929, 1911.005
871.6750, 1911.015
872.1572, 1908.734
872.6393, 1910.579
873.1214, 1918.932
873.6035, 1925.356
874.0856, 1921.556
874.5677, 1914.490
875.0499, 1910.130
875.5320, 1909.161
876.0141, 1913.328
876.4962, 1922.261
876.9783, 1932.971
877.4604, 1944.096
877.9426, 1953.195
878.4247, 1953.018
878.9068, 1947.408
879.3889, 1953.572
879.8710, 1971.264
880.3531, 1982.737
880.8353, 1980.498
881.3174, 1974.139
881.7995, 1975.654
882.2816, 1982.920
882.7637, 1981.319
883.2458, 1969.307
883.7280, 1959.813
884.2101, 1954.814
884.6922, 1953.242
885.1743, 1955.415
885.6564, 1959.596
886.1385, 1962.795
886.6207, 1966.858
887.1028, 1961.053
887.5849, 1937.241
888.0670, 1916.666
888.5491, 1902.683
889.0313, 1896.115
889.5134, 1903.924
889.9955, 1920.872
890.4776, 1922.371
890.9597, 1893.835
891.4418, 1873.337
891.9240, 1868.627
892.4061, 1870.262
892.8882, 1877.577
893.3703, 1885.811
893.8524, 1889.465
894.3345, 1887.804
894.8167, 1882.691
895.2988, 1872.471
895.7809, 1861.918
896.2630, 1853.638
896.7451, 1846.205
897.2272, 1837.436
897.7094, 1828.325
898.1915, 1821.171
898.6736, 1816.779
899.1557, 1816.248
899.6378, 1825.611
900.1199, 1835.249
900.6021, 1833.478
901.0842, 1822.648
901.5663, 1803.892
902.0484, 1780.606
902.5305, 1766.976
903.0126, 1773.163
903.4948, 1785.258
903.9769, 1779.951
904.4590, 1764.374
904.9411, 1762.986
905.4232, 1774.732
905.9053, 1783.307
906.3875, 1783.397
906.8696, 1780.439
907.3517, 1779.467
907.8338, 1779.769
908.3159, 1779.033
908.7980, 1777.256
909.2802, 1775.028
909.7623, 1772.192
910.2444, 1771.077
910.7265, 1773.611
911.2086, 1775.782
911.6907, 1770.664
912.1729, 1758.457
912.6550, 1755.405
913.1371, 1765.641
913.6192, 1771.372
914.1013, 1766.355
914.5834, 1762.648
915.0656, 1770.583
915.5477, 1783.788
916.0298, 1787.120
916.5119, 1777.238
916.9940, 1769.932
917.4761, 1764.296
917.9583, 1762.546
918.4404, 1769.693
918.9225, 1777.015
919.4046, 1776.634
919.8867, 1770.577
920.3688, 1766.554
920.8510, 1765.207
921.3331, 1765.732
921.8152, 1767.797
922.2973, 1771.965
922.7794, 1782.244
923.2615, 1792.366
923.7437, 1793.000
924.2258, 1785.214
924.7079, 1781.682
925.1900, 1790.693
925.6721, 1797.111
926.1542, 1794.548
926.6364, 1787.190
927.1185, 1773.967
927.6006, 1760.176
928.0827, 1755.925
928.5648, 1762.418
929.0469, 1766.309
929.5291, 1753.675
930.0112, 1743.239
930.4933, 1754.117
930.9754, 1771.780
931.4575, 1776.821
931.9396, 1772.003
932.4218, 1771.946
932.9039, 1781.827
933.3860, 1790.008
933.8681, 1782.394
934.3502, 1770.735
934.8323, 1770.126
935.3145, 1777.162
935.7966, 1786.940
936.2787, 1797.141
936.7608, 1803.447
937.2429, 1803.507
937.7250, 1799.343
938.2072, 1790.620
938.6893, 1780.619
939.1714, 1776.037
939.6535, 1777.015
940.1356, 1787.341
940.6177, 1806.027
941.0999, 1815.539
941.5820, 1802.350
942.0641, 1779.263
942.5462, 1767.245
943.0283, 1765.661
943.5104, 1775.004
943.9926, 1793.942
944.4747, 1803.531
944.9568, 1797.653
945.4389, 1793.099
945.9210, 1806.365
946.4031, 1828.771
946.8853, 1834.826
947.3674, 1824.616
947.8495, 1815.615
948.3316, 1808.503
948.8137, 1808.930
949.2958, 1820.379
949.7780, 1833.651
950.2601, 1838.343
950.7422, 1835.983
951.2243, 1833.371
951.7064, 1829.176
952.1885, 1834.657
952.6707, 1853.621
953.1528, 1872.508
953.6349, 1886.807
954.1170, 1893.894
954.5991, 1888.642
955.0812, 1871.862
955.5634, 1860.887
956.0455, 1856.534
956.5276, 1855.367
957.0097, 1855.837
957.4918, 1862.690
957.9739, 1883.983
958.4561, 1907.049
958.9382, 1908.958
959.4203, 1887.413
959.9024, 1878.047
960.3845, 1888.212
960.8666, 1895.870
961.3488, 1897.163
961.8309, 1896.019
962.3130, 1891.956
962.7951, 1888.525
963.2772, 1894.213
963.7593, 1912.224
964.2415, 1922.198
964.7236, 1920.697
965.2057, 1916.145
965.6878, 1906.804
966.1699, 1897.865
966.6520, 1891.672
967.1342, 1888.492
967.6163, 1888.938
968.0984, 1893.104
968.5805, 1900.567
969.0626, 1914.247
969.5447, 1927.324
970.0269, 1938.102
970.5090, 1947.663
970.9911, 1958.592
971.4732, 1968.759
971.9553, 1970.467
972.4374, 1957.119
972.9196, 1956.547
973.4017, 1981.180
973.8838, 2008.172
974.3659, 2036.718
974.8480, 2058.158
975.3301, 2059.102
975.8123, 2046.915
976.2944, 2044.842
976.7765, 2059.266
977.2586, 2074.669
977.7407, 2086.927
978.2228, 2100.262
978.7050, 2122.046
979.1871, 2141.429
979.6692, 2141.462
980.1513, 2129.313
980.6334, 2133.084
981.1155, 2164.841
981.5977, 2193.570
982.0798, 2212.651
982.5619, 2223.443
983.0440, 2219.296
983.5261, 2212.735
984.0082, 2217.688
984.4904, 2232.938
984.9725, 2250.279
985.4546, 2273.181
985.9367, 2281.181
986.4188, 2256.758
986.9009, 2226.861
987.3831, 2203.283
987.8652, 2185.707
988.3473, 2173.205
988.8294, 2165.602
989.3115, 2163.953
989.7936, 2172.115
990.2758, 2175.723
990.7579, 2165.168
991.2400, 2152.219
991.7221, 2142.526
992.2042, 2136.093
992.6863, 2135.065
993.1685, 2137.050
993.6506, 2131.823
994.1327, 2111.997
994.6148, 2096.548
995.0969, 2092.564
995.5790, 2097.266
996.0612, 2115.576
996.5433, 2137.052
997.0254, 2149.446
997.5075, 2152.357
997.9896, 2151.171
998.4717, 2144.825
998.9539, 2143.441
999.4360, 2155.793
999.9181, 2170.364
1000.400, 2178.170
1000.882, 2183.937
1001.364, 2194.228
1001.847, 2209.006
1002.329, 2224.397
1002.811, 2240.112
1003.293, 2253.090
1003.775, 2259.353
1004.257, 2265.233
1004.739, 2273.135
1005.221, 2284.419
1005.703, 2299.570
1006.186, 2319.231
1006.668, 2347.277
1007.150, 2389.804
1007.632, 2423.863
1008.114, 2431.630
1008.596, 2435.610
1009.078, 2445.869
1009.560, 2463.841
1010.043, 2493.125
1010.525, 2530.927
1011.007, 2566.757
1011.489, 2595.957
1011.971, 2629.167
1012.453, 2670.394
1012.935, 2717.939
1013.417, 2775.424
1013.899, 2835.039
1014.382, 2886.403
1014.864, 2931.478
1015.346, 2982.081
1015.828, 3044.239
1016.310, 3098.729
1016.792, 3127.180
1017.274, 3159.092
1017.756, 3211.534
1018.239, 3274.644
1018.721, 3342.664
1019.203, 3411.268
1019.685, 3472.925
1020.167, 3526.105
1020.649, 3571.156
1021.131, 3610.087
1021.613, 3638.864
1022.095, 3651.152
1022.578, 3656.508
1023.060, 3668.275
1023.542, 3679.539
1024.024, 3669.450
1024.506, 3630.800
1024.988, 3593.532
1025.470, 3573.478
1025.952, 3545.669
1026.435, 3495.750
1026.917, 3439.416
1027.399, 3384.726
1027.881, 3335.129
1028.363, 3297.767
1028.845, 3275.779
1029.327, 3247.311
1029.809, 3194.536
1030.292, 3154.113
1030.774, 3144.151
1031.256, 3141.148
1031.738, 3128.259
1032.220, 3111.470
1032.702, 3100.927
1033.184, 3097.031
1033.666, 3104.604
1034.148, 3131.009
1034.630, 3158.809
1035.113, 3192.929
1035.595, 3219.396
1036.077, 3219.613
1036.559, 3213.062
1037.041, 3229.256
1037.523, 3269.220
1038.005, 3311.923
1038.487, 3356.714
1038.970, 3404.709
1039.452, 3455.174
1039.934, 3510.485
1040.416, 3577.178
1040.898, 3643.941
1041.380, 3693.221
1041.862, 3727.643
1042.344, 3779.448
1042.826, 3869.225
1043.309, 3929.000
1043.791, 3941.136
1044.273, 3952.599
1044.755, 3987.465
1045.237, 4019.353
1045.719, 4021.817
1046.201, 3998.517
1046.683, 3967.065
1047.166, 3929.904
1047.648, 3874.140
1048.130, 3795.243
1048.612, 3708.628
1049.094, 3612.451
1049.576, 3527.028
1050.058, 3472.169
1050.540, 3438.019
1051.022, 3396.343
1051.505, 3344.600
1051.987, 3313.651
1052.469, 3307.540
1052.951, 3297.414
1053.433, 3275.619
1053.915, 3253.105
1054.397, 3235.955
1054.879, 3226.038
1055.361, 3227.066
1055.844, 3238.601
1056.326, 3256.010
1056.808, 3279.400
1057.290, 3307.060
1057.772, 3338.831
1058.254, 3363.037
1058.736, 3373.144
1059.218, 3377.003
1059.701, 3382.517
1060.183, 3392.006
1060.665, 3416.990
1061.147, 3453.945
1061.629, 3485.145
1062.111, 3507.915
1062.593, 3517.453
1063.075, 3512.535
1063.557, 3507.428
1064.040, 3518.296
1064.522, 3532.472
1065.004, 3524.078
1065.486, 3501.698
1065.968, 3490.445
1066.450, 3485.154
1066.932, 3455.045
1067.414, 3397.050
1067.896, 3352.925
1068.379, 3355.746
1068.861, 3366.810
1069.343, 3338.066
1069.825, 3293.815
1070.307, 3267.237
1070.789, 3252.045
1071.271, 3233.373
1071.753, 3208.844
1072.236, 3182.028
1072.718, 3154.010
1073.200, 3126.737
1073.682, 3104.095
1074.164, 3079.886
1074.646, 3044.786
1075.128, 3007.933
1075.610, 2981.507
1076.093, 2963.221
1076.575, 2940.325
1077.057, 2908.766
1077.539, 2893.754
1078.021, 2925.459
1078.503, 2950.759
1078.985, 2941.483
1079.467, 2920.673
1079.949, 2906.359
1080.432, 2893.031
1080.914, 2863.861
1081.396, 2819.003
1081.878, 2794.211
1082.360, 2809.352
1082.842, 2824.145
1083.324, 2838.609
1083.806, 2844.272
1084.288, 2823.080
1084.771, 2801.794
1085.253, 2815.551
1085.735, 2855.766
1086.217, 2879.867
1086.699, 2879.943
1087.181, 2885.631
1087.663, 2907.009
1088.145, 2912.123
1088.628, 2883.697
1089.110, 2854.005
1089.592, 2848.380
1090.074, 2855.227
1090.556, 2848.020
1091.038, 2825.849
1091.520, 2816.427
1092.002, 2821.034
1092.484, 2834.353
1092.967, 2859.153
1093.449, 2865.190
1093.931, 2833.805
1094.413, 2795.447
1094.895, 2791.388
1095.377, 2809.051
1095.859, 2801.353
1096.341, 2771.385
1096.823, 2739.684
1097.306, 2709.275
1097.788, 2691.224
1098.270, 2688.095
1098.752, 2681.687
1099.234, 2656.400
1099.716, 2625.203
1100.198, 2608.633
1100.680, 2600.279
1101.163, 2589.041
1101.645, 2574.231
1102.127, 2555.466
1102.609, 2533.036
1103.091, 2506.066
1103.573, 2473.841
1104.055, 2446.381
1104.537, 2436.681
1105.020, 2430.679
1105.502, 2418.644
1105.984, 2400.343
1106.466, 2371.680
1106.948, 2338.041
1107.430, 2311.569
1107.912, 2294.331
1108.394, 2275.637
1108.876, 2240.360
1109.359, 2219.151
1109.841, 2240.109
1110.323, 2259.936
1110.805, 2245.309
1111.287, 2219.295
1111.769, 2214.265
1112.251, 2226.228
1112.733, 2224.036
1113.215, 2195.370
1113.698, 2176.727
1114.180, 2177.728
1114.662, 2175.101
1115.144, 2160.119
1115.626, 2145.412
1116.108, 2142.028
1116.590, 2141.645
1117.072, 2127.021
1117.555, 2098.020
1118.037, 2080.010
1118.519, 2073.672
1119.001, 2075.606
1119.483, 2086.517
1119.965, 2099.957
1120.447, 2114.384
1120.929, 2121.942
1121.411, 2113.366
1121.894, 2094.797
1122.376, 2080.456
1122.858, 2070.527
1123.340, 2068.587
1123.822, 2072.375
1124.304, 2065.858
1124.786, 2047.971
1125.268, 2040.422
1125.750, 2056.043
1126.233, 2077.843
1126.715, 2089.974
1127.197, 2093.998
1127.679, 2086.722
1128.161, 2076.140
1128.643, 2076.178
1129.125, 2084.129
1129.607, 2089.119
1130.090, 2088.538
1130.572, 2087.924
1131.054, 2087.786
1131.536, 2092.373
1132.018, 2109.842
1132.500, 2126.223
1132.982, 2134.553
1133.464, 2134.510
1133.947, 2120.427
1134.429, 2097.996
1134.911, 2089.016
1135.393, 2100.640
1135.875, 2110.045
1136.357, 2114.425
1136.839, 2118.135
1137.321, 2124.312
1137.803, 2125.869
1138.286, 2113.952
1138.768, 2101.373
1139.250, 2110.419
1139.732, 2136.915
1140.214, 2139.492
1140.696, 2114.597
1141.178, 2091.410
1141.660, 2071.136
1142.142, 2060.854
1142.625, 2063.318
1143.107, 2069.056
1143.589, 2071.190
1144.071, 2069.872
1144.553, 2063.439
1145.035, 2054.428
1145.517, 2051.852
1145.999, 2053.236
1146.482, 2049.529
1146.964, 2041.340
1147.446, 2037.393
1147.928, 2040.592
1148.410, 2042.892
1148.892, 2037.902
1149.374, 2030.369
1149.856, 2023.153
1150.339, 2016.761
1150.821, 2013.454
1151.303, 2010.288
1151.785, 2002.500
1152.267, 1990.470
1152.749, 1977.785
1153.231, 1964.361
1153.713, 1954.284
1154.195, 1946.778
1154.677, 1944.988
1155.160, 1955.890
1155.642, 1966.166
1156.124, 1968.023
1156.606, 1964.091
1157.088, 1956.837
1157.570, 1946.882
1158.052, 1941.857
1158.534, 1942.842
1159.017, 1944.128
1159.499, 1945.729
1159.981, 1945.698
1160.463, 1943.247
1160.945, 1941.427
1161.427, 1943.094
1161.909, 1943.143
1162.391, 1930.063
1162.874, 1909.372
1163.356, 1898.198
1163.838, 1895.655
1164.320, 1905.692
1164.802, 1922.127
1165.284, 1916.790
1165.766, 1884.287
1166.248, 1863.345
1166.730, 1886.704
1167.213, 1911.968
1167.695, 1901.535
1168.177, 1880.214
1168.659, 1862.579
1169.141, 1852.907
1169.623, 1860.534
1170.105, 1878.250
1170.587, 1882.215
1171.069, 1864.576
1171.552, 1864.756
1172.034, 1910.919
1172.516, 1941.995
1172.998, 1940.096
1173.480, 1934.272
1173.962, 1937.184
1174.444, 1940.645
1174.926, 1935.264
1175.409, 1924.191
1175.891, 1917.989
1176.373, 1916.718
1176.855, 1920.931
1177.337, 1930.850
1177.819, 1938.003
1178.301, 1940.656
1178.783, 1932.428
1179.266, 1910.147
1179.748, 1891.939
1180.230, 1900.128
1180.712, 1918.190
1181.194, 1918.123
1181.676, 1910.026
1182.158, 1912.052
1182.640, 1919.697
1183.122, 1920.271
1183.604, 1913.779
1184.087, 1910.507
1184.569, 1914.975
1185.051, 1916.760
1185.533, 1908.819
1186.015, 1900.310
1186.497, 1892.503
1186.979, 1888.188
1187.461, 1890.678
1187.944, 1896.923
1188.426, 1903.975
1188.908, 1911.049
1189.390, 1913.395
1189.872, 1910.396
1190.354, 1904.766
1190.836, 1896.378
1191.318, 1885.331
1191.801, 1871.161
1192.283, 1856.680
1192.765, 1842.662
1193.247, 1836.643
1193.729, 1851.414
1194.211, 1875.908
1194.693, 1879.494
1195.175, 1872.224
1195.657, 1885.298
1196.140, 1911.018
1196.622, 1919.995
1197.104, 1910.289
1197.586, 1904.614
1198.068, 1913.629
1198.550, 1920.647
1199.032, 1909.360
1199.514, 1900.690
1199.996, 1910.247
1200.479, 1923.302
1200.961, 1927.757
1201.443, 1928.444
1201.925, 1935.692
1202.407, 1947.738
1202.889, 1947.609
1203.371, 1926.039
1203.853, 1924.127
1204.336, 1952.190
1204.818, 1964.544
1205.300, 1948.217
1205.782, 1932.920
1206.264, 1934.368
1206.746, 1945.832
1207.228, 1962.427
1207.710, 1977.072
1208.193, 1965.707
1208.675, 1939.981
1209.157, 1936.515
1209.639, 1948.517
1210.121, 1952.927
1210.603, 1945.825
1211.085, 1929.723
1211.567, 1905.199
1212.049, 1891.066
1212.531, 1911.880
1213.014, 1928.397
1213.496, 1909.943
1213.978, 1890.915
1214.460, 1899.246
1214.942, 1917.918
1215.424, 1925.236
1215.906, 1923.391
1216.388, 1923.963
1216.871, 1927.803
1217.353, 1928.850
1217.835, 1926.998
1218.317, 1921.727
1218.799, 1911.819
1219.281, 1907.638
1219.763, 1913.992
1220.245, 1920.146
1220.728, 1915.890
1221.210, 1907.333
1221.692, 1903.993
1222.174, 1904.990
1222.656, 1911.813
1223.138, 1919.925
1223.620, 1917.277
1224.102, 1907.907
1224.584, 1908.089
1225.067, 1920.994
1225.549, 1930.310
1226.031, 1927.154
1226.513, 1923.147
1226.995, 1927.899
1227.477, 1925.180
1227.959, 1891.870
1228.441, 1865.646
1228.923, 1879.877
1229.406, 1913.854
1229.888, 1932.575
1230.370, 1937.376
1230.852, 1942.689
1231.334, 1948.972
1231.816, 1941.642
1232.298, 1920.599
1232.780, 1902.210
1233.263, 1890.981
1233.745, 1886.410
1234.227, 1888.295
1234.709, 1893.921
1235.191, 1904.651
1235.673, 1912.780
1236.155, 1905.481
1236.637, 1894.860
1237.120, 1898.811
1237.602, 1906.566
1238.084, 1895.703
1238.566, 1870.559
1239.048, 1859.347
1239.530, 1870.808
1240.012, 1878.063
##END=



