##NAMES=Burbankite
##RRUFFID=R050646
##IDEAL CHEMISTRY=(Na,Ca)_3_(Sr,Ba,Ce)_3_(CO_3_)_5_
##LOCALITY=Cerro Sapo, Cochabamba Department, Bolivia
##OWNER=RRUFF
##SOURCE=Marcus Origlieri
##DESCRIPTION=Brown prismatic crystals associated with blue sodalite, R060405, and dolomite
##STATUS=The identification of this mineral has been confirmed by X-ray diffraction and chemical analysis
##URL=rruff.info/R050646
##MEASURED CHEMISTRY=gray: (Na_2.03_Ca_0.97_)_Σ=3_(Sr_3.14_Ba_0.18_Ce_0.17_[box]_0.15_Th_0.10_Nd_0.08_La_0.08_)_Σ=3_(CO_3_)_5_ ; light-gray: (Na_1.97_Ca_1.03_)_Σ=3_(Sr_1.87_[box]_0.40_Ba_0.37_Ce_0.14_Th_0.11_Nd_0.06_La_0.05_)_Σ=3_(CO_3_)_5_ ; C estimated by stoichiometry
89.78156, 0.0000000E+00
90.26367, 69.77914
90.74579, 69.44102
91.22791, 69.54479
91.71002, 70.05037
92.19214, 70.61198
92.67426, 70.81621
93.15638, 70.83960
93.63850, 71.15350
94.12061, 72.11381
94.60273, 73.41837
95.08485, 74.45589
95.56696, 75.23521
96.04908, 75.62486
96.53120, 75.08113
97.01331, 73.68071
97.49543, 72.78751
97.97755, 73.54015
98.45966, 75.78260
98.94178, 76.51716
99.42390, 75.34609
99.90602, 73.20911
100.3881, 71.75636
100.8703, 71.00608
101.3524, 70.87346
101.8345, 71.52859
102.3166, 73.27418
102.7987, 74.45009
103.2808, 74.76600
103.7630, 74.43422
104.2451, 74.37191
104.7272, 74.67013
105.2093, 75.11707
105.6914, 75.62976
106.1735, 76.47428
106.6557, 76.88963
107.1378, 76.40040
107.6199, 74.94265
108.1020, 74.70940
108.5841, 76.89522
109.0662, 79.67925
109.5484, 81.45573
110.0305, 80.58552
110.5126, 80.35493
110.9947, 81.59841
111.4768, 84.76717
111.9590, 87.40334
112.4411, 88.49096
112.9232, 89.13553
113.4053, 90.72585
113.8874, 94.22796
114.3695, 98.14309
114.8517, 101.8555
115.3338, 105.1075
115.8159, 108.6128
116.2980, 112.0778
116.7801, 115.9585
117.2622, 121.1857
117.7444, 128.4101
118.2265, 136.9538
118.7086, 146.3578
119.1907, 156.7045
119.6728, 167.7977
120.1549, 179.6222
120.6371, 192.1465
121.1192, 205.2996
121.6013, 218.9178
122.0834, 233.0615
122.5655, 247.7647
123.0476, 263.3886
123.5298, 279.2694
124.0119, 294.7578
124.4940, 309.8839
124.9761, 325.1417
125.4582, 341.5217
125.9404, 358.2072
126.4225, 373.4430
126.9046, 385.4597
127.3867, 395.9412
127.8688, 407.4555
128.3509, 420.0313
128.8331, 433.3618
129.3152, 446.4473
129.7973, 459.7555
130.2794, 475.2361
130.7615, 494.4152
131.2436, 516.5860
131.7258, 539.3243
132.2079, 562.6916
132.6900, 586.1799
133.1721, 608.8243
133.6542, 630.5105
134.1364, 652.5450
134.6185, 676.3184
135.1006, 701.8228
135.5827, 726.0780
136.0648, 749.1569
136.5469, 770.8136
137.0291, 790.2854
137.5112, 807.1998
137.9933, 822.9392
138.4754, 838.5685
138.9575, 854.0584
139.4396, 868.8523
139.9218, 882.9617
140.4039, 896.2528
140.8860, 907.4147
141.3681, 915.3472
141.8502, 922.9770
142.3323, 932.3849
142.8145, 944.2079
143.2966, 956.4242
143.7787, 968.2523
144.2608, 979.8384
144.7429, 993.6884
145.2250, 1011.173
145.7072, 1029.864
146.1893, 1047.556
146.6714, 1063.726
147.1535, 1079.605
147.6356, 1094.837
148.1178, 1108.942
148.5999, 1125.295
149.0820, 1145.774
149.5641, 1167.658
150.0462, 1187.546
150.5283, 1203.337
151.0105, 1215.465
151.4926, 1224.572
151.9747, 1230.576
152.4568, 1234.637
152.9389, 1235.747
153.4210, 1235.193
153.9032, 1234.770
154.3853, 1235.748
154.8674, 1235.943
155.3495, 1234.385
155.8316, 1229.822
156.3137, 1226.283
156.7959, 1224.831
157.2780, 1224.729
157.7601, 1224.621
158.2422, 1223.610
158.7243, 1222.909
159.2065, 1223.214
159.6886, 1225.472
160.1707, 1227.180
160.6528, 1227.031
161.1349, 1225.692
161.6170, 1224.955
162.0992, 1226.158
162.5813, 1227.724
163.0634, 1228.649
163.5455, 1228.780
164.0276, 1228.146
164.5097, 1226.167
164.9919, 1223.235
165.4740, 1220.888
165.9561, 1219.801
166.4382, 1219.672
166.9203, 1220.289
167.4024, 1222.821
167.8846, 1224.843
168.3667, 1223.995
168.8488, 1220.795
169.3309, 1218.591
169.8130, 1220.720
170.2952, 1224.629
170.7773, 1227.130
171.2594, 1226.552
171.7415, 1224.635
172.2236, 1222.435
172.7057, 1219.977
173.1879, 1217.852
173.6700, 1216.563
174.1521, 1215.870
174.6342, 1215.370
175.1163, 1215.156
175.5984, 1214.899
176.0806, 1214.361
176.5627, 1213.542
177.0448, 1212.121
177.5269, 1209.309
178.0090, 1205.649
178.4911, 1202.347
178.9733, 1200.503
179.4554, 1199.200
179.9375, 1196.897
180.4196, 1193.551
180.9017, 1189.753
181.3838, 1186.005
181.8660, 1182.332
182.3481, 1178.642
182.8302, 1174.857
183.3123, 1171.086
183.7944, 1167.588
184.2766, 1164.369
184.7587, 1161.349
185.2408, 1158.504
185.7229, 1155.812
186.2050, 1152.924
186.6871, 1149.420
187.1693, 1145.519
187.6514, 1142.295
188.1335, 1139.800
188.6156, 1137.721
189.0977, 1135.587
189.5798, 1133.401
190.0620, 1131.287
190.5441, 1129.439
191.0262, 1127.746
191.5083, 1125.418
191.9904, 1122.121
192.4725, 1118.714
192.9547, 1116.846
193.4368, 1116.547
193.9189, 1116.376
194.4010, 1115.347
194.8831, 1113.558
195.3652, 1112.443
195.8474, 1112.120
196.3295, 1112.485
196.8116, 1113.633
197.2937, 1115.682
197.7758, 1117.409
198.2579, 1117.689
198.7401, 1116.464
199.2222, 1116.373
199.7043, 1117.844
200.1864, 1120.239
200.6685, 1122.108
201.1507, 1123.320
201.6328, 1124.518
202.1149, 1126.062
202.5970, 1127.965
203.0791, 1130.018
203.5612, 1132.149
204.0434, 1134.437
204.5255, 1137.299
205.0076, 1141.031
205.4897, 1144.350
205.9718, 1146.233
206.4539, 1146.372
206.9361, 1147.012
207.4182, 1148.474
207.9003, 1150.519
208.3824, 1152.339
208.8645, 1153.742
209.3466, 1155.456
209.8288, 1158.378
210.3109, 1163.198
210.7930, 1166.001
211.2751, 1165.528
211.7572, 1163.024
212.2393, 1163.308
212.7215, 1167.274
213.2036, 1172.026
213.6857, 1175.808
214.1678, 1178.459
214.6499, 1180.705
215.1320, 1182.717
215.6142, 1184.370
216.0963, 1185.001
216.5784, 1184.233
217.0605, 1183.154
217.5426, 1182.193
218.0247, 1180.831
218.5069, 1181.318
218.9890, 1184.840
219.4711, 1190.416
219.9532, 1193.174
220.4353, 1191.782
220.9175, 1189.828
221.3996, 1189.667
221.8817, 1192.146
222.3638, 1194.277
222.8459, 1195.971
223.3280, 1197.135
223.8102, 1197.091
224.2923, 1195.333
224.7744, 1193.133
225.2565, 1191.498
225.7386, 1191.356
226.2207, 1189.499
226.7029, 1185.459
227.1850, 1179.434
227.6671, 1172.530
228.1492, 1164.199
228.6313, 1155.766
229.1134, 1147.958
229.5956, 1140.464
230.0777, 1134.263
230.5598, 1130.133
231.0419, 1127.445
231.5240, 1122.769
232.0062, 1114.688
232.4883, 1106.574
232.9704, 1100.635
233.4525, 1098.297
233.9346, 1095.013
234.4167, 1090.146
234.8989, 1084.059
235.3810, 1078.437
235.8631, 1073.241
236.3452, 1068.449
236.8273, 1064.049
237.3094, 1060.328
237.7916, 1056.303
238.2737, 1051.517
238.7558, 1046.327
239.2379, 1042.269
239.7200, 1040.013
240.2021, 1037.959
240.6843, 1035.114
241.1664, 1030.686
241.6485, 1027.309
242.1306, 1025.916
242.6127, 1025.657
243.0948, 1023.148
243.5770, 1016.874
244.0591, 1010.476
244.5412, 1006.062
245.0233, 1005.093
245.5054, 1002.870
245.9876, 999.2813
246.4697, 994.3688
246.9518, 987.7573
247.4339, 977.6781
247.9160, 968.5065
248.3981, 962.6719
248.8803, 961.8427
249.3624, 960.1851
249.8445, 957.1187
250.3266, 953.2601
250.8087, 950.4319
251.2908, 949.4483
251.7730, 948.1797
252.2551, 945.4613
252.7372, 940.1569
253.2193, 936.3094
253.7014, 934.4893
254.1835, 933.8934
254.6657, 932.7432
255.1478, 930.8868
255.6299, 928.7412
256.1120, 926.3979
256.5941, 923.7563
257.0763, 921.2668
257.5584, 918.7279
258.0405, 916.4557
258.5226, 915.3681
259.0047, 916.4074
259.4868, 916.6730
259.9690, 914.7396
260.4511, 909.8759
260.9332, 906.2289
261.4153, 904.1061
261.8974, 902.8845
262.3795, 901.6203
262.8617, 900.3752
263.3438, 898.8879
263.8259, 896.8373
264.3080, 894.0133
264.7901, 892.4048
265.2722, 892.7409
265.7544, 893.4191
266.2365, 891.8095
266.7186, 887.0070
267.2007, 882.7314
267.6828, 880.4720
268.1649, 880.3787
268.6471, 878.9940
269.1292, 875.7535
269.6113, 872.0781
270.0934, 869.9086
270.5755, 869.6975
271.0576, 869.1849
271.5398, 867.7540
272.0219, 865.4113
272.5040, 862.7383
272.9861, 859.6371
273.4682, 856.4902
273.9503, 853.6963
274.4325, 851.3234
274.9146, 849.0108
275.3967, 846.7719
275.8788, 844.5322
276.3610, 841.7729
276.8431, 838.3767
277.3252, 834.9003
277.8073, 832.0599
278.2894, 829.9668
278.7715, 827.1998
279.2537, 823.0504
279.7358, 818.1017
280.2179, 815.2037
280.7000, 814.8802
281.1821, 814.2362
281.6642, 810.0021
282.1464, 802.1465
282.6285, 796.7125
283.1106, 795.4045
283.5927, 796.5188
284.0748, 795.2893
284.5569, 791.4818
285.0391, 787.2985
285.5212, 784.0988
286.0033, 781.8333
286.4854, 780.0928
286.9675, 778.9326
287.4496, 778.0836
287.9318, 777.1678
288.4139, 776.1754
288.8960, 774.7857
289.3781, 772.3367
289.8602, 769.1576
290.3423, 767.0805
290.8245, 766.5178
291.3066, 766.4598
291.7887, 765.6760
292.2708, 764.1428
292.7529, 761.5359
293.2350, 757.0555
293.7172, 751.3220
294.1993, 746.4379
294.6814, 742.5671
295.1635, 739.0950
295.6456, 735.2358
296.1277, 731.1052
296.6099, 727.2555
297.0920, 724.0585
297.5741, 721.3390
298.0562, 718.8870
298.5383, 716.7330
299.0204, 714.6600
299.5026, 712.4923
299.9847, 710.2589
300.4668, 707.9557
300.9489, 705.5487
301.4311, 703.1381
301.9132, 701.0252
302.3953, 699.1807
302.8774, 697.2354
303.3595, 694.6768
303.8416, 691.8349
304.3238, 689.1876
304.8059, 686.7264
305.2880, 684.7574
305.7701, 683.9859
306.2522, 684.2160
306.7343, 684.3074
307.2165, 683.2886
307.6986, 681.7566
308.1807, 680.5062
308.6628, 679.9594
309.1449, 679.3259
309.6270, 677.5696
310.1092, 675.0923
310.5913, 673.2552
311.0734, 673.3239
311.5555, 674.0651
312.0376, 674.4880
312.5197, 674.4791
313.0019, 673.9492
313.4840, 672.5803
313.9661, 670.6559
314.4482, 668.7487
314.9303, 667.0609
315.4124, 665.5038
315.8946, 663.9424
316.3767, 662.2595
316.8588, 661.1033
317.3409, 661.5999
317.8230, 662.5549
318.3051, 662.3937
318.7873, 659.3378
319.2694, 656.2102
319.7515, 654.1537
320.2336, 653.2832
320.7157, 652.7985
321.1978, 653.1350
321.6800, 653.4594
322.1621, 653.0159
322.6442, 650.8161
323.1263, 648.6896
323.6084, 647.0756
324.0905, 645.9545
324.5727, 644.8871
325.0548, 643.5245
325.5369, 642.3970
326.0190, 641.8318
326.5012, 642.3685
326.9833, 642.8816
327.4654, 643.4962
327.9475, 644.0862
328.4296, 644.1103
328.9117, 642.3864
329.3939, 641.1436
329.8760, 641.4695
330.3581, 645.4172
330.8402, 647.0481
331.3223, 644.8235
331.8044, 640.6992
332.2866, 638.7253
332.7687, 640.2447
333.2508, 641.9527
333.7329, 642.8703
334.2150, 642.9011
334.6971, 642.5000
335.1793, 641.3944
335.6614, 640.1170
336.1435, 639.3434
336.6256, 639.1050
337.1077, 639.3463
337.5898, 640.2768
338.0720, 641.8557
338.5541, 642.7336
339.0362, 642.8107
339.5183, 642.4824
340.0004, 641.9902
340.4825, 641.2733
340.9647, 640.9049
341.4468, 641.1328
341.9289, 641.6985
342.4110, 641.6806
342.8931, 640.9940
343.3752, 640.2354
343.8574, 639.7145
344.3395, 639.4252
344.8216, 639.4726
345.3037, 639.8221
345.7858, 640.5636
346.2679, 642.3746
346.7501, 645.1469
347.2322, 647.0007
347.7143, 646.3303
348.1964, 643.9158
348.6785, 642.3500
349.1607, 641.8017
349.6428, 641.5615
350.1249, 640.9579
350.6070, 640.0236
351.0891, 638.8184
351.5713, 636.9354
352.0534, 635.0315
352.5355, 634.2490
353.0176, 634.5660
353.4997, 635.0028
353.9818, 634.7072
354.4640, 634.0580
354.9461, 633.7020
355.4282, 634.2907
355.9103, 634.6426
356.3924, 633.0022
356.8745, 629.9818
357.3567, 628.0303
357.8388, 629.9301
358.3209, 632.7048
358.8030, 633.6041
359.2851, 631.5070
359.7672, 629.2045
360.2494, 628.3131
360.7315, 628.2441
361.2136, 627.9242
361.6957, 626.3834
362.1778, 624.9420
362.6599, 624.4327
363.1421, 625.0673
363.6242, 625.4189
364.1063, 624.7995
364.5884, 623.7827
365.0705, 622.9606
365.5526, 622.6282
366.0348, 622.3087
366.5169, 621.8604
366.9990, 621.2910
367.4811, 620.8181
367.9632, 620.4824
368.4453, 620.2291
368.9275, 620.0391
369.4096, 620.3238
369.8917, 620.0867
370.3738, 618.7576
370.8559, 616.9116
371.3380, 616.2122
371.8202, 617.3463
372.3023, 618.7068
372.7844, 619.9429
373.2665, 621.4693
373.7487, 621.0670
374.2308, 618.0006
374.7129, 613.7516
375.1950, 609.8993
375.6771, 605.9318
376.1592, 604.1130
376.6414, 605.7643
377.1235, 610.4083
377.6056, 613.0928
378.0877, 613.4742
378.5698, 613.1205
379.0519, 613.5756
379.5341, 614.8492
380.0162, 615.1483
380.4983, 613.8082
380.9804, 611.7585
381.4625, 611.3139
381.9446, 612.4346
382.4268, 613.6783
382.9089, 614.1605
383.3910, 614.0594
383.8731, 613.9805
384.3552, 613.9854
384.8373, 613.9232
385.3195, 613.3907
385.8016, 612.6068
386.2837, 612.2158
386.7658, 613.0182
387.2479, 614.1213
387.7300, 614.3322
388.2122, 613.6725
388.6943, 612.8000
389.1764, 611.8502
389.6585, 611.0901
390.1406, 610.9064
390.6227, 611.6002
391.1049, 612.6114
391.5870, 613.8739
392.0691, 615.2083
392.5512, 616.0753
393.0333, 615.8369
393.5154, 615.3243
393.9976, 615.0150
394.4797, 614.9485
394.9618, 615.1817
395.4439, 615.9581
395.9260, 616.9828
396.4081, 617.8602
396.8903, 618.2850
397.3724, 618.7902
397.8545, 619.7590
398.3366, 621.2385
398.8188, 621.9904
399.3009, 620.9528
399.7830, 619.8104
400.2651, 619.6508
400.7472, 621.3931
401.2293, 622.7164
401.7115, 623.2048
402.1936, 623.2275
402.6757, 624.0508
403.1578, 626.4775
403.6399, 628.3035
404.1220, 628.1882
404.6042, 625.4886
405.0863, 624.7585
405.5684, 626.5746
406.0505, 629.4351
406.5326, 631.5207
407.0147, 632.8068
407.4969, 633.5410
407.9790, 633.7787
408.4611, 633.5347
408.9432, 632.6214
409.4253, 630.9645
409.9074, 629.5060
410.3896, 629.2623
410.8717, 629.9242
411.3538, 630.0105
411.8359, 629.1403
412.3180, 628.0438
412.8001, 628.1096
413.2823, 628.9672
413.7644, 629.1353
414.2465, 626.8633
414.7286, 623.8726
415.2107, 622.7142
415.6928, 623.5612
416.1750, 624.4167
416.6571, 623.5793
417.1392, 621.8800
417.6213, 620.4295
418.1034, 620.0408
418.5855, 619.5388
419.0677, 617.5545
419.5498, 614.6866
420.0319, 613.2518
420.5140, 616.1623
420.9961, 619.3809
421.4782, 620.3168
421.9604, 617.8061
422.4425, 615.2011
422.9246, 612.4506
423.4067, 610.2482
423.8889, 609.5180
424.3710, 612.0856
424.8531, 614.3687
425.3352, 615.5182
425.8173, 615.5353
426.2994, 615.5836
426.7816, 615.9298
427.2637, 616.0346
427.7458, 615.4648
428.2279, 613.7638
428.7100, 612.4644
429.1921, 611.6735
429.6743, 611.3358
430.1564, 611.5156
430.6385, 612.4276
431.1206, 613.0218
431.6027, 612.6873
432.0848, 611.4784
432.5670, 610.7620
433.0491, 610.5847
433.5312, 610.7115
434.0133, 611.0027
434.4954, 611.4248
434.9775, 611.7974
435.4597, 612.2604
435.9418, 612.4279
436.4239, 611.0624
436.9060, 608.4730
437.3881, 606.5569
437.8702, 606.8620
438.3524, 608.4581
438.8345, 610.1442
439.3166, 611.8283
439.7987, 613.3254
440.2808, 614.7647
440.7629, 615.8653
441.2451, 616.1808
441.7272, 614.9807
442.2093, 613.4465
442.6914, 611.7161
443.1735, 609.9750
443.6556, 609.3676
444.1378, 611.7931
444.6199, 614.4898
445.1020, 615.6427
445.5841, 614.1570
446.0662, 612.7830
446.5483, 611.8549
447.0305, 611.2723
447.5126, 610.8529
447.9947, 610.2717
448.4768, 610.2480
448.9590, 611.0362
449.4411, 612.6462
449.9232, 614.4612
450.4053, 616.9635
450.8874, 618.9835
451.3695, 619.3741
451.8517, 617.5944
452.3338, 616.6097
452.8159, 616.8821
453.2980, 617.8424
453.7801, 618.3438
454.2622, 618.3497
454.7444, 618.3399
455.2265, 618.6121
455.7086, 619.0574
456.1907, 619.1398
456.6728, 618.8390
457.1549, 618.4915
457.6371, 618.2039
458.1192, 618.1115
458.6013, 618.6281
459.0834, 620.1266
459.5655, 621.7582
460.0476, 622.6698
460.5298, 622.9661
461.0119, 622.9193
461.4940, 622.1488
461.9761, 621.4537
462.4582, 621.6393
462.9403, 622.8436
463.4225, 623.8490
463.9046, 623.9551
464.3867, 623.6686
464.8688, 623.4677
465.3509, 623.8338
465.8330, 623.8851
466.3152, 623.1960
466.7973, 622.0049
467.2794, 621.1649
467.7615, 620.5417
468.2436, 620.4617
468.7257, 621.2516
469.2079, 623.2772
469.6900, 624.3700
470.1721, 624.0153
470.6542, 623.2718
471.1363, 623.3031
471.6184, 624.3293
472.1006, 625.2751
472.5827, 626.0309
473.0648, 626.5374
473.5469, 626.4161
474.0291, 625.5953
474.5112, 625.0130
474.9933, 625.7019
475.4754, 627.1889
475.9575, 626.9540
476.4396, 624.6595
476.9218, 622.5952
477.4039, 623.7119
477.8860, 626.9285
478.3681, 629.7763
478.8502, 631.6211
479.3323, 632.5833
479.8145, 632.2421
480.2966, 630.9588
480.7787, 630.0941
481.2608, 631.0250
481.7429, 632.1271
482.2250, 631.9504
482.7072, 629.9676
483.1893, 628.8598
483.6714, 630.8688
484.1535, 633.6329
484.6356, 634.7750
485.1177, 631.6221
485.5999, 629.4797
486.0820, 630.0333
486.5641, 632.3954
487.0462, 633.1573
487.5283, 630.7269
488.0104, 628.8623
488.4926, 629.3290
488.9747, 632.6775
489.4568, 634.7732
489.9389, 635.3417
490.4210, 635.1215
490.9031, 634.6061
491.3853, 633.7203
491.8674, 633.7486
492.3495, 635.1738
492.8316, 637.3838
493.3137, 639.3033
493.7958, 640.9080
494.2780, 641.8506
494.7601, 641.2707
495.2422, 640.0440
495.7243, 639.8782
496.2064, 640.8709
496.6885, 642.3362
497.1707, 644.4662
497.6528, 646.5155
498.1349, 647.4219
498.6170, 646.3549
499.0992, 644.8744
499.5813, 643.3634
500.0634, 642.0623
500.5455, 641.5389
501.0276, 642.6998
501.5097, 644.0273
501.9919, 644.9218
502.4740, 645.2833
502.9561, 645.5995
503.4382, 645.9957
503.9203, 646.3031
504.4024, 646.4199
504.8846, 646.3952
505.3667, 646.0436
505.8488, 645.1311
506.3309, 644.0314
506.8130, 643.5623
507.2951, 643.7944
507.7773, 644.3589
508.2594, 645.2202
508.7415, 646.3117
509.2236, 647.3962
509.7057, 648.5010
510.1878, 649.2693
510.6700, 649.3051
511.1521, 648.7686
511.6342, 647.7682
512.1163, 645.9176
512.5984, 645.1186
513.0806, 648.6234
513.5627, 654.6343
514.0448, 659.3931
514.5269, 661.6818
515.0090, 661.8027
515.4911, 658.5786
515.9733, 652.6575
516.4554, 648.3386
516.9375, 648.0397
517.4196, 649.2357
517.9017, 650.5209
518.3839, 651.7229
518.8660, 653.0108
519.3481, 655.0935
519.8302, 656.9354
520.3123, 657.3010
520.7944, 655.1893
521.2766, 653.4576
521.7587, 652.6423
522.2408, 652.5253
522.7229, 652.1580
523.2050, 651.4284
523.6871, 650.9086
524.1693, 651.0312
524.6514, 651.7344
525.1335, 652.0847
525.6156, 652.0176
526.0977, 652.0517
526.5798, 653.1164
527.0620, 654.7432
527.5441, 655.3731
528.0262, 654.1944
528.5083, 652.8009
528.9904, 653.0775
529.4725, 654.4849
529.9547, 655.7259
530.4368, 655.2779
530.9189, 655.1316
531.4010, 657.1612
531.8831, 661.3643
532.3652, 664.4083
532.8474, 664.4730
533.3295, 663.5824
533.8116, 662.9671
534.2937, 662.4854
534.7758, 662.8348
535.2579, 665.1272
535.7401, 667.7248
536.2222, 668.0331
536.7043, 664.8760
537.1864, 662.2001
537.6685, 660.7798
538.1506, 660.4999
538.6328, 660.9863
539.1149, 662.3246
539.5970, 663.9797
540.0791, 666.0322
540.5612, 668.2317
541.0433, 668.9249
541.5255, 667.9056
542.0076, 666.8100
542.4897, 667.4826
542.9718, 669.2177
543.4539, 670.6219
543.9360, 671.2548
544.4182, 671.5018
544.9003, 671.3359
545.3824, 670.9929
545.8645, 671.0048
546.3466, 671.6555
546.8287, 672.6348
547.3109, 673.8849
547.7930, 675.3905
548.2751, 676.8811
548.7572, 678.9774
549.2393, 680.5223
549.7214, 680.8308
550.2036, 679.2519
550.6857, 677.8619
551.1678, 676.4576
551.6499, 675.4639
552.1320, 675.6461
552.6141, 677.1979
553.0963, 678.7559
553.5784, 680.1891
554.0605, 681.2804
554.5426, 681.2393
555.0247, 680.1218
555.5068, 678.9033
555.9890, 677.7689
556.4711, 677.0505
556.9532, 677.5939
557.4353, 679.4202
557.9174, 681.4003
558.3995, 683.1057
558.8817, 684.2950
559.3638, 684.6101
559.8459, 683.5789
560.3281, 682.4482
560.8102, 681.3145
561.2923, 680.4916
561.7744, 680.4875
562.2565, 681.6877
562.7386, 683.4338
563.2208, 686.2460
563.7029, 689.7523
564.1850, 691.2943
564.6671, 689.8331
565.1492, 688.2387
565.6313, 688.0034
566.1135, 689.2581
566.5956, 690.0981
567.0777, 690.4480
567.5598, 690.6238
568.0419, 690.8262
568.5240, 691.0988
569.0062, 691.7816
569.4883, 693.0969
569.9704, 694.4443
570.4525, 694.7918
570.9346, 694.5374
571.4167, 694.6868
571.8989, 695.3503
572.3810, 696.8693
572.8631, 700.3114
573.3452, 705.2243
573.8273, 708.8567
574.3094, 709.9053
574.7916, 709.5722
575.2737, 708.2161
575.7558, 705.2643
576.2379, 703.2358
576.7200, 702.2533
577.2021, 702.1603
577.6843, 703.0305
578.1664, 705.4410
578.6485, 706.9731
579.1306, 707.1047
579.6127, 706.5427
580.0948, 706.7595
580.5770, 707.7513
581.0591, 708.7488
581.5412, 709.4260
582.0233, 709.9128
582.5054, 710.3400
582.9875, 710.7513
583.4697, 711.5423
583.9518, 713.6849
584.4339, 715.9679
584.9160, 716.8821
585.3981, 716.1291
585.8802, 715.3922
586.3624, 715.6195
586.8445, 716.2203
587.3266, 716.6481
587.8087, 716.3675
588.2908, 716.4646
588.7729, 717.2956
589.2551, 718.5180
589.7372, 719.4766
590.2193, 719.6059
590.7014, 720.6071
591.1835, 723.0389
591.6656, 726.6547
592.1478, 730.7859
592.6299, 735.7201
593.1120, 738.7358
593.5941, 737.1110
594.0762, 732.1185
594.5583, 727.9698
595.0405, 724.7898
595.5226, 723.2924
596.0047, 725.8856
596.4868, 730.0032
596.9689, 731.6038
597.4510, 728.6844
597.9332, 726.0410
598.4153, 726.7214
598.8974, 729.3688
599.3795, 731.9512
599.8616, 734.5869
600.3438, 736.4378
600.8259, 736.7908
601.3080, 736.0884
601.7901, 736.0254
602.2722, 736.8035
602.7543, 737.8795
603.2365, 739.1186
603.7186, 740.4978
604.2007, 741.8836
604.6828, 743.3063
605.1649, 744.4501
605.6470, 744.6352
606.1292, 744.2131
606.6113, 744.9321
607.0934, 747.1259
607.5755, 749.4709
608.0576, 750.5380
608.5398, 750.8239
609.0219, 751.1921
609.5040, 752.4242
609.9861, 753.1309
610.4683, 751.6463
610.9504, 749.1500
611.4325, 748.1566
611.9146, 751.0836
612.3967, 753.8234
612.8788, 755.0317
613.3610, 754.8547
613.8431, 755.0432
614.3252, 755.8769
614.8073, 756.6166
615.2894, 756.7313
615.7715, 756.1446
616.2537, 756.4164
616.7358, 757.6707
617.2179, 759.1259
617.7000, 759.2537
618.1821, 758.8121
618.6642, 761.0925
619.1464, 767.5170
619.6285, 773.6273
620.1106, 774.4777
620.5927, 771.9598
621.0748, 769.3482
621.5569, 767.4971
622.0391, 766.1954
622.5212, 765.0383
623.0033, 764.3088
623.4854, 764.8629
623.9675, 768.8181
624.4496, 772.0256
624.9318, 772.7672
625.4139, 771.1331
625.8960, 771.8317
626.3781, 776.0704
626.8602, 779.8585
627.3423, 779.9933
627.8245, 776.6367
628.3066, 775.7585
628.7887, 777.7681
629.2708, 780.5211
629.7529, 781.8026
630.2350, 782.1130
630.7172, 782.5829
631.1993, 783.3846
631.6814, 784.5544
632.1635, 786.2866
632.6456, 788.3555
633.1277, 790.4357
633.6099, 793.4853
634.0920, 795.3737
634.5741, 794.4960
635.0562, 791.7584
635.5383, 790.6614
636.0204, 792.3223
636.5026, 794.1417
636.9847, 795.1777
637.4668, 795.5489
637.9489, 797.3864
638.4310, 801.1239
638.9131, 804.4930
639.3953, 805.8359
639.8774, 805.5100
640.3595, 804.8629
640.8416, 803.9062
641.3237, 803.3576
641.8058, 804.2263
642.2880, 805.8079
642.7701, 807.0590
643.2522, 807.6025
643.7343, 808.2203
644.2164, 809.0019
644.6985, 810.2004
645.1807, 812.1452
645.6628, 817.2984
646.1449, 820.1707
646.6270, 818.6487
647.1091, 814.7073
647.5912, 813.5192
648.0734, 815.9608
648.5555, 818.7413
649.0376, 821.1750
649.5197, 823.0779
650.0018, 822.9436
650.4839, 820.8005
650.9661, 819.6738
651.4482, 822.8583
651.9303, 827.8729
652.4124, 830.0666
652.8945, 829.2949
653.3766, 828.4814
653.8588, 829.7334
654.3409, 831.6790
654.8230, 833.1098
655.3051, 833.4979
655.7872, 834.2907
656.2693, 836.2559
656.7515, 838.5115
657.2336, 840.1808
657.7158, 840.8728
658.1979, 841.7756
658.6800, 842.9064
659.1621, 844.3364
659.6442, 846.5501
660.1263, 849.5494
660.6085, 851.4673
661.0906, 851.1844
661.5727, 850.1248
662.0548, 851.2691
662.5369, 853.9824
663.0190, 855.8544
663.5012, 854.1155
663.9833, 852.2084
664.4654, 853.2237
664.9475, 856.8570
665.4296, 860.0886
665.9117, 861.8995
666.3939, 863.1344
666.8760, 864.0156
667.3581, 864.4382
667.8402, 865.5216
668.3223, 867.5630
668.8044, 869.8328
669.2866, 871.8995
669.7687, 873.7860
670.2508, 874.8746
670.7329, 874.9344
671.2150, 875.0342
671.6971, 876.5299
672.1793, 879.0113
672.6614, 881.3815
673.1435, 883.3115
673.6256, 885.2846
674.1077, 887.8075
674.5898, 890.6242
675.0720, 893.3073
675.5541, 895.6349
676.0362, 897.9557
676.5183, 900.4729
677.0004, 903.0397
677.4825, 905.1870
677.9647, 906.2787
678.4468, 908.2018
678.9289, 911.6697
679.4110, 916.3617
679.8931, 921.1276
680.3752, 925.9973
680.8574, 930.1840
681.3395, 932.5746
681.8216, 934.1547
682.3037, 937.1063
682.7858, 941.3714
683.2679, 945.6160
683.7501, 948.7088
684.2322, 951.5731
684.7143, 955.1230
685.1964, 959.5367
685.6785, 963.9453
686.1606, 968.1898
686.6428, 972.2359
687.1249, 976.0604
687.6070, 979.3196
688.0891, 983.2004
688.5712, 988.0410
689.0533, 992.9840
689.5355, 996.6755
690.0176, 999.2395
690.4997, 1002.823
690.9818, 1008.101
691.4639, 1013.736
691.9460, 1017.588
692.4282, 1020.320
692.9103, 1023.355
693.3924, 1027.369
693.8745, 1031.652
694.3566, 1036.067
694.8387, 1040.396
695.3209, 1044.135
695.8030, 1047.188
696.2851, 1049.530
696.7672, 1050.818
697.2493, 1051.353
697.7314, 1052.749
698.2136, 1055.278
698.6957, 1057.803
699.1778, 1060.244
699.6599, 1062.270
700.1420, 1061.731
700.6241, 1058.776
701.1063, 1056.187
701.5884, 1056.386
702.0705, 1057.813
702.5526, 1058.523
703.0347, 1058.380
703.5168, 1058.397
703.9990, 1058.930
704.4811, 1059.910
704.9632, 1061.333
705.4453, 1063.396
705.9274, 1065.385
706.4095, 1067.307
706.8917, 1069.137
707.3738, 1070.793
707.8560, 1072.200
708.3381, 1074.014
708.8202, 1076.426
709.3023, 1078.773
709.7844, 1079.841
710.2665, 1080.154
710.7487, 1081.287
711.2308, 1083.846
711.7129, 1086.753
712.1950, 1089.397
712.6771, 1091.790
713.1592, 1093.960
713.6414, 1095.842
714.1235, 1097.550
714.6056, 1099.104
715.0877, 1100.481
715.5698, 1101.500
716.0519, 1101.830
716.5341, 1102.732
717.0162, 1104.839
717.4983, 1107.457
717.9804, 1108.344
718.4625, 1107.613
718.9446, 1106.830
719.4268, 1106.827
719.9089, 1107.152
720.3910, 1107.290
720.8731, 1107.255
721.3552, 1107.104
721.8373, 1106.547
722.3195, 1106.178
722.8016, 1106.607
723.2837, 1107.860
723.7658, 1108.231
724.2479, 1107.237
724.7300, 1105.946
725.2122, 1104.670
725.6943, 1103.401
726.1764, 1102.937
726.6585, 1103.282
727.1406, 1104.404
727.6227, 1107.030
728.1049, 1110.292
728.5870, 1111.922
729.0691, 1111.709
729.5512, 1111.112
730.0333, 1110.541
730.5154, 1110.440
730.9976, 1111.411
731.4797, 1114.062
731.9618, 1116.189
732.4439, 1116.928
732.9260, 1117.340
733.4081, 1118.283
733.8903, 1120.049
734.3724, 1121.544
734.8545, 1122.979
735.3366, 1123.494
735.8187, 1120.972
736.3008, 1116.283
736.7830, 1113.408
737.2651, 1113.221
737.7472, 1114.875
738.2293, 1118.963
738.7114, 1123.924
739.1935, 1127.400
739.6757, 1127.666
740.1578, 1127.583
740.6399, 1127.385
741.1220, 1127.463
741.6041, 1128.492
742.0862, 1130.871
742.5684, 1133.319
743.0505, 1135.688
743.5326, 1137.964
744.0147, 1140.103
744.4968, 1142.095
744.9789, 1144.073
745.4611, 1146.099
745.9432, 1148.121
746.4253, 1150.291
746.9074, 1152.430
747.3895, 1154.032
747.8716, 1153.766
748.3538, 1154.069
748.8359, 1156.384
749.3180, 1160.349
749.8001, 1163.847
750.2822, 1166.560
750.7643, 1169.276
751.2465, 1172.294
751.7286, 1175.501
752.2107, 1178.099
752.6928, 1180.089
753.1749, 1182.081
753.6570, 1184.308
754.1392, 1186.777
754.6213, 1189.645
755.1034, 1192.837
755.5855, 1195.806
756.0676, 1198.119
756.5498, 1200.246
757.0319, 1202.305
757.5140, 1204.281
757.9962, 1206.880
758.4783, 1210.222
758.9604, 1214.000
759.4425, 1218.398
759.9246, 1223.331
760.4067, 1226.685
760.8889, 1228.230
761.3710, 1230.147
761.8531, 1234.730
762.3352, 1240.598
762.8173, 1245.336
763.2994, 1248.803
763.7816, 1251.217
764.2637, 1251.081
764.7458, 1251.113
765.2279, 1253.619
765.7100, 1259.530
766.1921, 1264.594
766.6743, 1268.276
767.1564, 1271.459
767.6385, 1274.866
768.1206, 1278.698
768.6027, 1280.672
769.0848, 1280.427
769.5670, 1280.398
770.0491, 1283.305
770.5312, 1287.918
771.0133, 1291.565
771.4954, 1293.787
771.9775, 1296.646
772.4597, 1302.179
772.9418, 1308.444
773.4239, 1313.883
773.9060, 1318.096
774.3881, 1321.826
774.8702, 1324.801
775.3524, 1327.675
775.8345, 1331.125
776.3166, 1335.254
776.7987, 1338.764
777.2808, 1341.463
777.7629, 1344.027
778.2451, 1346.945
778.7272, 1350.299
779.2093, 1354.410
779.6914, 1359.482
780.1735, 1364.484
780.6556, 1368.752
781.1378, 1372.610
781.6199, 1376.353
782.1020, 1379.822
782.5841, 1383.420
783.0662, 1387.158
783.5483, 1390.999
784.0305, 1394.702
784.5126, 1398.262
784.9947, 1402.892
785.4768, 1408.982
785.9589, 1414.930
786.4410, 1418.322
786.9232, 1420.343
787.4053, 1423.297
787.8874, 1428.146
788.3695, 1432.921
788.8516, 1436.350
789.3337, 1439.414
789.8159, 1443.353
790.2980, 1449.464
790.7801, 1454.084
791.2622, 1456.266
791.7443, 1458.020
792.2264, 1462.093
792.7086, 1468.390
793.1907, 1474.579
793.6728, 1480.424
794.1549, 1485.708
794.6370, 1489.808
795.1191, 1493.372
795.6013, 1497.523
796.0834, 1502.910
796.5655, 1508.229
797.0476, 1513.140
797.5297, 1517.725
798.0118, 1522.063
798.4940, 1525.854
798.9761, 1530.244
799.4582, 1535.459
799.9403, 1541.025
800.4224, 1546.407
800.9045, 1551.650
801.3867, 1557.246
801.8688, 1563.382
802.3509, 1569.469
802.8330, 1575.059
803.3151, 1580.124
803.7972, 1584.489
804.2794, 1587.327
804.7615, 1590.815
805.2436, 1595.863
805.7258, 1601.566
806.2079, 1606.898
806.6900, 1611.520
807.1721, 1617.389
807.6542, 1625.078
808.1364, 1632.869
808.6185, 1637.816
809.1006, 1640.934
809.5827, 1645.334
810.0648, 1651.964
810.5469, 1659.116
811.0291, 1666.227
811.5112, 1672.820
811.9933, 1678.395
812.4754, 1681.529
812.9575, 1685.701
813.4396, 1691.313
813.9218, 1697.785
814.4039, 1704.661
814.8860, 1712.079
815.3681, 1718.530
815.8502, 1723.750
816.3323, 1728.652
816.8145, 1734.049
817.2966, 1739.953
817.7787, 1746.652
818.2608, 1754.581
818.7429, 1762.157
819.2250, 1767.987
819.7072, 1773.462
820.1893, 1780.072
820.6714, 1788.848
821.1535, 1796.386
821.6356, 1802.287
822.1177, 1807.659
822.5999, 1813.343
823.0820, 1819.408
823.5641, 1826.552
824.0462, 1834.988
824.5283, 1843.570
825.0104, 1850.998
825.4926, 1858.015
825.9747, 1865.415
826.4568, 1873.498
826.9389, 1881.372
827.4210, 1887.970
827.9031, 1895.026
828.3853, 1904.110
828.8674, 1915.857
829.3495, 1926.138
829.8316, 1934.705
830.3137, 1942.480
830.7958, 1949.490
831.2780, 1956.359
831.7601, 1965.035
832.2422, 1975.768
832.7243, 1985.594
833.2064, 1991.255
833.6885, 1996.184
834.1707, 2003.281
834.6528, 2013.767
835.1349, 2022.388
835.6170, 2027.566
836.0991, 2033.549
836.5812, 2043.957
837.0634, 2058.337
837.5455, 2069.340
838.0276, 2077.000
838.5097, 2084.609
838.9918, 2095.128
839.4739, 2106.771
839.9561, 2117.789
840.4382, 2128.107
840.9203, 2137.659
841.4024, 2144.842
841.8845, 2152.828
842.3666, 2163.493
842.8488, 2176.759
843.3309, 2188.322
843.8130, 2197.967
844.2951, 2207.200
844.7772, 2216.664
845.2593, 2226.495
845.7415, 2237.354
846.2236, 2248.972
846.7057, 2259.565
847.1878, 2266.345
847.6699, 2273.515
848.1520, 2283.788
848.6342, 2296.910
849.1163, 2309.679
849.5984, 2321.619
850.0805, 2333.649
850.5626, 2345.616
851.0447, 2357.956
851.5269, 2372.629
852.0090, 2389.285
852.4911, 2405.174
852.9732, 2418.027
853.4553, 2430.158
853.9374, 2444.030
854.4196, 2458.914
854.9017, 2473.093
855.3839, 2484.792
855.8660, 2497.098
856.3481, 2511.026
856.8302, 2525.705
857.3123, 2539.166
857.7944, 2551.419
858.2766, 2563.804
858.7587, 2576.647
859.2408, 2590.115
859.7229, 2604.569
860.2050, 2619.747
860.6871, 2634.875
861.1693, 2650.217
861.6514, 2664.696
862.1335, 2676.473
862.6156, 2687.749
863.0977, 2701.488
863.5798, 2719.457
864.0620, 2734.568
864.5441, 2745.245
865.0262, 2755.696
865.5083, 2773.007
865.9904, 2794.821
866.4725, 2813.668
866.9547, 2827.922
867.4368, 2841.761
867.9189, 2857.663
868.4010, 2875.009
868.8831, 2893.659
869.3652, 2914.984
869.8474, 2934.274
870.3295, 2950.760
870.8116, 2966.390
871.2937, 2981.630
871.7758, 2996.860
872.2579, 3016.286
872.7401, 3040.315
873.2222, 3063.754
873.7043, 3082.209
874.1864, 3098.307
874.6685, 3114.333
875.1506, 3130.630
875.6328, 3146.705
876.1149, 3162.403
876.5970, 3177.616
877.0791, 3191.603
877.5612, 3204.753
878.0433, 3221.852
878.5255, 3242.992
879.0076, 3263.901
879.4897, 3280.712
879.9718, 3296.305
880.4539, 3314.681
880.9360, 3335.293
881.4182, 3356.225
881.9003, 3376.494
882.3824, 3397.179
882.8645, 3419.091
883.3466, 3441.634
883.8287, 3463.486
884.3109, 3484.647
884.7930, 3505.594
885.2751, 3526.589
885.7572, 3547.083
886.2393, 3565.070
886.7214, 3581.930
887.2036, 3600.865
887.6857, 3623.491
888.1678, 3647.400
888.6499, 3673.343
889.1320, 3699.106
889.6141, 3721.672
890.0963, 3738.910
890.5784, 3758.396
891.0605, 3781.425
891.5426, 3805.052
892.0247, 3825.745
892.5068, 3844.801
892.9890, 3866.595
893.4711, 3891.875
893.9532, 3916.993
894.4353, 3938.752
894.9174, 3959.443
895.3995, 3980.999
895.8817, 4003.440
896.3638, 4027.069
896.8459, 4052.156
897.3280, 4077.410
897.8101, 4100.808
898.2922, 4123.332
898.7744, 4150.244
899.2565, 4181.104
899.7386, 4211.492
900.2207, 4239.835
900.7028, 4265.751
901.1849, 4288.290
901.6671, 4307.801
902.1492, 4328.478
902.6313, 4351.131
903.1134, 4373.580
903.5955, 4395.162
904.0776, 4416.412
904.5598, 4440.182
905.0419, 4465.983
905.5240, 4490.250
906.0062, 4510.719
906.4883, 4530.825
906.9704, 4553.354
907.4525, 4577.638
907.9346, 4602.910
908.4167, 4631.781
908.8989, 4657.156
909.3810, 4677.051
909.8631, 4695.064
910.3452, 4715.271
910.8273, 4737.617
911.3094, 4762.275
911.7916, 4789.597
912.2737, 4816.254
912.7558, 4838.161
913.2379, 4858.292
913.7200, 4879.786
914.2021, 4903.258
914.6843, 4927.403
915.1664, 4954.311
915.6485, 4978.983
916.1306, 4997.106
916.6127, 5009.431
917.0948, 5029.885
917.5770, 5058.538
918.0591, 5087.420
918.5412, 5112.546
919.0233, 5134.792
919.5054, 5154.193
919.9875, 5171.202
920.4697, 5188.331
920.9518, 5206.830
921.4339, 5224.580
921.9160, 5240.087
922.3981, 5255.201
922.8802, 5275.558
923.3624, 5300.785
923.8445, 5324.990
924.3266, 5346.459
924.8087, 5366.381
925.2908, 5386.984
925.7729, 5406.858
926.2551, 5423.938
926.7372, 5433.788
927.2193, 5448.291
927.7014, 5472.205
928.1835, 5497.647
928.6656, 5516.484
929.1478, 5528.721
929.6299, 5544.548
930.1120, 5564.470
930.5941, 5586.258
931.0762, 5611.141
931.5583, 5634.838
932.0405, 5650.896
932.5226, 5658.659
933.0047, 5671.791
933.4868, 5698.306
933.9689, 5724.317
934.4510, 5744.123
934.9332, 5759.424
935.4153, 5778.597
935.8974, 5801.521
936.3795, 5823.824
936.8616, 5843.190
937.3438, 5861.259
937.8259, 5878.263
938.3080, 5895.435
938.7901, 5914.879
939.2722, 5941.549
939.7543, 5964.681
940.2365, 5981.788
940.7186, 5996.325
941.2007, 6013.775
941.6828, 6033.546
942.1649, 6046.882
942.6470, 6051.950
943.1292, 6057.107
943.6113, 6070.833
944.0934, 6087.934
944.5755, 6103.879
945.0576, 6117.925
945.5397, 6130.905
946.0219, 6141.837
946.5040, 6153.642
946.9861, 6168.255
947.4682, 6185.200
947.9503, 6201.124
948.4324, 6215.922
948.9146, 6228.052
949.3967, 6234.415
949.8788, 6239.778
950.3609, 6246.665
950.8430, 6255.388
951.3251, 6266.920
951.8073, 6284.256
952.2894, 6298.587
952.7715, 6308.086
953.2536, 6314.935
953.7357, 6323.028
954.2179, 6331.680
954.7000, 6337.654
955.1821, 6339.684
955.6642, 6341.859
956.1464, 6346.940
956.6285, 6353.541
957.1106, 6360.942
957.5927, 6369.767
958.0748, 6375.073
958.5569, 6374.792
959.0391, 6376.422
959.5212, 6387.601
960.0033, 6403.951
960.4854, 6411.759
960.9675, 6412.190
961.4496, 6412.057
961.9318, 6417.871
962.4139, 6421.081
962.8960, 6413.525
963.3781, 6400.484
963.8602, 6397.412
964.3423, 6407.891
964.8245, 6413.647
965.3066, 6410.999
965.7887, 6402.775
966.2708, 6388.418
966.7529, 6372.665
967.2350, 6366.087
967.7172, 6374.077
968.1993, 6380.249
968.6814, 6378.055
969.1635, 6371.993
969.6456, 6364.296
970.1277, 6354.546
970.6099, 6349.167
971.0920, 6348.495
971.5741, 6346.760
972.0562, 6338.431
972.5383, 6327.698
973.0204, 6320.124
973.5026, 6314.906
973.9847, 6308.409
974.4668, 6298.266
974.9489, 6288.140
975.4310, 6278.471
975.9131, 6269.505
976.3953, 6261.889
976.8774, 6255.528
977.3595, 6249.802
977.8416, 6245.381
978.3237, 6238.644
978.8058, 6224.236
979.2880, 6206.824
979.7701, 6191.794
980.2522, 6181.688
980.7343, 6167.784
981.2164, 6147.256
981.6985, 6127.444
982.1807, 6113.701
982.6628, 6104.204
983.1449, 6090.013
983.6270, 6071.956
984.1091, 6055.477
984.5912, 6045.529
985.0734, 6036.043
985.5555, 6023.471
986.0376, 6008.619
986.5197, 5994.322
987.0018, 5981.557
987.4839, 5965.711
987.9661, 5945.290
988.4482, 5923.942
988.9303, 5906.661
989.4124, 5892.336
989.8945, 5879.815
990.3766, 5869.598
990.8588, 5856.817
991.3409, 5838.288
991.8230, 5817.684
992.3051, 5796.683
992.7872, 5775.667
993.2693, 5754.837
993.7515, 5734.063
994.2336, 5716.702
994.7157, 5706.690
995.1978, 5699.056
995.6799, 5689.116
996.1620, 5676.688
996.6442, 5661.616
997.1263, 5638.747
997.6084, 5620.655
998.0905, 5610.494
998.5726, 5602.800
999.0547, 5590.219
999.5369, 5573.449
1000.019, 5557.836
1000.501, 5544.167
1000.983, 5528.845
1001.465, 5506.680
1001.947, 5483.717
1002.430, 5464.803
1002.912, 5450.226
1003.394, 5437.417
1003.876, 5427.590
1004.358, 5415.016
1004.840, 5395.729
1005.322, 5374.182
1005.804, 5359.940
1006.287, 5350.224
1006.769, 5337.644
1007.251, 5316.475
1007.733, 5296.929
1008.215, 5282.399
1008.697, 5270.455
1009.179, 5259.764
1009.661, 5250.795
1010.143, 5237.072
1010.626, 5217.915
1011.108, 5198.150
1011.590, 5181.210
1012.072, 5165.708
1012.554, 5150.244
1013.036, 5134.823
1013.518, 5119.576
1014.000, 5103.770
1014.483, 5089.591
1014.965, 5078.184
1015.447, 5068.152
1015.929, 5057.505
1016.411, 5045.678
1016.893, 5029.647
1017.375, 5006.741
1017.857, 4985.902
1018.339, 4974.127
1018.822, 4965.772
1019.304, 4955.945
1019.786, 4944.422
1020.268, 4931.877
1020.750, 4918.274
1021.232, 4903.523
1021.714, 4886.269
1022.196, 4868.484
1022.679, 4854.370
1023.161, 4842.492
1023.643, 4828.943
1024.125, 4808.729
1024.607, 4791.923
1025.089, 4781.638
1025.571, 4773.763
1026.053, 4762.169
1026.535, 4747.622
1027.018, 4734.666
1027.500, 4723.997
1027.982, 4712.859
1028.464, 4699.599
1028.946, 4684.625
1029.428, 4666.961
1029.910, 4646.686
1030.392, 4632.196
1030.875, 4625.342
1031.357, 4616.949
1031.839, 4603.169
1032.321, 4586.646
1032.803, 4570.994
1033.285, 4556.482
1033.767, 4544.215
1034.249, 4535.922
1034.731, 4527.117
1035.214, 4516.601
1035.696, 4505.343
1036.178, 4494.068
1036.660, 4481.493
1037.142, 4469.766
1037.624, 4455.023
1038.106, 4440.028
1038.588, 4425.587
1039.071, 4411.495
1039.553, 4396.876
1040.035, 4382.394
1040.517, 4370.195
1040.999, 4361.633
1041.481, 4350.818
1041.963, 4335.470
1042.445, 4320.995
1042.927, 4317.005
1043.410, 4318.120
1043.892, 4312.130
1044.374, 4296.139
1044.856, 4285.476
1045.338, 4294.641
1045.820, 4300.597
1046.302, 4291.227
1046.784, 4270.456
1047.266, 4259.244
1047.749, 4256.784
1048.231, 4255.050
1048.713, 4251.106
1049.195, 4246.342
1049.677, 4240.938
1050.159, 4235.809
1050.641, 4232.289
1051.123, 4230.911
1051.606, 4229.827
1052.088, 4228.883
1052.570, 4229.032
1053.052, 4230.644
1053.534, 4234.078
1054.016, 4240.164
1054.498, 4248.736
1054.980, 4258.882
1055.463, 4270.409
1055.945, 4283.501
1056.427, 4298.626
1056.909, 4314.510
1057.391, 4328.466
1057.873, 4340.880
1058.355, 4354.946
1058.837, 4371.121
1059.319, 4389.315
1059.802, 4408.740
1060.284, 4430.262
1060.766, 4455.864
1061.248, 4485.130
1061.730, 4509.930
1062.212, 4528.838
1062.694, 4551.071
1063.176, 4580.537
1063.658, 4613.725
1064.141, 4645.844
1064.623, 4678.287
1065.105, 4713.599
1065.587, 4752.789
1066.069, 4793.203
1066.551, 4834.121
1067.033, 4876.575
1067.515, 4920.827
1067.998, 4967.361
1068.480, 5018.974
1068.962, 5074.462
1069.444, 5126.403
1069.926, 5166.876
1070.408, 5206.612
1070.890, 5252.359
1071.372, 5298.751
1071.854, 5336.861
1072.337, 5365.784
1072.819, 5394.467
1073.301, 5424.290
1073.783, 5447.737
1074.265, 5457.356
1074.747, 5457.098
1075.229, 5450.376
1075.711, 5437.442
1076.193, 5418.177
1076.676, 5395.035
1077.158, 5360.969
1077.640, 5313.187
1078.122, 5255.636
1078.604, 5195.286
1079.086, 5130.356
1079.568, 5057.220
1080.051, 4973.906
1080.533, 4884.319
1081.015, 4786.584
1081.497, 4685.699
1081.979, 4583.743
1082.461, 4481.823
1082.943, 4380.164
1083.425, 4278.769
1083.907, 4183.920
1084.390, 4100.063
1084.872, 4021.212
1085.354, 3943.235
1085.836, 3868.934
1086.318, 3799.386
1086.800, 3735.040
1087.282, 3674.848
1087.764, 3618.797
1088.246, 3566.565
1088.729, 3518.041
1089.211, 3473.110
1089.693, 3431.732
1090.175, 3393.336
1090.657, 3355.920
1091.139, 3317.695
1091.621, 3282.989
1092.103, 3252.656
1092.586, 3225.482
1093.068, 3200.891
1093.550, 3178.050
1094.032, 3153.846
1094.514, 3127.940
1094.996, 3104.287
1095.478, 3086.156
1095.960, 3069.361
1096.443, 3052.188
1096.925, 3035.282
1097.407, 3020.267
1097.889, 3006.898
1098.371, 2993.723
1098.853, 2979.946
1099.335, 2967.365
1099.817, 2958.444
1100.299, 2950.380
1100.781, 2940.669
1101.264, 2929.162
1101.746, 2917.090
1102.228, 2904.261
1102.710, 2892.717
1103.192, 2884.372
1103.674, 2876.800
1104.156, 2866.634
1104.638, 2855.710
1105.121, 2847.129
1105.603, 2845.043
1106.085, 2837.516
1106.567, 2822.587
1107.049, 2807.829
1107.531, 2799.901
1108.013, 2796.056
1108.495, 2791.171
1108.978, 2785.154
1109.460, 2778.109
1109.942, 2768.499
1110.424, 2759.880
1110.906, 2752.828
1111.388, 2746.795
1111.870, 2742.010
1112.352, 2737.647
1112.834, 2729.266
1113.317, 2716.579
1113.799, 2705.345
1114.281, 2701.524
1114.763, 2697.065
1115.245, 2686.824
1115.727, 2681.558
1116.209, 2666.340
1116.691, 2664.384
1117.173, 2658.586
1117.656, 2646.451
1118.138, 2633.321
1118.620, 2621.886
1119.102, 2612.911
1119.584, 2608.376
1120.066, 2608.007
1120.548, 2604.684
1121.030, 2598.174
1121.513, 2589.992
1121.995, 2579.836
1122.477, 2569.933
1122.959, 2563.659
1123.441, 2558.844
1123.923, 2552.126
1124.405, 2541.433
1124.887, 2533.409
1125.370, 2528.847
1125.852, 2524.972
1126.334, 2520.351
1126.816, 2515.191
1127.298, 2509.679
1127.780, 2503.975
1128.262, 2498.492
1128.744, 2493.946
1129.226, 2488.758
1129.709, 2482.621
1130.191, 2476.087
1130.673, 2468.732
1131.155, 2461.344
1131.637, 2457.548
1132.119, 2456.783
1132.601, 2455.519
1133.083, 2453.475
1133.566, 2448.567
1134.048, 2438.829
1134.530, 2427.146
1135.012, 2416.600
1135.494, 2407.405
1135.976, 2401.629
1136.458, 2399.423
1136.940, 2396.960
1137.422, 2392.496
1137.905, 2386.145
1138.387, 2376.104
1138.869, 2364.542
1139.351, 2357.236
1139.833, 2354.313
1140.315, 2351.617
1140.797, 2348.526
1141.279, 2344.763
1141.761, 2340.000
1142.244, 2334.475
1142.726, 2327.255
1143.208, 2318.804
1143.690, 2314.989
1144.172, 2316.923
1144.654, 2316.896
1145.136, 2312.275
1145.618, 2305.788
1146.101, 2299.941
1146.583, 2294.699
1147.065, 2290.203
1147.547, 2286.802
1148.029, 2282.006
1148.511, 2275.298
1148.993, 2268.748
1149.475, 2263.236
1149.958, 2258.447
1150.440, 2254.027
1150.922, 2249.861
1151.404, 2245.748
1151.886, 2241.916
1152.368, 2237.556
1152.850, 2232.813
1153.332, 2227.275
1153.814, 2220.158
1154.297, 2212.385
1154.779, 2206.433
1155.261, 2201.743
1155.743, 2196.980
1156.225, 2190.192
1156.707, 2185.529
1157.189, 2184.286
1157.671, 2183.732
1158.153, 2181.931
1158.636, 2178.848
1159.118, 2173.541
1159.600, 2166.602
1160.082, 2160.818
1160.564, 2158.748
1161.046, 2156.482
1161.528, 2153.081
1162.010, 2148.881
1162.493, 2143.720
1162.975, 2137.939
1163.457, 2133.951
1163.939, 2131.738
1164.421, 2129.629
1164.903, 2126.507
1165.385, 2123.422
1165.867, 2121.149
1166.349, 2118.989
1166.832, 2115.699
1167.314, 2111.343
1167.796, 2107.302
1168.278, 2103.708
1168.760, 2100.132
1169.242, 2095.181
1169.724, 2091.240
1170.206, 2091.136
1170.688, 2092.782
1171.171, 2090.425
1171.653, 2084.146
1172.135, 2079.813
1172.617, 2078.817
1173.099, 2077.612
1173.581, 2072.448
1174.063, 2066.678
1174.545, 2062.812
1175.028, 2060.614
1175.510, 2059.760
1175.992, 2060.400
1176.474, 2058.320
1176.956, 2052.035
1177.438, 2044.321
1177.920, 2035.686
1178.402, 2028.380
1178.885, 2025.142
1179.367, 2025.828
1179.849, 2026.249
1180.331, 2026.552
1180.813, 2025.025
1181.295, 2020.802
1181.777, 2015.311
1182.259, 2008.443
1182.741, 2002.149
1183.224, 1999.183
1183.706, 2000.156
1184.188, 1999.189
1184.670, 1995.983
1185.152, 1992.862
1185.634, 1990.582
1186.116, 1989.369
1186.598, 1991.321
1187.081, 1993.614
1187.563, 1991.906
1188.045, 1984.446
1188.527, 1978.751
1189.009, 1975.146
1189.491, 1971.413
1189.973, 1965.360
1190.455, 1959.734
1190.938, 1959.014
1191.420, 1960.702
1191.902, 1960.677
1192.384, 1957.778
1192.866, 1954.874
1193.348, 1952.057
1193.830, 1948.863
1194.312, 1945.079
1194.794, 1940.661
1195.276, 1933.635
1195.759, 1926.333
1196.241, 1924.099
1196.723, 1932.330
1197.205, 1933.878
1197.687, 1927.149
1198.169, 1919.870
1198.651, 1918.948
1199.133, 1920.351
1199.616, 1918.624
1200.098, 1914.902
1200.580, 1912.278
1201.062, 1912.201
1201.544, 1910.863
1202.026, 1907.923
1202.508, 1904.375
1202.990, 1900.906
1203.473, 1897.504
1203.955, 1893.914
1204.437, 1890.359
1204.919, 1887.559
1205.401, 1886.259
1205.883, 1883.963
1206.365, 1880.246
1206.847, 1876.416
1207.329, 1873.596
1207.812, 1871.503
1208.294, 1870.730
1208.776, 1870.504
1209.258, 1867.314
1209.740, 1858.605
1210.222, 1853.326
1210.704, 1853.136
1211.186, 1853.615
1211.668, 1849.280
1212.151, 1843.614
1212.633, 1841.504
1213.115, 1842.410
1213.597, 1841.965
1214.079, 1839.599
1214.561, 1836.302
1215.043, 1831.924
1215.525, 1827.845
1216.008, 1826.419
1216.490, 1825.473
1216.972, 1821.745
1217.454, 1815.604
1217.936, 1811.434
1218.418, 1809.828
1218.900, 1808.981
1219.382, 1808.854
1219.865, 1808.164
1220.347, 1805.637
1220.829, 1801.669
1221.311, 1795.772
1221.793, 1788.517
1222.275, 1783.831
1222.757, 1782.457
1223.239, 1781.373
1223.721, 1780.171
1224.203, 1778.377
1224.686, 1775.356
1225.168, 1771.573
1225.650, 1766.883
1226.132, 1761.607
1226.614, 1758.569
1227.096, 1758.420
1227.578, 1756.946
1228.061, 1753.079
1228.543, 1748.439
1229.025, 1744.550
1229.507, 1740.910
1229.989, 1736.774
1230.471, 1733.898
1230.953, 1729.316
1231.435, 1728.092
1231.917, 1726.278
1232.400, 1723.362
1232.882, 1719.527
1233.364, 1713.735
1233.846, 1708.033
1234.328, 1704.896
1234.810, 1699.873
1235.292, 1699.974
1235.774, 1693.477
1236.256, 1689.318
1236.739, 1689.356
1237.221, 1688.858
1237.703, 1682.707
1238.185, 1675.270
1238.667, 1670.125
1239.149, 1666.873
1239.631, 1663.377
1240.113, 1659.758
1240.596, 1658.315
1241.078, 1660.191
1241.560, 1661.022
1242.042, 1656.527
1242.524, 1650.746
1243.006, 1646.327
1243.488, 1642.949
1243.970, 1639.220
1244.453, 1635.202
1244.935, 1631.866
1245.417, 1629.511
1245.899, 1627.186
1246.381, 1624.222
1246.863, 1621.139
1247.345, 1618.258
1247.827, 1615.514
1248.309, 1612.822
1248.792, 1610.188
1249.274, 1607.507
1249.756, 1604.739
1250.238, 1602.190
1250.720, 1600.985
1251.202, 1598.773
1251.684, 1594.113
1252.166, 1588.262
1252.648, 1584.382
1253.131, 1581.991
1253.613, 1579.602
1254.095, 1576.820
1254.577, 1574.489
1255.059, 1573.425
1255.541, 1571.936
1256.023, 1569.248
1256.505, 1566.047
1256.988, 1564.091
1257.470, 1562.626
1257.952, 1559.872
1258.434, 1555.273
1258.916, 1551.491
1259.398, 1549.416
1259.880, 1546.997
1260.362, 1543.244
1260.844, 1539.460
1261.327, 1538.586
1261.809, 1538.753
1262.291, 1536.810
1262.773, 1532.032
1263.255, 1528.101
1263.737, 1525.179
1264.219, 1523.232
1264.701, 1522.509
1265.183, 1522.006
1265.666, 1520.306
1266.148, 1518.149
1266.630, 1516.202
1267.112, 1514.556
1267.594, 1514.348
1268.076, 1516.005
1268.558, 1515.480
1269.040, 1511.181
1269.523, 1506.029
1270.005, 1502.191
1270.487, 1499.324
1270.969, 1497.473
1271.451, 1496.399
1271.933, 1495.319
1272.415, 1494.239
1272.897, 1492.223
1273.380, 1488.934
1273.862, 1485.479
1274.344, 1482.314
1274.826, 1479.661
1275.308, 1477.764
1275.790, 1476.351
1276.272, 1474.719
1276.754, 1472.806
1277.236, 1469.912
1277.719, 1465.735
1278.201, 1462.387
1278.683, 1461.877
1279.165, 1461.463
1279.647, 1460.135
1280.129, 1458.113
1280.611, 1455.163
1281.093, 1451.966
1281.576, 1450.958
1282.058, 1452.662
1282.540, 1452.424
1283.022, 1446.421
1283.504, 1442.702
1283.986, 1444.158
1284.468, 1447.018
1284.950, 1444.998
1285.432, 1440.575
1285.915, 1437.740
1286.397, 1436.916
1286.879, 1436.023
1287.361, 1434.951
1287.843, 1433.430
1288.325, 1431.268
1288.807, 1429.207
1289.289, 1428.835
1289.771, 1428.467
1290.254, 1425.666
1290.736, 1420.911
1291.218, 1418.208
1291.700, 1417.707
1292.182, 1418.044
1292.664, 1419.158
1293.146, 1419.352
1293.628, 1415.226
1294.111, 1411.546
1294.593, 1412.984
1295.075, 1416.815
1295.557, 1417.551
1296.039, 1415.397
1296.521, 1412.103
1297.003, 1408.002
1297.485, 1404.868
1297.968, 1404.441
1298.450, 1403.977
1298.932, 1402.341
1299.414, 1400.444
1299.896, 1400.012
1300.378, 1400.427
1300.860, 1399.027
1301.342, 1396.010
1301.824, 1394.631
##END=



