##NAMES=Burkeite
##RRUFFID=R060112
##IDEAL CHEMISTRY=Na_4_(S^6+^O_4_)(CO_3_)
##LOCALITY=Searles Lake, near Trona, San Bernardino County, California, USA
##OWNER=RRUFF
##SOURCE=University of Arizona Mineral Museum
##DESCRIPTION=Tan colored nodule covered with white thenardite powder
##STATUS=The identification of this mineral has been confirmed by X-ray diffraction and chemical analysis
##URL=rruff.info/R060112
##MEASURED CHEMISTRY=Na_4.00_S_1.00_O_4_CO_3_ ; C not measured but estimated by difference.
92.02539, 352.6667
92.50751, 351.4666
92.98962, 353.4535
93.47174, 354.9611
93.95386, 357.2094
94.43597, 358.8103
94.91809, 359.7744
95.40021, 360.4179
95.88232, 360.4025
96.36444, 359.6744
96.84656, 358.3832
97.32867, 356.8490
97.81078, 355.1051
98.29290, 353.1359
98.77502, 350.7440
99.25713, 347.4533
99.73925, 343.4949
100.2214, 338.6053
100.7035, 333.5874
101.1856, 328.6171
101.6677, 323.7469
102.1498, 319.0901
102.6320, 314.7780
103.1141, 310.7464
103.5962, 307.2567
104.0783, 304.4619
104.5604, 302.0733
105.0425, 299.8105
105.5247, 297.5692
106.0068, 295.4023
106.4889, 293.3214
106.9710, 291.2523
107.4531, 289.3839
107.9352, 287.7843
108.4173, 286.4376
108.8995, 285.2975
109.3816, 284.5047
109.8637, 283.7857
110.3458, 282.8154
110.8279, 281.4961
111.3100, 280.1319
111.7922, 279.0770
112.2743, 278.3824
112.7564, 277.8583
113.2385, 277.4799
113.7206, 277.2092
114.2027, 277.0313
114.6849, 276.9445
115.1670, 276.9296
115.6491, 276.9289
116.1312, 277.0617
116.6133, 277.0516
117.0954, 276.9041
117.5776, 276.5816
118.0597, 275.9602
118.5418, 274.8916
119.0239, 273.3559
119.5060, 272.6238
119.9881, 273.0560
120.4703, 273.7585
120.9524, 274.5060
121.4345, 275.2310
121.9166, 275.8627
122.3987, 276.3329
122.8808, 276.6076
123.3630, 276.7688
123.8451, 276.7697
124.3272, 276.6792
124.8093, 276.5323
125.2914, 276.3202
125.7735, 276.1302
126.2557, 276.0858
126.7378, 276.1572
127.2199, 276.2524
127.7020, 276.3688
128.1841, 276.4881
128.6662, 276.5126
129.1483, 276.2513
129.6305, 276.1333
130.1126, 276.6014
130.5947, 277.5925
131.0768, 278.5135
131.5589, 278.6881
132.0410, 277.9702
132.5232, 277.7115
133.0053, 278.6832
133.4874, 279.7603
133.9695, 280.2868
134.4516, 280.1676
134.9337, 279.8589
135.4159, 280.1014
135.8980, 281.3612
136.3801, 282.3065
136.8622, 282.6476
137.3443, 282.8169
137.8264, 283.2252
138.3086, 284.0225
138.7907, 285.0006
139.2728, 285.5692
139.7549, 285.4505
140.2370, 285.2157
140.7191, 284.8907
141.2013, 284.4769
141.6834, 283.9554
142.1655, 283.3072
142.6476, 282.5637
143.1297, 281.8756
143.6118, 280.9863
144.0939, 280.3908
144.5761, 280.4706
145.0582, 281.0988
145.5403, 281.6866
146.0224, 281.8643
146.5045, 281.7416
146.9866, 281.7043
147.4688, 281.6875
147.9509, 281.8263
148.4330, 282.3769
148.9151, 283.4277
149.3972, 284.3378
149.8793, 284.5106
150.3615, 284.3472
150.8436, 284.2941
151.3257, 284.3864
151.8078, 284.7458
152.2899, 285.7894
152.7720, 288.1360
153.2542, 290.0692
153.7363, 290.8827
154.2184, 290.9200
154.7005, 290.7003
155.1826, 290.5430
155.6647, 290.4165
156.1469, 289.9868
156.6290, 289.0112
157.1111, 287.9334
157.5932, 286.7265
158.0753, 285.4973
158.5574, 284.4272
159.0396, 283.6596
159.5217, 283.2001
160.0038, 283.0251
160.4859, 283.4912
160.9680, 283.8827
161.4501, 283.7206
161.9323, 283.1136
162.4144, 282.6122
162.8965, 282.8064
163.3786, 283.9096
163.8607, 284.8917
164.3428, 285.8668
164.8250, 286.6594
165.3071, 286.9833
165.7892, 286.8293
166.2713, 286.6723
166.7534, 287.1154
167.2355, 288.2451
167.7177, 289.3891
168.1998, 290.7589
168.6819, 292.0146
169.1640, 292.6214
169.6461, 292.3784
170.1282, 291.8237
170.6104, 291.5933
171.0925, 291.6451
171.5746, 291.7076
172.0567, 291.5617
172.5388, 291.3324
173.0209, 291.4804
173.5031, 292.4499
173.9852, 293.2862
174.4673, 293.0478
174.9494, 291.8371
175.4315, 290.6124
175.9136, 290.0569
176.3958, 290.1502
176.8779, 290.3772
177.3600, 291.1157
177.8421, 291.5655
178.3242, 291.1064
178.8063, 289.7861
179.2885, 288.2827
179.7706, 287.3477
180.2527, 287.1622
180.7348, 286.7483
181.2169, 285.4847
181.6990, 284.3868
182.1812, 284.2238
182.6633, 285.0100
183.1454, 286.0005
183.6275, 286.1076
184.1096, 284.8195
184.5917, 283.6826
185.0738, 282.8634
185.5560, 282.0698
186.0381, 281.0934
186.5202, 279.8853
187.0023, 278.5490
187.4844, 277.2686
187.9665, 276.0915
188.4487, 274.8917
188.9308, 273.5576
189.4129, 272.2629
189.8950, 271.2815
190.3771, 270.6992
190.8592, 270.1806
191.3414, 269.0264
191.8235, 266.7394
192.3056, 264.7654
192.7877, 263.2798
193.2698, 262.1912
193.7519, 261.4626
194.2341, 261.1349
194.7162, 260.9662
195.1983, 260.4081
195.6804, 259.3572
196.1625, 258.3941
196.6446, 257.8170
197.1268, 257.4533
197.6089, 256.8824
198.0910, 255.8996
198.5731, 254.7492
199.0552, 253.8177
199.5373, 253.1141
200.0195, 252.4860
200.5016, 251.7621
200.9837, 251.0031
201.4658, 250.5567
201.9479, 250.6964
202.4300, 251.0351
202.9122, 251.0759
203.3943, 250.7728
203.8764, 250.5376
204.3585, 250.9309
204.8406, 251.9473
205.3227, 252.3470
205.8048, 251.3536
206.2870, 249.9568
206.7691, 248.7710
207.2512, 247.8750
207.7333, 247.2107
208.2154, 246.7361
208.6975, 246.4557
209.1797, 246.3410
209.6618, 246.6950
210.1439, 247.0066
210.6260, 246.8980
211.1081, 246.3375
211.5902, 245.6900
212.0724, 245.4695
212.5545, 245.8676
213.0366, 246.1142
213.5187, 246.1383
214.0008, 246.0227
214.4829, 245.7231
214.9651, 245.2708
215.4472, 244.8417
215.9293, 244.7380
216.4114, 245.2611
216.8935, 245.4769
217.3756, 245.0335
217.8578, 244.5767
218.3399, 244.6194
218.8220, 245.2413
219.3041, 246.0879
219.7862, 246.6334
220.2683, 246.8490
220.7505, 246.7449
221.2326, 246.1965
221.7147, 245.4460
222.1968, 244.6290
222.6789, 243.7943
223.1610, 242.9726
223.6432, 242.1860
224.1253, 241.2629
224.6074, 240.8213
225.0895, 241.3254
225.5716, 242.0459
226.0537, 242.3326
226.5358, 242.0336
227.0180, 241.4121
227.5001, 240.8249
227.9822, 240.3320
228.4643, 239.6600
228.9464, 238.4237
229.4285, 237.1703
229.9107, 236.6145
230.3928, 236.9329
230.8749, 237.4980
231.3570, 237.4613
231.8391, 236.7564
232.3212, 236.2304
232.8034, 236.2693
233.2855, 236.4613
233.7676, 236.1669
234.2497, 235.1939
234.7318, 234.2028
235.2139, 234.0985
235.6961, 234.7587
236.1782, 235.2463
236.6603, 235.2049
237.1424, 234.8876
237.6245, 234.7077
238.1066, 234.7629
238.5888, 234.7892
239.0709, 234.4509
239.5530, 233.8579
240.0351, 233.3430
240.5172, 232.9714
240.9993, 232.7577
241.4815, 232.7763
241.9636, 233.1090
242.4457, 233.4702
242.9278, 233.6725
243.4099, 233.7506
243.8920, 233.7560
244.3742, 233.7861
244.8563, 233.7462
245.3384, 233.3522
245.8205, 232.4251
246.3026, 231.5488
246.7847, 230.9781
247.2668, 230.6763
247.7490, 230.6472
248.2311, 231.0767
248.7132, 231.6911
249.1953, 231.7501
249.6774, 230.9424
250.1595, 230.2053
250.6417, 229.9723
251.1238, 230.0235
251.6059, 230.1075
252.0880, 230.1391
252.5701, 230.0993
253.0522, 229.9386
253.5344, 229.6454
254.0165, 229.2424
254.4986, 228.7365
254.9807, 228.1479
255.4628, 227.4367
255.9449, 226.5533
256.4271, 225.6709
256.9092, 225.2034
257.3913, 225.3004
257.8734, 225.5714
258.3555, 226.3011
258.8376, 226.9621
259.3198, 226.9274
259.8019, 225.9422
260.2840, 224.5352
260.7661, 223.8625
261.2482, 224.4592
261.7303, 224.7859
262.2125, 224.3535
262.6946, 223.7945
263.1767, 223.7222
263.6588, 224.3062
264.1409, 225.1284
264.6230, 225.4561
265.1052, 225.1090
265.5873, 224.5628
266.0694, 223.3112
266.5515, 222.2431
267.0336, 222.2743
267.5157, 223.4932
267.9979, 225.0023
268.4800, 225.4151
268.9621, 224.0506
269.4442, 223.0260
269.9263, 222.4472
270.4084, 222.0586
270.8906, 221.7958
271.3727, 221.5990
271.8548, 221.3232
272.3369, 220.7366
272.8190, 219.5936
273.3011, 219.0103
273.7833, 219.2956
274.2654, 219.7660
274.7475, 220.1426
275.2296, 220.3558
275.7117, 220.3888
276.1938, 220.2077
276.6760, 219.7720
277.1581, 219.3634
277.6402, 218.7643
278.1223, 218.3782
278.6044, 218.5395
279.0865, 219.1193
279.5686, 219.6859
280.0508, 219.8903
280.5329, 219.7246
281.0150, 219.5415
281.4971, 219.1909
281.9792, 218.9718
282.4613, 218.1915
282.9435, 219.0536
283.4256, 219.4759
283.9077, 219.4819
284.3898, 217.8249
284.8719, 218.3153
285.3540, 217.9452
285.8362, 217.5397
286.3183, 218.3324
286.8004, 216.9172
287.2825, 217.6909
287.7646, 217.5909
288.2467, 217.8907
288.7289, 217.3246
289.2110, 217.0260
289.6931, 217.5935
290.1752, 217.6815
290.6573, 217.0157
291.1394, 217.3410
291.6216, 215.8956
292.1037, 216.0039
292.5858, 216.7827
293.0679, 216.1605
293.5500, 216.5015
294.0321, 216.4758
294.5143, 214.7826
294.9964, 215.9891
295.4785, 215.7704
295.9606, 216.3365
296.4427, 216.1811
296.9248, 214.9349
297.4070, 214.0709
297.8891, 213.8266
298.3712, 213.8714
298.8533, 213.9284
299.3354, 213.9529
299.8175, 214.0575
300.2997, 214.4284
300.7818, 215.1458
301.2639, 215.3662
301.7460, 214.6679
302.2281, 213.8132
302.7102, 213.2172
303.1924, 212.9302
303.6745, 212.9520
304.1566, 213.3798
304.6387, 214.1688
305.1208, 214.5352
305.6029, 214.2368
306.0851, 213.7993
306.5672, 213.3854
307.0493, 213.0322
307.5314, 212.8317
308.0135, 212.8598
308.4956, 213.0625
308.9778, 213.2061
309.4599, 213.4377
309.9420, 213.4511
310.4241, 212.9791
310.9062, 212.2335
311.3883, 211.6157
311.8705, 211.2876
312.3526, 211.1837
312.8347, 211.1931
313.3168, 211.3555
313.7989, 211.5154
314.2810, 211.6897
314.7632, 211.8291
315.2453, 211.8593
315.7274, 211.7578
316.2095, 211.5804
316.6916, 211.3880
317.1737, 211.1692
317.6559, 210.9899
318.1380, 210.8553
318.6201, 210.7627
319.1022, 210.7658
319.5843, 210.8573
320.0664, 210.8574
320.5485, 210.5500
321.0306, 209.9053
321.5128, 209.5032
321.9949, 209.3990
322.4770, 209.4781
322.9591, 209.7178
323.4412, 210.0911
323.9233, 210.5279
324.4055, 211.0062
324.8876, 211.5028
325.3697, 211.8439
325.8518, 212.0198
326.3339, 212.0818
326.8160, 212.0041
327.2982, 211.8280
327.7803, 211.6706
328.2624, 211.6118
328.7445, 211.5380
329.2266, 211.0917
329.7087, 209.9268
330.1909, 209.0621
330.6730, 208.7502
331.1551, 208.8223
331.6372, 209.1664
332.1193, 209.7563
332.6014, 210.3384
333.0836, 210.5295
333.5657, 210.1616
334.0478, 209.8667
334.5299, 209.7347
335.0120, 209.6377
335.4941, 209.4589
335.9763, 209.1910
336.4584, 208.9131
336.9405, 208.6976
337.4226, 208.5489
337.9047, 208.4280
338.3868, 208.2252
338.8690, 208.1445
339.3511, 208.3448
339.8332, 208.7666
340.3153, 209.2814
340.7974, 209.8702
341.2795, 210.4400
341.7617, 210.3294
342.2438, 208.6151
342.7259, 207.4125
343.2080, 207.6168
343.6901, 208.5252
344.1722, 209.0549
344.6544, 208.7526
345.1365, 207.9994
345.6186, 207.5866
346.1007, 207.9134
346.5828, 207.9839
347.0649, 207.5825
347.5471, 207.0459
348.0292, 206.6091
348.5113, 206.3425
348.9934, 206.2668
349.4755, 206.4295
349.9576, 206.9036
350.4398, 207.3288
350.9219, 207.8543
351.4040, 208.2080
351.8861, 208.1370
352.3682, 207.7416
352.8503, 207.3489
353.3325, 207.2202
353.8146, 207.3284
354.2967, 207.2486
354.7788, 206.6934
355.2609, 206.2771
355.7430, 206.1971
356.2252, 206.3160
356.7073, 206.4534
357.1894, 206.5254
357.6715, 206.5324
358.1536, 206.4765
358.6357, 206.3582
359.1179, 206.1670
359.5999, 205.9324
360.0821, 205.6158
360.5642, 205.0545
361.0463, 204.2812
361.5284, 203.6554
362.0105, 203.7066
362.4926, 204.7314
362.9748, 205.2822
363.4569, 205.1424
363.9390, 204.7695
364.4211, 204.1737
364.9032, 203.4900
365.3853, 202.9707
365.8675, 202.7922
366.3496, 202.9482
366.8317, 203.4033
367.3138, 204.5782
367.7959, 205.5150
368.2780, 205.9825
368.7602, 206.1136
369.2423, 206.0540
369.7244, 205.8623
370.2065, 205.5677
370.6886, 205.2263
371.1707, 204.8463
371.6529, 204.3924
372.1350, 203.6394
372.6171, 202.9697
373.0992, 202.7262
373.5813, 202.9126
374.0634, 203.1412
374.5456, 202.8233
375.0277, 201.8987
375.5098, 201.8049
375.9919, 203.6888
376.4740, 205.1709
376.9561, 204.8486
377.4383, 203.2984
377.9204, 201.9019
378.4025, 201.5235
378.8846, 201.7915
379.3667, 201.5973
379.8488, 200.6767
380.3310, 199.9824
380.8131, 200.0258
381.2952, 200.4280
381.7773, 200.8904
382.2594, 201.3782
382.7415, 201.7268
383.2237, 201.6802
383.7058, 201.2411
384.1879, 200.8577
384.6700, 200.6263
385.1521, 200.5038
385.6342, 200.5044
386.1164, 200.6104
386.5985, 200.5972
387.0806, 200.2193
387.5627, 199.6448
388.0448, 199.2622
388.5269, 199.1070
389.0091, 199.1352
389.4912, 199.5556
389.9733, 200.1363
390.4554, 200.3172
390.9375, 199.6216
391.4196, 198.8200
391.9018, 198.6987
392.3839, 199.1835
392.8660, 199.5803
393.3481, 199.5221
393.8302, 199.2641
394.3123, 199.3208
394.7945, 199.7685
395.2766, 200.2403
395.7587, 200.7383
396.2408, 201.1307
396.7229, 201.1108
397.2050, 200.5783
397.6872, 199.9224
398.1693, 199.5548
398.6514, 199.5043
399.1335, 199.5064
399.6156, 199.6792
400.0977, 199.7961
400.5798, 199.6544
401.0620, 199.2935
401.5441, 198.9095
402.0262, 198.6152
402.5083, 198.4006
402.9904, 198.2266
403.4725, 197.9006
403.9547, 197.8417
404.4368, 198.3918
404.9189, 199.1539
405.4010, 199.5782
405.8831, 199.5044
406.3652, 199.2671
406.8474, 199.3914
407.3295, 200.1634
407.8116, 200.4382
408.2937, 200.0024
408.7758, 199.3266
409.2579, 198.4413
409.7401, 197.5201
410.2222, 196.9375
410.7043, 196.9935
411.1864, 197.6194
411.6685, 198.2102
412.1506, 199.0401
412.6328, 199.4653
413.1149, 199.1595
413.5970, 198.5147
414.0791, 197.8679
414.5612, 197.3528
415.0433, 197.0706
415.5255, 197.3026
416.0076, 198.3369
416.4897, 198.8877
416.9718, 198.3841
417.4539, 197.7939
417.9360, 197.6089
418.4182, 197.7551
418.9003, 197.8348
419.3824, 197.4392
419.8645, 196.7573
420.3466, 196.7139
420.8287, 197.6707
421.3109, 198.5121
421.7930, 198.6962
422.2751, 198.5672
422.7572, 198.4884
423.2393, 198.5643
423.7214, 198.6790
424.2036, 198.6749
424.6857, 198.5606
425.1678, 198.5926
425.6499, 199.0029
426.1320, 199.3491
426.6141, 199.1416
427.0963, 198.4554
427.5784, 197.8647
428.0605, 197.6018
428.5426, 197.5841
429.0247, 197.6990
429.5068, 197.9428
429.9890, 198.3030
430.4711, 198.7687
430.9532, 199.3594
431.4353, 200.1089
431.9174, 201.3272
432.3995, 202.2446
432.8817, 202.1363
433.3638, 201.4778
433.8459, 201.3295
434.3280, 202.0542
434.8101, 203.1352
435.2922, 203.8499
435.7744, 204.0591
436.2565, 204.4548
436.7386, 204.6692
437.2207, 205.3856
437.7028, 207.5661
438.1849, 210.8276
438.6671, 213.6944
439.1492, 215.1643
439.6313, 215.4274
440.1134, 215.5522
440.5955, 215.3798
441.0776, 215.2655
441.5598, 215.1537
442.0418, 215.1675
442.5240, 215.4555
443.0061, 216.0446
443.4882, 216.8228
443.9703, 217.6493
444.4524, 218.5269
444.9345, 219.4568
445.4167, 220.0771
445.8988, 221.1127
446.3809, 223.2317
446.8630, 225.9150
447.3451, 228.1855
447.8272, 229.4281
448.3094, 230.0122
448.7915, 230.9065
449.2736, 232.3143
449.7557, 233.4417
450.2378, 233.7958
450.7199, 233.9998
451.2021, 234.6437
451.6842, 235.7430
452.1663, 236.5567
452.6484, 236.4159
453.1305, 235.4788
453.6126, 234.4679
454.0948, 233.5229
454.5769, 232.2885
455.0590, 230.1492
455.5411, 227.5999
456.0232, 225.5437
456.5053, 224.4440
456.9875, 223.5399
457.4696, 222.1703
457.9517, 220.4329
458.4338, 218.7727
458.9159, 217.3829
459.3980, 216.0339
459.8802, 214.2072
460.3623, 211.7880
460.8444, 209.9897
461.3265, 209.5625
461.8086, 209.4877
462.2907, 208.6956
462.7729, 207.2580
463.2550, 206.1306
463.7371, 206.0301
464.2192, 206.7345
464.7013, 206.9555
465.1834, 206.0131
465.6656, 205.4861
466.1477, 205.9854
466.6298, 206.8137
467.1119, 207.1106
467.5940, 206.7288
468.0761, 206.2979
468.5583, 206.6247
469.0404, 207.8841
469.5225, 208.7885
470.0046, 209.0770
470.4867, 209.2729
470.9688, 209.5890
471.4510, 209.9022
471.9331, 209.9506
472.4152, 209.5862
472.8973, 209.0561
473.3794, 208.8498
473.8615, 209.0452
474.3437, 209.2331
474.8258, 209.5291
475.3079, 209.6265
475.7900, 209.2250
476.2721, 208.3976
476.7542, 207.5661
477.2364, 206.9871
477.7185, 206.5888
478.2006, 206.2861
478.6827, 206.1393
479.1648, 205.7223
479.6469, 204.6526
480.1291, 203.2376
480.6112, 202.0143
481.0933, 200.9790
481.5754, 200.2153
482.0575, 199.9769
482.5396, 199.9928
483.0217, 199.7527
483.5038, 199.1518
483.9860, 198.3836
484.4681, 197.5906
484.9502, 196.7749
485.4323, 196.0617
485.9144, 195.4616
486.3965, 194.9444
486.8787, 194.6097
487.3608, 194.3247
487.8429, 193.8081
488.3250, 192.9460
488.8071, 191.9700
489.2892, 191.3009
489.7714, 191.0479
490.2535, 190.8355
490.7356, 190.7050
491.2177, 190.5699
491.6998, 190.3104
492.1819, 190.0094
492.6641, 189.9073
493.1462, 190.2104
493.6283, 190.6967
494.1104, 190.6762
494.5925, 189.9656
495.0746, 189.2474
495.5568, 188.4514
496.0389, 187.8699
496.5210, 187.8456
497.0031, 188.3504
497.4852, 188.8615
497.9673, 189.0809
498.4495, 189.0220
498.9316, 188.6307
499.4137, 187.8172
499.8958, 187.0902
500.3779, 186.8451
500.8600, 186.8435
501.3422, 186.5397
501.8243, 185.6543
502.3064, 185.0152
502.7885, 185.2405
503.2706, 185.9360
503.7527, 186.4063
504.2349, 186.5004
504.7170, 186.4262
505.1991, 186.3948
505.6812, 186.4136
506.1633, 186.2261
506.6454, 185.5111
507.1276, 184.9695
507.6097, 184.9342
508.0918, 185.2169
508.5739, 185.5696
509.0560, 185.8907
509.5381, 186.1246
510.0203, 186.1690
510.5024, 185.9734
510.9845, 185.7627
511.4666, 185.5774
511.9487, 185.3372
512.4308, 184.9559
512.9130, 184.5007
513.3951, 184.0922
513.8772, 183.7830
514.3593, 183.5731
514.8414, 183.4640
515.3235, 183.4570
515.8057, 183.5413
516.2878, 183.7819
516.7699, 184.0483
517.2520, 184.2489
517.7341, 184.3812
518.2162, 184.4448
518.6984, 184.6044
519.1805, 184.6004
519.6626, 183.8145
520.1447, 182.3333
520.6268, 181.4172
521.1089, 181.8160
521.5911, 182.9637
522.0732, 183.5971
522.5553, 183.7024
523.0374, 183.4943
523.5195, 182.4983
524.0016, 181.5581
524.4838, 181.6706
524.9659, 182.6833
525.4480, 183.5160
525.9301, 183.3611
526.4122, 182.4229
526.8943, 181.7451
527.3765, 181.5534
527.8586, 181.3192
528.3407, 180.8591
528.8228, 180.4341
529.3049, 180.2534
529.7870, 180.3395
530.2692, 180.5968
530.7513, 181.0168
531.2334, 181.5449
531.7155, 181.8482
532.1976, 181.8677
532.6797, 181.7976
533.1619, 181.6273
533.6440, 181.4542
534.1261, 181.3786
534.6082, 181.4195
535.0903, 181.5268
535.5724, 181.7293
536.0546, 181.9628
536.5367, 182.0952
537.0188, 182.1098
537.5009, 182.0291
537.9830, 181.8474
538.4651, 181.5806
538.9473, 181.3333
539.4294, 181.1002
539.9115, 180.8887
540.3936, 180.7844
540.8757, 180.6621
541.3578, 180.2229
541.8400, 179.4781
542.3221, 178.9607
542.8042, 179.3192
543.2863, 180.5791
543.7684, 181.1142
544.2505, 180.1004
544.7326, 179.3275
545.2147, 179.0911
545.6968, 179.2851
546.1790, 179.9966
546.6611, 181.1821
547.1432, 182.1644
547.6253, 182.0506
548.1074, 180.9456
548.5895, 180.0565
549.0717, 179.4593
549.5538, 179.0205
550.0359, 178.6555
550.5180, 178.4026
551.0001, 178.3998
551.4822, 178.8520
551.9644, 179.1062
552.4465, 178.3955
552.9286, 177.2632
553.4107, 176.9416
553.8928, 177.6829
554.3749, 178.6346
554.8571, 179.0557
555.3392, 178.9578
555.8213, 178.8431
556.3034, 178.7735
556.7855, 178.6151
557.2676, 178.1685
557.7498, 177.6919
558.2319, 177.4879
558.7140, 177.6260
559.1961, 177.9939
559.6782, 178.5305
560.1603, 179.2380
560.6425, 179.6935
561.1246, 179.8657
561.6067, 179.8040
562.0888, 179.4145
562.5709, 178.8875
563.0530, 178.4120
563.5352, 178.0328
564.0173, 177.7499
564.4994, 177.6416
564.9815, 177.6337
565.4636, 177.4623
565.9457, 177.0786
566.4279, 176.6432
566.9100, 176.1763
567.3921, 175.7626
567.8742, 175.6491
568.3563, 175.9266
568.8384, 176.3463
569.3206, 177.1272
569.8027, 177.8516
570.2848, 177.8464
570.7669, 177.1083
571.2490, 176.3921
571.7311, 176.4046
572.2133, 177.0447
572.6954, 177.1897
573.1775, 176.2051
573.6596, 175.5953
574.1417, 175.5670
574.6238, 175.9594
575.1060, 176.9198
575.5881, 178.2950
576.0702, 179.2934
576.5523, 179.1113
577.0344, 178.0406
577.5165, 177.0902
577.9987, 176.2223
578.4808, 175.6662
578.9629, 175.7879
579.4450, 176.1050
579.9271, 175.8548
580.4092, 174.9134
580.8914, 174.2111
581.3735, 174.2584
581.8556, 174.6218
582.3377, 174.8886
582.8198, 175.0161
583.3019, 174.9971
583.7841, 174.7969
584.2662, 174.5213
584.7483, 174.4682
585.2304, 174.8615
585.7125, 175.1106
586.1946, 175.1244
586.6768, 175.0842
587.1589, 175.2004
587.6410, 175.3606
588.1231, 175.1892
588.6052, 174.3811
589.0873, 173.3884
589.5695, 173.3219
590.0516, 174.3667
590.5337, 174.9805
591.0158, 174.7060
591.4979, 174.0951
591.9800, 172.6121
592.4622, 173.7303
592.9443, 174.4085
593.4264, 174.6705
593.9085, 173.2694
594.3906, 174.0158
594.8727, 173.9016
595.3549, 173.7521
595.8370, 174.8008
596.3191, 173.6416
596.8012, 174.6712
597.2833, 174.8271
597.7654, 175.3829
598.2476, 175.0728
598.7297, 175.0301
599.2118, 175.5058
599.6939, 175.7772
600.1760, 175.9270
600.6581, 175.9467
601.1403, 175.9430
601.6224, 175.9294
602.1045, 175.9252
602.5866, 176.4696
603.0687, 177.8301
603.5508, 179.1430
604.0330, 179.9671
604.5151, 180.5012
604.9972, 180.9302
605.4793, 181.2515
605.9614, 181.5864
606.4435, 181.8139
606.9257, 182.1813
607.4078, 183.2148
607.8899, 184.8615
608.3720, 186.3310
608.8541, 187.0705
609.3362, 187.3527
609.8184, 188.0514
610.3005, 189.3985
610.7826, 190.8439
611.2647, 192.6446
611.7468, 194.3169
612.2289, 195.4510
612.7111, 196.1879
613.1932, 196.9418
613.6753, 197.9339
614.1574, 199.1164
614.6395, 200.2938
615.1216, 201.4260
615.6038, 203.2906
616.0859, 206.4972
616.5680, 209.8113
617.0501, 212.2896
617.5322, 214.0575
618.0143, 215.4209
618.4965, 216.3552
618.9786, 216.9960
619.4607, 217.4340
619.9428, 217.6298
620.4249, 217.5449
620.9070, 217.1627
621.3892, 216.3851
621.8713, 215.0748
622.3534, 213.2345
622.8355, 211.4110
623.3176, 209.5868
623.7997, 207.8045
624.2819, 205.9960
624.7640, 204.2890
625.2461, 202.7190
625.7282, 201.3470
626.2103, 200.3794
626.6924, 200.1625
627.1745, 200.4027
627.6566, 200.2857
628.1387, 199.7643
628.6208, 199.6080
629.1030, 200.3209
629.5851, 201.2804
630.0672, 201.4201
630.5493, 200.6829
631.0314, 200.3544
631.5135, 201.1216
631.9957, 201.8751
632.4778, 201.8217
632.9599, 201.2340
633.4420, 200.7840
633.9241, 200.7186
634.4063, 200.6577
634.8884, 199.9961
635.3705, 198.6172
635.8526, 197.5987
636.3347, 197.2011
636.8168, 196.8141
637.2990, 196.2026
637.7811, 195.4956
638.2632, 194.7742
638.7453, 194.0426
639.2274, 193.5825
639.7095, 193.5719
640.1917, 193.9698
640.6738, 194.8871
641.1559, 196.2891
641.6380, 197.5093
642.1201, 198.1975
642.6022, 198.4689
643.0844, 198.5804
643.5665, 198.5226
644.0486, 198.2978
644.5307, 198.0728
645.0128, 197.5247
645.4949, 196.4044
645.9771, 194.8350
646.4592, 193.0615
646.9413, 191.1987
647.4234, 189.1867
647.9055, 186.9512
648.3876, 184.4922
648.8698, 181.6902
649.3519, 178.1849
649.8340, 175.1651
650.3161, 173.6411
650.7982, 173.0556
651.2803, 172.3363
651.7625, 171.3279
652.2446, 170.4031
652.7267, 169.7403
653.2088, 169.2170
653.6909, 168.7791
654.1730, 168.3711
654.6552, 167.7924
655.1373, 166.8940
655.6194, 165.8790
656.1015, 165.3036
656.5836, 165.3922
657.0657, 165.3453
657.5479, 164.9745
658.0300, 164.6030
658.5121, 164.2790
658.9942, 164.0703
659.4763, 164.1625
659.9584, 164.7385
660.4406, 165.2200
660.9227, 164.9543
661.4048, 164.2065
661.8869, 163.6298
662.3690, 163.3204
662.8511, 163.2127
663.3333, 163.3284
663.8154, 163.5685
664.2975, 163.5161
664.7796, 162.8382
665.2617, 162.3351
665.7438, 162.0284
666.2260, 161.8957
666.7081, 162.0287
667.1902, 162.3190
667.6723, 162.5326
668.1544, 162.5553
668.6365, 162.4179
669.1187, 161.9065
669.6008, 159.8866
670.0829, 160.9289
670.5650, 161.5312
671.0471, 161.7173
671.5292, 160.2404
672.0114, 160.9109
672.4935, 160.7208
672.9756, 160.4954
673.4577, 161.4682
673.9398, 160.2331
674.4219, 161.1869
674.9041, 161.2669
675.3862, 161.7468
675.8683, 161.3608
676.3504, 161.2422
676.8325, 161.9899
677.3146, 162.2579
677.7968, 161.8875
678.2789, 161.8181
678.7610, 161.1235
679.2431, 160.5531
679.7252, 160.7202
680.2073, 161.2913
680.6895, 161.5504
681.1716, 161.1797
681.6537, 160.9123
682.1358, 161.3743
682.6179, 162.0974
683.1000, 162.3591
683.5822, 162.1350
684.0643, 161.9077
684.5464, 162.0009
685.0285, 162.2672
685.5106, 162.2232
685.9927, 161.4622
686.4749, 161.3474
686.9570, 162.8164
687.4391, 164.0542
687.9212, 164.1291
688.4033, 163.4416
688.8854, 162.7143
689.3676, 162.1156
689.8497, 161.7886
690.3318, 161.9407
690.8139, 162.4315
691.2960, 163.1331
691.7781, 164.0032
692.2603, 164.3765
692.7424, 163.7325
693.2245, 162.5376
693.7066, 162.0374
694.1887, 162.7928
694.6708, 163.1168
695.1530, 162.5735
695.6351, 162.0777
696.1172, 162.0955
696.5993, 162.4577
697.0814, 162.8685
697.5635, 163.2312
698.0457, 163.4892
698.5278, 163.4942
699.0099, 163.3509
699.4920, 163.4700
699.9741, 163.9026
700.4562, 164.1891
700.9384, 164.0898
701.4205, 163.6939
701.9026, 163.1232
702.3847, 162.1108
702.8668, 161.6882
703.3489, 162.5121
703.8311, 163.2614
704.3132, 163.1332
704.7953, 162.5468
705.2774, 162.2807
705.7595, 162.5598
706.2416, 162.8255
706.7238, 162.3673
707.2059, 161.3738
707.6880, 160.7153
708.1701, 160.4545
708.6522, 160.1223
709.1343, 159.4266
709.6164, 158.6711
710.0985, 158.4160
710.5806, 158.7711
711.0627, 158.7887
711.5449, 158.0138
712.0270, 157.3117
712.5091, 157.1569
712.9912, 157.3017
713.4733, 157.3708
713.9554, 157.2827
714.4376, 157.2467
714.9197, 157.5556
715.4018, 158.0497
715.8839, 158.0193
716.3660, 157.3751
716.8481, 156.8834
717.3303, 156.8492
717.8124, 156.9686
718.2945, 156.9279
718.7766, 156.7351
719.2587, 156.4536
719.7408, 155.9540
720.2230, 155.5259
720.7051, 155.1920
721.1872, 155.0419
721.6693, 155.3127
722.1514, 155.9311
722.6335, 156.4351
723.1157, 156.4571
723.5978, 156.1506
724.0799, 155.8774
724.5620, 155.6225
725.0441, 155.5576
725.5262, 155.7948
726.0084, 156.0945
726.4905, 156.4309
726.9726, 156.6807
727.4547, 156.3328
727.9368, 154.7152
728.4189, 153.5096
728.9011, 153.3830
729.3832, 153.7636
729.8653, 154.3130
730.3474, 154.8737
730.8295, 155.2203
731.3116, 155.2222
731.7938, 155.0004
732.2759, 154.7404
732.7580, 154.4425
733.2401, 154.1137
733.7222, 153.7260
734.2043, 153.3771
734.6865, 153.0712
735.1686, 152.8683
735.6507, 152.9135
736.1328, 153.3051
736.6149, 153.5997
737.0970, 152.8676
737.5792, 153.7487
738.0613, 154.1899
738.5434, 154.2148
739.0255, 152.5768
739.5076, 153.0862
739.9897, 152.7349
740.4719, 152.3484
740.9540, 153.1600
741.4361, 151.7638
741.9182, 152.5564
742.4003, 152.4753
742.8824, 152.7941
743.3646, 152.2469
743.8467, 152.4273
744.3288, 154.0109
744.8109, 154.7515
745.2930, 153.8030
745.7751, 152.7760
746.2573, 152.1691
746.7394, 151.9272
747.2215, 152.0770
747.7036, 152.5320
748.1857, 152.9905
748.6678, 153.2672
749.1500, 153.3347
749.6321, 152.9335
750.1142, 152.0651
750.5963, 151.9121
751.0784, 152.9809
751.5605, 153.9944
752.0427, 153.8255
752.5248, 152.7101
753.0069, 151.9886
753.4890, 152.0558
753.9711, 151.8694
754.4532, 150.8181
754.9354, 149.8917
755.4175, 149.9938
755.8996, 150.7756
756.3817, 151.3410
756.8638, 151.3094
757.3459, 151.0313
757.8281, 150.8642
758.3102, 150.7956
758.7923, 150.8168
759.2744, 150.9342
759.7565, 150.9574
760.2386, 150.7455
760.7208, 150.4806
761.2029, 150.4944
761.6850, 150.8868
762.1671, 151.1542
762.6492, 151.2954
763.1313, 151.3239
763.6135, 151.1844
764.0956, 150.9715
764.5777, 150.7926
765.0598, 150.6571
765.5419, 150.4778
766.0240, 150.0874
766.5062, 149.7208
766.9883, 149.8631
767.4704, 150.3520
767.9525, 150.4224
768.4346, 149.8761
768.9167, 149.3436
769.3989, 149.4342
769.8810, 149.9992
770.3631, 150.0879
770.8452, 149.0828
771.3273, 148.7320
771.8094, 149.7870
772.2916, 150.8793
772.7737, 151.3040
773.2558, 151.2149
773.7379, 150.9735
774.2200, 150.6365
774.7021, 150.3411
775.1843, 150.2851
775.6664, 150.2630
776.1485, 149.9166
776.6306, 149.3165
777.1127, 148.8165
777.5948, 148.5708
778.0770, 148.5470
778.5591, 148.7119
779.0412, 149.0710
779.5233, 149.5462
780.0054, 150.3660
780.4875, 150.8120
780.9697, 150.3087
781.4518, 149.5841
781.9339, 149.3829
782.4160, 149.6677
782.8981, 149.8839
783.3802, 149.8319
783.8624, 149.7566
784.3445, 149.8194
784.8266, 149.9110
785.3087, 149.8964
785.7908, 149.7591
786.2729, 149.5271
786.7551, 149.1978
787.2372, 148.8686
787.7193, 148.8265
788.2014, 149.0648
788.6835, 148.8953
789.1656, 148.0524
789.6478, 147.4959
790.1299, 147.9600
790.6120, 149.0118
791.0941, 149.6197
791.5762, 149.7065
792.0583, 149.6156
792.5404, 149.1825
793.0225, 148.7753
793.5046, 148.5808
793.9868, 148.5084
794.4689, 148.3849
794.9510, 148.1951
795.4331, 148.1479
795.9152, 148.5720
796.3973, 149.1149
796.8795, 149.1270
797.3616, 148.7072
797.8437, 148.3421
798.3258, 148.1514
798.8079, 147.9765
799.2900, 147.6290
799.7722, 147.2068
800.2543, 147.3346
800.7364, 148.6529
801.2185, 149.2095
801.7006, 147.9612
802.1827, 146.8146
802.6649, 146.9985
803.1470, 147.8113
803.6291, 147.8079
804.1112, 146.4994
804.5933, 145.4871
805.0754, 145.6858
805.5576, 146.4769
806.0397, 147.6631
806.5218, 148.8672
807.0039, 149.1869
807.4860, 148.3655
807.9681, 147.2812
808.4503, 146.9114
808.9324, 147.1192
809.4145, 147.1900
809.8966, 147.1131
810.3787, 146.9495
810.8608, 146.6577
811.3430, 146.3808
811.8251, 146.1986
812.3072, 146.1352
812.7893, 146.3249
813.2714, 147.2672
813.7535, 147.7125
814.2357, 147.0600
814.7178, 146.2457
815.1999, 145.7783
815.6820, 145.6868
816.1641, 146.0510
816.6462, 146.9140
817.1284, 147.5197
817.6105, 146.9047
818.0926, 145.6678
818.5747, 144.8719
819.0568, 144.5459
819.5389, 144.6598
820.0211, 145.2265
820.5032, 145.8826
820.9853, 146.2184
821.4674, 146.2490
821.9495, 146.2033
822.4316, 146.0679
822.9138, 145.8815
823.3959, 145.6060
823.8780, 145.3245
824.3601, 145.0202
824.8422, 144.7572
825.3243, 144.7378
825.8065, 145.1491
826.2886, 145.4273
826.7707, 145.1535
827.2528, 144.8275
827.7349, 144.9346
828.2170, 145.3454
828.6992, 145.7719
829.1813, 146.0935
829.6634, 146.1652
830.1455, 145.6486
830.6276, 144.7967
831.1097, 144.5635
831.5919, 144.9368
832.0740, 145.1406
832.5561, 144.9394
833.0382, 144.5583
833.5203, 144.1488
834.0024, 143.7484
834.4846, 143.6512
834.9667, 144.2693
835.4488, 144.5072
835.9309, 143.9565
836.4130, 143.4028
836.8951, 143.2870
837.3773, 143.4367
837.8594, 143.5339
838.3415, 143.5159
838.8236, 143.3972
839.3057, 142.9274
839.7878, 142.5794
840.2700, 143.0927
840.7521, 144.0272
841.2342, 144.3471
841.7163, 143.8255
842.1984, 143.0977
842.6805, 142.7096
843.1627, 142.6060
843.6448, 142.7325
844.1269, 143.1049
844.6090, 143.0820
845.0911, 142.4321
845.5732, 141.8021
846.0554, 141.6151
846.5375, 140.8742
847.0196, 141.8480
847.5017, 142.3819
847.9838, 142.4995
848.4659, 140.9541
848.9481, 141.5561
849.4302, 141.2975
849.9123, 141.0036
850.3944, 141.9079
850.8765, 140.6044
851.3586, 141.4896
851.8408, 141.5012
852.3229, 141.9126
852.8050, 141.4581
853.2871, 141.2711
853.7692, 141.9502
854.2513, 142.1497
854.7335, 141.5956
855.2156, 142.0324
855.6977, 140.6986
856.1798, 140.9186
856.6619, 141.5701
857.1440, 141.6718
857.6262, 141.4284
858.1083, 141.1108
858.5904, 140.7664
859.0725, 140.5266
859.5546, 140.6436
860.0367, 141.1770
860.5189, 141.3640
861.0010, 140.8140
861.4831, 140.4642
861.9652, 140.5927
862.4473, 140.8587
862.9294, 141.1425
863.4116, 141.3365
863.8937, 141.1715
864.3758, 140.4373
864.8579, 139.7763
865.3400, 139.6413
865.8221, 139.7533
866.3043, 139.8608
866.7864, 139.9335
867.2685, 139.9658
867.7506, 139.9560
868.2327, 139.8987
868.7148, 139.7338
869.1970, 139.5531
869.6791, 139.8166
870.1612, 140.5232
870.6433, 140.6389
871.1254, 139.8175
871.6075, 138.9986
872.0897, 138.9410
872.5718, 139.3934
873.0539, 139.5390
873.5360, 139.2052
874.0181, 138.9606
874.5002, 138.8471
874.9823, 138.7797
875.4644, 138.7862
875.9465, 138.7929
876.4286, 138.7099
876.9108, 138.5338
877.3929, 138.3428
877.8750, 138.1164
878.3571, 137.9383
878.8392, 137.8817
879.3214, 137.8826
879.8035, 137.9085
880.2856, 137.9190
880.7677, 137.7635
881.2498, 137.3406
881.7319, 137.0319
882.2141, 137.4311
882.6962, 138.3084
883.1783, 139.1653
883.6604, 139.9176
884.1425, 139.7806
884.6246, 138.3967
885.1068, 136.8116
885.5889, 136.1747
886.0710, 136.3839
886.5531, 136.6951
887.0352, 137.2020
887.5173, 137.5401
887.9995, 137.6796
888.4816, 137.6175
888.9637, 137.1798
889.4458, 136.5887
889.9279, 136.3502
890.4100, 136.6311
890.8922, 136.6100
891.3743, 135.7523
891.8564, 135.0545
892.3385, 135.0500
892.8206, 135.3971
893.3027, 135.7689
893.7849, 136.0862
894.2670, 136.3146
894.7491, 136.4440
895.2312, 136.4638
895.7133, 136.3088
896.1954, 136.0656
896.6776, 135.8529
897.1597, 135.6901
897.6418, 135.5946
898.1239, 135.5729
898.6060, 135.5767
899.0881, 135.5918
899.5703, 135.5753
900.0524, 135.1429
900.5345, 134.2471
901.0166, 133.9991
901.4987, 134.8172
901.9808, 135.7105
902.4630, 135.8945
902.9451, 135.5291
903.4272, 135.1680
903.9093, 134.8047
904.3914, 134.4550
904.8735, 134.0501
905.3557, 133.7463
905.8378, 133.6540
906.3199, 133.6523
906.8020, 133.5523
907.2841, 133.3684
907.7662, 133.4395
908.2484, 134.2716
908.7305, 134.8305
909.2126, 134.6091
909.6947, 134.0012
910.1768, 133.0934
910.6589, 132.1633
911.1411, 131.7822
911.6232, 132.1767
912.1053, 132.7238
912.5874, 132.8681
913.0695, 132.8431
913.5516, 133.0791
914.0338, 133.4553
914.5159, 133.5412
914.9980, 133.2576
915.4801, 132.9107
915.9622, 132.7274
916.4443, 132.6788
916.9265, 132.7191
917.4086, 132.8481
917.8907, 132.9343
918.3728, 132.9594
918.8549, 133.0215
919.3370, 133.2211
919.8192, 133.3439
920.3013, 133.0066
920.7834, 132.1817
921.2655, 131.9913
921.7476, 133.1237
922.2297, 133.6998
922.7119, 133.0172
923.1940, 132.1480
923.6761, 131.5741
924.1582, 131.2837
924.6403, 131.2694
925.1224, 131.5921
925.6046, 131.9009
926.0867, 132.1621
926.5688, 132.3279
927.0509, 132.4331
927.5330, 132.3897
928.0151, 132.0284
928.4973, 131.4003
928.9794, 130.7451
929.4615, 130.0983
929.9436, 129.6968
930.4257, 129.8752
930.9078, 130.3488
931.3900, 130.8055
931.8721, 131.1640
932.3542, 131.2724
932.8363, 131.0920
933.3184, 130.7969
933.8005, 130.5807
934.2827, 130.3547
934.7648, 129.7134
935.2469, 128.7487
935.7290, 128.4193
936.2111, 128.9005
936.6932, 129.5517
937.1754, 130.0341
937.6575, 130.3459
938.1396, 130.4703
938.6217, 130.3957
939.1038, 130.2622
939.5859, 130.0186
940.0681, 129.8569
940.5502, 129.8749
941.0323, 129.9176
941.5144, 129.8313
941.9965, 129.6600
942.4786, 129.5899
942.9608, 129.6420
943.4429, 129.7465
943.9250, 130.0484
944.4071, 130.2296
944.8892, 129.9872
945.3713, 129.6698
945.8535, 129.7324
946.3356, 130.1558
946.8177, 130.4790
947.2998, 130.6021
947.7819, 130.5240
948.2640, 129.9770
948.7462, 129.4520
949.2283, 129.5517
949.7104, 130.0073
950.1925, 130.1596
950.6746, 129.8291
951.1567, 129.4534
951.6389, 129.3740
952.1210, 129.4314
952.6031, 129.4554
953.0852, 129.4466
953.5673, 129.3713
954.0494, 129.2520
954.5316, 129.2338
955.0137, 129.3992
955.4958, 129.5955
955.9779, 129.6409
956.4600, 129.5282
956.9421, 129.0964
957.4242, 128.3672
957.9063, 128.0196
958.3884, 128.2410
958.8705, 128.7249
959.3527, 129.2539
959.8348, 129.7982
960.3169, 130.3205
960.7990, 130.9192
961.2811, 130.8782
961.7632, 129.8600
962.2454, 129.1167
962.7275, 129.1573
963.2096, 129.6169
963.6917, 130.2513
964.1738, 131.0030
964.6559, 131.2152
965.1381, 130.3715
965.6202, 129.8251
966.1023, 129.7621
966.5844, 129.8303
967.0665, 129.7342
967.5486, 129.7605
968.0308, 130.4988
968.5129, 131.9631
968.9950, 132.8453
969.4771, 132.3050
969.9592, 131.8978
970.4413, 132.2500
970.9235, 132.8441
971.4056, 133.2917
971.8877, 133.6380
972.3698, 133.9460
972.8519, 134.2289
973.3340, 134.9887
973.8162, 136.9307
974.2983, 139.0257
974.7804, 140.2361
975.2625, 141.1698
975.7446, 142.6083
976.2267, 144.6487
976.7089, 147.1489
977.1910, 150.0427
977.6731, 153.2719
978.1552, 156.7675
978.6373, 160.5625
979.1194, 164.6906
979.6016, 169.2111
980.0837, 174.1416
980.5658, 179.5425
981.0479, 185.6746
981.5300, 192.7468
982.0121, 200.3517
982.4943, 207.5385
982.9764, 214.4720
983.4585, 222.2183
983.9406, 230.7715
984.4227, 239.5440
984.9048, 248.2672
985.3870, 257.9533
985.8691, 269.5824
986.3512, 282.7577
986.8333, 296.2266
987.3154, 309.8698
987.7975, 324.8932
988.2797, 341.6198
988.7618, 358.9020
989.2439, 376.5395
989.7260, 394.0561
990.2081, 411.0649
990.6902, 427.4446
991.1724, 442.7257
991.6545, 457.7538
992.1366, 469.7805
992.6187, 478.9852
993.1008, 484.7287
993.5829, 486.8942
994.0651, 485.3407
994.5472, 479.7868
995.0293, 470.2350
995.5114, 457.0044
995.9935, 438.4353
996.4756, 418.4896
996.9578, 396.5565
997.4399, 374.6339
997.9220, 353.5090
998.4041, 333.2688
998.8862, 313.9169
999.3683, 295.5142
999.8505, 278.8256
1000.333, 264.3152
1000.815, 251.3041
1001.297, 239.7520
1001.779, 229.5681
1002.261, 220.8435
1002.743, 213.4499
1003.225, 207.2542
1003.707, 202.2451
1004.190, 198.1015
1004.672, 194.6836
1005.154, 192.0638
1005.636, 190.5422
1006.118, 189.6424
1006.600, 188.9174
1007.082, 188.2551
1007.564, 187.6481
1008.046, 187.0936
1008.529, 186.3545
1009.011, 185.2018
1009.493, 183.8121
1009.975, 182.4556
1010.457, 180.9728
1010.939, 179.1294
1011.421, 176.8695
1011.903, 174.0358
1012.385, 170.5478
1012.868, 167.0172
1013.350, 164.4478
1013.832, 162.1075
1014.314, 158.2671
1014.796, 153.5082
1015.278, 149.5582
1015.760, 146.6911
1016.242, 144.4322
1016.725, 142.5307
1017.207, 140.6721
1017.689, 138.1759
1018.171, 135.3662
1018.653, 133.4920
1019.135, 132.4780
1019.617, 131.7849
1020.099, 131.2717
1020.581, 130.5968
1021.064, 129.4903
1021.546, 128.2887
1022.028, 127.6336
1022.510, 127.4874
1022.992, 127.4152
1023.474, 127.4167
1023.956, 127.3714
1024.438, 127.2425
1024.921, 127.1362
1025.403, 127.1503
1025.885, 127.1898
1026.367, 127.0246
1026.849, 126.6446
1027.331, 126.1543
1027.813, 125.4602
1028.295, 125.2530
1028.777, 125.8690
1029.260, 126.4845
1029.742, 126.3867
1030.224, 125.8590
1030.706, 125.7469
1031.188, 126.2026
1031.670, 126.2110
1032.152, 125.5710
1032.634, 125.0671
1033.116, 124.9165
1033.599, 124.9734
1034.081, 125.1501
1034.563, 125.4212
1035.045, 125.7145
1035.527, 126.0503
1036.009, 126.3468
1036.491, 126.6589
1036.973, 126.8152
1037.456, 126.6205
1037.938, 126.4406
1038.420, 126.6123
1038.902, 127.0340
1039.384, 127.3088
1039.866, 127.0888
1040.348, 127.7257
1040.830, 130.5329
1041.313, 132.3076
1041.795, 131.4302
1042.277, 129.9370
1042.759, 129.0052
1043.241, 128.7882
1043.723, 129.9375
1044.205, 133.2132
1044.687, 135.7449
1045.169, 137.3793
1045.651, 138.3031
1046.134, 137.9539
1046.616, 137.4397
1047.098, 137.4294
1047.580, 138.0049
1048.062, 139.3926
1048.544, 141.9106
1049.026, 144.1857
1049.508, 145.7588
1049.991, 147.4202
1050.473, 149.3517
1050.955, 151.5533
1051.437, 154.0700
1051.919, 156.8566
1052.401, 159.8683
1052.883, 163.1429
1053.365, 166.3945
1053.848, 169.0882
1054.330, 172.3662
1054.812, 177.1618
1055.294, 182.2957
1055.776, 186.6098
1056.258, 190.4635
1056.740, 194.8299
1057.222, 199.8994
1057.704, 205.3621
1058.187, 211.4497
1058.669, 217.5014
1059.151, 223.5885
1059.633, 229.1785
1060.115, 233.6586
1060.597, 237.3506
1061.079, 241.2024
1061.561, 245.5173
1062.043, 248.6361
1062.526, 249.9279
1063.008, 250.0119
1063.490, 248.6768
1063.972, 246.7005
1064.454, 244.8512
1064.936, 242.8646
1065.418, 239.9220
1065.900, 235.8346
1066.383, 231.9570
1066.865, 229.8935
1067.347, 226.7624
1067.829, 221.3226
1068.311, 214.1558
1068.793, 205.1849
1069.275, 195.1403
1069.757, 184.9370
1070.240, 174.8001
1070.722, 165.1461
1071.204, 155.4753
1071.686, 147.2026
1072.168, 141.0777
1072.650, 136.4942
1073.132, 133.3334
1073.614, 131.1137
1074.096, 129.0820
1074.578, 127.1474
1075.061, 125.8710
1075.543, 126.0746
1076.025, 126.0426
1076.507, 124.5563
1076.989, 122.8997
1077.471, 121.9938
1077.953, 121.6482
1078.435, 121.6304
1078.918, 121.7919
1079.400, 121.6287
1079.882, 120.6944
1080.364, 119.9517
1080.846, 119.9946
1081.328, 120.2522
1081.810, 120.4314
1082.292, 120.4891
1082.774, 120.3238
1083.257, 120.0050
1083.739, 119.8562
1084.221, 120.0389
1084.703, 120.2423
1085.185, 120.4058
1085.667, 120.4529
1086.149, 120.0286
1086.631, 119.6754
1087.114, 120.3228
1087.596, 121.6300
1088.078, 122.1616
1088.560, 121.3034
1089.042, 120.6586
1089.524, 120.9268
1090.006, 121.5492
1090.488, 122.6154
1090.970, 123.5474
1091.453, 123.5060
1091.935, 122.8966
1092.417, 122.8859
1092.899, 123.8047
1093.381, 124.6417
1093.863, 124.7732
1094.345, 125.0613
1094.827, 126.1557
1095.309, 127.3387
1095.792, 127.9889
1096.274, 128.2603
1096.756, 128.3765
1097.238, 128.3862
1097.720, 129.0307
1098.202, 131.4877
1098.684, 133.2987
1099.166, 133.1587
1099.649, 132.5965
1100.131, 132.6604
1100.613, 133.0058
1101.095, 132.9077
1101.577, 132.3630
1102.059, 132.2456
1102.541, 133.3003
1103.023, 133.9189
1103.505, 133.4106
1103.988, 132.7334
1104.470, 132.3853
1104.952, 132.1562
1105.434, 131.7966
1105.916, 131.3027
1106.398, 130.7451
1106.880, 130.0027
1107.362, 129.5127
1107.844, 129.4785
1108.327, 129.5314
1108.809, 129.6207
1109.291, 129.6651
1109.773, 129.4627
1110.255, 129.1739
1110.737, 129.3474
1111.219, 130.2696
1111.701, 130.6835
1112.184, 129.8278
1112.666, 129.3968
1113.148, 130.2027
1113.630, 131.0934
1114.112, 131.2550
1114.594, 131.0101
1115.076, 130.9304
1115.558, 131.0175
1116.041, 131.2625
1116.523, 131.9503
1117.005, 132.2891
1117.487, 131.7624
1117.969, 131.4993
1118.451, 132.1894
1118.933, 133.2520
1119.415, 133.8746
1119.897, 134.0810
1120.380, 132.6246
1120.862, 133.3154
1121.344, 133.1456
1121.826, 132.9406
1122.308, 133.9337
1122.790, 132.2206
1123.272, 132.4519
1123.754, 132.7383
1124.236, 132.9706
1124.719, 132.7065
1125.201, 131.7553
1125.683, 131.4275
1126.165, 132.0560
1126.647, 131.9207
1127.129, 130.3443
1127.611, 128.8439
1128.093, 128.4684
1128.576, 128.8113
1129.058, 129.2110
1129.540, 129.6434
1130.022, 129.5050
1130.504, 128.7327
1130.986, 128.1709
1131.468, 127.9743
1131.950, 127.6481
1132.432, 126.9196
1132.915, 126.2069
1133.397, 126.0752
1133.879, 126.2925
1134.361, 125.9339
1134.843, 125.0715
1135.325, 124.6837
1135.807, 124.8057
1136.289, 124.6814
1136.771, 124.0741
1137.254, 123.5205
1137.736, 123.4693
1138.218, 123.6585
1138.700, 123.6569
1139.182, 123.4899
1139.664, 123.2284
1140.146, 122.8789
1140.628, 122.4191
1141.111, 121.8712
1141.593, 121.4100
1142.075, 121.1255
1142.557, 120.8630
1143.039, 120.3889
1143.521, 119.8682
1144.003, 119.5955
1144.485, 119.4813
1144.968, 119.3030
1145.450, 119.1060
1145.932, 119.1542
1146.414, 119.5021
1146.896, 119.8388
1147.378, 119.9609
1147.860, 119.9522
1148.342, 119.8876
1148.824, 119.7424
1149.307, 119.5167
1149.789, 119.1745
1150.271, 118.4495
1150.753, 117.5110
1151.235, 117.2272
1151.717, 118.1195
1152.199, 118.8874
1152.681, 118.5761
1153.163, 118.1454
1153.646, 118.3862
1154.128, 118.7063
1154.610, 118.3765
1155.092, 117.6198
1155.574, 115.8439
1156.056, 116.7900
1156.538, 117.2963
1157.020, 117.3863
1157.503, 115.8132
1157.985, 116.3877
1158.467, 116.1015
1158.949, 115.7801
1159.431, 116.6568
1159.913, 115.3257
1160.395, 116.1834
1160.877, 116.0958
1161.359, 115.5657
1161.842, 115.2513
1162.324, 115.3142
1162.806, 115.3481
1163.288, 115.2107
1163.770, 115.0591
1164.252, 115.0471
1164.734, 115.0728
1165.216, 114.8672
1165.698, 114.3896
1166.181, 114.2918
1166.663, 114.7535
1167.145, 114.9134
1167.627, 114.5911
1168.109, 114.1671
1168.591, 113.7702
1169.073, 113.5423
1169.555, 113.7027
1170.037, 114.0889
1170.520, 114.0948
1171.002, 113.7264
1171.484, 113.0450
1171.966, 112.0799
1172.448, 111.8572
1172.930, 112.6350
1173.412, 113.3472
1173.894, 113.2709
1174.377, 112.8351
1174.859, 112.6454
1175.341, 112.6115
1175.823, 112.3938
1176.305, 112.1335
1176.787, 112.4337
1177.269, 113.1613
1177.751, 113.3645
1178.234, 112.7649
1178.716, 112.2542
1179.198, 112.6043
1179.680, 113.1630
1180.162, 113.2560
1180.644, 113.1082
1181.126, 112.8597
1181.608, 112.6587
1182.090, 112.8386
1182.573, 113.3025
1183.055, 113.5300
1183.537, 113.3135
1184.019, 112.9492
1184.501, 112.3903
1184.983, 111.9798
1185.465, 112.0932
1185.947, 112.2635
1186.429, 111.9065
1186.912, 111.3929
1187.394, 111.5022
1187.876, 112.2818
1188.358, 112.8857
1188.840, 113.4011
1189.322, 113.3804
1189.804, 112.1696
1190.286, 111.2147
1190.769, 111.1945
1191.251, 111.4296
1191.733, 111.3666
1192.215, 111.1221
1192.697, 110.9975
1193.179, 111.0044
1193.661, 111.0549
1194.143, 111.2001
1194.625, 111.1705
1195.108, 110.8692
1195.590, 110.6743
1196.072, 110.8264
1196.554, 110.8885
1197.036, 110.2924
1197.518, 109.3409
1198.000, 109.0348
1198.482, 109.2928
1198.964, 109.3288
1199.447, 109.1517
1199.929, 109.2027
1200.411, 109.5445
1200.893, 109.7402
1201.375, 109.5361
1201.857, 109.1139
1202.339, 108.4818
1202.821, 107.9459
1203.304, 108.2648
1203.786, 108.8895
1204.268, 108.7622
1204.750, 108.0815
1205.232, 107.5817
1205.714, 107.4307
1206.196, 107.3503
1206.678, 107.2066
1207.161, 107.0871
1207.643, 107.0576
1208.125, 107.0606
1208.607, 107.0156
1209.089, 107.0171
1209.571, 107.2435
1210.053, 107.5766
1210.535, 107.7401
1211.017, 107.6908
1211.500, 107.5408
1211.982, 107.0940
1212.464, 106.8761
1212.946, 107.1738
1213.428, 107.4201
1213.910, 107.3404
1214.392, 107.2047
1214.874, 107.3350
1215.356, 107.5645
1215.839, 107.3204
1216.321, 106.5019
1216.803, 106.2372
1217.285, 106.6305
1217.767, 106.8928
1218.249, 106.8911
1218.731, 106.7242
1219.213, 106.4158
1219.696, 106.2167
1220.178, 106.4411
1220.660, 106.8795
1221.142, 107.0783
1221.624, 107.0715
1222.106, 106.9271
1222.588, 106.6830
1223.070, 106.4404
1223.552, 105.1128
1224.035, 106.1018
1224.517, 106.6509
1224.999, 106.7838
1225.481, 105.2537
1225.963, 105.8709
1226.445, 105.6276
1226.927, 105.3491
1227.409, 106.2686
1227.891, 104.9803
1228.374, 105.8808
1228.856, 105.9076
1229.338, 106.3343
1229.820, 105.8951
1230.302, 105.7233
1230.784, 106.4177
1231.266, 106.6325
1231.748, 106.0936
1232.231, 106.5457
1232.713, 105.2272
1233.195, 105.4624
1233.677, 106.3680
1234.159, 105.8727
1234.641, 106.3406
1235.123, 104.8281
1235.605, 104.2443
1236.088, 104.2176
1236.570, 104.2480
1237.052, 104.2007
1237.534, 104.2796
1238.016, 104.6401
1238.498, 104.9862
1238.980, 104.7812
1239.462, 104.3699
1239.944, 104.9461
1240.427, 106.0313
1240.909, 106.1097
1241.391, 105.3584
1241.873, 104.7339
1242.355, 104.4743
1242.837, 104.3494
1243.319, 104.2459
1243.801, 104.1945
1244.283, 104.1729
1244.766, 104.2656
1245.248, 104.6800
1245.730, 105.1114
1246.212, 105.2393
1246.694, 105.1726
1247.176, 105.1480
1247.658, 105.1759
1248.140, 105.0552
1248.622, 104.6012
1249.105, 104.3282
1249.587, 104.3645
1250.069, 104.4189
1250.551, 104.4140
1251.033, 104.4368
1251.515, 104.5691
1251.997, 104.7172
1252.479, 104.7682
1252.962, 104.6945
1253.444, 104.2440
1253.926, 103.4292
1254.408, 103.0470
1254.890, 103.1141
1255.372, 103.1586
1255.854, 103.0810
1256.336, 103.2294
1256.818, 103.8125
1257.301, 104.3364
1257.783, 104.1245
1258.265, 103.6995
1258.747, 103.8819
1259.229, 104.2171
1259.711, 103.9958
1260.193, 103.4679
1260.675, 103.2064
1261.157, 103.2351
1261.640, 103.1469
1262.122, 102.7583
1262.604, 102.5464
1263.086, 102.8275
1263.568, 103.0701
1264.050, 102.9567
1264.532, 102.9256
1265.014, 103.2347
1265.497, 103.7737
1265.979, 104.5998
1266.461, 105.4885
1266.943, 105.3437
1267.425, 103.9063
1267.907, 103.5406
1268.389, 104.3909
1268.871, 104.6798
1269.354, 104.0867
1269.836, 103.3218
1270.318, 102.7004
1270.800, 102.4110
1271.282, 102.7258
1271.764, 103.1988
1272.246, 103.0483
1272.728, 102.6016
1273.210, 102.4187
1273.693, 102.3928
1274.175, 102.2017
1274.657, 101.9339
1275.139, 102.0120
1275.621, 102.5345
1276.103, 103.0103
1276.585, 103.1942
1277.067, 103.3685
1277.549, 103.8085
1278.032, 104.0324
1278.514, 103.6033
1278.996, 103.0567
1279.478, 102.8734
1279.960, 102.8880
1280.442, 102.7951
1280.924, 102.5951
1281.406, 102.2207
1281.889, 101.5974
1282.371, 101.4300
1282.853, 101.7838
1283.335, 102.4096
1283.817, 103.2355
1284.299, 103.7747
1284.781, 103.7070
1285.263, 103.3137
1285.745, 102.8722
1286.228, 102.3804
##END=



