##NAMES=Burkeite
##RRUFFID=R060112
##IDEAL CHEMISTRY=Na_4_(S^6+^O_4_)(CO_3_)
##LOCALITY=Searles Lake, near Trona, San Bernardino County, California, USA
##OWNER=RRUFF
##SOURCE=University of Arizona Mineral Museum
##DESCRIPTION=Tan colored nodule covered with white thenardite powder
##STATUS=The identification of this mineral has been confirmed by X-ray diffraction and chemical analysis
##URL=rruff.info/R060112
##MEASURED CHEMISTRY=Na_4.00_S_1.00_O_4_CO_3_ ; C not measured but estimated by difference.
89.78156, 0.0000000E+00
90.26367, 59.55397
90.74579, 59.76210
91.22791, 59.64079
91.71002, 59.23351
92.19214, 58.92613
92.67426, 59.05516
93.15638, 59.53261
93.63850, 60.13445
94.12061, 60.95186
94.60273, 61.80629
95.08485, 62.22055
95.56696, 62.15051
96.04908, 61.91345
96.53120, 61.90503
97.01331, 62.11103
97.49543, 62.24000
97.97755, 62.03547
98.45966, 61.53408
98.94178, 61.41155
99.42390, 61.71971
99.90602, 62.34113
100.3881, 63.05188
100.8703, 63.83232
101.3524, 64.79599
101.8345, 66.04194
102.3166, 67.59863
102.7987, 69.39239
103.2808, 71.87218
103.7630, 74.57292
104.2451, 75.11749
104.7272, 72.19810
105.2093, 68.85693
105.6914, 67.09103
106.1735, 67.79581
106.6557, 68.57250
107.1378, 69.09868
107.6199, 69.36433
108.1020, 69.88166
108.5841, 70.54839
109.0662, 71.52640
109.5484, 72.96758
110.0305, 74.67738
110.5126, 77.05698
110.9947, 80.25923
111.4768, 84.43749
111.9590, 88.86194
112.4411, 93.34283
112.9232, 98.10124
113.4053, 103.2876
113.8874, 108.6081
114.3695, 114.6659
114.8517, 121.6187
115.3338, 129.4506
115.8159, 138.2390
116.2980, 147.7464
116.7801, 158.3068
117.2622, 170.5175
117.7444, 184.7320
118.2265, 200.6912
118.7086, 218.0218
119.1907, 236.1340
119.6728, 256.7149
120.1549, 280.7536
120.6371, 308.0965
121.1192, 338.2509
121.6013, 371.0065
122.0834, 406.1182
122.5655, 443.3001
123.0476, 483.9771
123.5298, 525.3684
124.0119, 564.9360
124.4940, 602.7681
124.9761, 640.2717
125.4582, 679.2156
125.9404, 718.3721
126.4225, 754.9821
126.9046, 787.0595
127.3867, 816.2133
127.8688, 844.2677
128.3509, 871.0469
128.8331, 898.4402
129.3152, 927.7712
129.7973, 959.3492
130.2794, 993.8755
130.7615, 1031.296
131.2436, 1071.897
131.7258, 1116.479
132.2079, 1165.378
132.6900, 1217.361
133.1721, 1271.121
133.6542, 1326.439
134.1364, 1382.736
134.6185, 1440.909
135.1006, 1501.075
135.5827, 1559.522
136.0648, 1616.563
136.5469, 1671.710
137.0291, 1724.176
137.5112, 1773.788
137.9933, 1819.992
138.4754, 1862.652
138.9575, 1901.130
139.4396, 1937.833
139.9218, 1972.930
140.4039, 2006.269
140.8860, 2035.877
141.3681, 2060.034
141.8502, 2083.175
142.3323, 2108.204
142.8145, 2136.335
143.2966, 2163.924
143.7787, 2189.049
144.2608, 2212.049
144.7429, 2240.025
145.2250, 2275.181
145.7072, 2313.693
146.1893, 2352.118
146.6714, 2389.664
147.1535, 2428.180
147.6356, 2467.260
148.1178, 2506.289
148.5999, 2549.011
149.0820, 2596.664
149.5641, 2647.354
150.0462, 2698.435
150.5283, 2751.209
151.0105, 2802.427
151.4926, 2825.677
151.9747, 2842.319
152.4568, 2857.716
152.9389, 2872.707
153.4210, 2886.400
153.9032, 2897.743
154.3853, 2907.103
154.8674, 2913.646
155.3495, 2916.795
155.8316, 2915.438
156.3137, 2913.485
156.7959, 2910.659
157.2780, 2907.648
157.7601, 2905.790
158.2422, 2905.836
158.7243, 2906.619
159.2065, 2907.556
159.6886, 2908.481
160.1707, 2909.542
160.6528, 2909.394
161.1349, 2909.145
161.6170, 2911.842
162.0992, 2921.940
162.5813, 2933.225
163.0634, 2941.374
163.5455, 2942.600
164.0276, 2944.400
164.5097, 2950.654
164.9919, 2960.455
165.4740, 2970.320
165.9561, 2979.447
166.4382, 2987.481
166.9203, 2994.166
167.4024, 2998.508
167.8846, 3002.472
168.3667, 3007.219
168.8488, 3012.696
169.3309, 3018.530
169.8130, 3025.077
170.2952, 3031.688
170.7773, 3037.443
171.2594, 3040.872
171.7415, 3044.209
172.2236, 3049.642
172.7057, 3057.020
173.1879, 3064.581
173.6700, 3071.932
174.1521, 3078.438
174.6342, 3083.093
175.1163, 3084.411
175.5984, 3084.218
176.0806, 3084.684
176.5627, 3085.803
177.0448, 3086.676
177.5269, 3086.751
178.0090, 3086.001
178.4911, 3084.355
178.9733, 3081.352
179.4554, 3077.620
179.9375, 3073.617
180.4196, 3069.265
180.9017, 3066.038
181.3838, 3066.773
181.8660, 3070.362
182.3481, 3072.798
182.8302, 3071.394
183.3123, 3067.686
183.7944, 3065.436
184.2766, 3065.043
184.7587, 3064.682
185.2408, 3061.617
185.7229, 3056.312
186.2050, 3051.311
186.6871, 3048.204
187.1693, 3046.448
187.6514, 3044.263
188.1335, 3041.469
188.6156, 3038.359
189.0977, 3035.282
189.5798, 3032.204
190.0620, 3028.933
190.5441, 3024.446
191.0262, 3019.182
191.5083, 3016.827
191.9904, 3018.258
192.4725, 3020.865
192.9547, 3019.811
193.4368, 3014.984
193.9189, 3010.146
194.4010, 3007.495
194.8831, 3006.916
195.3652, 3006.126
195.8474, 3004.651
196.3295, 3003.481
196.8116, 3005.065
197.2937, 3009.681
197.7758, 3014.375
198.2579, 3017.973
198.7401, 3020.502
199.2222, 3020.040
199.7043, 3015.479
200.1864, 3008.923
200.6685, 3005.373
201.1507, 3005.301
201.6328, 3005.969
202.1149, 3005.774
202.5970, 3004.613
203.0791, 3003.437
203.5612, 3002.163
204.0434, 3001.063
204.5255, 3001.231
205.0076, 3003.146
205.4897, 3004.762
205.9718, 3004.634
206.4539, 3002.450
206.9361, 3000.488
207.4182, 2998.776
207.9003, 2997.530
208.3824, 2997.697
208.8645, 2999.958
209.3466, 3001.917
209.8288, 3001.418
210.3109, 2997.246
210.7930, 2996.191
211.2751, 2999.879
211.7572, 3006.836
212.2393, 3011.880
212.7215, 3014.740
213.2036, 3016.160
213.6857, 3016.073
214.1678, 3013.492
214.6499, 3012.825
215.1320, 3015.195
215.6142, 3019.672
216.0963, 3022.039
216.5784, 3021.375
217.0605, 3020.310
217.5426, 3020.522
218.0247, 3022.341
218.5069, 3024.491
218.9890, 3027.103
219.4711, 3029.981
219.9532, 3032.257
220.4353, 3033.984
220.9175, 3035.110
221.3996, 3035.365
221.8817, 3033.958
222.3638, 3033.927
222.8459, 3036.294
223.3280, 3040.361
223.8102, 3042.171
224.2923, 3040.404
224.7744, 3038.415
225.2565, 3038.418
225.7386, 3041.316
226.2207, 3043.910
226.7029, 3045.804
227.1850, 3047.130
227.6671, 3048.554
228.1492, 3050.183
228.6313, 3051.748
229.1134, 3053.272
229.5956, 3055.531
230.0777, 3055.955
230.5598, 3053.508
231.0419, 3048.993
231.5240, 3046.206
232.0062, 3045.413
232.4883, 3046.055
232.9704, 3047.894
233.4525, 3051.228
233.9346, 3055.252
234.4167, 3060.519
234.8989, 3066.507
235.3810, 3070.735
235.8631, 3072.894
236.3452, 3073.699
236.8273, 3073.379
237.3094, 3071.111
237.7916, 3069.360
238.2737, 3068.246
238.7558, 3067.692
239.2379, 3067.392
239.7200, 3067.093
240.2021, 3067.331
240.6843, 3068.549
241.1664, 3071.593
241.6485, 3073.790
242.1306, 3075.023
242.6127, 3075.371
243.0948, 3074.945
243.5770, 3073.313
244.0591, 3071.636
244.5412, 3070.409
245.0233, 3069.210
245.5054, 3069.597
245.9876, 3072.149
246.4697, 3076.298
246.9518, 3080.545
247.4339, 3086.066
247.9160, 3089.961
248.3981, 3090.266
248.8803, 3084.281
249.3624, 3081.169
249.8445, 3081.944
250.3266, 3085.403
250.8087, 3088.311
251.2908, 3090.130
251.7730, 3092.092
252.2551, 3094.838
252.7372, 3098.998
253.2193, 3102.218
253.7014, 3104.147
254.1835, 3105.241
254.6657, 3106.539
255.1478, 3108.221
255.6299, 3109.810
256.1120, 3111.204
256.5941, 3112.546
257.0763, 3113.195
257.5584, 3112.738
258.0405, 3111.907
258.5226, 3112.256
259.0047, 3114.392
259.4868, 3116.511
259.9690, 3117.813
260.4511, 3117.991
260.9332, 3118.736
261.4153, 3119.944
261.8974, 3121.812
262.3795, 3124.942
262.8617, 3130.205
263.3438, 3134.650
263.8259, 3137.019
264.3080, 3136.879
264.7901, 3137.617
265.2722, 3139.530
265.7544, 3141.927
266.2365, 3143.673
266.7186, 3144.399
267.2007, 3145.605
267.6828, 3148.220
268.1649, 3152.481
268.6471, 3154.324
269.1292, 3153.103
269.6113, 3150.573
270.0934, 3148.607
270.5755, 3147.001
271.0576, 3146.789
271.5398, 3148.687
272.0219, 3152.630
272.5040, 3155.607
272.9861, 3157.487
273.4682, 3158.625
273.9503, 3159.057
274.4325, 3158.501
274.9146, 3158.842
275.3967, 3160.899
275.8788, 3164.350
276.3610, 3166.217
276.8431, 3165.944
277.3252, 3165.722
277.8073, 3168.054
278.2894, 3173.260
278.7715, 3177.513
279.2537, 3179.969
279.7358, 3180.990
280.2179, 3182.093
280.7000, 3183.398
281.1821, 3184.404
281.6642, 3184.369
282.1464, 3183.294
282.6285, 3183.081
283.1106, 3184.160
283.5927, 3186.175
284.0748, 3188.182
284.5569, 3190.143
285.0391, 3192.231
285.5212, 3194.317
286.0033, 3196.434
286.4854, 3199.670
286.9675, 3204.559
287.4496, 3209.909
287.9318, 3213.205
288.4139, 3214.427
288.8960, 3215.135
289.3781, 3216.081
289.8602, 3217.293
290.3423, 3219.054
290.8245, 3221.637
291.3066, 3224.255
291.7887, 3225.371
292.2708, 3225.169
292.7529, 3225.108
293.2350, 3226.245
293.7172, 3228.188
294.1993, 3229.585
294.6814, 3230.306
295.1635, 3230.851
295.6456, 3231.244
296.1277, 3231.754
296.6099, 3233.626
297.0920, 3238.728
297.5741, 3245.253
298.0562, 3249.435
298.5383, 3251.067
299.0204, 3251.774
299.5026, 3252.669
299.9847, 3253.847
300.4668, 3255.608
300.9489, 3258.491
301.4311, 3261.819
301.9132, 3264.901
302.3953, 3267.757
302.8774, 3269.698
303.3595, 3269.187
303.8416, 3267.560
304.3238, 3267.203
304.8059, 3269.584
305.2880, 3272.892
305.7701, 3275.247
306.2522, 3276.805
306.7343, 3278.405
307.2165, 3280.636
307.6986, 3283.212
308.1807, 3285.745
308.6628, 3287.994
309.1449, 3290.395
309.6270, 3292.349
310.1092, 3294.497
310.5913, 3298.915
311.0734, 3310.819
311.5555, 3323.275
312.0376, 3329.458
312.5197, 3326.248
313.0019, 3321.833
313.4840, 3320.230
313.9661, 3320.741
314.4482, 3321.916
314.9303, 3324.239
315.4124, 3326.292
315.8946, 3326.769
316.3767, 3325.051
316.8588, 3324.337
317.3409, 3327.270
317.8230, 3331.675
318.3051, 3334.663
318.7873, 3333.535
319.2694, 3332.478
319.7515, 3333.453
320.2336, 3336.712
320.7157, 3339.848
321.1978, 3341.698
321.6800, 3343.301
322.1621, 3345.583
322.6442, 3349.967
323.1263, 3353.722
323.6084, 3355.712
324.0905, 3356.078
324.5727, 3357.235
325.0548, 3360.223
325.5369, 3363.674
326.0190, 3366.769
326.5012, 3369.726
326.9833, 3372.075
327.4654, 3373.406
327.9475, 3374.025
328.4296, 3375.078
328.9117, 3376.375
329.3939, 3378.274
329.8760, 3381.024
330.3581, 3385.587
330.8402, 3389.090
331.3223, 3390.786
331.8044, 3391.554
332.2866, 3393.269
332.7687, 3396.552
333.2508, 3399.676
333.7329, 3402.085
334.2150, 3403.664
334.6971, 3404.886
335.1793, 3405.700
335.6614, 3406.231
336.1435, 3406.510
336.6256, 3406.256
337.1077, 3406.788
337.5898, 3408.880
338.0720, 3412.487
338.5541, 3414.686
339.0362, 3415.200
339.5183, 3415.250
340.0004, 3416.117
340.4825, 3418.074
340.9647, 3419.152
341.4468, 3418.388
341.9289, 3416.865
342.4110, 3418.664
342.8931, 3424.204
343.3752, 3429.974
343.8574, 3432.897
344.3395, 3433.207
344.8216, 3435.158
345.3037, 3439.498
345.7858, 3444.780
346.2679, 3448.438
346.7501, 3450.549
347.2322, 3452.465
347.7143, 3454.762
348.1964, 3457.411
348.6785, 3460.619
349.1607, 3464.574
349.6428, 3468.228
350.1249, 3470.528
350.6070, 3471.638
351.0891, 3472.057
351.5713, 3471.626
352.0534, 3470.840
352.5355, 3470.055
353.0176, 3469.345
353.4997, 3469.624
353.9818, 3473.013
354.4640, 3477.574
354.9461, 3480.256
355.4282, 3479.365
355.9103, 3477.351
356.3924, 3475.625
356.8745, 3474.401
357.3567, 3474.509
357.8388, 3478.498
358.3209, 3482.879
358.8030, 3484.023
359.2851, 3479.673
359.7672, 3476.488
360.2494, 3479.304
360.7315, 3485.683
361.2136, 3491.065
361.6957, 3492.677
362.1778, 3493.761
362.6599, 3495.988
363.1421, 3499.631
363.6242, 3503.167
364.1063, 3506.683
364.5884, 3509.609
365.0705, 3511.333
365.5526, 3508.741
366.0348, 3507.995
366.5169, 3511.635
366.9990, 3519.323
367.4811, 3525.245
367.9632, 3528.063
368.4453, 3529.498
368.9275, 3530.458
369.4096, 3529.572
369.8917, 3530.163
370.3738, 3533.505
370.8559, 3538.333
371.3380, 3540.957
371.8202, 3539.873
372.3023, 3538.668
372.7844, 3538.684
373.2665, 3540.141
373.7487, 3542.050
374.2308, 3544.868
374.7129, 3547.708
375.1950, 3549.299
375.6771, 3549.288
376.1592, 3549.227
376.6414, 3549.591
377.1235, 3550.322
377.6056, 3550.626
378.0877, 3550.380
378.5698, 3550.211
379.0519, 3550.738
379.5341, 3551.977
380.0162, 3553.300
380.4983, 3554.636
380.9804, 3555.960
381.4625, 3556.934
381.9446, 3557.580
382.4268, 3558.718
382.9089, 3561.430
383.3910, 3565.070
383.8731, 3567.416
384.3552, 3568.065
384.8373, 3568.406
385.3195, 3570.411
385.8016, 3573.487
386.2837, 3575.941
386.7658, 3575.875
387.2479, 3575.301
387.7300, 3577.120
388.2122, 3581.246
388.6943, 3585.578
389.1764, 3588.844
389.6585, 3591.292
390.1406, 3593.050
390.6227, 3593.490
391.1049, 3594.202
391.5870, 3596.753
392.0691, 3600.509
392.5512, 3603.569
393.0333, 3604.580
393.5154, 3604.954
393.9976, 3605.446
394.4797, 3606.027
394.9618, 3607.207
395.4439, 3609.636
395.9260, 3612.632
396.4081, 3615.275
396.8903, 3617.204
397.3724, 3618.990
397.8545, 3620.662
398.3366, 3622.216
398.8188, 3624.242
399.3009, 3627.715
399.7830, 3631.052
400.2651, 3633.207
400.7472, 3632.979
401.2293, 3633.330
401.7115, 3634.407
402.1936, 3636.130
402.6757, 3638.332
403.1578, 3641.209
403.6399, 3644.210
404.1220, 3647.218
404.6042, 3650.390
405.0863, 3652.548
405.5684, 3653.359
406.0505, 3653.631
406.5326, 3654.407
407.0147, 3655.760
407.4969, 3657.131
407.9790, 3658.189
408.4611, 3659.230
408.9432, 3661.782
409.4253, 3666.016
409.9074, 3670.074
410.3896, 3672.388
410.8717, 3673.281
411.3538, 3674.011
411.8359, 3674.603
412.3180, 3675.493
412.8001, 3677.395
413.2823, 3680.134
413.7644, 3683.151
414.2465, 3686.636
414.7286, 3689.979
415.2107, 3692.136
415.6928, 3692.992
416.1750, 3693.943
416.6571, 3696.857
417.1392, 3700.246
417.6213, 3702.136
418.1034, 3700.267
418.5855, 3698.411
419.0677, 3698.609
419.5498, 3700.622
420.0319, 3703.524
420.5140, 3708.626
420.9961, 3713.352
421.4782, 3715.879
421.9604, 3714.948
422.4425, 3714.567
422.9246, 3715.874
423.4067, 3718.139
423.8889, 3720.384
424.3710, 3723.140
424.8531, 3725.169
425.3352, 3725.612
425.8173, 3724.456
426.2994, 3724.878
426.7816, 3727.244
427.2637, 3730.823
427.7458, 3735.481
428.2279, 3742.653
428.7100, 3747.317
429.1921, 3748.211
429.6743, 3747.010
430.1564, 3747.826
430.6385, 3751.292
431.1206, 3754.303
431.6027, 3754.890
432.0848, 3753.265
432.5670, 3754.711
433.0491, 3759.790
433.5312, 3765.712
434.0133, 3769.179
434.4954, 3770.656
434.9775, 3773.301
435.4597, 3778.246
435.9418, 3784.357
436.4239, 3789.304
436.9060, 3793.314
437.3881, 3798.070
437.8702, 3806.046
438.3524, 3814.877
438.8345, 3820.470
439.3166, 3821.846
439.7987, 3823.532
440.2808, 3829.568
440.7629, 3838.175
441.2451, 3846.532
441.7272, 3853.629
442.2093, 3860.046
442.6914, 3865.313
443.1735, 3869.777
443.6556, 3875.646
444.1378, 3885.320
444.6199, 3895.658
445.1020, 3904.541
445.5841, 3910.562
446.0662, 3917.374
446.5483, 3926.196
447.0305, 3936.023
447.5126, 3945.202
447.9947, 3953.227
448.4768, 3961.070
448.9590, 3968.833
449.4411, 3976.459
449.9232, 3984.554
450.4053, 3993.910
450.8874, 4002.590
451.3695, 4009.186
451.8517, 4013.675
452.3338, 4016.140
452.8159, 4016.548
453.2980, 4014.850
453.7801, 4010.560
454.2622, 4003.591
454.7444, 3995.600
455.2265, 3986.839
455.7086, 3977.627
456.1907, 3969.824
456.6728, 3963.427
457.1549, 3957.606
457.6371, 3951.663
458.1192, 3945.612
458.6013, 3939.226
459.0834, 3932.324
459.5655, 3925.441
460.0476, 3918.519
460.5298, 3911.979
461.0119, 3907.399
461.4940, 3907.193
461.9761, 3908.045
462.4582, 3906.943
462.9403, 3903.435
463.4225, 3900.975
463.9046, 3902.334
464.3867, 3904.953
464.8688, 3906.382
465.3509, 3905.078
465.8330, 3903.696
466.3152, 3902.529
466.7973, 3901.671
467.2794, 3901.403
467.7615, 3900.156
468.2436, 3901.105
468.7257, 3906.141
469.2079, 3916.733
469.6900, 3924.176
470.1721, 3927.147
470.6542, 3928.297
471.1363, 3930.372
471.6184, 3933.639
472.1006, 3936.723
472.5827, 3939.409
473.0648, 3941.743
473.5469, 3944.016
474.0291, 3946.295
474.5112, 3947.871
474.9933, 3947.764
475.4754, 3946.514
475.9575, 3946.296
476.4396, 3947.182
476.9218, 3949.222
477.4039, 3953.530
477.8860, 3959.001
478.3681, 3962.990
478.8502, 3964.234
479.3323, 3964.122
479.8145, 3963.250
480.2966, 3961.934
480.7787, 3961.433
481.2608, 3963.818
481.7429, 3966.170
482.2250, 3966.128
482.7072, 3962.973
483.1893, 3960.002
483.6714, 3958.639
484.1535, 3957.912
484.6356, 3956.850
485.1177, 3955.489
485.5999, 3953.659
486.0820, 3950.905
486.5641, 3947.667
487.0462, 3945.339
487.5283, 3943.712
488.0104, 3943.448
488.4926, 3945.532
488.9747, 3950.832
489.4568, 3952.414
489.9389, 3948.631
490.4210, 3944.085
490.9031, 3944.486
491.3853, 3950.151
491.8674, 3954.926
492.3495, 3957.359
492.8316, 3958.335
493.3137, 3959.613
493.7958, 3961.153
494.2780, 3962.781
494.7601, 3964.190
495.2422, 3965.621
495.7243, 3967.773
496.2064, 3970.728
496.6885, 3973.295
497.1707, 3974.052
497.6528, 3974.019
498.1349, 3974.623
498.6170, 3976.677
499.0992, 3978.850
499.5813, 3980.544
500.0634, 3981.818
500.5455, 3982.853
501.0276, 3982.710
501.5097, 3983.228
501.9919, 3985.674
502.4740, 3990.586
502.9561, 3994.062
503.4382, 3995.052
503.9203, 3995.110
504.4024, 3995.223
504.8846, 3995.266
505.3667, 3995.704
505.8488, 3996.841
506.3309, 3998.242
506.8130, 3998.771
507.2951, 3998.135
507.7773, 3998.017
508.2594, 3999.260
508.7415, 4001.589
509.2236, 4003.425
509.7057, 4004.748
510.1878, 4005.943
510.6700, 4007.177
511.1521, 4008.552
511.6342, 4010.692
512.1163, 4014.067
512.5984, 4016.829
513.0806, 4015.729
513.5627, 4012.595
514.0448, 4011.245
514.5269, 4015.219
515.0090, 4019.968
515.4911, 4022.333
515.9733, 4022.578
516.4554, 4022.815
516.9375, 4023.583
517.4196, 4024.737
517.9017, 4026.372
518.3839, 4029.157
518.8660, 4030.717
519.3481, 4029.277
519.8302, 4027.171
520.3123, 4027.023
520.7944, 4030.402
521.2766, 4032.957
521.7587, 4033.995
522.2408, 4033.815
522.7229, 4033.162
523.2050, 4031.693
523.6871, 4031.305
524.1693, 4033.716
524.6514, 4038.615
525.1335, 4041.811
525.6156, 4043.112
526.0977, 4044.162
526.5798, 4046.758
527.0620, 4050.475
527.5441, 4054.096
528.0262, 4057.465
528.5083, 4060.254
528.9904, 4061.327
529.4725, 4061.406
529.9547, 4062.315
530.4368, 4066.036
530.9189, 4069.892
531.4010, 4071.304
531.8831, 4070.279
532.3652, 4071.156
532.8474, 4077.761
533.3295, 4085.037
533.8116, 4089.923
534.2937, 4091.806
534.7758, 4091.569
535.2579, 4087.626
535.7401, 4082.465
536.2222, 4079.836
536.7043, 4080.659
537.1864, 4082.036
537.6685, 4083.704
538.1506, 4085.516
538.6328, 4085.970
539.1149, 4084.670
539.5970, 4084.846
540.0791, 4089.950
540.5612, 4098.592
541.0433, 4103.347
541.5255, 4103.624
542.0076, 4103.031
542.4897, 4105.112
542.9718, 4108.880
543.4539, 4112.464
543.9360, 4115.396
544.4182, 4117.708
544.9003, 4118.898
545.3824, 4119.392
545.8645, 4120.181
546.3466, 4121.664
546.8287, 4123.462
547.3109, 4125.230
547.7930, 4126.922
548.2751, 4129.424
548.7572, 4134.245
549.2393, 4138.849
549.7214, 4141.949
550.2036, 4143.457
550.6857, 4143.626
551.1678, 4141.773
551.6499, 4139.377
552.1320, 4138.790
552.6141, 4140.437
553.0963, 4141.215
553.5784, 4139.961
554.0605, 4137.828
554.5426, 4137.981
555.0247, 4140.331
555.5068, 4143.064
555.9890, 4144.773
556.4711, 4146.224
556.9532, 4148.980
557.4353, 4153.072
557.9174, 4157.192
558.3995, 4161.521
558.8817, 4164.733
559.3638, 4164.839
559.8459, 4159.033
560.3281, 4154.848
560.8102, 4156.542
561.2923, 4161.521
561.7744, 4165.710
562.2565, 4168.681
562.7386, 4170.436
563.2208, 4170.309
563.7029, 4168.740
564.1850, 4168.825
564.6671, 4171.451
565.1492, 4174.204
565.6313, 4175.819
566.1135, 4176.171
566.5956, 4176.844
567.0777, 4177.729
567.5598, 4179.284
568.0419, 4182.578
568.5240, 4187.133
569.0062, 4190.705
569.4883, 4192.714
569.9704, 4193.785
570.4525, 4194.466
570.9346, 4194.817
571.4167, 4194.951
571.8989, 4193.869
572.3810, 4193.490
572.8631, 4195.515
573.3452, 4199.656
573.8273, 4203.940
574.3094, 4208.753
574.7916, 4212.626
575.2737, 4214.431
575.7558, 4213.027
576.2379, 4212.908
576.7200, 4214.968
577.2021, 4217.660
577.6843, 4219.384
578.1664, 4219.159
578.6485, 4221.001
579.1306, 4226.122
579.6127, 4232.567
580.0948, 4236.728
580.5770, 4238.580
581.0591, 4238.920
581.5412, 4236.871
582.0233, 4234.157
582.5054, 4235.256
582.9875, 4239.688
583.4697, 4243.939
583.9518, 4245.080
584.4339, 4245.067
584.9160, 4246.162
585.3981, 4248.772
585.8802, 4251.179
586.3624, 4253.072
586.8445, 4254.122
587.3266, 4253.997
587.8087, 4249.594
588.2908, 4247.963
588.7729, 4252.604
589.2551, 4259.794
589.7372, 4263.069
590.2193, 4260.222
590.7014, 4257.675
591.1835, 4256.756
591.6656, 4257.338
592.1478, 4259.115
592.6299, 4262.135
593.1120, 4265.564
593.5941, 4269.279
594.0762, 4272.981
594.5583, 4275.466
595.0405, 4276.629
595.5226, 4277.478
596.0047, 4278.689
596.4868, 4280.236
596.9689, 4282.085
597.4510, 4284.246
597.9332, 4286.854
598.4153, 4291.254
598.8974, 4295.914
599.3795, 4298.653
599.8616, 4295.625
600.3438, 4294.327
600.8259, 4297.505
601.3080, 4304.081
601.7901, 4309.774
602.2722, 4313.810
602.7543, 4318.099
603.2365, 4323.278
603.7186, 4329.246
604.2007, 4335.777
604.6828, 4342.721
605.1649, 4350.175
605.6470, 4358.380
606.1292, 4367.060
606.6113, 4375.938
607.0934, 4384.967
607.5755, 4393.042
608.0576, 4397.296
608.5398, 4400.062
609.0219, 4405.448
609.5040, 4417.605
609.9861, 4428.966
610.4683, 4433.352
610.9504, 4434.114
611.4325, 4438.482
611.9146, 4451.582
612.3967, 4465.314
612.8788, 4477.272
613.3610, 4487.640
613.8431, 4499.586
614.3252, 4513.851
614.8073, 4528.436
615.2894, 4542.690
615.7715, 4556.530
616.2537, 4570.318
616.7358, 4584.205
617.2179, 4596.824
617.7000, 4606.429
618.1821, 4613.382
618.6642, 4619.117
619.1464, 4624.148
619.6285, 4627.047
620.1106, 4626.751
620.5927, 4623.225
621.0748, 4616.489
621.5569, 4604.408
622.0391, 4591.182
622.5212, 4578.289
623.0033, 4565.650
623.4854, 4552.946
623.9675, 4537.942
624.4496, 4525.368
624.9318, 4516.742
625.4139, 4512.079
625.8960, 4509.476
626.3781, 4509.681
626.8602, 4510.433
627.3423, 4509.753
627.8245, 4507.763
628.3066, 4509.314
628.7887, 4515.005
629.2708, 4520.925
629.7529, 4522.686
630.2350, 4521.525
630.7172, 4520.202
631.1993, 4519.002
631.6814, 4518.376
632.1635, 4519.734
632.6456, 4521.613
633.1277, 4521.745
633.6099, 4519.120
634.0920, 4514.860
634.5741, 4507.376
635.0562, 4498.244
635.5383, 4493.208
636.0204, 4495.889
636.5026, 4497.714
636.9847, 4495.420
637.4668, 4489.496
637.9489, 4487.373
638.4310, 4489.880
638.9131, 4492.651
639.3953, 4492.205
639.8774, 4489.436
640.3595, 4488.194
640.8416, 4488.638
641.3237, 4490.615
641.8058, 4495.152
642.2880, 4500.668
642.7701, 4504.907
643.2522, 4507.398
643.7343, 4508.519
644.2164, 4508.190
644.6985, 4506.686
645.1807, 4504.386
645.6628, 4502.366
646.1449, 4498.182
646.6270, 4490.274
647.1091, 4480.292
647.5912, 4472.908
648.0734, 4469.233
648.5555, 4464.804
649.0376, 4457.501
649.5197, 4448.383
650.0018, 4442.628
650.4839, 4440.144
650.9661, 4437.950
651.4482, 4433.120
651.9303, 4427.644
652.4124, 4425.083
652.8945, 4425.575
653.3766, 4427.340
653.8588, 4430.743
654.3409, 4433.990
654.8230, 4435.330
655.3051, 4433.569
655.7872, 4432.492
656.2693, 4433.186
656.7515, 4434.769
657.2336, 4436.287
657.7158, 4437.042
658.1979, 4439.260
658.6800, 4443.635
659.1621, 4448.796
659.6442, 4452.140
660.1263, 4453.575
660.6085, 4455.373
661.0906, 4458.694
661.5727, 4462.041
662.0548, 4462.045
662.5369, 4459.587
663.0190, 4458.069
663.5012, 4461.086
663.9833, 4464.442
664.4654, 4464.573
664.9475, 4461.844
665.4296, 4459.459
665.9117, 4457.819
666.3939, 4457.495
666.8760, 4459.356
667.3581, 4463.950
667.8402, 4467.281
668.3223, 4468.895
668.8044, 4470.119
669.2866, 4472.333
669.7687, 4475.654
670.2508, 4476.224
670.7329, 4473.251
671.2150, 4469.832
671.6971, 4469.061
672.1793, 4470.505
672.6614, 4473.418
673.1435, 4478.183
673.6256, 4482.710
674.1077, 4485.259
674.5898, 4486.509
675.0720, 4487.513
675.5541, 4488.627
676.0362, 4489.554
676.5183, 4490.467
677.0004, 4491.177
677.4825, 4490.976
677.9647, 4488.900
678.4468, 4488.083
678.9289, 4490.046
679.4110, 4493.968
679.8931, 4495.289
680.3752, 4493.839
680.8574, 4493.065
681.3395, 4495.841
681.8216, 4500.427
682.3037, 4502.685
682.7858, 4502.767
683.2679, 4503.313
683.7501, 4507.105
684.2322, 4511.388
684.7143, 4513.743
685.1964, 4513.509
685.6785, 4513.269
686.1606, 4512.641
686.6428, 4512.948
687.1249, 4515.297
687.6070, 4521.337
688.0891, 4525.614
688.5712, 4527.803
689.0533, 4528.860
689.5355, 4529.592
690.0176, 4530.089
690.4997, 4531.469
690.9818, 4534.087
691.4639, 4537.365
691.9460, 4541.326
692.4282, 4545.242
692.9103, 4547.341
693.3924, 4544.836
693.8745, 4542.769
694.3566, 4543.805
694.8387, 4547.409
695.3209, 4552.375
695.8030, 4559.938
696.2851, 4567.028
696.7672, 4573.138
697.2493, 4578.234
697.7314, 4581.592
698.2136, 4582.350
698.6957, 4584.221
699.1778, 4589.848
699.6599, 4597.895
700.1420, 4602.111
700.6241, 4602.671
701.1063, 4601.951
701.5884, 4601.106
702.0705, 4600.244
702.5526, 4599.281
703.0347, 4598.236
703.5168, 4597.936
703.9990, 4599.610
704.4811, 4601.607
704.9632, 4602.796
705.4453, 4602.911
705.9274, 4602.595
706.4095, 4601.914
706.8917, 4600.720
707.3738, 4598.455
707.8560, 4594.868
708.3381, 4593.311
708.8202, 4594.492
709.3023, 4596.201
709.7844, 4595.208
710.2665, 4592.484
710.7487, 4590.597
711.2308, 4590.000
711.7129, 4590.972
712.1950, 4595.258
712.6771, 4600.858
713.1592, 4604.758
713.6414, 4604.730
714.1235, 4604.338
714.6056, 4602.878
715.0877, 4601.823
715.5698, 4604.950
716.0519, 4615.110
716.5341, 4621.628
717.0162, 4620.943
717.4983, 4615.529
717.9804, 4611.485
718.4625, 4608.854
718.9446, 4608.868
719.4268, 4614.379
719.9089, 4621.320
720.3910, 4624.414
720.8731, 4624.214
721.3552, 4623.189
721.8373, 4621.386
722.3195, 4620.175
722.8016, 4620.626
723.2837, 4622.826
723.7658, 4624.646
724.2479, 4625.937
724.7300, 4626.985
725.2122, 4627.903
725.6943, 4628.701
726.1764, 4629.124
726.6585, 4628.988
727.1406, 4629.697
727.6227, 4633.750
728.1049, 4639.234
728.5870, 4641.120
729.0691, 4638.933
729.5512, 4636.193
730.0333, 4634.788
730.5154, 4634.359
730.9976, 4634.519
731.4797, 4634.923
731.9618, 4636.761
732.4439, 4642.289
732.9260, 4647.888
733.4081, 4650.510
733.8903, 4648.694
734.3724, 4649.132
734.8545, 4652.765
735.3366, 4657.236
735.8187, 4659.173
736.3008, 4659.194
736.7830, 4660.263
737.2651, 4663.185
737.7472, 4666.621
738.2293, 4669.096
738.7114, 4671.224
739.1935, 4673.954
739.6757, 4679.508
740.1578, 4683.165
740.6399, 4681.821
741.1220, 4678.174
741.6041, 4677.042
742.0862, 4679.823
742.5684, 4681.833
743.0505, 4682.033
743.5326, 4681.308
744.0147, 4681.604
744.4968, 4682.867
744.9789, 4684.516
745.4611, 4686.521
745.9432, 4688.608
746.4253, 4691.154
746.9074, 4693.580
747.3895, 4694.305
747.8716, 4691.483
748.3538, 4688.115
748.8359, 4684.850
749.3180, 4682.071
749.8001, 4681.186
750.2822, 4682.662
750.7643, 4685.521
751.2465, 4690.396
751.7286, 4696.377
752.2107, 4698.250
752.6928, 4695.962
753.1749, 4693.257
753.6570, 4691.124
754.1392, 4690.376
754.6213, 4693.461
755.1034, 4699.654
755.5855, 4704.828
756.0676, 4705.277
756.5498, 4705.234
757.0319, 4707.415
757.5140, 4711.985
757.9962, 4715.514
758.4783, 4716.932
758.9604, 4718.389
759.4425, 4721.045
759.9246, 4724.796
760.4067, 4727.054
760.8889, 4727.565
761.3710, 4728.725
761.8531, 4733.921
762.3352, 4740.518
762.8173, 4743.328
763.2994, 4742.182
763.7816, 4739.721
764.2637, 4735.776
764.7458, 4732.535
765.2279, 4732.255
765.7100, 4736.167
766.1921, 4738.017
766.6743, 4735.790
767.1564, 4733.610
767.6385, 4734.658
768.1206, 4739.581
768.6027, 4741.067
769.0848, 4738.501
769.5670, 4735.796
770.0491, 4736.759
770.5312, 4740.056
771.0133, 4743.287
771.4954, 4746.168
771.9775, 4748.489
772.4597, 4748.627
772.9418, 4749.017
773.4239, 4752.226
773.9060, 4761.154
774.3881, 4766.140
774.8702, 4765.122
775.3524, 4762.183
775.8345, 4760.502
776.3166, 4760.167
776.7987, 4760.824
777.2808, 4762.631
777.7629, 4764.713
778.2451, 4765.506
778.7272, 4766.018
779.2093, 4768.776
779.6914, 4774.950
780.1735, 4780.083
780.6556, 4780.122
781.1378, 4778.481
781.6199, 4778.472
782.1020, 4781.715
782.5841, 4784.743
783.0662, 4787.695
783.5483, 4790.179
784.0305, 4791.477
784.5126, 4791.517
784.9947, 4792.455
785.4768, 4794.846
785.9589, 4796.762
786.4410, 4795.247
786.9232, 4791.841
787.4053, 4789.181
787.8874, 4787.790
788.3695, 4787.592
788.8516, 4788.341
789.3337, 4790.330
789.8159, 4794.139
790.2980, 4802.989
790.7801, 4807.589
791.2622, 4806.136
791.7443, 4802.380
792.2264, 4800.742
792.7086, 4801.177
793.1907, 4804.197
793.6728, 4810.756
794.1549, 4816.480
794.6370, 4814.765
795.1191, 4809.426
795.6013, 4806.894
796.0834, 4810.781
796.5655, 4813.978
797.0476, 4812.408
797.5297, 4809.588
798.0118, 4809.992
798.4940, 4815.800
798.9761, 4819.799
799.4582, 4821.040
799.9403, 4821.129
800.4224, 4822.146
800.9045, 4823.960
801.3867, 4825.911
801.8688, 4827.891
802.3509, 4829.764
802.8330, 4831.585
803.3151, 4833.103
803.7972, 4833.893
804.2794, 4833.081
804.7615, 4832.799
805.2436, 4832.806
805.7258, 4833.963
806.2079, 4837.563
806.6900, 4844.435
807.1721, 4850.881
807.6542, 4856.982
808.1364, 4861.228
808.6185, 4860.705
809.1006, 4856.606
809.5827, 4852.043
810.0648, 4847.087
810.5469, 4843.906
811.0291, 4845.250
811.5112, 4848.745
811.9933, 4851.646
812.4754, 4852.948
812.9575, 4854.362
813.4396, 4856.596
813.9218, 4858.397
814.4039, 4857.870
814.8860, 4854.808
815.3681, 4853.429
815.8502, 4854.526
816.3323, 4856.063
816.8145, 4855.479
817.2966, 4853.728
817.7787, 4852.053
818.2608, 4850.044
818.7429, 4850.618
819.2250, 4857.822
819.7072, 4866.813
820.1893, 4872.663
820.6714, 4873.426
821.1535, 4874.898
821.6356, 4877.535
822.1177, 4879.999
822.5999, 4880.089
823.0820, 4878.350
823.5641, 4879.060
824.0462, 4882.981
824.5283, 4886.791
825.0104, 4886.089
825.4926, 4884.147
825.9747, 4885.018
826.4568, 4890.424
826.9389, 4895.149
827.4210, 4897.757
827.9031, 4899.431
828.3853, 4900.689
828.8674, 4901.144
829.3495, 4903.333
829.8316, 4907.651
830.3137, 4911.991
830.7958, 4914.650
831.2780, 4915.710
831.7601, 4914.979
832.2422, 4912.417
832.7243, 4909.536
833.2064, 4905.359
833.6885, 4902.720
834.1707, 4904.938
834.6528, 4914.805
835.1349, 4918.611
835.6170, 4913.014
836.0991, 4907.096
836.5812, 4907.034
837.0634, 4912.441
837.5455, 4918.290
838.0276, 4924.611
838.5097, 4929.500
838.9918, 4929.710
839.4739, 4928.841
839.9561, 4931.348
840.4382, 4937.425
840.9203, 4942.335
841.4024, 4945.076
841.8845, 4945.507
842.3666, 4942.707
842.8488, 4936.799
843.3309, 4934.822
843.8130, 4937.483
844.2951, 4940.331
844.7772, 4940.478
845.2593, 4939.120
845.7415, 4939.101
846.2236, 4940.206
846.7057, 4941.082
847.1878, 4940.330
847.6699, 4939.807
848.1520, 4941.013
848.6342, 4943.685
849.1163, 4944.987
849.5984, 4943.235
850.0805, 4943.411
850.5626, 4947.928
851.0447, 4955.019
851.5269, 4958.909
852.0090, 4959.811
852.4911, 4959.621
852.9732, 4956.747
853.4553, 4955.546
853.9374, 4961.981
854.4196, 4973.149
854.9017, 4981.953
855.3839, 4986.303
855.8660, 4987.764
856.3481, 4986.245
856.8302, 4982.391
857.3123, 4976.577
857.7944, 4968.371
858.2766, 4964.099
858.7587, 4966.377
859.2408, 4971.050
859.7229, 4972.575
860.2050, 4971.910
860.6871, 4970.856
861.1693, 4969.357
861.6514, 4968.746
862.1335, 4970.388
862.6156, 4972.907
863.0977, 4974.296
863.5798, 4973.860
864.0620, 4974.282
864.5441, 4975.743
865.0262, 4978.104
865.5083, 4981.838
865.9904, 4986.321
866.4725, 4989.838
866.9547, 4992.111
867.4368, 4993.136
867.9189, 4991.304
868.4010, 4989.142
868.8831, 4989.060
869.3652, 4992.183
869.8474, 4995.631
870.3295, 5000.200
870.8116, 5003.813
871.2937, 5004.130
871.7758, 5001.586
872.2579, 5001.063
872.7401, 5002.745
873.2222, 5004.645
873.7043, 5004.744
874.1864, 5004.597
874.6685, 5006.080
875.1506, 5009.364
875.6328, 5011.779
876.1149, 5012.373
876.5970, 5012.163
877.0791, 5011.005
877.5612, 5009.146
878.0433, 5009.501
878.5255, 5012.142
879.0076, 5015.040
879.4897, 5016.338
879.9718, 5017.636
880.4539, 5022.577
880.9360, 5029.727
881.4182, 5034.081
881.9003, 5029.836
882.3824, 5026.589
882.8645, 5028.739
883.3466, 5034.104
883.8287, 5037.201
884.3109, 5037.686
884.7930, 5037.481
885.2751, 5036.582
885.7572, 5036.057
886.2393, 5038.388
886.7214, 5042.480
887.2036, 5045.513
887.6857, 5044.818
888.1678, 5045.669
888.6499, 5054.326
889.1320, 5064.049
889.6141, 5065.239
890.0963, 5052.305
890.5784, 5046.573
891.0605, 5051.357
891.5426, 5058.695
892.0247, 5058.935
892.5068, 5054.281
892.9890, 5050.658
893.4711, 5048.831
893.9532, 5049.517
894.4353, 5055.915
894.9174, 5063.188
895.3995, 5067.134
895.8817, 5066.271
896.3638, 5066.735
896.8459, 5068.717
897.3280, 5071.527
897.8101, 5074.810
898.2922, 5078.502
898.7744, 5082.247
899.2565, 5086.014
899.7386, 5090.036
900.2207, 5095.601
900.7028, 5100.441
901.1849, 5102.626
901.6671, 5102.352
902.1492, 5101.705
902.6313, 5099.676
903.1134, 5099.717
903.5955, 5104.065
904.0776, 5110.204
904.5598, 5109.956
905.0419, 5104.260
905.5240, 5100.341
906.0062, 5101.618
906.4883, 5104.666
906.9704, 5106.917
907.4525, 5108.763
907.9346, 5110.833
908.4167, 5113.133
908.8989, 5116.030
909.3810, 5120.473
909.8631, 5124.376
910.3452, 5123.866
910.8273, 5119.412
911.3094, 5119.087
911.7916, 5124.206
912.2737, 5130.386
912.7558, 5134.999
913.2379, 5137.644
913.7200, 5136.851
914.2021, 5131.165
914.6843, 5129.365
915.1664, 5136.209
915.6485, 5142.871
916.1306, 5144.198
916.6127, 5140.623
917.0948, 5139.419
917.5770, 5140.589
918.0591, 5142.351
918.5412, 5143.899
919.0233, 5145.195
919.5054, 5146.154
919.9875, 5146.787
920.4697, 5147.240
920.9518, 5147.579
921.4339, 5147.531
921.9160, 5146.417
922.3981, 5145.170
922.8802, 5147.014
923.3624, 5151.757
923.8445, 5154.197
924.3266, 5151.959
924.8087, 5149.001
925.2908, 5150.521
925.7729, 5153.890
926.2551, 5155.113
926.7372, 5150.832
927.2193, 5148.776
927.7014, 5151.097
928.1835, 5154.586
928.6656, 5156.724
929.1478, 5157.576
929.6299, 5155.883
930.1120, 5151.398
930.5941, 5148.701
931.0762, 5154.017
931.5583, 5161.789
932.0405, 5165.061
932.5226, 5163.257
933.0047, 5164.847
933.4868, 5175.195
933.9689, 5184.929
934.4510, 5190.948
934.9332, 5193.594
935.4153, 5193.392
935.8974, 5190.486
936.3795, 5189.533
936.8616, 5193.999
937.3438, 5199.720
937.8259, 5202.297
938.3080, 5202.992
938.7901, 5204.305
939.2722, 5208.950
939.7543, 5211.175
940.2365, 5209.111
940.7186, 5205.943
941.2007, 5206.672
941.6828, 5210.899
942.1649, 5213.370
942.6470, 5213.259
943.1292, 5212.757
943.6113, 5213.932
944.0934, 5215.723
944.5755, 5217.133
945.0576, 5217.998
945.5397, 5218.849
946.0219, 5220.082
946.5040, 5220.849
946.9861, 5220.786
947.4682, 5219.894
947.9503, 5217.525
948.4324, 5213.950
948.9146, 5211.575
949.3967, 5212.144
949.8788, 5214.114
950.3609, 5216.987
950.8430, 5220.371
951.3251, 5223.162
951.8073, 5225.861
952.2894, 5226.652
952.7715, 5224.355
953.2536, 5221.474
953.7357, 5223.001
954.2179, 5227.700
954.7000, 5230.261
955.1821, 5229.117
955.6642, 5228.100
956.1464, 5230.632
956.6285, 5234.046
957.1106, 5235.765
957.5927, 5235.042
958.0748, 5234.990
958.5569, 5235.407
959.0391, 5236.894
959.5212, 5240.829
960.0033, 5245.894
960.4854, 5247.516
960.9675, 5246.299
961.4496, 5245.846
961.9318, 5248.755
962.4139, 5252.183
962.8960, 5254.337
963.3781, 5255.976
963.8602, 5259.786
964.3423, 5266.972
964.8245, 5271.196
965.3066, 5270.846
965.7887, 5268.270
966.2708, 5264.655
966.7529, 5261.885
967.2350, 5264.522
967.7172, 5275.717
968.1993, 5284.800
968.6814, 5286.048
969.1635, 5285.146
969.6456, 5285.615
970.1277, 5287.364
970.6099, 5291.100
971.0920, 5296.760
971.5741, 5303.938
972.0562, 5313.606
972.5383, 5323.585
973.0204, 5330.133
973.5026, 5334.290
973.9847, 5340.717
974.4668, 5352.668
974.9489, 5364.762
975.4310, 5375.443
975.9131, 5386.065
976.3953, 5399.284
976.8774, 5415.182
977.3595, 5432.644
977.8416, 5450.964
978.3237, 5472.272
978.8058, 5501.322
979.2880, 5533.134
979.7701, 5561.633
980.2522, 5583.142
980.7343, 5610.854
981.2164, 5645.424
981.6985, 5686.286
982.1807, 5735.508
982.6628, 5791.027
983.1449, 5842.431
983.6270, 5890.818
984.1091, 5943.283
984.5912, 6002.919
985.0734, 6068.656
985.5555, 6142.454
986.0376, 6222.245
986.5197, 6301.093
987.0018, 6375.368
987.4839, 6461.228
987.9661, 6562.600
988.4482, 6672.628
988.9303, 6783.698
989.4124, 6895.061
989.8945, 7006.324
990.3766, 7118.991
990.8588, 7221.263
991.3409, 7311.886
991.8230, 7386.724
992.3051, 7446.266
992.7872, 7489.443
993.2693, 7509.847
993.7515, 7507.531
994.2336, 7480.210
994.7157, 7423.808
995.1978, 7344.004
995.6799, 7240.611
996.1620, 7118.273
996.6442, 6989.403
997.1263, 6848.340
997.6084, 6713.530
998.0905, 6584.507
998.5726, 6465.163
999.0547, 6359.220
999.5369, 6265.683
1000.019, 6181.589
1000.501, 6106.694
1000.983, 6039.123
1001.465, 5975.672
1001.947, 5919.558
1002.430, 5875.370
1002.912, 5843.185
1003.394, 5813.164
1003.876, 5783.833
1004.358, 5760.829
1004.840, 5746.724
1005.322, 5739.030
1005.804, 5733.871
1006.287, 5730.861
1006.769, 5728.917
1007.251, 5727.726
1007.733, 5727.464
1008.215, 5730.035
1008.697, 5732.158
1009.179, 5731.209
1009.661, 5727.215
1010.143, 5719.365
1010.626, 5707.464
1011.108, 5692.099
1011.590, 5671.725
1012.072, 5649.486
1012.554, 5627.877
1013.036, 5607.143
1013.518, 5587.144
1014.000, 5568.397
1014.483, 5549.303
1014.965, 5528.914
1015.447, 5508.971
1015.929, 5492.729
1016.411, 5479.690
1016.893, 5467.937
1017.375, 5456.657
1017.857, 5447.354
1018.339, 5441.407
1018.822, 5437.510
1019.304, 5434.394
1019.786, 5431.865
1020.268, 5431.073
1020.750, 5432.361
1021.232, 5432.827
1021.714, 5428.753
1022.196, 5423.787
1022.679, 5425.349
1023.161, 5430.876
1023.643, 5433.042
1024.125, 5424.562
1024.607, 5419.016
1025.089, 5419.482
1025.571, 5422.851
1026.053, 5424.911
1026.535, 5425.903
1027.018, 5427.983
1027.500, 5431.557
1027.982, 5434.226
1028.464, 5434.033
1028.946, 5432.317
1029.428, 5428.908
1029.910, 5424.026
1030.392, 5424.200
1030.875, 5431.394
1031.357, 5436.142
1031.839, 5433.993
1032.321, 5429.151
1032.803, 5427.910
1033.285, 5429.918
1033.767, 5435.024
1034.249, 5446.645
1034.731, 5454.184
1035.214, 5452.561
1035.696, 5448.454
1036.178, 5446.281
1036.660, 5446.075
1037.142, 5447.271
1037.624, 5449.821
1038.106, 5452.419
1038.588, 5454.539
1039.071, 5456.097
1039.553, 5456.074
1040.035, 5455.475
1040.517, 5457.525
1040.999, 5462.937
1041.481, 5469.574
1041.963, 5477.620
1042.445, 5485.597
1042.927, 5491.221
1043.410, 5495.526
1043.892, 5500.367
1044.374, 5506.013
1044.856, 5512.579
1045.338, 5521.921
1045.820, 5529.958
1046.302, 5533.116
1046.784, 5533.471
1047.266, 5543.472
1047.749, 5562.322
1048.231, 5580.177
1048.713, 5592.350
1049.195, 5603.153
1049.677, 5615.448
1050.159, 5628.827
1050.641, 5642.679
1051.123, 5656.007
1051.606, 5672.882
1052.088, 5694.106
1052.570, 5716.388
1053.052, 5736.620
1053.534, 5756.952
1054.016, 5781.626
1054.498, 5810.303
1054.980, 5840.782
1055.463, 5869.467
1055.945, 5903.954
1056.427, 5946.592
1056.909, 5994.156
1057.391, 6041.789
1057.873, 6089.437
1058.355, 6137.405
1058.837, 6185.952
1059.319, 6232.611
1059.802, 6274.951
1060.284, 6313.870
1060.766, 6350.984
1061.248, 6385.992
1061.730, 6411.208
1062.212, 6425.924
1062.694, 6434.827
1063.176, 6439.792
1063.658, 6439.391
1064.141, 6428.166
1064.623, 6411.084
1065.105, 6396.906
1065.587, 6391.672
1066.069, 6381.470
1066.551, 6368.990
1067.033, 6345.264
1067.515, 6302.375
1067.998, 6242.217
1068.480, 6175.986
1068.962, 6103.654
1069.444, 6026.302
1069.926, 5935.385
1070.408, 5850.237
1070.890, 5781.048
1071.372, 5724.912
1071.854, 5679.463
1072.337, 5645.632
1072.819, 5617.866
1073.301, 5596.038
1073.783, 5579.499
1074.265, 5570.099
1074.747, 5564.369
1075.229, 5559.170
1075.711, 5554.362
1076.193, 5550.874
1076.676, 5549.469
1077.158, 5547.374
1077.640, 5543.298
1078.122, 5539.165
1078.604, 5538.509
1079.086, 5540.283
1079.568, 5542.734
1080.051, 5546.060
1080.533, 5547.476
1081.015, 5544.406
1081.497, 5540.735
1081.979, 5537.940
1082.461, 5536.221
1082.943, 5537.037
1083.425, 5540.137
1083.907, 5543.318
1084.390, 5544.914
1084.872, 5547.214
1085.354, 5552.322
1085.836, 5558.632
1086.318, 5564.257
1086.800, 5569.210
1087.282, 5572.763
1087.764, 5574.732
1088.246, 5576.242
1088.729, 5577.104
1089.211, 5578.686
1089.693, 5582.705
1090.175, 5588.845
1090.657, 5595.986
1091.139, 5605.807
1091.621, 5612.651
1092.103, 5614.673
1092.586, 5615.868
1093.068, 5622.653
1093.550, 5632.514
1094.032, 5639.149
1094.514, 5641.830
1094.996, 5645.809
1095.478, 5654.724
1095.960, 5663.897
1096.443, 5671.761
1096.925, 5678.484
1097.407, 5684.118
1097.889, 5689.002
1098.371, 5695.603
1098.853, 5705.073
1099.335, 5714.673
1099.817, 5724.388
1100.299, 5731.865
1100.781, 5734.869
1101.264, 5733.462
1101.746, 5729.481
1102.228, 5722.661
1102.710, 5716.463
1103.192, 5713.238
1103.674, 5710.739
1104.156, 5705.865
1104.638, 5700.240
1105.121, 5696.675
1105.603, 5699.254
1106.085, 5696.039
1106.567, 5684.897
1107.049, 5674.202
1107.531, 5671.521
1108.013, 5673.592
1108.495, 5673.859
1108.978, 5672.776
1109.460, 5672.665
1109.942, 5674.882
1110.424, 5677.507
1110.906, 5680.678
1111.388, 5683.291
1111.870, 5682.959
1112.352, 5680.664
1112.834, 5681.296
1113.317, 5685.144
1113.799, 5688.719
1114.281, 5689.450
1114.763, 5689.961
1115.245, 5691.917
1115.727, 5694.477
1116.209, 5695.028
1116.691, 5693.724
1117.173, 5693.775
1117.656, 5696.064
1118.138, 5699.192
1118.620, 5703.084
1119.102, 5706.528
1119.584, 5708.713
1120.066, 5709.599
1120.548, 5707.226
1121.030, 5700.678
1121.513, 5697.602
1121.995, 5702.634
1122.477, 5708.578
1122.959, 5704.845
1123.441, 5697.085
1123.923, 5693.623
1124.405, 5698.425
1124.887, 5699.719
1125.370, 5695.491
1125.852, 5692.969
1126.334, 5697.888
1126.816, 5706.368
1127.298, 5711.028
1127.780, 5712.592
1128.262, 5712.662
1128.744, 5709.644
1129.226, 5708.584
1129.709, 5711.439
1130.191, 5713.894
1130.673, 5711.223
1131.155, 5705.006
1131.637, 5701.154
1132.119, 5699.600
1132.601, 5699.275
1133.083, 5699.768
1133.566, 5701.311
1134.048, 5705.527
1134.530, 5709.442
1135.012, 5708.219
1135.494, 5702.469
1135.976, 5698.308
1136.458, 5696.287
1136.940, 5695.843
1137.422, 5698.392
1137.905, 5700.698
1138.387, 5700.736
1138.869, 5699.128
1139.351, 5696.391
1139.833, 5692.320
1140.315, 5693.329
1140.797, 5701.375
1141.279, 5708.920
1141.761, 5708.307
1142.244, 5704.935
1142.726, 5702.856
1143.208, 5702.415
1143.690, 5703.738
1144.172, 5707.117
1144.654, 5710.368
1145.136, 5712.950
1145.618, 5714.542
1146.101, 5712.953
1146.583, 5710.993
1147.065, 5712.649
1147.547, 5719.560
1148.029, 5724.190
1148.511, 5726.419
1148.993, 5726.082
1149.475, 5722.157
1149.958, 5717.014
1150.440, 5713.630
1150.922, 5712.183
1151.404, 5713.387
1151.886, 5720.239
1152.368, 5722.656
1152.850, 5718.919
1153.332, 5713.587
1153.814, 5708.837
1154.297, 5704.978
1154.779, 5702.525
1155.261, 5701.549
1155.743, 5702.283
1156.225, 5707.170
1156.707, 5710.022
1157.189, 5709.061
1157.671, 5707.494
1158.153, 5708.058
1158.636, 5710.261
1159.118, 5712.740
1159.600, 5715.189
1160.082, 5716.446
1160.564, 5714.273
1161.046, 5713.055
1161.528, 5714.732
1162.010, 5717.134
1162.493, 5717.351
1162.975, 5715.904
1163.457, 5716.125
1163.939, 5718.179
1164.421, 5721.592
1164.903, 5728.628
1165.385, 5734.025
1165.867, 5735.031
1166.349, 5733.164
1166.832, 5729.533
1167.314, 5724.459
1167.796, 5723.791
1168.278, 5728.194
1168.760, 5732.399
1169.242, 5730.768
1169.724, 5729.717
1170.206, 5735.116
1170.688, 5743.638
1171.171, 5746.594
1171.653, 5744.108
1172.135, 5741.502
1172.617, 5739.555
1173.099, 5739.534
1173.581, 5745.236
1174.063, 5750.983
1174.545, 5750.996
1175.028, 5746.946
1175.510, 5747.754
1175.992, 5753.751
1176.474, 5756.128
1176.956, 5751.962
1177.438, 5746.377
1177.920, 5743.263
1178.402, 5741.651
1178.885, 5740.619
1179.367, 5740.114
1179.849, 5741.860
1180.331, 5746.331
1180.813, 5747.894
1181.295, 5743.309
1181.777, 5738.632
1182.259, 5741.384
1182.741, 5746.854
1183.224, 5749.439
1183.706, 5748.280
1184.188, 5749.622
1184.670, 5753.808
1185.152, 5758.247
1185.634, 5761.824
1186.116, 5764.899
1186.598, 5767.833
1187.081, 5770.445
1187.563, 5772.595
1188.045, 5774.562
1188.527, 5773.629
1189.009, 5768.986
1189.491, 5765.920
1189.973, 5768.041
1190.455, 5772.371
1190.938, 5776.420
1191.420, 5779.742
1191.902, 5781.646
1192.384, 5782.276
1192.866, 5780.287
1193.348, 5774.878
1193.830, 5771.055
1194.312, 5772.890
1194.794, 5777.521
1195.276, 5782.646
1195.759, 5787.458
1196.241, 5790.045
1196.723, 5789.011
1197.205, 5788.269
1197.687, 5787.648
1198.169, 5788.104
1198.651, 5792.133
1199.133, 5796.331
1199.616, 5795.106
1200.098, 5790.426
1200.580, 5787.394
1201.062, 5787.616
1201.544, 5787.345
1202.026, 5786.151
1202.508, 5785.448
1202.990, 5786.239
1203.473, 5788.386
1203.955, 5792.951
1204.437, 5798.762
1204.919, 5802.113
1205.401, 5802.167
1205.883, 5800.408
1206.365, 5796.405
1206.847, 5792.829
1207.329, 5793.460
1207.812, 5795.206
1208.294, 5793.550
1208.776, 5789.322
1209.258, 5786.631
1209.740, 5785.717
1210.222, 5787.322
1210.704, 5792.254
1211.186, 5797.061
1211.668, 5796.904
1212.151, 5795.572
1212.633, 5798.693
1213.115, 5805.449
1213.597, 5809.439
1214.079, 5809.405
1214.561, 5808.599
1215.043, 5807.052
1215.525, 5806.467
1216.008, 5810.934
1216.490, 5815.799
1216.972, 5813.366
1217.454, 5804.924
1217.936, 5803.075
1218.418, 5810.374
1218.900, 5817.437
1219.382, 5823.015
1219.865, 5826.743
1220.347, 5827.338
1220.829, 5826.532
1221.311, 5825.895
1221.793, 5825.706
1222.275, 5826.626
1222.757, 5829.077
1223.239, 5831.271
1223.721, 5832.982
1224.203, 5834.037
1224.686, 5834.045
1225.168, 5833.484
1225.650, 5832.367
1226.132, 5830.983
1226.614, 5831.413
1227.096, 5833.985
1227.578, 5836.599
1228.061, 5838.766
1228.543, 5840.915
1229.025, 5843.670
1229.507, 5846.415
1229.989, 5848.406
1230.471, 5849.671
1230.953, 5851.146
1231.435, 5852.810
1231.917, 5854.661
1232.400, 5856.819
1232.882, 5858.416
1233.364, 5858.807
1233.846, 5858.125
1234.328, 5856.194
1234.810, 5853.250
1235.292, 5849.507
1235.774, 5844.810
1236.256, 5846.184
1236.739, 5857.178
1237.221, 5865.112
1237.703, 5853.479
1238.185, 5839.338
1238.667, 5838.421
1239.149, 5847.422
1239.631, 5851.413
1240.113, 5850.534
1240.596, 5849.493
1241.078, 5849.261
1241.560, 5849.872
1242.042, 5850.697
1242.524, 5853.021
1243.006, 5858.621
1243.488, 5866.013
1243.970, 5869.514
1244.453, 5869.500
1244.935, 5868.795
1245.417, 5867.676
1245.899, 5868.138
1246.381, 5872.975
1246.863, 5878.146
1247.345, 5881.386
1247.827, 5883.289
1248.309, 5885.842
1248.792, 5888.691
1249.274, 5889.896
1249.756, 5888.716
1250.238, 5887.936
1250.720, 5891.674
1251.202, 5892.401
1251.684, 5884.965
1252.166, 5874.353
1252.648, 5874.850
1253.131, 5882.867
1253.613, 5887.732
1254.095, 5886.757
1254.577, 5885.178
1255.059, 5882.604
1255.541, 5882.978
1256.023, 5889.015
1256.505, 5897.065
1256.988, 5899.384
1257.470, 5898.004
1257.952, 5896.908
1258.434, 5896.824
1258.916, 5897.817
1259.398, 5900.432
1259.880, 5902.986
1260.362, 5904.880
1260.844, 5906.691
1261.327, 5910.188
1261.809, 5913.841
1262.291, 5915.000
1262.773, 5912.979
1263.255, 5911.435
1263.737, 5910.002
1264.219, 5910.926
1264.701, 5915.281
1265.183, 5920.927
1265.666, 5925.637
1266.148, 5929.708
1266.630, 5932.737
1267.112, 5934.719
1267.594, 5941.229
1268.076, 5953.383
1268.558, 5960.781
1269.040, 5959.415
1269.523, 5956.133
1270.005, 5957.472
1270.487, 5960.192
1270.969, 5961.144
1271.451, 5960.690
1271.933, 5961.479
1272.415, 5963.533
1272.897, 5964.431
1273.380, 5963.450
1273.862, 5962.329
1274.344, 5963.312
1274.826, 5963.560
1275.308, 5960.982
1275.790, 5956.436
1276.272, 5951.373
1276.754, 5946.568
1277.236, 5947.539
1277.719, 5956.279
1278.201, 5962.534
1278.683, 5958.621
1279.165, 5953.493
1279.647, 5949.979
1280.129, 5948.378
1280.611, 5951.064
1281.093, 5955.796
1281.576, 5955.049
1282.058, 5947.264
1282.540, 5944.334
1283.022, 5954.150
1283.504, 5961.784
1283.986, 5962.972
1284.468, 5961.253
1284.950, 5960.832
1285.432, 5961.888
1285.915, 5965.671
1286.397, 5972.124
1286.879, 5975.871
1287.361, 5975.946
1287.843, 5974.864
1288.325, 5972.507
1288.807, 5971.836
1289.289, 5978.933
1289.771, 5987.520
1290.254, 5990.686
1290.736, 5988.532
1291.218, 5986.055
1291.700, 5982.845
1292.182, 5983.493
1292.664, 5989.180
1293.146, 5994.476
1293.628, 5993.615
1294.111, 5991.747
1294.593, 5993.029
1295.075, 5995.752
1295.557, 5996.232
1296.039, 5994.664
1296.521, 5992.661
1297.003, 5990.838
1297.485, 5991.685
1297.968, 5999.813
1298.450, 6004.880
1298.932, 6001.864
1299.414, 5996.468
1299.896, 5998.346
1300.378, 6004.891
1300.860, 6006.538
1301.342, 6003.288
1301.824, 6002.229
##END=



