##NAMES=Bustamite
##RRUFFID=R040014
##IDEAL CHEMISTRY=CaMn^2+^Si_2_O_6_
##LOCALITY=Broken Hill, New South Wales, Australia
##OWNER=RRUFF
##SOURCE=University of Arizona Mineral Museum
##DESCRIPTION=Orange fragment
##STATUS=The identification of this mineral has been confirmed by X-ray diffraction and chemical analysis
##URL=rruff.info/R040014
##MEASURED CHEMISTRY=(Ca_0.90_Mn_0.10_)_Σ=1_(Mn^2+^_0.78_Fe^2+^_0.19_Fe^3+^_0.02_Mg_0.01_)_Σ=1_(Si_1.98_Fe^3+^_0.02_)_Σ=2_O_6_
117.6655, 311.5142
118.1476, 341.5291
118.6297, 373.6891
119.1118, 406.4301
119.5940, 439.0713
120.0761, 472.0529
120.5582, 505.3344
121.0403, 538.5552
121.5224, 574.4133
122.0045, 613.5512
122.4867, 656.3747
122.9688, 703.4052
123.4509, 757.7697
123.9330, 815.3705
124.4151, 871.7360
124.8972, 926.3019
125.3794, 979.5104
125.8615, 1028.652
126.3436, 1075.019
126.8257, 1127.241
127.3078, 1193.998
127.7899, 1270.954
128.2721, 1348.109
128.7542, 1422.765
129.2363, 1496.615
129.7184, 1573.729
130.2005, 1654.462
130.6826, 1738.316
131.1647, 1829.113
131.6469, 1925.408
132.1290, 2017.300
132.6111, 2099.618
133.0932, 2173.919
133.5753, 2247.004
134.0574, 2320.255
134.5396, 2388.968
135.0217, 2447.440
135.5038, 2495.968
135.9859, 2534.600
136.4680, 2560.474
136.9501, 2573.091
137.4323, 2587.077
137.9144, 2606.544
138.3965, 2625.013
138.8786, 2622.106
139.3607, 2591.926
139.8428, 2557.482
140.3250, 2532.430
140.8071, 2517.942
141.2892, 2510.170
141.7713, 2511.225
142.2534, 2519.871
142.7355, 2521.600
143.2177, 2508.220
143.6998, 2497.635
144.1819, 2507.340
144.6640, 2547.338
145.1461, 2589.784
145.6283, 2628.231
146.1104, 2660.032
146.5925, 2701.773
147.0746, 2755.454
147.5567, 2817.489
148.0388, 2882.208
148.5210, 2956.879
149.0031, 3026.255
149.4852, 3083.894
149.9673, 3119.751
150.4494, 3164.737
150.9315, 3232.552
151.4136, 3310.310
151.8958, 3365.324
152.3779, 3384.790
152.8600, 3391.135
153.3421, 3393.277
153.8242, 3403.061
154.3063, 3396.275
154.7885, 3369.687
155.2706, 3324.364
155.7527, 3265.236
156.2348, 3191.091
156.7169, 3104.270
157.1990, 3006.911
157.6812, 2889.495
158.1633, 2770.541
158.6454, 2654.589
159.1275, 2543.145
159.6096, 2429.713
160.0917, 2306.770
160.5739, 2183.490
161.0560, 2069.593
161.5381, 1976.635
162.0202, 1886.987
162.5023, 1789.830
162.9844, 1682.718
163.4666, 1583.212
163.9487, 1499.077
164.4308, 1427.837
164.9129, 1365.334
165.3950, 1308.940
165.8771, 1261.304
166.3593, 1226.422
166.8414, 1209.600
167.3235, 1193.777
167.8056, 1164.513
168.2877, 1127.229
168.7698, 1096.513
169.2519, 1085.129
169.7341, 1082.232
170.2162, 1076.560
170.6983, 1063.180
171.1804, 1049.599
171.6625, 1041.147
172.1446, 1037.557
172.6268, 1037.358
173.1089, 1041.314
173.5910, 1047.700
174.0731, 1054.218
174.5552, 1063.556
175.0373, 1070.360
175.5195, 1066.793
176.0016, 1053.124
176.4837, 1036.665
176.9658, 1022.819
177.4479, 1010.880
177.9300, 999.4371
178.4122, 988.4395
178.8943, 977.4093
179.3764, 965.9572
179.8585, 954.2892
180.3406, 940.9142
180.8227, 922.5838
181.3049, 900.7244
181.7870, 880.1236
182.2691, 863.3334
182.7512, 849.6908
183.2333, 837.4493
183.7154, 826.1759
184.1976, 817.5532
184.6797, 817.2088
185.1618, 823.8976
185.6439, 826.6420
186.1260, 812.3148
186.6081, 786.9009
187.0903, 775.7207
187.5724, 785.2264
188.0545, 804.4864
188.5366, 813.6357
189.0187, 812.5482
189.5008, 810.4828
189.9829, 814.9006
190.4651, 824.8827
190.9472, 833.7381
191.4293, 840.3824
191.9114, 844.9672
192.3935, 847.6724
192.8756, 848.3085
193.3578, 848.4720
193.8399, 850.8239
194.3220, 855.2743
194.8041, 855.3564
195.2862, 847.4725
195.7683, 834.0852
196.2505, 827.9329
196.7326, 830.7175
197.2147, 834.3656
197.6968, 828.8853
198.1789, 813.5976
198.6610, 799.8090
199.1432, 791.2690
199.6253, 787.6484
200.1074, 784.5133
200.5895, 781.9045
201.0716, 779.6082
201.5537, 777.4482
202.0359, 775.4713
202.5180, 773.1987
203.0001, 769.8746
203.4822, 765.2432
203.9643, 762.9615
204.4464, 763.1039
204.9286, 765.4691
205.4107, 770.2551
205.8928, 778.1251
206.3749, 786.0560
206.8570, 792.9091
207.3391, 798.6270
207.8212, 803.1152
208.3034, 804.9457
208.7855, 806.6902
209.2676, 815.5610
209.7497, 834.8287
210.2318, 852.6257
210.7139, 861.1172
211.1961, 856.3463
211.6782, 859.1346
212.1603, 873.2600
212.6424, 894.6529
213.1245, 909.6863
213.6066, 915.3385
214.0888, 920.5988
214.5709, 930.9005
215.0530, 947.4482
215.5351, 965.4914
216.0172, 985.1372
216.4993, 1005.925
216.9815, 1026.329
217.4636, 1044.952
217.9457, 1065.010
218.4278, 1089.379
218.9099, 1119.919
219.3920, 1149.163
219.8742, 1176.208
220.3563, 1200.790
220.8384, 1224.414
221.3205, 1244.622
221.8026, 1266.975
222.2847, 1295.517
222.7669, 1330.653
223.2490, 1372.003
223.7311, 1421.428
224.2132, 1479.492
224.6953, 1531.440
225.1774, 1575.365
225.6596, 1616.364
226.1417, 1659.961
226.6238, 1706.594
227.1059, 1754.187
227.5880, 1802.846
228.0701, 1852.352
228.5522, 1902.196
229.0344, 1950.839
229.5165, 2000.927
229.9986, 2057.423
230.4807, 2126.404
230.9628, 2189.634
231.4449, 2240.963
231.9271, 2278.707
232.4092, 2317.640
232.8913, 2359.148
233.3734, 2401.514
233.8555, 2442.549
234.3376, 2482.281
234.8198, 2521.423
235.3019, 2559.794
235.7840, 2596.620
236.2661, 2636.082
236.7482, 2677.938
237.2303, 2721.995
237.7125, 2768.644
238.1946, 2822.772
238.6767, 2871.433
239.1588, 2910.816
239.6409, 2939.218
240.1230, 2963.267
240.6052, 2981.082
241.0873, 2995.353
241.5694, 3011.400
242.0515, 3033.680
242.5336, 3050.643
243.0157, 3058.117
243.4979, 3054.575
243.9800, 3045.755
244.4621, 3031.924
244.9442, 3012.512
245.4263, 2986.491
245.9084, 2955.462
246.3905, 2914.993
246.8727, 2861.079
247.3548, 2784.934
247.8369, 2719.688
248.3190, 2675.150
248.8011, 2638.205
249.2832, 2575.553
249.7654, 2474.080
250.2475, 2369.509
250.7296, 2275.291
251.2117, 2190.062
251.6938, 2119.594
252.1759, 2069.024
252.6581, 2032.066
253.1402, 1990.729
253.6223, 1945.159
254.1044, 1894.892
254.5865, 1838.701
255.0686, 1770.802
255.5508, 1710.841
256.0329, 1659.117
256.5150, 1615.501
256.9971, 1580.284
257.4792, 1557.301
257.9613, 1535.400
258.4435, 1508.517
258.9256, 1473.783
259.4077, 1441.167
259.8898, 1409.572
260.3719, 1380.439
260.8540, 1358.310
261.3362, 1345.080
261.8183, 1334.881
262.3004, 1324.442
262.7825, 1313.132
263.2646, 1303.835
263.7467, 1296.843
264.2289, 1291.940
264.7110, 1289.225
265.1931, 1290.071
265.6752, 1290.198
266.1573, 1285.047
266.6394, 1270.364
267.1216, 1267.901
267.6037, 1283.325
268.0858, 1310.014
268.5679, 1327.037
269.0500, 1330.021
269.5321, 1333.748
270.0143, 1348.124
270.4964, 1376.068
270.9785, 1399.902
271.4606, 1417.576
271.9427, 1431.023
272.4248, 1445.490
272.9070, 1460.487
273.3891, 1478.073
273.8712, 1500.231
274.3533, 1527.533
274.8354, 1554.035
275.3175, 1577.966
275.7997, 1601.482
276.2818, 1631.686
276.7639, 1670.224
277.2460, 1708.637
277.7281, 1741.495
278.2102, 1768.415
278.6924, 1794.575
279.1745, 1819.914
279.6566, 1845.158
280.1387, 1869.505
280.6208, 1891.327
281.1029, 1921.964
281.5851, 1980.857
282.0672, 2068.008
282.5493, 2116.513
283.0314, 2111.562
283.5135, 2075.598
283.9956, 2054.598
284.4778, 2048.982
284.9599, 2053.896
285.4420, 2068.721
285.9241, 2092.846
286.4062, 2119.084
286.8883, 2146.965
287.3705, 2175.888
287.8526, 2205.051
288.3347, 2234.470
288.8168, 2262.846
289.2989, 2288.415
289.7810, 2311.798
290.2632, 2335.656
290.7453, 2359.724
291.2274, 2384.825
291.7095, 2410.896
292.1916, 2438.178
292.6737, 2470.321
293.1558, 2510.191
293.6379, 2556.395
294.1201, 2604.389
294.6022, 2652.949
295.0843, 2706.131
295.5664, 2770.566
296.0485, 2846.052
296.5306, 2928.274
297.0128, 3017.030
297.4949, 3111.436
297.9770, 3206.615
298.4591, 3299.754
298.9412, 3405.680
299.4233, 3543.767
299.9055, 3710.726
300.3876, 3889.075
300.8697, 4067.553
301.3518, 4251.405
301.8339, 4451.790
302.3160, 4671.421
302.7982, 4901.247
303.2803, 5128.480
303.7624, 5358.837
304.2445, 5614.669
304.7266, 5922.685
305.2087, 6250.538
305.6909, 6567.033
306.1730, 6864.589
306.6551, 7167.752
307.1372, 7495.178
307.6193, 7841.252
308.1014, 8188.445
308.5836, 8527.396
309.0657, 8865.715
309.5478, 9215.724
310.0299, 9578.488
310.5120, 9929.877
310.9941, 10258.24
311.4763, 10559.71
311.9584, 10833.02
312.4405, 11071.64
312.9226, 11283.89
313.4047, 11485.96
313.8868, 11682.72
314.3690, 11813.77
314.8511, 11842.95
315.3332, 11791.92
315.8153, 11685.94
316.2974, 11523.06
316.7795, 11314.28
317.2617, 11061.01
317.7438, 10763.24
318.2259, 10439.01
318.7080, 10099.67
319.1901, 9734.716
319.6722, 9334.788
320.1544, 8848.338
320.6365, 8372.518
321.1186, 7945.685
321.6007, 7564.005
322.0828, 7196.432
322.5649, 6835.933
323.0471, 6486.646
323.5292, 6151.462
324.0113, 5823.320
324.4934, 5516.126
324.9755, 5235.994
325.4576, 4982.697
325.9398, 4745.592
326.4219, 4522.800
326.9040, 4316.770
327.3861, 4128.827
327.8682, 3967.959
328.3503, 3814.697
328.8325, 3664.152
329.3146, 3521.432
329.7967, 3396.216
330.2788, 3299.066
330.7609, 3209.256
331.2430, 3117.012
331.7251, 3017.814
332.2072, 2925.836
332.6894, 2841.197
333.1715, 2763.192
333.6536, 2693.848
334.1357, 2637.838
334.6178, 2581.499
335.0999, 2518.089
335.5821, 2444.696
336.0642, 2375.619
336.5463, 2310.887
337.0284, 2250.189
337.5105, 2193.545
337.9926, 2143.119
338.4748, 2090.817
338.9569, 2033.270
339.4390, 1970.686
339.9211, 1905.451
340.4032, 1836.567
340.8853, 1767.582
341.3675, 1704.519
341.8496, 1646.286
342.3317, 1596.785
342.8138, 1561.180
343.2959, 1536.925
343.7780, 1498.955
344.2602, 1444.616
344.7423, 1389.516
345.2244, 1354.417
345.7065, 1337.662
346.1886, 1318.552
346.6707, 1289.473
347.1529, 1254.491
347.6350, 1226.051
348.1171, 1204.390
348.5992, 1183.012
349.0813, 1154.250
349.5634, 1121.203
350.0456, 1092.497
350.5277, 1072.424
351.0098, 1055.721
351.4919, 1033.595
351.9740, 1006.860
352.4561, 981.2658
352.9383, 958.4814
353.4204, 940.0770
353.9025, 929.8649
354.3846, 931.9827
354.8667, 935.5173
355.3488, 930.0480
355.8310, 917.5545
356.3131, 903.7249
356.7952, 891.3215
357.2773, 879.4803
357.7594, 866.7466
358.2415, 852.1494
358.7237, 839.3507
359.2058, 830.3841
359.6879, 824.7410
360.1700, 821.5134
360.6521, 820.6802
361.1342, 821.8747
361.6164, 826.4286
362.0985, 835.5546
362.5806, 840.6087
363.0627, 836.3419
363.5448, 827.0845
364.0269, 817.8895
364.5091, 806.5176
364.9912, 798.6968
365.4733, 797.5620
365.9554, 803.4420
366.4375, 808.7510
366.9196, 809.6193
367.4018, 811.0394
367.8839, 816.8785
368.3660, 832.8320
368.8481, 847.0978
369.3302, 857.1397
369.8123, 863.7524
370.2944, 872.9677
370.7766, 885.7076
371.2587, 900.2117
371.7408, 915.7450
372.2229, 933.0148
372.7050, 949.3019
373.1871, 962.7897
373.6693, 975.4792
374.1514, 994.9995
374.6335, 1025.484
375.1156, 1054.386
375.5977, 1073.744
376.0798, 1079.348
376.5620, 1097.157
377.0441, 1130.419
377.5262, 1171.941
378.0083, 1209.375
378.4904, 1242.106
378.9725, 1277.836
379.4547, 1319.633
379.9368, 1367.044
380.4189, 1421.219
380.9010, 1483.015
381.3831, 1546.157
381.8652, 1599.459
382.3474, 1645.342
382.8295, 1695.126
383.3116, 1751.922
383.7937, 1815.503
384.2758, 1889.279
384.7579, 1973.099
385.2401, 2057.899
385.7222, 2136.635
386.2043, 2212.469
386.6864, 2292.292
387.1685, 2378.673
387.6506, 2469.381
388.1328, 2565.902
388.6149, 2666.957
389.0970, 2762.176
389.5791, 2844.035
390.0612, 2919.346
390.5433, 2994.465
391.0255, 3071.971
391.5076, 3144.066
391.9897, 3211.413
392.4718, 3270.281
392.9539, 3314.731
393.4360, 3340.732
393.9182, 3352.728
394.4003, 3352.161
394.8824, 3338.797
395.3645, 3315.606
395.8466, 3279.237
396.3287, 3235.218
396.8109, 3188.829
397.2930, 3141.747
397.7751, 3092.098
398.2572, 3038.193
398.7393, 2980.178
399.2214, 2923.716
399.7036, 2863.451
400.1857, 2808.851
400.6678, 2766.008
401.1499, 2746.220
401.6320, 2719.866
402.1141, 2684.422
402.5963, 2641.696
403.0784, 2596.256
403.5605, 2545.267
404.0426, 2496.917
404.5247, 2458.474
405.0068, 2435.607
405.4890, 2391.986
405.9711, 2321.405
406.4532, 2238.740
406.9353, 2163.834
407.4174, 2097.004
407.8995, 2035.326
408.3816, 1980.220
408.8637, 1929.854
409.3459, 1871.762
409.8280, 1804.768
410.3101, 1736.761
410.7922, 1675.811
411.2743, 1620.934
411.7564, 1568.955
412.2386, 1518.479
412.7207, 1470.966
413.2028, 1430.068
413.6849, 1394.638
414.1670, 1359.720
414.6491, 1319.572
415.1313, 1278.389
415.6134, 1241.810
416.0955, 1211.545
416.5776, 1183.126
417.0597, 1151.083
417.5418, 1118.330
418.0240, 1090.221
418.5061, 1076.368
418.9882, 1062.908
419.4703, 1037.477
419.9524, 997.4155
420.4345, 967.3387
420.9167, 968.2064
421.3988, 978.6855
421.8809, 977.3318
422.3630, 946.0847
422.8451, 916.3616
423.3272, 896.3571
423.8094, 885.3333
424.2915, 874.0874
424.7736, 856.9199
425.2557, 843.2513
425.7378, 838.3344
426.2199, 854.1436
426.7021, 858.6422
427.1842, 844.9784
427.6663, 822.2538
428.1484, 811.2726
428.6305, 818.1788
429.1126, 824.1573
429.5948, 822.1030
430.0769, 811.4609
430.5590, 801.4558
431.0411, 791.1487
431.5232, 783.6469
432.0053, 783.9885
432.4875, 792.4971
432.9696, 800.1835
433.4517, 804.5839
433.9338, 806.7252
434.4159, 809.7296
434.8980, 813.6092
435.3802, 816.6072
435.8623, 816.9424
436.3444, 815.3768
436.8265, 813.7549
437.3086, 812.1754
437.7907, 811.1060
438.2729, 811.6643
438.7550, 813.2343
439.2371, 814.1289
439.7192, 814.8957
440.2013, 813.7101
440.6834, 806.2138
441.1656, 791.6129
441.6477, 782.3812
442.1298, 790.9337
442.6119, 806.4594
443.0940, 817.3124
443.5761, 803.5246
444.0583, 801.0848
444.5403, 840.1441
445.0225, 908.7023
445.5046, 941.0645
445.9867, 888.8066
446.4688, 824.0736
446.9509, 783.0260
447.4330, 777.5710
447.9152, 778.0392
448.3973, 788.4222
448.8794, 803.2264
449.3615, 813.4720
449.8436, 815.5097
450.3257, 819.5166
450.8079, 828.6035
451.2900, 842.8809
451.7721, 856.3713
452.2542, 867.4000
452.7363, 881.0065
453.2184, 904.0380
453.7006, 937.0593
454.1827, 965.2430
454.6648, 984.2117
455.1469, 998.5165
455.6290, 1018.806
456.1111, 1044.868
456.5933, 1070.115
457.0754, 1089.480
457.5575, 1104.891
458.0396, 1120.470
458.5217, 1136.986
459.0038, 1151.650
459.4860, 1162.566
459.9681, 1169.686
460.4502, 1172.671
460.9323, 1168.814
461.4144, 1162.777
461.8965, 1159.683
462.3787, 1158.639
462.8608, 1152.396
463.3429, 1136.199
463.8250, 1114.059
464.3071, 1088.307
464.7892, 1055.174
465.2714, 1025.808
465.7535, 1005.473
466.2356, 990.3780
466.7177, 973.3866
467.1998, 953.0364
467.6819, 931.2834
468.1641, 907.2803
468.6462, 879.9940
469.1283, 857.9211
469.6104, 843.2072
470.0925, 831.2521
470.5746, 818.5714
471.0568, 806.2647
471.5389, 788.9835
472.0210, 762.5416
472.5031, 732.3132
472.9852, 717.0236
473.4673, 718.0609
473.9495, 722.6500
474.4316, 724.0458
474.9137, 722.8227
475.3958, 722.5793
475.8779, 723.6982
476.3600, 724.6841
476.8422, 722.0831
477.3243, 717.6601
477.8064, 716.8677
478.2885, 724.5221
478.7706, 734.5085
479.2527, 739.8615
479.7349, 741.1506
480.2170, 741.7948
480.6991, 744.0585
481.1812, 746.4857
481.6633, 747.1981
482.1454, 744.1138
482.6275, 743.6471
483.1096, 752.0584
483.5918, 764.0111
484.0739, 771.0851
484.5560, 765.7750
485.0381, 760.6036
485.5202, 759.4584
486.0023, 762.7656
486.4845, 765.5451
486.9666, 767.2478
487.4487, 768.9449
487.9308, 771.8101
488.4129, 778.0782
488.8951, 779.7032
489.3772, 773.8877
489.8593, 764.9789
490.3414, 762.7083
490.8235, 767.4852
491.3056, 776.6090
491.7878, 790.4608
492.2699, 808.2705
492.7520, 823.3121
493.2341, 835.2496
493.7162, 846.8076
494.1983, 860.1589
494.6805, 875.1821
495.1626, 891.4277
495.6447, 910.1105
496.1268, 928.0643
496.6089, 938.7527
497.0910, 945.3283
497.5732, 958.2242
498.0553, 983.5221
498.5374, 1017.088
499.0195, 1057.745
499.5016, 1106.199
499.9837, 1152.979
500.4659, 1188.237
500.9480, 1221.550
501.4301, 1262.450
501.9122, 1318.631
502.3943, 1375.729
502.8764, 1429.414
503.3586, 1481.356
503.8407, 1538.788
504.3228, 1604.657
504.8049, 1672.290
505.2870, 1738.425
505.7691, 1801.374
506.2513, 1870.052
506.7334, 1945.410
507.2155, 2024.264
507.6976, 2102.588
508.1797, 2180.171
508.6618, 2261.103
509.1440, 2349.521
509.6261, 2439.289
510.1082, 2512.935
510.5903, 2571.256
511.0724, 2627.530
511.5545, 2691.212
512.0366, 2758.474
512.5187, 2827.638
513.0009, 2901.207
513.4830, 2960.626
513.9651, 2986.979
514.4472, 2990.051
514.9293, 2984.458
515.4114, 2985.022
515.8936, 2969.210
516.3757, 2924.099
516.8578, 2852.589
517.3399, 2767.385
517.8220, 2665.499
518.3041, 2555.900
518.7863, 2441.758
519.2684, 2319.895
519.7505, 2201.378
520.2326, 2087.700
520.7147, 1977.265
521.1968, 1869.255
521.6790, 1759.778
522.1611, 1661.098
522.6432, 1576.884
523.1253, 1504.719
523.6074, 1435.334
524.0895, 1368.472
524.5717, 1307.668
525.0538, 1257.862
525.5359, 1217.244
526.0180, 1172.854
526.5001, 1122.942
526.9822, 1074.708
527.4644, 1035.390
527.9465, 1003.357
528.4286, 974.4222
528.9107, 946.9842
529.3928, 921.8298
529.8749, 900.5262
530.3571, 882.3719
530.8392, 865.5388
531.3213, 849.3700
531.8034, 833.9203
532.2855, 818.6799
532.7676, 803.1655
533.2498, 789.5347
533.7319, 780.0827
534.2140, 771.7968
534.6961, 761.1981
535.1782, 744.3009
535.6603, 730.9600
536.1425, 721.9161
536.6246, 717.0804
537.1067, 717.2385
537.5888, 725.2961
538.0709, 730.3548
538.5530, 725.7950
539.0352, 711.8444
539.5173, 700.4646
539.9994, 691.8256
540.4815, 685.7131
540.9636, 683.4585
541.4457, 683.8615
541.9279, 682.2071
542.4100, 675.8914
542.8921, 669.4799
543.3742, 668.9800
543.8563, 673.0853
544.3384, 678.0048
544.8206, 684.6064
545.3027, 689.2407
545.7848, 687.5812
546.2669, 678.9225
546.7490, 672.9065
547.2311, 672.4558
547.7133, 676.2863
548.1954, 683.4152
548.6775, 704.5777
549.1596, 714.8352
549.6417, 706.7961
550.1238, 689.2288
550.6060, 679.9919
551.0881, 680.9401
551.5702, 686.5696
552.0523, 697.3940
552.5344, 712.4126
553.0165, 719.2509
553.4987, 716.5680
553.9808, 712.7551
554.4629, 714.1573
554.9450, 720.1744
555.4271, 728.6644
555.9092, 739.9186
556.3914, 751.2442
556.8735, 757.3633
557.3556, 761.0344
557.8377, 768.3524
558.3198, 781.7499
558.8019, 799.9816
559.2841, 825.2200
559.7662, 855.6951
560.2483, 882.2250
560.7304, 896.2926
561.2125, 909.0414
561.6946, 926.6683
562.1768, 950.4920
562.6589, 977.2152
563.1410, 1006.745
563.6231, 1038.606
564.1052, 1072.775
564.5873, 1110.035
565.0695, 1147.586
565.5516, 1183.680
566.0337, 1220.808
566.5158, 1269.030
566.9979, 1330.630
567.4800, 1387.904
567.9622, 1424.112
568.4443, 1447.900
568.9264, 1494.984
569.4085, 1567.021
569.8906, 1640.255
570.3727, 1695.495
570.8549, 1737.875
571.3370, 1777.157
571.8191, 1814.000
572.3012, 1850.668
572.7833, 1889.587
573.2654, 1929.046
573.7476, 1965.008
574.2297, 1998.865
574.7118, 2027.047
575.1939, 2049.209
575.6760, 2065.515
576.1581, 2071.302
576.6403, 2066.578
577.1223, 2051.658
577.6044, 2026.142
578.0865, 1987.836
578.5687, 1945.201
579.0508, 1898.670
579.5329, 1848.108
580.0150, 1791.284
580.4971, 1728.525
580.9792, 1667.191
581.4614, 1610.663
581.9435, 1554.546
582.4256, 1489.439
582.9077, 1417.655
583.3898, 1351.755
583.8719, 1301.508
584.3541, 1259.417
584.8362, 1217.766
585.3183, 1176.203
585.8004, 1137.322
586.2825, 1102.842
586.7646, 1071.455
587.2468, 1041.549
587.7289, 1010.210
588.2110, 984.3520
588.6931, 966.9769
589.1752, 954.8774
589.6573, 943.2471
590.1395, 931.3337
590.6216, 921.8068
591.1037, 917.7275
591.5858, 916.6395
592.0679, 900.9427
592.5500, 867.5752
593.0322, 839.2705
593.5143, 836.7117
593.9964, 852.3773
594.4785, 854.4388
594.9606, 839.9355
595.4427, 823.3000
595.9249, 818.7693
596.4070, 821.0651
596.8891, 821.1418
597.3712, 812.8560
597.8533, 807.3727
598.3354, 815.4153
598.8176, 830.7633
599.2997, 840.2881
599.7818, 831.7409
600.2639, 825.0527
600.7460, 828.6809
601.2281, 842.7891
601.7103, 851.7188
602.1924, 852.8658
602.6745, 852.4684
603.1566, 853.9584
603.6387, 857.6143
604.1208, 861.2648
604.6030, 864.5334
605.0851, 868.7643
605.5672, 876.9529
606.0493, 888.2662
606.5314, 896.3791
607.0135, 897.7903
607.4957, 898.5670
607.9778, 907.3770
608.4599, 922.1357
608.9420, 936.9614
609.4241, 947.5712
609.9063, 958.0981
610.3884, 971.1376
610.8705, 986.8901
611.3526, 1003.648
611.8347, 1022.906
612.3168, 1041.786
612.7990, 1058.146
613.2811, 1069.263
613.7632, 1084.477
614.2453, 1104.399
614.7274, 1127.604
615.2095, 1152.884
615.6917, 1180.803
616.1738, 1206.028
616.6559, 1226.083
617.1380, 1244.161
617.6201, 1266.593
618.1022, 1293.160
618.5844, 1324.208
619.0665, 1360.450
619.5486, 1400.762
620.0307, 1445.263
620.5128, 1493.516
620.9949, 1542.643
621.4771, 1583.751
621.9592, 1629.074
622.4413, 1689.029
622.9234, 1771.683
623.4055, 1853.131
623.8876, 1921.690
624.3698, 1990.657
624.8519, 2073.834
625.3340, 2175.443
625.8161, 2282.956
626.2982, 2394.077
626.7803, 2511.535
627.2625, 2642.296
627.7446, 2786.585
628.2267, 2941.575
628.7088, 3107.979
629.1909, 3284.380
629.6730, 3457.501
630.1552, 3629.828
630.6373, 3824.730
631.1194, 4060.455
631.6015, 4324.699
632.0836, 4605.296
632.5657, 4901.649
633.0479, 5209.750
633.5300, 5518.454
634.0121, 5840.888
634.4942, 6184.683
634.9763, 6560.225
635.4584, 6949.554
635.9406, 7350.927
636.4227, 7763.870
636.9048, 8196.597
637.3869, 8644.272
637.8690, 9116.959
638.3511, 9619.912
638.8333, 10144.68
639.3154, 10650.33
639.7975, 11132.92
640.2796, 11624.95
640.7617, 12154.23
641.2438, 12697.59
641.7260, 13236.58
642.2081, 13766.23
642.6902, 14249.07
643.1723, 14678.45
643.6544, 15036.82
644.1365, 15319.13
644.6187, 15550.62
645.1008, 15648.12
645.5829, 15584.48
646.0650, 15373.30
646.5471, 15046.27
647.0292, 14588.82
647.5114, 14027.79
647.9935, 13347.54
648.4756, 12568.56
648.9577, 11782.79
649.4398, 10977.05
649.9219, 10193.28
650.4041, 9445.650
650.8862, 8732.277
651.3683, 8065.941
651.8504, 7449.506
652.3325, 6877.528
652.8146, 6365.271
653.2967, 5901.710
653.7788, 5473.503
654.2609, 5082.097
654.7430, 4724.581
655.2252, 4407.058
655.7073, 4118.461
656.1894, 3851.659
656.6715, 3613.054
657.1536, 3389.982
657.6357, 3183.506
658.1179, 2991.101
658.6000, 2810.930
659.0821, 2641.479
659.5642, 2492.568
660.0463, 2370.936
660.5284, 2268.179
661.0106, 2164.358
661.4927, 2059.838
661.9748, 1961.008
662.4569, 1877.241
662.9390, 1798.017
663.4211, 1707.865
663.9033, 1606.777
664.3854, 1516.126
664.8675, 1447.135
665.3496, 1392.491
665.8317, 1349.654
666.3138, 1325.550
666.7960, 1293.943
667.2781, 1246.647
667.7602, 1196.204
668.2423, 1155.443
668.7244, 1126.156
669.2065, 1098.777
669.6887, 1071.972
670.1708, 1046.840
670.6529, 1026.141
671.1350, 1009.229
671.6171, 990.7245
672.0992, 967.8189
672.5814, 943.4362
673.0635, 918.7130
673.5456, 895.0050
674.0277, 877.0067
674.5098, 872.8649
674.9919, 870.5706
675.4741, 862.3983
675.9562, 847.7573
676.4383, 836.1534
676.9204, 827.7158
677.4025, 823.7137
677.8846, 825.6411
678.3668, 835.3885
678.8489, 842.6943
679.3310, 846.9113
679.8131, 850.2714
680.2952, 854.7130
680.7773, 860.2337
681.2595, 867.1247
681.7416, 875.4305
682.2237, 885.1255
682.7058, 895.5911
683.1879, 907.6548
683.6700, 922.7436
684.1522, 944.0178
684.6343, 966.0309
685.1164, 986.6808
685.5985, 1006.249
686.0806, 1026.167
686.5627, 1048.737
687.0449, 1069.103
687.5270, 1084.989
688.0091, 1097.137
688.4912, 1113.754
688.9733, 1137.088
689.4554, 1157.194
689.9376, 1169.607
690.4197, 1174.218
690.9018, 1167.031
691.3839, 1147.755
691.8660, 1128.260
692.3481, 1121.447
692.8303, 1118.760
693.3124, 1109.695
693.7945, 1092.532
694.2766, 1068.570
694.7587, 1029.841
695.2408, 988.4105
695.7230, 956.7079
696.2051, 945.5723
696.6872, 930.9514
697.1693, 910.2603
697.6514, 886.7733
698.1335, 865.5399
698.6157, 846.3385
699.0978, 831.2623
699.5799, 821.6050
700.0620, 815.5868
700.5441, 809.9044
701.0262, 804.5844
701.5084, 799.7375
701.9905, 794.2289
702.4726, 790.1282
702.9547, 789.8068
703.4368, 792.9164
703.9189, 796.8607
704.4011, 800.0153
704.8832, 804.3057
705.3653, 810.1436
705.8474, 817.0251
706.3295, 829.4293
706.8116, 849.7525
707.2938, 871.1166
707.7759, 888.0027
708.2580, 900.3512
708.7401, 913.9960
709.2222, 928.7704
709.7043, 946.7874
710.1865, 970.5978
710.6686, 999.3339
711.1507, 1031.494
711.6328, 1067.586
712.1149, 1105.495
712.5970, 1144.588
713.0792, 1184.076
713.5613, 1222.774
714.0434, 1263.545
714.5255, 1298.862
715.0076, 1326.460
715.4897, 1348.532
715.9719, 1372.358
716.4540, 1401.000
716.9361, 1419.894
717.4182, 1424.432
717.9003, 1416.138
718.3824, 1396.566
718.8646, 1366.950
719.3467, 1335.759
719.8288, 1314.099
720.3109, 1290.080
720.7930, 1247.892
721.2751, 1188.986
721.7573, 1128.897
722.2394, 1070.188
722.7215, 1017.245
723.2036, 974.6672
723.6857, 945.1764
724.1678, 914.5000
724.6500, 881.4289
725.1321, 849.2792
725.6142, 820.1672
726.0963, 794.5599
726.5784, 769.3124
727.0605, 743.5597
727.5427, 720.5795
728.0248, 706.0176
728.5069, 696.6265
728.9890, 684.9853
729.4711, 668.3545
729.9532, 652.2059
730.4353, 639.9944
730.9174, 630.3890
731.3995, 621.4993
731.8817, 613.5317
732.3638, 605.5504
732.8459, 596.8392
733.3280, 588.2229
733.8101, 582.1586
734.2922, 579.7980
734.7744, 574.5720
735.2565, 563.9430
735.7386, 550.1494
736.2207, 538.2091
736.7028, 528.0464
737.1849, 519.1690
737.6671, 511.1773
738.1492, 504.5527
738.6313, 500.9047
739.1134, 499.5200
739.5955, 496.8735
740.0776, 490.9673
740.5598, 484.1789
741.0419, 476.7968
741.5240, 468.8514
742.0061, 463.9495
742.4882, 463.5126
742.9703, 463.0905
743.4525, 458.8624
743.9346, 451.4024
744.4167, 449.4642
744.8988, 453.4664
745.3809, 457.5479
745.8630, 455.6543
746.3452, 451.0900
746.8273, 448.6036
747.3094, 449.2380
747.7915, 449.7328
748.2736, 448.3888
748.7557, 446.2945
749.2379, 444.6544
749.7200, 446.7965
750.2021, 443.3265
750.6842, 432.0445
751.1663, 417.8531
751.6484, 405.6774
752.1306, 395.5556
752.6127, 389.2826
753.0948, 386.9233
753.5769, 389.5096
754.0590, 399.9504
754.5411, 416.3986
755.0233, 435.1956
755.5054, 464.1262
755.9875, 483.1007
756.4696, 473.7668
756.9517, 447.9238
757.4338, 429.6948
757.9160, 429.2330
758.3981, 428.4720
758.8802, 424.0465
759.3623, 417.7766
759.8444, 414.9403
760.3265, 415.7471
760.8087, 418.6208
761.2908, 424.4259
761.7729, 430.7862
762.2550, 432.7109
762.7371, 430.8091
763.2192, 427.8931
763.7014, 425.1463
764.1835, 422.2157
764.6656, 418.2646
765.1477, 413.5185
765.6298, 410.6435
766.1119, 409.9005
766.5941, 411.4146
767.0762, 416.4746
767.5583, 424.9364
768.0404, 428.0059
768.5225, 424.7978
769.0046, 421.0539
769.4868, 421.1080
769.9689, 423.6156
770.4510, 425.2834
770.9331, 425.9807
771.4152, 426.0510
771.8973, 423.8254
772.3795, 422.3607
772.8616, 425.7584
773.3437, 436.9560
773.8258, 441.2518
774.3079, 429.8744
774.7900, 417.2486
775.2722, 413.3057
775.7543, 420.5685
776.2364, 423.3515
776.7185, 420.6163
777.2006, 416.7363
777.6827, 416.8289
778.1649, 419.3897
778.6470, 420.0616
779.1291, 417.6744
779.6112, 415.5561
780.0933, 416.3712
780.5754, 418.6565
781.0576, 420.8024
781.5397, 422.5006
782.0218, 424.0619
782.5039, 426.6307
782.9860, 428.2405
783.4681, 425.4945
783.9503, 417.0627
784.4324, 413.6273
784.9145, 417.8872
785.3966, 424.4952
785.8787, 424.7662
786.3608, 421.0505
786.8430, 420.1724
787.3251, 426.5909
787.8072, 432.1913
788.2893, 430.3125
788.7714, 424.4420
789.2535, 420.2415
789.7357, 418.5732
790.2178, 419.3486
790.6999, 423.6677
791.1820, 429.7501
791.6641, 434.6002
792.1462, 438.2730
792.6284, 439.3505
793.1105, 436.3959
793.5926, 432.2366
794.0747, 432.5883
794.5568, 435.7996
795.0389, 436.9944
795.5211, 430.6734
796.0032, 425.0356
796.4853, 425.8484
796.9674, 430.8237
797.4495, 432.6862
797.9316, 426.3741
798.4138, 423.4393
798.8959, 427.5061
799.3780, 436.3641
799.8601, 442.0940
800.3422, 444.6412
800.8243, 447.3291
801.3065, 453.4822
801.7886, 459.1291
802.2707, 455.8078
802.7528, 446.1251
803.2349, 439.2640
803.7170, 441.9797
804.1992, 446.4378
804.6813, 449.7041
805.1633, 451.5523
805.6454, 451.5641
806.1276, 447.6490
806.6097, 446.1249
807.0918, 450.1706
807.5739, 458.3119
808.0560, 464.1420
808.5381, 467.6519
809.0203, 468.6328
809.5024, 465.3451
809.9845, 460.5133
810.4666, 456.3594
810.9487, 453.1519
811.4308, 452.0450
811.9130, 453.6120
812.3951, 457.3428
812.8772, 464.8379
813.3593, 475.5463
813.8414, 479.6489
814.3235, 475.3727
814.8057, 470.0674
815.2878, 467.0510
815.7699, 466.0511
816.2520, 466.6917
816.7341, 468.7816
817.2162, 470.4357
817.6984, 467.8704
818.1805, 466.2378
818.6626, 472.0496
819.1447, 485.1801
819.6268, 492.7972
820.1089, 487.0550
820.5911, 480.3844
821.0732, 477.1825
821.5553, 477.4001
822.0374, 477.2491
822.5195, 476.3940
823.0016, 477.7951
823.4838, 486.8610
823.9659, 498.4289
824.4480, 500.7925
824.9301, 494.4021
825.4122, 488.1497
825.8943, 486.8962
826.3765, 487.3929
826.8586, 487.5578
827.3407, 487.1263
827.8228, 488.4677
828.3049, 492.9932
828.7870, 496.7868
829.2692, 497.7517
829.7513, 496.1046
830.2334, 492.7766
830.7155, 487.7923
831.1976, 484.7494
831.6797, 488.5278
832.1619, 494.2068
832.6440, 496.8341
833.1261, 496.0922
833.6082, 492.5810
834.0903, 480.6297
834.5724, 471.6389
835.0546, 472.0564
835.5367, 482.1294
836.0188, 488.8838
836.5009, 491.9603
836.9830, 493.3892
837.4651, 493.9201
837.9473, 493.9040
838.4294, 494.5985
838.9115, 495.8942
839.3936, 496.4560
839.8757, 494.1086
840.3578, 491.7797
840.8400, 492.2621
841.3221, 495.8469
841.8042, 496.8324
842.2863, 493.2368
842.7684, 489.5069
843.2505, 487.1624
843.7327, 486.2788
844.2148, 489.1898
844.6969, 495.8911
845.1790, 499.9339
845.6611, 492.0011
846.1432, 481.9676
846.6254, 484.9170
847.1075, 499.3300
847.5896, 508.2899
848.0717, 499.6169
848.5538, 489.3278
849.0359, 483.9674
849.5181, 483.3878
850.0002, 485.4675
850.4823, 491.0403
850.9644, 495.8015
851.4465, 496.5755
851.9286, 495.2119
852.4108, 497.6850
852.8929, 503.1694
853.3750, 506.9847
853.8571, 503.5377
854.3392, 500.0881
854.8214, 501.9613
855.3035, 508.7086
855.7856, 513.9016
856.2677, 516.4532
856.7498, 518.7128
857.2319, 521.9291
857.7141, 525.3098
858.1962, 524.9576
858.6783, 521.0867
859.1604, 517.4948
859.6425, 514.8950
860.1246, 514.5487
860.6068, 518.9864
861.0889, 527.0491
861.5710, 534.6188
862.0531, 544.3022
862.5352, 548.4216
863.0173, 541.0483
863.4995, 527.3867
863.9816, 526.2299
864.4637, 539.1821
864.9458, 552.2899
865.4279, 561.0184
865.9100, 566.3854
866.3922, 568.7320
866.8743, 568.9813
867.3564, 569.7327
867.8385, 569.9476
868.3206, 573.2805
868.8027, 585.0786
869.2849, 600.7505
869.7670, 608.5148
870.2491, 604.1563
870.7312, 602.0792
871.2133, 604.9898
871.6954, 611.7381
872.1776, 622.3301
872.6597, 635.2665
873.1418, 643.8497
873.6239, 643.1020
874.1060, 642.2882
874.5881, 649.0810
875.0703, 660.2471
875.5524, 670.7145
876.0345, 678.8588
876.5166, 687.4139
876.9987, 697.4852
877.4808, 706.9894
877.9630, 711.2322
878.4451, 710.7155
878.9272, 715.6365
879.4093, 729.1094
879.8914, 743.5699
880.3735, 751.1114
880.8557, 754.6385
881.3377, 757.5529
881.8198, 757.9014
882.3019, 763.7253
882.7841, 782.0016
883.2662, 802.0396
883.7483, 814.6378
884.2304, 818.9611
884.7125, 820.0775
885.1946, 816.7631
885.6768, 818.1928
886.1589, 840.3201
886.6410, 871.3117
887.1231, 891.7058
887.6052, 897.7418
888.0873, 900.5961
888.5695, 900.2440
889.0516, 902.4223
889.5337, 911.9189
890.0158, 930.1181
890.4979, 946.6833
890.9800, 962.0964
891.4622, 973.4685
891.9443, 975.8770
892.4264, 973.0090
892.9085, 974.8230
893.3906, 981.3336
893.8727, 987.3393
894.3549, 992.3047
894.8370, 993.6624
895.3191, 988.1758
895.8012, 975.5882
896.2833, 966.0410
896.7654, 960.1570
897.2476, 955.7394
897.7297, 952.2485
898.2118, 949.4395
898.6939, 947.2477
899.1760, 945.3712
899.6581, 941.9854
900.1403, 934.7306
900.6224, 926.8109
901.1045, 920.2809
901.5866, 914.9205
902.0687, 910.2695
902.5508, 908.2328
903.0330, 902.9502
903.5151, 891.4474
903.9972, 877.4641
904.4793, 871.0027
904.9614, 871.1594
905.4435, 871.8281
905.9257, 871.7951
906.4078, 869.8793
906.8899, 861.7580
907.3720, 851.8810
907.8541, 847.4780
908.3362, 858.2862
908.8184, 863.2248
909.3005, 857.7097
909.7826, 849.2631
910.2647, 849.0756
910.7468, 856.5093
911.2289, 859.9384
911.7111, 856.7535
912.1932, 853.5090
912.6753, 858.3210
913.1574, 865.9475
913.6395, 869.3250
914.1216, 864.1606
914.6038, 864.1501
915.0859, 874.1144
915.5680, 886.6932
916.0501, 896.9755
916.5322, 904.7710
917.0143, 914.5568
917.4965, 926.5964
917.9786, 936.8129
918.4607, 939.9533
918.9428, 940.6535
919.4249, 942.5414
919.9070, 946.1705
920.3892, 956.3848
920.8713, 985.0488
921.3534, 1009.259
921.8355, 1018.327
922.3176, 1014.895
922.7997, 1018.158
923.2819, 1028.155
923.7640, 1043.476
924.2461, 1066.425
924.7282, 1091.515
925.2103, 1112.346
925.6924, 1129.696
926.1746, 1145.866
926.6567, 1160.209
927.1388, 1175.040
927.6209, 1190.759
928.1030, 1207.213
928.5851, 1225.239
929.0673, 1245.245
929.5494, 1260.746
930.0315, 1268.858
930.5136, 1276.453
930.9957, 1294.615
931.4778, 1317.398
931.9600, 1334.501
932.4421, 1337.935
932.9242, 1346.881
933.4063, 1375.094
933.8884, 1403.185
934.3705, 1411.854
934.8527, 1397.372
935.3348, 1403.465
935.8169, 1434.695
936.2990, 1463.407
936.7811, 1458.899
937.2632, 1438.531
937.7454, 1424.639
938.2275, 1419.703
938.7096, 1415.591
939.1917, 1409.902
939.6738, 1404.356
940.1559, 1400.485
940.6381, 1397.878
941.1202, 1391.724
941.6023, 1382.070
942.0844, 1367.935
942.5665, 1341.220
943.0486, 1315.221
943.5308, 1309.931
944.0129, 1320.081
944.4950, 1329.865
944.9771, 1334.063
945.4592, 1336.825
945.9413, 1335.721
946.4235, 1335.806
946.9056, 1349.942
947.3877, 1378.199
947.8698, 1401.731
948.3519, 1413.828
948.8340, 1426.999
949.3162, 1454.287
949.7983, 1492.155
950.2804, 1535.717
950.7625, 1587.358
951.2446, 1637.184
951.7267, 1677.957
952.2089, 1723.075
952.6910, 1783.662
953.1731, 1859.682
953.6552, 1943.312
954.1373, 2033.715
954.6194, 2129.531
955.1016, 2222.307
955.5837, 2323.452
956.0658, 2443.068
956.5479, 2581.918
957.0300, 2737.920
957.5121, 2911.468
957.9942, 3097.911
958.4763, 3288.909
958.9584, 3492.262
959.4406, 3739.183
959.9227, 4027.150
960.4048, 4334.240
960.8869, 4637.008
961.3690, 4965.229
961.8511, 5350.650
962.3333, 5778.677
962.8154, 6227.368
963.2975, 6675.442
963.7796, 7175.116
964.2617, 7733.396
964.7438, 8350.403
965.2260, 9013.204
965.7081, 9724.329
966.1902, 10473.19
966.6723, 11248.87
967.1544, 12084.89
967.6365, 13015.70
968.1187, 14002.29
968.6008, 15010.23
969.0829, 16045.79
969.5650, 17048.97
970.0471, 18018.72
970.5292, 18980.82
971.0114, 19998.24
971.4935, 21017.83
971.9756, 21944.64
972.4577, 22755.47
972.9398, 23388.72
973.4219, 23864.60
973.9041, 24106.33
974.3862, 24068.22
974.8683, 23759.00
975.3504, 23218.34
975.8325, 22419.31
976.3146, 21447.75
976.7968, 20288.58
977.2789, 19033.60
977.7610, 17747.60
978.2431, 16467.53
978.7252, 15255.17
979.2073, 14130.94
979.6895, 13067.81
980.1716, 12053.30
980.6537, 11128.88
981.1358, 10335.97
981.6179, 9685.333
982.1000, 9089.373
982.5822, 8542.605
983.0643, 8056.593
983.5464, 7660.225
984.0285, 7320.941
984.5106, 6999.486
984.9927, 6697.463
985.4749, 6443.833
985.9570, 6269.503
986.4391, 6120.601
986.9212, 5985.346
987.4033, 5865.049
987.8854, 5765.429
988.3676, 5685.911
988.8497, 5627.791
989.3318, 5597.771
989.8139, 5576.360
990.2960, 5541.686
990.7781, 5506.570
991.2603, 5490.405
991.7424, 5513.416
992.2245, 5521.783
992.7066, 5507.326
993.1887, 5494.834
993.6708, 5511.442
994.1530, 5549.505
994.6351, 5585.346
995.1172, 5617.270
995.5993, 5638.320
996.0814, 5639.395
996.5635, 5632.237
997.0457, 5621.424
997.5278, 5607.847
998.0099, 5597.964
998.4920, 5594.537
998.9741, 5581.960
999.4562, 5556.618
999.9384, 5516.504
1000.420, 5453.217
1000.903, 5373.387
1001.385, 5289.676
1001.867, 5205.888
1002.349, 5120.600
1002.831, 5034.566
1003.313, 4945.811
1003.795, 4852.813
1004.277, 4754.639
1004.760, 4660.122
1005.242, 4569.495
1005.724, 4474.902
1006.206, 4360.838
1006.688, 4245.792
1007.170, 4148.434
1007.652, 4070.267
1008.134, 3990.642
1008.616, 3900.491
1009.099, 3819.452
1009.581, 3756.559
1010.063, 3703.938
1010.545, 3635.184
1011.027, 3554.120
1011.509, 3478.559
1011.991, 3410.249
1012.473, 3357.592
1012.956, 3336.006
1013.438, 3327.327
1013.920, 3306.432
1014.402, 3265.608
1014.884, 3235.353
1015.366, 3215.558
1015.848, 3209.446
1016.330, 3227.849
1016.812, 3258.525
1017.295, 3278.214
1017.777, 3286.782
1018.259, 3303.528
1018.741, 3337.455
1019.223, 3379.812
1019.705, 3428.029
1020.187, 3481.756
1020.669, 3538.831
1021.151, 3599.120
1021.634, 3668.157
1022.116, 3747.854
1022.598, 3836.626
1023.080, 3944.510
1023.562, 4055.654
1024.044, 4147.576
1024.526, 4199.449
1025.008, 4269.818
1025.490, 4368.505
1025.973, 4463.614
1026.455, 4523.718
1026.937, 4559.402
1027.419, 4598.592
1027.901, 4642.879
1028.383, 4691.451
1028.865, 4754.018
1029.347, 4811.278
1029.830, 4846.623
1030.312, 4871.346
1030.794, 4916.237
1031.276, 4981.582
1031.758, 5063.804
1032.240, 5158.683
1032.722, 5278.158
1033.204, 5446.716
1033.687, 5644.841
1034.169, 5850.311
1034.651, 6063.385
1035.133, 6270.413
1035.615, 6468.583
1036.097, 6666.534
1036.579, 6883.917
1037.061, 7111.305
1037.543, 7302.105
1038.026, 7455.727
1038.508, 7558.186
1038.990, 7609.596
1039.472, 7601.178
1039.954, 7519.977
1040.436, 7376.305
1040.918, 7194.831
1041.400, 6977.339
1041.882, 6715.645
1042.365, 6402.006
1042.847, 6060.202
1043.329, 5700.704
1043.811, 5338.008
1044.293, 4991.954
1044.775, 4662.327
1045.257, 4351.316
1045.739, 4058.205
1046.222, 3782.779
1046.704, 3524.536
1047.186, 3287.260
1047.668, 3083.713
1048.150, 2908.927
1048.632, 2744.755
1049.114, 2577.621
1049.596, 2423.185
1050.078, 2288.859
1050.561, 2173.602
1051.043, 2078.561
1051.525, 2007.834
1052.007, 1937.951
1052.489, 1867.338
1052.971, 1797.566
1053.453, 1727.361
1053.935, 1660.199
1054.417, 1602.609
1054.900, 1554.646
1055.382, 1509.581
1055.864, 1469.601
1056.346, 1426.975
1056.828, 1375.980
1057.310, 1323.687
1057.792, 1290.208
1058.274, 1272.197
1058.757, 1253.547
1059.239, 1229.642
1059.721, 1203.311
1060.203, 1174.172
1060.685, 1144.874
1061.167, 1116.997
1061.649, 1089.010
1062.131, 1072.793
1062.614, 1069.768
1063.096, 1064.454
1063.578, 1040.407
1064.060, 1011.583
1064.542, 997.9827
1065.024, 995.6103
1065.506, 989.8743
1065.988, 971.1506
1066.470, 957.6323
1066.953, 953.1951
1067.435, 952.2864
1067.917, 944.7972
1068.399, 933.6488
1068.881, 929.8232
1069.363, 935.6637
1069.845, 942.3524
1070.327, 948.5498
1070.809, 950.2416
1071.292, 941.4528
1071.774, 924.5938
1072.256, 923.9631
1072.738, 940.2132
1073.220, 955.9120
1073.702, 964.3923
1074.184, 968.1132
1074.666, 967.0315
1075.148, 963.7390
1075.631, 962.2239
1076.113, 962.9299
1076.595, 966.1644
1077.077, 971.8428
1077.559, 980.3223
1078.041, 995.5652
1078.523, 1012.669
1079.005, 1018.723
1079.488, 1014.760
1079.970, 1010.982
1080.452, 1011.225
1080.934, 1013.261
1081.416, 1015.012
1081.898, 1018.794
1082.380, 1033.016
1082.862, 1055.985
1083.344, 1066.869
1083.827, 1060.414
1084.309, 1049.219
1084.791, 1039.951
1085.273, 1032.829
1085.755, 1030.618
1086.237, 1033.674
1086.719, 1023.867
1087.201, 998.4979
1087.683, 975.6442
1088.166, 966.2850
1088.648, 961.1954
1089.130, 943.8766
1089.612, 921.4617
1090.094, 907.6267
1090.576, 918.5635
1091.058, 918.1774
1091.540, 900.5347
1092.023, 878.5749
1092.505, 862.8523
1092.987, 852.3727
1093.469, 846.5135
1093.951, 843.9201
1094.433, 834.4337
1094.915, 798.8592
1095.397, 771.0441
1095.880, 771.5597
1096.362, 785.2477
1096.844, 780.6171
1097.326, 757.9934
1097.808, 741.1385
1098.290, 734.5187
1098.772, 731.5490
1099.254, 729.1007
1099.736, 725.5905
1100.219, 717.8757
1100.701, 705.4902
1101.183, 701.9052
1101.665, 710.2350
1102.147, 713.2908
1102.629, 701.5518
1103.111, 684.8690
1103.593, 676.3607
1104.075, 674.4249
1104.558, 676.7597
1105.040, 690.1718
1105.522, 691.8884
1106.004, 674.7002
1106.486, 655.7449
1106.968, 648.5254
1107.450, 649.9310
1107.932, 647.7477
1108.415, 642.7242
1108.897, 639.3634
1109.379, 642.0843
1109.861, 644.4426
1110.343, 644.3514
1110.825, 642.4685
1111.307, 639.0786
1111.789, 634.3064
1112.271, 630.3038
1112.754, 627.2502
1113.236, 626.4569
1113.718, 632.9174
1114.200, 638.7051
1114.682, 637.0306
1115.164, 628.4640
1115.646, 619.4001
1116.128, 609.1930
1116.610, 602.5925
1117.093, 601.3809
1117.575, 603.1226
1118.057, 606.3435
##END=



