##NAMES=Butlerite
##RRUFFID=R110160
##IDEAL CHEMISTRY=Fe^3+^S^6+^O_4_(OH)&#183;2H_2_O
##LOCALITY=United Verde mine, Jerome, Arizona
##OWNER=RRUFF
##SOURCE=George Rossman, California Institute of Technology
##DESCRIPTION=Orange translucent grains
##STATUS=The identification of this mineral has been confirmed by single-crystal X-ray diffraction.
##URL=rruff.info/R110160
193.3301, 574.6837
193.8123, 577.0547
194.2944, 579.1256
194.7765, 580.4333
195.2586, 581.3142
195.7407, 581.8970
196.2228, 582.1638
196.7050, 583.0638
197.1871, 585.5931
197.6692, 589.6749
198.1513, 593.5380
198.6334, 596.4519
199.1155, 599.3970
199.5977, 602.9623
200.0798, 607.2047
200.5619, 611.9215
201.0440, 617.0027
201.5261, 622.5189
202.0082, 628.1550
202.4904, 633.7258
202.9725, 639.5596
203.4546, 645.8549
203.9367, 652.6385
204.4188, 659.8475
204.9009, 667.3483
205.3831, 675.0457
205.8652, 683.3395
206.3473, 692.9453
206.8294, 702.5543
207.3115, 711.2394
207.7936, 718.9102
208.2758, 726.2714
208.7579, 734.2562
209.2400, 743.1721
209.7221, 752.0530
210.2042, 760.7070
210.6863, 769.4217
211.1685, 778.5762
211.6506, 788.1766
212.1327, 797.7776
212.6148, 806.7977
213.0969, 814.8173
213.5790, 822.9172
214.0612, 831.7858
214.5433, 840.2924
215.0254, 847.5996
215.5075, 853.4669
215.9896, 858.3851
216.4717, 862.9219
216.9539, 866.8698
217.4360, 870.9545
217.9181, 876.0305
218.4002, 880.8398
218.8823, 884.0203
219.3644, 885.2245
219.8466, 885.4415
220.3287, 885.9883
220.8108, 887.0322
221.2929, 887.4623
221.7750, 887.1780
222.2571, 886.1845
222.7393, 884.3176
223.2214, 881.4655
223.7035, 878.2446
224.1856, 875.5499
224.6677, 873.3548
225.1498, 870.6517
225.6320, 867.2073
226.1141, 863.0925
226.5962, 858.2972
227.0783, 852.6617
227.5604, 846.7849
228.0425, 841.1158
228.5247, 835.6642
229.0068, 830.3948
229.4889, 825.5745
229.9710, 820.9490
230.4531, 815.8624
230.9352, 810.1303
231.4174, 804.2233
231.8995, 798.4438
232.3816, 792.7883
232.8637, 787.2833
233.3458, 782.1046
233.8279, 777.1005
234.3101, 771.5408
234.7922, 764.8889
235.2743, 758.6779
235.7564, 753.9343
236.2385, 750.2022
236.7206, 746.5687
237.2028, 742.7415
237.6849, 738.6412
238.1670, 733.8753
238.6491, 728.4994
239.1312, 722.2467
239.6133, 714.6699
240.0955, 706.3167
240.5776, 697.9685
241.0597, 690.0813
241.5418, 682.5922
242.0239, 675.4149
242.5060, 668.8659
242.9882, 662.1567
243.4703, 655.1555
243.9524, 647.8281
244.4345, 640.0888
244.9166, 631.8679
245.3987, 623.2233
245.8809, 614.6115
246.3630, 606.2784
246.8451, 597.6292
247.3272, 588.2476
247.8093, 578.5721
248.2914, 569.2581
248.7736, 560.6700
249.2557, 552.5977
249.7378, 544.2728
250.2199, 535.1737
250.7020, 526.4368
251.1841, 518.5328
251.6663, 510.9977
252.1484, 503.2441
252.6305, 494.9315
253.1126, 486.4538
253.5947, 478.8585
254.0768, 473.2295
254.5590, 467.3312
255.0411, 460.6485
255.5232, 453.7692
256.0053, 447.2703
256.4874, 441.4204
256.9695, 436.0915
257.4517, 430.9842
257.9338, 426.0522
258.4159, 421.4214
258.8980, 417.1447
259.3801, 413.1345
259.8622, 409.2975
260.3444, 405.5999
260.8265, 401.9917
261.3086, 398.3714
261.7907, 394.3344
262.2728, 390.9551
262.7549, 388.7972
263.2371, 387.0171
263.7192, 384.8485
264.2013, 382.0727
264.6834, 378.8606
265.1655, 375.3885
265.6476, 371.3517
266.1298, 367.8919
266.6119, 365.2347
267.0940, 363.0365
267.5761, 361.1988
268.0582, 359.6577
268.5403, 357.9491
269.0225, 355.4087
269.5046, 351.7238
269.9867, 348.7276
270.4688, 346.8961
270.9509, 345.5097
271.4330, 344.0416
271.9152, 342.4154
272.3973, 340.6641
272.8794, 338.8032
273.3615, 336.8161
273.8436, 334.8636
274.3257, 332.7778
274.8079, 330.8332
275.2900, 329.3813
275.7721, 328.3960
276.2542, 327.4140
276.7363, 326.0961
277.2184, 324.4500
277.7006, 322.7465
278.1827, 320.5544
278.6648, 318.6602
279.1469, 317.9069
279.6290, 318.1512
280.1111, 318.2024
280.5933, 317.2614
281.0754, 315.6021
281.5575, 314.2944
282.0396, 313.4407
282.5217, 312.8091
283.0038, 312.4430
283.4860, 312.2561
283.9681, 311.7665
284.4502, 310.6737
284.9323, 309.1992
285.4144, 307.8028
285.8965, 306.4010
286.3787, 305.2588
286.8608, 304.8089
287.3429, 304.8098
287.8250, 304.3120
288.3071, 302.8183
288.7892, 300.9433
289.2714, 299.5981
289.7535, 298.8283
290.2356, 298.1127
290.7177, 297.4192
291.1998, 296.6035
291.6819, 295.1861
292.1641, 292.8701
292.6462, 290.2901
293.1283, 288.0732
293.6104, 286.1870
294.0925, 284.5237
294.5746, 283.2017
295.0568, 282.0545
295.5389, 280.7179
296.0210, 279.0883
296.5031, 277.4579
296.9852, 276.1831
297.4673, 275.1253
297.9495, 273.8727
298.4316, 272.0866
298.9137, 270.1148
299.3958, 268.4970
299.8779, 267.2913
300.3600, 266.2166
300.8422, 265.2390
301.3243, 264.2470
301.8064, 263.0266
302.2885, 261.3545
302.7706, 259.5899
303.2527, 258.1509
303.7349, 257.0494
304.2170, 256.0162
304.6991, 254.8236
305.1812, 253.6916
305.6633, 252.9695
306.1454, 252.8450
306.6276, 252.7814
307.1097, 252.2923
307.5918, 251.4007
308.0739, 250.4663
308.5560, 249.5343
309.0381, 248.6883
309.5203, 248.0640
310.0024, 247.6892
310.4845, 247.2470
310.9666, 246.4847
311.4487, 245.4574
311.9308, 244.4150
312.4130, 243.3236
312.8951, 242.3645
313.3772, 241.7269
313.8593, 241.3714
314.3414, 241.0877
314.8235, 240.8659
315.3057, 240.6344
315.7878, 240.1917
316.2699, 239.4844
316.7520, 238.6540
317.2341, 237.5611
317.7162, 236.4165
318.1984, 235.7465
318.6805, 236.1629
319.1626, 236.9726
319.6447, 236.9068
320.1268, 235.7396
320.6089, 234.8458
321.0911, 235.5430
321.5732, 236.8504
322.0553, 237.3481
322.5374, 236.4425
323.0195, 235.1673
323.5016, 234.5893
323.9838, 234.7093
324.4659, 234.9127
324.9480, 235.0099
325.4301, 235.0468
325.9122, 235.0726
326.3943, 235.0831
326.8765, 235.1173
327.3586, 235.2208
327.8407, 235.3798
328.3228, 235.5107
328.8049, 235.5750
329.2870, 235.6326
329.7692, 235.7326
330.2513, 235.8729
330.7334, 236.0586
331.2155, 236.2491
331.6976, 236.4897
332.1797, 236.9061
332.6619, 237.5468
333.1440, 238.2637
333.6261, 239.0967
334.1082, 239.9323
334.5903, 240.4407
335.0724, 240.1809
335.5546, 239.7070
336.0367, 239.7554
336.5188, 240.3629
337.0009, 241.1377
337.4830, 241.9490
337.9651, 242.7587
338.4473, 243.4901
338.9294, 244.1125
339.4115, 244.6913
339.8936, 245.2903
340.3757, 245.9006
340.8578, 246.4050
341.3400, 246.6407
341.8221, 246.8847
342.3042, 247.5493
342.7863, 248.6806
343.2684, 249.9330
343.7505, 251.2026
344.2327, 252.4668
344.7148, 253.6400
345.1969, 254.6607
345.6790, 255.7027
346.1611, 257.0296
346.6432, 258.5922
347.1254, 260.1053
347.6075, 261.4091
348.0896, 262.6636
348.5717, 264.0716
349.0538, 265.6620
349.5359, 267.2313
350.0181, 268.5374
350.5002, 269.7032
350.9823, 271.2393
351.4644, 273.2785
351.9465, 275.5977
352.4286, 278.2250
352.9108, 281.0674
353.3929, 283.7190
353.8750, 285.9214
354.3571, 287.8521
354.8392, 289.9676
355.3214, 292.3318
355.8035, 294.6959
356.2856, 296.9446
356.7677, 299.1307
357.2498, 301.3402
357.7319, 303.5987
358.2141, 305.8900
358.6962, 308.1797
359.1783, 310.4188
359.6604, 312.9726
360.1425, 316.1200
360.6246, 319.4703
361.1068, 322.7079
361.5889, 325.8092
362.0710, 328.7276
362.5531, 331.4161
363.0352, 333.8759
363.5173, 336.2453
363.9995, 338.2137
364.4816, 340.4148
364.9637, 343.2056
365.4458, 346.4687
365.9279, 349.9532
366.4100, 353.5744
366.8922, 357.2132
367.3743, 360.4045
367.8564, 362.7446
368.3385, 365.2442
368.8206, 368.0324
369.3027, 371.0467
369.7849, 374.2420
370.2670, 377.5850
370.7491, 381.0265
371.2312, 384.5565
371.7133, 388.3924
372.1954, 391.4794
372.6776, 392.9498
373.1597, 394.4424
373.6418, 397.0502
374.1239, 400.6861
374.6060, 404.5918
375.0881, 408.2264
375.5703, 411.5838
376.0524, 414.9224
376.5345, 417.9452
377.0166, 421.3065
377.4987, 425.6828
377.9808, 430.3691
378.4630, 434.2774
378.9451, 436.9020
379.4272, 438.7818
379.9093, 441.1599
380.3914, 444.1045
380.8735, 447.5346
381.3557, 451.6677
381.8378, 456.0593
382.3199, 460.4536
382.8020, 464.7980
383.2841, 469.1031
383.7662, 473.3593
384.2484, 477.5760
384.7305, 481.7783
385.2126, 485.7536
385.6947, 489.9432
386.1768, 494.5045
386.6589, 499.3914
387.1411, 504.5854
387.6232, 510.2003
388.1053, 515.9661
388.5874, 520.7875
389.0695, 524.0650
389.5516, 527.4982
390.0338, 531.2352
390.5159, 535.4290
390.9980, 540.4732
391.4801, 546.4680
391.9622, 552.4781
392.4443, 557.1844
392.9265, 560.3948
393.4086, 564.1204
393.8907, 568.9880
394.3728, 574.0873
394.8549, 579.0285
395.3370, 583.7609
395.8192, 588.1922
396.3013, 592.4555
396.7834, 596.3765
397.2655, 599.1588
397.7476, 600.3475
398.2297, 601.5657
398.7119, 603.9093
399.1940, 606.7207
399.6761, 609.2252
400.1582, 611.3243
400.6403, 612.8515
401.1224, 613.6785
401.6046, 613.8055
402.0867, 613.0822
402.5688, 611.0980
403.0509, 608.6146
403.5330, 606.6269
404.0151, 605.1502
404.4973, 603.4728
404.9794, 601.2908
405.4615, 598.7051
405.9436, 595.9708
406.4257, 593.1805
406.9078, 589.8815
407.3900, 585.6608
407.8721, 580.5811
408.3542, 575.0958
408.8363, 569.1296
409.3184, 562.8795
409.8005, 556.4943
410.2827, 549.9586
410.7648, 543.2650
411.2469, 536.3701
411.7290, 529.4077
412.2111, 522.7087
412.6932, 516.3000
413.1754, 510.0485
413.6575, 504.0333
414.1396, 498.1191
414.6217, 492.0820
415.1038, 485.9161
415.5859, 479.8476
416.0681, 474.1597
416.5502, 468.9265
417.0323, 463.2079
417.5144, 456.3600
417.9965, 449.7791
418.4786, 443.8351
418.9608, 438.6043
419.4429, 434.1691
419.9250, 430.6007
420.4071, 427.6649
420.8892, 424.7349
421.3713, 422.0821
421.8535, 419.0141
422.3356, 415.0313
422.8177, 410.9785
423.2998, 407.5117
423.7819, 404.7006
424.2640, 402.2299
424.7462, 399.7279
425.2283, 397.1422
425.7104, 395.1646
426.1925, 394.3761
426.6746, 393.6030
427.1567, 392.1860
427.6389, 390.6359
428.1210, 389.8173
428.6031, 390.1962
429.0852, 391.2863
429.5673, 392.0631
430.0494, 392.3418
430.5316, 392.9789
431.0137, 394.0376
431.4958, 395.6442
431.9779, 398.0976
432.4600, 401.3486
432.9421, 404.7610
433.4243, 407.6941
433.9064, 410.3538
434.3885, 413.6655
434.8706, 417.7723
435.3527, 422.3345
435.8348, 427.1968
436.3170, 432.3616
436.7991, 437.9369
437.2812, 443.8695
437.7633, 450.2997
438.2454, 457.3743
438.7275, 465.0932
439.2097, 473.2649
439.6918, 481.7511
440.1739, 490.7145
440.6560, 500.4102
441.1381, 510.8355
441.6202, 521.7333
442.1024, 533.3633
442.5845, 545.2274
443.0666, 556.5244
443.5487, 567.2552
444.0308, 578.1954
444.5129, 590.0281
444.9951, 602.5878
445.4772, 614.7719
445.9593, 626.7254
446.4414, 638.1287
446.9235, 649.0593
447.4056, 659.3279
447.8878, 668.6272
448.3699, 676.8610
448.8520, 684.3085
449.3341, 691.5035
449.8162, 698.8131
450.2983, 704.6113
450.7805, 708.1355
451.2626, 711.0890
451.7447, 714.4330
452.2268, 717.9835
452.7089, 720.9718
453.1910, 722.7939
453.6732, 723.8033
454.1553, 725.4901
454.6374, 728.2431
455.1195, 731.0457
455.6016, 733.2410
456.0837, 735.7016
456.5659, 738.9798
457.0480, 743.2634
457.5301, 748.6329
458.0122, 755.1157
458.4943, 762.7402
458.9764, 771.7842
459.4586, 782.8574
459.9407, 794.5009
460.4228, 805.6440
460.9049, 816.7704
461.3870, 828.8257
461.8691, 842.3558
462.3513, 856.5709
462.8334, 870.7708
463.3155, 884.9238
463.7976, 898.2968
464.2797, 911.0890
464.7618, 922.4042
465.2440, 931.2982
465.7261, 937.8700
466.2082, 942.6232
466.6903, 946.0898
467.1724, 947.6715
467.6545, 946.5834
468.1367, 942.7960
468.6188, 936.8154
469.1009, 929.0213
469.5830, 919.3060
470.0651, 906.9255
470.5472, 890.9563
471.0294, 874.0339
471.5115, 856.9236
471.9936, 839.2167
472.4757, 820.0830
472.9578, 799.4241
473.4399, 778.0418
473.9221, 756.8557
474.4042, 735.8943
474.8863, 715.0127
475.3684, 693.5289
475.8505, 672.6443
476.3326, 652.6314
476.8148, 633.6120
477.2969, 615.8232
477.7790, 599.5074
478.2611, 584.2552
478.7432, 569.4375
479.2253, 555.0984
479.7075, 541.2514
480.1896, 527.8646
480.6717, 515.0699
481.1538, 503.0477
481.6359, 491.7532
482.1180, 480.8671
482.6002, 469.9681
483.0823, 459.4214
483.5644, 450.3570
484.0465, 443.2724
484.5286, 435.9922
485.0107, 427.0391
485.4929, 417.6660
485.9750, 409.3093
486.4571, 402.2612
486.9392, 395.7513
487.4213, 389.3840
487.9034, 383.2058
488.3856, 377.4372
488.8677, 372.1046
489.3498, 366.8903
489.8319, 361.4460
490.3140, 355.8370
490.7961, 350.8447
491.2783, 346.6413
491.7604, 342.8194
492.2425, 339.2354
492.7246, 335.8752
493.2067, 332.7929
493.6888, 330.0197
494.1710, 327.2571
494.6531, 324.0140
495.1352, 319.8636
495.6173, 316.6373
496.0994, 314.8797
496.5815, 313.3753
497.0637, 311.7642
497.5458, 309.9341
498.0279, 307.7251
498.5100, 305.0030
498.9921, 302.0620
499.4742, 299.5824
499.9564, 297.6182
500.4385, 296.0033
500.9206, 294.8797
501.4027, 293.9500
501.8848, 293.1184
502.3669, 292.3421
502.8491, 291.5430
503.3312, 290.6694
503.8133, 289.7342
504.2954, 288.7923
504.7775, 287.8701
505.2596, 286.8095
505.7418, 285.1675
506.2239, 283.5763
506.7060, 283.0137
507.1881, 283.7640
507.6702, 284.5610
508.1523, 284.8671
508.6345, 284.7799
509.1166, 284.2416
509.5987, 283.2401
510.0808, 282.6001
510.5629, 283.1234
511.0450, 284.6816
511.5272, 285.7208
512.0093, 285.8719
512.4914, 286.0216
512.9735, 286.2846
513.4556, 286.7529
513.9377, 287.5554
514.4199, 288.7147
514.9020, 290.1546
515.3841, 291.7923
515.8662, 293.6577
516.3483, 295.5002
516.8304, 297.4438
517.3126, 299.2227
517.7947, 300.3883
518.2768, 301.4492
518.7589, 303.1627
519.2410, 305.8412
519.7231, 309.0501
520.2053, 312.2907
520.6874, 315.5705
521.1695, 318.6183
521.6516, 321.0516
522.1337, 323.7005
522.6158, 327.1120
523.0980, 331.1543
523.5801, 335.4901
524.0622, 340.1977
524.5443, 344.9365
525.0264, 349.1465
525.5085, 352.9857
525.9907, 357.1386
526.4728, 361.8232
526.9549, 367.0418
527.4370, 372.9069
527.9191, 379.5702
528.4012, 386.2056
528.8834, 392.6805
529.3655, 399.1543
529.8476, 405.7592
530.3297, 412.4731
530.8118, 419.1100
531.2939, 425.5654
531.7761, 431.9507
532.2582, 438.5892
532.7403, 445.8832
533.2224, 452.6440
533.7045, 458.6025
534.1866, 464.2812
534.6688, 470.2400
535.1509, 476.2440
535.6330, 481.5072
536.1151, 485.3930
536.5972, 488.3567
537.0793, 491.8752
537.5615, 496.3262
538.0436, 499.7062
538.5257, 500.9419
539.0078, 501.1720
539.4899, 501.4471
539.9720, 501.7776
540.4542, 501.4917
540.9363, 500.3713
541.4184, 498.3947
541.9005, 495.4482
542.3826, 491.5491
542.8647, 487.0238
543.3469, 482.0119
543.8290, 476.4758
544.3111, 470.1855
544.7932, 462.9088
545.2753, 455.6172
545.7574, 448.3763
546.2396, 441.1719
546.7217, 434.2631
547.2038, 427.4448
547.6859, 420.0624
548.1680, 411.5726
548.6501, 402.2221
549.1323, 393.0552
549.6144, 383.9362
550.0965, 375.3408
550.5786, 367.5385
551.0607, 359.9942
551.5428, 352.3152
552.0250, 344.5108
552.5071, 336.9043
552.9892, 329.6996
553.4713, 322.8561
553.9534, 316.1110
554.4355, 309.4121
554.9177, 303.1134
555.3998, 297.4036
555.8819, 292.1387
556.3640, 287.0370
556.8461, 282.0857
557.3282, 277.4105
557.8104, 273.0180
558.2925, 268.9210
558.7746, 265.2036
559.2567, 261.8210
559.7388, 258.6884
560.2209, 255.7685
560.7031, 252.9896
561.1852, 250.1152
561.6673, 246.8132
562.1494, 243.8517
562.6315, 241.5672
563.1136, 239.3714
563.5958, 236.7551
564.0779, 233.7886
564.5600, 230.9389
565.0421, 228.5113
565.5242, 226.4668
566.0063, 224.6706
566.4885, 223.1123
566.9706, 221.8580
567.4527, 221.1724
567.9348, 220.6289
568.4169, 219.9518
568.8990, 219.1429
569.3812, 218.3266
569.8633, 217.6506
570.3454, 216.9702
570.8275, 215.9631
571.3096, 214.6673
571.7917, 213.6254
572.2739, 213.0934
572.7560, 212.8780
573.2381, 212.6728
573.7202, 212.5190
574.2023, 212.2181
574.6844, 211.4982
575.1666, 210.8451
575.6487, 210.6357
576.1308, 210.7746
576.6129, 210.9809
577.0950, 211.1135
577.5771, 211.1729
578.0593, 211.1030
578.5414, 210.7007
579.0235, 210.7249
579.5056, 211.3855
579.9877, 212.3291
580.4698, 213.6728
580.9520, 215.1644
581.4341, 216.2719
581.9162, 216.6688
582.3983, 216.7639
582.8804, 216.9816
583.3625, 217.3396
583.8447, 218.0452
584.3268, 219.1986
584.8089, 220.5880
585.2910, 222.0200
585.7731, 223.4972
586.2552, 225.0335
586.7374, 226.6147
587.2195, 228.2736
587.7016, 229.8982
588.1837, 231.6398
588.6658, 233.8131
589.1479, 236.4974
589.6301, 239.3920
590.1122, 242.1087
590.5943, 244.5835
591.0764, 247.4895
591.5585, 250.8212
592.0406, 254.6466
592.5228, 259.2217
593.0049, 264.1855
593.4870, 269.0732
593.9691, 273.7913
594.4512, 278.6041
594.9333, 283.8208
595.4155, 289.3830
595.8976, 294.9822
596.3797, 300.5792
596.8618, 306.3001
597.3439, 312.3666
597.8260, 318.5203
598.3082, 324.1742
598.7903, 329.3946
599.2724, 333.9535
599.7545, 337.5890
600.2366, 340.6493
600.7188, 343.6528
601.2009, 346.5153
601.6830, 348.6708
602.1651, 349.8335
602.6472, 349.8056
603.1293, 347.7062
603.6115, 342.0925
604.0936, 337.0212
604.5757, 333.4780
605.0578, 329.8965
605.5399, 325.2257
606.0220, 319.6590
606.5042, 313.9897
606.9863, 308.6461
607.4684, 303.5084
607.9505, 298.3149
608.4326, 293.0640
608.9147, 288.0475
609.3969, 283.3029
609.8790, 278.8876
610.3611, 275.0739
610.8432, 271.7770
611.3253, 268.1123
611.8074, 263.6397
612.2896, 259.1401
612.7717, 254.9736
613.2538, 251.0721
613.7359, 247.2283
614.2180, 243.3963
614.7001, 239.8864
615.1823, 237.1045
615.6644, 235.0928
616.1465, 232.9239
616.6286, 230.7260
617.1107, 228.1782
617.5928, 224.8689
618.0750, 221.3988
618.5571, 218.3713
619.0392, 215.9077
619.5213, 213.7382
620.0034, 211.7367
620.4855, 209.8696
620.9677, 208.0382
621.4498, 206.2412
621.9319, 204.5574
622.4140, 203.0631
622.8961, 201.6700
623.3782, 200.1705
623.8604, 198.5212
624.3425, 196.9231
624.8246, 195.4652
625.3067, 194.0167
625.7888, 192.4447
626.2709, 190.8101
626.7531, 189.2619
627.2352, 187.8834
627.7173, 186.5636
628.1994, 185.0459
628.6815, 183.2188
629.1636, 181.8024
629.6458, 181.1120
630.1279, 180.4937
630.6100, 179.5805
631.0921, 178.5148
631.5742, 177.5444
632.0563, 176.7249
632.5385, 176.0254
633.0206, 175.5671
633.5027, 175.1789
633.9848, 174.4783
634.4669, 173.4153
634.9490, 172.2420
635.4312, 171.0898
635.9133, 170.0044
636.3954, 169.1916
636.8775, 169.0003
637.3596, 168.6251
637.8417, 167.8935
638.3239, 167.0940
638.8060, 166.3272
639.2881, 165.6734
639.7702, 165.3226
640.2523, 165.4671
640.7344, 165.7701
641.2166, 165.5395
641.6987, 164.7502
642.1808, 163.9514
642.6629, 163.1795
643.1450, 162.5309
643.6271, 162.2361
644.1093, 162.1662
644.5914, 161.8324
645.0735, 160.8088
645.5556, 159.9234
646.0377, 159.7051
646.5198, 159.8020
647.0020, 159.7444
647.4841, 159.4335
647.9662, 158.9629
648.4483, 158.3773
648.9304, 157.7261
649.4125, 157.3699
649.8947, 157.5619
650.3768, 157.5752
650.8589, 157.1665
651.3410, 156.6402
651.8231, 156.2102
652.3052, 155.8652
652.7874, 155.4512
653.2695, 154.8014
653.7516, 154.1295
654.2337, 153.6647
654.7158, 153.4040
655.1979, 153.4122
655.6801, 153.7597
656.1622, 154.0628
656.6443, 153.8449
657.1264, 153.0636
657.6085, 152.5947
658.0906, 152.5941
658.5728, 152.6641
659.0549, 152.9077
659.5370, 153.0576
660.0191, 152.7590
660.5012, 152.0222
660.9833, 151.2508
661.4655, 150.7720
661.9476, 150.5100
662.4297, 150.2439
662.9118, 149.9669
663.3939, 149.7491
663.8760, 149.6482
664.3582, 149.5737
664.8403, 149.4652
665.3224, 149.3201
665.8045, 148.9857
666.2866, 148.0972
666.7687, 147.3692
667.2509, 147.4091
667.7330, 147.8091
668.2151, 147.8749
668.6972, 147.4371
669.1793, 146.8354
669.6614, 146.4054
670.1436, 146.1376
670.6257, 145.8999
671.1078, 145.7339
671.5899, 145.5102
672.0720, 145.0892
672.5541, 144.6664
673.0363, 144.4767
673.5184, 144.4896
674.0005, 144.3104
674.4826, 143.5073
674.9647, 142.6434
675.4468, 142.4962
675.9290, 142.7643
676.4111, 142.3745
676.8932, 140.9793
677.3753, 139.5152
677.8574, 139.1516
678.3395, 139.9488
678.8217, 140.2818
679.3038, 139.7984
679.7859, 139.2817
680.2680, 138.8119
680.7501, 138.4023
681.2322, 138.0841
681.7144, 137.8473
682.1965, 137.6082
682.6786, 137.2399
683.1607, 136.8904
683.6428, 136.9675
684.1249, 137.3853
684.6071, 137.3220
685.0892, 136.4274
685.5713, 135.3452
686.0534, 134.8072
686.5355, 134.8519
687.0176, 134.8231
687.4998, 134.8057
687.9819, 134.6164
688.4640, 134.1361
688.9461, 133.5083
689.4282, 132.7555
689.9103, 131.9649
690.3925, 131.4459
690.8746, 131.6003
691.3567, 132.0300
691.8388, 131.6187
692.3209, 130.3199
692.8030, 129.4440
693.2852, 129.5042
693.7673, 129.7769
694.2494, 129.4921
694.7315, 128.6881
695.2136, 128.0402
695.6957, 127.6101
696.1779, 127.2917
696.6600, 127.0778
697.1421, 126.9388
697.6242, 126.8951
698.1063, 126.9113
698.5884, 126.8481
699.0706, 126.5876
699.5527, 126.1925
700.0348, 125.8170
700.5169, 125.4492
700.9990, 125.1982
701.4811, 125.1830
701.9633, 125.1511
702.4454, 124.8389
702.9275, 124.3268
703.4096, 123.8716
703.8917, 123.5371
704.3738, 123.2226
704.8560, 122.7519
705.3381, 122.3510
705.8202, 122.4344
706.3023, 122.9240
706.7844, 123.2370
707.2665, 122.9567
707.7487, 122.2887
708.2308, 121.7756
708.7129, 121.4270
709.1950, 121.1970
709.6771, 121.1541
710.1592, 121.1327
710.6414, 121.1594
711.1235, 121.1134
711.6056, 120.6652
712.0877, 119.5162
712.5698, 118.5430
713.0519, 118.2812
713.5341, 118.3664
714.0162, 118.4403
714.4983, 118.4462
714.9804, 118.3797
715.4625, 118.2324
715.9446, 118.0531
716.4268, 117.9407
716.9089, 117.8983
717.3910, 117.9153
717.8731, 118.0843
718.3552, 118.1824
718.8373, 118.0902
719.3195, 117.8750
719.8016, 117.6128
720.2837, 117.3001
720.7658, 117.0202
721.2479, 116.7974
721.7300, 116.6380
722.2122, 116.6112
722.6943, 116.6602
723.1764, 116.5844
723.6585, 116.2947
724.1406, 115.9218
724.6227, 115.6874
725.1049, 115.3374
725.5870, 115.3665
726.0691, 114.7291
726.5512, 114.2108
727.0333, 113.9732
727.5154, 113.9366
727.9976, 114.1241
728.4797, 114.5223
728.9618, 114.7611
729.4439, 114.4361
729.9260, 114.0983
730.4081, 114.4182
730.8903, 115.1014
731.3724, 115.4499
731.8545, 115.2581
732.3366, 114.6828
732.8187, 113.8022
733.3008, 112.6786
733.7830, 112.0769
734.2651, 112.2605
734.7472, 112.3973
735.2293, 112.1557
735.7114, 111.9327
736.1935, 112.1229
736.6757, 112.6120
737.1578, 112.8553
737.6399, 112.5368
738.1220, 112.1215
738.6041, 111.6333
739.0862, 111.3664
739.5684, 112.2338
740.0505, 114.0845
740.5326, 115.1752
741.0147, 114.1247
741.4968, 111.7331
741.9789, 110.5011
742.4611, 110.8168
742.9432, 110.8400
743.4253, 110.0285
743.9074, 109.3743
744.3895, 109.6894
744.8716, 110.4752
745.3538, 110.7528
745.8359, 110.1830
746.3180, 109.7254
746.8001, 109.9960
747.2822, 110.4569
747.7643, 110.5185
748.2465, 110.2583
748.7286, 110.1084
749.2107, 110.2659
749.6928, 110.4611
750.1749, 110.2439
750.6570, 109.5870
751.1392, 109.0891
751.6213, 108.7804
752.1034, 108.5557
752.5855, 108.3553
753.0676, 108.2347
753.5497, 108.3252
754.0319, 108.6373
754.5140, 108.7653
754.9961, 108.4802
755.4782, 108.1213
755.9603, 107.8372
756.4424, 107.6360
756.9246, 107.5498
757.4067, 107.5637
757.8888, 107.5659
758.3709, 107.4593
758.8530, 107.2673
759.3351, 107.0391
759.8173, 106.7556
760.2994, 106.6318
760.7815, 106.8269
761.2636, 106.9850
761.7457, 106.6690
762.2278, 106.0370
762.7100, 105.8592
763.1921, 106.6065
763.6742, 107.1037
764.1563, 106.8965
764.6384, 106.4867
765.1205, 106.2460
765.6027, 106.1672
766.0848, 106.0954
766.5669, 105.9564
767.0490, 105.8277
767.5311, 105.8654
768.0132, 106.0183
768.4954, 105.9643
768.9775, 105.6566
769.4596, 105.3939
769.9417, 105.3632
770.4238, 105.3895
770.9059, 105.1312
771.3881, 104.4535
771.8702, 104.0435
772.3523, 104.1592
772.8344, 104.2233
773.3165, 104.0174
773.7986, 103.6683
774.2808, 103.2331
774.7629, 102.7778
775.2450, 102.5398
775.7271, 102.8116
776.2092, 103.2633
776.6913, 103.4061
777.1735, 103.2972
777.6556, 103.1706
778.1377, 103.0804
778.6198, 102.9395
779.1019, 102.6477
779.5840, 102.2612
780.0662, 102.0800
780.5483, 102.2468
781.0304, 102.3488
781.5125, 102.4596
781.9946, 102.4016
782.4767, 102.0186
782.9589, 101.4198
783.4410, 100.7463
783.9231, 99.95771
784.4052, 99.47295
784.8873, 99.73283
785.3694, 100.3073
785.8516, 100.8404
786.3337, 101.2157
786.8158, 101.1184
787.2979, 100.4293
787.7800, 99.56892
788.2621, 99.05492
788.7443, 98.88680
789.2264, 98.97900
789.7085, 99.45086
790.1906, 99.85408
790.6727, 100.0693
791.1548, 100.1553
791.6370, 100.1829
792.1191, 100.1452
792.6012, 99.97717
793.0833, 99.40070
793.5654, 99.02522
794.0475, 99.26656
794.5297, 99.69180
795.0118, 99.95661
795.4939, 99.97706
795.9760, 99.67425
796.4581, 98.97205
796.9402, 98.14328
797.4224, 97.58278
797.9045, 97.26326
798.3866, 97.01610
798.8687, 96.82493
799.3508, 96.74142
799.8329, 96.80702
800.3151, 96.97655
800.7972, 97.19865
801.2793, 97.56177
801.7614, 97.62231
802.2435, 96.96761
802.7256, 96.54606
803.2078, 96.83662
803.6899, 97.36385
804.1720, 97.69371
804.6541, 97.75529
805.1362, 97.59896
805.6183, 97.00229
806.1005, 96.49316
806.5826, 96.80504
807.0647, 97.58808
807.5468, 98.00844
808.0289, 97.95547
808.5110, 97.90812
808.9932, 98.21989
809.4753, 98.72312
809.9574, 98.96970
810.4395, 98.91193
810.9216, 98.82322
811.4037, 98.78205
811.8859, 98.60125
812.3680, 98.07091
812.8501, 97.39651
813.3322, 96.83840
813.8143, 96.39613
814.2964, 96.16157
814.7786, 96.51443
815.2607, 96.69691
815.7428, 95.92764
816.2249, 94.87258
816.7070, 94.65249
817.1891, 95.33369
817.6713, 95.88888
818.1534, 95.46545
818.6355, 94.54089
819.1176, 94.05015
819.5997, 93.93233
820.0818, 93.67817
820.5640, 93.17693
821.0461, 92.72327
821.5282, 92.51958
822.0103, 92.52148
822.4924, 92.61630
822.9745, 92.98116
823.4567, 93.04182
823.9388, 92.57827
824.4209, 92.06589
824.9030, 91.63151
825.3851, 91.26370
825.8672, 90.90586
826.3494, 90.55433
826.8315, 90.38960
827.3136, 90.73444
827.7957, 91.07544
828.2778, 90.92692
828.7599, 90.47884
829.2421, 90.05267
829.7242, 89.72841
830.2063, 89.46693
830.6884, 89.22332
831.1705, 89.05956
831.6526, 89.16782
832.1348, 89.55650
832.6169, 89.96272
833.0990, 90.44487
833.5811, 90.61818
834.0632, 90.08553
834.5453, 89.22160
835.0275, 88.88772
835.5096, 89.38089
835.9917, 89.51688
836.4738, 88.84739
836.9559, 88.34016
837.4380, 88.44477
837.9202, 88.83936
838.4023, 89.24162
838.8844, 89.56739
839.3665, 89.70130
839.8486, 89.52393
840.3307, 89.20176
840.8129, 88.79565
841.2950, 88.40381
841.7771, 88.21878
842.2592, 88.26639
842.7413, 88.52965
843.2234, 89.02145
843.7056, 89.56306
844.1877, 89.76340
844.6698, 89.59286
845.1519, 89.42654
845.6340, 89.24794
846.1161, 89.14420
846.5983, 89.12495
847.0804, 89.22322
847.5625, 89.51644
848.0446, 90.01614
848.5267, 90.50842
849.0089, 91.09026
849.4910, 91.52649
849.9731, 91.59630
850.4552, 91.61458
850.9373, 91.91102
851.4194, 92.42027
851.9016, 92.81557
852.3837, 92.90939
852.8658, 93.02930
853.3479, 93.67622
853.8300, 94.46336
854.3121, 94.60231
854.7943, 94.17454
855.2764, 93.81201
855.7585, 93.78712
856.2406, 93.98331
856.7227, 94.31682
857.2048, 94.75208
857.6870, 94.76750
858.1691, 94.20656
858.6512, 93.86943
859.1333, 94.10216
859.6154, 94.37662
860.0975, 94.18124
860.5797, 93.61208
861.0618, 93.23359
861.5439, 93.34602
862.0260, 93.14577
862.5081, 92.16599
862.9902, 91.23643
863.4724, 90.94923
863.9545, 91.01135
864.4366, 90.89267
864.9187, 90.46571
865.4008, 90.02666
865.8829, 89.82600
866.3651, 89.67110
866.8472, 89.25308
867.3293, 88.71561
867.8114, 88.43388
868.2935, 88.46753
868.7756, 88.57413
869.2578, 88.58179
869.7399, 88.49372
870.2220, 88.31184
870.7041, 88.03440
871.1862, 87.64722
871.6683, 87.06634
872.1505, 86.68826
872.6326, 86.77193
873.1147, 87.11690
873.5968, 87.42637
874.0789, 87.73526
874.5610, 87.80927
875.0432, 87.34530
875.5253, 87.05566
876.0074, 87.37400
876.4895, 87.71191
876.9716, 87.44736
877.4537, 86.73486
877.9359, 86.27579
878.4180, 86.36962
878.9001, 86.59270
879.3822, 86.80824
879.8643, 86.92603
880.3464, 86.76812
880.8286, 86.42881
881.3107, 86.17681
881.7928, 86.10686
882.2749, 86.08247
882.7570, 85.91824
883.2391, 85.70341
883.7213, 85.72672
884.2034, 85.97974
884.6855, 86.41476
885.1676, 87.07854
885.6497, 87.47910
886.1318, 87.17516
886.6140, 86.38029
887.0961, 85.80643
887.5782, 85.46369
888.0603, 85.32626
888.5424, 85.57703
889.0245, 85.77998
889.5067, 85.69936
889.9888, 85.51572
890.4709, 85.45844
890.9530, 85.53398
891.4351, 85.51029
891.9172, 85.20258
892.3994, 84.95691
892.8815, 84.93050
893.3636, 85.01894
893.8457, 85.19762
894.3278, 85.39101
894.8099, 85.42334
895.2921, 85.20513
895.7742, 84.94001
896.2563, 84.73631
896.7384, 84.65823
897.2205, 84.94270
897.7026, 85.47488
898.1848, 85.75313
898.6669, 85.63293
899.1490, 85.46716
899.6311, 85.62418
900.1132, 85.54592
900.5953, 85.49931
901.0775, 85.65310
901.5596, 85.47688
902.0417, 85.58311
902.5238, 85.75911
903.0059, 85.90975
903.4880, 86.01566
903.9702, 86.01286
904.4523, 85.82374
904.9344, 85.83768
905.4165, 86.30016
905.8986, 86.64600
906.3807, 86.67209
906.8629, 86.59517
907.3450, 86.58406
907.8271, 86.63960
908.3092, 86.71455
908.7913, 86.83642
909.2734, 86.89532
909.7556, 86.86463
910.2377, 86.73146
910.7198, 86.33679
911.2019, 85.87389
911.6840, 85.74589
912.1661, 86.05028
912.6483, 86.45830
913.1304, 86.76026
913.6125, 86.94334
914.0946, 86.89754
914.5767, 86.71549
915.0588, 86.75758
915.5410, 87.05312
916.0231, 87.21195
916.5052, 86.96804
916.9873, 86.55858
917.4694, 86.46610
917.9515, 86.70521
918.4337, 86.84922
918.9158, 86.88091
919.3979, 86.88667
919.8800, 86.89163
920.3621, 86.88703
920.8442, 86.84998
921.3264, 86.78947
921.8085, 86.80013
922.2906, 86.84209
922.7727, 87.02402
923.2548, 87.44469
923.7369, 87.89815
924.2191, 88.39368
924.7012, 88.81328
925.1833, 88.92278
925.6654, 88.68133
926.1475, 88.54893
926.6296, 88.92215
927.1118, 89.13060
927.5939, 88.61366
928.0760, 87.91096
928.5581, 87.53423
929.0402, 87.54411
929.5223, 87.88270
930.0045, 88.56296
930.4866, 89.30261
930.9687, 89.98361
931.4508, 90.48083
931.9329, 90.47710
932.4150, 90.11587
932.8972, 89.83598
933.3793, 89.76614
933.8614, 89.81628
934.3435, 89.91289
934.8256, 90.06686
935.3077, 90.36013
935.7899, 90.77232
936.2720, 91.00724
936.7541, 91.02872
937.2362, 90.88015
937.7183, 90.53227
938.2004, 90.18324
938.6826, 90.13942
939.1647, 90.40736
939.6468, 90.70374
940.1289, 91.05946
940.6110, 91.36787
941.0931, 91.60519
941.5753, 91.79246
942.0574, 91.94718
942.5395, 92.06215
943.0216, 92.11732
943.5037, 92.09122
943.9858, 92.07166
944.4680, 92.01553
944.9501, 92.02866
945.4322, 92.19670
945.9143, 92.42088
946.3964, 92.61343
946.8785, 92.76601
947.3607, 92.89916
947.8428, 93.04626
948.3249, 93.11953
948.8070, 92.75169
949.2891, 92.56154
949.7712, 93.52401
950.2534, 95.00507
950.7355, 95.56947
951.2176, 94.93600
951.6997, 94.26052
952.1818, 94.43433
952.6639, 95.00970
953.1461, 95.51015
953.6282, 95.90173
954.1103, 96.00305
954.5924, 95.86889
955.0745, 95.92012
955.5566, 96.37019
956.0388, 96.90913
956.5209, 97.07293
957.0030, 97.40506
957.4851, 97.64497
957.9672, 97.66277
958.4493, 97.91567
958.9315, 97.75822
959.4136, 97.64417
959.8957, 97.92518
960.3778, 98.44702
960.8599, 98.72620
961.3420, 98.55364
961.8242, 99.36659
962.3063, 101.9248
962.7884, 103.5435
963.2705, 102.9275
963.7526, 101.5707
964.2347, 100.8136
964.7169, 100.6200
965.1990, 100.7231
965.6811, 101.3835
966.1632, 101.9437
966.6453, 102.3890
967.1274, 102.7498
967.6096, 102.9210
968.0917, 103.0863
968.5738, 103.4795
969.0559, 104.1117
969.5380, 104.8078
970.0201, 105.5644
970.5023, 106.3340
970.9844, 107.4118
971.4665, 108.2180
971.9486, 107.9450
972.4307, 107.1447
972.9128, 106.9857
973.3950, 107.7646
973.8771, 108.6669
974.3592, 109.3185
974.8413, 109.7849
975.3234, 109.9077
975.8055, 110.0049
976.2877, 110.5915
976.7698, 111.6288
977.2519, 112.8141
977.7340, 114.0199
978.2161, 114.9512
978.6982, 114.9822
979.1804, 114.6775
979.6625, 115.0895
980.1446, 116.1206
980.6267, 117.5562
981.1088, 119.2539
981.5909, 120.5737
982.0731, 121.0256
982.5552, 121.1494
983.0373, 122.0025
983.5194, 123.4620
984.0015, 124.6324
984.4836, 125.4905
984.9658, 126.2729
985.4479, 127.0403
985.9300, 127.8849
986.4121, 128.9008
986.8942, 130.0468
987.3763, 131.0923
987.8585, 131.9460
988.3406, 133.3801
988.8227, 135.5986
989.3048, 137.8281
989.7869, 139.7001
990.2690, 141.5259
990.7512, 143.7513
991.2333, 146.3055
991.7154, 148.1908
992.1975, 148.7225
992.6796, 150.0574
993.1617, 152.7286
993.6439, 155.6721
994.1260, 158.4207
994.6081, 161.1601
995.0902, 164.2314
995.5723, 167.6505
996.0544, 170.8894
996.5366, 173.5368
997.0187, 176.5880
997.5008, 180.5726
997.9829, 184.6300
998.4650, 188.0053
998.9471, 191.2148
999.4293, 195.1009
999.9114, 199.7955
1000.393, 204.8726
1000.876, 210.3774
1001.358, 216.0087
1001.840, 221.3804
1002.322, 226.9827
1002.804, 233.3139
1003.286, 240.2370
1003.768, 247.5283
1004.250, 255.1245
1004.733, 262.5571
1005.215, 269.2123
1005.697, 275.9567
1006.179, 283.2881
1006.661, 291.1515
1007.143, 299.2432
1007.625, 307.7466
1008.107, 317.5546
1008.589, 329.0682
1009.072, 341.0916
1009.554, 352.5247
1010.036, 363.9024
1010.518, 375.4312
1011.000, 387.5800
1011.482, 401.3088
1011.964, 416.7443
1012.446, 433.6068
1012.929, 451.9143
1013.411, 471.4303
1013.893, 491.4814
1014.375, 512.7670
1014.857, 537.1166
1015.339, 564.0536
1015.821, 592.3387
1016.303, 621.5599
1016.785, 651.8172
1017.268, 683.3546
1017.750, 715.0824
1018.232, 746.0986
1018.714, 776.0936
1019.196, 804.6708
1019.678, 831.4302
1020.160, 854.6169
1020.642, 873.8080
1021.125, 886.8864
1021.607, 892.2610
1022.089, 890.5104
1022.571, 882.7546
1023.053, 868.9857
1023.535, 849.5668
1024.017, 824.3566
1024.499, 797.2714
1024.981, 769.3954
1025.464, 740.3555
1025.946, 709.6365
1026.428, 678.0635
1026.910, 648.0995
1027.392, 619.7404
1027.874, 593.0898
1028.356, 568.2515
1028.838, 544.5801
1029.321, 521.7107
1029.803, 500.3630
1030.285, 481.2133
1030.767, 463.8587
1031.249, 446.4959
1031.731, 428.7964
1032.213, 412.0835
1032.695, 396.2953
1033.177, 381.6336
1033.660, 368.3281
1034.142, 356.0146
1034.624, 344.3544
1035.106, 333.3114
1035.588, 323.2112
1036.070, 314.3040
1036.552, 305.7496
1037.034, 297.5577
1037.516, 289.6793
1037.999, 282.1889
1038.481, 274.9951
1038.963, 267.8958
1039.445, 260.9763
1039.927, 254.8956
1040.409, 249.7635
1040.891, 245.2789
1041.373, 241.9498
1041.855, 238.6387
1042.338, 234.8651
1042.820, 230.9969
1043.302, 227.3562
1043.784, 223.9487
1044.266, 220.6954
1044.748, 217.7400
1045.230, 214.7138
1045.712, 211.0992
1046.195, 208.0288
1046.677, 206.1885
1047.159, 204.9338
1047.641, 203.6564
1048.123, 202.3295
1048.605, 200.9732
1049.087, 199.5152
1049.569, 198.1488
1050.052, 196.9304
1050.534, 195.7803
1051.016, 194.4702
1051.498, 193.3437
1051.980, 192.8699
1052.462, 192.9728
1052.944, 193.0526
1053.426, 192.8663
1053.908, 192.9290
1054.391, 193.7707
1054.873, 194.4083
1055.355, 194.0595
1055.837, 193.4393
1056.319, 193.2935
1056.801, 193.6683
1057.283, 194.3870
1057.765, 195.6170
1058.248, 196.6850
1058.730, 197.3535
1059.212, 197.8629
1059.694, 198.1515
1060.176, 198.4925
1060.658, 199.3688
1061.140, 200.6124
1061.622, 201.3896
1062.104, 201.3252
1062.587, 201.2097
1063.069, 201.0722
1063.551, 201.2504
1064.033, 202.2597
1064.515, 203.4700
1064.997, 204.0720
1065.479, 204.1800
1065.961, 204.4881
1066.443, 205.1495
1066.926, 206.1817
1067.408, 207.7001
1067.890, 209.4635
1068.372, 211.5712
1068.854, 213.6770
1069.336, 215.3048
1069.818, 216.5828
1070.300, 218.0785
1070.782, 220.0012
1071.265, 221.9533
1071.747, 223.6209
1072.229, 225.4422
1072.711, 227.7644
1073.193, 230.3205
1073.675, 232.8376
1074.157, 235.2876
1074.639, 237.7084
1075.122, 240.1017
1075.604, 242.5652
1076.086, 245.0462
1076.568, 247.7298
1077.050, 250.7863
1077.532, 254.0519
1078.014, 257.4127
1078.496, 260.8123
1078.979, 264.0865
1079.461, 267.1757
1079.943, 270.5617
1080.425, 274.3634
1080.907, 278.6078
1081.389, 283.6582
1081.871, 288.8323
1082.353, 293.4286
1082.835, 297.6451
1083.318, 301.9065
1083.800, 306.3110
1084.282, 311.0981
1084.764, 316.6196
1085.246, 322.2391
1085.728, 327.3091
1086.210, 332.6517
1086.692, 339.2184
1087.175, 346.4955
1087.657, 353.3770
1088.139, 359.7077
1088.621, 366.3845
1089.103, 374.2964
1089.585, 381.8736
1090.067, 387.6037
1090.549, 393.5808
1091.031, 401.4318
1091.514, 410.5580
1091.996, 420.1697
1092.478, 430.0302
1092.960, 439.5349
1093.442, 448.4896
1093.924, 457.0241
1094.406, 465.0730
1094.888, 472.9477
1095.370, 480.4658
1095.853, 488.2066
1096.335, 497.0414
1096.817, 506.8557
1097.299, 516.5540
1097.781, 525.9661
1098.263, 534.9680
1098.745, 543.3005
1099.227, 551.4846
1099.709, 560.1749
1100.192, 568.5844
1100.674, 575.6614
1101.156, 581.6839
1101.638, 587.7714
1102.120, 594.2664
1102.602, 600.3362
1103.084, 606.3559
1103.566, 611.1917
1104.049, 614.2753
1104.531, 616.1087
1105.013, 616.8020
1105.495, 616.6794
1105.977, 616.4027
1106.459, 616.0723
1106.941, 615.4097
1107.423, 615.4951
1107.906, 613.6706
1108.388, 608.9476
1108.870, 602.4167
1109.352, 594.5750
1109.834, 585.5248
1110.316, 575.2894
1110.798, 563.7698
1111.280, 552.0047
1111.762, 539.5768
1112.245, 527.6087
1112.727, 516.8792
1113.209, 505.8362
1113.691, 493.2922
1114.173, 480.3547
1114.655, 468.2202
1115.137, 456.9294
1115.619, 446.3429
1116.102, 436.8246
1116.584, 427.4193
1117.066, 418.3531
1117.548, 409.0434
1118.030, 399.0305
1118.512, 388.8881
1118.994, 378.8707
1119.476, 369.1519
1119.958, 360.4722
1120.441, 353.1092
1120.923, 345.8959
1121.405, 338.8241
1121.887, 331.9598
1122.369, 325.2477
1122.851, 318.9715
1123.333, 313.4701
1123.815, 308.4249
1124.297, 303.0811
1124.780, 297.4095
1125.262, 292.0314
1125.744, 286.9687
1126.226, 282.2256
1126.708, 277.8340
1127.190, 273.6435
1127.672, 269.5372
1128.154, 265.6780
1128.636, 262.3451
1129.119, 259.4686
1129.601, 256.5480
1130.083, 253.5686
1130.565, 250.4197
1131.047, 247.0339
1131.529, 244.1804
1132.011, 242.2569
1132.493, 240.4160
1132.976, 237.7592
1133.458, 234.6198
1133.940, 231.9126
1134.422, 229.6175
1134.904, 227.6399
1135.386, 225.9539
1135.868, 223.9538
1136.350, 221.4892
1136.833, 219.3552
1137.315, 218.1636
1137.797, 217.2332
1138.279, 215.3295
1138.761, 212.7577
1139.243, 210.4294
1139.725, 208.4028
1140.207, 207.1031
1140.689, 206.4317
1141.172, 205.3431
1141.654, 203.3423
1142.136, 201.1329
1142.618, 199.5584
1143.100, 198.1610
1143.582, 195.9742
1144.064, 193.4627
1144.546, 191.6043
1145.029, 190.3407
1145.511, 189.1605
1145.993, 187.9121
1146.475, 186.8642
1146.957, 186.4370
1147.439, 185.6629
1147.921, 183.1608
1148.403, 180.1262
1148.885, 177.8909
1149.368, 176.2885
1149.850, 174.9089
1150.332, 173.6877
1150.814, 172.7801
1151.296, 172.3457
1151.778, 171.6983
1152.260, 170.1331
1152.742, 168.5660
1153.224, 167.7436
1153.707, 167.1295
1154.189, 166.0658
1154.671, 164.7343
1155.153, 163.7671
1155.635, 163.2948
1156.117, 162.4562
1156.599, 160.5973
1157.081, 158.8790
1157.563, 157.6127
1158.046, 156.6479
1158.528, 156.0116
1159.010, 155.5509
1159.492, 155.1573
1159.974, 154.7870
1160.456, 154.1541
1160.938, 152.8941
1161.420, 152.0374
1161.903, 152.0633
1162.385, 151.8641
1162.867, 150.9357
1163.349, 149.9160
1163.831, 149.3384
1164.313, 149.0036
1164.795, 148.3841
1165.277, 148.0427
1165.760, 147.7513
1166.242, 147.2151
1166.724, 147.2217
1167.206, 146.6376
1167.688, 146.2450
1168.170, 146.5528
1168.652, 146.9297
1169.134, 146.5044
1169.616, 145.5029
1170.099, 144.9938
1170.581, 144.9818
1171.063, 145.1671
1171.545, 145.5343
1172.027, 145.5700
1172.509, 145.1140
1172.991, 144.4647
1173.473, 143.8005
1173.956, 143.3531
1174.438, 143.7177
1174.920, 144.5756
1175.402, 144.9062
1175.884, 144.7962
1176.366, 144.4968
1176.848, 144.1161
1177.330, 143.8708
1177.813, 143.8596
1178.295, 144.1306
1178.777, 144.9100
1179.259, 145.7267
1179.741, 146.0055
1180.223, 145.9387
1180.705, 145.7532
1181.187, 145.4652
1181.669, 144.9665
1182.151, 144.3163
1182.634, 143.8717
1183.116, 143.8374
1183.598, 143.8757
1184.080, 143.9873
1184.562, 143.8760
1185.044, 142.8405
1185.526, 141.8981
1186.008, 142.4415
1186.490, 143.8529
1186.973, 144.4559
1187.455, 143.9272
1187.937, 143.5245
1188.419, 143.3496
1188.901, 143.5348
1189.383, 144.6143
1189.865, 145.4646
1190.347, 145.2127
1190.830, 144.6889
1191.312, 144.9119
1191.794, 145.6476
1192.276, 145.6731
1192.758, 144.5671
1193.240, 144.2552
1193.722, 145.1151
1194.204, 145.5911
1194.687, 145.1689
1195.169, 144.8226
1195.651, 145.2011
1196.133, 145.2441
1196.615, 146.2675
1197.097, 146.3974
1197.579, 147.2122
1198.061, 148.6422
1198.543, 149.1382
1199.026, 148.6175
1199.508, 148.0597
1199.990, 147.8087
1200.472, 147.8203
1200.954, 148.0993
1201.436, 148.4378
1201.918, 148.4922
1202.400, 148.3966
1202.883, 148.3960
1203.365, 148.4770
1203.847, 148.6418
1204.329, 148.8364
1204.811, 148.8940
1205.293, 148.7568
1205.775, 148.5800
1206.257, 148.3810
1206.740, 148.3042
1207.222, 148.6183
1207.704, 148.9433
1208.186, 148.8374
1208.668, 148.5680
1209.150, 148.6032
1209.632, 148.9093
1210.114, 149.0574
1210.596, 148.9302
1211.078, 148.7173
1211.561, 148.2382
1212.043, 147.9757
1212.525, 148.3815
1213.007, 148.7104
1213.489, 148.2813
1213.971, 148.6223
1214.453, 147.7236
1214.935, 148.4703
1215.417, 148.6487
1215.900, 148.1028
1216.382, 147.5365
1216.864, 146.9281
1217.346, 146.6292
1217.828, 146.8325
1218.310, 146.9194
1218.792, 146.3927
1219.274, 145.5535
1219.757, 144.8556
1220.239, 144.3515
1220.721, 144.5124
1221.203, 144.0181
1221.685, 143.7192
1222.167, 143.8002
1222.649, 143.1588
1223.131, 143.3250
1223.614, 143.5093
1224.096, 143.1578
1224.578, 142.4297
1225.060, 141.1958
1225.542, 139.9543
1226.024, 139.3533
1226.506, 139.1367
1226.988, 139.0697
1227.470, 138.9449
1227.953, 138.2888
1228.435, 136.9501
1228.917, 135.7871
1229.399, 135.2101
1229.881, 134.7516
1230.363, 134.3595
1230.845, 133.9188
1231.327, 133.3552
1231.810, 132.7127
1232.292, 131.9996
1232.774, 131.2502
1233.256, 130.5750
1233.738, 129.8890
1234.220, 129.7064
1234.702, 130.2911
1235.184, 130.5088
1235.667, 130.1020
1236.149, 129.4841
1236.631, 128.8297
1237.113, 128.2691
1237.595, 128.0278
1238.077, 127.8725
1238.559, 126.9332
1239.041, 125.4279
1239.523, 124.4772
1240.005, 124.0430
1240.488, 123.7042
1240.970, 123.3722
1241.452, 123.1749
1241.934, 123.1750
1242.416, 123.1967
1242.898, 123.0846
1243.380, 122.9076
1243.862, 122.7088
1244.344, 122.5039
1244.827, 122.3557
1245.309, 122.1882
1245.791, 121.8048
1246.273, 121.2572
1246.755, 120.8783
1247.237, 120.7104
1247.719, 120.8607
1248.201, 121.8184
1248.684, 122.4430
1249.166, 122.4414
1249.648, 121.9287
1250.130, 120.4961
1250.612, 119.0838
1251.094, 119.1241
1251.576, 120.3097
1252.058, 120.5957
1252.541, 119.8332
1253.023, 119.1727
1253.505, 118.6094
1253.987, 118.6657
1254.469, 119.4749
1254.951, 120.3069
1255.433, 120.7493
1255.915, 120.8809
1256.397, 120.7156
1256.880, 120.4178
1257.362, 120.2802
1257.844, 120.2680
1258.326, 120.3719
1258.808, 120.5232
1259.290, 120.5647
1259.772, 120.4946
1260.254, 120.4566
1260.737, 120.5167
1261.219, 120.5508
1261.701, 120.4168
1262.183, 120.3445
1262.665, 120.6073
1263.147, 120.8006
1263.629, 120.4692
1264.111, 119.9876
1264.594, 119.9602
1265.076, 120.2996
1265.558, 120.4068
1266.040, 120.2222
1266.522, 119.9701
1267.004, 119.5039
1267.486, 119.5555
1267.968, 120.3919
1268.450, 121.1372
1268.932, 121.3425
1269.415, 121.2914
1269.897, 121.2991
1270.379, 121.2950
1270.861, 121.0174
1271.343, 121.0855
1271.825, 120.6385
1272.307, 120.9266
1272.789, 120.9362
1273.271, 120.6385
1273.754, 120.2931
1274.236, 120.0067
1274.718, 119.9824
1275.200, 120.6923
1275.682, 121.1963
1276.164, 120.7118
1276.646, 120.0714
1277.128, 119.7773
1277.611, 119.7375
1278.093, 119.8064
1278.575, 120.0060
1279.057, 120.5340
1279.539, 121.4972
1280.021, 121.9365
1280.503, 121.5842
1280.985, 121.4148
1281.468, 121.6229
1281.950, 121.7669
1282.432, 121.6572
1282.914, 121.5993
1283.396, 121.8871
1283.878, 122.2220
1284.360, 121.9347
1284.842, 121.2354
1285.324, 120.7397
##END=



