##NAMES=Cacoxenite
##RRUFFID=R070141
##IDEAL CHEMISTRY=Fe^3+^_24_AlO_6_(PO_4_)_17_(OH)_12_&#183;75H_2_O
##LOCALITY=Rotl√§ufchen Mine, Waldgirmes, Wetzlar, Hesse, Germany
##OWNER=RRUFF
##SOURCE=Michael Scott
##DESCRIPTION=Radial aggregates of brownish yellow acicular crystals
##STATUS=The identification of this mineral has been confirmed by single-crystal X-ray diffraction.
##URL=rruff.info/R070141
153.5564, 685.2641
154.0385, 679.1290
154.5206, 674.1157
155.0028, 674.9285
155.4849, 677.8088
155.9670, 676.4128
156.4491, 661.2110
156.9312, 647.5338
157.4133, 642.8390
157.8955, 654.0066
158.3776, 664.4875
158.8597, 670.8737
159.3418, 673.3997
159.8239, 672.9641
160.3060, 667.7099
160.7882, 660.8221
161.2703, 654.4749
161.7524, 647.8110
162.2345, 643.1534
162.7166, 643.2565
163.1987, 647.4745
163.6808, 649.5242
164.1630, 642.9104
164.6451, 633.7520
165.1272, 628.6250
165.6093, 636.7845
166.0914, 644.7747
166.5735, 642.3942
167.0557, 628.6380
167.5378, 615.0990
168.0199, 608.8548
168.5020, 607.9301
168.9841, 609.1133
169.4662, 613.7045
169.9484, 618.2844
170.4305, 619.0743
170.9126, 614.7941
171.3947, 610.2322
171.8768, 609.8053
172.3589, 612.4357
172.8411, 615.1201
173.3232, 616.4443
173.8053, 616.7545
174.2874, 616.2534
174.7695, 614.4178
175.2516, 612.8349
175.7338, 613.6349
176.2159, 616.5024
176.6980, 619.5401
177.1801, 621.6769
177.6622, 623.0526
178.1443, 623.9177
178.6264, 624.3076
179.1086, 624.2596
179.5907, 622.7413
180.0728, 619.8342
180.5549, 618.8896
181.0370, 624.2503
181.5191, 634.2482
182.0013, 643.7443
182.4834, 651.3443
182.9655, 657.1254
183.4476, 660.8037
183.9297, 662.0894
184.4118, 663.2611
184.8940, 667.3650
185.3761, 673.9733
185.8582, 680.0996
186.3403, 683.5121
186.8224, 685.2161
187.3046, 689.8034
187.7867, 698.0511
188.2688, 707.2187
188.7509, 712.9227
189.2330, 715.2743
189.7151, 717.6275
190.1973, 721.4446
190.6794, 726.7077
191.1615, 733.9740
191.6436, 744.4349
192.1257, 755.2623
192.6078, 759.0143
193.0900, 755.0919
193.5721, 752.5643
194.0542, 759.4576
194.5363, 775.3797
195.0184, 787.2332
195.5005, 792.7155
195.9826, 793.3407
196.4648, 793.4218
196.9469, 793.0867
197.4290, 791.5872
197.9111, 787.9910
198.3932, 782.1730
198.8753, 776.0747
199.3575, 770.0123
199.8396, 763.9584
200.3217, 757.3091
200.8038, 749.5854
201.2859, 742.8597
201.7680, 739.3275
202.2502, 739.2676
202.7323, 740.6369
203.2144, 743.5363
203.6965, 747.8157
204.1786, 750.9182
204.6607, 753.4061
205.1429, 753.6282
205.6250, 746.7330
206.1071, 729.0104
206.5892, 719.5938
207.0713, 727.2287
207.5534, 753.5513
208.0356, 773.1323
208.5177, 784.6133
208.9998, 790.9650
209.4819, 796.9653
209.9640, 803.1876
210.4461, 807.4141
210.9282, 807.3903
211.4104, 801.0286
211.8925, 801.1093
212.3746, 809.9887
212.8567, 823.6953
213.3388, 833.7965
213.8209, 839.0277
214.3031, 843.6492
214.7852, 849.6604
215.2673, 857.5883
215.7494, 865.0462
216.2315, 872.0802
216.7136, 878.5862
217.1958, 883.7592
217.6779, 885.7638
218.1600, 889.7927
218.6421, 899.5169
219.1242, 918.4118
219.6063, 934.0392
220.0885, 945.8824
220.5706, 953.9391
221.0527, 957.7393
221.5348, 954.3298
222.0169, 951.0750
222.4990, 953.7617
222.9812, 967.4559
223.4633, 974.7991
223.9454, 970.9371
224.4275, 957.8383
224.9096, 952.8568
225.3917, 959.8894
225.8739, 970.0031
226.3560, 976.6221
226.8381, 979.0601
227.3202, 979.3972
227.8023, 976.8865
228.2844, 971.7283
228.7665, 969.5496
229.2487, 972.5808
229.7308, 976.2419
230.2129, 976.5080
230.6950, 972.2216
231.1771, 966.5736
231.6592, 958.9122
232.1414, 949.0064
232.6235, 943.6927
233.1056, 945.0088
233.5877, 949.0629
234.0698, 951.8045
234.5519, 952.6268
235.0341, 953.2159
235.5162, 953.9161
235.9983, 954.7527
236.4804, 955.4810
236.9625, 956.2507
237.4446, 956.7924
237.9268, 956.4219
238.4089, 953.0237
238.8910, 952.3132
239.3731, 956.3203
239.8552, 966.0842
240.3373, 975.1938
240.8195, 984.5400
241.3016, 992.6162
241.7837, 997.4799
242.2658, 999.0032
242.7479, 997.4207
243.2300, 991.5068
243.7122, 978.8516
244.1943, 972.1120
244.6764, 974.1896
245.1585, 980.4984
245.6406, 983.2901
246.1227, 979.9174
246.6048, 977.3677
247.0870, 977.9547
247.5691, 982.3321
248.0512, 987.9673
248.5333, 996.4651
249.0154, 1005.422
249.4975, 1009.861
249.9797, 1006.664
250.4618, 1004.257
250.9439, 1006.170
251.4260, 1014.520
251.9081, 1020.899
252.3902, 1024.230
252.8724, 1026.125
253.3545, 1031.201
253.8366, 1044.313
254.3187, 1052.073
254.8008, 1046.759
255.2829, 1019.421
255.7651, 1003.836
256.2472, 1003.692
256.7293, 1013.658
257.2114, 1021.482
257.6935, 1027.843
258.1756, 1030.814
258.6577, 1028.527
259.1399, 1017.972
259.6220, 1011.491
260.1041, 1012.400
260.5862, 1016.189
261.0683, 1009.659
261.5504, 988.0058
262.0326, 965.7163
262.5147, 949.9589
262.9968, 943.0245
263.4789, 935.1565
263.9610, 924.9811
264.4431, 914.1549
264.9253, 908.7921
265.4074, 912.2552
265.8895, 913.6165
266.3716, 905.2785
266.8537, 883.1953
267.3358, 868.2358
267.8180, 863.3929
268.3001, 865.2057
268.7822, 863.9601
269.2643, 858.7765
269.7464, 852.7612
270.2285, 847.6682
270.7107, 843.9194
271.1928, 838.5038
271.6749, 829.6783
272.1570, 820.0106
272.6391, 818.8901
273.1212, 829.5602
273.6034, 838.2097
274.0855, 834.1738
274.5676, 814.9636
275.0497, 803.5506
275.5318, 803.3031
276.0139, 810.5820
276.4961, 816.3351
276.9782, 820.4507
277.4603, 823.5273
277.9424, 825.1903
278.4245, 825.2817
278.9066, 828.0471
279.3888, 835.6647
279.8709, 844.3317
280.3530, 842.3155
280.8351, 827.7831
281.3172, 814.2990
281.7993, 812.4064
282.2815, 821.7905
282.7636, 826.9820
283.2457, 825.4729
283.7278, 820.3807
284.2099, 818.3781
284.6920, 819.6160
285.1741, 822.0103
285.6563, 824.6599
286.1384, 827.5105
286.6205, 830.0079
287.1026, 832.4793
287.5847, 833.9688
288.0668, 832.1347
288.5490, 826.9819
289.0311, 821.1823
289.5132, 814.0009
289.9953, 806.8896
290.4774, 807.3802
290.9595, 818.0308
291.4417, 832.8417
291.9238, 843.2513
292.4059, 849.2180
292.8880, 851.3417
293.3701, 849.9373
293.8522, 844.9235
294.3344, 833.4073
294.8165, 811.5317
295.2986, 792.2575
295.7807, 800.9595
296.2628, 832.7728
296.7449, 859.5119
297.2271, 858.5337
297.7092, 840.9418
298.1913, 829.4891
298.6734, 827.1246
299.1555, 830.0916
299.6376, 837.4091
300.1198, 847.4005
300.6019, 853.7229
301.0840, 847.8632
301.5661, 837.4064
302.0482, 835.3112
302.5303, 844.5629
303.0125, 855.2101
303.4946, 855.1470
303.9767, 848.3257
304.4588, 845.4741
304.9409, 857.3003
305.4230, 873.8027
305.9052, 884.2065
306.3873, 886.9094
306.8694, 886.0120
307.3515, 880.4290
307.8336, 873.6378
308.3157, 872.5424
308.7979, 887.4217
309.2800, 905.3521
309.7621, 914.4634
310.2442, 912.6613
310.7263, 909.7714
311.2084, 913.7272
311.6906, 920.4015
312.1727, 923.1974
312.6548, 912.8436
313.1369, 902.4023
313.6190, 902.6068
314.1011, 915.5112
314.5833, 925.2669
315.0654, 918.9874
315.5475, 906.6600
316.0296, 900.9355
316.5117, 913.3152
316.9938, 927.2217
317.4760, 934.5874
317.9580, 934.4632
318.4402, 935.1075
318.9223, 941.6789
319.4044, 949.3788
319.8865, 953.3010
320.3686, 948.6671
320.8507, 943.4772
321.3329, 939.2393
321.8150, 936.0431
322.2971, 935.8440
322.7792, 942.3055
323.2613, 950.2762
323.7434, 955.5433
324.2256, 958.9370
324.7077, 958.0806
325.1898, 949.2562
325.6719, 932.8156
326.1540, 922.9669
326.6361, 926.1705
327.1183, 932.6863
327.6004, 936.2357
328.0825, 934.5477
328.5646, 932.6182
329.0467, 931.5068
329.5288, 930.8270
330.0110, 927.4712
330.4931, 919.6680
330.9752, 910.8409
331.4573, 902.6438
331.9394, 892.7893
332.4215, 887.8984
332.9037, 890.8479
333.3858, 899.1210
333.8679, 902.4266
334.3500, 897.0663
334.8321, 892.6971
335.3142, 895.2963
335.7964, 908.4890
336.2785, 917.3102
336.7606, 920.1052
337.2427, 918.9362
337.7248, 919.2551
338.2069, 921.9190
338.6891, 923.4531
339.1712, 921.0229
339.6533, 913.7964
340.1354, 911.0109
340.6175, 913.8688
341.0996, 919.6632
341.5818, 924.6540
342.0639, 929.0504
342.5460, 930.4758
343.0281, 925.6176
343.5102, 915.4258
343.9923, 911.4970
344.4745, 915.3037
344.9566, 920.4848
345.4387, 916.2776
345.9208, 904.0101
346.4029, 895.9563
346.8850, 900.9409
347.3672, 913.5729
347.8493, 917.9761
348.3314, 913.8527
348.8135, 905.2812
349.2956, 892.4782
349.7777, 878.0309
350.2599, 869.6531
350.7419, 872.5582
351.2241, 881.3228
351.7062, 889.8265
352.1883, 897.8512
352.6704, 902.3151
353.1525, 898.8546
353.6346, 890.4969
354.1168, 882.0558
354.5989, 875.2696
355.0810, 868.4859
355.5631, 858.4403
356.0452, 846.3444
356.5273, 838.0620
357.0095, 839.9569
357.4916, 846.0452
357.9737, 850.4479
358.4558, 851.3071
358.9379, 851.3555
359.4200, 852.3433
359.9022, 853.6910
360.3843, 853.8716
360.8664, 851.0619
361.3485, 847.7121
361.8306, 845.4203
362.3127, 844.9168
362.7949, 844.1252
363.2770, 839.8530
363.7591, 835.2692
364.2412, 835.6988
364.7233, 849.1527
365.2054, 861.8570
365.6876, 868.0206
366.1697, 865.2729
366.6518, 864.0818
367.1339, 865.2864
367.6160, 868.5814
368.0981, 873.6791
368.5803, 882.7139
369.0624, 891.2048
369.5445, 899.0107
370.0266, 906.3069
370.5087, 909.6884
370.9908, 907.2366
371.4730, 902.5735
371.9551, 898.5746
372.4372, 895.4021
372.9193, 892.5089
373.4014, 889.6024
373.8835, 886.8835
374.3657, 885.7658
374.8478, 886.9030
375.3299, 888.2761
375.8120, 887.6588
376.2941, 884.1039
376.7762, 885.1749
377.2584, 893.5012
377.7405, 905.1332
378.2226, 909.6249
378.7047, 906.4783
379.1868, 901.2413
379.6689, 895.5462
380.1511, 889.8145
380.6332, 888.9581
381.1153, 895.0068
381.5974, 900.7202
382.0795, 892.1265
382.5616, 871.5674
383.0438, 855.0740
383.5259, 853.6616
384.0080, 860.7791
384.4901, 861.8251
384.9722, 856.2861
385.4543, 848.8373
385.9364, 841.5837
386.4185, 835.6362
386.9007, 833.3812
387.3828, 839.5203
387.8649, 846.8962
388.3470, 847.1253
388.8291, 841.0208
389.3112, 835.5118
389.7934, 837.6545
390.2755, 841.7415
390.7576, 841.4309
391.2397, 830.8665
391.7218, 821.4193
392.2039, 820.2411
392.6861, 825.1965
393.1682, 829.6613
393.6503, 832.8424
394.1324, 833.5356
394.6145, 829.9166
395.0966, 817.5408
395.5788, 810.4786
396.0609, 817.6377
396.5430, 831.1251
397.0251, 837.6456
397.5072, 824.9163
397.9893, 814.8795
398.4715, 815.7704
398.9536, 831.3092
399.4357, 840.0423
399.9178, 838.0355
400.3999, 831.7245
400.8820, 826.9503
401.3642, 822.0029
401.8463, 821.8826
402.3284, 829.8742
402.8105, 844.8035
403.2926, 851.9150
403.7747, 847.7653
404.2569, 842.1260
404.7390, 842.6422
405.2211, 850.7426
405.7032, 857.2266
406.1853, 860.6238
406.6674, 862.5367
407.1496, 867.9135
407.6317, 877.3618
408.1138, 884.5278
408.5959, 885.8239
409.0780, 881.7165
409.5602, 873.3436
410.0423, 859.3600
410.5244, 847.1990
411.0065, 849.2473
411.4886, 862.6638
411.9707, 874.4411
412.4529, 878.9629
412.9350, 878.4018
413.4171, 874.1088
413.8992, 866.1447
414.3813, 861.0779
414.8634, 867.4341
415.3456, 879.1620
415.8277, 887.0919
416.3098, 886.4623
416.7919, 883.6219
417.2740, 884.0947
417.7561, 886.5729
418.2382, 885.7788
418.7203, 874.0565
419.2025, 861.3989
419.6846, 855.4001
420.1667, 860.2103
420.6488, 864.9670
421.1309, 865.6976
421.6130, 864.3475
422.0952, 864.4236
422.5773, 865.7199
423.0594, 869.3483
423.5415, 877.9999
424.0236, 894.6204
424.5057, 901.5911
424.9879, 889.3924
425.4700, 873.3065
425.9521, 867.4360
426.4342, 879.3627
426.9163, 888.4521
427.3984, 891.0225
427.8806, 888.0540
428.3627, 885.8140
428.8448, 883.7621
429.3269, 883.5798
429.8090, 886.9280
430.2911, 894.3188
430.7733, 901.9249
431.2554, 911.0549
431.7375, 917.8774
432.2196, 912.6533
432.7017, 895.0773
433.1838, 879.0539
433.6660, 872.6987
434.1481, 873.4528
434.6302, 871.7412
435.1123, 867.1131
435.5944, 863.5126
436.0765, 865.9792
436.5587, 872.6792
437.0408, 879.2994
437.5229, 887.0370
438.0050, 891.4009
438.4871, 883.7933
438.9692, 866.5615
439.4514, 852.6764
439.9335, 853.0836
440.4156, 859.1002
440.8977, 862.3752
441.3798, 859.7422
441.8619, 857.5428
442.3441, 859.9913
442.8262, 864.7879
443.3083, 867.6618
443.7904, 866.2581
444.2725, 863.5726
444.7546, 861.1926
445.2368, 859.7509
445.7189, 855.4222
446.2010, 843.4632
446.6831, 830.7595
447.1652, 823.5361
447.6473, 827.8864
448.1295, 828.8278
448.6116, 822.4318
449.0937, 810.6982
449.5758, 804.9567
450.0579, 806.4597
450.5400, 811.5602
451.0221, 820.6155
451.5042, 835.8427
451.9864, 839.8224
452.4685, 828.3621
452.9506, 811.2728
453.4327, 806.5005
453.9148, 814.2427
454.3969, 818.7581
454.8791, 811.6147
455.3612, 796.6417
455.8433, 785.4198
456.3254, 778.0434
456.8075, 774.3912
457.2896, 776.3094
457.7718, 781.8646
458.2539, 787.1338
458.7360, 792.1823
459.2181, 795.0021
459.7002, 792.2181
460.1823, 785.2122
460.6645, 778.4993
461.1466, 772.9209
461.6287, 769.6265
462.1108, 770.3148
462.5929, 776.1016
463.0750, 781.2416
463.5572, 783.2756
464.0393, 783.4303
464.5214, 783.1063
465.0035, 781.8790
465.4856, 780.9935
465.9677, 780.7298
466.4499, 781.0912
466.9320, 781.9594
467.4141, 785.2455
467.8962, 787.3372
468.3783, 785.8283
468.8604, 777.0364
469.3426, 772.5590
469.8247, 773.4846
470.3068, 778.1119
470.7889, 783.6572
471.2710, 790.7094
471.7531, 796.3956
472.2353, 798.9855
472.7174, 798.9195
473.1995, 801.3228
473.6816, 806.7153
474.1637, 811.4766
474.6458, 810.8054
475.1280, 805.9169
475.6101, 802.8203
476.0922, 803.5749
476.5743, 805.5898
477.0564, 803.4580
477.5385, 798.6278
478.0207, 797.3767
478.5028, 809.1273
478.9849, 823.2383
479.4670, 826.9499
479.9491, 817.6397
480.4312, 808.8256
480.9134, 808.4124
481.3955, 813.1645
481.8776, 819.2903
482.3597, 829.7006
482.8418, 837.1003
483.3239, 836.6867
483.8060, 829.8202
484.2881, 826.6901
484.7703, 836.5234
485.2524, 844.3609
485.7345, 842.0917
486.2166, 818.9559
486.6987, 808.6125
487.1808, 817.8287
487.6630, 835.3847
488.1451, 843.4152
488.6272, 838.7040
489.1093, 833.4314
489.5914, 831.7267
490.0735, 832.5719
490.5557, 826.8094
491.0378, 813.2929
491.5199, 799.6819
492.0020, 791.1481
492.4841, 787.7039
492.9662, 791.4459
493.4484, 806.0781
493.9305, 818.8502
494.4126, 805.9293
494.8947, 774.6140
495.3768, 750.2689
495.8589, 750.9455
496.3411, 761.5705
496.8232, 767.9905
497.3053, 769.7044
497.7874, 767.7073
498.2695, 761.0522
498.7516, 751.7084
499.2338, 741.1129
499.7159, 725.4394
500.1980, 714.3281
500.6801, 713.8696
501.1622, 720.2893
501.6443, 724.1689
502.1265, 723.1224
502.6086, 720.2999
503.0907, 716.3972
503.5728, 711.1551
504.0549, 705.9999
504.5370, 700.1473
505.0192, 695.2601
505.5013, 693.1172
505.9834, 694.3010
506.4655, 696.3683
506.9476, 700.4319
507.4297, 703.9680
507.9119, 697.7951
508.3940, 681.2238
508.8761, 667.1892
509.3582, 665.3070
509.8403, 671.5513
510.3224, 672.7050
510.8046, 667.9606
511.2867, 662.4432
511.7688, 662.0014
512.2509, 664.1091
512.7330, 663.9214
513.2151, 658.7259
513.6973, 652.2064
514.1794, 646.0628
514.6615, 640.6495
515.1436, 637.1096
515.6257, 638.1522
516.1078, 639.5127
516.5900, 637.9280
517.0721, 631.5090
517.5542, 628.7430
518.0363, 636.5760
518.5184, 645.9525
519.0005, 647.4667
519.4827, 631.9681
519.9648, 622.8140
520.4469, 625.7217
520.9290, 636.8100
521.4111, 640.8271
521.8932, 635.8553
522.3754, 629.0646
522.8575, 624.0123
523.3396, 620.6791
523.8217, 616.3140
524.3038, 610.4611
524.7859, 605.2531
525.2681, 602.3359
525.7502, 601.8448
526.2323, 604.8575
526.7144, 613.9428
527.1965, 623.7137
527.6786, 626.3405
528.1608, 623.2274
528.6429, 619.7108
529.1250, 619.3655
529.6071, 619.5790
530.0892, 617.6041
530.5714, 612.6229
531.0535, 609.4432
531.5356, 611.7104
532.0176, 616.0146
532.4998, 618.9821
532.9819, 618.8037
533.4640, 618.7001
533.9461, 620.0398
534.4282, 621.8967
534.9103, 620.8472
535.3925, 614.5903
535.8746, 608.9620
536.3567, 606.1763
536.8388, 606.3660
537.3209, 608.0892
537.8030, 611.8542
538.2852, 615.8079
538.7673, 617.9736
539.2494, 618.4354
539.7315, 618.6210
540.2136, 618.6667
540.6957, 618.8262
541.1779, 619.8986
541.6600, 621.5813
542.1421, 622.6182
542.6242, 619.1027
543.1063, 616.3963
543.5884, 623.0215
544.0706, 639.4451
544.5527, 651.5506
545.0348, 645.4882
545.5169, 634.5143
545.9990, 630.7875
546.4811, 644.2767
546.9633, 655.2466
547.4454, 656.9002
547.9275, 653.2649
548.4096, 654.1021
548.8917, 665.4895
549.3738, 673.5905
549.8560, 673.3516
550.3381, 664.7255
550.8202, 660.8716
551.3023, 662.6204
551.7844, 667.2861
552.2665, 674.6769
552.7487, 684.7630
553.2308, 687.9805
553.7129, 681.0094
554.1950, 673.2201
554.6771, 681.5073
555.1592, 702.2047
555.6414, 719.3909
556.1235, 724.6560
556.6056, 724.0997
557.0877, 722.3745
557.5698, 720.0825
558.0519, 721.0421
558.5341, 730.8802
559.0162, 742.7690
559.4983, 751.6227
559.9804, 757.1497
560.4625, 758.6738
560.9446, 751.2079
561.4268, 741.4392
561.9089, 737.4897
562.3910, 741.2354
562.8731, 748.9397
563.3552, 761.4094
563.8373, 777.4973
564.3195, 792.8714
564.8016, 807.7089
565.2837, 821.0038
565.7658, 832.2017
566.2479, 841.3562
566.7300, 848.5410
567.2122, 853.8120
567.6943, 856.5324
568.1764, 854.6234
568.6585, 849.4984
569.1406, 845.7509
569.6227, 845.4774
570.1049, 844.9335
570.5870, 835.9090
571.0691, 823.3573
571.5512, 819.0671
572.0333, 839.1661
572.5154, 860.3268
572.9976, 869.2892
573.4797, 865.5078
573.9618, 857.8622
574.4439, 843.3273
574.9260, 829.1382
575.4081, 820.0919
575.8903, 818.9305
576.3724, 817.3260
576.8545, 814.0057
577.3366, 811.2538
577.8187, 814.5131
578.3008, 826.5233
578.7830, 831.1794
579.2651, 822.2735
579.7472, 804.3209
580.2293, 789.7653
580.7114, 778.6698
581.1935, 771.8073
581.6757, 774.0596
582.1578, 779.8030
582.6399, 776.7111
583.1220, 763.3045
583.6041, 751.7603
584.0862, 755.0095
584.5684, 764.0073
585.0505, 768.0330
585.5326, 762.0364
586.0147, 753.4131
586.4968, 739.6531
586.9789, 725.2011
587.4611, 720.0506
587.9432, 739.6124
588.4253, 753.0085
588.9074, 751.1198
589.3895, 734.1757
589.8716, 720.1969
590.3538, 709.4245
590.8359, 701.0684
591.3180, 693.9838
591.8001, 688.1677
592.2822, 687.7592
592.7643, 694.1538
593.2465, 701.8225
593.7286, 703.7616
594.2107, 701.0353
594.6928, 697.0152
595.1749, 690.3966
595.6570, 685.7804
596.1392, 691.2172
596.6213, 703.2543
597.1034, 710.3638
597.5854, 702.0825
598.0676, 691.5434
598.5497, 686.1254
599.0318, 686.8063
599.5139, 688.0170
599.9960, 688.9660
600.4781, 690.1124
600.9603, 692.0922
601.4424, 697.2099
601.9245, 697.4090
602.4066, 689.5306
602.8887, 679.7454
603.3708, 679.6796
603.8530, 690.2038
604.3351, 698.1287
604.8172, 698.3186
605.2993, 694.1959
605.7814, 694.4066
606.2635, 698.2476
606.7457, 700.4291
607.2278, 695.5849
607.7099, 688.2131
608.1920, 684.0703
608.6741, 683.7948
609.1563, 682.7325
609.6384, 672.8716
610.1205, 664.0044
610.6026, 665.1293
611.0847, 690.3367
611.5668, 708.2738
612.0490, 710.6489
612.5311, 705.0596
613.0132, 703.6324
613.4953, 709.1262
613.9774, 713.0287
614.4595, 713.0735
614.9417, 709.9564
615.4238, 706.2482
615.9059, 701.6902
616.3880, 699.0661
616.8701, 703.6548
617.3522, 711.4585
617.8344, 708.6012
618.3165, 694.1586
618.7986, 678.9061
619.2807, 670.1547
619.7628, 666.9592
620.2449, 669.1363
620.7271, 681.3259
621.2092, 689.6845
621.6913, 683.7814
622.1734, 670.8876
622.6555, 663.2065
623.1376, 666.6479
623.6198, 671.5056
624.1019, 678.0638
624.5840, 685.1367
625.0661, 683.8719
625.5482, 669.5045
626.0303, 658.1494
626.5125, 659.7406
626.9946, 673.5176
627.4767, 682.8851
627.9588, 687.8364
628.4409, 688.4199
628.9230, 682.7540
629.4052, 672.9460
629.8873, 662.6353
630.3694, 650.9269
630.8515, 643.7870
631.3336, 651.5400
631.8157, 665.8232
632.2979, 673.2269
632.7800, 659.7852
633.2621, 648.3571
633.7442, 647.5964
634.2263, 655.8419
634.7084, 664.7603
635.1906, 678.3678
635.6727, 686.7111
636.1548, 684.3073
636.6369, 670.6519
637.1190, 664.9706
637.6011, 669.7518
638.0833, 673.8813
638.5654, 665.1365
639.0475, 646.7296
639.5296, 635.3868
640.0117, 633.6935
640.4938, 635.6832
640.9760, 635.2107
641.4581, 633.8591
641.9402, 634.5430
642.4223, 640.2922
642.9044, 645.8489
643.3865, 648.8863
643.8687, 649.6829
644.3508, 649.0364
644.8329, 643.5303
645.3150, 640.4821
645.7971, 644.1791
646.2792, 654.1732
646.7614, 655.0605
647.2435, 642.7651
647.7256, 629.8758
648.2077, 625.6282
648.6898, 629.8109
649.1719, 625.4307
649.6541, 610.3548
650.1362, 597.2553
650.6183, 604.3875
651.1004, 623.1530
651.5825, 632.9197
652.0646, 625.7168
652.5468, 616.4031
653.0289, 616.8745
653.5110, 622.8889
653.9931, 627.3477
654.4752, 627.2028
654.9573, 626.0589
655.4395, 625.9119
655.9216, 625.9525
656.4037, 621.6186
656.8858, 608.5421
657.3679, 598.1738
657.8500, 595.1486
658.3322, 599.2572
658.8143, 605.9166
659.2964, 616.0794
659.7785, 623.0952
660.2606, 618.6535
660.7427, 606.7217
661.2249, 599.1588
661.7070, 597.2366
662.1891, 598.3862
662.6712, 603.3850
663.1533, 609.0254
663.6354, 610.5861
664.1175, 600.6622
664.5996, 595.0506
665.0817, 605.4873
665.5638, 622.9987
666.0460, 629.0648
666.5281, 613.7461
667.0102, 600.5975
667.4923, 594.5662
667.9744, 594.3972
668.4565, 594.4322
668.9387, 594.8514
669.4208, 594.4772
669.9029, 591.6616
670.3850, 587.4943
670.8671, 585.3741
671.3492, 585.3292
671.8314, 588.6817
672.3135, 602.2689
672.7956, 616.9819
673.2777, 620.9187
673.7598, 609.6850
674.2419, 598.5375
674.7241, 594.3712
675.2062, 593.2847
675.6883, 591.1773
676.1704, 581.5632
676.6525, 580.0987
677.1346, 592.8732
677.6168, 610.7599
678.0989, 615.0854
678.5810, 603.0907
679.0631, 593.4841
679.5452, 591.6241
680.0273, 595.3257
680.5095, 601.2932
680.9916, 608.8362
681.4737, 612.8870
681.9558, 606.4696
682.4379, 597.7693
682.9200, 595.3108
683.4022, 599.1316
683.8843, 604.4458
684.3664, 612.6725
684.8485, 619.1150
685.3306, 620.6771
685.8127, 615.3864
686.2949, 609.8430
686.7770, 603.1385
687.2591, 597.1016
687.7412, 594.2305
688.2233, 595.3224
688.7054, 592.0800
689.1876, 582.3374
689.6697, 572.0303
690.1518, 569.6743
690.6339, 574.0575
691.1160, 581.4788
691.5981, 593.4436
692.0803, 603.9776
692.5624, 606.7131
693.0445, 603.8913
693.5266, 600.6223
694.0087, 597.8306
694.4908, 595.8392
694.9730, 595.2480
695.4551, 595.8426
695.9372, 595.4172
696.4193, 592.7188
696.9014, 591.1875
697.3835, 593.0119
697.8657, 597.9812
698.3478, 600.2954
698.8299, 599.9670
699.3120, 596.8590
699.7941, 586.6924
700.2762, 574.4362
700.7584, 572.4184
701.2405, 582.8159
701.7226, 594.8600
702.2047, 602.1458
702.6868, 606.0462
703.1689, 607.8344
703.6511, 607.5092
704.1332, 605.6517
704.6153, 601.0927
705.0974, 595.5961
705.5795, 591.2451
706.0616, 588.0609
706.5438, 586.0311
707.0259, 585.3906
707.5080, 585.6403
707.9901, 585.7133
708.4722, 585.6356
708.9543, 585.8072
709.4365, 586.8727
709.9186, 587.9005
710.4007, 586.6307
710.8828, 583.8949
711.3649, 582.9173
711.8470, 586.9499
712.3292, 591.8339
712.8113, 596.1729
713.2934, 599.8885
713.7755, 600.0087
714.2576, 592.2565
714.7397, 585.6058
715.2219, 585.1789
715.7040, 592.1557
716.1861, 594.7822
716.6682, 592.4715
717.1503, 588.0504
717.6324, 582.6060
718.1146, 577.1044
718.5967, 575.3926
719.0788, 578.6199
719.5609, 581.8411
720.0430, 579.8738
720.5251, 575.6974
721.0073, 573.0215
721.4894, 573.7969
721.9715, 574.8004
722.4536, 576.6033
722.9357, 577.6685
723.4178, 575.0192
723.9000, 564.8663
724.3821, 560.0894
724.8642, 565.2860
725.3463, 575.2028
725.8284, 575.4324
726.3105, 566.4958
726.7927, 559.6925
727.2748, 561.8104
727.7569, 567.1459
728.2390, 566.4525
728.7211, 561.3145
729.2032, 558.1123
729.6853, 562.5412
730.1674, 567.7247
730.6495, 570.3119
731.1317, 570.0901
731.6138, 567.4187
732.0959, 557.2042
732.5780, 551.1532
733.0601, 556.6459
733.5422, 574.8339
734.0244, 585.3521
734.5065, 587.5600
734.9886, 586.3676
735.4707, 584.1813
735.9528, 582.0773
736.4349, 584.5456
736.9171, 592.8720
737.3992, 597.9110
737.8813, 589.0126
738.3634, 574.8138
738.8455, 564.3895
739.3276, 560.0621
739.8098, 558.6001
740.2919, 562.9966
740.7740, 568.0449
741.2561, 567.0086
741.7382, 555.9141
742.2203, 552.9466
742.7025, 562.9512
743.1846, 577.4917
743.6667, 581.5986
744.1488, 576.8367
744.6309, 571.6160
745.1130, 568.1758
745.5952, 566.4719
746.0773, 568.6213
746.5594, 572.4876
747.0415, 573.0640
747.5236, 562.5236
748.0057, 554.5766
748.4879, 556.2494
748.9700, 565.2507
749.4521, 570.3862
749.9342, 570.1791
750.4163, 569.3712
750.8984, 569.9261
751.3806, 571.2268
751.8627, 569.1354
752.3448, 563.7750
752.8269, 560.2350
753.3090, 564.5192
753.7911, 571.1900
754.2733, 573.1331
754.7554, 570.2714
755.2375, 565.4725
755.7196, 555.2791
756.2017, 547.4058
756.6838, 547.7852
757.1660, 559.4062
757.6481, 567.1791
758.1302, 571.2319
758.6123, 571.1361
759.0944, 563.6626
759.5765, 548.6327
760.0587, 544.8254
760.5408, 554.3350
761.0229, 566.2674
761.5050, 570.8557
761.9871, 570.3291
762.4692, 568.3055
762.9514, 565.1988
763.4335, 561.7233
763.9156, 556.7756
764.3977, 552.4340
764.8798, 550.8206
765.3619, 555.3935
765.8441, 558.1251
766.3262, 558.7737
766.8083, 557.7488
767.2904, 555.0229
767.7725, 550.4816
768.2546, 546.5019
768.7368, 542.6608
769.2189, 541.8859
769.7010, 552.3555
770.1831, 568.9982
770.6652, 579.9930
771.1473, 578.2700
771.6295, 573.1391
772.1116, 566.6678
772.5937, 560.6201
773.0758, 558.9921
773.5579, 568.8230
774.0400, 573.4604
774.5222, 567.2503
775.0043, 555.3348
775.4864, 554.5764
775.9685, 565.9495
776.4506, 574.2908
776.9327, 571.8688
777.4149, 564.7915
777.8970, 564.1907
778.3791, 568.3956
778.8612, 571.3007
779.3433, 567.1613
779.8254, 563.1752
780.3076, 564.3146
780.7897, 569.8827
781.2718, 573.3890
781.7539, 573.7495
782.2360, 572.8464
782.7181, 570.8602
783.2003, 568.0115
783.6824, 567.2862
784.1645, 568.9553
784.6466, 568.3115
785.1287, 557.2742
785.6108, 544.0416
786.0930, 545.0024
786.5751, 559.3015
787.0572, 573.0176
787.5393, 579.6356
788.0214, 582.0090
788.5035, 580.0593
788.9857, 572.6291
789.4678, 571.8582
789.9499, 583.5142
790.4320, 593.7057
790.9141, 592.1509
791.3962, 578.7910
791.8784, 577.2000
792.3605, 588.5034
792.8426, 598.5870
793.3247, 593.8786
793.8068, 581.1522
794.2889, 569.2458
794.7711, 559.0316
795.2531, 552.7120
795.7352, 553.9274
796.2173, 557.6954
796.6995, 560.2056
797.1816, 560.1324
797.6637, 562.2676
798.1458, 567.6705
798.6279, 573.5748
799.1100, 577.3047
799.5922, 579.0905
800.0743, 582.3505
800.5564, 587.8625
801.0385, 590.6534
801.5206, 581.9406
802.0027, 569.2086
802.4849, 562.7317
802.9670, 566.0124
803.4491, 570.7266
803.9312, 576.5856
804.4133, 580.9836
804.8954, 580.9907
805.3776, 572.7551
805.8597, 571.4893
806.3418, 580.8757
806.8239, 590.7639
807.3060, 585.0448
807.7881, 568.1103
808.2703, 561.7189
808.7524, 571.6555
809.2345, 584.6053
809.7166, 591.6405
810.1987, 593.2408
810.6808, 589.6129
811.1630, 574.7258
811.6451, 564.9044
812.1272, 566.4183
812.6093, 571.5471
813.0914, 571.6604
813.5735, 565.4019
814.0557, 561.1922
814.5378, 560.6586
815.0199, 560.8156
815.5020, 554.2348
815.9841, 545.0986
816.4662, 545.4182
816.9484, 562.4052
817.4305, 580.1416
817.9126, 588.8678
818.3947, 591.4830
818.8768, 591.5660
819.3589, 585.6329
819.8411, 583.1871
820.3232, 586.5852
820.8053, 591.8226
821.2874, 592.2472
821.7695, 587.8388
822.2516, 584.3333
822.7338, 582.9458
823.2159, 582.5603
823.6980, 581.8151
824.1801, 581.0327
824.6622, 580.8890
825.1443, 582.4977
825.6265, 583.4291
826.1086, 582.1881
826.5907, 579.9300
827.0728, 578.4441
827.5549, 577.7294
828.0370, 577.6318
828.5192, 577.7173
829.0013, 579.0972
829.4834, 585.8707
829.9655, 596.2913
830.4476, 601.0593
830.9297, 595.8162
831.4119, 588.3705
831.8940, 586.3132
832.3761, 586.4868
832.8582, 584.1347
833.3403, 570.7535
833.8224, 564.4609
834.3046, 570.3326
834.7867, 582.0483
835.2688, 590.5818
835.7509, 595.7688
836.2330, 600.2468
836.7151, 605.5637
837.1973, 607.6713
837.6794, 595.4901
838.1615, 576.2384
838.6436, 566.3885
839.1257, 575.5895
839.6078, 587.7941
840.0900, 598.8630
840.5721, 606.9503
841.0542, 609.4930
841.5363, 605.8754
842.0184, 597.5336
842.5005, 582.4181
842.9827, 565.7882
843.4648, 554.0906
843.9469, 547.7247
844.4290, 550.9183
844.9111, 567.5403
845.3932, 585.4041
845.8754, 593.0699
846.3575, 594.4266
846.8396, 594.9351
847.3217, 597.7385
847.8038, 597.1948
848.2859, 588.2690
848.7681, 578.7811
849.2502, 580.3647
849.7323, 595.8562
850.2144, 598.9209
850.6965, 583.1109
851.1786, 563.9957
851.6608, 562.5623
852.1429, 572.7558
852.6250, 582.8449
853.1071, 590.6875
853.5892, 596.0366
854.0714, 597.8742
854.5535, 597.5222
855.0356, 596.2423
855.5177, 592.9070
855.9998, 591.2503
856.4819, 591.2790
856.9641, 593.1189
857.4462, 597.1782
857.9283, 603.2580
858.4104, 610.5493
858.8925, 619.2532
859.3746, 627.5867
859.8568, 637.9012
860.3389, 645.0822
860.8210, 642.2329
861.3030, 621.0101
861.7852, 607.0280
862.2673, 605.1187
862.7494, 607.7612
863.2315, 608.7472
863.7136, 607.8876
864.1957, 609.6309
864.6779, 614.4822
865.1600, 619.6398
865.6421, 621.0808
866.1242, 621.6036
866.6063, 627.2283
867.0884, 640.2434
867.5706, 646.4213
868.0527, 633.2133
868.5348, 616.6974
869.0169, 606.8422
869.4990, 604.2184
869.9811, 606.4619
870.4633, 614.7416
870.9454, 623.6880
871.4275, 630.1259
871.9096, 633.6774
872.3917, 632.2379
872.8738, 625.8467
873.3560, 619.3607
873.8381, 611.3258
874.3202, 607.8320
874.8023, 616.1657
875.2844, 638.8789
875.7665, 650.7841
876.2487, 647.6229
876.7308, 642.0730
877.2129, 641.1098
877.6950, 643.4517
878.1771, 640.3538
878.6592, 632.4938
879.1414, 627.7670
879.6235, 634.9724
880.1056, 644.6026
880.5877, 648.9827
881.0698, 648.2182
881.5519, 646.1416
882.0341, 640.7632
882.5162, 637.7545
882.9983, 639.7311
883.4804, 645.2585
883.9625, 646.6140
884.4446, 643.8328
884.9268, 643.4102
885.4089, 650.5529
885.8910, 659.8577
886.3731, 666.5557
886.8552, 670.1961
887.3373, 669.5207
887.8195, 657.2630
888.3016, 648.6223
888.7837, 649.3094
889.2658, 655.7189
889.7479, 660.0760
890.2300, 662.4947
890.7122, 660.2673
891.1943, 649.5688
891.6764, 639.8455
892.1585, 652.9498
892.6406, 677.7414
893.1227, 689.4452
893.6049, 667.9946
894.0870, 647.5871
894.5691, 639.5399
895.0512, 640.5613
895.5333, 646.4547
896.0154, 659.4573
896.4976, 669.6285
896.9797, 675.3207
897.4618, 679.3912
897.9439, 687.3116
898.4260, 696.3884
898.9081, 698.1716
899.3903, 688.9530
899.8724, 681.3387
900.3545, 685.4138
900.8366, 693.0843
901.3187, 696.0276
901.8008, 691.2762
902.2830, 688.9266
902.7651, 688.0341
903.2472, 691.6989
903.7293, 705.8370
904.2114, 727.2032
904.6935, 742.0843
905.1757, 749.7533
905.6578, 753.8452
906.1399, 754.5198
906.6220, 754.3278
907.1041, 755.3601
907.5862, 757.9954
908.0684, 759.5403
908.5505, 759.1094
909.0326, 759.1044
909.5147, 760.8358
909.9968, 763.9577
910.4789, 766.3877
910.9611, 768.2876
911.4432, 771.1761
911.9253, 773.9898
912.4074, 779.8651
912.8895, 794.2727
913.3716, 814.7299
913.8538, 829.6649
914.3359, 836.6559
914.8180, 839.0671
915.3001, 835.4374
915.7822, 829.2801
916.2643, 831.1940
916.7465, 840.1753
917.2286, 847.9196
917.7107, 850.6975
918.1928, 852.4563
918.6749, 854.9378
919.1570, 859.3764
919.6392, 867.8503
920.1213, 891.7626
920.6034, 903.4421
921.0855, 895.0630
921.5676, 880.6370
922.0497, 879.4596
922.5319, 890.5300
923.0140, 899.4975
923.4961, 904.6629
923.9782, 905.0087
924.4603, 894.1818
924.9424, 880.9158
925.4246, 876.2648
925.9067, 886.4101
926.3888, 889.7751
926.8708, 877.8796
927.3530, 866.2375
927.8351, 864.8901
928.3172, 873.7070
928.7993, 886.6785
929.2814, 903.9336
929.7635, 915.4594
930.2457, 908.7915
930.7278, 895.8913
931.2099, 889.9932
931.6920, 890.6929
932.1741, 887.0092
932.6563, 868.3192
933.1384, 855.2002
933.6205, 855.1271
934.1026, 864.9894
934.5847, 873.8900
935.0668, 881.6129
935.5490, 883.8229
936.0311, 874.8081
936.5132, 864.1855
936.9953, 864.4535
937.4774, 870.1127
937.9595, 870.0308
938.4417, 853.4931
938.9238, 841.5222
939.4059, 838.2793
939.8880, 838.7428
940.3701, 834.2597
940.8522, 825.4155
941.3344, 822.6907
941.8165, 829.2346
942.2986, 835.3625
942.7807, 825.9410
943.2628, 814.0269
943.7449, 816.3342
944.2271, 843.6942
944.7092, 859.6817
945.1913, 856.4662
945.6734, 848.5116
946.1555, 845.6934
946.6376, 847.5306
947.1198, 846.1469
947.6019, 841.5706
948.0840, 836.6739
948.5661, 831.3419
949.0482, 828.2905
949.5303, 831.2243
950.0125, 839.5601
950.4946, 846.4243
950.9767, 852.9451
951.4588, 854.5109
951.9409, 848.1526
952.4230, 837.0050
952.9052, 830.5872
953.3873, 828.2267
953.8694, 825.5627
954.3515, 819.3813
954.8336, 814.5382
955.3157, 814.3087
955.7979, 817.9044
956.2800, 824.3668
956.7621, 837.5806
957.2442, 846.0192
957.7263, 847.6765
958.2084, 846.7769
958.6906, 847.4052
959.1727, 849.7413
959.6548, 856.6918
960.1369, 869.4066
960.6190, 876.4119
961.1011, 860.8022
961.5833, 842.4855
962.0654, 838.9653
962.5475, 853.7887
963.0296, 863.6339
963.5117, 867.1029
963.9938, 869.2033
964.4760, 871.3659
964.9581, 874.6500
965.4402, 884.7229
965.9223, 899.5070
966.4044, 909.6470
966.8865, 907.8073
967.3687, 902.4936
967.8508, 896.2225
968.3329, 889.5983
968.8150, 883.8220
969.2971, 878.2408
969.7792, 876.3489
970.2614, 879.7822
970.7435, 884.7271
971.2256, 885.4448
971.7077, 883.6148
972.1898, 882.9176
972.6719, 885.4094
973.1541, 885.8411
973.6362, 878.2870
974.1183, 871.0582
974.6004, 871.6425
975.0825, 882.2883
975.5646, 884.3762
976.0468, 877.0545
976.5289, 869.0971
977.0110, 866.9015
977.4931, 868.3350
977.9752, 872.5952
978.4573, 878.7545
978.9395, 881.0690
979.4216, 875.0213
979.9037, 867.5264
980.3858, 859.1559
980.8679, 851.3566
981.3500, 849.6954
981.8322, 853.7917
982.3143, 856.4849
982.7964, 855.7586
983.2785, 852.0233
983.7606, 841.7870
984.2427, 830.2694
984.7249, 824.9629
985.2070, 835.6271
985.6891, 838.7455
986.1712, 829.0857
986.6533, 820.1930
987.1354, 829.3702
987.6176, 851.4796
988.0997, 860.9442
988.5818, 856.3203
989.0639, 849.7966
989.5460, 848.9064
990.0281, 849.7486
990.5103, 848.9641
990.9924, 846.7761
991.4745, 849.3444
991.9566, 858.6605
992.4387, 866.0746
992.9208, 868.0062
993.4029, 866.6686
993.8850, 864.7576
994.3671, 863.3104
994.8492, 865.2785
995.3314, 875.9834
995.8135, 884.3628
996.2956, 883.6968
996.7777, 880.6410
997.2598, 882.2180
997.7419, 888.6826
998.2241, 899.4214
998.7062, 915.1306
999.1883, 928.3135
999.6704, 929.7450
1000.153, 925.6206
1000.635, 921.2813
1001.117, 917.3347
1001.599, 921.4030
1002.081, 944.5719
1002.563, 964.1583
1003.045, 971.4169
1003.527, 969.5495
1004.009, 970.2521
1004.492, 973.4170
1004.974, 978.2545
1005.456, 985.6885
1005.938, 992.9546
1006.420, 999.6582
1006.902, 1004.438
1007.384, 1004.272
1007.866, 991.9067
1008.349, 991.2715
1008.831, 1005.784
1009.313, 1026.111
1009.795, 1046.244
1010.277, 1063.622
1010.759, 1070.029
1011.241, 1064.830
1011.723, 1059.248
1012.205, 1058.884
1012.688, 1059.744
1013.170, 1058.951
1013.652, 1057.249
1014.134, 1060.938
1014.616, 1070.598
1015.098, 1077.463
1015.580, 1075.989
1016.062, 1073.334
1016.544, 1079.414
1017.027, 1090.543
1017.509, 1100.542
1017.991, 1112.560
1018.473, 1114.920
1018.955, 1101.957
1019.437, 1086.589
1019.919, 1082.885
1020.401, 1088.987
1020.884, 1093.753
1021.366, 1096.396
1021.848, 1094.642
1022.330, 1081.157
1022.812, 1067.660
1023.294, 1062.526
1023.776, 1065.620
1024.258, 1069.540
1024.740, 1074.306
1025.223, 1080.296
1025.705, 1090.005
1026.187, 1097.019
1026.669, 1087.878
1027.151, 1068.085
1027.633, 1048.610
1028.115, 1027.896
1028.597, 1017.221
1029.079, 1026.846
1029.562, 1040.688
1030.044, 1045.999
1030.526, 1042.725
1031.008, 1041.585
1031.490, 1042.789
1031.972, 1042.817
1032.454, 1039.869
1032.936, 1034.041
1033.419, 1021.620
1033.901, 1005.025
1034.383, 999.5583
1034.865, 1011.739
1035.347, 1020.747
1035.829, 1021.273
1036.311, 1017.239
1036.793, 1012.604
1037.276, 1009.078
1037.758, 1012.879
1038.240, 1029.829
1038.722, 1039.222
1039.204, 1023.457
1039.686, 1004.431
1040.168, 997.5584
1040.650, 1003.262
1041.132, 1007.123
1041.615, 1009.175
1042.097, 1009.092
1042.579, 1004.751
1043.061, 999.7631
1043.543, 997.3853
1044.025, 997.1890
1044.507, 998.0832
1044.989, 1002.152
1045.471, 1002.408
1045.954, 996.2386
1046.436, 989.3272
1046.918, 990.9838
1047.400, 998.1761
1047.882, 1001.478
1048.364, 998.9105
1048.846, 999.7976
1049.328, 1015.724
1049.811, 1030.053
1050.293, 1033.221
1050.775, 1026.035
1051.257, 1013.110
1051.739, 994.1422
1052.221, 983.9061
1052.703, 995.2789
1053.185, 1009.686
1053.667, 1003.669
1054.150, 988.1232
1054.632, 981.7384
1055.114, 999.0211
1055.596, 1006.930
1056.078, 1001.131
1056.560, 994.2518
1057.042, 1001.372
1057.524, 1016.724
1058.006, 1023.749
1058.489, 1022.136
1058.971, 1018.746
1059.453, 1013.179
1059.935, 1010.970
1060.417, 1016.146
1060.899, 1025.753
1061.381, 1030.548
1061.863, 1030.474
1062.346, 1035.407
1062.828, 1050.324
1063.310, 1062.572
1063.792, 1052.064
1064.274, 1035.990
1064.756, 1035.321
1065.238, 1061.466
1065.720, 1073.560
1066.203, 1067.768
1066.685, 1059.217
1067.167, 1054.278
1067.649, 1054.484
1068.131, 1067.083
1068.613, 1088.592
1069.095, 1107.191
1069.577, 1119.777
1070.059, 1126.261
1070.542, 1123.637
1071.024, 1118.060
1071.506, 1117.161
1071.988, 1120.725
1072.470, 1124.716
1072.952, 1128.617
1073.434, 1134.153
1073.916, 1147.058
1074.398, 1158.479
1074.881, 1158.903
1075.363, 1149.132
1075.845, 1147.758
1076.327, 1157.466
1076.809, 1164.241
1077.291, 1163.636
1077.773, 1158.164
1078.255, 1146.427
1078.738, 1134.130
1079.220, 1132.066
1079.702, 1149.940
1080.184, 1160.017
1080.666, 1155.357
1081.148, 1148.435
1081.630, 1148.197
1082.112, 1152.986
1082.594, 1153.568
1083.077, 1150.575
1083.559, 1147.861
1084.041, 1152.051
1084.523, 1152.100
1085.005, 1137.216
1085.487, 1117.311
1085.969, 1108.523
1086.451, 1111.820
1086.933, 1116.521
1087.416, 1121.821
1087.898, 1125.521
1088.380, 1126.673
1088.862, 1124.491
1089.344, 1115.953
1089.826, 1101.235
1090.308, 1093.335
1090.790, 1096.571
1091.272, 1095.986
1091.755, 1084.964
1092.237, 1070.999
1092.719, 1070.876
1093.201, 1077.567
1093.683, 1074.759
1094.165, 1051.988
1094.647, 1037.365
1095.129, 1045.257
1095.612, 1054.564
1096.094, 1052.157
1096.576, 1039.447
1097.058, 1026.942
1097.540, 1014.958
1098.022, 1006.075
1098.504, 1001.808
1098.986, 1001.087
1099.469, 1007.859
1099.951, 1015.861
1100.433, 1013.657
1100.915, 998.8368
1101.397, 992.0070
1101.879, 995.6744
1102.361, 1000.696
1102.843, 998.0416
1103.325, 993.2400
1103.807, 993.2151
1104.290, 997.5116
1104.772, 995.1451
1105.254, 981.1317
1105.736, 971.9919
1106.218, 972.6625
1106.700, 978.4243
1107.182, 983.7554
1107.664, 988.0659
1108.147, 990.2164
1108.629, 989.6729
1109.111, 988.1523
1109.593, 986.5635
1110.075, 983.5040
1110.557, 978.1375
1111.039, 970.7540
1111.521, 960.3389
1112.004, 948.2794
1112.486, 941.1801
1112.968, 945.3267
1113.450, 950.3376
1113.932, 952.9159
1114.414, 952.8566
1114.896, 950.0014
1115.378, 944.3209
1115.860, 934.4681
1116.343, 920.0936
1116.825, 909.5009
1117.307, 911.4634
1117.789, 917.1163
1118.271, 921.3253
1118.753, 923.1605
1119.235, 920.3995
1119.717, 911.6777
1120.199, 903.9722
1120.682, 899.1236
1121.164, 892.4421
1121.646, 870.6849
1122.128, 847.8526
1122.610, 847.3990
1123.092, 873.0218
1123.574, 884.7800
1124.056, 871.0677
1124.539, 857.0668
1125.021, 851.5936
1125.503, 849.5480
1125.985, 836.1921
1126.467, 818.1474
1126.949, 813.0485
1127.431, 831.6652
1127.913, 845.5947
1128.396, 845.0788
1128.878, 838.2973
1129.360, 826.6434
1129.842, 812.1955
1130.324, 809.0695
1130.806, 815.9321
1131.288, 824.9675
1131.770, 837.6733
1132.252, 844.9620
1132.734, 836.6190
1133.217, 824.2899
1133.699, 822.0660
1134.181, 830.7990
1134.663, 839.3373
1135.145, 847.4064
1135.627, 850.8925
1136.109, 846.0457
1136.591, 836.2870
1137.074, 817.7227
1137.556, 796.7162
1138.038, 794.9463
1138.520, 818.0869
1139.002, 834.7010
1139.484, 838.9411
1139.966, 840.0315
1140.448, 852.8406
1140.931, 864.9501
1141.413, 856.2213
1141.895, 824.8246
1142.377, 812.8433
1142.859, 829.1777
1143.341, 847.6086
1143.823, 861.4825
1144.305, 871.1743
1144.787, 875.3817
1145.270, 876.2217
1145.752, 877.4073
1146.234, 879.9414
1146.716, 881.9521
1147.198, 882.4364
1147.680, 883.6176
1148.162, 886.8373
1148.644, 891.5004
1149.126, 895.5664
1149.609, 899.5076
1150.091, 904.8895
1150.573, 914.0742
1151.055, 921.8264
1151.537, 925.4514
1152.019, 928.6663
1152.501, 934.8515
1152.983, 943.5073
1153.466, 948.0446
1153.948, 949.5375
1154.430, 956.8025
1154.912, 986.9172
1155.394, 1009.984
1155.876, 1007.516
1156.358, 993.1736
1156.840, 982.1640
1157.322, 974.4919
1157.805, 974.3851
1158.287, 982.2022
1158.769, 991.1505
1159.251, 995.9312
1159.733, 1000.385
1160.215, 1009.565
1160.697, 1020.290
1161.179, 1020.770
1161.661, 1009.950
1162.144, 1005.090
1162.626, 1010.314
1163.108, 1016.363
1163.590, 1014.883
1164.072, 1009.689
1164.554, 1003.399
1165.036, 996.3882
1165.518, 992.9677
1166.000, 994.7247
1166.483, 989.2859
1166.965, 969.3066
1167.447, 949.0997
1167.929, 948.7388
1168.411, 957.3020
1168.893, 961.7111
1169.375, 959.8424
1169.857, 951.5000
1170.340, 934.1484
1170.822, 920.0072
1171.304, 916.8812
1171.786, 918.5419
1172.268, 915.1091
1172.750, 909.4962
1173.232, 907.0633
1173.714, 913.2422
1174.197, 914.3900
1174.679, 909.3223
1175.161, 901.9554
1175.643, 893.5449
1176.125, 885.6315
1176.607, 882.8605
1177.089, 883.2607
1177.571, 881.1424
1178.053, 874.4376
1178.536, 863.6772
1179.018, 844.0303
1179.500, 830.5192
1179.982, 848.4455
1180.464, 880.4732
1180.946, 882.2637
1181.428, 856.6677
1181.910, 834.4410
1182.392, 825.6407
1182.875, 825.1567
1183.357, 834.8362
1183.839, 847.4317
1184.321, 855.1072
1184.803, 857.2372
1185.285, 849.1766
1185.767, 831.0208
1186.249, 817.3489
1186.732, 819.3827
1187.214, 820.9527
1187.696, 815.9961
1188.178, 809.1880
1188.660, 810.8428
1189.142, 818.8187
1189.624, 826.8565
1190.106, 834.1520
1190.589, 837.3474
1191.071, 832.9732
1191.553, 825.8000
1192.035, 816.4812
1192.517, 806.7988
1192.999, 801.8005
1193.481, 801.3162
1193.963, 805.3057
1194.445, 814.9974
1194.927, 824.3165
1195.410, 833.4094
1195.892, 837.6959
1196.374, 833.0006
1196.856, 821.6945
1197.338, 816.6419
1197.820, 816.4691
1198.302, 813.2693
1198.784, 799.5162
1199.267, 791.9182
1199.749, 806.9407
1200.231, 823.9413
1200.713, 827.7350
1201.195, 819.4753
1201.677, 810.7526
1202.159, 802.0364
1202.641, 796.7375
1203.124, 800.8307
1203.606, 803.0328
1204.088, 792.9088
1204.570, 782.6382
1205.052, 785.6373
1205.534, 801.4003
1206.016, 806.1268
1206.498, 800.8107
1206.980, 796.2802
1207.463, 798.8858
1207.945, 803.6217
1208.427, 809.5629
1208.909, 815.3731
1209.391, 821.2375
1209.873, 826.7573
1210.355, 820.3362
1210.837, 802.3694
1211.319, 787.1405
1211.802, 783.2945
1212.284, 785.3380
1212.766, 793.9129
1213.248, 804.7025
1213.730, 814.0093
1214.212, 821.2709
1214.694, 814.3746
1215.176, 792.3820
1215.659, 774.6588
1216.141, 774.8016
1216.623, 781.6206
1217.105, 793.2249
1217.587, 805.4605
1218.069, 809.5316
1218.551, 806.2588
1219.033, 804.2463
1219.516, 804.7545
1219.998, 805.5755
1220.480, 805.5630
1220.962, 805.1257
1221.444, 804.3224
1221.926, 803.3670
1222.408, 801.7146
1222.890, 799.9178
1223.372, 803.4952
1223.854, 814.1212
1224.337, 824.0550
1224.819, 831.9376
1225.301, 833.3676
1225.783, 823.0051
1226.265, 806.4307
1226.747, 803.8005
1227.229, 812.6279
1227.711, 819.0822
1228.193, 819.9562
1228.676, 817.2093
1229.158, 805.0377
1229.640, 797.4127
1230.122, 805.3071
1230.604, 822.0711
1231.086, 819.4451
1231.568, 801.7410
1232.050, 789.3948
1232.533, 788.3188
1233.015, 792.7388
1233.497, 806.5883
1233.979, 818.1906
1234.461, 821.1729
1234.943, 816.9760
1235.425, 809.5355
1235.907, 799.8956
1236.390, 792.0036
1236.872, 788.0327
1237.354, 783.6901
1237.836, 774.1721
1238.318, 767.7529
1238.800, 771.3703
1239.282, 781.0661
1239.764, 780.7468
1240.246, 772.7760
1240.729, 764.7432
1241.211, 757.7765
1241.693, 755.0090
1242.175, 759.4527
1242.657, 764.7479
1243.139, 766.9730
1243.621, 766.8433
1244.103, 765.9607
1244.585, 764.7603
1245.068, 764.5637
1245.550, 766.8030
1246.032, 768.5048
1246.514, 769.7452
1246.996, 769.6263
1247.478, 766.5905
1247.960, 762.0339
1248.442, 759.3041
1248.925, 758.2308
1249.407, 758.4822
1249.889, 762.0431
1250.371, 763.6385
1250.853, 762.9818
1251.335, 760.4894
1251.817, 753.0630
1252.299, 745.8881
1252.781, 752.9933
1253.264, 768.4027
1253.746, 775.5498
1254.228, 763.7747
1254.710, 755.1514
1255.192, 750.3824
1255.674, 748.6219
1256.156, 750.1243
1256.638, 753.6194
1257.120, 758.1100
1257.603, 763.0974
1258.085, 767.3414
1258.567, 770.9687
1259.049, 773.2963
1259.531, 774.3011
1260.013, 773.8321
1260.495, 771.4475
1260.977, 767.7782
1261.460, 762.8649
1261.942, 757.2772
1262.424, 751.7995
1262.906, 745.3485
1263.388, 745.7179
1263.870, 753.8108
1264.352, 763.0406
1264.834, 771.0908
1265.317, 775.3658
1265.799, 769.7483
1266.281, 759.9462
1266.763, 759.5189
1267.245, 769.4985
1267.727, 771.9036
1268.209, 765.3682
1268.691, 761.0169
1269.173, 773.1978
1269.656, 783.3352
1270.138, 775.8454
1270.620, 761.2394
1271.102, 755.8194
1271.584, 758.6630
1272.066, 756.5211
1272.548, 748.7654
1273.030, 744.3719
1273.512, 750.3952
1273.995, 759.6494
1274.477, 773.7457
1274.959, 784.7816
1275.441, 776.4033
1275.923, 754.4872
1276.405, 744.4692
1276.887, 747.4395
1277.369, 752.1779
1277.852, 756.6202
1278.334, 757.5698
1278.816, 752.7480
1279.298, 747.1913
1279.780, 747.2825
1280.262, 751.8672
1280.744, 759.7469
1281.226, 770.1060
1281.708, 778.2877
1282.191, 785.6056
1282.673, 784.4908
1283.155, 771.2043
1283.637, 756.6234
1284.119, 756.5141
1284.601, 761.3707
1285.083, 756.7094
1285.565, 743.4279
1286.047, 733.1089
1286.530, 724.0745
1287.012, 728.4934
1287.494, 750.1902
1287.976, 773.3065
1288.458, 785.2889
1288.940, 788.4271
1289.422, 778.6697
1289.904, 761.7186
1290.386, 761.6548
1290.869, 781.3240
1291.351, 787.8551
1291.833, 776.2733
1292.315, 763.4102
1292.797, 758.5269
1293.279, 761.0065
1293.761, 778.2569
1294.243, 799.3843
1294.726, 802.3835
1295.208, 788.8973
1295.690, 776.5760
1296.172, 767.4172
1296.654, 764.1525
1297.136, 773.1506
1297.618, 782.9524
1298.100, 791.1829
1298.583, 795.8276
1299.065, 790.0217
1299.547, 778.5091
1300.029, 778.0209
1300.511, 788.5964
1300.993, 793.9952
1301.475, 781.3810
1301.957, 772.8312
1302.439, 773.3979
1302.922, 775.4554
1303.404, 764.2305
1303.886, 750.8187
1304.368, 758.8969
1304.850, 785.0840
1305.332, 793.5057
1305.814, 771.6660
1306.296, 762.4020
1306.778, 773.3226
1307.261, 786.9238
1307.743, 784.5865
1308.225, 777.9125
1308.707, 778.8318
1309.189, 785.1769
1309.671, 786.4414
1310.153, 781.8876
1310.635, 780.8329
1311.118, 784.3405
1311.600, 789.1198
1312.082, 798.6973
1312.564, 802.3337
1313.046, 786.2566
1313.528, 764.9806
1314.010, 760.0645
1314.492, 769.5353
1314.974, 783.0817
1315.457, 799.0117
1315.939, 809.0864
1316.421, 805.5140
1316.903, 800.1484
1317.385, 795.4307
##END=



