##NAMES=Cafarsite
##RRUFFID=R080118
##IDEAL CHEMISTRY=(Ca,Na,[box])_19_Ti^4+^_8_Fe^3+^_4_Fe^2+^_4_(As^3+^O_3_)_28_F
##LOCALITY=Monte Cervandone, Val Devero, Piedmont, Italy
##OWNER=RRUFF
##SOURCE=Renato and Adriana Pagano
##DESCRIPTION=Dark reddish-brown pseudocubic crystals associated with black clinochlore and white orthoclase
##STATUS=The identification of this mineral has been confirmed by single-crystal X-ray diffraction.
##URL=rruff.info/R080118
92.52344, 361.8281
93.00555, 357.9200
93.48767, 358.5401
93.96979, 372.2015
94.45190, 386.2849
94.93402, 399.3021
95.41614, 406.1064
95.89825, 408.6379
96.38037, 410.2323
96.86249, 410.9308
97.34460, 411.0630
97.82672, 411.3065
98.30884, 411.1816
98.79095, 410.4588
99.27307, 408.8388
99.75519, 406.6882
100.2373, 405.7138
100.7194, 405.8028
101.2015, 404.8925
101.6837, 402.5259
102.1658, 399.4836
102.6479, 396.3182
103.1300, 393.0360
103.6121, 389.4299
104.0942, 385.1048
104.5764, 380.2928
105.0585, 375.3765
105.5406, 370.4172
106.0227, 365.3858
106.5048, 360.2871
106.9869, 355.1180
107.4691, 349.6121
107.9512, 343.3949
108.4333, 336.7070
108.9154, 330.1832
109.3975, 324.2680
109.8796, 318.9440
110.3618, 314.2480
110.8439, 310.5247
111.3260, 307.0875
111.8081, 303.6558
112.2902, 300.2095
112.7723, 296.8781
113.2544, 293.8154
113.7366, 290.7550
114.2187, 288.6274
114.7008, 287.9717
115.1829, 287.8776
115.6650, 287.5043
116.1471, 286.5454
116.6293, 285.3323
117.1114, 284.6771
117.5935, 284.7999
118.0756, 284.9532
118.5577, 285.0110
119.0398, 284.9729
119.5220, 284.8338
120.0041, 284.5722
120.4862, 284.2088
120.9683, 283.7953
121.4504, 283.2328
121.9325, 282.7745
122.4147, 282.7774
122.8968, 283.2982
123.3789, 283.5686
123.8610, 282.8568
124.3431, 281.7950
124.8252, 280.9799
125.3074, 280.6552
125.7895, 280.5999
126.2716, 280.3204
126.7537, 279.5804
127.2358, 279.0518
127.7179, 279.0423
128.2001, 279.3082
128.6822, 279.5123
129.1643, 279.4159
129.6464, 279.0612
130.1285, 278.9940
130.6107, 279.6641
131.0928, 280.2125
131.5749, 280.3748
132.0570, 280.2383
132.5391, 280.0542
133.0212, 280.0620
133.5034, 280.3303
133.9855, 280.2883
134.4676, 279.3607
134.9497, 278.6421
135.4318, 279.0950
135.9139, 280.6678
136.3960, 282.1815
136.8782, 282.1709
137.3603, 280.2328
137.8424, 278.8052
138.3245, 278.1608
138.8066, 278.0427
139.2887, 278.2483
139.7709, 278.7893
140.2530, 279.4379
140.7351, 279.8747
141.2172, 280.1171
141.6993, 280.4369
142.1814, 280.8416
142.6636, 281.3854
143.1457, 282.3149
143.6278, 283.8765
144.1099, 285.6420
144.5920, 287.3153
145.0741, 288.8773
145.5563, 290.2706
146.0384, 291.3164
146.5205, 291.9374
147.0026, 292.8588
147.4847, 294.2610
147.9668, 295.9855
148.4490, 298.0052
148.9311, 300.2989
149.4132, 302.8380
149.8953, 305.5462
150.3774, 308.3252
150.8595, 311.5715
151.3417, 315.3736
151.8238, 319.4972
152.3059, 323.7721
152.7880, 328.1028
153.2701, 332.5510
153.7522, 337.2077
154.2344, 341.5209
154.7165, 346.7488
155.1986, 353.7617
155.6807, 361.5032
156.1628, 368.5081
156.6449, 373.9448
157.1271, 378.3969
157.6092, 384.3045
158.0913, 392.5985
158.5734, 401.0211
159.0555, 408.9514
159.5376, 416.5157
160.0198, 424.0759
160.5019, 431.8669
160.9840, 439.7733
161.4661, 447.2963
161.9482, 454.0289
162.4303, 460.8254
162.9125, 468.2887
163.3946, 476.3930
163.8767, 484.5989
164.3588, 492.6700
164.8409, 500.5616
165.3230, 508.2411
165.8052, 515.4388
166.2873, 522.6287
166.7694, 530.4127
167.2515, 539.0267
167.7336, 547.5311
168.2157, 555.2162
168.6979, 562.6252
169.1800, 570.4973
169.6621, 579.2919
170.1442, 588.6494
170.6263, 597.4943
171.1084, 605.0678
171.5906, 613.3836
172.0727, 623.8238
172.5548, 635.1711
173.0369, 645.6712
173.5190, 654.0846
174.0011, 660.7365
174.4833, 668.3630
174.9654, 677.8695
175.4475, 687.6116
175.9296, 697.5475
176.4117, 707.4404
176.8938, 717.1220
177.3760, 726.5202
177.8581, 735.6580
178.3402, 743.5203
178.8223, 749.1871
179.3044, 754.6324
179.7865, 760.4650
180.2687, 766.6589
180.7508, 772.9009
181.2329, 778.9033
181.7150, 784.6679
182.1971, 790.3447
182.6792, 795.3762
183.1614, 800.7682
183.6435, 807.3034
184.1256, 814.9194
184.6077, 822.7526
185.0898, 829.9109
185.5719, 836.3641
186.0541, 843.7645
186.5362, 852.6469
187.0183, 862.1896
187.5004, 872.0398
187.9825, 882.2548
188.4646, 891.5775
188.9468, 898.4650
189.4289, 903.3513
189.9110, 907.9323
190.3931, 913.3386
190.8752, 918.4191
191.3573, 921.4417
191.8395, 922.1571
192.3216, 921.0730
192.8037, 918.5278
193.2858, 914.6573
193.7679, 909.3714
194.2500, 902.1886
194.7322, 893.5303
195.2143, 884.6154
195.6964, 875.5632
196.1785, 866.0917
196.6606, 856.0540
197.1427, 845.5369
197.6249, 834.8283
198.1070, 824.1502
198.5891, 813.4620
199.0712, 802.3064
199.5533, 789.8192
200.0354, 777.8184
200.5176, 767.4952
200.9997, 758.2828
201.4818, 748.9215
201.9639, 738.4246
202.4460, 726.7605
202.9281, 715.2334
203.4103, 704.1530
203.8924, 693.0109
204.3745, 681.5524
204.8566, 669.8640
205.3387, 658.4098
205.8208, 647.5571
206.3030, 637.2770
206.7851, 627.5395
207.2672, 618.8982
207.7493, 610.2110
208.2314, 600.9597
208.7135, 591.2720
209.1957, 581.6223
209.6778, 572.3664
210.1599, 563.4632
210.6420, 555.6692
211.1241, 550.2241
211.6062, 544.6121
212.0884, 537.0250
212.5705, 527.7825
213.0526, 518.7782
213.5347, 511.6910
214.0168, 506.8033
214.4989, 502.0532
214.9811, 497.5898
215.4632, 493.1241
215.9453, 488.3460
216.4274, 483.2733
216.9095, 478.3224
217.3916, 473.7296
217.8737, 469.5762
218.3559, 466.3062
218.8380, 464.9580
219.3201, 463.8081
219.8022, 461.0546
220.2843, 456.5678
220.7664, 452.1761
221.2486, 449.4876
221.7307, 448.1703
222.2128, 446.8278
222.6949, 445.0949
223.1770, 443.3339
223.6591, 441.9461
224.1413, 440.9542
224.6234, 440.2291
225.1055, 439.7498
225.5876, 439.4760
226.0697, 439.3837
226.5518, 439.5903
227.0340, 439.9097
227.5161, 440.0893
227.9982, 440.1284
228.4803, 440.0171
228.9624, 439.6419
229.4445, 439.1394
229.9267, 438.6872
230.4088, 438.4096
230.8909, 438.1727
231.3730, 437.7372
231.8551, 437.0999
232.3372, 436.2627
232.8194, 435.1874
233.3015, 433.9445
233.7836, 432.6973
234.2657, 431.6729
234.7478, 430.4318
235.2299, 427.8127
235.7121, 422.9997
236.1942, 418.3956
236.6763, 414.9078
237.1584, 411.8834
237.6405, 408.6226
238.1227, 404.7987
238.6048, 400.6090
239.0869, 396.5225
239.5690, 392.3633
240.0511, 388.6393
240.5332, 385.6151
241.0154, 382.9201
241.4975, 380.1692
241.9796, 377.1911
242.4617, 374.2198
242.9438, 371.9211
243.4259, 370.8425
243.9081, 369.5960
244.3902, 367.7426
244.8723, 365.8044
245.3544, 364.2651
245.8365, 363.3076
246.3186, 362.8055
246.8008, 362.4713
247.2829, 362.4015
247.7650, 362.3817
248.2471, 362.4228
248.7292, 362.4916
249.2113, 362.5467
249.6935, 362.5760
250.1756, 362.6147
250.6577, 362.7324
251.1398, 362.9517
251.6219, 363.2260
252.1040, 363.5966
252.5862, 363.9933
253.0683, 364.3297
253.5504, 364.5857
254.0325, 364.8522
254.5146, 365.2981
254.9967, 366.2167
255.4789, 366.7344
255.9610, 366.4486
256.4431, 365.9998
256.9252, 365.9596
257.4073, 366.4585
257.8894, 367.2257
258.3716, 367.9185
258.8537, 368.5389
259.3358, 369.0459
259.8179, 369.4977
260.3000, 369.8069
260.7821, 369.8629
261.2643, 369.6548
261.7464, 369.3045
262.2285, 368.8911
262.7106, 368.3579
263.1927, 368.1531
263.6748, 368.6030
264.1570, 369.1783
264.6391, 369.4479
265.1212, 369.3649
265.6033, 369.0815
266.0854, 368.6073
266.5675, 367.4434
267.0497, 368.2549
267.5318, 368.6770
268.0139, 368.7304
268.4960, 367.3110
268.9781, 367.7934
269.4602, 367.5137
269.9424, 367.2027
270.4245, 367.9527
270.9066, 366.7476
271.3887, 367.4808
271.8708, 367.4403
272.3529, 367.7540
272.8351, 367.3007
273.3172, 367.4025
273.7993, 368.2944
274.2814, 369.4846
274.7635, 370.5500
275.2456, 371.5215
275.7278, 372.3208
276.2099, 372.8354
276.6920, 373.0919
277.1741, 373.2674
277.6562, 373.2764
278.1383, 373.3897
278.6205, 374.1251
279.1026, 375.8108
279.5847, 377.4225
280.0668, 378.2120
280.5489, 378.2932
281.0310, 378.3226
281.5132, 378.5323
281.9953, 378.7823
282.4774, 378.9250
282.9595, 378.9813
283.4416, 378.8207
283.9237, 378.3598
284.4059, 377.6161
284.8880, 376.5996
285.3701, 375.1316
285.8522, 373.6449
286.3343, 372.6916
286.8164, 372.2409
287.2986, 371.6349
287.7807, 370.4363
288.2628, 368.7939
288.7449, 367.2484
289.2270, 366.0056
289.7091, 364.6055
290.1913, 362.4818
290.6734, 359.8414
291.1555, 357.3753
291.6376, 355.5558
292.1197, 354.1394
292.6018, 352.4981
293.0840, 350.5283
293.5661, 348.5403
294.0482, 346.7629
294.5303, 345.1165
295.0124, 343.4373
295.4945, 341.7023
295.9767, 339.8931
296.4588, 337.8869
296.9409, 335.5533
297.4230, 333.4723
297.9051, 332.2087
298.3872, 331.2778
298.8694, 330.1062
299.3515, 328.4659
299.8336, 326.6371
300.3157, 325.0388
300.7978, 323.7341
301.2799, 322.2111
301.7621, 319.8304
302.2442, 317.3658
302.7263, 315.5355
303.2084, 314.5141
303.6905, 313.8424
304.1726, 313.1177
304.6548, 312.3421
305.1369, 311.4835
305.6190, 310.4241
306.1011, 309.3639
306.5832, 308.4142
307.0653, 307.5894
307.5475, 306.9507
308.0296, 306.7327
308.5117, 306.8734
308.9938, 306.5717
309.4759, 305.4702
309.9580, 304.1857
310.4402, 303.0480
310.9223, 302.0754
311.4044, 301.3026
311.8865, 300.7821
312.3686, 300.4909
312.8507, 300.4008
313.3329, 300.8137
313.8150, 300.8748
314.2971, 299.8234
314.7792, 298.1673
315.2613, 296.8673
315.7434, 296.5760
316.2256, 296.7602
316.7077, 296.1655
317.1898, 294.4516
317.6719, 292.8873
318.1540, 292.2648
318.6361, 291.9943
319.1183, 291.3877
319.6004, 290.1286
320.0825, 288.7788
320.5646, 288.2650
321.0467, 288.7799
321.5288, 288.8951
322.0110, 287.7101
322.4931, 286.2072
322.9752, 285.1756
323.4573, 284.7483
323.9394, 284.4331
324.4215, 283.7380
324.9037, 282.6769
325.3858, 281.6855
325.8679, 280.4843
326.3500, 279.7992
326.8321, 280.7053
327.3142, 282.8559
327.7964, 284.1781
328.2785, 282.5128
328.7606, 278.6199
329.2427, 276.3398
329.7248, 276.6892
330.2069, 277.2742
330.6891, 276.7257
331.1712, 275.3295
331.6533, 273.6253
332.1354, 271.6633
332.6175, 269.6427
333.0996, 268.0360
333.5818, 266.9759
334.0639, 265.8748
334.5460, 264.3673
335.0281, 262.6798
335.5102, 261.0267
335.9923, 259.4042
336.4745, 257.9412
336.9566, 257.0953
337.4387, 256.9592
337.9208, 255.9034
338.4029, 252.9345
338.8850, 249.0672
339.3671, 245.1648
339.8492, 241.2523
340.3314, 237.6475
340.8135, 234.7255
341.2956, 232.3639
341.7777, 229.9504
342.2598, 227.3467
342.7419, 224.7098
343.2241, 222.2493
343.7062, 219.9038
344.1883, 217.3940
344.6704, 214.4173
345.1525, 211.2085
345.6346, 208.2946
346.1168, 205.7613
346.5989, 203.3440
347.0810, 200.8971
347.5631, 198.4450
348.0452, 196.0076
348.5273, 193.5726
349.0095, 191.1718
349.4916, 188.7404
349.9737, 186.2796
350.4558, 184.1696
350.9379, 182.6997
351.4200, 181.6651
351.9022, 180.8238
352.3843, 180.4173
352.8664, 179.5113
353.3485, 177.1318
353.8306, 173.6464
354.3127, 170.4895
354.7949, 168.0167
355.2770, 166.0623
355.7591, 164.4913
356.2412, 163.2932
356.7233, 162.0927
357.2054, 160.7225
357.6876, 159.2768
358.1697, 157.9218
358.6518, 156.6916
359.1339, 155.4482
359.6160, 153.9803
360.0981, 152.3666
360.5803, 151.0823
361.0624, 150.4175
361.5445, 149.9324
362.0266, 149.2903
362.5087, 148.5005
362.9908, 147.7168
363.4730, 147.0588
363.9551, 146.4415
364.4372, 145.5746
364.9193, 144.1848
365.4014, 143.0187
365.8835, 142.5019
366.3657, 142.4176
366.8478, 142.3625
367.3299, 142.2243
367.8120, 141.9914
368.2941, 141.6060
368.7762, 141.0147
369.2584, 140.5183
369.7405, 140.1949
370.2226, 139.9648
370.7047, 139.7872
371.1868, 139.6456
371.6689, 139.4590
372.1511, 139.1180
372.6332, 138.6151
373.1153, 138.3597
373.5974, 138.6109
374.0795, 138.8287
374.5616, 138.6631
375.0438, 138.2482
375.5259, 137.9599
376.0080, 138.0189
376.4901, 138.3152
376.9722, 138.4605
377.4543, 138.3343
377.9365, 138.2146
378.4186, 138.0562
378.9007, 137.9497
379.3828, 138.0527
379.8649, 138.3919
380.3470, 138.7674
380.8292, 138.8837
381.3113, 138.5957
381.7934, 138.4811
382.2755, 138.6811
382.7576, 138.9077
383.2397, 139.0246
383.7219, 139.0218
384.2040, 138.9195
384.6861, 138.7150
385.1682, 138.4235
385.6503, 138.2879
386.1324, 138.6278
386.6146, 138.7712
387.0967, 138.2711
387.5788, 137.6199
388.0609, 137.5694
388.5430, 138.4335
389.0251, 139.6451
389.5073, 140.0053
389.9894, 138.9683
390.4715, 138.2039
390.9536, 138.0740
391.4357, 137.9959
391.9178, 137.5323
392.4000, 136.6925
392.8821, 135.8362
393.3642, 135.3027
393.8463, 135.0978
394.3284, 134.9983
394.8105, 135.0918
395.2927, 135.1941
395.7748, 135.3411
396.2569, 135.4371
396.7390, 135.2971
397.2211, 134.7741
397.7032, 134.0807
398.1854, 133.7462
398.6675, 133.9364
399.1496, 133.9792
399.6317, 133.5353
400.1138, 132.9637
400.5959, 132.4733
401.0781, 132.1064
401.5602, 131.9292
402.0423, 132.1465
402.5244, 132.7027
403.0065, 132.9401
403.4886, 132.5790
403.9708, 132.1815
404.4529, 132.0719
404.9350, 132.2270
405.4171, 132.6083
405.8992, 133.3936
406.3813, 134.2954
406.8635, 134.7792
407.3456, 134.7863
407.8277, 134.9295
408.3098, 135.6302
408.7919, 136.6047
409.2740, 137.3701
409.7562, 137.8720
410.2383, 138.2438
410.7204, 138.3184
411.2025, 138.3123
411.6846, 139.0344
412.1667, 140.9283
412.6489, 142.9153
413.1310, 143.4150
413.6131, 142.4814
414.0952, 142.0330
414.5773, 142.6358
415.0594, 143.7028
415.5416, 144.8143
416.0237, 145.9147
416.5058, 146.9257
416.9879, 147.8137
417.4700, 148.5614
417.9521, 149.0836
418.4343, 149.0280
418.9164, 149.2038
419.3985, 149.9664
419.8806, 151.0544
420.3627, 152.0961
420.8448, 152.9741
421.3270, 153.7694
421.8091, 154.6028
422.2912, 155.4919
422.7733, 156.3572
423.2554, 157.2210
423.7375, 158.0411
424.2197, 158.6998
424.7018, 159.2707
425.1839, 159.9961
425.6660, 161.0821
426.1481, 162.4401
426.6302, 163.4857
427.1124, 163.7899
427.5945, 164.2920
428.0766, 165.2139
428.5587, 166.3264
429.0408, 167.4065
429.5229, 168.3843
430.0051, 169.3462
430.4872, 170.5080
430.9693, 172.0377
431.4514, 173.0476
431.9335, 172.9837
432.4156, 172.8528
432.8978, 173.0126
433.3799, 173.4328
433.8620, 173.9551
434.3441, 174.4929
434.8262, 175.0532
435.3083, 175.6922
435.7905, 176.4956
436.2726, 177.1317
436.7547, 177.4675
437.2368, 177.5897
437.7189, 177.5406
438.2010, 177.3252
438.6832, 176.9782
439.1653, 176.4796
439.6474, 175.8583
440.1295, 175.2253
440.6116, 174.5008
441.0938, 173.9619
441.5759, 173.9776
442.0580, 174.3885
442.5401, 174.7314
443.0222, 175.1240
443.5043, 175.2211
443.9865, 174.5014
444.4686, 173.0527
444.9507, 171.6301
445.4328, 170.5659
445.9149, 169.7652
446.3970, 169.0188
446.8792, 168.3133
447.3613, 167.6853
447.8434, 167.1799
448.3255, 166.7419
448.8076, 166.2817
449.2897, 165.7882
449.7719, 165.3773
450.2540, 165.2000
450.7361, 165.2775
451.2182, 165.0522
451.7003, 164.4153
452.1824, 163.6481
452.6646, 162.6717
453.1467, 161.6697
453.6288, 160.9734
454.1109, 160.7270
454.5930, 160.7245
455.0751, 160.5453
455.5573, 160.0385
456.0394, 159.6485
456.5215, 159.6271
457.0036, 159.4903
457.4857, 158.8188
457.9678, 157.7378
458.4500, 156.7258
458.9321, 156.1592
459.4142, 155.9663
459.8963, 155.7233
460.3784, 155.4222
460.8605, 155.0825
461.3427, 154.7047
461.8248, 154.2964
462.3069, 153.8606
462.7890, 153.3985
463.2711, 152.9164
463.7532, 152.3311
464.2354, 151.6673
464.7175, 151.3770
465.1996, 151.7405
465.6817, 152.1208
466.1638, 152.0125
466.6459, 151.5707
467.1281, 151.1601
467.6102, 150.6946
468.0923, 150.4983
468.5744, 151.2314
469.0565, 152.7706
469.5386, 153.7643
470.0208, 153.5298
470.5029, 152.6695
470.9850, 152.1861
471.4671, 152.0629
471.9492, 152.2043
472.4313, 152.7001
472.9135, 153.3828
473.3956, 154.0930
473.8777, 154.8093
474.3598, 155.5689
474.8419, 156.4138
475.3240, 157.3282
475.8062, 158.1282
476.2883, 158.5075
476.7704, 159.1691
477.2525, 160.4531
477.7346, 162.0094
478.2167, 163.3412
478.6989, 164.3500
479.1810, 165.4148
479.6631, 167.0954
480.1452, 169.5554
480.6273, 171.7386
481.1094, 173.2809
481.5916, 174.9065
482.0737, 176.9262
482.5558, 179.1779
483.0379, 181.3694
483.5200, 183.3703
484.0021, 185.2450
484.4843, 187.0866
484.9664, 188.8685
485.4485, 190.7768
485.9306, 192.9717
486.4127, 195.2020
486.8948, 197.2295
487.3770, 199.1100
487.8591, 201.1399
488.3412, 203.4924
488.8233, 206.0992
489.3054, 208.9528
489.7875, 212.0904
490.2697, 214.9119
490.7518, 216.8263
491.2339, 218.3700
491.7160, 220.7009
492.1981, 224.1066
492.6802, 227.4172
493.1624, 229.9683
493.6445, 232.1609
494.1266, 234.5529
494.6087, 237.2520
495.0908, 240.1613
495.5729, 243.2802
496.0551, 246.5934
496.5372, 249.5928
497.0193, 252.1286
497.5014, 254.5707
497.9835, 257.0879
498.4656, 259.5697
498.9478, 261.8750
499.4299, 263.9547
499.9120, 265.8324
500.3941, 267.4966
500.8762, 268.8781
501.3583, 270.3655
501.8405, 272.2253
502.3226, 273.9142
502.8047, 275.1653
503.2868, 276.1125
503.7689, 277.0555
504.2510, 278.1984
504.7331, 279.1935
505.2152, 279.2975
505.6974, 278.3594
506.1795, 277.4496
506.6616, 276.5419
507.1437, 275.9862
507.6258, 276.5016
508.1079, 277.7793
508.5901, 278.1599
509.0722, 276.1827
509.5543, 273.1745
510.0364, 271.0543
510.5185, 269.8288
511.0006, 268.7528
511.4828, 267.5385
511.9649, 266.2195
512.4470, 264.9101
512.9291, 263.6945
513.4113, 262.2179
513.8934, 260.0611
514.3755, 257.8058
514.8576, 256.1344
515.3397, 255.0496
515.8218, 254.0906
516.3040, 252.9315
516.7861, 251.5798
517.2682, 250.1116
517.7503, 248.3780
518.2324, 246.7150
518.7145, 245.1039
519.1967, 243.5918
519.6788, 242.1583
520.1609, 240.8331
520.6430, 239.7726
521.1251, 239.2566
521.6072, 239.2528
522.0894, 238.7086
522.5715, 237.3039
523.0536, 235.8500
523.5357, 234.5558
524.0178, 233.4001
524.4999, 232.4107
524.9821, 231.6120
525.4642, 230.7761
525.9463, 229.6518
526.4284, 228.3030
526.9105, 226.9658
527.3926, 225.6648
527.8748, 224.4311
528.3569, 223.3855
528.8390, 222.4334
529.3211, 221.2274
529.8032, 219.6201
530.2853, 217.8876
530.7675, 216.1982
531.2496, 214.4925
531.7317, 212.5775
532.2138, 210.3837
532.6959, 208.2558
533.1780, 206.6891
533.6602, 205.8530
534.1423, 204.4884
534.6244, 202.1162
535.1065, 199.8144
535.5886, 198.0972
536.0707, 196.6871
536.5529, 195.1047
537.0350, 193.1743
537.5171, 191.1244
537.9992, 189.3675
538.4813, 187.9751
538.9634, 186.5090
539.4456, 184.6869
539.9277, 183.1046
540.4098, 182.2125
540.8919, 181.7376
541.3740, 181.1111
541.8561, 180.0463
542.3383, 178.8833
542.8204, 178.1401
543.3025, 177.7518
543.7846, 177.0168
544.2667, 175.5683
544.7488, 174.1087
545.2310, 173.5557
545.7131, 173.7965
546.1952, 173.8365
546.6773, 173.2519
547.1594, 172.6803
547.6415, 172.5697
548.1237, 172.8043
548.6058, 173.0432
549.0879, 173.1446
549.5700, 173.2703
550.0521, 173.6899
550.5342, 174.4651
551.0164, 175.3607
551.4985, 176.7106
551.9806, 177.8191
552.4627, 177.9829
552.9448, 177.7568
553.4269, 178.2679
553.9091, 180.0893
554.3912, 182.4753
554.8733, 184.1074
555.3554, 184.8806
555.8375, 185.6475
556.3196, 186.4465
556.8018, 187.3438
557.2839, 188.2158
557.7660, 189.1994
558.2481, 190.6983
558.7302, 193.1287
559.2123, 195.8005
559.6945, 197.9858
560.1766, 199.7837
560.6587, 201.5856
561.1408, 203.4842
561.6229, 205.5286
562.1050, 207.8450
562.5872, 210.4873
563.0693, 212.9754
563.5514, 215.0173
564.0335, 217.1849
564.5156, 219.9180
564.9977, 222.9392
565.4799, 225.6546
565.9620, 227.8315
566.4441, 229.9572
566.9262, 232.8682
567.4083, 236.8082
567.8904, 240.5415
568.3726, 243.9923
568.8547, 247.2953
569.3368, 250.4050
569.8189, 253.4213
570.3010, 256.4935
570.7831, 259.7271
571.2653, 262.9256
571.7474, 265.7715
572.2295, 268.3278
572.7116, 271.2234
573.1937, 274.5943
573.6758, 278.1961
574.1580, 281.9780
574.6401, 285.8455
575.1222, 289.4378
575.6043, 292.7162
576.0864, 295.7184
576.5685, 298.2152
577.0507, 300.4922
577.5328, 303.0758
578.0149, 306.0826
578.4970, 309.1522
578.9791, 311.8718
579.4612, 314.2184
579.9434, 316.8144
580.4255, 320.1036
580.9076, 323.1205
581.3897, 325.6495
581.8718, 327.8642
582.3539, 329.9187
582.8361, 331.8718
583.3182, 333.7349
583.8003, 335.6217
584.2824, 337.4804
584.7645, 338.8507
585.2466, 339.6016
585.7288, 340.2403
586.2108, 340.9140
586.6929, 341.6711
587.1750, 342.6232
587.6572, 343.8540
588.1393, 344.9389
588.6214, 345.5339
589.1035, 345.9473
589.5856, 346.7998
590.0677, 348.0358
590.5499, 348.6584
591.0320, 347.8970
591.5141, 346.2225
591.9962, 345.3928
592.4783, 346.3005
592.9604, 346.8336
593.4426, 346.9933
593.9247, 346.7648
594.4068, 345.8610
594.8889, 344.5326
595.3710, 343.5094
595.8531, 343.3581
596.3353, 343.6275
596.8174, 343.1504
597.2995, 341.7603
597.7816, 340.6204
598.2637, 340.2615
598.7458, 339.9374
599.2280, 338.9972
599.7101, 337.5226
600.1922, 335.9491
600.6743, 334.2409
601.1564, 332.6354
601.6385, 331.4912
602.1207, 330.6170
602.6028, 329.4359
603.0849, 327.7570
603.5670, 325.7452
604.0491, 323.5320
604.5313, 320.9866
605.0134, 319.0733
605.4955, 318.5014
605.9776, 317.6529
606.4597, 315.7576
606.9418, 313.3999
607.4240, 311.4372
607.9061, 310.0917
608.3882, 308.8062
608.8703, 306.9591
609.3524, 304.5892
609.8345, 302.0559
610.3167, 299.1588
610.7988, 296.6289
611.2809, 295.1423
611.7630, 294.1079
612.2451, 292.7519
612.7272, 291.0062
613.2094, 288.9928
613.6915, 286.5577
614.1736, 283.9970
614.6557, 281.7688
615.1378, 279.8365
615.6199, 277.7826
616.1021, 275.3368
616.5842, 272.6599
617.0663, 270.2536
617.5484, 268.3073
618.0305, 266.2770
618.5126, 264.1644
618.9948, 261.9740
619.4769, 259.5661
619.9590, 257.0960
620.4411, 254.9408
620.9232, 253.3091
621.4053, 251.9486
621.8875, 250.5653
622.3696, 249.1576
622.8517, 247.3923
623.3338, 245.1709
623.8159, 242.6681
624.2980, 239.8278
624.7802, 236.8116
625.2623, 234.1698
625.7444, 232.0826
626.2265, 230.2403
626.7086, 228.7463
627.1907, 227.2986
627.6729, 225.3231
628.1550, 222.7853
628.6371, 220.3597
629.1192, 218.6926
629.6013, 217.6455
630.0834, 216.1091
630.5656, 213.6225
631.0477, 211.4006
631.5298, 209.7274
632.0119, 208.2725
632.4940, 206.9468
632.9761, 205.6430
633.4583, 204.0094
633.9404, 201.5709
634.4225, 198.9076
634.9046, 197.1038
635.3867, 196.0725
635.8688, 194.7262
636.3510, 192.6387
636.8331, 190.3174
637.3152, 188.3227
637.7973, 186.6722
638.2794, 185.1960
638.7615, 183.9556
639.2437, 182.8119
639.7258, 181.8975
640.2079, 180.9584
640.6900, 179.4880
641.1721, 177.4366
641.6542, 175.5215
642.1364, 174.6869
642.6185, 174.7886
643.1006, 173.8908
643.5827, 171.6251
644.0648, 169.1749
644.5469, 166.7487
645.0291, 164.4522
645.5112, 162.3603
645.9933, 160.4852
646.4754, 158.8478
646.9575, 157.6594
647.4396, 156.5820
647.9218, 155.2108
648.4039, 153.6046
648.8860, 152.0638
649.3681, 150.7032
649.8502, 149.4525
650.3323, 148.2102
650.8145, 147.0039
651.2966, 145.6736
651.7787, 144.1068
652.2608, 142.5550
652.7429, 141.1436
653.2250, 139.7707
653.7072, 138.2629
654.1893, 136.5842
654.6714, 135.0001
655.1535, 133.7837
655.6356, 132.8613
656.1177, 132.0293
656.5999, 131.3101
657.0820, 130.4510
657.5641, 129.2983
658.0462, 127.9765
658.5283, 126.6484
659.0104, 125.2693
659.4926, 124.0978
659.9747, 123.4230
660.4568, 122.7338
660.9389, 121.5712
661.4210, 120.1685
661.9031, 119.0614
662.3853, 118.4489
662.8674, 118.0411
663.3495, 117.4564
663.8316, 116.6886
664.3137, 115.7644
664.7958, 114.4915
665.2780, 113.4137
665.7601, 112.9296
666.2422, 112.6908
666.7243, 112.3451
667.2064, 111.8600
667.6885, 111.2087
668.1707, 110.2513
668.6528, 109.2068
669.1349, 108.1776
669.6170, 107.2637
670.0991, 106.9428
670.5812, 107.5000
671.0634, 108.2164
671.5455, 107.7344
672.0276, 105.5600
672.5097, 104.0818
672.9918, 103.8816
673.4739, 103.7625
673.9561, 103.5019
674.4382, 103.0679
674.9203, 102.3486
675.4024, 101.3220
675.8845, 100.4093
676.3666, 100.0199
676.8488, 99.97269
677.3309, 99.92168
677.8130, 99.84669
678.2951, 99.65871
678.7772, 99.27428
679.2593, 98.81776
679.7415, 98.43499
680.2236, 98.26688
680.7057, 98.23230
681.1878, 98.17600
681.6699, 98.10178
682.1520, 97.80891
682.6342, 97.91091
683.1163, 97.92345
683.5984, 97.97942
684.0805, 98.27743
684.5626, 98.26904
685.0447, 98.66217
685.5269, 98.21760
686.0090, 98.95864
686.4911, 99.68336
686.9732, 100.0430
687.4553, 100.2794
687.9374, 100.8211
688.4196, 101.7040
688.9017, 102.4879
689.3838, 103.0177
689.8659, 103.5169
690.3480, 104.0224
690.8301, 104.6186
691.3123, 105.3692
691.7944, 106.3183
692.2765, 107.6488
692.7586, 109.7558
693.2407, 112.5471
693.7228, 114.5699
694.2050, 115.5175
694.6871, 116.5624
695.1692, 118.1294
695.6513, 119.9882
696.1334, 121.9069
696.6155, 123.8847
697.0977, 125.9434
697.5798, 128.1295
698.0619, 130.3743
698.5440, 132.5979
699.0261, 134.8543
699.5082, 137.2121
699.9904, 139.6989
700.4725, 142.3665
700.9546, 145.3130
701.4367, 148.5039
701.9188, 151.4703
702.4009, 154.0023
702.8831, 156.7178
703.3652, 159.8736
703.8473, 163.2106
704.3294, 166.5891
704.8115, 169.9902
705.2936, 173.3808
705.7758, 176.5591
706.2579, 179.8767
706.7400, 183.8567
707.2221, 188.1771
707.7042, 192.1445
708.1863, 195.5985
708.6685, 198.9355
709.1506, 202.5183
709.6327, 206.3041
710.1148, 209.9302
710.5969, 213.3436
711.0790, 216.6694
711.5612, 219.9086
712.0433, 223.0938
712.5254, 226.0974
713.0075, 229.0365
713.4896, 232.2852
713.9717, 236.2565
714.4539, 240.0766
714.9360, 242.8559
715.4181, 244.9240
715.9002, 246.9937
716.3823, 249.1850
716.8644, 251.2715
717.3466, 253.0662
717.8287, 254.6626
718.3108, 256.4413
718.7929, 258.4859
719.2750, 260.5433
719.7571, 262.9507
720.2393, 265.0197
720.7214, 266.4210
721.2035, 267.2184
721.6856, 267.4552
722.1677, 267.0267
722.6498, 266.6751
723.1320, 267.3368
723.6141, 268.4219
724.0962, 268.6392
724.5783, 267.9364
725.0604, 267.1128
725.5425, 266.5951
726.0247, 266.2186
726.5068, 265.6223
726.9889, 264.6613
727.4710, 263.9250
727.9531, 263.8003
728.4352, 263.4586
728.9174, 262.6426
729.3995, 261.4445
729.8816, 259.8443
730.3637, 257.8677
730.8458, 256.1333
731.3279, 255.2972
731.8101, 254.8545
732.2922, 254.0843
732.7743, 252.9653
733.2564, 251.4212
733.7385, 249.3715
734.2206, 247.2412
734.7028, 245.5443
735.1849, 244.2871
735.6670, 243.3704
736.1491, 243.4028
736.6312, 242.9876
737.1133, 241.3360
737.5955, 239.5549
738.0776, 238.7512
738.5597, 238.8343
739.0418, 238.7717
739.5239, 237.8126
740.0060, 236.7215
740.4882, 236.4410
740.9703, 236.7563
741.4524, 237.0446
741.9345, 237.1744
742.4166, 237.1894
742.8987, 237.0502
743.3809, 236.8842
743.8630, 237.3687
744.3451, 239.0495
744.8272, 240.3844
745.3093, 241.0037
745.7914, 241.5536
746.2736, 242.2690
746.7557, 243.1898
747.2378, 244.3459
747.7199, 245.7377
748.2020, 247.4028
748.6841, 249.5649
749.1663, 251.9485
749.6484, 253.9948
750.1305, 255.7310
750.6126, 257.6984
751.0947, 260.2122
751.5768, 262.8219
752.0590, 264.6600
752.5411, 265.4803
753.0232, 266.7278
753.5053, 268.8455
753.9874, 270.8013
754.4695, 272.1953
754.9517, 273.3354
755.4338, 274.4369
755.9159, 275.5479
756.3980, 276.9356
756.8801, 279.1325
757.3622, 281.3272
757.8444, 282.8589
758.3265, 283.7460
758.8086, 283.9186
759.2907, 283.4061
759.7728, 282.7220
760.2549, 282.3934
760.7371, 282.3133
761.2192, 281.8217
761.7013, 280.8410
762.1834, 279.6628
762.6655, 278.4676
763.1476, 276.9439
763.6298, 274.6366
764.1119, 271.8627
764.5940, 269.5213
765.0761, 268.1230
765.5582, 266.5217
766.0403, 264.1303
766.5225, 261.2732
767.0046, 258.1665
767.4867, 254.9144
767.9688, 251.6881
768.4509, 248.5601
768.9330, 245.5460
769.4152, 242.7644
769.8973, 240.2151
770.3794, 237.4158
770.8615, 234.2888
771.3436, 231.1255
771.8257, 228.1003
772.3079, 225.0916
772.7900, 221.8099
773.2721, 218.2045
773.7542, 215.0733
774.2363, 212.9263
774.7184, 210.8401
775.2006, 208.3963
775.6827, 205.7220
776.1648, 202.9871
776.6469, 200.2398
777.1290, 197.4396
777.6111, 194.5341
778.0933, 191.6095
778.5754, 188.8250
779.0575, 186.1814
779.5396, 183.9619
780.0217, 182.3420
780.5038, 180.6538
780.9860, 178.3176
781.4681, 175.4925
781.9502, 172.8285
782.4323, 170.2736
782.9144, 167.9555
783.3965, 166.1724
783.8787, 164.3510
784.3608, 162.0583
784.8429, 159.5167
785.3250, 157.1644
785.8071, 155.1389
786.2892, 153.2124
786.7714, 151.0637
787.2535, 148.9413
787.7356, 147.4089
788.2177, 146.3969
788.6998, 145.3056
789.1819, 143.9185
789.6641, 142.3579
790.1462, 140.7399
790.6283, 139.0656
791.1104, 137.5871
791.5925, 136.4150
792.0746, 135.2669
792.5568, 134.1101
793.0389, 132.9438
793.5210, 131.7169
794.0031, 130.4765
794.4852, 129.3990
794.9673, 128.5968
795.4495, 127.8370
795.9316, 127.1287
796.4137, 126.2933
796.8958, 124.8568
797.3779, 123.0084
797.8600, 121.6005
798.3422, 121.0811
798.8243, 121.0349
799.3064, 120.8714
799.7885, 120.5949
800.2706, 119.9501
800.7527, 118.7442
801.2349, 117.7841
801.7170, 117.5742
802.1991, 117.6038
802.6812, 117.0904
803.1633, 116.0329
803.6454, 115.2527
804.1276, 114.8699
804.6097, 114.7251
805.0918, 114.9329
805.5739, 115.2404
806.0560, 115.4551
806.5381, 115.5188
807.0203, 115.3493
807.5024, 114.8211
807.9845, 114.2776
808.4666, 114.2603
808.9487, 114.6432
809.4308, 114.9132
809.9130, 115.0081
810.3951, 115.1936
810.8772, 115.6637
811.3593, 116.2141
811.8414, 116.3910
812.3235, 115.9931
812.8057, 115.9844
813.2878, 116.7205
813.7699, 117.4068
814.2520, 117.7850
814.7341, 118.0442
815.2162, 118.3472
815.6984, 118.7170
816.1805, 119.1663
816.6626, 119.7011
817.1447, 120.3195
817.6268, 121.1170
818.1089, 121.9537
818.5911, 122.6341
819.0732, 123.1195
819.5553, 123.4128
820.0374, 123.5042
820.5195, 123.4730
821.0016, 123.4817
821.4838, 123.5320
821.9659, 123.5477
822.4480, 123.5121
822.9301, 123.4794
823.4122, 123.4826
823.8943, 123.5001
824.3765, 123.5001
824.8586, 123.4880
825.3407, 123.4279
825.8228, 123.4172
826.3049, 123.2390
826.7870, 122.6652
827.2692, 121.9882
827.7513, 121.5038
828.2334, 121.2321
828.7155, 121.0424
829.1976, 120.9157
829.6797, 120.7428
830.1619, 120.4099
830.6440, 119.9344
831.1261, 119.3438
831.6082, 118.6481
832.0903, 117.8507
832.5724, 116.9222
833.0546, 116.0520
833.5367, 115.6836
834.0188, 115.9374
834.5009, 115.8273
834.9830, 115.2174
835.4651, 114.5108
835.9473, 113.7748
836.4294, 113.0751
836.9115, 112.4944
837.3936, 112.0286
837.8757, 111.5424
838.3578, 110.8840
838.8400, 110.3638
839.3221, 110.3061
839.8042, 110.2888
840.2863, 109.9023
840.7684, 109.1560
841.2505, 108.2150
841.7327, 107.1267
842.2148, 106.0828
842.6969, 105.3259
843.1790, 104.7919
843.6611, 104.3460
844.1432, 103.9642
844.6254, 103.4802
845.1075, 102.8257
845.5896, 102.0190
846.0717, 101.0578
846.5538, 99.94587
847.0359, 98.86944
847.5181, 97.71292
848.0002, 96.83757
848.4823, 96.63057
848.9644, 96.42793
849.4465, 95.72324
849.9286, 94.65390
850.4108, 93.62170
850.8929, 92.59534
851.3750, 91.83006
851.8571, 91.82858
852.3392, 91.75577
852.8214, 90.72111
853.3035, 89.12530
853.7856, 87.81710
854.2677, 87.07331
854.7498, 86.64616
855.2319, 86.48335
855.7141, 86.37660
856.1962, 85.74670
856.6783, 84.68018
857.1604, 83.76797
857.6425, 83.16385
858.1246, 82.67336
858.6068, 82.14698
859.0889, 81.60007
859.5710, 81.08775
860.0531, 80.62394
860.5352, 80.15475
861.0173, 79.65730
861.4995, 79.18318
861.9816, 78.80830
862.4637, 78.43980
862.9458, 77.92210
863.4279, 77.23394
863.9100, 76.62630
864.3922, 76.22023
864.8743, 75.83920
865.3564, 75.29231
865.8385, 74.77966
866.3206, 74.67351
866.8027, 74.87714
867.2849, 74.84544
867.7670, 74.23113
868.2491, 73.40044
868.7312, 72.73219
869.2133, 72.24558
869.6954, 72.08495
870.1776, 72.22490
870.6597, 72.24658
871.1418, 71.95281
871.6239, 71.53334
872.1060, 71.26807
872.5881, 71.15507
873.0703, 70.81738
873.5524, 70.14832
874.0345, 69.52629
874.5166, 69.01759
874.9987, 68.59506
875.4808, 68.26513
875.9630, 68.00134
876.4451, 67.74055
876.9272, 67.56219
877.4093, 67.20618
877.8914, 66.31853
878.3735, 65.54731
878.8557, 65.48727
879.3378, 65.71840
879.8199, 65.55481
880.3020, 64.86189
880.7841, 64.03066
881.2662, 63.18457
881.7484, 62.47116
882.2305, 62.17706
882.7126, 62.13545
883.1947, 61.96471
883.6768, 61.60325
884.1589, 61.13597
884.6411, 60.60862
885.1232, 60.07288
885.6053, 59.66472
886.0874, 59.39068
886.5695, 58.98531
887.0516, 58.43155
887.5338, 57.77312
888.0159, 56.91406
888.4980, 56.15014
888.9801, 55.90752
889.4622, 56.18396
889.9443, 56.21497
890.4265, 55.86324
890.9086, 55.46715
891.3907, 55.03204
891.8728, 54.58440
892.3549, 54.09880
892.8370, 53.62366
893.3192, 53.27763
893.8013, 53.10804
894.2834, 52.86610
894.7655, 52.34779
895.2476, 51.78542
895.7297, 51.35070
896.2119, 51.01924
896.6940, 50.71601
897.1761, 50.44183
897.6582, 50.31288
898.1403, 50.45604
898.6224, 50.64495
899.1046, 50.48772
899.5867, 50.04692
900.0688, 49.57463
900.5509, 49.09627
901.0330, 48.63898
901.5151, 48.20429
901.9973, 47.85451
902.4794, 47.71624
902.9615, 47.78996
903.4436, 47.63927
903.9257, 47.15974
904.4078, 46.72279
904.8900, 46.37615
905.3721, 46.12907
905.8542, 46.02237
906.3363, 46.02060
906.8184, 46.03092
907.3005, 46.12440
907.7827, 46.05122
908.2648, 45.60534
908.7469, 45.18318
909.2290, 45.04489
909.7111, 45.00050
910.1932, 44.76343
910.6754, 44.33321
911.1575, 43.99360
911.6396, 43.89498
912.1217, 43.91790
912.6038, 44.08414
913.0859, 44.24229
913.5681, 44.15405
914.0502, 43.84469
914.5323, 43.46742
915.0144, 43.09193
915.4965, 42.76013
915.9786, 42.52242
916.4607, 42.36810
916.9428, 42.28209
917.4249, 42.25718
917.9070, 42.17822
918.3892, 42.01017
918.8713, 41.88829
919.3534, 41.95734
919.8355, 42.08945
920.3176, 41.84262
920.7997, 41.03025
921.2819, 40.51883
921.7640, 40.29927
922.2461, 40.44561
922.7282, 41.39138
923.2103, 42.38415
923.6924, 42.38267
924.1746, 41.44756
924.6567, 40.64800
925.1388, 39.92965
925.6209, 39.48938
926.1030, 39.54351
926.5851, 39.71535
927.0673, 39.78772
927.5494, 39.78009
928.0315, 39.76729
928.5136, 39.76765
928.9957, 39.73546
929.4778, 39.64549
929.9600, 39.51516
930.4421, 39.32152
930.9242, 39.11446
931.4063, 38.98674
931.8884, 38.92923
932.3705, 38.83365
932.8527, 38.62904
933.3348, 38.43317
933.8169, 38.41306
934.2990, 38.51862
934.7811, 38.65638
935.2632, 38.80147
935.7454, 38.78660
936.2275, 38.55563
936.7096, 38.37311
937.1917, 38.52880
937.6738, 38.89713
938.1559, 38.94523
938.6381, 38.60933
939.1202, 38.52637
939.6023, 38.88884
940.0844, 39.05743
940.5665, 38.61145
941.0486, 37.91745
941.5308, 37.55238
942.0129, 37.54293
942.4950, 37.55767
942.9771, 37.67796
943.4592, 37.69809
943.9413, 37.50913
944.4235, 37.29403
944.9056, 37.20313
945.3877, 37.16104
945.8698, 36.95322
946.3519, 36.46480
946.8340, 36.22069
947.3162, 36.61663
947.7983, 36.98875
948.2804, 36.96366
948.7625, 36.74450
949.2446, 36.51628
949.7267, 36.33754
950.2089, 36.28951
950.6910, 36.46317
951.1731, 36.59126
951.6552, 36.34315
952.1373, 36.01897
952.6194, 36.03656
953.1016, 36.29110
953.5837, 36.47603
954.0658, 36.50408
954.5479, 36.47498
955.0300, 36.47147
955.5121, 36.45767
955.9943, 36.37708
956.4764, 36.22881
956.9585, 35.94831
957.4406, 35.54998
957.9227, 35.32695
958.4048, 35.42064
958.8870, 35.65936
959.3691, 35.83128
959.8512, 35.93766
960.3333, 36.01166
960.8154, 36.07488
961.2975, 35.89672
961.7797, 35.33851
962.2618, 34.86395
962.7439, 34.78960
963.2260, 34.98587
963.7081, 35.20792
964.1902, 35.50672
964.6724, 35.54827
965.1545, 35.07519
965.6366, 34.77639
966.1187, 34.99569
966.6008, 35.26616
967.0829, 35.21340
967.5651, 34.92588
968.0472, 34.67456
968.5293, 34.49035
969.0114, 34.30019
969.4935, 33.98319
969.9756, 33.78791
970.4578, 33.90668
970.9399, 34.14519
971.4220, 34.31396
971.9041, 34.39566
972.3862, 34.44659
972.8683, 34.53130
973.3505, 34.48402
973.8326, 34.06812
974.3147, 33.61979
974.7968, 33.45149
975.2789, 33.47070
975.7610, 33.44933
976.2432, 33.36005
976.7253, 33.41614
977.2074, 33.85496
977.6895, 34.32258
978.1716, 34.49902
978.6537, 34.40529
979.1359, 33.92058
979.6180, 33.19111
980.1001, 32.69660
980.5822, 32.61211
981.0643, 32.76090
981.5464, 33.03402
982.0286, 33.33918
982.5107, 33.43261
982.9928, 33.35440
983.4749, 33.29539
983.9570, 33.28172
984.4391, 33.27527
984.9213, 33.26028
985.4034, 33.19671
985.8855, 33.00377
986.3676, 32.70543
986.8497, 32.52063
987.3318, 32.45595
987.8140, 32.41462
988.2961, 32.35991
988.7782, 32.43774
989.2603, 32.80875
989.7424, 33.25703
990.2245, 33.31345
990.7067, 32.91643
991.1888, 32.62584
991.6709, 32.45678
992.1530, 32.35810
992.6351, 32.35711
993.1172, 32.36421
993.5994, 32.30505
994.0815, 32.20185
994.5636, 32.12126
995.0457, 32.06064
995.5278, 32.02980
996.0099, 32.08904
996.4921, 32.09850
996.9742, 32.00063
997.4563, 31.85752
997.9384, 31.66479
998.4205, 31.46883
998.9026, 31.44321
999.3848, 31.72383
999.8669, 31.87733
1000.349, 31.64652
1000.831, 31.47373
1001.313, 31.70333
1001.795, 32.00916
1002.277, 32.00382
1002.760, 31.71419
1003.242, 31.43240
1003.724, 31.23241
1004.206, 31.10062
1004.688, 31.04111
1005.170, 31.03646
1005.652, 31.13942
1006.134, 31.25367
1006.617, 31.20627
1007.099, 31.00723
1007.581, 30.86317
1008.063, 30.89902
1008.545, 30.96286
1009.027, 30.91420
1009.509, 30.84106
1009.991, 30.87332
1010.473, 30.95914
1010.956, 30.95504
1011.438, 30.84234
1011.920, 30.75571
1012.402, 30.81001
1012.884, 30.87406
1013.366, 30.74569
1013.848, 30.53046
1014.330, 30.47165
1014.813, 30.51743
1015.295, 30.36026
1015.777, 29.94069
1016.259, 29.69431
1016.741, 30.07612
1017.223, 30.67727
1017.705, 30.66225
1018.187, 30.22615
1018.669, 30.05912
1019.152, 30.18957
1019.634, 30.37085
1020.116, 30.50683
1020.598, 30.48591
1021.080, 30.14547
1021.562, 29.64725
1022.044, 29.46553
1022.526, 29.57555
1023.008, 29.75419
1023.491, 29.98034
1023.973, 30.15352
1024.455, 30.22958
1024.937, 30.25813
1025.419, 30.30176
1025.901, 30.33997
1026.383, 30.26891
1026.865, 30.08171
1027.348, 29.88190
1027.830, 29.67334
1028.312, 29.46521
1028.794, 29.22897
1029.276, 29.12005
1029.758, 29.39887
1030.240, 29.97211
1030.722, 30.03550
1031.204, 29.43454
1031.687, 29.01947
1032.169, 28.89317
1032.651, 28.89148
1033.133, 28.95880
1033.615, 29.08257
1034.097, 29.26463
1034.579, 29.49594
1035.061, 29.63017
1035.544, 29.65122
1036.026, 29.61611
1036.508, 29.53574
1036.990, 28.69426
1037.472, 29.52182
1037.954, 29.95982
1038.436, 30.02917
1038.918, 28.62577
1039.401, 29.12399
1039.883, 28.86020
1040.365, 28.56517
1040.847, 29.33118
1041.329, 28.14199
1041.811, 28.89118
1042.293, 28.86661
1042.775, 29.19616
1043.257, 28.75887
1043.740, 28.55831
1044.222, 29.12496
1044.704, 29.26688
1045.186, 28.74130
1045.668, 29.09338
1046.150, 28.10583
1046.632, 28.05789
1047.114, 28.05150
1047.596, 28.08285
1048.079, 28.12605
1048.561, 28.23320
1049.043, 28.26889
1049.525, 28.08945
1050.007, 27.98165
1050.489, 28.20560
1050.971, 28.49588
1051.453, 28.50370
1051.936, 28.24547
1052.418, 28.03984
1052.900, 28.01802
1053.382, 27.91363
1053.864, 27.47234
1054.346, 27.16640
1054.828, 27.40718
1055.310, 27.80815
1055.792, 27.86464
1056.275, 27.60694
1056.757, 27.47615
1057.239, 27.66810
1057.721, 27.78706
1058.203, 27.60011
1058.685, 27.45520
1059.167, 27.61002
1059.649, 27.86721
1060.131, 28.06091
1060.614, 28.13723
1061.096, 27.95021
1061.578, 27.27883
1062.060, 26.83307
1062.542, 27.00990
1063.024, 27.30264
1063.506, 27.54613
1063.988, 27.66230
1064.471, 27.49108
1064.953, 27.12293
1065.435, 26.91059
1065.917, 26.99569
1066.399, 27.06715
1066.881, 26.93858
1067.363, 26.83466
1067.845, 26.95378
1068.328, 27.11660
1068.810, 27.11625
1069.292, 26.97505
1069.774, 26.82189
1070.256, 26.68124
1070.738, 26.59365
1071.220, 26.61854
1071.702, 26.65362
1072.184, 26.69208
1072.667, 26.66949
1073.149, 26.39606
1073.631, 26.02700
1074.113, 26.01223
1074.595, 26.50472
1075.077, 26.90447
1075.559, 26.86566
1076.041, 26.75092
1076.523, 26.82614
1077.006, 26.86946
1077.488, 26.56147
1077.970, 26.06879
1078.452, 25.79554
1078.934, 25.83696
1079.416, 25.92864
1079.898, 25.98429
1080.380, 26.02200
1080.862, 26.03111
1081.345, 26.04519
1081.827, 26.12516
1082.309, 26.22078
1082.791, 26.21967
1083.273, 26.10914
1083.755, 26.02557
1084.237, 26.00908
1084.719, 26.05612
1085.202, 26.28352
1085.684, 26.45848
1086.166, 26.32857
1086.648, 26.05147
1087.130, 25.87200
1087.612, 25.82473
1088.094, 25.81662
1088.576, 25.82567
1089.058, 25.84428
1089.541, 25.88128
1090.023, 25.91400
1090.505, 25.93107
1090.987, 25.93124
1091.469, 25.87563
1091.951, 25.79607
1092.433, 25.85338
1092.915, 26.18857
1093.397, 26.39218
1093.880, 26.19036
1094.362, 25.94086
1094.844, 25.87436
1095.326, 25.85586
1095.808, 25.70045
1096.290, 25.45185
1096.772, 25.30553
1097.254, 25.34151
1097.737, 25.31243
1098.219, 24.99722
1098.701, 24.77387
1099.183, 24.88203
1099.665, 25.09685
1100.147, 25.27182
1100.629, 25.37343
1101.111, 25.35009
1101.594, 25.18140
1102.076, 25.05768
1102.558, 25.09133
1103.040, 25.09122
1103.522, 24.98693
1104.004, 24.83583
1104.486, 24.62586
1104.968, 24.42275
1105.450, 24.29879
1105.932, 24.26617
1106.415, 24.40926
1106.897, 24.96338
1107.379, 25.36653
1107.861, 25.39725
1108.343, 25.38166
1108.825, 25.58698
1109.307, 25.77326
1109.789, 25.55049
1110.272, 24.98837
1110.754, 24.67257
1111.236, 24.80261
1111.718, 24.89927
1112.200, 24.96301
1112.682, 24.93246
1113.164, 24.69002
1113.646, 24.42611
1114.129, 24.31175
1114.611, 24.31616
1115.093, 24.33550
1115.575, 24.37959
1116.057, 24.40228
1116.539, 24.35893
1117.021, 24.36456
1117.503, 24.53781
1117.985, 24.64933
1118.468, 24.48480
1118.950, 24.19604
1119.432, 24.07916
1119.914, 24.15095
1120.396, 24.18828
1120.878, 24.16467
1121.360, 24.16438
1121.842, 24.20826
1122.324, 24.25379
1122.807, 24.26677
1123.289, 24.29342
1123.771, 24.42319
1124.253, 24.62562
1124.735, 24.62978
1125.217, 24.35902
1125.699, 24.15948
1126.181, 24.05791
1126.664, 23.99772
1127.146, 23.97251
1127.628, 23.94332
1128.110, 23.85966
1128.592, 23.76538
1129.074, 23.82082
1129.556, 24.05746
1130.038, 24.06945
1130.521, 23.81033
1131.003, 23.67688
1131.485, 23.78118
1131.967, 23.86595
1132.449, 23.75769
1132.931, 23.57095
1133.413, 23.49639
1133.895, 23.51489
1134.377, 23.47522
1134.859, 23.38141
1135.342, 23.37925
1135.824, 23.48658
1136.306, 23.60005
1136.788, 23.67530
1137.270, 23.72463
1137.752, 23.77350
1138.234, 23.77824
1138.716, 23.54566
1139.199, 23.17308
1139.681, 23.15287
1140.163, 23.43764
1140.645, 23.57456
1141.127, 23.44662
1141.609, 23.21202
1142.091, 22.95774
1142.573, 22.80281
1143.056, 23.05426
1143.538, 23.44633
1144.020, 23.36931
1144.502, 22.99727
1144.984, 22.78105
1145.466, 22.77526
1145.948, 22.86225
1146.430, 22.98821
1146.912, 23.08365
1147.395, 23.04534
1147.877, 22.99353
1148.359, 23.16645
1148.841, 23.34097
1149.323, 23.06388
1149.805, 22.56227
1150.287, 22.46530
1150.769, 22.84627
1151.251, 23.10998
1151.734, 22.89079
1152.216, 22.61718
1152.698, 22.59195
1153.180, 22.60812
1153.662, 22.46759
1154.144, 22.28333
1154.626, 22.22474
1155.108, 22.27142
1155.591, 22.27563
1156.073, 22.17624
1156.555, 22.18017
1157.037, 22.52938
1157.519, 22.77099
1158.001, 22.54842
1158.483, 22.31791
1158.965, 22.54016
1159.448, 22.94592
1159.930, 23.02303
1160.412, 22.73563
1160.894, 22.51602
1161.376, 22.42351
1161.858, 22.38145
1162.340, 22.42912
1162.822, 22.47041
1163.304, 22.53007
1163.786, 22.50497
1164.269, 22.19789
1164.751, 21.75134
1165.233, 21.68807
1165.715, 22.15240
1166.197, 22.34842
1166.679, 22.16886
1167.161, 22.01826
1167.643, 21.96960
1168.126, 21.98877
1168.608, 22.07753
1169.090, 22.17092
1169.572, 22.15969
1170.054, 22.06703
1170.536, 22.09604
1171.018, 22.25766
1171.500, 22.25785
1171.983, 22.06416
1172.465, 21.94057
1172.947, 21.97928
1173.429, 22.09986
1173.911, 22.24710
1174.393, 22.37806
1174.875, 22.40704
1175.357, 22.35132
1175.839, 22.26551
1176.322, 22.15755
1176.804, 22.04881
1177.286, 21.94580
1177.768, 21.84629
1178.250, 21.75125
1178.732, 21.73654
1179.214, 21.96434
1179.696, 22.18921
1180.178, 21.94440
1180.661, 21.57126
1181.143, 21.69135
1181.625, 22.10220
1182.107, 22.24806
1182.589, 22.05585
1183.071, 21.85325
1183.553, 21.78537
1184.035, 21.77336
1184.518, 21.79088
1185.000, 21.82098
1185.482, 21.89528
1185.964, 21.94004
1186.446, 21.82605
1186.928, 21.63466
1187.410, 21.57196
1187.892, 21.67599
1188.375, 21.75104
1188.857, 21.72650
1189.339, 21.70615
1189.821, 21.77064
1190.303, 21.77373
1190.785, 21.53999
1191.267, 21.29250
1191.749, 21.29139
1192.231, 21.47653
1192.714, 21.62252
1193.196, 21.74398
1193.678, 21.76022
1194.160, 21.61810
1194.642, 21.51954
1195.124, 21.51831
1195.606, 21.52285
1196.088, 21.47665
1196.570, 21.41573
1197.053, 21.37368
1197.535, 21.37379
1198.017, 21.59033
1198.499, 22.01358
1198.981, 22.20610
1199.463, 22.14837
1199.945, 22.08128
1200.427, 22.07204
1200.910, 22.00272
1201.392, 21.78217
1201.874, 21.54371
1202.356, 21.47930
1202.838, 21.53272
1203.320, 21.65143
1203.802, 21.76524
1204.284, 21.66300
1204.766, 21.40459
1205.249, 21.25072
1205.731, 21.27590
1206.213, 21.35077
1206.695, 21.41212
1207.177, 21.45704
1207.659, 21.50457
1208.141, 21.51226
1208.623, 21.36366
1209.105, 21.20986
1209.588, 21.29840
1210.070, 21.54599
1210.552, 21.64709
1211.034, 21.52515
1211.516, 21.39030
1211.998, 21.25759
1212.480, 21.16670
1212.962, 21.14029
1213.445, 21.14257
1213.927, 21.15129
1214.409, 21.18321
1214.891, 21.27931
1215.373, 21.41303
1215.855, 21.45851
1216.337, 21.38480
1216.819, 21.36290
1217.302, 21.41386
1217.784, 21.43352
1218.266, 21.39773
1218.748, 21.33600
1219.230, 21.25698
1219.712, 21.19944
1220.194, 21.22761
1220.676, 21.29532
1221.158, 21.21969
1221.641, 21.04339
1222.123, 20.98077
1222.605, 21.04149
1223.087, 21.25962
1223.569, 21.59740
1224.051, 21.74819
1224.533, 21.53073
1225.015, 21.28131
1225.497, 21.39559
1225.980, 21.60504
1226.462, 21.62183
1226.944, 21.52102
1227.426, 21.35799
1227.908, 21.17891
1228.390, 21.04322
1228.872, 20.96335
1229.354, 20.92904
1229.837, 20.92042
1230.319, 21.00385
1230.801, 21.28875
1231.283, 21.55718
1231.765, 21.78668
1232.247, 21.89474
1232.729, 21.73110
1233.211, 21.44388
1233.693, 21.27214
1234.176, 21.21745
1234.658, 21.35156
1235.140, 21.83516
1235.622, 22.00044
1236.104, 21.73965
1236.586, 21.42508
1237.068, 21.13362
1237.550, 20.97050
1238.032, 21.03233
1238.515, 21.18460
1238.997, 21.19400
1239.479, 21.10809
1239.961, 21.13302
1240.443, 21.24017
1240.925, 21.30021
1241.407, 21.30943
1241.889, 21.32937
1242.372, 21.36937
1242.854, 21.34153
1243.336, 21.16919
1243.818, 21.05333
1244.300, 21.27910
1244.782, 21.54957
1245.264, 21.56180
1245.746, 21.46007
1246.229, 21.38311
1246.711, 21.35577
1247.193, 21.41243
1247.675, 21.54343
1248.157, 21.60716
1248.639, 21.51082
1249.121, 21.46322
1249.603, 21.56701
1250.085, 21.63129
1250.568, 21.54691
1251.050, 21.46701
1251.532, 21.49894
1252.014, 21.59349
1252.496, 21.68438
1252.978, 21.76294
1253.460, 21.70545
1253.942, 21.48783
1254.424, 21.41517
1254.907, 21.51129
1255.389, 21.61223
1255.871, 21.67115
1256.353, 21.60058
1256.835, 21.33011
1257.317, 21.10355
1257.799, 21.30272
1258.281, 21.68365
1258.764, 21.81931
1259.246, 21.80811
1259.728, 21.83953
1260.210, 21.87481
1260.692, 21.72569
1261.174, 21.42340
1261.656, 21.29524
1262.138, 21.51472
1262.620, 21.67623
1263.103, 21.55902
1263.585, 21.38741
1264.067, 21.11675
1264.549, 20.98107
1265.031, 21.29650
1265.513, 21.74212
1265.995, 21.84909
1266.477, 21.67751
1266.959, 21.55191
1267.442, 21.47476
1267.924, 21.44467
1268.406, 21.49016
1268.888, 21.42615
1269.370, 21.19549
1269.852, 21.03152
1270.334, 21.05269
1270.816, 21.18214
1271.299, 21.35773
1271.781, 21.53075
1272.263, 21.59394
1272.745, 21.58144
1273.227, 21.59476
1273.709, 21.59798
1274.191, 21.42547
1274.673, 21.14579
1275.156, 21.09830
1275.638, 21.37513
1276.120, 21.55295
1276.602, 21.31031
1277.084, 21.07455
1277.566, 21.04412
1278.048, 21.10038
1278.530, 21.23768
1279.012, 21.37056
1279.495, 21.44929
1279.977, 21.44656
1280.459, 21.27816
1280.941, 20.93707
1281.423, 20.78051
1281.905, 20.85749
1282.387, 20.96549
1282.869, 21.10693
1283.351, 21.18217
1283.834, 21.15624
1284.316, 21.13465
1284.798, 21.19604
1285.280, 21.23651
1285.762, 21.13212
1286.244, 20.89235
##END=



