##NAMES=Cafetite
##RRUFFID=R060872
##IDEAL CHEMISTRY=CaTi^4+^_2_O_5_&#183;H_2_O
##LOCALITY=Magnet Cove, Arkansas, USA
##OWNER=RRUFF
##SOURCE=Michael Scott
##DESCRIPTION=Pale brown colored pseudohexagonal plates, associated with pectolite and albite.
##STATUS=The identification of this mineral has been confirmed by single-crystal X-ray diffraction.
##URL=rruff.info/R060872
193.8405, 5226.780
194.3226, 5221.646
194.8047, 5240.515
195.2868, 5282.476
195.7689, 5319.102
196.2511, 5345.690
196.7332, 5368.150
197.2153, 5401.698
197.6974, 5447.621
198.1795, 5497.796
198.6616, 5550.553
199.1438, 5607.252
199.6259, 5650.444
200.1080, 5674.776
200.5901, 5685.355
201.0722, 5698.581
201.5543, 5713.869
202.0364, 5733.822
202.5186, 5766.688
203.0007, 5816.727
203.4828, 5845.594
203.9649, 5839.946
204.4470, 5806.171
204.9291, 5788.726
205.4113, 5794.000
205.8934, 5799.068
206.3755, 5780.496
206.8576, 5733.247
207.3397, 5684.687
207.8218, 5639.278
208.3040, 5597.188
208.7861, 5560.457
209.2682, 5529.862
209.7503, 5504.364
210.2324, 5483.596
210.7145, 5468.823
211.1967, 5456.272
211.6788, 5446.684
212.1609, 5440.504
212.6430, 5428.185
213.1251, 5407.940
213.6072, 5384.371
214.0894, 5361.294
214.5715, 5335.658
215.0536, 5318.306
215.5357, 5311.896
216.0178, 5316.194
216.4999, 5331.996
216.9820, 5360.396
217.4642, 5398.592
217.9463, 5445.004
218.4284, 5503.762
218.9105, 5559.683
219.3926, 5604.967
219.8747, 5633.664
220.3569, 5677.850
220.8390, 5742.700
221.3211, 5819.368
221.8032, 5895.682
222.2853, 5969.838
222.7674, 6046.292
223.2496, 6127.834
223.7317, 6220.627
224.2138, 6300.021
224.6959, 6360.610
225.1780, 6411.172
225.6601, 6472.486
226.1423, 6548.189
226.6244, 6627.783
227.1065, 6708.495
227.5886, 6798.159
228.0707, 6869.395
228.5528, 6915.593
229.0350, 6945.698
229.5171, 6982.861
229.9992, 7034.728
230.4813, 7082.616
230.9634, 7114.578
231.4455, 7110.726
231.9276, 7138.336
232.4098, 7214.356
232.8919, 7319.936
233.3740, 7392.211
233.8561, 7407.542
234.3382, 7424.780
234.8203, 7474.220
235.3025, 7575.442
235.7846, 7666.697
236.2667, 7743.061
236.7488, 7808.969
237.2309, 7876.027
237.7130, 7936.980
238.1952, 8008.073
238.6773, 8100.831
239.1594, 8234.235
239.6415, 8348.172
240.1236, 8432.552
240.6057, 8495.415
241.0879, 8572.060
241.5700, 8663.751
242.0521, 8766.421
242.5342, 8881.930
243.0163, 9030.885
243.4984, 9148.380
243.9806, 9220.286
244.4627, 9255.918
244.9448, 9300.729
245.4269, 9362.360
245.9090, 9422.611
246.3911, 9471.155
246.8732, 9503.861
247.3554, 9533.063
247.8375, 9563.292
248.3196, 9591.125
248.8017, 9598.683
249.2838, 9579.787
249.7659, 9548.883
250.2481, 9513.324
250.7302, 9469.718
251.2123, 9430.973
251.6944, 9404.802
252.1765, 9386.441
252.6586, 9344.942
253.1408, 9269.374
253.6229, 9186.832
254.1050, 9116.334
254.5871, 9072.649
255.0692, 9007.616
255.5513, 8911.346
256.0334, 8789.717
256.5156, 8669.772
256.9977, 8550.613
257.4798, 8433.366
257.9619, 8318.990
258.4440, 8206.893
258.9261, 8095.489
259.4083, 7982.722
259.8904, 7868.897
260.3725, 7759.516
260.8546, 7651.529
261.3367, 7550.484
261.8188, 7460.922
262.3010, 7384.728
262.7831, 7311.535
263.2652, 7237.933
263.7473, 7166.232
264.2294, 7105.955
264.7115, 7062.089
265.1937, 7021.278
265.6758, 6970.512
266.1579, 6901.466
266.6400, 6856.591
267.1221, 6847.463
267.6042, 6865.892
268.0864, 6875.628
268.5685, 6874.675
269.0506, 6869.992
269.5327, 6862.129
270.0148, 6846.002
270.4969, 6851.261
270.9791, 6885.653
271.4612, 6942.962
271.9433, 6997.163
272.4254, 7046.446
272.9075, 7097.665
273.3896, 7156.052
273.8718, 7222.265
274.3539, 7288.154
274.8360, 7353.818
275.3181, 7418.603
275.8002, 7481.097
276.2823, 7540.943
276.7645, 7599.203
277.2466, 7657.726
277.7287, 7716.726
278.2108, 7772.751
278.6929, 7827.355
279.1750, 7877.510
279.6572, 7911.290
280.1393, 7925.380
280.6214, 7940.255
281.1035, 7971.167
281.5856, 8018.252
282.0677, 8065.667
282.5499, 8117.105
283.0320, 8161.745
283.5141, 8167.241
283.9962, 8129.823
284.4783, 8090.159
284.9604, 8079.958
285.4425, 8096.665
285.9247, 8095.914
286.4068, 8070.350
286.8889, 8031.156
287.3710, 8000.390
287.8531, 7978.257
288.3352, 7952.997
288.8174, 7913.521
289.2995, 7862.938
289.7816, 7820.882
290.2637, 7791.508
290.7458, 7767.709
291.2279, 7740.526
291.7101, 7709.817
292.1922, 7674.147
292.6743, 7626.397
293.1564, 7572.214
293.6385, 7533.648
294.1206, 7515.489
294.6028, 7505.082
295.0849, 7484.969
295.5670, 7456.825
296.0491, 7429.836
296.5312, 7408.557
297.0133, 7392.534
297.4955, 7381.558
297.9776, 7376.543
298.4597, 7374.215
298.9418, 7375.560
299.4239, 7377.896
299.9060, 7371.555
300.3882, 7342.254
300.8703, 7303.522
301.3524, 7279.777
301.8345, 7273.606
302.3166, 7270.641
302.7987, 7256.790
303.2809, 7235.095
303.7630, 7212.792
304.2451, 7204.376
304.7272, 7191.629
305.2093, 7144.762
305.6914, 7059.361
306.1736, 6978.599
306.6557, 6948.111
307.1378, 6943.797
307.6199, 6923.271
308.1020, 6856.526
308.5841, 6774.157
309.0663, 6703.029
309.5484, 6642.959
310.0305, 6581.965
310.5126, 6506.387
310.9947, 6426.032
311.4768, 6354.348
311.9590, 6304.509
312.4411, 6258.151
312.9232, 6203.833
313.4053, 6141.839
313.8874, 6081.171
314.3695, 6028.872
314.8517, 5977.923
315.3337, 5921.358
315.8159, 5841.695
316.2980, 5770.563
316.7801, 5726.774
317.2622, 5706.293
317.7443, 5681.266
318.2264, 5637.809
318.7086, 5587.814
319.1907, 5539.518
319.6728, 5485.015
320.1549, 5444.076
320.6370, 5432.175
321.1191, 5441.163
321.6013, 5439.539
322.0834, 5415.042
322.5655, 5380.717
323.0476, 5343.221
323.5297, 5302.809
324.0118, 5259.944
324.4940, 5207.872
324.9761, 5152.615
325.4582, 5110.544
325.9403, 5101.301
326.4224, 5091.042
326.9045, 5064.650
327.3867, 5003.938
327.8688, 4958.948
328.3509, 4942.952
328.8330, 4941.486
329.3151, 4927.738
329.7972, 4887.817
330.2794, 4850.731
330.7615, 4828.383
331.2436, 4832.460
331.7257, 4812.344
332.2078, 4751.006
332.6899, 4675.052
333.1721, 4623.394
333.6542, 4611.594
334.1363, 4598.379
334.6184, 4570.397
335.1005, 4525.389
335.5826, 4495.824
336.0648, 4491.323
336.5469, 4490.705
337.0290, 4467.623
337.5111, 4411.425
337.9932, 4364.617
338.4753, 4338.976
338.9575, 4332.122
339.4396, 4320.299
339.9217, 4301.633
340.4038, 4282.253
340.8859, 4266.951
341.3680, 4255.934
341.8502, 4248.292
342.3323, 4244.645
342.8144, 4244.080
343.2965, 4242.365
343.7786, 4238.764
344.2607, 4240.230
344.7429, 4255.566
345.2250, 4283.188
345.7071, 4305.143
346.1892, 4317.859
346.6713, 4326.176
347.1534, 4339.149
347.6355, 4356.563
348.1176, 4375.490
348.5998, 4396.868
349.0819, 4418.433
349.5640, 4431.523
350.0461, 4432.631
350.5282, 4434.500
351.0103, 4457.635
351.4925, 4496.097
351.9746, 4529.992
352.4567, 4548.755
352.9388, 4556.393
353.4209, 4555.920
353.9030, 4546.704
354.3852, 4538.302
354.8673, 4539.444
355.3494, 4547.273
355.8315, 4556.561
356.3136, 4571.631
356.7957, 4583.195
357.2779, 4581.640
357.7600, 4567.206
358.2421, 4550.351
358.7242, 4538.346
359.2063, 4526.759
359.6884, 4510.875
360.1706, 4490.226
360.6527, 4463.891
361.1348, 4426.906
361.6169, 4381.580
362.0990, 4341.867
362.5811, 4315.901
363.0633, 4295.034
363.5454, 4274.081
364.0275, 4256.761
364.5096, 4232.244
364.9917, 4186.693
365.4738, 4131.105
365.9560, 4094.173
366.4381, 4108.662
366.9202, 4120.687
367.4023, 4106.566
367.8844, 4048.925
368.3665, 4000.394
368.8487, 3966.154
369.3308, 3941.464
369.8129, 3919.752
370.2950, 3902.605
370.7771, 3886.607
371.2592, 3870.993
371.7414, 3855.881
372.2235, 3840.875
372.7056, 3824.166
373.1877, 3809.036
373.6698, 3798.849
374.1519, 3793.492
374.6341, 3793.816
375.1162, 3803.901
375.5983, 3821.178
376.0804, 3820.894
376.5625, 3796.426
377.0446, 3770.453
377.5267, 3763.084
378.0089, 3776.697
378.4910, 3784.201
378.9731, 3778.848
379.4552, 3768.913
379.9373, 3777.472
380.4194, 3805.908
380.9016, 3834.835
381.3837, 3856.110
381.8658, 3869.162
382.3479, 3867.740
382.8300, 3848.195
383.3121, 3825.615
383.7943, 3817.863
384.2764, 3824.431
384.7585, 3843.179
385.2406, 3886.431
385.7227, 3937.665
386.2048, 3961.651
386.6870, 3956.905
387.1691, 3947.954
387.6512, 3954.398
388.1333, 3971.676
388.6154, 3992.327
389.0975, 4017.302
389.5797, 4041.209
390.0618, 4053.908
390.5439, 4058.445
391.0260, 4072.655
391.5081, 4124.164
391.9902, 4181.100
392.4724, 4213.988
392.9545, 4200.497
393.4366, 4187.317
393.9187, 4195.910
394.4008, 4220.102
394.8829, 4245.361
395.3651, 4267.040
395.8472, 4288.689
396.3293, 4311.696
396.8114, 4335.852
397.2935, 4362.460
397.7756, 4392.487
398.2578, 4424.664
398.7399, 4457.750
399.2220, 4500.545
399.7041, 4534.448
400.1862, 4549.635
400.6683, 4543.860
401.1505, 4557.327
401.6326, 4601.417
402.1147, 4654.268
402.5968, 4699.035
403.0789, 4730.920
403.5610, 4765.886
404.0432, 4806.691
404.5253, 4851.900
405.0074, 4894.216
405.4895, 4930.723
405.9716, 4972.778
406.4537, 5031.143
406.9359, 5108.084
407.4180, 5170.361
407.9001, 5212.944
408.3822, 5247.285
408.8643, 5290.282
409.3464, 5341.919
409.8285, 5403.145
410.3106, 5480.007
410.7928, 5566.253
411.2749, 5639.754
411.7570, 5699.687
412.2391, 5760.047
412.7212, 5836.215
413.2033, 5924.688
413.6855, 6015.668
414.1676, 6111.287
414.6497, 6202.601
415.1318, 6272.055
415.6139, 6324.024
416.0960, 6378.189
416.5782, 6450.848
417.0603, 6531.121
417.5424, 6607.315
418.0245, 6677.126
418.5066, 6742.608
418.9887, 6811.052
419.4709, 6875.610
419.9530, 6925.178
420.4351, 6933.705
420.9172, 6944.015
421.3993, 6983.565
421.8814, 7060.213
422.3636, 7117.211
422.8457, 7133.358
423.3278, 7128.665
423.8099, 7120.745
424.2920, 7119.781
424.7741, 7106.433
425.2563, 7070.882
425.7384, 7017.005
426.2205, 6975.855
426.7026, 6954.051
427.1847, 6936.915
427.6668, 6917.948
428.1490, 6898.592
428.6311, 6873.767
429.1132, 6843.795
429.5953, 6807.298
430.0774, 6760.266
430.5595, 6699.931
431.0417, 6639.542
431.5238, 6581.304
432.0059, 6526.095
432.4880, 6489.808
432.9701, 6475.912
433.4522, 6465.792
433.9344, 6436.106
434.4165, 6390.535
434.8986, 6353.507
435.3807, 6331.150
435.8628, 6320.453
436.3449, 6322.147
436.8271, 6334.114
437.3092, 6340.310
437.7913, 6324.092
438.2734, 6297.291
438.7555, 6276.268
439.2376, 6262.840
439.7197, 6256.603
440.2018, 6257.629
440.6840, 6265.477
441.1661, 6279.463
441.6482, 6321.323
442.1303, 6351.019
442.6124, 6336.565
443.0945, 6277.706
443.5767, 6224.116
444.0588, 6197.512
444.5409, 6181.141
445.0230, 6162.413
445.5051, 6133.615
445.9872, 6108.530
446.4694, 6092.213
446.9515, 6081.631
447.4336, 6067.122
447.9157, 6047.596
448.3978, 6025.171
448.8799, 6000.878
449.3621, 5974.813
449.8442, 5945.768
450.3263, 5914.082
450.8084, 5879.207
451.2905, 5840.968
451.7726, 5800.507
452.2548, 5752.232
452.7369, 5688.700
453.2190, 5616.997
453.7011, 5573.007
454.1832, 5560.985
454.6653, 5551.928
455.1475, 5522.471
455.6296, 5476.308
456.1117, 5434.875
456.5938, 5401.675
457.0759, 5371.774
457.5580, 5341.527
458.0402, 5309.954
458.5223, 5273.335
459.0044, 5223.749
459.4865, 5171.062
459.9686, 5124.851
460.4507, 5085.808
460.9329, 5055.446
461.4150, 5043.931
461.8971, 5038.867
462.3792, 5026.525
462.8613, 5000.855
463.3434, 4970.275
463.8256, 4932.032
464.3077, 4891.378
464.7898, 4862.052
465.2719, 4866.313
465.7540, 4868.092
466.2361, 4847.707
466.7183, 4792.456
467.2004, 4752.623
467.6825, 4744.534
468.1646, 4746.592
468.6467, 4737.170
469.1288, 4707.910
469.6110, 4680.599
470.0930, 4658.633
470.5752, 4641.207
471.0573, 4622.533
471.5394, 4600.769
472.0215, 4582.240
472.5036, 4572.990
472.9857, 4573.897
473.4679, 4568.224
473.9500, 4554.135
474.4321, 4536.244
474.9142, 4520.293
475.3963, 4506.367
475.8784, 4494.690
476.3606, 4485.331
476.8427, 4478.484
477.3248, 4475.738
477.8069, 4476.899
478.2890, 4478.103
478.7711, 4478.356
479.2533, 4476.382
479.7354, 4469.847
480.2175, 4456.863
480.6996, 4442.607
481.1817, 4427.145
481.6638, 4413.155
482.1460, 4405.913
482.6281, 4414.705
483.1102, 4424.206
483.5923, 4431.018
484.0744, 4435.349
484.5565, 4424.156
485.0387, 4367.745
485.5208, 4310.749
486.0029, 4287.464
486.4850, 4345.345
486.9671, 4369.397
487.4492, 4338.850
487.9314, 4274.378
488.4135, 4231.252
488.8956, 4219.221
489.3777, 4208.913
489.8598, 4188.094
490.3419, 4156.628
490.8241, 4133.671
491.3062, 4121.938
491.7883, 4110.705
492.2704, 4085.093
492.7525, 4047.092
493.2346, 4016.692
493.7168, 4001.299
494.1989, 3992.267
494.6810, 3974.687
495.1631, 3950.101
495.6452, 3926.316
496.1273, 3911.182
496.6095, 3898.177
497.0916, 3879.289
497.5737, 3853.677
498.0558, 3825.058
498.5379, 3793.275
499.0201, 3761.068
499.5022, 3732.184
499.9843, 3706.918
500.4664, 3685.650
500.9485, 3674.785
501.4306, 3669.646
501.9127, 3653.208
502.3948, 3607.771
502.8770, 3562.913
503.3591, 3531.263
503.8412, 3515.847
504.3233, 3504.177
504.8054, 3501.785
505.2875, 3498.423
505.7697, 3480.463
506.2518, 3439.601
506.7339, 3409.366
507.2160, 3398.712
507.6981, 3401.632
508.1802, 3397.919
508.6624, 3387.160
509.1445, 3373.617
509.6266, 3360.552
510.1087, 3347.068
510.5908, 3326.983
511.0729, 3298.799
511.5551, 3272.792
512.0372, 3263.503
512.5193, 3264.553
513.0014, 3261.692
513.4835, 3248.060
513.9656, 3231.083
514.4478, 3214.839
514.9299, 3199.953
515.4120, 3188.771
515.8941, 3187.410
516.3762, 3186.346
516.8583, 3178.749
517.3405, 3161.754
517.8226, 3146.640
518.3047, 3141.003
518.7868, 3136.055
519.2689, 3122.261
519.7510, 3087.782
520.2332, 3059.950
520.7153, 3043.547
521.1974, 3036.193
521.6795, 3030.051
522.1616, 3026.543
522.6437, 3021.002
523.1259, 3010.106
523.6080, 2993.537
524.0901, 2980.893
524.5722, 2972.667
525.0543, 2966.548
525.5364, 2959.653
526.0186, 2952.310
526.5007, 2946.624
526.9828, 2944.258
527.4649, 2942.186
527.9470, 2934.643
528.4291, 2923.260
528.9113, 2913.824
529.3934, 2910.663
529.8755, 2910.376
530.3576, 2911.839
530.8397, 2915.325
531.3218, 2913.787
531.8040, 2900.568
532.2861, 2882.335
532.7682, 2865.581
533.2503, 2848.534
533.7324, 2836.414
534.2145, 2835.125
534.6967, 2839.388
535.1788, 2834.067
535.6609, 2806.326
536.1430, 2787.909
536.6251, 2794.771
537.1072, 2828.802
537.5894, 2836.618
538.0715, 2810.150
538.5536, 2777.753
539.0357, 2766.649
539.5178, 2776.156
539.9999, 2781.564
540.4821, 2777.717
540.9642, 2772.021
541.4463, 2777.673
541.9284, 2792.189
542.4105, 2804.846
542.8926, 2810.410
543.3748, 2811.369
543.8569, 2809.470
544.3390, 2804.938
544.8211, 2800.133
545.3032, 2796.544
545.7853, 2793.148
546.2675, 2788.768
546.7495, 2781.921
547.2316, 2777.025
547.7137, 2774.586
548.1959, 2775.059
548.6780, 2779.157
549.1601, 2794.064
549.6422, 2803.881
550.1243, 2804.015
550.6064, 2796.045
551.0886, 2792.270
551.5707, 2794.547
552.0528, 2797.035
552.5349, 2796.168
553.0170, 2791.792
553.4991, 2788.162
553.9813, 2785.351
554.4634, 2783.252
554.9455, 2780.751
555.4276, 2778.550
555.9097, 2780.501
556.3918, 2790.738
556.8740, 2801.304
557.3561, 2797.330
557.8382, 2784.221
558.3203, 2779.860
558.8024, 2807.348
559.2845, 2837.478
559.7667, 2845.507
560.2488, 2827.626
560.7309, 2816.490
561.2130, 2828.794
561.6951, 2848.751
562.1772, 2864.386
562.6594, 2872.461
563.1415, 2878.116
563.6236, 2877.284
564.1057, 2875.478
564.5878, 2884.914
565.0699, 2910.993
565.5521, 2933.803
566.0342, 2946.992
566.5163, 2951.763
566.9984, 2955.901
567.4805, 2959.287
567.9626, 2962.833
568.4448, 2967.374
568.9269, 2972.643
569.4090, 2976.802
569.8911, 2978.842
570.3732, 2984.387
570.8553, 3003.648
571.3375, 3029.742
571.8196, 3049.720
572.3017, 3053.861
572.7838, 3056.628
573.2659, 3064.602
573.7480, 3077.403
574.2302, 3094.104
574.7123, 3118.177
575.1944, 3142.647
575.6765, 3164.549
576.1586, 3183.332
576.6407, 3202.504
577.1229, 3224.757
577.6050, 3244.903
578.0871, 3257.115
578.5692, 3257.595
579.0513, 3267.024
579.5334, 3289.379
580.0156, 3318.168
580.4977, 3339.750
580.9798, 3354.873
581.4619, 3377.462
581.9440, 3419.429
582.4261, 3467.950
582.9083, 3495.649
583.3904, 3504.994
583.8725, 3515.248
584.3546, 3537.176
584.8367, 3566.745
585.3188, 3601.861
585.8010, 3643.063
586.2831, 3683.818
586.7652, 3718.856
587.2473, 3753.071
587.7294, 3791.827
588.2115, 3844.111
588.6937, 3890.908
589.1758, 3929.478
589.6579, 3961.802
590.1400, 3991.324
590.6221, 4013.652
591.1042, 4043.874
591.5864, 4090.683
592.0685, 4151.128
592.5506, 4196.904
593.0327, 4226.863
593.5148, 4251.267
593.9969, 4278.788
594.4791, 4307.279
594.9612, 4328.500
595.4433, 4340.260
595.9254, 4353.464
596.4075, 4380.855
596.8896, 4416.326
597.3718, 4449.518
597.8539, 4476.342
598.3360, 4501.028
598.8181, 4523.729
599.3002, 4545.641
599.7823, 4570.458
600.2645, 4613.800
600.7466, 4645.581
601.2287, 4646.154
601.7108, 4611.489
602.1929, 4614.150
602.6750, 4673.292
603.1572, 4739.439
603.6393, 4777.520
604.1214, 4784.786
604.6035, 4791.230
605.0856, 4797.513
605.5677, 4806.675
606.0499, 4825.704
606.5320, 4852.142
607.0141, 4875.818
607.4962, 4894.390
607.9783, 4907.534
608.4604, 4908.262
608.9425, 4901.833
609.4246, 4904.744
609.9067, 4933.049
610.3889, 4966.795
610.8710, 4995.525
611.3531, 5018.421
611.8352, 5036.954
612.3173, 5050.017
612.7994, 5059.985
613.2816, 5068.014
613.7637, 5071.007
614.2458, 5079.262
614.7279, 5093.683
615.2100, 5112.474
615.6921, 5135.456
616.1743, 5163.708
616.6564, 5185.075
617.1385, 5195.935
617.6206, 5199.491
618.1027, 5197.226
618.5848, 5191.317
619.0670, 5193.761
619.5491, 5225.372
620.0312, 5259.756
620.5133, 5264.694
620.9954, 5240.974
621.4775, 5218.691
621.9597, 5213.949
622.4418, 5215.751
622.9239, 5217.363
623.4060, 5220.378
623.8881, 5216.774
624.3702, 5203.450
624.8524, 5184.473
625.3345, 5162.570
625.8166, 5133.610
626.2987, 5113.223
626.7808, 5106.994
627.2629, 5107.107
627.7451, 5093.604
628.2272, 5066.381
628.7093, 5040.268
629.1914, 5024.742
629.6735, 5013.187
630.1556, 4990.858
630.6378, 4958.923
631.1199, 4926.586
631.6020, 4899.762
632.0841, 4875.539
632.5662, 4850.076
633.0483, 4821.820
633.5305, 4799.359
634.0126, 4788.746
634.4947, 4784.276
634.9768, 4781.334
635.4589, 4787.068
635.9410, 4782.920
636.4232, 4765.339
636.9053, 4739.506
637.3874, 4712.554
637.8695, 4682.918
638.3516, 4660.419
638.8337, 4649.892
639.3159, 4646.430
639.7980, 4634.505
640.2801, 4614.975
640.7622, 4599.322
641.2443, 4599.972
641.7264, 4605.831
642.2086, 4600.747
642.6907, 4584.364
643.1728, 4567.477
643.6549, 4552.591
644.1370, 4542.125
644.6191, 4539.187
645.1013, 4550.708
645.5834, 4555.402
646.0655, 4545.054
646.5476, 4529.156
647.0297, 4516.901
647.5118, 4508.222
647.9940, 4503.123
648.4761, 4502.624
648.9582, 4504.386
649.4403, 4502.373
649.9224, 4496.459
650.4045, 4492.577
650.8867, 4497.808
651.3688, 4503.741
651.8509, 4486.980
652.3330, 4451.968
652.8151, 4428.311
653.2972, 4446.906
653.7794, 4477.033
654.2615, 4495.937
654.7436, 4501.434
655.2257, 4495.003
655.7078, 4462.284
656.1899, 4427.481
656.6721, 4408.915
657.1542, 4414.479
657.6363, 4422.989
658.1184, 4438.248
658.6005, 4452.380
659.0826, 4453.602
659.5648, 4441.063
660.0469, 4423.419
660.5290, 4399.739
661.0111, 4376.084
661.4932, 4363.580
661.9753, 4361.289
662.4575, 4365.624
662.9396, 4382.307
663.4217, 4399.552
663.9038, 4407.599
664.3859, 4406.809
664.8680, 4399.956
665.3502, 4382.289
665.8323, 4363.823
666.3144, 4349.378
666.7965, 4339.624
667.2786, 4332.979
667.7607, 4330.544
668.2429, 4329.582
668.7250, 4328.462
669.2071, 4327.273
669.6892, 4324.500
670.1713, 4320.779
670.6534, 4312.623
671.1355, 4291.017
671.6176, 4259.925
672.0997, 4235.924
672.5818, 4225.275
673.0640, 4220.293
673.5461, 4213.364
674.0282, 4206.696
674.5103, 4204.710
674.9924, 4220.072
675.4745, 4230.130
675.9567, 4224.126
676.4388, 4203.684
676.9209, 4181.989
677.4030, 4155.262
677.8851, 4133.916
678.3672, 4123.144
678.8494, 4122.827
679.3315, 4122.375
679.8136, 4122.330
680.2957, 4118.849
680.7778, 4104.785
681.2599, 4084.286
681.7421, 4074.231
682.2242, 4076.922
682.7063, 4079.692
683.1884, 4066.679
683.6705, 4048.678
684.1526, 4041.429
684.6348, 4060.288
685.1169, 4069.280
685.5990, 4043.596
686.0811, 4003.826
686.5632, 3982.726
687.0453, 3996.856
687.5275, 4005.603
688.0096, 4001.280
688.4917, 3988.953
688.9738, 3982.975
689.4559, 3984.351
689.9380, 3984.083
690.4202, 3978.803
690.9023, 3969.136
691.3844, 3952.825
691.8665, 3931.573
692.3486, 3917.128
692.8307, 3923.199
693.3129, 3935.091
693.7950, 3938.821
694.2771, 3932.956
694.7592, 3928.445
695.2413, 3934.075
695.7234, 3938.497
696.2056, 3931.894
696.6877, 3904.520
697.1698, 3895.503
697.6519, 3912.837
698.1340, 3937.144
698.6161, 3950.092
699.0983, 3951.756
699.5804, 3942.461
700.0625, 3919.532
700.5446, 3894.771
701.0267, 3885.516
701.5089, 3886.787
701.9910, 3885.800
702.4731, 3869.204
702.9552, 3860.332
703.4373, 3884.074
703.9194, 3926.675
704.4016, 3956.667
704.8837, 3946.793
705.3658, 3944.449
705.8479, 3970.031
706.3300, 4015.517
706.8121, 4033.175
707.2943, 4012.958
707.7764, 3992.871
708.2585, 3989.982
708.7406, 4001.931
709.2227, 4017.247
709.7048, 4035.981
710.1870, 4052.519
710.6691, 4060.225
711.1512, 4064.289
711.6333, 4071.942
712.1154, 4084.176
712.5975, 4096.995
713.0797, 4105.588
713.5618, 4115.841
714.0439, 4133.076
714.5260, 4166.416
715.0081, 4190.485
715.4902, 4201.465
715.9724, 4206.000
716.4545, 4209.258
716.9366, 4210.297
717.4187, 4218.895
717.9008, 4238.925
718.3829, 4261.073
718.8651, 4267.077
719.3472, 4262.887
719.8293, 4268.870
720.3114, 4302.745
720.7935, 4335.601
721.2756, 4340.143
721.7578, 4326.022
722.2399, 4315.410
722.7220, 4314.335
723.2041, 4318.924
723.6862, 4335.593
724.1683, 4358.737
724.6505, 4356.851
725.1326, 4316.062
725.6147, 4286.306
726.0968, 4296.133
726.5789, 4335.260
727.0610, 4344.423
727.5432, 4324.155
728.0253, 4301.752
728.5074, 4299.118
728.9895, 4304.325
729.4716, 4302.073
729.9537, 4291.172
730.4359, 4277.158
730.9180, 4256.072
731.4001, 4237.674
731.8822, 4230.174
732.3643, 4242.627
732.8464, 4243.808
733.3285, 4227.126
733.8106, 4206.929
734.2927, 4198.852
734.7748, 4204.643
735.2570, 4193.785
735.7391, 4159.499
736.2212, 4123.727
736.7033, 4119.451
737.1854, 4134.264
737.6675, 4137.414
738.1497, 4114.010
738.6318, 4091.458
739.1139, 4089.587
739.5960, 4099.995
740.0781, 4109.879
740.5602, 4127.025
741.0424, 4129.389
741.5245, 4104.057
742.0066, 4065.762
742.4887, 4049.862
742.9708, 4060.775
743.4529, 4073.995
743.9351, 4083.953
744.4172, 4090.006
744.8993, 4088.456
745.3814, 4080.522
745.8635, 4073.846
746.3456, 4071.792
746.8278, 4072.993
747.3099, 4076.929
747.7920, 4083.226
748.2741, 4090.325
748.7562, 4103.573
749.2383, 4111.902
749.7205, 4108.714
750.2026, 4094.266
750.6847, 4085.744
751.1668, 4086.195
751.6489, 4085.371
752.1310, 4071.342
752.6132, 4048.192
753.0953, 4050.742
753.5774, 4079.729
754.0595, 4112.301
754.5416, 4128.584
755.0237, 4139.296
755.5059, 4158.629
755.9880, 4189.372
756.4701, 4218.089
756.9522, 4239.354
757.4343, 4255.847
757.9164, 4268.775
758.3986, 4274.319
758.8807, 4287.361
759.3628, 4312.252
759.8449, 4337.496
760.3270, 4348.026
760.8091, 4345.308
761.2913, 4348.188
761.7734, 4359.659
762.2555, 4375.995
762.7376, 4396.825
763.2197, 4419.103
763.7018, 4437.768
764.1840, 4450.941
764.6661, 4461.206
765.1482, 4457.029
765.6303, 4454.393
766.1124, 4478.956
766.5945, 4553.748
767.0767, 4614.557
767.5588, 4652.641
768.0409, 4674.479
768.5230, 4687.334
769.0051, 4691.602
769.4872, 4707.449
769.9694, 4746.363
770.4515, 4791.372
770.9336, 4821.354
771.4157, 4838.708
771.8978, 4849.475
772.3799, 4840.615
772.8621, 4841.980
773.3442, 4877.898
773.8263, 4936.494
774.3084, 4971.810
774.7905, 4965.791
775.2726, 4965.897
775.7548, 4985.695
776.2369, 5021.270
776.7190, 5059.661
777.2011, 5101.220
777.6832, 5132.773
778.1653, 5135.464
778.6475, 5130.853
779.1296, 5155.182
779.6117, 5202.831
780.0938, 5246.833
780.5759, 5271.031
781.0580, 5289.038
781.5402, 5304.465
782.0223, 5317.612
782.5044, 5338.600
782.9865, 5368.970
783.4686, 5404.058
783.9507, 5444.410
784.4329, 5488.229
784.9150, 5524.614
785.3971, 5553.679
785.8792, 5576.249
786.3613, 5589.477
786.8434, 5598.851
787.3256, 5612.013
787.8077, 5629.372
788.2898, 5646.707
788.7719, 5661.247
789.2540, 5675.613
789.7361, 5692.484
790.2183, 5713.898
790.7004, 5725.391
791.1825, 5718.533
791.6646, 5717.512
792.1467, 5748.633
792.6288, 5806.467
793.1110, 5832.964
793.5930, 5824.508
794.0751, 5807.912
794.5573, 5804.821
795.0394, 5808.284
795.5215, 5808.947
796.0036, 5804.484
796.4857, 5804.082
796.9678, 5821.432
797.4500, 5836.842
797.9321, 5834.713
798.4142, 5806.802
798.8963, 5787.126
799.3784, 5777.508
799.8605, 5771.850
800.3427, 5766.364
800.8248, 5760.056
801.3069, 5744.661
801.7890, 5717.449
802.2711, 5695.072
802.7532, 5697.186
803.2354, 5710.029
803.7175, 5719.677
804.1996, 5727.777
804.6817, 5721.039
805.1638, 5675.715
805.6459, 5628.247
806.1281, 5610.505
806.6102, 5630.175
807.0923, 5649.492
807.5744, 5666.937
808.0565, 5681.980
808.5386, 5691.739
809.0208, 5698.603
809.5029, 5710.807
809.9850, 5732.639
810.4671, 5750.377
810.9492, 5747.444
811.4313, 5737.788
811.9135, 5736.965
812.3956, 5747.831
812.8777, 5769.413
813.3598, 5808.929
813.8419, 5851.782
814.3240, 5875.660
814.8062, 5877.520
815.2883, 5904.555
815.7704, 5968.316
816.2525, 6039.360
816.7346, 6084.266
817.2167, 6108.642
817.6989, 6120.966
818.1810, 6114.555
818.6631, 6116.267
819.1452, 6136.880
819.6273, 6173.873
820.1094, 6226.196
820.5916, 6314.886
821.0737, 6375.839
821.5558, 6398.635
822.0379, 6401.405
822.5200, 6403.658
823.0021, 6406.708
823.4843, 6424.073
823.9664, 6461.722
824.4485, 6502.953
824.9306, 6536.025
825.4127, 6559.385
825.8948, 6570.764
826.3770, 6564.988
826.8591, 6553.731
827.3412, 6533.027
827.8233, 6511.302
828.3054, 6502.217
828.7875, 6514.463
829.2697, 6501.387
829.7518, 6450.957
830.2339, 6388.794
830.7160, 6351.698
831.1981, 6331.868
831.6802, 6306.334
832.1624, 6268.876
832.6445, 6224.742
833.1266, 6174.594
833.6087, 6121.087
834.0908, 6067.534
834.5729, 6016.154
835.0551, 5962.587
835.5372, 5906.669
836.0193, 5849.089
836.5014, 5790.040
836.9835, 5729.052
837.4656, 5670.391
837.9478, 5615.140
838.4299, 5563.009
838.9120, 5513.629
839.3941, 5466.866
839.8762, 5423.480
840.3583, 5390.573
840.8405, 5346.817
841.3226, 5272.024
841.8047, 5190.211
842.2868, 5129.572
842.7689, 5098.777
843.2510, 5060.724
843.7332, 5011.216
844.2153, 4957.569
844.6974, 4908.300
845.1795, 4862.514
845.6616, 4817.711
846.1437, 4772.333
846.6259, 4730.924
847.1080, 4704.885
847.5901, 4680.664
848.0722, 4642.998
848.5543, 4579.325
849.0364, 4519.163
849.5186, 4461.194
850.0007, 4409.258
850.4828, 4368.778
850.9649, 4339.760
851.4470, 4314.231
851.9291, 4293.511
852.4113, 4264.349
852.8934, 4197.053
853.3755, 4119.536
853.8576, 4074.350
854.3397, 4079.959
854.8218, 4079.249
855.3040, 4049.416
855.7860, 4008.049
856.2681, 3968.768
856.7502, 3931.527
857.2324, 3897.303
857.7145, 3867.132
858.1966, 3837.103
858.6787, 3802.264
859.1608, 3764.966
859.6429, 3729.865
860.1251, 3697.967
860.6072, 3668.887
861.0893, 3646.624
861.5714, 3624.274
862.0535, 3594.646
862.5356, 3553.210
863.0178, 3520.282
863.4999, 3497.351
863.9820, 3480.905
864.4641, 3471.821
864.9462, 3468.794
865.4283, 3460.656
865.9105, 3447.345
866.3926, 3427.155
866.8747, 3389.590
867.3568, 3350.567
867.8389, 3331.095
868.3210, 3332.778
868.8032, 3325.427
869.2853, 3290.382
869.7674, 3256.466
870.2495, 3236.074
870.7316, 3228.657
871.2137, 3214.800
871.6959, 3193.818
872.1780, 3175.014
872.6601, 3168.670
873.1422, 3165.949
873.6243, 3148.114
874.1064, 3118.646
874.5886, 3099.604
875.0707, 3118.761
875.5528, 3133.463
876.0349, 3116.062
876.5170, 3074.239
876.9991, 3054.385
877.4813, 3062.059
877.9634, 3072.000
878.4455, 3076.594
878.9276, 3075.088
879.4097, 3061.999
879.8918, 3040.339
880.3740, 3021.844
880.8561, 3009.763
881.3382, 3005.289
881.8203, 3014.491
882.3024, 3032.210
882.7845, 3042.652
883.2667, 3046.585
883.7488, 3039.162
884.2309, 3014.852
884.7130, 2983.649
885.1951, 2969.448
885.6772, 2969.373
886.1594, 2965.500
886.6415, 2948.193
887.1236, 2931.774
887.6057, 2931.310
888.0878, 2939.130
888.5699, 2943.081
889.0521, 2939.683
889.5342, 2932.680
890.0163, 2919.875
890.4984, 2906.259
890.9805, 2897.789
891.4626, 2894.417
891.9448, 2896.274
892.4269, 2905.022
892.9090, 2910.927
893.3911, 2901.264
893.8732, 2883.277
894.3553, 2865.809
894.8375, 2848.318
895.3196, 2837.583
895.8017, 2843.306
896.2838, 2849.088
896.7659, 2840.538
897.2480, 2814.365
897.7302, 2804.941
898.2123, 2815.563
898.6944, 2825.036
899.1765, 2808.998
899.6586, 2782.004
900.1407, 2769.115
900.6229, 2772.992
901.1050, 2767.880
901.5871, 2728.334
902.0692, 2690.808
902.5513, 2675.024
903.0334, 2681.469
903.5156, 2686.873
903.9977, 2691.312
904.4798, 2694.339
904.9619, 2695.886
905.4440, 2695.694
905.9261, 2693.386
906.4083, 2688.917
906.8904, 2682.081
907.3725, 2671.803
907.8546, 2660.109
908.3367, 2644.833
908.8188, 2628.395
909.3010, 2622.612
909.7831, 2631.052
910.2652, 2636.964
910.7473, 2635.230
911.2294, 2628.167
911.7115, 2619.254
912.1937, 2608.736
912.6758, 2596.991
913.1579, 2579.094
913.6400, 2566.711
914.1221, 2573.329
914.6042, 2586.518
915.0864, 2584.050
915.5685, 2556.447
916.0506, 2536.947
916.5327, 2529.480
917.0148, 2529.885
917.4969, 2537.131
917.9790, 2547.483
918.4611, 2548.206
918.9432, 2534.671
919.4254, 2522.184
919.9075, 2522.821
920.3896, 2527.816
920.8717, 2528.734
921.3538, 2522.917
921.8359, 2519.898
922.3181, 2521.103
922.8002, 2521.428
923.2823, 2515.667
923.7644, 2505.416
924.2465, 2496.092
924.7286, 2487.955
925.2108, 2484.294
925.6929, 2494.455
926.1750, 2503.811
926.6571, 2501.462
927.1392, 2486.692
927.6213, 2472.718
928.1035, 2459.066
928.5856, 2448.611
929.0677, 2443.210
929.5498, 2441.519
930.0319, 2438.372
930.5140, 2434.813
930.9962, 2435.431
931.4783, 2453.936
931.9604, 2465.934
932.4425, 2446.976
932.9246, 2412.111
933.4067, 2397.934
933.8889, 2417.665
934.3710, 2433.167
934.8531, 2439.405
935.3352, 2438.588
935.8173, 2430.063
936.2994, 2417.002
936.7816, 2412.506
937.2637, 2421.844
937.7458, 2431.226
938.2279, 2430.295
938.7100, 2425.070
939.1921, 2421.952
939.6743, 2424.079
940.1564, 2420.686
940.6385, 2409.776
941.1206, 2398.085
941.6027, 2383.656
942.0848, 2372.832
942.5670, 2401.508
943.0491, 2467.527
943.5312, 2512.848
944.0133, 2483.377
944.4954, 2434.426
944.9775, 2395.663
945.4597, 2369.510
945.9418, 2359.586
946.4239, 2372.746
946.9060, 2383.623
947.3881, 2381.616
947.8702, 2372.153
948.3524, 2366.608
948.8345, 2364.889
949.3166, 2366.635
949.7987, 2379.491
950.2808, 2387.336
950.7629, 2377.002
951.2451, 2357.782
951.7272, 2346.769
952.2093, 2345.867
952.6914, 2349.162
953.1735, 2357.949
953.6556, 2365.511
954.1378, 2356.375
954.6199, 2340.237
955.1020, 2342.061
955.5841, 2370.081
956.0662, 2394.471
956.5483, 2398.890
957.0305, 2394.493
957.5126, 2389.675
957.9947, 2385.215
958.4768, 2375.603
958.9589, 2359.436
959.4410, 2345.261
959.9232, 2339.156
960.4053, 2338.938
960.8874, 2343.407
961.3695, 2350.933
961.8516, 2353.386
962.3337, 2339.171
962.8159, 2327.856
963.2980, 2328.104
963.7801, 2336.346
964.2622, 2343.795
964.7443, 2350.665
965.2264, 2354.722
965.7086, 2354.729
966.1907, 2353.165
966.6728, 2353.231
967.1549, 2354.072
967.6370, 2354.216
968.1191, 2353.107
968.6013, 2351.619
969.0834, 2349.632
969.5655, 2347.648
970.0476, 2346.588
970.5297, 2346.603
971.0118, 2342.010
971.4940, 2332.091
971.9761, 2325.622
972.4582, 2334.040
972.9403, 2346.926
973.4224, 2353.262
973.9045, 2352.351
974.3867, 2352.370
974.8688, 2354.352
975.3509, 2358.415
975.8330, 2366.368
976.3151, 2375.735
976.7972, 2376.144
977.2794, 2368.551
977.7615, 2359.805
978.2436, 2351.065
978.7257, 2344.714
979.2078, 2344.084
979.6899, 2346.645
980.1720, 2348.110
980.6541, 2346.970
981.1362, 2346.311
981.6183, 2345.922
982.1005, 2346.849
982.5826, 2352.708
983.0647, 2360.965
983.5468, 2362.569
984.0289, 2356.279
984.5110, 2347.353
984.9932, 2330.766
985.4753, 2319.424
985.9574, 2326.493
986.4395, 2351.693
986.9216, 2368.290
987.4037, 2375.851
987.8859, 2376.300
988.3680, 2366.306
988.8501, 2353.198
989.3322, 2354.166
989.8143, 2364.039
990.2964, 2368.069
990.7786, 2353.195
991.2607, 2339.791
991.7428, 2333.826
992.2249, 2332.546
992.7070, 2332.891
993.1891, 2334.959
993.6713, 2338.462
994.1534, 2344.154
994.6355, 2346.733
995.1176, 2335.226
995.5997, 2320.365
996.0818, 2315.544
996.5640, 2323.771
997.0461, 2333.854
997.5282, 2347.649
998.0103, 2357.424
998.4924, 2358.164
998.9745, 2351.660
999.4567, 2348.737
999.9388, 2348.683
1000.421, 2346.320
1000.903, 2334.309
1001.385, 2323.357
1001.867, 2321.021
1002.349, 2325.195
1002.831, 2331.196
1003.314, 2339.700
1003.796, 2347.371
1004.278, 2354.394
1004.760, 2359.234
1005.242, 2358.879
1005.724, 2355.072
1006.206, 2352.450
1006.688, 2352.261
1007.171, 2349.128
1007.653, 2336.011
1008.135, 2323.297
1008.617, 2317.634
1009.099, 2318.876
1009.581, 2316.466
1010.063, 2309.597
1010.545, 2309.596
1011.027, 2329.541
1011.510, 2353.301
1011.992, 2361.238
1012.474, 2356.491
1012.956, 2346.725
1013.438, 2320.676
1013.920, 2309.687
1014.402, 2324.832
1014.884, 2346.911
1015.367, 2347.316
1015.849, 2329.738
1016.331, 2318.541
1016.813, 2317.131
1017.295, 2320.685
1017.777, 2331.226
1018.259, 2340.943
1018.741, 2342.783
1019.223, 2335.945
1019.706, 2329.239
1020.188, 2321.647
1020.670, 2318.187
1021.152, 2323.679
1021.634, 2332.619
1022.116, 2332.030
1022.598, 2325.259
1023.080, 2321.216
1023.563, 2325.192
1024.045, 2330.289
1024.527, 2335.758
1025.009, 2340.609
1025.491, 2342.926
1025.973, 2342.562
1026.455, 2344.939
1026.937, 2350.632
1027.419, 2357.318
1027.901, 2367.850
1028.384, 2374.856
1028.866, 2366.890
1029.348, 2343.296
1029.830, 2332.371
1030.312, 2341.304
1030.794, 2351.481
1031.276, 2357.113
1031.758, 2359.396
1032.241, 2361.771
1032.723, 2363.372
1033.205, 2361.061
1033.687, 2351.085
1034.169, 2341.491
1034.651, 2334.349
1035.133, 2330.524
1035.615, 2330.582
1036.098, 2334.442
1036.580, 2344.973
1037.062, 2363.311
1037.544, 2376.507
1038.026, 2366.132
1038.508, 2349.594
1038.990, 2348.498
1039.472, 2361.814
1039.954, 2372.749
1040.437, 2379.398
1040.919, 2380.602
1041.401, 2374.498
1041.883, 2364.723
1042.365, 2360.913
1042.847, 2360.444
1043.329, 2350.210
1043.811, 2321.361
1044.293, 2301.249
1044.776, 2312.213
1045.258, 2334.739
1045.740, 2353.634
1046.222, 2369.390
1046.704, 2371.273
1047.186, 2357.093
1047.668, 2345.564
1048.150, 2353.285
1048.633, 2367.346
1049.115, 2370.585
1049.597, 2365.734
1050.079, 2361.717
1050.561, 2361.960
1051.043, 2361.930
1051.525, 2360.387
1052.007, 2359.309
1052.490, 2363.114
1052.972, 2370.128
1053.454, 2372.177
1053.936, 2367.557
1054.418, 2364.572
1054.900, 2371.326
1055.382, 2379.148
1055.864, 2382.845
1056.346, 2382.397
1056.828, 2376.288
1057.311, 2363.531
1057.793, 2353.982
1058.275, 2352.869
1058.757, 2355.570
1059.239, 2355.828
1059.721, 2355.701
1060.203, 2358.826
1060.685, 2371.857
1061.168, 2379.214
1061.650, 2378.803
1062.132, 2375.409
1062.614, 2370.722
1063.096, 2366.674
1063.578, 2375.586
1064.060, 2395.966
1064.542, 2407.329
1065.025, 2389.496
1065.507, 2368.176
1065.989, 2353.578
1066.471, 2346.074
1066.953, 2350.476
1067.435, 2368.184
1067.917, 2378.035
1068.399, 2374.105
1068.881, 2366.167
1069.364, 2362.747
1069.846, 2362.341
1070.328, 2363.252
1070.810, 2365.264
1071.292, 2369.210
1071.774, 2377.496
1072.256, 2381.624
1072.738, 2372.880
1073.220, 2358.857
1073.703, 2363.057
1074.185, 2380.302
1074.667, 2394.091
1075.149, 2399.483
1075.631, 2397.495
1076.113, 2380.906
1076.595, 2363.062
1077.077, 2360.929
1077.559, 2374.323
1078.042, 2382.304
1078.524, 2383.567
1079.006, 2379.632
1079.488, 2364.977
1079.970, 2351.341
1080.452, 2348.708
1080.934, 2356.688
1081.416, 2363.550
1081.899, 2368.595
1082.381, 2375.585
1082.863, 2387.145
1083.345, 2396.814
1083.827, 2394.490
1084.309, 2383.942
1084.791, 2368.495
1085.273, 2343.619
1085.755, 2335.216
1086.238, 2357.039
1086.720, 2381.237
1087.202, 2392.835
1087.684, 2394.431
1088.166, 2397.207
1088.648, 2400.862
1089.130, 2403.935
1089.612, 2404.033
1090.094, 2405.376
1090.577, 2412.774
1091.059, 2420.999
1091.541, 2423.113
1092.023, 2418.662
1092.505, 2410.896
1092.987, 2399.541
1093.469, 2392.128
1093.951, 2401.756
1094.434, 2413.106
1094.916, 2409.123
1095.398, 2391.322
1095.880, 2380.843
1096.362, 2380.417
1096.844, 2382.344
1097.326, 2384.484
1097.808, 2389.030
1098.291, 2405.271
1098.773, 2424.804
1099.255, 2429.454
1099.737, 2412.376
1100.219, 2398.396
1100.701, 2397.516
1101.183, 2396.428
1101.665, 2387.246
1102.147, 2373.030
1102.630, 2367.772
1103.112, 2370.838
1103.594, 2379.523
1104.076, 2398.460
1104.558, 2414.402
1105.040, 2419.833
1105.522, 2418.893
1106.004, 2415.371
1106.486, 2408.240
1106.969, 2409.141
1107.451, 2418.929
1107.933, 2423.579
1108.415, 2402.243
1108.897, 2379.250
1109.379, 2379.521
1109.861, 2398.202
1110.343, 2411.523
1110.826, 2417.283
1111.308, 2420.752
1111.790, 2422.982
1112.272, 2422.585
1112.754, 2415.269
1113.236, 2405.222
1113.718, 2399.414
1114.200, 2399.039
1114.682, 2398.324
1115.165, 2396.808
1115.647, 2392.961
1116.129, 2383.667
1116.611, 2373.793
1117.093, 2380.820
1117.575, 2398.834
1118.057, 2407.510
1118.539, 2394.434
1119.021, 2385.627
1119.504, 2399.620
1119.986, 2415.296
1120.468, 2416.545
1120.950, 2403.731
1121.432, 2399.404
1121.914, 2402.977
1122.396, 2405.108
1122.878, 2397.559
1123.361, 2389.743
1123.843, 2386.504
1124.325, 2387.811
1124.807, 2394.631
1125.289, 2410.237
1125.771, 2411.470
1126.253, 2394.718
1126.735, 2379.687
1127.218, 2388.189
1127.700, 2404.606
1128.182, 2411.682
1128.664, 2409.984
1129.146, 2412.831
1129.628, 2423.274
1130.110, 2432.362
1130.592, 2438.208
1131.074, 2441.919
1131.557, 2445.222
1132.039, 2447.511
1132.521, 2447.601
1133.003, 2445.255
1133.485, 2441.794
1133.967, 2438.909
1134.449, 2432.657
1134.931, 2419.286
1135.413, 2403.329
1135.896, 2397.001
1136.378, 2399.136
1136.860, 2406.881
1137.342, 2423.000
1137.824, 2436.145
1138.306, 2443.140
1138.788, 2444.211
1139.270, 2436.811
1139.752, 2421.933
1140.235, 2415.267
1140.717, 2416.214
1141.199, 2420.342
1141.681, 2431.569
1142.163, 2438.070
1142.645, 2427.575
1143.127, 2411.139
1143.609, 2404.621
1144.092, 2408.395
1144.574, 2419.641
1145.056, 2438.807
1145.538, 2455.917
1146.020, 2464.772
1146.502, 2466.988
1146.984, 2461.616
1147.466, 2450.333
1147.948, 2439.416
1148.431, 2428.277
1148.913, 2420.605
1149.395, 2416.686
1149.877, 2417.463
1150.359, 2429.412
1150.841, 2443.119
1151.323, 2445.728
1151.805, 2435.427
1152.287, 2431.932
1152.770, 2438.721
1153.252, 2445.458
1153.734, 2449.176
1154.216, 2450.514
1154.698, 2448.361
1155.180, 2445.424
1155.662, 2447.685
1156.144, 2459.769
1156.627, 2463.633
1157.109, 2453.933
1157.591, 2443.066
1158.073, 2436.273
1158.555, 2433.831
1159.037, 2440.143
1159.519, 2451.202
1160.001, 2455.407
1160.484, 2439.750
1160.966, 2432.012
1161.448, 2442.591
1161.930, 2456.099
1162.412, 2459.903
1162.894, 2456.076
1163.376, 2458.667
1163.858, 2465.844
1164.340, 2466.097
1164.823, 2445.253
1165.305, 2426.729
1165.787, 2417.922
1166.269, 2416.105
1166.751, 2419.435
1167.233, 2427.580
1167.715, 2438.027
1168.197, 2450.466
1168.679, 2458.909
1169.162, 2455.011
1169.644, 2450.654
1170.126, 2455.438
1170.608, 2463.174
1171.090, 2456.753
1171.572, 2436.586
1172.054, 2434.531
1172.536, 2458.129
1173.019, 2478.047
1173.501, 2462.090
1173.983, 2441.001
1174.465, 2441.087
1174.947, 2457.908
1175.429, 2465.549
1175.911, 2463.302
1176.393, 2466.560
1176.875, 2482.494
1177.358, 2495.235
1177.840, 2486.670
1178.322, 2469.063
1178.804, 2452.086
1179.286, 2435.962
1179.768, 2434.445
1180.250, 2449.123
1180.732, 2463.645
1181.214, 2471.920
1181.697, 2475.176
1182.179, 2469.989
1182.661, 2462.805
1183.143, 2464.576
1183.625, 2482.083
1184.107, 2483.309
1184.589, 2465.148
1185.071, 2447.794
1185.554, 2441.288
1186.036, 2444.407
1186.518, 2464.345
1187.000, 2491.012
1187.482, 2502.733
1187.964, 2487.610
1188.446, 2478.259
1188.928, 2475.817
1189.411, 2476.596
1189.893, 2479.372
1190.375, 2482.402
1190.857, 2483.780
1191.339, 2483.285
1191.821, 2479.871
1192.303, 2469.221
1192.785, 2464.905
1193.267, 2469.126
1193.750, 2476.399
1194.232, 2483.226
1194.714, 2488.078
1195.196, 2486.723
1195.678, 2480.276
1196.160, 2477.945
1196.642, 2484.683
1197.124, 2488.825
1197.606, 2487.388
1198.089, 2485.567
1198.571, 2495.412
1199.053, 2507.391
1199.535, 2500.355
1200.017, 2472.924
1200.499, 2461.574
1200.981, 2485.186
1201.463, 2501.124
1201.945, 2495.980
1202.428, 2483.063
1202.910, 2484.516
1203.392, 2493.764
1203.874, 2498.349
1204.356, 2495.416
1204.838, 2495.120
1205.320, 2500.843
1205.802, 2506.087
1206.285, 2508.066
1206.767, 2508.887
1207.249, 2513.697
1207.731, 2520.242
1208.213, 2523.333
1208.695, 2519.891
1209.177, 2521.011
1209.659, 2533.783
1210.141, 2539.611
1210.624, 2524.223
1211.106, 2500.875
1211.588, 2504.314
1212.070, 2523.330
1212.552, 2531.959
1213.034, 2516.289
1213.516, 2503.706
1213.998, 2495.017
1214.480, 2494.609
1214.963, 2510.309
1215.445, 2533.421
1215.927, 2540.029
1216.409, 2535.461
1216.891, 2533.464
1217.373, 2542.912
1217.855, 2548.446
1218.337, 2549.975
1218.820, 2545.664
1219.302, 2530.156
1219.784, 2509.118
1220.266, 2496.439
1220.748, 2490.847
1221.230, 2488.754
1221.712, 2487.157
1222.194, 2493.112
1222.677, 2510.655
1223.159, 2527.973
1223.641, 2533.225
1224.123, 2530.318
1224.605, 2525.648
1225.087, 2520.309
1225.569, 2517.863
1226.051, 2525.100
1226.533, 2525.387
1227.016, 2512.466
1227.498, 2502.509
1227.980, 2522.547
1228.462, 2553.793
1228.944, 2556.225
1229.426, 2533.439
1229.908, 2519.740
1230.390, 2532.616
1230.872, 2540.581
1231.355, 2537.854
1231.837, 2532.709
1232.319, 2537.035
1232.801, 2545.047
1233.283, 2545.749
1233.765, 2539.360
1234.247, 2537.547
1234.729, 2546.088
1235.212, 2550.802
1235.694, 2548.526
1236.176, 2542.971
1236.658, 2536.622
1237.140, 2531.467
1237.622, 2530.452
1238.104, 2533.873
1238.586, 2541.542
1239.068, 2558.564
1239.551, 2562.589
1240.033, 2544.067
1240.515, 2523.388
1240.997, 2531.552
1241.479, 2551.614
1241.961, 2560.515
1242.443, 2555.310
1242.925, 2554.731
1243.407, 2560.396
1243.890, 2567.702
1244.372, 2575.684
1244.854, 2583.525
1245.336, 2593.108
1245.818, 2599.836
1246.300, 2596.284
1246.782, 2580.512
1247.264, 2569.073
1247.747, 2562.019
1248.229, 2559.001
1248.711, 2560.872
1249.193, 2564.217
1249.675, 2564.887
1250.157, 2565.300
1250.639, 2569.050
1251.121, 2576.459
1251.604, 2580.101
1252.086, 2579.668
1252.568, 2580.572
1253.050, 2585.946
1253.532, 2590.654
1254.014, 2590.008
1254.496, 2585.976
1254.978, 2579.546
1255.460, 2570.950
1255.943, 2564.398
1256.425, 2559.855
1256.907, 2561.722
1257.389, 2574.004
1257.871, 2588.024
1258.353, 2604.076
1258.835, 2612.730
1259.317, 2603.240
1259.799, 2576.925
1260.281, 2561.607
1260.764, 2556.671
1261.246, 2557.802
1261.728, 2567.428
1262.210, 2574.583
1262.692, 2564.515
1263.174, 2558.369
1263.656, 2577.614
1264.138, 2616.449
1264.621, 2626.397
1265.103, 2611.363
1265.585, 2589.148
1266.067, 2553.828
1266.549, 2537.316
1267.031, 2564.039
1267.513, 2599.713
1267.995, 2627.375
1268.478, 2644.664
1268.960, 2631.676
1269.442, 2598.889
1269.924, 2584.182
1270.406, 2620.251
1270.888, 2644.161
1271.370, 2644.057
1271.852, 2634.365
1272.334, 2619.074
1272.817, 2604.480
1273.299, 2614.797
1273.781, 2639.050
1274.263, 2648.747
1274.745, 2614.780
1275.227, 2601.709
1275.709, 2620.122
1276.191, 2636.136
1276.673, 2616.472
1277.156, 2584.572
1277.638, 2579.214
1278.120, 2592.456
1278.602, 2607.296
1279.084, 2628.726
1279.566, 2629.555
1280.048, 2605.889
1280.530, 2582.009
1281.013, 2570.625
1281.495, 2571.844
1281.977, 2595.455
1282.459, 2628.189
1282.941, 2644.158
1283.423, 2638.659
1283.905, 2633.015
1284.387, 2627.320
1284.870, 2623.847
1285.352, 2625.576
1285.834, 2628.543
1286.316, 2632.134
1286.798, 2633.847
1287.280, 2628.808
1287.762, 2616.357
1288.244, 2615.426
##END=



