##NAMES=Cafetite
##RRUFFID=R060872
##IDEAL CHEMISTRY=CaTi^4+^_2_O_5_&#183;H_2_O
##LOCALITY=Magnet Cove, Arkansas, USA
##OWNER=RRUFF
##SOURCE=Michael Scott
##DESCRIPTION=Pale brown colored pseudohexagonal plates, associated with pectolite and albite.
##STATUS=The identification of this mineral has been confirmed by single-crystal X-ray diffraction.
##URL=rruff.info/R060872
179.3814, 5367.881
179.8635, 5383.254
180.3457, 5411.287
180.8278, 5421.163
181.3099, 5408.316
181.7920, 5397.876
182.2741, 5410.882
182.7562, 5436.498
183.2384, 5459.370
183.7205, 5480.185
184.2026, 5493.033
184.6847, 5485.840
185.1668, 5454.181
185.6489, 5420.408
186.1311, 5395.640
186.6132, 5377.776
187.0953, 5366.021
187.5774, 5368.443
188.0595, 5371.525
188.5416, 5350.190
189.0238, 5297.230
189.5059, 5247.681
189.9880, 5226.135
190.4701, 5219.603
190.9522, 5211.595
191.4343, 5193.864
191.9165, 5174.507
192.3986, 5164.378
192.8807, 5163.100
193.3628, 5172.675
193.8449, 5198.040
194.3270, 5234.243
194.8092, 5277.049
195.2913, 5328.350
195.7734, 5383.172
196.2555, 5433.635
196.7376, 5478.931
197.2197, 5523.966
197.7019, 5570.390
198.1840, 5618.496
198.6661, 5668.986
199.1482, 5724.823
199.6303, 5780.416
200.1124, 5828.650
200.5946, 5869.939
201.0767, 5902.557
201.5588, 5922.792
202.0409, 5934.277
202.5230, 5939.901
203.0051, 5940.950
203.4873, 5935.458
203.9694, 5919.834
204.4515, 5893.074
204.9336, 5861.569
205.4157, 5822.899
205.8978, 5782.707
206.3800, 5748.102
206.8621, 5722.500
207.3442, 5698.919
207.8263, 5668.007
208.3084, 5628.656
208.7905, 5591.189
209.2727, 5561.541
209.7548, 5535.347
210.2369, 5508.420
210.7190, 5480.292
211.2011, 5450.986
211.6832, 5419.556
212.1654, 5385.831
212.6475, 5354.414
213.1296, 5323.842
213.6117, 5299.001
214.0938, 5285.170
214.5759, 5283.947
215.0581, 5290.912
215.5402, 5303.723
216.0223, 5322.388
216.5044, 5342.501
216.9865, 5362.019
217.4686, 5383.364
217.9508, 5408.337
218.4329, 5436.827
218.9150, 5470.362
219.3971, 5506.140
219.8792, 5545.408
220.3613, 5603.228
220.8435, 5693.707
221.3256, 5796.601
221.8077, 5890.397
222.2898, 5974.574
222.7719, 6053.964
223.2540, 6129.987
223.7362, 6203.274
224.2183, 6277.294
224.7004, 6354.828
225.1825, 6429.973
225.6646, 6492.257
226.1467, 6541.260
226.6289, 6597.276
227.1110, 6685.461
227.5931, 6791.776
228.0752, 6864.903
228.5573, 6881.434
229.0394, 6884.624
229.5216, 6919.786
230.0037, 6984.103
230.4858, 7051.328
230.9679, 7111.797
231.4500, 7166.769
231.9321, 7218.458
232.4143, 7266.423
232.8964, 7312.904
233.3785, 7355.926
233.8606, 7397.048
234.3427, 7449.910
234.8248, 7526.381
235.3070, 7615.107
235.7891, 7697.603
236.2712, 7771.646
236.7533, 7844.465
237.2354, 7918.113
237.7175, 7994.504
238.1997, 8083.337
238.6818, 8195.115
239.1639, 8316.543
239.6460, 8436.402
240.1281, 8554.799
240.6102, 8664.519
241.0924, 8755.915
241.5745, 8833.037
242.0566, 8916.225
242.5387, 9019.376
243.0208, 9120.231
243.5029, 9200.062
243.9851, 9259.652
244.4672, 9312.501
244.9493, 9367.964
245.4314, 9422.402
245.9135, 9462.746
246.3956, 9475.712
246.8778, 9487.567
247.3599, 9514.046
247.8420, 9552.094
248.3241, 9591.646
248.8062, 9631.430
249.2883, 9665.830
249.7705, 9675.926
250.2526, 9648.343
250.7347, 9617.813
251.2168, 9599.717
251.6989, 9587.115
252.1810, 9564.027
252.6632, 9522.032
253.1453, 9470.481
253.6274, 9434.091
254.1095, 9434.807
254.5916, 9410.472
255.0737, 9345.443
255.5559, 9250.130
256.0380, 9132.350
256.5201, 8993.935
257.0022, 8848.283
257.4843, 8716.832
257.9665, 8612.292
258.4486, 8498.837
258.9307, 8368.184
259.4128, 8232.543
259.8949, 8103.736
260.3770, 7983.558
260.8592, 7864.621
261.3413, 7734.631
261.8234, 7581.520
262.3055, 7461.506
262.7876, 7393.584
263.2697, 7339.127
263.7519, 7275.726
264.2340, 7202.384
264.7161, 7128.962
265.1982, 7064.430
265.6803, 7008.552
266.1624, 6962.426
266.6446, 6923.497
267.1267, 6895.116
267.6088, 6885.273
268.0909, 6887.427
268.5730, 6885.544
269.0551, 6865.996
269.5373, 6832.774
270.0194, 6828.094
270.5015, 6885.328
270.9836, 6937.969
271.4657, 6967.173
271.9478, 6986.998
272.4300, 7018.385
272.9121, 7072.609
273.3942, 7142.784
273.8763, 7210.312
274.3584, 7274.992
274.8405, 7335.915
275.3227, 7385.224
275.8048, 7434.610
276.2869, 7499.074
276.7690, 7582.986
277.2511, 7671.289
277.7332, 7738.433
278.2154, 7777.244
278.6975, 7816.096
279.1796, 7850.994
279.6617, 7892.314
280.1438, 7951.321
280.6259, 8027.906
281.1081, 8105.745
281.5902, 8175.438
282.0723, 8238.477
282.5544, 8268.902
283.0365, 8234.038
283.5186, 8195.309
284.0008, 8190.413
284.4829, 8213.304
284.9650, 8234.008
285.4471, 8234.268
285.9292, 8216.157
286.4113, 8188.108
286.8935, 8147.963
287.3756, 8101.760
287.8577, 8049.227
288.3398, 7993.892
288.8219, 7942.877
289.3040, 7902.056
289.7862, 7865.444
290.2683, 7824.175
290.7504, 7778.466
291.2325, 7728.120
291.7146, 7670.220
292.1967, 7608.479
292.6789, 7547.600
293.1610, 7484.007
293.6431, 7428.506
294.1252, 7391.467
294.6073, 7371.207
295.0894, 7357.749
295.5716, 7349.272
296.0537, 7343.607
296.5358, 7336.260
297.0179, 7325.951
297.5000, 7317.487
297.9821, 7314.811
298.4643, 7314.851
298.9464, 7310.668
299.4285, 7299.528
299.9106, 7288.345
300.3927, 7288.465
300.8748, 7303.873
301.3570, 7310.270
301.8391, 7302.225
302.3212, 7285.964
302.8033, 7266.098
303.2854, 7243.344
303.7675, 7218.227
304.2497, 7192.247
304.7318, 7166.070
305.2139, 7125.946
305.6960, 7066.820
306.1781, 7000.925
306.6602, 6927.444
307.1424, 6851.564
307.6245, 6783.367
308.1066, 6729.618
308.5887, 6688.195
309.0708, 6646.966
309.5529, 6618.247
310.0351, 6575.025
310.5172, 6505.695
310.9993, 6423.598
311.4814, 6341.190
311.9635, 6263.826
312.4456, 6194.122
312.9278, 6139.015
313.4099, 6112.048
313.8920, 6071.361
314.3741, 6009.582
314.8562, 5939.590
315.3383, 5862.971
315.8205, 5783.550
316.3026, 5714.117
316.7847, 5671.865
317.2668, 5660.045
317.7489, 5641.501
318.2310, 5608.864
318.7132, 5577.106
319.1953, 5556.696
319.6774, 5542.697
320.1595, 5521.281
320.6416, 5478.649
321.1237, 5424.469
321.6059, 5388.865
322.0880, 5377.305
322.5701, 5369.357
323.0522, 5359.696
323.5343, 5346.257
324.0164, 5324.432
324.4986, 5288.877
324.9807, 5252.231
325.4628, 5228.050
325.9449, 5215.848
326.4270, 5207.855
326.9091, 5206.058
327.3913, 5202.545
327.8734, 5184.634
328.3555, 5149.181
328.8376, 5115.938
329.3197, 5096.796
329.8018, 5085.250
330.2840, 5070.397
330.7661, 5050.561
331.2482, 5023.941
331.7303, 4986.273
332.2124, 4936.276
332.6945, 4889.755
333.1767, 4847.950
333.6588, 4809.893
334.1409, 4776.952
334.6230, 4747.863
335.1051, 4716.498
335.5872, 4677.339
336.0694, 4631.788
336.5515, 4593.891
337.0336, 4566.664
337.5157, 4542.502
337.9978, 4522.250
338.4799, 4503.086
338.9621, 4479.329
339.4442, 4448.585
339.9263, 4416.639
340.4084, 4396.235
340.8905, 4394.075
341.3727, 4391.837
341.8548, 4385.302
342.3369, 4381.119
342.8190, 4385.367
343.3011, 4397.792
343.7832, 4412.063
344.2654, 4421.323
344.7475, 4425.060
345.2296, 4431.777
345.7117, 4439.426
346.1938, 4452.958
346.6759, 4479.728
347.1581, 4513.069
347.6402, 4539.460
348.1223, 4550.039
348.6044, 4551.518
349.0865, 4557.616
349.5686, 4568.593
350.0508, 4583.375
350.5329, 4604.214
351.0150, 4627.559
351.4971, 4650.439
351.9792, 4673.100
352.4613, 4692.357
352.9435, 4704.927
353.4256, 4711.831
353.9077, 4716.763
354.3898, 4719.743
354.8719, 4722.643
355.3540, 4728.246
355.8362, 4736.376
356.3183, 4744.075
356.8004, 4755.604
357.2825, 4763.403
357.7646, 4757.214
358.2467, 4737.354
358.7289, 4715.797
359.2110, 4702.208
359.6931, 4695.392
360.1752, 4678.074
360.6573, 4640.042
361.1394, 4604.958
361.6216, 4583.641
362.1037, 4569.432
362.5858, 4551.644
363.0679, 4525.811
363.5500, 4494.003
364.0321, 4459.734
364.5143, 4416.243
364.9964, 4382.266
365.4785, 4363.844
365.9606, 4348.970
366.4427, 4329.333
366.9248, 4304.689
367.4070, 4280.353
367.8891, 4261.890
368.3712, 4249.097
368.8533, 4234.834
369.3354, 4222.578
369.8175, 4203.441
370.2997, 4167.761
370.7818, 4125.215
371.2639, 4092.125
371.7460, 4077.718
372.2281, 4070.637
372.7102, 4051.169
373.1924, 4017.421
373.6745, 3992.475
374.1566, 3992.499
374.6387, 3997.628
375.1208, 3981.257
375.6029, 3939.158
376.0851, 3905.874
376.5672, 3906.885
377.0493, 3926.964
377.5314, 3937.024
378.0135, 3932.147
378.4956, 3921.029
378.9778, 3908.661
379.4599, 3895.580
379.9420, 3891.417
380.4241, 3903.743
380.9062, 3918.117
381.3883, 3925.792
381.8705, 3928.847
382.3526, 3934.271
382.8347, 3946.046
383.3168, 3960.633
383.7989, 3967.814
384.2810, 3953.256
384.7632, 3950.678
385.2453, 3972.312
385.7274, 3998.273
386.2095, 4011.207
386.6916, 4009.254
387.1737, 4003.081
387.6559, 4003.408
388.1380, 4010.538
388.6201, 4019.509
389.1022, 4028.731
389.5843, 4041.995
390.0664, 4064.103
390.5486, 4090.390
391.0307, 4111.993
391.5128, 4123.264
391.9949, 4131.498
392.4770, 4151.043
392.9591, 4183.639
393.4413, 4211.488
393.9234, 4229.374
394.4055, 4239.301
394.8876, 4239.680
395.3697, 4228.682
395.8518, 4228.872
396.3340, 4261.804
396.8161, 4310.544
397.2982, 4343.501
397.7803, 4355.722
398.2624, 4364.657
398.7445, 4385.742
399.2267, 4418.157
399.7088, 4441.392
400.1909, 4446.091
400.6730, 4451.724
401.1551, 4463.231
401.6372, 4482.371
402.1194, 4515.339
402.6015, 4565.190
403.0836, 4621.086
403.5657, 4659.651
404.0478, 4665.725
404.5299, 4682.293
405.0121, 4713.211
405.4942, 4750.211
405.9763, 4788.262
406.4584, 4827.567
406.9405, 4870.423
407.4226, 4918.686
407.9048, 4972.277
408.3869, 5031.912
408.8690, 5104.669
409.3511, 5170.266
409.8332, 5213.059
410.3153, 5248.789
410.7975, 5295.346
411.2796, 5357.842
411.7617, 5429.539
412.2438, 5502.976
412.7259, 5579.343
413.2080, 5669.137
413.6902, 5780.308
414.1723, 5893.187
414.6544, 5983.958
415.1365, 6055.280
415.6186, 6124.071
416.1007, 6194.313
416.5829, 6262.835
417.0650, 6321.710
417.5471, 6374.984
418.0292, 6442.641
418.5113, 6539.554
418.9934, 6652.982
419.4756, 6739.067
419.9577, 6770.964
420.4398, 6809.950
420.9219, 6868.123
421.4040, 6928.873
421.8861, 6979.287
422.3683, 7016.715
422.8504, 7043.669
423.3325, 7062.840
423.8146, 7074.234
424.2967, 7076.027
424.7788, 7067.727
425.2610, 7049.341
425.7431, 7011.377
426.2252, 6966.927
426.7073, 6938.536
427.1894, 6939.573
427.6715, 6942.511
428.1537, 6912.448
428.6358, 6850.307
429.1179, 6777.578
429.6000, 6689.790
430.0821, 6606.925
430.5642, 6554.792
431.0464, 6531.339
431.5285, 6507.547
432.0106, 6480.506
432.4927, 6446.359
432.9748, 6392.935
433.4569, 6325.176
433.9391, 6271.387
434.4212, 6250.732
434.9033, 6254.097
435.3854, 6245.871
435.8675, 6205.933
436.3496, 6180.766
436.8318, 6186.142
437.3139, 6200.135
437.7960, 6202.566
438.2781, 6190.567
438.7602, 6174.770
439.2423, 6164.956
439.7245, 6161.124
440.2066, 6164.070
440.6887, 6178.487
441.1708, 6193.519
441.6529, 6208.145
442.1350, 6220.086
442.6172, 6226.192
443.0993, 6225.390
443.5814, 6218.627
444.0635, 6204.936
444.5456, 6185.125
445.0277, 6167.130
445.5099, 6155.362
445.9920, 6140.823
446.4741, 6107.253
446.9562, 6056.605
447.4383, 6021.022
447.9204, 6028.432
448.4026, 6033.862
448.8847, 5996.774
449.3668, 5926.998
449.8489, 5861.462
450.3310, 5818.938
450.8131, 5791.817
451.2953, 5760.362
451.7774, 5728.542
452.2595, 5685.419
452.7416, 5619.433
453.2237, 5552.324
453.7059, 5496.469
454.1880, 5453.533
454.6701, 5420.052
455.1522, 5395.812
455.6343, 5378.155
456.1165, 5353.851
456.5986, 5320.108
457.0807, 5285.833
457.5628, 5256.337
458.0449, 5226.710
458.5270, 5189.878
459.0092, 5143.013
459.4913, 5100.074
459.9734, 5070.953
460.4555, 5052.240
460.9376, 5038.646
461.4197, 5030.148
461.9019, 5018.546
462.3840, 4997.490
462.8661, 4966.913
463.3482, 4930.768
463.8303, 4879.376
464.3124, 4834.134
464.7946, 4803.047
465.2767, 4782.567
465.7588, 4770.492
466.2409, 4765.273
466.7230, 4759.615
467.2051, 4742.610
467.6873, 4711.774
468.1694, 4681.657
468.6515, 4652.331
469.1336, 4623.789
469.6157, 4593.588
470.0978, 4564.510
470.5800, 4541.161
471.0621, 4525.699
471.5442, 4516.211
472.0263, 4515.838
472.5084, 4523.370
472.9905, 4513.007
473.4727, 4469.670
473.9548, 4419.312
474.4369, 4398.030
474.9190, 4403.876
475.4011, 4399.643
475.8832, 4364.026
476.3654, 4328.116
476.8475, 4316.589
477.3296, 4325.333
477.8117, 4339.556
478.2938, 4352.704
478.7759, 4361.994
479.2581, 4360.083
479.7402, 4339.019
480.2223, 4320.632
480.7044, 4303.472
481.1865, 4290.316
481.6686, 4284.929
482.1508, 4285.466
482.6329, 4286.253
483.1150, 4284.674
483.5971, 4279.818
484.0792, 4267.784
484.5613, 4247.019
485.0435, 4227.726
485.5256, 4211.231
486.0077, 4199.879
486.4898, 4197.822
486.9719, 4206.443
487.4540, 4211.578
487.9362, 4210.289
488.4183, 4201.250
488.9004, 4178.553
489.3825, 4144.206
489.8646, 4112.444
490.3467, 4092.326
490.8289, 4081.662
491.3110, 4071.214
491.7931, 4067.013
492.2752, 4054.564
492.7573, 4029.885
493.2394, 3999.188
493.7216, 3964.446
494.2037, 3927.762
494.6858, 3894.909
495.1679, 3871.391
495.6500, 3855.299
496.1321, 3838.905
496.6143, 3823.435
497.0964, 3803.970
497.5785, 3774.187
498.0606, 3741.783
498.5427, 3717.131
499.0248, 3702.542
499.5070, 3686.966
499.9891, 3666.044
500.4712, 3640.715
500.9533, 3610.349
501.4354, 3575.613
501.9175, 3542.786
502.3997, 3516.393
502.8818, 3495.813
503.3639, 3477.578
503.8460, 3460.586
504.3281, 3447.639
504.8102, 3444.734
505.2924, 3442.275
505.7745, 3431.501
506.2566, 3411.788
506.7387, 3388.970
507.2208, 3366.799
507.7029, 3345.755
508.1851, 3329.043
508.6672, 3319.282
509.1493, 3305.699
509.6314, 3276.406
510.1135, 3244.719
510.5956, 3231.243
511.0778, 3242.576
511.5599, 3246.381
512.0420, 3221.628
512.5241, 3183.885
513.0062, 3151.692
513.4883, 3127.399
513.9705, 3108.705
514.4526, 3094.368
514.9347, 3084.287
515.4168, 3078.248
515.8989, 3083.340
516.3810, 3082.914
516.8632, 3073.446
517.3453, 3059.892
517.8274, 3046.698
518.3095, 3033.886
518.7916, 3017.491
519.2737, 2992.446
519.7559, 2962.086
520.2380, 2935.528
520.7201, 2911.432
521.2022, 2899.192
521.6843, 2912.206
522.1664, 2932.742
522.6486, 2932.555
523.1307, 2907.570
523.6128, 2883.769
524.0949, 2869.338
524.5770, 2860.105
525.0591, 2853.282
525.5413, 2847.980
526.0234, 2842.544
526.5055, 2835.975
526.9876, 2828.418
527.4697, 2820.150
527.9518, 2811.136
528.4340, 2801.605
528.9161, 2786.510
529.3982, 2775.158
529.8803, 2777.223
530.3624, 2789.292
530.8445, 2797.652
531.3267, 2793.257
531.8088, 2781.375
532.2909, 2771.098
532.7730, 2762.386
533.2551, 2751.995
533.7372, 2738.175
534.2194, 2723.222
534.7015, 2710.456
535.1836, 2699.956
535.6657, 2690.255
536.1478, 2679.249
536.6299, 2670.734
537.1121, 2666.723
537.5942, 2667.125
538.0763, 2672.309
538.5584, 2682.509
539.0405, 2694.624
539.5226, 2703.588
540.0048, 2709.634
540.4869, 2711.284
540.9690, 2706.198
541.4511, 2699.051
541.9332, 2692.454
542.4153, 2685.668
542.8975, 2676.545
543.3796, 2662.135
543.8617, 2649.316
544.3438, 2647.023
544.8259, 2650.963
545.3080, 2646.758
545.7902, 2630.423
546.2723, 2615.426
546.7544, 2617.050
547.2365, 2636.388
547.7186, 2643.350
548.2007, 2628.663
548.6829, 2614.142
549.1650, 2601.276
549.6471, 2593.068
550.1292, 2594.137
550.6113, 2604.808
551.0934, 2618.229
551.5756, 2630.619
552.0577, 2640.706
552.5398, 2639.048
553.0219, 2621.922
553.5040, 2606.082
553.9861, 2598.565
554.4683, 2598.207
554.9504, 2602.250
555.4325, 2612.437
555.9146, 2621.694
556.3967, 2629.500
556.8788, 2634.274
557.3610, 2633.899
557.8431, 2628.818
558.3252, 2620.468
558.8073, 2609.062
559.2894, 2597.401
559.7715, 2594.684
560.2537, 2604.957
560.7358, 2614.218
561.2179, 2614.975
561.7000, 2619.494
562.1821, 2642.441
562.6642, 2676.411
563.1464, 2695.052
563.6285, 2676.504
564.1106, 2648.746
564.5927, 2641.546
565.0748, 2651.198
565.5569, 2666.826
566.0391, 2687.134
566.5212, 2699.702
567.0033, 2685.906
567.4854, 2639.111
567.9675, 2618.724
568.4496, 2648.058
568.9318, 2673.049
569.4139, 2670.053
569.8960, 2657.375
570.3781, 2660.672
570.8602, 2685.964
571.3423, 2713.835
571.8245, 2721.053
572.3066, 2713.013
572.7887, 2719.697
573.2708, 2746.486
573.7529, 2766.867
574.2350, 2761.655
574.7172, 2744.019
575.1993, 2744.362
575.6814, 2769.589
576.1635, 2792.710
576.6456, 2805.857
577.1277, 2815.896
577.6099, 2829.053
578.0920, 2844.609
578.5741, 2857.346
579.0562, 2863.578
579.5383, 2868.254
580.0204, 2885.113
580.5026, 2918.847
580.9847, 2943.739
581.4668, 2949.717
581.9489, 2953.851
582.4310, 2968.155
582.9131, 2989.814
583.3953, 3009.924
583.8774, 3024.821
584.3595, 3039.292
584.8416, 3055.057
585.3237, 3073.098
585.8058, 3097.195
586.2880, 3127.601
586.7701, 3156.783
587.2522, 3176.191
587.7343, 3186.642
588.2164, 3205.806
588.6985, 3240.468
589.1807, 3274.056
589.6628, 3303.111
590.1449, 3330.213
590.6270, 3355.983
591.1091, 3381.216
591.5912, 3410.693
592.0734, 3452.618
592.5555, 3497.653
593.0376, 3530.948
593.5197, 3553.831
594.0018, 3577.846
594.4839, 3608.759
594.9661, 3637.690
595.4482, 3647.818
595.9303, 3627.346
596.4124, 3633.362
596.8945, 3689.054
597.3766, 3742.448
597.8588, 3772.754
598.3409, 3788.979
598.8230, 3805.558
599.3051, 3827.138
599.7872, 3845.444
600.2693, 3845.552
600.7515, 3834.810
601.2336, 3845.040
601.7157, 3881.072
602.1978, 3916.724
602.6799, 3938.702
603.1620, 3949.417
603.6442, 3954.248
604.1263, 3948.076
604.6084, 3947.617
605.0905, 3960.371
605.5726, 3974.261
606.0547, 3979.654
606.5369, 3979.246
607.0190, 3982.613
607.5011, 3995.315
607.9832, 4009.460
608.4653, 4007.573
608.9474, 3989.927
609.4296, 3989.291
609.9117, 4015.427
610.3938, 4046.104
610.8759, 4066.861
611.3580, 4078.885
611.8401, 4088.246
612.3223, 4088.476
612.8044, 4095.564
613.2865, 4121.368
613.7686, 4151.563
614.2507, 4170.195
614.7328, 4177.699
615.2150, 4186.287
615.6971, 4205.542
616.1792, 4229.747
616.6613, 4241.106
617.1434, 4236.557
617.6255, 4238.184
618.1077, 4255.892
618.5898, 4273.627
619.0719, 4272.535
619.5540, 4257.940
620.0361, 4253.683
620.5182, 4271.910
621.0004, 4291.967
621.4825, 4309.137
621.9646, 4319.694
622.4467, 4315.615
622.9288, 4297.217
623.4109, 4275.594
623.8931, 4259.687
624.3752, 4249.226
624.8573, 4243.655
625.3394, 4245.369
625.8215, 4244.889
626.3036, 4245.523
626.7858, 4237.549
627.2679, 4207.797
627.7500, 4159.004
628.2321, 4117.416
628.7142, 4088.676
629.1964, 4070.189
629.6785, 4069.271
630.1606, 4074.729
630.6427, 4063.591
631.1248, 4031.401
631.6069, 3997.344
632.0891, 3982.805
632.5712, 3985.739
633.0533, 3982.419
633.5354, 3973.390
634.0175, 3956.479
634.4996, 3920.974
634.9818, 3884.547
635.4639, 3865.481
635.9460, 3863.802
636.4281, 3860.417
636.9102, 3845.652
637.3923, 3830.336
637.8745, 3825.904
638.3566, 3826.524
638.8387, 3819.238
639.3208, 3800.251
639.8029, 3775.917
640.2850, 3753.156
640.7672, 3731.873
641.2493, 3711.609
641.7314, 3689.782
642.2135, 3674.093
642.6956, 3667.565
643.1777, 3668.304
643.6599, 3681.160
644.1420, 3706.448
644.6241, 3712.931
645.1062, 3669.714
645.5883, 3622.573
646.0704, 3612.019
646.5526, 3624.301
647.0347, 3627.822
647.5168, 3612.315
647.9989, 3588.532
648.4810, 3567.854
648.9631, 3550.270
649.4453, 3539.490
649.9274, 3538.546
650.4095, 3537.457
650.8916, 3533.967
651.3737, 3527.784
651.8558, 3517.351
652.3380, 3502.420
652.8201, 3490.121
653.3022, 3480.694
653.7843, 3476.316
654.2664, 3482.750
654.7485, 3494.502
655.2307, 3501.045
655.7128, 3499.073
656.1949, 3492.479
656.6770, 3485.220
657.1591, 3477.302
657.6412, 3467.673
658.1234, 3453.239
658.6055, 3446.729
659.0876, 3459.800
659.5697, 3477.252
660.0518, 3481.156
660.5339, 3471.439
661.0161, 3454.162
661.4982, 3413.805
661.9803, 3383.287
662.4624, 3397.503
662.9445, 3429.712
663.4266, 3430.507
663.9088, 3389.754
664.3909, 3345.587
664.8730, 3340.250
665.3551, 3365.774
665.8372, 3379.750
666.3193, 3381.499
666.8015, 3374.608
667.2836, 3355.880
667.7657, 3334.112
668.2478, 3320.734
668.7299, 3315.864
669.2120, 3310.777
669.6942, 3310.420
670.1763, 3303.341
670.6584, 3271.906
671.1405, 3237.457
671.6226, 3232.075
672.1047, 3258.049
672.5869, 3284.655
673.0690, 3285.142
673.5511, 3267.629
674.0332, 3252.493
674.5153, 3239.720
674.9974, 3227.584
675.4796, 3215.341
675.9617, 3204.329
676.4438, 3196.370
676.9259, 3191.590
677.4080, 3186.080
677.8901, 3179.132
678.3723, 3172.444
678.8544, 3170.085
679.3365, 3165.630
679.8186, 3150.240
680.3007, 3125.622
680.7828, 3103.600
681.2650, 3090.892
681.7471, 3085.682
682.2292, 3089.433
682.7113, 3099.463
683.1934, 3103.118
683.6755, 3097.439
684.1577, 3085.628
684.6398, 3069.656
685.1219, 3050.062
685.6040, 3031.889
686.0861, 3012.997
686.5682, 2999.166
687.0504, 2996.608
687.5325, 2993.924
688.0146, 2978.983
688.4967, 2957.144
688.9788, 2946.759
689.4609, 2960.681
689.9431, 2976.756
690.4252, 2977.035
690.9073, 2966.618
691.3894, 2952.244
691.8715, 2936.016
692.3536, 2924.349
692.8358, 2922.270
693.3179, 2925.961
693.8000, 2922.811
694.2821, 2907.728
694.7642, 2904.625
695.2463, 2928.064
695.7285, 2947.375
696.2106, 2937.962
696.6927, 2913.874
697.1748, 2904.052
697.6569, 2920.083
698.1390, 2929.134
698.6212, 2911.057
699.1033, 2886.056
699.5854, 2871.618
700.0675, 2867.379
700.5496, 2868.156
701.0317, 2871.674
701.5139, 2874.707
701.9960, 2870.365
702.4781, 2859.575
702.9602, 2857.418
703.4423, 2866.200
703.9244, 2876.556
704.4066, 2886.165
704.8887, 2893.056
705.3708, 2892.894
705.8529, 2883.433
706.3350, 2875.724
706.8171, 2870.603
707.2993, 2866.837
707.7814, 2862.426
708.2635, 2859.750
708.7456, 2862.480
709.2277, 2871.178
709.7098, 2882.178
710.1920, 2894.481
710.6741, 2906.258
711.1562, 2908.550
711.6383, 2905.021
712.1204, 2923.858
712.6025, 2976.683
713.0847, 3027.883
713.5668, 3035.142
714.0489, 2999.618
714.5310, 2975.885
715.0131, 2967.579
715.4952, 2965.574
715.9774, 2971.515
716.4595, 2980.252
716.9416, 2987.900
717.4237, 2994.913
717.9058, 3004.355
718.3879, 3019.304
718.8701, 3034.149
719.3522, 3046.438
719.8343, 3055.946
720.3164, 3061.861
720.7985, 3064.502
721.2806, 3064.997
721.7628, 3063.542
722.2449, 3062.611
722.7270, 3069.941
723.2091, 3086.359
723.6912, 3094.826
724.1733, 3092.344
724.6555, 3084.636
725.1376, 3072.397
725.6197, 3058.492
726.1018, 3051.661
726.5839, 3056.216
727.0660, 3057.001
727.5482, 3050.968
728.0303, 3042.621
728.5124, 3034.206
728.9945, 3025.414
729.4766, 3014.279
729.9587, 3000.323
730.4409, 2988.465
730.9230, 2984.249
731.4051, 2984.262
731.8872, 2983.999
732.3693, 2982.618
732.8514, 2975.489
733.3336, 2960.507
733.8157, 2944.125
734.2978, 2934.825
734.7799, 2932.699
735.2620, 2926.400
735.7441, 2910.975
736.2263, 2900.984
736.7084, 2905.717
737.1905, 2912.589
737.6726, 2913.208
738.1547, 2907.298
738.6368, 2894.873
739.1190, 2861.628
739.6011, 2838.997
740.0832, 2851.034
740.5653, 2875.008
741.0474, 2887.565
741.5295, 2885.990
742.0117, 2874.896
742.4938, 2855.347
742.9759, 2834.886
743.4580, 2830.505
743.9401, 2838.281
744.4222, 2827.270
744.9044, 2791.453
745.3865, 2760.714
745.8686, 2752.844
746.3507, 2761.356
746.8328, 2771.672
747.3149, 2782.851
747.7971, 2798.213
748.2792, 2830.395
748.7613, 2852.058
749.2434, 2846.664
749.7255, 2829.500
750.2076, 2819.500
750.6898, 2819.656
751.1719, 2820.611
751.6540, 2813.600
752.1361, 2809.583
752.6182, 2822.239
753.1003, 2843.918
753.5825, 2859.344
754.0646, 2865.084
754.5467, 2867.698
755.0288, 2872.761
755.5109, 2879.381
755.9930, 2884.646
756.4752, 2888.495
756.9573, 2892.561
757.4394, 2897.258
757.9215, 2901.999
758.4036, 2906.159
758.8857, 2910.000
759.3679, 2914.675
759.8500, 2918.666
760.3321, 2925.842
760.8142, 2934.763
761.2963, 2948.300
761.7784, 2973.644
762.2606, 3003.129
762.7427, 3021.787
763.2248, 3024.326
763.7069, 3027.335
764.1890, 3045.099
764.6711, 3065.972
765.1533, 3071.961
765.6354, 3069.350
766.1175, 3080.944
766.5996, 3113.290
767.0817, 3145.255
767.5638, 3150.355
768.0460, 3134.754
768.5281, 3130.991
769.0102, 3138.798
769.4923, 3164.190
769.9744, 3218.427
770.4565, 3268.884
770.9387, 3279.477
771.4208, 3255.432
771.9029, 3252.326
772.3850, 3292.383
772.8671, 3321.079
773.3492, 3328.296
773.8314, 3328.606
774.3135, 3326.861
774.7956, 3326.254
775.2777, 3331.692
775.7598, 3344.910
776.2419, 3362.925
776.7241, 3387.175
777.2062, 3412.793
777.6883, 3432.908
778.1704, 3449.089
778.6525, 3468.256
779.1346, 3492.770
779.6168, 3516.441
780.0989, 3528.946
780.5810, 3534.082
781.0631, 3555.076
781.5452, 3593.834
782.0273, 3630.908
782.5095, 3662.934
782.9916, 3685.498
783.4737, 3690.370
783.9558, 3679.815
784.4379, 3684.733
784.9200, 3721.226
785.4022, 3749.575
785.8843, 3765.209
786.3664, 3773.913
786.8485, 3771.388
787.3306, 3765.883
787.8127, 3775.765
788.2949, 3808.991
788.7770, 3844.070
789.2591, 3873.260
789.7412, 3896.097
790.2233, 3909.311
790.7054, 3916.178
791.1876, 3922.905
791.6697, 3931.849
792.1518, 3943.367
792.6339, 3961.122
793.1160, 3980.621
793.5981, 3986.104
794.0803, 3978.358
794.5624, 3970.749
795.0445, 3966.977
795.5266, 3962.338
796.0087, 3951.094
796.4908, 3935.846
796.9730, 3933.817
797.4551, 3958.053
797.9372, 3965.952
798.4193, 3944.733
798.9014, 3916.798
799.3835, 3888.404
799.8657, 3863.544
800.3478, 3851.390
800.8299, 3857.376
801.3120, 3858.194
801.7941, 3841.468
802.2762, 3823.936
802.7584, 3816.041
803.2405, 3814.387
803.7226, 3814.906
804.2047, 3815.745
804.6868, 3812.848
805.1689, 3803.001
805.6511, 3788.023
806.1332, 3762.375
806.6153, 3734.180
807.0974, 3734.967
807.5795, 3767.577
808.0616, 3792.073
808.5438, 3777.448
809.0259, 3743.923
809.5080, 3748.140
809.9901, 3797.048
810.4722, 3813.081
810.9543, 3777.511
811.4365, 3751.251
811.9186, 3770.451
812.4007, 3810.571
812.8828, 3828.716
813.3649, 3816.578
813.8470, 3821.779
814.3292, 3859.133
814.8113, 3894.342
815.2934, 3914.933
815.7755, 3932.173
816.2576, 3958.334
816.7397, 3991.845
817.2219, 4020.162
817.7040, 4033.144
818.1861, 4049.262
818.6682, 4088.421
819.1503, 4130.875
819.6324, 4147.278
820.1146, 4145.208
820.5967, 4155.138
821.0788, 4190.800
821.5609, 4233.931
822.0430, 4258.995
822.5251, 4274.935
823.0073, 4314.244
823.4894, 4374.302
823.9716, 4416.005
824.4537, 4425.868
824.9358, 4423.484
825.4179, 4428.184
825.9000, 4439.477
826.3821, 4456.796
826.8643, 4488.205
827.3464, 4496.008
827.8285, 4462.021
828.3106, 4424.044
828.7927, 4408.221
829.2748, 4407.091
829.7570, 4399.965
830.2391, 4387.068
830.7212, 4368.041
831.2033, 4339.853
831.6854, 4309.021
832.1675, 4276.174
832.6497, 4243.705
833.1318, 4217.364
833.6139, 4196.341
834.0960, 4166.850
834.5781, 4113.405
835.0602, 4058.943
835.5424, 4022.754
836.0245, 3994.156
836.5066, 3957.318
836.9887, 3912.443
837.4708, 3870.468
837.9529, 3837.572
838.4351, 3806.114
838.9172, 3766.079
839.3993, 3719.019
839.8814, 3666.459
840.3635, 3610.061
840.8456, 3562.200
841.3278, 3527.984
841.8099, 3502.375
842.2920, 3480.959
842.7741, 3462.561
843.2562, 3432.839
843.7383, 3387.993
844.2205, 3348.423
844.7026, 3321.092
845.1847, 3293.867
845.6668, 3255.813
846.1489, 3211.155
846.6310, 3173.834
847.1132, 3146.593
847.5953, 3121.266
848.0774, 3099.552
848.5595, 3077.549
849.0416, 3052.917
849.5237, 3027.548
850.0059, 3005.456
850.4880, 2986.461
850.9701, 2961.663
851.4522, 2920.264
851.9343, 2881.363
852.4164, 2859.413
852.8986, 2842.545
853.3807, 2816.434
853.8628, 2782.860
854.3449, 2753.704
854.8270, 2734.958
855.3091, 2718.107
855.7913, 2694.402
856.2734, 2667.277
856.7555, 2644.823
857.2376, 2624.764
857.7197, 2594.973
858.2018, 2552.189
858.6840, 2512.116
859.1661, 2491.708
859.6482, 2484.745
860.1303, 2471.190
860.6124, 2451.068
861.0945, 2427.013
861.5767, 2398.536
862.0588, 2371.697
862.5409, 2349.967
863.0230, 2332.501
863.5051, 2317.490
863.9872, 2305.814
864.4694, 2292.350
864.9515, 2273.857
865.4336, 2260.013
865.9157, 2260.252
866.3978, 2260.964
866.8799, 2245.077
867.3621, 2214.628
867.8442, 2190.057
868.3263, 2179.013
868.8084, 2164.137
869.2905, 2135.115
869.7726, 2109.099
870.2548, 2100.008
870.7369, 2100.987
871.2190, 2099.511
871.7011, 2093.037
872.1832, 2082.661
872.6653, 2062.528
873.1475, 2045.199
873.6296, 2042.378
874.1117, 2046.748
874.5938, 2047.813
875.0759, 2044.603
875.5580, 2043.319
876.0402, 2049.321
876.5223, 2052.880
877.0044, 2038.512
877.4865, 2015.986
877.9686, 2005.433
878.4507, 2005.526
878.9329, 2002.892
879.4150, 1992.474
879.8971, 1981.607
880.3792, 1980.241
880.8613, 1984.249
881.3434, 1976.138
881.8256, 1957.066
882.3077, 1947.663
882.7898, 1952.768
883.2719, 1959.527
883.7540, 1959.999
884.2361, 1953.999
884.7183, 1937.879
885.2004, 1906.859
885.6825, 1896.385
886.1646, 1917.102
886.6467, 1927.803
887.1288, 1905.603
887.6110, 1879.603
888.0931, 1888.072
888.5752, 1927.884
889.0573, 1939.432
889.5394, 1897.488
890.0215, 1866.674
890.5037, 1860.132
890.9858, 1855.567
891.4679, 1838.080
891.9500, 1816.466
892.4321, 1806.277
892.9142, 1810.056
893.3964, 1816.650
893.8785, 1830.573
894.3606, 1838.522
894.8427, 1832.996
895.3248, 1820.286
895.8069, 1802.667
896.2891, 1783.754
896.7712, 1773.156
897.2533, 1777.845
897.7354, 1780.213
898.2175, 1762.803
898.6996, 1743.863
899.1818, 1742.139
899.6639, 1752.228
900.1460, 1764.424
900.6281, 1774.780
901.1102, 1777.395
901.5923, 1763.080
902.0745, 1745.771
902.5566, 1748.509
903.0387, 1759.952
903.5208, 1752.641
904.0029, 1727.957
904.4850, 1709.288
904.9672, 1707.930
905.4493, 1713.363
905.9314, 1714.957
906.4135, 1711.755
906.8956, 1694.992
907.3777, 1667.349
907.8599, 1656.067
908.3420, 1667.620
908.8241, 1680.949
909.3062, 1679.975
909.7883, 1669.916
910.2704, 1664.219
910.7526, 1663.318
911.2347, 1657.048
911.7168, 1643.360
912.1989, 1633.811
912.6810, 1633.448
913.1631, 1637.488
913.6453, 1642.338
914.1274, 1646.867
914.6095, 1637.673
915.0916, 1604.372
915.5737, 1586.521
916.0558, 1596.594
916.5380, 1607.982
917.0201, 1605.581
917.5022, 1596.367
917.9843, 1593.567
918.4664, 1599.651
918.9485, 1597.773
919.4307, 1581.403
919.9128, 1566.103
920.3949, 1550.374
920.8770, 1540.380
921.3591, 1545.778
921.8412, 1559.905
922.3234, 1563.957
922.8055, 1551.616
923.2876, 1542.288
923.7697, 1540.948
924.2518, 1541.987
924.7339, 1546.967
925.2161, 1550.118
925.6982, 1540.678
926.1803, 1521.963
926.6624, 1515.087
927.1445, 1537.349
927.6266, 1552.599
928.1088, 1536.716
928.5909, 1513.931
929.0730, 1501.662
929.5551, 1498.667
930.0372, 1502.028
930.5193, 1510.024
931.0015, 1515.402
931.4836, 1512.814
931.9657, 1507.071
932.4478, 1499.326
932.9299, 1492.689
933.4120, 1493.834
933.8942, 1499.931
934.3763, 1500.576
934.8584, 1491.839
935.3405, 1482.968
935.8226, 1482.802
936.3047, 1487.326
936.7869, 1493.578
937.2690, 1499.130
937.7511, 1496.802
938.2332, 1487.118
938.7153, 1480.034
939.1974, 1481.802
939.6796, 1483.949
940.1617, 1471.971
940.6438, 1452.239
941.1259, 1442.638
941.6080, 1441.864
942.0901, 1440.415
942.5723, 1435.869
943.0544, 1432.588
943.5365, 1434.209
944.0186, 1438.713
944.5007, 1442.176
944.9828, 1444.643
945.4650, 1447.117
945.9471, 1449.510
946.4292, 1447.190
946.9113, 1438.226
947.3934, 1426.731
947.8755, 1416.738
948.3577, 1408.364
948.8398, 1401.353
949.3219, 1395.518
949.8040, 1398.602
950.2861, 1413.102
950.7682, 1423.400
951.2504, 1420.962
951.7325, 1413.925
952.2146, 1414.000
952.6967, 1420.637
953.1788, 1424.449
953.6609, 1425.195
954.1431, 1424.247
954.6252, 1421.636
955.1073, 1417.908
955.5894, 1413.374
956.0715, 1407.873
956.5536, 1400.496
957.0358, 1390.463
957.5179, 1385.859
958.0000, 1388.315
958.4821, 1392.044
958.9642, 1395.957
959.4464, 1400.820
959.9285, 1408.766
960.4106, 1417.203
960.8927, 1418.358
961.3748, 1408.868
961.8569, 1404.339
962.3391, 1410.867
962.8212, 1411.695
963.3033, 1396.573
963.7854, 1380.367
964.2675, 1376.841
964.7496, 1383.125
965.2318, 1386.834
965.7139, 1388.991
966.1960, 1386.402
966.6781, 1367.174
967.1602, 1358.088
967.6423, 1380.069
968.1245, 1406.653
968.6066, 1410.057
969.0887, 1393.341
969.5708, 1380.212
970.0529, 1372.341
970.5350, 1367.229
971.0172, 1364.120
971.4993, 1364.443
971.9814, 1371.786
972.4635, 1381.051
972.9456, 1386.630
973.4277, 1388.276
973.9099, 1387.750
974.3920, 1387.424
974.8741, 1381.750
975.3562, 1358.686
975.8383, 1342.004
976.3204, 1353.030
976.8026, 1374.397
977.2847, 1379.526
977.7668, 1366.317
978.2489, 1357.129
978.7310, 1360.243
979.2131, 1362.800
979.6953, 1359.523
980.1774, 1356.285
980.6595, 1356.367
981.1416, 1359.557
981.6237, 1367.858
982.1058, 1381.598
982.5880, 1385.197
983.0701, 1359.587
983.5522, 1342.597
984.0343, 1358.886
984.5164, 1379.051
984.9985, 1379.847
985.4807, 1366.750
985.9628, 1352.651
986.4449, 1339.901
986.9270, 1328.120
987.4091, 1312.630
987.8912, 1303.743
988.3734, 1311.309
988.8555, 1323.031
989.3376, 1328.535
989.8197, 1329.210
990.3018, 1331.536
990.7839, 1337.559
991.2661, 1337.477
991.7482, 1320.759
992.2303, 1305.085
992.7124, 1298.780
993.1945, 1298.521
993.6766, 1300.743
994.1588, 1306.071
994.6409, 1320.330
995.1230, 1347.448
995.6051, 1361.287
996.0872, 1335.556
996.5693, 1310.954
997.0515, 1314.000
997.5336, 1327.012
998.0157, 1333.236
998.4978, 1332.219
998.9799, 1328.791
999.4620, 1324.016
999.9442, 1318.887
1000.426, 1311.545
1000.908, 1306.649
1001.391, 1309.944
1001.873, 1314.904
1002.355, 1313.163
1002.837, 1306.793
1003.319, 1303.703
1003.801, 1306.222
1004.283, 1312.078
1004.765, 1326.990
1005.247, 1337.246
1005.730, 1330.361
1006.212, 1317.494
1006.694, 1310.604
1007.176, 1309.221
1007.658, 1306.751
1008.140, 1300.426
1008.622, 1297.754
1009.104, 1309.952
1009.586, 1317.714
1010.069, 1300.646
1010.551, 1279.552
1011.033, 1279.950
1011.515, 1297.285
1011.997, 1311.005
1012.479, 1315.535
1012.961, 1314.310
1013.443, 1301.965
1013.926, 1292.189
1014.408, 1296.847
1014.890, 1305.013
1015.372, 1302.970
1015.854, 1293.894
1016.336, 1291.560
1016.818, 1301.159
1017.300, 1309.252
1017.782, 1315.169
1018.265, 1313.001
1018.747, 1287.818
1019.229, 1262.436
1019.711, 1266.022
1020.193, 1288.801
1020.675, 1296.478
1021.157, 1277.489
1021.639, 1262.667
1022.122, 1266.941
1022.604, 1271.709
1023.086, 1267.518
1023.568, 1260.670
1024.050, 1255.632
1024.532, 1253.421
1025.014, 1256.857
1025.496, 1269.227
1025.978, 1272.391
1026.461, 1248.723
1026.943, 1231.560
1027.425, 1240.932
1027.907, 1255.938
1028.389, 1258.203
1028.871, 1251.900
1029.353, 1249.693
1029.835, 1253.339
1030.318, 1260.799
1030.800, 1279.172
1031.282, 1291.316
1031.764, 1287.820
1032.246, 1280.176
1032.728, 1276.726
1033.210, 1275.734
1033.692, 1272.052
1034.174, 1264.292
1034.656, 1259.890
1035.139, 1263.469
1035.621, 1265.043
1036.103, 1258.809
1036.585, 1253.649
1037.067, 1256.830
1037.549, 1264.531
1038.031, 1269.426
1038.513, 1270.903
1038.996, 1272.659
1039.478, 1280.264
1039.960, 1279.378
1040.442, 1257.667
1040.924, 1239.898
1041.406, 1243.138
1041.888, 1256.343
1042.370, 1262.134
1042.853, 1260.163
1043.335, 1257.321
1043.817, 1251.566
1044.299, 1249.322
1044.781, 1252.443
1045.263, 1257.417
1045.745, 1264.653
1046.227, 1270.140
1046.709, 1266.755
1047.192, 1255.380
1047.674, 1252.913
1048.156, 1263.235
1048.638, 1270.320
1049.120, 1273.221
1049.602, 1271.094
1050.084, 1261.536
1050.566, 1250.934
1051.048, 1246.092
1051.531, 1247.093
1052.013, 1257.053
1052.495, 1279.587
1052.977, 1286.004
1053.459, 1272.259
1053.941, 1253.378
1054.423, 1232.134
1054.905, 1221.008
1055.388, 1234.978
1055.870, 1263.945
1056.352, 1276.143
1056.834, 1271.666
1057.316, 1264.403
1057.798, 1254.799
1058.280, 1250.484
1058.762, 1253.997
1059.245, 1255.661
1059.727, 1247.259
1060.209, 1234.312
1060.691, 1227.909
1061.173, 1227.007
1061.655, 1225.404
1062.137, 1223.620
1062.619, 1228.401
1063.101, 1240.356
1063.583, 1247.515
1064.066, 1241.950
1064.548, 1233.130
1065.030, 1237.160
1065.512, 1246.807
1065.994, 1243.297
1066.476, 1230.443
1066.958, 1217.887
1067.440, 1208.417
1067.923, 1205.835
1068.405, 1211.939
1068.887, 1219.812
1069.369, 1225.576
1069.851, 1226.315
1070.333, 1210.050
1070.815, 1190.229
1071.297, 1194.327
1071.780, 1216.531
1072.262, 1231.499
1072.744, 1231.154
1073.226, 1226.384
1073.708, 1223.193
1074.190, 1220.460
1074.672, 1215.291
1075.154, 1211.754
1075.636, 1218.206
1076.119, 1228.057
1076.601, 1227.451
1077.083, 1214.889
1077.565, 1202.454
1078.047, 1190.170
1078.529, 1188.222
1079.011, 1213.721
1079.493, 1237.761
1079.976, 1237.273
1080.458, 1225.886
1080.940, 1220.296
1081.422, 1221.740
1081.904, 1226.594
1082.386, 1240.570
1082.868, 1242.018
1083.350, 1210.035
1083.833, 1186.357
1084.315, 1194.231
1084.797, 1210.294
1085.279, 1215.637
1085.761, 1212.195
1086.243, 1206.804
1086.725, 1197.907
1087.207, 1193.994
1087.689, 1200.255
1088.172, 1201.474
1088.654, 1190.231
1089.136, 1181.128
1089.618, 1183.759
1090.100, 1193.162
1090.582, 1201.475
1091.064, 1208.663
1091.546, 1213.217
1092.028, 1215.167
1092.511, 1212.912
1092.993, 1204.311
1093.475, 1202.520
1093.957, 1215.162
1094.439, 1228.676
1094.921, 1226.738
1095.403, 1214.494
1095.885, 1210.801
1096.368, 1214.788
1096.850, 1215.345
1097.332, 1211.927
1097.814, 1206.822
1098.296, 1200.812
1098.778, 1195.869
1099.260, 1193.545
1099.742, 1192.804
1100.224, 1193.881
1100.707, 1194.453
1101.189, 1186.107
1101.671, 1172.892
1102.153, 1166.895
1102.635, 1169.318
1103.117, 1175.023
1103.599, 1181.783
1104.081, 1185.968
1104.563, 1182.031
1105.046, 1176.146
1105.528, 1174.294
1106.010, 1174.945
1106.492, 1176.408
1106.974, 1178.396
1107.456, 1181.849
1107.938, 1186.644
1108.420, 1188.019
1108.903, 1177.178
1109.385, 1171.890
1109.867, 1190.573
1110.349, 1206.754
1110.831, 1195.896
1111.313, 1175.029
1111.795, 1167.657
1112.277, 1173.990
1112.760, 1181.006
1113.242, 1188.717
1113.724, 1193.041
1114.206, 1192.457
1114.688, 1189.870
1115.170, 1186.470
1115.652, 1180.871
1116.134, 1169.431
1116.616, 1156.544
1117.099, 1152.806
1117.581, 1159.147
1118.063, 1165.721
1118.545, 1173.893
1119.027, 1176.291
1119.509, 1169.685
1119.991, 1166.258
1120.473, 1172.876
1120.955, 1182.531
1121.438, 1186.586
1121.920, 1185.965
1122.402, 1183.555
1122.884, 1179.604
1123.366, 1175.988
1123.848, 1173.185
1124.330, 1176.151
1124.812, 1185.565
1125.295, 1189.039
1125.777, 1175.989
1126.259, 1160.558
1126.741, 1166.998
1127.223, 1181.772
1127.705, 1177.882
1128.187, 1164.116
1128.669, 1161.033
1129.151, 1169.074
1129.634, 1178.364
1130.116, 1185.103
1130.598, 1185.650
1131.080, 1170.155
1131.562, 1156.766
1132.044, 1161.606
1132.526, 1170.700
1133.008, 1171.551
1133.490, 1167.046
1133.973, 1163.410
1134.455, 1161.414
1134.937, 1158.911
1135.419, 1151.978
1135.901, 1150.866
1136.383, 1165.347
1136.865, 1175.384
1137.347, 1169.210
1137.830, 1159.575
1138.312, 1157.333
1138.794, 1158.915
1139.276, 1153.646
1139.758, 1139.069
1140.240, 1138.897
1140.722, 1158.527
1141.204, 1169.832
1141.687, 1167.275
1142.169, 1159.333
1142.651, 1148.615
1143.133, 1143.246
1143.615, 1155.432
1144.097, 1177.093
1144.579, 1182.439
1145.061, 1173.856
1145.543, 1161.797
1146.026, 1148.063
1146.508, 1135.336
1146.990, 1125.710
1147.472, 1130.561
1147.954, 1159.384
1148.436, 1186.740
1148.918, 1181.534
1149.400, 1162.602
1149.882, 1148.898
1150.365, 1139.592
1150.847, 1131.615
1151.329, 1126.194
1151.811, 1129.372
1152.293, 1142.103
1152.775, 1150.071
1153.257, 1139.352
1153.739, 1134.001
1154.222, 1150.608
1154.704, 1165.617
1155.186, 1161.921
1155.668, 1151.539
1156.150, 1148.883
1156.632, 1152.786
1157.114, 1155.113
1157.596, 1155.855
1158.078, 1155.076
1158.561, 1153.229
1159.043, 1147.438
1159.525, 1133.689
1160.007, 1127.649
1160.489, 1141.034
1160.971, 1158.005
1161.453, 1154.433
1161.935, 1136.901
1162.417, 1134.740
1162.900, 1145.644
1163.382, 1150.646
1163.864, 1149.384
1164.346, 1151.443
1164.828, 1158.902
1165.310, 1163.760
1165.792, 1160.431
1166.274, 1154.678
1166.757, 1150.899
1167.239, 1150.190
1167.721, 1157.907
1168.203, 1166.900
1168.685, 1166.199
1169.167, 1157.625
1169.649, 1146.546
1170.131, 1134.819
1170.614, 1131.051
1171.096, 1149.120
1171.578, 1159.815
1172.060, 1145.295
1172.542, 1132.548
1173.024, 1142.308
1173.506, 1154.927
1173.988, 1145.446
1174.470, 1123.328
1174.953, 1119.139
1175.435, 1137.263
1175.917, 1144.703
1176.399, 1137.381
1176.881, 1138.416
1177.363, 1153.719
1177.845, 1163.565
1178.327, 1157.783
1178.809, 1147.830
1179.292, 1146.774
1179.774, 1150.618
1180.256, 1151.094
1180.738, 1148.053
1181.220, 1137.267
1181.702, 1123.036
1182.184, 1119.995
1182.666, 1129.051
1183.149, 1139.618
1183.631, 1146.874
1184.113, 1152.840
1184.595, 1161.800
1185.077, 1166.679
1185.559, 1160.287
1186.041, 1149.396
1186.523, 1135.121
1187.005, 1123.534
1187.488, 1126.834
1187.970, 1143.476
1188.452, 1150.446
1188.934, 1138.516
1189.416, 1130.886
1189.898, 1129.946
1190.380, 1129.428
1190.862, 1127.442
1191.344, 1126.745
1191.827, 1129.784
1192.309, 1133.399
1192.791, 1132.049
1193.273, 1127.284
1193.755, 1126.948
1194.237, 1130.905
1194.719, 1142.069
1195.201, 1157.709
1195.684, 1155.452
1196.166, 1132.164
1196.648, 1113.776
1197.130, 1116.577
1197.612, 1127.079
1198.094, 1135.904
1198.576, 1141.263
1199.058, 1137.541
1199.541, 1132.275
1200.023, 1134.702
1200.505, 1142.755
1200.987, 1153.408
1201.469, 1164.964
1201.951, 1166.491
1202.433, 1146.903
1202.915, 1133.688
1203.397, 1136.611
1203.880, 1136.737
1204.362, 1125.753
1204.844, 1116.895
1205.326, 1121.729
1205.808, 1129.978
1206.290, 1122.128
1206.772, 1101.729
##END=



