##NAMES=Cahnite
##RRUFFID=R110095
##IDEAL CHEMISTRY=Ca_2_B(As^5+^O_4_)(OH)_4_
##LOCALITY=Inner Mongolia province, China
##OWNER=RRUFF
##SOURCE=Rob Lavinsky
##DESCRIPTION=White tetrahedra associated with bluish green borcarite (R110094)
##STATUS=The identification of this mineral is confirmed by single-crystal X-ray diffraction and chemical analysis.
##URL=rruff.info/R110095
##MEASURED CHEMISTRY=Ca_2.01_B[(As_0.96_Si_0.04_)O_4_](OH)_4_ ; B not measured
101.2458, 34.43688
101.7280, 33.86005
102.2101, 33.78917
102.6922, 33.95341
103.1743, 33.92744
103.6564, 33.70321
104.1385, 33.50945
104.6207, 33.42459
105.1028, 33.43017
105.5849, 33.47701
106.0670, 33.59412
106.5491, 33.68755
107.0313, 33.68647
107.5134, 33.59171
107.9955, 33.37857
108.4776, 32.97591
108.9597, 32.32718
109.4418, 31.73234
109.9240, 31.26551
110.4061, 30.88472
110.8882, 30.56321
111.3703, 30.28771
111.8524, 30.07989
112.3345, 30.00962
112.8167, 30.22937
113.2988, 30.39172
113.7809, 30.44008
114.2630, 30.40532
114.7451, 30.31563
115.2272, 30.18198
115.7094, 30.01043
116.1915, 29.94717
116.6736, 30.18326
117.1557, 30.32350
117.6378, 30.16548
118.1199, 29.76833
118.6021, 29.35372
119.0842, 29.10067
119.5663, 29.02993
120.0484, 28.99305
120.5305, 28.97902
121.0126, 29.00278
121.4948, 29.09813
121.9769, 29.27667
122.4590, 29.45947
122.9411, 29.60041
123.4232, 29.69532
123.9053, 29.66704
124.3875, 29.38748
124.8696, 28.95682
125.3517, 28.65624
125.8338, 28.54898
126.3159, 28.54751
126.7980, 28.60974
127.2802, 28.71934
127.7623, 28.80316
128.2444, 28.79161
128.7265, 28.67517
129.2086, 28.56577
129.6907, 28.48895
130.1729, 28.40839
130.6550, 28.29312
131.1371, 28.14609
131.6192, 28.00624
132.1013, 27.93876
132.5834, 28.01992
133.0656, 28.01837
133.5477, 27.87281
134.0298, 27.69286
134.5119, 27.55413
134.9940, 27.48384
135.4761, 27.46781
135.9583, 27.47644
136.4404, 27.53535
136.9225, 27.58883
137.4046, 27.60175
137.8867, 27.61413
138.3688, 27.70140
138.8510, 27.91454
139.3331, 28.19066
139.8152, 28.32297
140.2973, 28.29052
140.7794, 28.18901
141.2615, 27.99084
141.7437, 27.72996
142.2258, 27.56284
142.7079, 27.60864
143.1900, 27.79159
143.6721, 27.93076
144.1542, 28.00760
144.6364, 28.05208
145.1185, 28.07723
145.6006, 28.07440
146.0827, 28.10515
146.5648, 28.22760
147.0469, 28.39327
147.5291, 28.55619
148.0112, 28.69607
148.4933, 28.82844
148.9754, 28.99045
149.4575, 29.20181
149.9396, 29.41240
150.4218, 29.59658
150.9039, 29.77303
151.3860, 29.94865
151.8681, 30.10713
152.3502, 30.27272
152.8323, 30.64355
153.3145, 31.52817
153.7966, 32.33253
154.2787, 32.89269
154.7608, 33.28115
155.2429, 33.67986
155.7250, 34.25512
156.2072, 35.03676
156.6893, 35.50029
157.1714, 35.34571
157.6535, 35.21625
158.1356, 35.43777
158.6177, 35.96904
159.0999, 36.52223
159.5820, 36.81966
160.0641, 36.80595
160.5462, 36.92023
161.0283, 37.27034
161.5104, 37.66716
161.9926, 38.01227
162.4747, 38.28884
162.9568, 38.43243
163.4389, 38.29230
163.9210, 37.88694
164.4031, 37.60163
164.8853, 37.58723
165.3674, 37.70546
165.8495, 37.73114
166.3316, 37.58905
166.8137, 37.47883
167.2958, 37.60061
167.7780, 37.91029
168.2601, 38.28766
168.7422, 38.51807
169.2243, 38.72898
169.7064, 39.46008
170.1885, 40.97750
170.6707, 42.80806
171.1528, 44.75414
171.6349, 46.75324
172.1170, 48.60087
172.5991, 50.26362
173.0812, 51.76356
173.5634, 52.61149
174.0455, 52.51932
174.5276, 51.89623
175.0097, 50.75389
175.4918, 49.16690
175.9739, 47.32949
176.4561, 45.41436
176.9382, 43.33727
177.4203, 41.42794
177.9024, 39.68223
178.3845, 38.08529
178.8666, 36.67782
179.3488, 35.44949
179.8309, 34.31386
180.3130, 33.16418
180.7951, 31.92270
181.2772, 30.87185
181.7593, 29.99982
182.2415, 29.29651
182.7236, 28.82784
183.2057, 28.58690
183.6878, 28.41514
184.1699, 28.06373
184.6520, 27.36499
185.1342, 26.82094
185.6163, 26.56074
186.0984, 26.40952
186.5805, 26.17645
187.0626, 25.80254
187.5447, 25.36963
188.0269, 24.99932
188.5090, 24.67217
188.9911, 24.44942
189.4732, 24.41094
189.9553, 24.47691
190.4374, 24.50589
190.9196, 24.44766
191.4017, 24.36210
191.8838, 24.32910
192.3659, 24.34466
192.8480, 24.39726
193.3301, 24.51773
193.8123, 24.67976
194.2944, 24.78959
194.7765, 24.82606
195.2586, 24.79064
195.7407, 24.66433
196.2228, 24.44503
196.7050, 24.27431
197.1871, 24.28304
197.6692, 24.46276
198.1513, 24.61821
198.6334, 24.65924
199.1155, 24.71253
199.5977, 24.90416
200.0798, 25.23042
200.5619, 25.52577
201.0440, 25.61817
201.5261, 25.48131
202.0082, 25.31854
202.4904, 25.04342
202.9725, 24.82903
203.4546, 24.78310
203.9367, 24.91029
204.4188, 25.12395
204.9009, 25.31714
205.3831, 25.46778
205.8652, 25.66738
206.3473, 26.03333
206.8294, 26.36089
207.3115, 26.48895
207.7936, 26.41264
208.2758, 26.27782
208.7579, 26.28669
209.2400, 26.49271
209.7221, 26.74069
210.2042, 27.09755
210.6863, 27.44208
211.1685, 27.63739
211.6506, 27.68150
212.1327, 27.74076
212.6148, 28.07287
213.0969, 28.88456
213.5790, 29.53936
214.0612, 29.93341
214.5433, 30.24619
215.0254, 30.63149
215.5075, 31.11986
215.9896, 31.63526
216.4717, 32.07225
216.9539, 32.42793
217.4360, 32.68488
217.9181, 32.89435
218.4002, 32.98048
218.8823, 32.85167
219.3644, 32.48497
219.8466, 31.96209
220.3287, 31.36273
220.8108, 30.66546
221.2929, 29.99954
221.7750, 29.43425
222.2571, 28.88942
222.7393, 28.24771
223.2214, 27.47501
223.7035, 26.66928
224.1856, 25.87239
224.6677, 25.07853
225.1498, 24.59725
225.6320, 24.75045
226.1141, 25.20771
226.5962, 25.40737
227.0783, 25.20873
227.5604, 24.90035
228.0425, 24.76823
228.5247, 24.77439
229.0068, 24.77897
229.4889, 24.69616
229.9710, 24.57762
230.4531, 24.55835
230.9352, 24.70281
231.4174, 24.83757
231.8995, 24.80055
232.3816, 24.64532
232.8637, 24.51495
233.3458, 24.48886
233.8279, 24.54171
234.3101, 24.59548
234.7922, 24.65724
235.2743, 24.70266
235.7564, 24.73148
236.2385, 24.73734
236.7206, 24.70640
237.2028, 24.63859
237.6849, 24.52839
238.1670, 24.33566
238.6491, 23.97194
239.1312, 23.66029
239.6133, 23.44884
240.0955, 23.34533
240.5776, 23.37124
241.0597, 23.57751
241.5418, 23.91412
242.0239, 24.13419
242.5060, 24.18953
242.9882, 24.18066
243.4703, 24.09470
243.9524, 23.97988
244.4345, 23.90048
244.9166, 23.89305
245.3987, 23.94959
245.8809, 24.03106
246.3630, 24.11241
246.8451, 24.26002
247.3272, 24.54599
247.8093, 24.88556
248.2914, 25.16359
248.7736, 25.31437
249.2557, 25.37355
249.7378, 25.48230
250.2199, 25.63520
250.7020, 25.85617
251.1841, 26.27361
251.6663, 26.71705
252.1484, 26.94685
252.6305, 26.84415
253.1126, 26.54231
253.5947, 26.46340
254.0768, 26.90169
254.5590, 27.22218
255.0411, 27.31001
255.5232, 27.29170
256.0053, 27.28984
256.4874, 27.35693
256.9695, 27.49703
257.4517, 27.71995
257.9338, 28.16863
258.4159, 28.53170
258.8980, 28.75392
259.3801, 28.91320
259.8622, 29.04159
260.3444, 29.15573
260.8265, 29.35699
261.3086, 29.84834
261.7907, 30.98558
262.2728, 31.85827
262.7549, 32.11489
263.2371, 32.27080
263.7192, 32.88235
264.2013, 34.09156
264.6834, 35.56372
265.1655, 36.80840
265.6476, 37.69441
266.1298, 38.64492
266.6119, 39.79352
267.0940, 40.94585
267.5761, 41.90606
268.0582, 42.64255
268.5403, 43.27812
269.0225, 44.02103
269.5046, 44.98234
269.9867, 45.33948
270.4688, 44.72594
270.9509, 43.71527
271.4330, 42.73061
271.9152, 41.83712
272.3973, 40.98694
272.8794, 40.14138
273.3615, 39.29978
273.8436, 38.49644
274.3257, 37.53138
274.8079, 36.74055
275.2900, 36.45500
275.7721, 36.66898
276.2542, 37.06787
276.7363, 37.45283
277.2184, 37.82682
277.7006, 38.22938
278.1827, 38.55277
278.6648, 38.98793
279.1469, 39.71976
279.6290, 40.71790
280.1111, 41.74331
280.5933, 42.63280
281.0754, 43.45497
281.5575, 44.43437
282.0396, 45.60324
282.5217, 46.88250
283.0038, 48.31353
283.4860, 49.85296
283.9681, 51.30707
284.4502, 52.64717
284.9323, 53.77712
285.4144, 54.60341
285.8965, 55.18506
286.3787, 55.36568
286.8608, 54.93712
287.3429, 54.00794
287.8250, 52.97395
288.3071, 51.99426
288.7892, 50.90597
289.2714, 49.43967
289.7535, 47.56232
290.2356, 45.68803
290.7177, 43.87136
291.1998, 42.19688
291.6819, 40.93085
292.1641, 40.26411
292.6462, 39.76242
293.1283, 38.86712
293.6104, 37.63610
294.0925, 36.57798
294.5746, 35.90962
295.0568, 35.55076
295.5389, 35.37353
296.0210, 35.39795
296.5031, 35.50256
296.9852, 35.52766
297.4673, 35.53406
297.9495, 35.73377
298.4316, 36.26120
298.9137, 36.99449
299.3958, 37.75415
299.8779, 38.52715
300.3600, 39.37066
300.8422, 40.27808
301.3243, 41.29144
301.8064, 42.50634
302.2885, 44.07015
302.7706, 45.73788
303.2527, 47.23443
303.7349, 48.55654
304.2170, 49.84342
304.6991, 51.20641
305.1812, 52.54250
305.6633, 53.69680
306.1454, 54.60045
306.6276, 55.43550
307.1097, 56.25442
307.5918, 57.07179
308.0739, 58.21036
308.5560, 59.90096
309.0381, 61.85988
309.5203, 63.69012
310.0024, 65.36321
310.4845, 67.18997
310.9666, 69.30388
311.4487, 71.72244
311.9308, 74.51472
312.4130, 77.64422
312.8951, 81.24789
313.3772, 85.30802
313.8593, 89.82651
314.3414, 94.82603
314.8235, 100.2680
315.3057, 106.2049
315.7878, 112.8972
316.2699, 120.4380
316.7520, 128.5142
317.2341, 137.1662
317.7162, 146.1250
318.1984, 154.9050
318.6805, 164.2564
319.1626, 172.8694
319.6447, 178.8475
320.1268, 182.1958
320.6089, 182.9035
321.0911, 180.5424
321.5732, 175.4854
322.0553, 167.7776
322.5374, 156.7690
323.0195, 144.1320
323.5016, 131.1279
323.9838, 117.6693
324.4659, 104.9985
324.9480, 93.48656
325.4301, 83.23952
325.9122, 74.35619
326.3943, 66.82604
326.8765, 60.33589
327.3586, 54.73832
327.8407, 49.98646
328.3228, 46.00045
328.8049, 42.92966
329.2870, 40.44083
329.7692, 38.16829
330.2513, 36.11127
330.7334, 34.31624
331.2155, 32.83443
331.6976, 31.63573
332.1797, 30.67652
332.6619, 29.98847
333.1440, 29.44072
333.6261, 28.97977
334.1082, 28.58001
334.5903, 28.18334
335.0724, 27.72166
335.5546, 27.28268
336.0367, 27.01238
336.5188, 26.92834
337.0009, 26.84138
337.4830, 26.64082
337.9651, 26.36485
338.4473, 26.07905
338.9294, 25.74959
339.4115, 25.47610
339.8936, 25.36666
340.3757, 25.40216
340.8578, 25.44827
341.3400, 25.47455
341.8221, 25.46603
342.3042, 25.39748
342.7863, 25.25760
343.2684, 25.12368
343.7505, 25.03755
344.2327, 24.98502
344.7148, 24.91979
345.1969, 24.81488
345.6790, 24.74201
346.1611, 24.83119
346.6432, 25.05373
347.1254, 25.22114
347.6075, 25.27310
348.0896, 25.24926
348.5717, 25.13249
349.0538, 24.91270
349.5359, 24.83212
350.0181, 25.16955
350.5002, 25.81124
350.9823, 26.21732
351.4644, 26.11843
351.9465, 25.98033
352.4286, 26.14450
352.9108, 26.55640
353.3929, 26.95274
353.8750, 27.19274
354.3571, 27.35150
354.8392, 27.61778
355.3214, 28.01489
355.8035, 28.44335
356.2856, 28.91229
356.7677, 29.37963
357.2498, 29.74156
357.7319, 29.95266
358.2141, 30.14476
358.6962, 30.52918
359.1783, 31.14901
359.6604, 31.68388
360.1425, 31.92312
360.6246, 32.17248
361.1068, 32.77077
361.5889, 33.73342
362.0710, 34.74740
362.5531, 35.56019
363.0352, 36.17147
363.5173, 36.77795
363.9995, 37.38906
364.4816, 37.98981
364.9637, 38.49748
365.4458, 38.98229
365.9279, 39.64653
366.4100, 40.61884
366.8922, 41.78400
367.3743, 42.74778
367.8564, 43.28845
368.3385, 43.95652
368.8206, 44.91964
369.3027, 46.00536
369.7849, 46.99683
370.2670, 47.83337
370.7491, 48.64402
371.2312, 49.63358
371.7133, 50.95555
372.1954, 51.93651
372.6776, 52.47114
373.1597, 52.78235
373.6418, 52.91923
374.1239, 52.94168
374.6060, 52.98494
375.0881, 53.16817
375.5703, 53.48388
376.0524, 53.68663
376.5345, 53.88187
377.0166, 53.85216
377.4987, 53.41125
377.9808, 52.74807
378.4630, 52.12695
378.9451, 51.66972
379.4272, 51.31181
379.9093, 50.88853
380.3914, 50.23674
380.8735, 49.80364
381.3557, 49.74362
381.8378, 49.78394
382.3199, 49.66627
382.8020, 49.38817
383.2841, 49.19559
383.7662, 49.39193
384.2484, 50.04305
384.7305, 50.62620
385.2126, 51.03357
385.6947, 51.47767
386.1768, 51.92272
386.6589, 52.46369
387.1411, 53.28221
387.6232, 54.51958
388.1053, 56.07136
388.5874, 57.56038
389.0695, 58.97253
389.5516, 60.33963
390.0338, 61.61642
390.5159, 62.89471
390.9980, 64.35617
391.4801, 66.04591
391.9622, 67.58463
392.4443, 68.52100
392.9265, 68.82827
393.4086, 68.79751
393.8907, 68.49632
394.3728, 67.78065
394.8549, 66.47555
395.3370, 64.67187
395.8192, 62.71061
396.3013, 60.81293
396.7834, 58.91990
397.2655, 56.80037
397.7476, 54.33131
398.2297, 51.96767
398.7119, 49.89076
399.1940, 48.07365
399.6761, 46.53677
400.1582, 45.30729
400.6403, 44.30658
401.1224, 43.49232
401.6046, 42.85309
402.0867, 42.30943
402.5688, 41.86018
403.0509, 41.47687
403.5330, 41.08970
404.0151, 40.69341
404.4973, 40.42312
404.9794, 40.35551
405.4615, 40.44714
405.9436, 40.56123
406.4257, 40.64958
406.9078, 41.02020
407.3900, 42.04234
407.8721, 43.60513
408.3542, 45.06860
408.8363, 46.94321
409.3184, 48.20672
409.8005, 47.76805
410.2827, 46.06056
410.7648, 44.55380
411.2469, 43.87088
411.7290, 43.79843
412.2111, 43.94283
412.6932, 44.42096
413.1754, 44.78887
413.6575, 44.98988
414.1396, 45.03413
414.6217, 44.90797
415.1038, 44.61737
415.5859, 44.22921
416.0681, 43.81092
416.5502, 43.36729
417.0323, 42.81449
417.5144, 42.03272
417.9965, 41.28518
418.4786, 40.68229
418.9608, 40.19247
419.4429, 39.74410
419.9250, 39.30261
420.4071, 38.86544
420.8892, 38.42637
421.3713, 38.01396
421.8535, 37.55589
422.3356, 37.04417
422.8177, 36.49261
423.2998, 35.87422
423.7819, 35.20769
424.2640, 34.59333
424.7462, 34.15474
425.2283, 33.90749
425.7104, 33.57391
426.1925, 32.96597
426.6746, 32.47896
427.1567, 32.27086
427.6389, 32.24548
428.1210, 32.25730
428.6031, 32.23984
429.0852, 32.21199
429.5673, 32.23793
430.0494, 32.36788
430.5316, 32.37189
431.0137, 32.01217
431.4958, 31.63300
431.9779, 31.46678
432.4600, 31.52217
432.9421, 31.63712
433.4243, 31.67413
433.9064, 31.66561
434.3885, 31.76748
434.8706, 32.03045
435.3527, 32.30350
435.8348, 32.44304
436.3170, 32.53443
436.7991, 32.73135
437.2812, 33.10005
437.7633, 33.54376
438.2454, 34.01024
438.7275, 34.48969
439.2097, 34.86131
439.6918, 34.98042
440.1739, 35.12565
440.6560, 35.79295
441.1381, 37.01509
441.6202, 38.15549
442.1024, 38.97814
442.5845, 39.65911
443.0666, 40.39271
443.5487, 41.19641
444.0308, 41.98685
444.5129, 42.73098
444.9951, 43.40648
445.4772, 43.86045
445.9593, 44.02967
446.4414, 44.08669
446.9235, 44.15459
447.4056, 44.12187
447.8878, 43.80655
448.3699, 43.14866
448.8520, 42.25181
449.3341, 41.25597
449.8162, 40.13011
450.2983, 38.99388
450.7805, 37.76167
451.2626, 36.60095
451.7447, 35.59962
452.2268, 34.74221
452.7089, 33.95977
453.1910, 33.20994
453.6732, 32.50217
454.1553, 31.89139
454.6374, 31.45053
455.1195, 30.98375
455.6016, 30.40859
456.0837, 29.83146
456.5659, 29.33874
457.0480, 28.94459
457.5301, 28.62720
458.0122, 28.36015
458.4943, 28.14298
458.9764, 28.02163
459.4586, 28.09330
459.9407, 28.11519
460.4228, 27.96581
460.9049, 27.68702
461.3870, 27.33743
461.8691, 26.89758
462.3513, 26.46163
462.8334, 26.14488
463.3155, 25.94513
463.7976, 25.82697
464.2797, 25.86953
464.7618, 25.87889
465.2440, 25.57883
465.7261, 24.96723
466.2082, 24.37016
466.6903, 23.88025
467.1724, 23.47016
467.6545, 23.11414
468.1367, 22.80998
468.6188, 22.55288
469.1009, 22.36508
469.5830, 22.21753
470.0651, 21.95619
470.5472, 21.42194
471.0294, 20.99251
471.5115, 20.82969
471.9936, 20.79694
472.4757, 20.73645
472.9578, 20.60418
473.4399, 20.41887
473.9221, 20.18923
474.4042, 19.88841
474.8863, 19.70437
475.3684, 19.74612
475.8505, 19.77303
476.3326, 19.66243
476.8148, 19.48310
477.2969, 19.37833
477.7790, 19.42198
478.2611, 19.51307
478.7432, 19.41327
479.2253, 19.02254
479.7075, 18.72680
480.1896, 18.57625
480.6717, 18.52659
481.1538, 18.61841
481.6359, 18.80998
482.1180, 18.95832
482.6002, 18.94106
483.0823, 18.81889
483.5644, 18.78991
484.0465, 18.90485
484.5286, 18.92031
485.0107, 18.56396
485.4929, 18.13685
485.9750, 18.04477
486.4571, 18.39864
486.9392, 18.72391
487.4213, 18.66547
487.9034, 18.38103
488.3856, 18.22563
488.8677, 18.26284
489.3498, 18.36213
489.8319, 18.43731
490.3140, 18.47992
490.7961, 18.45229
491.2783, 18.24814
491.7604, 18.08648
492.2425, 18.11314
492.7246, 18.24356
493.2067, 18.32000
493.6888, 18.28707
494.1710, 18.19222
494.6531, 18.10556
495.1352, 18.02729
495.6173, 17.95797
496.0994, 17.87200
496.5815, 17.81794
497.0637, 17.85942
497.5458, 17.94870
498.0279, 17.98599
498.5100, 17.91349
498.9921, 17.76285
499.4742, 17.59903
499.9564, 17.38791
500.4385, 17.25305
500.9206, 17.21226
501.4027, 17.25098
501.8848, 17.41349
502.3669, 17.66957
502.8491, 17.88604
503.3312, 17.94853
503.8133, 17.91084
504.2954, 17.94127
504.7775, 18.07271
505.2596, 18.10941
505.7418, 17.85815
506.2239, 17.51638
506.7060, 17.37544
507.1881, 17.48894
507.6702, 17.64009
508.1523, 17.76651
508.6345, 17.84566
509.1166, 17.81808
509.5987, 17.67465
510.0808, 17.51242
510.5629, 17.40618
511.0450, 17.35309
511.5272, 17.30589
512.0093, 17.17533
512.4914, 17.15401
512.9735, 17.43376
513.4556, 17.79945
513.9377, 17.92243
514.4199, 17.73293
514.9020, 17.49822
515.3841, 17.58989
515.8662, 18.09799
516.3483, 18.31148
516.8304, 17.87930
517.3126, 17.51840
517.7947, 17.47170
518.2768, 17.60919
518.7589, 17.73548
519.2410, 17.77405
519.7231, 17.76694
520.2053, 17.76371
520.6874, 17.76282
521.1695, 17.79743
521.6516, 17.93606
522.1337, 18.02562
522.6158, 17.89006
523.0980, 17.62185
523.5801, 17.49043
524.0622, 17.64273
524.5443, 17.92090
525.0264, 18.23716
525.5085, 18.56390
525.9907, 18.69331
526.4728, 18.50540
526.9549, 18.19671
527.4370, 18.04248
527.9191, 18.04657
528.4012, 18.15552
528.8834, 18.47270
529.3655, 18.80066
529.8476, 18.98646
530.3297, 19.06425
530.8118, 19.16483
531.2939, 19.36334
531.7761, 19.59716
532.2582, 19.68808
532.7403, 19.42182
533.2224, 19.41579
533.7045, 19.89533
534.1866, 20.41306
534.6688, 20.68043
535.1509, 20.74402
535.6330, 20.82071
536.1151, 21.04670
536.5972, 21.38843
537.0793, 21.75945
537.5615, 22.15088
538.0436, 22.60664
538.5257, 23.27925
539.0078, 23.90461
539.4899, 24.21286
539.9720, 24.21286
540.4542, 24.20324
540.9363, 24.39700
541.4184, 24.63235
541.9005, 24.66255
542.3826, 24.48647
542.8647, 24.26508
543.3469, 24.08566
543.8290, 23.90927
544.3111, 23.62623
544.7932, 23.20982
545.2753, 22.77251
545.7574, 22.23273
546.2396, 21.74454
546.7217, 21.49002
547.2038, 21.43264
547.6859, 21.36665
548.1680, 21.13845
548.6501, 20.80147
549.1323, 20.59378
549.6144, 20.56248
550.0965, 20.58854
550.5786, 20.83195
551.0607, 20.98912
551.5428, 20.77044
552.0250, 20.21283
552.5071, 19.63909
552.9892, 19.30091
553.4713, 19.11351
553.9534, 18.78609
554.4355, 18.26461
554.9177, 17.88964
555.3998, 17.90612
555.8819, 18.06141
556.3640, 17.99519
556.8461, 17.67415
557.3282, 17.36879
557.8104, 17.10994
558.2925, 16.96367
558.7746, 17.08525
559.2567, 17.44190
559.7388, 17.75392
560.2209, 17.85889
560.7031, 17.79389
561.1852, 17.67780
561.6673, 17.45965
562.1494, 17.25831
562.6315, 17.04846
563.1136, 16.87687
563.5958, 16.78520
564.0779, 16.76542
564.5600, 16.78057
565.0421, 16.80459
565.5242, 16.84344
566.0063, 16.94197
566.4885, 17.16488
566.9706, 17.25669
567.4527, 17.01784
567.9348, 16.72846
568.4169, 16.57900
568.8990, 16.56758
569.3812, 16.58067
569.8633, 16.57307
570.3454, 16.54901
570.8275, 16.48818
571.3096, 16.39789
571.7917, 16.38868
572.2739, 16.53422
572.7560, 16.74250
573.2381, 16.84784
573.7202, 16.83165
574.2023, 16.79741
574.6844, 16.75731
575.1666, 16.69966
575.6487, 16.59508
576.1308, 16.46620
576.6129, 16.36959
577.0950, 16.33500
577.5771, 16.34175
578.0593, 16.33559
578.5414, 16.28021
579.0235, 16.31172
579.5056, 16.59171
579.9877, 16.81481
580.4698, 16.80537
580.9520, 16.63158
581.4341, 16.45714
581.9162, 16.33988
582.3983, 16.28559
582.8804, 16.35065
583.3625, 16.51651
583.8447, 16.56325
584.3268, 16.39858
584.8089, 16.19718
585.2910, 16.16185
585.7731, 16.27192
586.2552, 16.30979
586.7374, 16.16261
587.2195, 16.03756
587.7016, 16.03914
588.1837, 16.13698
588.6658, 16.31435
589.1479, 16.55627
589.6301, 16.74780
590.1122, 16.72617
590.5943, 16.45652
591.0764, 16.30873
591.5585, 16.40073
592.0406, 16.48066
592.5228, 16.47460
593.0049, 16.43158
593.4870, 16.41029
593.9691, 16.42583
594.4512, 16.45494
594.9333, 16.48010
595.4155, 16.50101
595.8976, 16.53157
596.3797, 16.59007
596.8618, 16.57264
597.3439, 16.35048
597.8260, 16.03716
598.3082, 15.90330
598.7903, 15.98550
599.2724, 16.15305
599.7545, 16.47599
600.2366, 16.79463
600.7188, 16.89839
601.2009, 16.80355
601.6830, 16.71464
602.1651, 16.77838
602.6472, 16.93235
603.1293, 16.93526
603.6115, 16.65587
604.0936, 16.46671
604.5757, 16.43447
605.0578, 16.45289
605.5399, 16.47788
606.0220, 16.49765
606.5042, 16.49911
606.9863, 16.46494
607.4684, 16.42378
607.9505, 16.42788
608.4326, 16.47605
608.9147, 16.51882
609.3969, 16.54371
609.8790, 16.55925
610.3611, 16.59362
610.8432, 16.64104
611.3253, 16.60527
611.8074, 16.37900
612.2896, 16.16870
612.7717, 16.09590
613.2538, 16.10898
613.7359, 16.10324
614.2180, 16.05202
614.7001, 16.03750
615.1823, 16.17572
615.6644, 16.47953
616.1465, 16.66709
616.6286, 16.68468
617.1107, 16.65213
617.5928, 16.55932
618.0750, 16.45861
618.5571, 16.39677
619.0392, 16.38400
619.5213, 16.41720
620.0034, 16.52720
620.4855, 16.67340
620.9677, 16.78894
621.4498, 16.87311
621.9319, 16.82749
622.4140, 16.54323
622.8961, 16.16413
623.3782, 16.00695
623.8604, 16.12573
624.3425, 16.26160
624.8246, 16.43913
625.3067, 16.57755
625.7888, 16.62799
626.2709, 16.59336
626.7531, 16.46616
627.2352, 16.23994
627.7173, 16.00741
628.1994, 15.94564
628.6815, 16.07895
629.1636, 16.26004
629.6458, 16.61836
630.1279, 16.83884
630.6100, 16.66289
631.0921, 16.28395
631.5742, 16.04779
632.0563, 16.06347
632.5385, 16.16149
633.0206, 16.28839
633.5027, 16.39378
633.9848, 16.32440
634.4669, 16.06493
634.9490, 15.86824
635.4312, 15.93251
635.9133, 16.19928
636.3954, 16.39272
636.8775, 16.52198
637.3596, 16.55632
637.8417, 16.40578
638.3239, 16.23210
638.8060, 16.11243
639.2881, 16.07274
639.7702, 16.16314
640.2523, 16.45274
640.7344, 16.78669
641.2166, 16.81524
641.6987, 16.52071
642.1808, 16.34025
642.6629, 16.41350
643.1450, 16.53138
643.6271, 16.47148
644.1093, 16.29169
644.5914, 16.20978
645.0735, 16.35810
645.5556, 16.49254
646.0377, 16.49487
646.5198, 16.41585
647.0020, 16.29400
647.4841, 16.15387
647.9662, 16.07551
648.4483, 15.40093
648.9304, 16.33661
649.4125, 16.86967
649.8947, 17.02174
650.3768, 15.65173
650.8589, 16.24718
651.3410, 16.05495
651.8231, 15.83044
652.3052, 16.70251
652.7874, 15.55389
653.2695, 16.40857
653.7516, 16.46357
654.2337, 16.88456
654.7158, 16.51303
655.1979, 16.38627
655.6801, 17.05231
656.1622, 17.27938
656.6443, 16.81661
657.1264, 17.26087
657.6085, 16.08456
658.0906, 16.33032
658.5728, 17.18965
659.0549, 16.76673
659.5370, 17.22547
660.0191, 17.34843
660.5012, 15.94538
660.9833, 17.19622
661.4655, 17.29934
661.9476, 16.22400
662.4297, 17.38390
662.9118, 16.47103
663.3939, 16.29800
663.8760, 16.66688
664.3582, 16.68316
664.8403, 16.57369
665.3224, 16.35234
665.8045, 16.23612
666.2866, 16.37238
666.7687, 16.50377
667.2509, 16.44390
667.7330, 16.29750
668.2151, 16.24562
668.6972, 16.33230
669.1793, 16.47149
669.6614, 16.58705
670.1436, 16.67543
670.6257, 16.68203
671.1078, 16.56490
671.5899, 16.45277
672.0720, 16.36456
672.5541, 16.30635
673.0363, 16.28286
673.5184, 16.29469
674.0005, 16.34158
674.4826, 16.48120
674.9647, 16.60986
675.4468, 16.59797
675.9290, 16.48799
676.4111, 16.40849
676.8932, 16.39952
677.3753, 16.42479
677.8574, 16.44183
678.3395, 16.44937
678.8217, 16.48349
679.3038, 16.63338
679.7859, 16.69276
680.2680, 16.51048
680.7501, 16.30242
681.2322, 16.29181
681.7144, 16.47765
682.1965, 16.66074
682.6786, 16.72568
683.1607, 16.69844
683.6428, 16.58694
684.1249, 16.40409
684.6071, 16.26261
685.0892, 16.19432
685.5713, 16.18443
686.0534, 16.21896
686.5355, 16.29886
687.0176, 16.41307
687.4998, 16.55769
687.9819, 16.73670
688.4640, 17.07295
688.9461, 17.36750
689.4282, 17.35697
689.9103, 17.05972
690.3925, 16.77707
690.8746, 16.75117
691.3567, 16.88510
691.8388, 16.95159
692.3209, 16.94804
692.8030, 16.94998
693.2852, 16.98808
693.7673, 17.01805
694.2494, 16.99880
694.7315, 16.92972
695.2136, 16.82136
695.6957, 16.62255
696.1779, 16.44648
696.6600, 16.28558
697.1421, 16.19442
697.6242, 16.28030
698.1063, 16.51996
698.5884, 16.74547
699.0706, 16.82548
699.5527, 16.80610
700.0348, 16.82331
700.5169, 16.88766
700.9990, 16.91992
701.4811, 16.90147
701.9633, 16.85156
702.4454, 16.74306
702.9275, 16.61005
703.4096, 16.57523
703.8917, 16.70061
704.3738, 16.86318
704.8560, 17.09635
705.3381, 17.29151
705.8202, 17.24707
706.3023, 17.00207
706.7844, 16.85990
707.2665, 17.05020
707.7487, 17.40792
708.2308, 17.42463
708.7129, 16.97615
709.1950, 16.78304
709.6771, 17.09560
710.1592, 17.46026
710.6414, 17.58176
711.1235, 17.54468
711.6056, 17.52350
712.0877, 17.55305
712.5698, 17.58615
713.0519, 17.62379
713.5341, 17.63812
714.0162, 17.55675
714.4983, 17.40887
714.9804, 17.33423
715.4625, 17.41713
715.9446, 17.58529
716.4268, 17.67971
716.9089, 17.67534
717.3910, 17.71376
717.8731, 17.83788
718.3552, 17.95216
718.8373, 17.97778
719.3195, 17.98032
719.8016, 18.06736
720.2837, 18.27169
720.7658, 18.45775
721.2479, 18.57558
721.7300, 18.63228
722.2122, 18.58152
722.6943, 18.47106
723.1764, 18.46595
723.6585, 18.63939
724.1406, 18.88553
724.6227, 19.04502
725.1049, 19.11190
725.5870, 19.14830
726.0691, 19.07719
726.5512, 19.10235
727.0333, 19.36193
727.5154, 19.70516
727.9976, 19.97480
728.4797, 20.15864
728.9618, 20.37147
729.4439, 20.71124
729.9260, 21.05637
730.4081, 21.23822
730.8903, 21.34356
731.3724, 21.60396
731.8545, 22.07996
732.3366, 22.60264
732.8187, 22.97116
733.3008, 23.21665
733.7830, 23.74755
734.2651, 24.73252
734.7472, 25.63817
735.2293, 26.24810
735.7114, 26.82108
736.1935, 27.52691
736.6757, 28.35401
737.1578, 29.22890
737.6399, 30.11921
738.1220, 31.06553
738.6041, 32.10009
739.0862, 33.20391
739.5684, 34.31153
740.0505, 35.42920
740.5326, 36.67390
741.0147, 38.14176
741.4968, 39.76780
741.9789, 41.34790
742.4611, 42.82868
742.9432, 44.46183
743.4253, 46.40322
743.9074, 48.32550
744.3895, 49.96912
744.8716, 51.48674
745.3538, 53.20393
745.8359, 55.28255
746.3180, 57.19567
746.8001, 58.51116
747.2822, 59.67505
747.7643, 61.16563
748.2465, 62.92890
748.7286, 64.72034
749.2107, 66.42327
749.6928, 68.02744
750.1749, 69.51009
750.6570, 70.86862
751.1392, 72.21577
751.6213, 73.56902
752.1034, 74.89079
752.5855, 76.29708
753.0676, 77.56828
753.5497, 78.44164
754.0319, 78.90903
754.5140, 79.13878
754.9961, 79.14490
755.4782, 78.95092
755.9603, 78.59693
756.4424, 78.04036
756.9246, 77.19942
757.4067, 76.06477
757.8888, 74.72225
758.3709, 73.23575
758.8530, 71.58360
759.3351, 69.65665
759.8173, 67.42980
760.2994, 65.20028
760.7815, 63.04554
761.2636, 60.90471
761.7457, 58.69963
762.2278, 56.47296
762.7100, 54.39836
763.1921, 52.48394
763.6742, 50.72768
764.1563, 49.18933
764.6384, 47.77142
765.1205, 46.38176
765.6027, 45.03572
766.0848, 43.78724
766.5669, 42.65377
767.0490, 41.66772
767.5311, 40.89502
768.0132, 40.31391
768.4954, 39.82393
768.9775, 39.42822
769.4596, 39.01770
769.9417, 38.48114
770.4238, 37.98367
770.9059, 37.84726
771.3881, 38.20351
771.8702, 38.39918
772.3523, 38.19022
772.8344, 38.11647
773.3165, 38.46045
773.7986, 38.97902
774.2808, 39.36738
774.7629, 39.60450
775.2450, 39.93566
775.7271, 40.51792
776.2092, 41.29222
776.6913, 42.22797
777.1735, 43.28632
777.6556, 44.27339
778.1377, 45.14415
778.6198, 46.06950
779.1019, 47.20180
779.5840, 48.50209
780.0662, 49.74807
780.5483, 50.77483
781.0304, 52.06622
781.5125, 53.94949
781.9946, 55.79061
782.4767, 57.23153
782.9589, 58.42965
783.4410, 59.69847
783.9231, 61.13720
784.4052, 62.56484
784.8873, 64.01394
785.3694, 65.30145
785.8516, 66.21376
786.3337, 66.75094
786.8158, 66.92335
787.2979, 66.73891
787.7800, 66.37798
788.2621, 66.08396
788.7443, 65.85104
789.2264, 65.45059
789.7085, 64.90321
790.1906, 64.12582
790.6727, 63.03532
791.1548, 61.74530
791.6370, 60.35427
792.1191, 58.86393
792.6012, 57.31348
793.0833, 55.60966
793.5654, 53.95948
794.0475, 52.52909
794.5297, 51.13771
795.0118, 49.51784
795.4939, 47.73778
795.9760, 46.12466
796.4581, 44.86629
796.9402, 43.79485
797.4224, 42.68093
797.9045, 41.52899
798.3866, 40.37821
798.8687, 39.22642
799.3508, 38.16576
799.8329, 37.25599
800.3151, 36.44722
800.7972, 35.66548
801.2793, 34.91146
801.7614, 34.17317
802.2435, 33.38198
802.7256, 32.68660
803.2078, 32.17976
803.6899, 31.75851
804.1720, 31.29990
804.6541, 30.80494
805.1362, 30.37680
805.6183, 30.10208
806.1005, 29.88527
806.5826, 29.63747
807.0647, 29.37147
807.5468, 29.09384
808.0289, 28.81468
808.5110, 28.60278
808.9932, 28.50307
809.4753, 28.51475
809.9574, 28.65456
810.4395, 28.96040
810.9216, 29.23513
811.4037, 29.51455
811.8859, 29.68465
812.3680, 29.61712
812.8501, 29.43683
813.3322, 29.28939
813.8143, 29.16342
814.2964, 29.20132
814.7786, 29.50236
815.2607, 29.90512
815.7428, 30.33609
816.2249, 30.79953
816.7070, 31.33990
817.1891, 31.94037
817.6713, 32.46770
818.1534, 32.74776
818.6355, 32.99842
819.1176, 33.71592
819.5997, 34.83501
820.0818, 35.82238
820.5640, 36.56945
821.0461, 37.30247
821.5282, 38.14756
822.0103, 39.13357
822.4924, 40.33997
822.9745, 41.82839
823.4567, 43.42341
823.9388, 44.93377
824.4209, 46.77646
824.9030, 49.17257
825.3851, 51.96068
825.8672, 54.85612
826.3494, 57.83900
826.8315, 61.30180
827.3136, 65.49545
827.7957, 70.18252
828.2778, 75.23696
828.7599, 80.59449
829.2421, 86.23428
829.7242, 92.10052
830.2063, 97.93475
830.6884, 103.5516
831.1705, 109.0654
831.6526, 114.6629
832.1348, 120.2918
832.6169, 126.6079
833.0990, 133.6216
833.5811, 141.4776
834.0632, 150.1145
834.5453, 159.7738
835.0275, 171.1801
835.5096, 184.4541
835.9917, 199.1304
836.4738, 214.1063
836.9559, 231.8267
837.4380, 253.6941
837.9202, 278.5143
838.4023, 305.1251
838.8844, 333.3460
839.3665, 363.8666
839.8486, 399.3161
840.3307, 434.6967
840.8129, 466.9040
841.2950, 494.6473
841.7771, 516.7836
842.2592, 532.2094
842.7413, 536.3796
843.2234, 526.2606
843.7056, 503.9001
844.1877, 471.3220
844.6698, 427.7479
845.1519, 385.3909
845.6340, 343.9746
846.1161, 306.0992
846.5983, 272.8280
847.0804, 243.5068
847.5625, 217.1211
848.0446, 193.5715
848.5267, 173.2959
849.0089, 157.3053
849.4910, 143.3385
849.9731, 131.0298
850.4552, 120.1996
850.9373, 110.8656
851.4194, 102.8648
851.9016, 95.87216
852.3837, 89.79078
852.8658, 84.36189
853.3479, 79.34520
853.8300, 74.76171
854.3121, 70.70113
854.7943, 67.14348
855.2764, 63.98777
855.7585, 61.21233
856.2406, 58.78852
856.7227, 56.69987
857.2048, 54.93746
857.6870, 53.24049
858.1691, 51.61521
858.6512, 50.06111
859.1333, 48.57868
859.6154, 47.16728
860.0975, 45.79916
860.5797, 44.49586
861.0618, 43.35072
861.5439, 42.49807
862.0260, 41.57817
862.5081, 40.45675
862.9902, 39.35054
863.4724, 38.36973
863.9545, 37.49964
864.4366, 36.71672
864.9187, 36.00761
865.4008, 35.29397
865.8829, 34.43459
866.3651, 33.61069
866.8472, 33.10573
867.3293, 32.78362
867.8114, 32.30660
868.2935, 31.60700
868.7756, 30.79359
869.2578, 29.92915
869.7399, 29.07772
870.2220, 28.45450
870.7041, 28.07921
871.1862, 27.48908
871.6683, 26.56721
872.1505, 25.71810
872.6326, 25.15053
873.1147, 24.77904
873.5968, 24.48565
874.0789, 24.30903
874.5610, 24.00118
875.0432, 23.49995
875.5253, 22.96033
876.0074, 22.27376
876.4895, 21.67814
876.9716, 21.45358
877.4537, 21.50559
877.9359, 21.43264
878.4180, 21.03440
878.9001, 20.65106
879.3822, 20.53693
879.8643, 20.51428
880.3464, 20.34725
880.8286, 20.09338
881.3107, 19.98834
881.7928, 20.10491
882.2749, 20.21031
882.7570, 20.01964
883.2391, 19.63707
883.7213, 19.36780
884.2034, 19.21159
884.6855, 19.21213
885.1676, 19.40601
885.6497, 19.56750
886.1318, 19.51451
886.6140, 19.30063
887.0961, 19.09517
887.5782, 18.84766
888.0603, 18.74665
888.5424, 18.95063
889.0245, 19.08339
889.5067, 18.88991
889.9888, 18.60927
890.4709, 18.51794
890.9530, 18.62604
891.4351, 18.76790
891.9172, 18.95038
892.3994, 19.10990
892.8815, 19.18554
893.3636, 19.25280
893.8457, 19.44989
894.3278, 19.70399
894.8099, 19.76064
895.2921, 19.48660
895.7742, 19.20944
896.2563, 19.27741
896.7384, 19.52853
897.2205, 19.71320
897.7026, 19.82368
898.1848, 19.85775
898.6669, 19.82195
899.1490, 19.83960
899.6311, 20.05480
900.1132, 20.38842
900.5953, 20.53237
901.0775, 20.47405
901.5596, 20.34023
902.0417, 20.08900
902.5238, 19.97119
903.0059, 20.20278
903.4880, 20.59417
903.9702, 20.74687
904.4523, 20.58392
904.9344, 20.48922
905.4165, 20.51591
905.8986, 20.54165
906.3807, 20.55469
906.8629, 20.54366
907.3450, 20.41759
907.8271, 20.24725
908.3092, 20.33051
908.7913, 20.93706
909.2734, 21.40542
909.7556, 21.30460
910.2377, 21.05880
910.7198, 20.98734
911.2019, 21.08611
911.6840, 21.32415
912.1661, 21.67147
912.6483, 21.97066
913.1304, 22.05466
913.6125, 22.04301
914.0946, 22.13175
914.5767, 22.28962
915.0588, 22.42444
915.5410, 22.51816
916.0231, 22.57628
916.5052, 22.60596
916.9873, 22.58083
917.4694, 22.40214
917.9515, 22.05712
918.4337, 21.93900
918.9158, 22.10097
919.3979, 22.26410
919.8800, 22.36970
920.3621, 22.36401
920.8442, 22.14828
921.3264, 21.75173
921.8085, 21.49311
922.2906, 21.46064
922.7727, 21.42156
923.2548, 21.47534
923.7369, 21.40209
924.2191, 20.95927
924.7012, 20.38670
925.1833, 20.08218
925.6654, 20.10318
926.1475, 20.04493
926.6296, 19.61157
927.1118, 19.27841
927.5939, 19.44055
928.0760, 19.71858
928.5581, 19.63649
929.0402, 19.26548
929.5223, 19.02210
930.0045, 19.10235
930.4866, 19.25660
930.9687, 19.29047
931.4508, 19.23331
931.9329, 19.11279
932.4150, 18.94285
932.8972, 18.72607
933.3793, 18.47714
933.8614, 18.31185
934.3435, 18.35118
934.8256, 18.50046
935.3077, 18.51783
935.7899, 18.41370
936.2720, 18.34703
936.7541, 18.34004
937.2362, 18.31390
937.7183, 18.23412
938.2004, 18.09882
938.6826, 17.88834
939.1647, 17.59856
939.6468, 17.42099
940.1289, 17.39723
940.6110, 17.38612
941.0931, 17.37167
941.5753, 17.35099
942.0574, 17.32388
942.5395, 17.28852
943.0216, 17.25292
943.5037, 17.26022
943.9858, 17.13535
944.4680, 16.66331
944.9501, 16.30219
945.4322, 16.24711
945.9143, 16.36786
946.3964, 16.64188
946.8785, 16.97835
947.3607, 17.04867
947.8428, 16.60975
948.3249, 16.18041
948.8070, 16.05455
949.2891, 16.05374
949.7712, 16.08798
950.2534, 16.09144
950.7355, 15.92156
951.2176, 15.57081
951.6997, 15.28311
952.1818, 15.27994
952.6639, 15.39226
953.1461, 15.40157
953.6282, 15.34411
954.1103, 15.29414
954.5924, 15.26459
955.0745, 15.28581
955.5566, 15.37557
956.0388, 15.39675
956.5209, 15.09838
957.0030, 14.57291
957.4851, 14.32252
957.9672, 14.34431
958.4493, 14.31203
958.9315, 14.13653
959.4136, 14.03921
959.8957, 14.21681
960.3778, 14.07379
960.8599, 14.52161
961.3420, 14.12230
961.8242, 13.97017
962.3063, 14.17722
962.7884, 14.35787
963.2705, 14.38225
963.7526, 14.33636
964.2347, 14.27457
964.7169, 14.21026
965.1990, 14.24276
965.6811, 14.51971
966.1632, 14.66602
966.6453, 14.59046
967.1274, 14.48843
967.6096, 14.42224
968.0917, 14.38685
968.5738, 14.41095
969.0559, 14.48387
969.5380, 14.43163
970.0201, 14.03740
970.5023, 13.74412
970.9844, 13.75354
971.4665, 13.88306
971.9486, 14.02920
972.4307, 14.16500
972.9128, 14.27175
973.3950, 14.34472
973.8771, 14.39726
974.3592, 14.42595
974.8413, 14.44987
975.3234, 14.48588
975.8055, 14.52800
976.2877, 14.55100
976.7698, 14.56957
977.2519, 14.66202
977.7340, 14.86923
978.2161, 15.03923
978.6982, 14.92393
979.1804, 14.70262
979.6625, 14.76624
980.1446, 15.02811
980.6267, 15.16029
981.1088, 15.10419
981.5909, 15.04361
982.0731, 15.10778
982.5552, 15.21936
983.0373, 15.19226
983.5194, 15.06802
984.0015, 15.21057
984.4836, 15.62863
984.9658, 15.87597
985.4479, 15.79548
985.9300, 15.66610
986.4121, 15.75028
986.8942, 15.98108
987.3763, 16.11077
987.8585, 16.11952
988.3406, 16.16362
988.8227, 16.26801
989.3048, 16.34366
989.7869, 16.33275
990.2690, 16.32163
990.7512, 16.45125
991.2333, 16.69312
991.7154, 16.67175
992.1975, 16.21486
992.6796, 15.85931
993.1617, 15.68799
993.6439, 15.55732
994.1260, 15.38361
994.6081, 15.22007
995.0902, 15.15553
995.5723, 15.19413
996.0544, 15.20589
996.5366, 15.13201
997.0187, 15.10851
997.5008, 15.23574
997.9829, 15.33938
998.4650, 15.25716
998.9471, 15.10171
999.4293, 15.09961
999.9114, 15.29122
1000.393, 15.38106
1000.876, 15.13317
1001.358, 14.96468
1001.840, 15.14221
1002.322, 15.39599
1002.804, 15.50752
1003.286, 15.48890
1003.768, 15.40884
1004.250, 15.28163
1004.733, 15.18143
1005.215, 15.12822
1005.697, 15.13853
1006.179, 15.30734
1006.661, 15.49491
1007.143, 15.48408
1007.625, 15.31783
1008.107, 15.21743
1008.589, 15.28045
1009.072, 15.35034
1009.554, 15.25215
1010.036, 15.12498
1010.518, 15.18564
1011.000, 15.32759
1011.482, 15.29290
1011.964, 15.08769
1012.446, 14.97585
1012.929, 15.11351
1013.411, 15.27385
1013.893, 15.14152
1014.375, 14.85731
1014.857, 14.69944
1015.339, 14.64836
1015.821, 14.61132
1016.303, 14.56388
1016.785, 14.51337
1017.268, 14.46900
1017.750, 14.39680
1018.232, 14.21016
1018.714, 13.94676
1019.196, 13.76771
1019.678, 13.67015
1020.160, 13.57844
1020.642, 13.47100
1021.125, 13.34874
1021.607, 13.20253
1022.089, 13.07414
1022.571, 13.09897
1023.053, 13.26232
1023.535, 13.24616
1024.017, 13.03046
1024.499, 12.87760
1024.981, 12.88144
1025.464, 12.87418
1025.946, 12.68704
1026.428, 12.40261
1026.910, 12.29642
1027.392, 12.39176
1027.874, 12.44435
1028.356, 12.44397
1028.838, 12.40278
1029.321, 12.30615
1029.803, 12.22431
1030.285, 12.22626
1030.767, 12.29999
1031.249, 12.41174
1031.731, 12.61867
1032.213, 12.62478
1032.695, 12.32962
1033.177, 12.06709
1033.660, 11.94418
1034.142, 11.93291
1034.624, 12.04772
1035.106, 12.24891
1035.588, 12.27298
1036.070, 11.99167
1036.552, 11.84664
1037.034, 11.92590
1037.516, 12.00103
1037.999, 11.94260
1038.481, 11.89268
1038.963, 12.08575
1039.445, 12.45494
1039.927, 12.47150
1040.409, 11.74141
1040.891, 11.35700
1041.373, 11.59624
1041.855, 11.83333
1042.338, 11.82196
1042.820, 11.71271
1043.302, 11.61925
1043.784, 11.55332
1044.266, 11.59951
1044.748, 11.92444
1045.230, 12.08449
1045.712, 11.93599
1046.195, 11.76419
1046.677, 11.64154
1047.159, 11.58025
1047.641, 11.60450
1048.123, 11.70436
1048.605, 11.81806
1049.087, 12.01294
1049.569, 12.08713
1050.052, 11.86699
1050.534, 11.69066
1051.016, 11.77147
1051.498, 11.93494
1051.980, 11.98513
1052.462, 11.92630
1052.944, 11.86936
1053.426, 11.79962
1053.908, 11.80223
1054.391, 12.00568
1054.873, 12.15967
1055.355, 12.07347
1055.837, 11.91460
1056.319, 11.89349
1056.801, 11.99325
1057.283, 12.03359
1057.765, 11.94460
1058.248, 11.86056
1058.730, 11.87026
1059.212, 11.83842
1059.694, 11.60151
1060.176, 11.34364
1060.658, 11.31490
1061.140, 11.47505
1061.622, 11.55573
1062.104, 11.45000
1062.587, 11.36077
1063.069, 11.40684
1063.551, 11.43789
1064.033, 11.29328
1064.515, 11.13728
1064.997, 11.18303
1065.479, 11.40043
1065.961, 11.61364
1066.443, 11.79491
1066.926, 11.88488
1067.408, 11.80844
1067.890, 11.69182
1068.372, 11.58765
1068.854, 11.50041
1069.336, 11.42148
1069.818, 11.35989
1070.300, 11.36083
1070.782, 11.46679
1071.265, 11.48710
1071.747, 11.17093
1072.229, 10.93733
1072.711, 11.17044
1073.193, 11.51925
1073.675, 11.58750
1074.157, 11.42151
1074.639, 11.26214
1075.122, 11.17018
1075.604, 11.13611
1076.086, 11.21065
1076.568, 11.27630
1077.050, 11.25057
1077.532, 11.19215
1078.014, 11.15683
1078.496, 11.14411
1078.979, 11.12506
1079.461, 11.08921
1079.943, 11.10598
1080.425, 11.27994
1080.907, 11.42550
1081.389, 11.38473
1081.871, 11.31446
1082.353, 11.36615
1082.835, 11.50966
1083.318, 11.66565
1083.800, 11.81471
1084.282, 11.92380
1084.764, 11.95459
1085.246, 11.97269
1085.728, 12.04229
1086.210, 12.08435
1086.692, 12.00276
1087.175, 11.85405
1087.657, 11.74157
1088.139, 11.68398
1088.621, 11.64254
1089.103, 11.65693
1089.585, 11.60705
1090.067, 11.38947
1090.549, 11.13881
1091.031, 10.88670
1091.514, 10.70951
1091.996, 10.76073
1092.478, 11.02150
1092.960, 11.20678
1093.442, 11.20353
1093.924, 11.14553
1094.406, 11.05736
1094.888, 10.95774
1095.370, 10.76760
1095.853, 10.63229
1096.335, 10.84204
1096.817, 11.31036
1097.299, 11.49448
1097.781, 11.10554
1098.263, 10.80220
1098.745, 10.87453
1099.227, 10.98802
1099.709, 10.90987
1100.192, 10.82747
1100.674, 11.04083
1101.156, 11.43233
1101.638, 11.53771
1102.120, 11.16887
1102.602, 10.89897
1103.084, 10.91977
1103.566, 10.99618
1104.049, 11.11882
1104.531, 11.18367
1105.013, 11.03917
1105.495, 10.78582
1105.977, 10.66863
1106.459, 10.73298
1106.941, 10.81876
1107.423, 10.95368
1107.906, 11.03172
1108.388, 11.00577
1108.870, 10.93369
1109.352, 10.79648
1109.834, 10.66386
1110.316, 10.68923
1110.798, 10.89294
1111.280, 10.96130
1111.762, 10.72308
1112.245, 10.57045
1112.727, 10.63431
1113.209, 10.69802
1113.691, 10.57394
1114.173, 10.44376
1114.655, 10.63252
1115.137, 11.09635
1115.619, 11.22661
1116.102, 10.70955
1116.584, 10.41387
1117.066, 10.43431
1117.548, 10.55769
1118.030, 10.81637
1118.512, 11.03442
1118.994, 11.02062
1119.476, 10.83001
1119.958, 10.67127
1120.441, 10.49169
1120.923, 10.54044
1121.405, 11.02703
1121.887, 11.25603
1122.369, 10.88914
1122.851, 10.52288
1123.333, 10.63838
1123.815, 11.01732
1124.297, 11.17715
1124.780, 11.10178
1125.262, 10.99761
1125.744, 10.82552
1126.226, 10.79896
1126.708, 11.01999
1127.190, 11.16259
1127.672, 11.02517
1128.154, 10.76584
1128.636, 10.60617
1129.119, 10.53940
1129.601, 10.52118
1130.083, 10.55794
1130.565, 10.56462
1131.047, 10.52768
1131.529, 10.51558
1132.011, 10.56203
1132.493, 10.59391
1132.976, 10.52849
1133.458, 10.41028
1133.940, 10.38886
1134.422, 10.45010
1134.904, 10.35901
1135.386, 10.12224
1135.868, 10.13954
1136.350, 10.51185
1136.833, 10.80932
1137.315, 10.72064
1137.797, 10.43558
1138.279, 10.22091
1138.761, 10.08626
1139.243, 10.08299
1139.725, 10.19322
1140.207, 10.37819
1140.689, 10.60730
1141.172, 10.75552
1141.654, 10.76429
1142.136, 10.69036
1142.618, 10.54353
1143.100, 10.40932
1143.582, 10.48349
1144.064, 10.65873
1144.546, 10.69131
1145.029, 10.61222
1145.511, 10.60950
1145.993, 10.72609
1146.475, 10.82229
1146.957, 10.80927
1147.439, 10.72267
1147.921, 10.50108
1148.403, 10.30608
1148.885, 10.40064
1149.368, 10.63664
1149.850, 10.75553
1150.332, 10.72685
1150.814, 10.63775
1151.296, 10.50959
1151.778, 10.41265
1152.260, 10.34892
1152.742, 10.37793
1153.224, 10.65320
1153.707, 10.95071
1154.189, 11.00997
1154.671, 10.90148
1155.153, 10.82964
1155.635, 10.83585
1156.117, 10.83758
1156.599, 10.80594
1157.081, 10.77019
1157.563, 10.73121
1158.046, 10.69976
1158.528, 10.69455
1159.010, 10.69332
1159.492, 10.65451
1159.974, 10.58537
1160.456, 10.55768
1160.938, 10.58078
1161.420, 10.63922
1161.903, 10.79637
1162.385, 10.89767
1162.867, 10.89780
1163.349, 10.82757
1163.831, 10.66474
1164.313, 10.47467
1164.795, 10.42402
1165.277, 10.52884
1165.760, 10.64610
1166.242, 10.80332
1166.724, 10.87850
1167.206, 10.83271
1167.688, 10.76239
1168.170, 10.70444
1168.652, 10.68813
1169.134, 10.77649
1169.616, 10.91686
1170.099, 10.80406
1170.581, 10.43247
1171.063, 10.31145
1171.545, 10.47340
1172.027, 10.66475
1172.509, 10.81086
1172.991, 10.84177
1173.473, 10.68575
1173.956, 10.49479
1174.438, 10.57026
1174.920, 10.81537
1175.402, 10.91980
1175.884, 10.91016
1176.366, 10.90403
1176.848, 10.90550
1177.330, 10.79934
1177.813, 10.54445
1178.295, 10.35314
1178.777, 10.47401
1179.259, 10.33478
1179.741, 10.57807
1180.223, 10.40475
1180.705, 10.43413
1181.187, 10.60357
1181.669, 10.76108
1182.151, 10.86302
1182.634, 10.90231
1183.116, 10.87493
1183.598, 10.78592
1184.080, 10.57615
1184.562, 10.37767
1185.044, 10.21869
1185.526, 10.16597
1186.008, 10.40351
1186.490, 10.76755
1186.973, 10.84964
1187.455, 10.56535
1187.937, 10.33921
1188.419, 10.23291
1188.901, 10.22243
1189.383, 10.33504
1189.865, 10.50446
1190.347, 10.79663
1190.830, 11.04921
1191.312, 11.04017
1191.794, 10.83645
1192.276, 10.78173
1192.758, 10.96227
1193.240, 10.99041
1193.722, 10.81670
1194.204, 10.62358
1194.687, 10.41983
1195.169, 10.32085
1195.651, 10.42312
1196.133, 10.60624
1196.615, 10.68066
1197.097, 10.66114
1197.579, 10.63678
1198.061, 10.60672
1198.543, 10.54220
1199.026, 10.44606
1199.508, 10.40814
1199.990, 10.45652
1200.472, 10.51845
1200.954, 10.53166
1201.436, 10.54931
1201.918, 10.68093
1202.400, 10.85864
1202.883, 10.95305
1203.365, 10.97764
1203.847, 10.93600
1204.329, 10.86632
1204.811, 10.89435
1205.293, 11.06139
1205.775, 11.20511
1206.257, 11.19045
1206.740, 11.14661
1207.222, 11.17309
1207.704, 11.20695
1208.186, 11.21548
1208.668, 11.17816
1209.150, 11.01311
1209.632, 10.76982
1210.114, 10.69810
1210.596, 10.90991
1211.078, 11.10602
1211.561, 11.23632
1212.043, 11.33277
1212.525, 11.38934
1213.007, 11.43186
1213.489, 11.49198
1213.971, 11.53539
1214.453, 11.47623
1214.935, 11.32915
1215.417, 11.39054
1215.900, 11.76304
1216.382, 11.93141
1216.864, 11.81033
1217.346, 11.74429
1217.828, 11.84906
1218.310, 11.98931
1218.792, 12.06065
1219.274, 12.11393
1219.757, 12.26256
1220.239, 12.47338
1220.721, 12.63105
1221.203, 12.70952
1221.685, 12.48083
1222.167, 12.00586
1222.649, 11.77106
1223.131, 11.92555
1223.614, 12.11994
1224.096, 12.10739
1224.578, 11.96631
1225.060, 11.67954
1225.542, 11.40497
1226.024, 11.35829
1226.506, 11.44125
1226.988, 11.51560
1227.470, 11.55928
1227.953, 11.59874
1228.435, 11.64346
1228.917, 11.60364
1229.399, 11.32151
1229.881, 11.12745
1230.363, 11.21513
1230.845, 11.32238
1231.327, 11.32385
1231.810, 11.24015
1232.292, 11.05281
1232.774, 10.80641
1233.256, 10.67616
1233.738, 10.68210
1234.220, 10.71797
1234.702, 10.77813
1235.184, 10.90017
1235.667, 11.12211
1236.149, 11.28733
1236.631, 11.31831
1237.113, 11.23410
1237.595, 11.03682
1238.077, 10.77719
1238.559, 10.59432
1239.041, 10.48416
1239.523, 10.42853
1240.005, 10.42328
1240.488, 10.46019
1240.970, 10.53531
1241.452, 10.63951
1241.934, 10.76919
1242.416, 10.92878
1242.898, 11.22693
1243.380, 11.43755
1243.862, 11.25888
1244.344, 10.93345
1244.827, 10.65392
1245.309, 10.47476
1245.791, 10.49165
1246.273, 10.66519
1246.755, 10.76108
1247.237, 10.67999
1247.719, 10.65941
1248.201, 10.87239
1248.684, 10.98470
1249.166, 10.76923
1249.648, 10.57575
1250.130, 10.61465
1250.612, 10.77333
1251.094, 10.91895
1251.576, 11.04710
1252.058, 11.12819
1252.541, 11.16139
1253.023, 11.15094
1253.505, 11.09517
1253.987, 11.00505
1254.469, 10.88176
1254.951, 10.79094
1255.433, 10.77298
1255.915, 10.75126
1256.397, 10.59085
1256.880, 10.42212
1257.362, 10.55998
1257.844, 10.84763
1258.326, 10.98107
1258.808, 10.99119
1259.290, 11.02488
1259.772, 11.08988
1260.254, 11.06896
1260.737, 10.90392
1261.219, 10.73823
1261.701, 10.66425
1262.183, 10.58593
1262.665, 10.35384
1263.147, 10.20884
1263.629, 10.44648
1264.111, 10.80256
1264.594, 10.88050
1265.076, 10.71996
1265.558, 10.62168
1266.040, 10.60983
1266.522, 10.56495
1267.004, 10.45871
1267.486, 10.43034
1267.968, 10.52673
1268.450, 10.60208
1268.932, 10.58022
1269.415, 10.51675
1269.897, 10.46745
1270.379, 10.43701
1270.861, 10.42666
1271.343, 10.44694
1271.825, 10.57872
1272.307, 10.75984
1272.789, 10.78018
1273.271, 10.64627
1273.754, 10.52165
1274.236, 10.47007
1274.718, 10.50377
1275.200, 10.73702
1275.682, 10.89800
1276.164, 10.66653
1276.646, 10.48188
1277.128, 10.84502
1277.611, 11.28616
1278.093, 11.17269
1278.575, 10.66905
1279.057, 10.42011
1279.539, 10.48678
1280.021, 10.46632
1280.503, 10.29143
1280.985, 10.21716
1281.468, 10.28367
1281.950, 10.42649
1282.432, 10.64329
1282.914, 10.79668
1283.396, 10.75726
1283.878, 10.65308
1284.360, 10.76631
1284.842, 10.98425
1285.324, 10.99141
##END=



