##NAMES=Calaverite
##RRUFFID=R070164
##IDEAL CHEMISTRY=AuTe_2_
##LOCALITY=Vindicator mine, Cripple Creek, Teller County, Colorado, USA
##OWNER=RRUFF
##SOURCE=Michael Scott
##DESCRIPTION=Loose pale gold colored metallic fragments associated with quartz, used to define ICDD pattern
##STATUS=The identification of this mineral is confirmed by single-crystal X-ray diffraction and chemical analysis.
##URL=rruff.info/R070164
##MEASURED CHEMISTRY=(Au_0.90_Ag_0.10_)_Î£=1_Te_2.00_
128.0043, 672.9348
128.4864, 682.6271
128.9685, 697.0839
129.4506, 715.3234
129.9327, 738.7458
130.4148, 766.8268
130.8969, 791.8494
131.3791, 805.5293
131.8612, 810.0563
132.3433, 820.3867
132.8254, 839.6509
133.3075, 864.8624
133.7896, 888.4581
134.2718, 909.9500
134.7539, 931.3199
135.2360, 952.9330
135.7181, 974.0015
136.2002, 1001.057
136.6823, 1038.412
137.1645, 1084.868
137.6466, 1122.327
138.1287, 1149.611
138.6108, 1170.514
139.0929, 1190.060
139.5750, 1209.461
140.0572, 1223.749
140.5393, 1230.271
141.0214, 1226.937
141.5035, 1224.844
141.9856, 1222.711
142.4677, 1222.395
142.9499, 1229.002
143.4320, 1247.071
143.9141, 1265.193
144.3962, 1276.568
144.8783, 1270.526
145.3604, 1277.878
145.8425, 1307.809
146.3247, 1355.521
146.8068, 1388.574
147.2889, 1394.906
147.7710, 1395.309
148.2531, 1403.637
148.7352, 1429.244
149.2174, 1451.926
149.6995, 1466.898
150.1816, 1472.687
150.6637, 1484.670
151.1458, 1515.018
151.6279, 1546.663
152.1101, 1563.673
152.5922, 1543.730
153.0743, 1528.269
153.5564, 1531.457
154.0385, 1563.970
154.5206, 1583.457
155.0028, 1580.409
155.4849, 1561.057
155.9670, 1535.924
156.4491, 1500.051
156.9312, 1464.123
157.4133, 1433.200
157.8955, 1411.224
158.3776, 1389.035
158.8597, 1366.808
159.3418, 1342.922
159.8239, 1312.369
160.3060, 1265.772
160.7882, 1215.849
161.2703, 1171.382
161.7524, 1135.402
162.2345, 1104.603
162.7166, 1079.930
163.1987, 1060.636
163.6808, 1040.618
164.1630, 1014.511
164.6451, 986.7885
165.1272, 962.2592
165.6093, 941.4323
166.0914, 925.2252
166.5735, 914.7674
167.0557, 910.2352
167.5378, 909.1237
168.0199, 913.8403
168.5020, 920.6160
168.9841, 923.1055
169.4662, 915.1949
169.9484, 903.2966
170.4305, 893.4548
170.9126, 886.8951
171.3947, 879.9942
171.8768, 869.3791
172.3589, 855.8894
172.8411, 842.2234
173.3232, 829.5059
173.8053, 817.5060
174.2874, 805.2672
174.7695, 791.3410
175.2516, 779.7846
175.7338, 777.5375
176.2159, 783.1522
176.6980, 787.8840
177.1801, 784.3879
177.6622, 775.7067
178.1443, 768.1626
178.6264, 763.7779
179.1086, 760.8575
179.5907, 755.8185
180.0728, 748.7617
180.5549, 743.8577
181.0370, 747.3770
181.5191, 756.5684
182.0013, 762.6785
182.4834, 761.2371
182.9655, 754.9904
183.4476, 749.4616
183.9297, 744.5609
184.4118, 741.3234
184.8940, 741.9166
185.3761, 745.7751
185.8582, 749.2577
186.3403, 751.6636
186.8224, 752.6105
187.3046, 749.5652
187.7867, 741.3317
188.2688, 732.5421
188.7509, 730.7999
189.2330, 735.8983
189.7151, 741.5417
190.1973, 745.2549
190.6794, 746.9539
191.1615, 745.4688
191.6436, 739.4923
192.1257, 732.1772
192.6078, 731.2327
193.0900, 737.2123
193.5721, 742.1634
194.0542, 739.2914
194.5363, 728.9008
195.0184, 721.3950
195.5005, 718.3593
195.9826, 718.9808
196.4648, 721.8645
196.9469, 727.5777
197.4290, 732.5713
197.9111, 732.5686
198.3932, 726.9271
198.8753, 725.5541
199.3575, 732.5401
199.8396, 745.3277
200.3217, 749.3694
200.8038, 742.7128
201.2859, 732.9451
201.7680, 726.6378
202.2502, 723.7859
202.7323, 724.4335
203.2144, 730.4122
203.6965, 741.1869
204.1786, 745.9004
204.6607, 743.4411
205.1429, 736.9149
205.6250, 728.9212
206.1071, 718.5378
206.5892, 710.7026
207.0713, 707.0915
207.5534, 707.8736
208.0356, 710.8921
208.5177, 717.2235
208.9998, 724.5104
209.4819, 729.1954
209.9640, 730.7970
210.4461, 731.1447
210.9282, 730.8861
211.4104, 730.0891
211.8925, 728.3742
212.3746, 725.7256
212.8567, 722.1520
213.3388, 717.0071
213.8209, 708.5981
214.3031, 702.3206
214.7852, 702.1280
215.2673, 712.1153
215.7494, 714.1265
216.2315, 703.4751
216.7136, 685.9282
217.1958, 679.2783
217.6779, 688.3998
218.1600, 699.5854
218.6421, 705.5495
219.1242, 704.3055
219.6063, 702.8613
220.0885, 700.8170
220.5706, 698.8715
221.0527, 700.8998
221.5348, 710.6852
222.0169, 718.8839
222.4990, 718.7327
222.9812, 705.6948
223.4633, 694.6791
223.9454, 686.5380
224.4275, 681.4354
224.9096, 682.2902
225.3917, 694.0062
225.8739, 705.5306
226.3560, 707.4276
226.8381, 692.9146
227.3202, 683.1075
227.8023, 682.8617
228.2844, 691.6989
228.7665, 695.2558
229.2487, 690.5991
229.7308, 683.7474
230.2129, 679.8664
230.6950, 680.0621
231.1771, 681.2089
231.6592, 682.7602
232.1414, 684.6843
232.6235, 687.9932
233.1056, 694.3092
233.5877, 700.4683
234.0698, 702.4006
234.5519, 696.0903
235.0341, 692.9351
235.5162, 697.2920
235.9983, 710.9001
236.4804, 716.5464
236.9625, 710.8318
237.4446, 699.8146
237.9268, 690.1066
238.4089, 679.9036
238.8910, 674.0054
239.3731, 674.9757
239.8552, 684.8363
240.3373, 690.6447
240.8195, 691.1088
241.3016, 688.3765
241.7837, 685.0377
242.2658, 679.2941
242.7479, 675.9594
243.2300, 676.7870
243.7122, 682.7700
244.1943, 689.0687
244.6764, 696.8035
245.1585, 704.1855
245.6406, 708.1272
246.1227, 706.7033
246.6048, 705.0370
247.0870, 705.5002
247.5691, 710.2815
248.0512, 709.2813
248.5333, 698.0816
249.0154, 683.3011
249.4975, 678.1117
249.9797, 688.3090
250.4618, 698.2610
250.9439, 701.6619
251.4260, 695.3610
251.9081, 691.8260
252.3902, 692.1642
252.8724, 694.7546
253.3545, 696.0560
253.8366, 695.7532
254.3187, 694.7191
254.8008, 692.8016
255.2829, 688.4335
255.7651, 687.7756
256.2472, 692.5773
256.7293, 700.3701
257.2114, 705.3201
257.6935, 707.3317
258.1756, 706.6874
258.6577, 701.8981
259.1399, 688.3187
259.6220, 684.8955
260.1041, 696.4343
260.5862, 716.4989
261.0683, 727.3595
261.5504, 726.0825
262.0326, 721.4816
262.5147, 717.1514
262.9968, 712.5845
263.4789, 710.5030
263.9610, 712.5322
264.4431, 716.4649
264.9253, 715.4449
265.4074, 707.3131
265.8895, 699.1226
266.3716, 694.8505
266.8537, 695.7394
267.3358, 695.6663
267.8180, 694.0135
268.3001, 691.3740
268.7822, 689.1125
269.2643, 686.9536
269.7464, 685.9248
270.2285, 686.6054
270.7107, 689.1174
271.1928, 693.3027
271.6749, 700.7272
272.1570, 708.8599
272.6391, 708.6958
273.1212, 697.3363
273.6034, 687.1237
274.0855, 686.4848
274.5676, 696.8920
275.0497, 705.2613
275.5318, 710.8605
276.0139, 713.6308
276.4961, 712.4978
276.9782, 706.6755
277.4603, 700.2894
277.9424, 695.5859
278.4245, 692.5446
278.9066, 691.4700
279.3888, 693.4174
279.8709, 696.3100
280.3530, 693.7195
280.8351, 684.6008
281.3172, 676.6883
281.7993, 676.2828
282.2815, 683.1815
282.7636, 687.0510
283.2457, 685.8635
283.7278, 682.5021
284.2099, 684.1208
284.6920, 691.1426
285.1741, 697.6992
285.6563, 700.0370
286.1384, 698.4314
286.6205, 694.6050
287.1026, 687.3119
287.5847, 680.2427
288.0668, 682.1057
288.5490, 692.8831
289.0311, 703.4459
289.5132, 706.2850
289.9953, 703.3497
290.4774, 705.8947
290.9595, 717.5304
291.4417, 729.9146
291.9238, 726.2172
292.4059, 707.7850
292.8880, 690.6381
293.3701, 685.4908
293.8522, 689.5543
294.3344, 694.2977
294.8165, 699.1533
295.2986, 703.6487
295.7807, 706.7911
296.2628, 708.7831
296.7449, 710.7151
297.2271, 713.5464
297.7092, 716.7240
298.1913, 719.3804
298.6734, 721.6259
299.1555, 722.5613
299.6376, 720.8127
300.1198, 716.7272
300.6019, 711.5586
301.0840, 702.1501
301.5661, 693.2535
302.0482, 694.4482
302.5303, 709.1292
303.0125, 723.8373
303.4946, 723.5390
303.9767, 712.4794
304.4588, 702.1553
304.9409, 700.2546
305.4230, 701.6968
305.9052, 700.0355
306.3873, 693.8439
306.8694, 688.9572
307.3515, 691.4568
307.8336, 698.7163
308.3157, 705.5627
308.7979, 711.1543
309.2800, 714.2206
309.7621, 711.9129
310.2442, 702.9068
310.7263, 696.3471
311.2084, 702.5630
311.6906, 714.3416
312.1727, 720.1384
312.6548, 707.8661
313.1369, 693.2717
313.6190, 686.9534
314.1011, 690.2439
314.5833, 695.2194
315.0654, 700.4796
315.5475, 704.6386
316.0296, 705.8642
316.5117, 698.7033
316.9938, 692.5606
317.4760, 692.4993
317.9580, 699.1612
318.4402, 705.7250
318.9223, 709.5905
319.4044, 712.4265
319.8865, 715.8561
320.3686, 724.7207
320.8507, 730.0078
321.3329, 727.2070
321.8150, 716.0082
322.2971, 706.3928
322.7792, 701.8624
323.2613, 698.9073
323.7434, 694.6573
324.2256, 683.5149
324.7077, 676.5446
325.1898, 677.0787
325.6719, 685.0050
326.1540, 692.3419
326.6361, 701.2554
327.1183, 707.8438
327.6004, 709.5448
328.0825, 700.8053
328.5646, 693.9017
329.0467, 690.0731
329.5288, 689.0321
330.0110, 688.7272
330.4931, 689.7206
330.9752, 690.9074
331.4573, 691.5333
331.9394, 690.5192
332.4215, 691.0788
332.9037, 694.7910
333.3858, 700.2473
333.8679, 701.7883
334.3500, 697.5047
334.8321, 692.3832
335.3142, 688.7402
335.7964, 686.4734
336.2785, 686.1774
336.7606, 688.5081
337.2427, 692.4597
337.7248, 695.8987
338.2069, 699.3628
338.6891, 700.6744
339.1712, 698.1066
339.6533, 691.1805
340.1354, 684.5558
340.6175, 677.5203
341.0996, 672.1500
341.5818, 673.1537
342.0639, 681.0884
342.5460, 689.5923
343.0281, 697.8553
343.5102, 705.2991
343.9923, 704.1362
344.4745, 692.3782
344.9566, 678.8170
345.4387, 676.3127
345.9208, 683.8340
346.4029, 691.5190
346.8850, 697.4437
347.3672, 700.4363
347.8493, 693.6174
348.3314, 676.0349
348.8135, 660.5158
349.2956, 664.7882
349.7777, 682.7261
350.2599, 695.4765
350.7419, 693.0006
351.2241, 684.1225
351.7062, 682.9222
352.1883, 688.8934
352.6704, 694.0880
353.1525, 690.7430
353.6346, 682.7014
354.1168, 676.2168
354.5989, 674.4022
355.0810, 673.2319
355.5631, 666.2041
356.0452, 655.3664
356.5273, 650.6287
357.0095, 666.4798
357.4916, 687.3725
357.9737, 696.8929
358.4558, 685.4536
358.9379, 673.1260
359.4200, 672.1366
359.9022, 678.7836
360.3843, 683.3185
360.8664, 678.4503
361.3485, 672.5139
361.8306, 670.6100
362.3127, 674.4540
362.7949, 679.7105
363.2770, 688.0281
363.7591, 696.5540
364.2412, 700.4941
364.7233, 694.5133
365.2054, 687.5023
365.6876, 681.7146
366.1697, 676.2635
366.6518, 675.9835
367.1339, 689.5723
367.6160, 705.5897
368.0981, 710.7060
368.5803, 692.3860
369.0624, 676.9512
369.5445, 669.6030
370.0266, 670.7607
370.5087, 673.4395
370.9908, 680.1161
371.4730, 686.0987
371.9551, 686.6544
372.4372, 676.5927
372.9193, 672.1451
373.4014, 677.6172
373.8835, 691.0070
374.3657, 700.8534
374.8478, 707.5929
375.3299, 709.6718
375.8120, 703.8022
376.2941, 687.7847
376.7762, 677.5959
377.2584, 675.4955
377.7405, 679.5270
378.2226, 686.0278
378.7047, 695.4620
379.1868, 704.0311
379.6689, 710.6281
380.1511, 714.9677
380.6332, 713.7787
381.1153, 705.5591
381.5974, 695.7349
382.0795, 694.8438
382.5616, 701.0937
383.0438, 702.8528
383.5259, 689.3187
384.0080, 668.4343
384.4901, 658.1518
384.9722, 659.0961
385.4543, 664.2563
385.9364, 668.6220
386.4185, 672.2793
386.9007, 675.4150
387.3828, 677.3250
387.8649, 679.3538
388.3470, 683.3016
388.8291, 688.9216
389.3112, 694.2949
389.7934, 698.8407
390.2755, 702.1094
390.7576, 703.5906
391.2397, 703.0189
391.7218, 700.8437
392.2039, 695.7089
392.6861, 688.8513
393.1682, 684.1071
393.6503, 684.6622
394.1324, 686.5532
394.6145, 687.0179
395.0966, 683.4297
395.5788, 683.5314
396.0609, 694.7901
396.5430, 709.8972
397.0251, 716.5419
397.5072, 702.6088
397.9893, 689.8514
398.4715, 684.7957
398.9536, 689.0129
399.4357, 693.7977
399.9178, 701.9490
400.3999, 708.8862
400.8820, 709.4662
401.3642, 697.7344
401.8463, 690.0870
402.3284, 691.0345
402.8105, 699.5175
403.2926, 702.3251
403.7747, 696.6511
404.2569, 690.4593
404.7390, 690.1322
405.2211, 697.0042
405.7032, 702.5438
406.1853, 705.5847
406.6674, 707.2144
407.1496, 711.4363
407.6317, 718.9254
408.1138, 722.4673
408.5959, 714.3362
409.0780, 697.1382
409.5602, 688.5400
410.0423, 690.5413
410.5244, 697.3424
411.0065, 703.8631
411.4886, 709.5788
411.9707, 712.0299
412.4529, 706.0341
412.9350, 697.5614
413.4171, 698.3184
413.8992, 708.1318
414.3813, 717.4744
414.8634, 716.5637
415.3456, 710.9976
415.8277, 709.3625
416.3098, 717.9784
416.7919, 726.9419
417.2740, 728.6400
417.7561, 724.4512
418.2382, 720.1522
418.7203, 718.9306
419.2025, 718.3340
419.6846, 716.1126
420.1667, 709.6508
420.6488, 706.6407
421.1309, 712.7947
421.6130, 723.4050
422.0952, 730.3190
422.5773, 728.0077
423.0594, 725.3981
423.5415, 726.3338
424.0236, 732.7835
424.5057, 733.6215
424.9879, 721.8676
425.4700, 708.7846
425.9521, 704.9375
426.4342, 717.4759
426.9163, 726.9738
427.3984, 730.3455
427.8806, 728.2527
428.3627, 724.6508
428.8448, 718.6249
429.3269, 713.0198
429.8090, 710.6089
430.2911, 712.2313
430.7733, 709.0373
431.2554, 697.9056
431.7375, 685.5303
432.2196, 686.3315
432.7017, 700.6392
433.1838, 714.5429
433.6660, 720.6517
434.1481, 720.8879
434.6302, 722.3300
435.1123, 725.2834
435.5944, 727.1178
436.0765, 723.3968
436.5587, 716.3587
437.0408, 711.6911
437.5229, 711.9260
438.0050, 714.8497
438.4871, 720.0132
438.9692, 726.6302
439.4514, 730.3573
439.9335, 726.6316
440.4156, 719.7117
440.8977, 713.0774
441.3798, 706.3777
441.8619, 702.5873
442.3441, 705.1720
442.8262, 711.4492
443.3083, 716.4455
443.7904, 715.4437
444.2725, 715.6359
444.7546, 721.3002
445.2368, 734.2560
445.7189, 742.8098
446.2010, 744.7366
446.6831, 742.0891
447.1652, 736.2960
447.6473, 720.1964
448.1295, 711.4293
448.6116, 715.1607
449.0937, 728.6423
449.5758, 736.5453
450.0579, 737.2619
450.5400, 735.4244
451.0221, 732.2607
451.5042, 726.6792
451.9864, 727.5692
452.4685, 737.8052
452.9506, 750.4667
453.4327, 752.3886
453.9148, 743.4133
454.3969, 736.9000
454.8791, 740.1257
455.3612, 749.7299
455.8433, 755.0535
456.3254, 755.9764
456.8075, 754.4099
457.2896, 750.5113
457.7718, 745.4903
458.2539, 742.2017
458.7360, 741.8013
459.2181, 742.6080
459.7002, 741.9999
460.1823, 740.9550
460.6645, 742.6407
461.1466, 757.1632
461.6287, 769.6227
462.1108, 764.6504
462.5929, 735.3412
463.0750, 714.1315
463.5572, 721.4568
464.0393, 741.6170
464.5214, 756.1752
465.0035, 759.8012
465.4856, 758.2873
465.9677, 748.5391
466.4499, 731.3467
466.9320, 724.1445
467.4141, 736.2412
467.8962, 750.3089
468.3783, 756.9064
468.8604, 751.6049
469.3426, 748.2816
469.8247, 747.9473
470.3068, 749.0980
470.7889, 749.0142
471.2710, 747.8251
471.7531, 744.7248
472.2353, 737.4891
472.7174, 727.1024
473.1995, 725.3660
473.6816, 733.3687
474.1637, 743.2360
474.6458, 747.3811
475.1280, 746.5753
475.6101, 744.1298
476.0922, 739.8708
476.5743, 735.7532
477.0564, 736.4313
477.5385, 740.4581
478.0207, 741.6233
478.5028, 729.7882
478.9849, 716.7175
479.4670, 716.7233
479.9491, 732.8371
480.4312, 749.1028
480.9134, 758.6882
481.3955, 762.0327
481.8776, 759.5463
482.3597, 740.3486
482.8418, 726.4807
483.3239, 728.2991
483.8060, 743.6355
484.2881, 755.8036
484.7703, 762.9353
485.2524, 765.3773
485.7345, 762.5778
486.2166, 749.1299
486.6987, 741.8055
487.1808, 742.9711
487.6630, 748.6668
488.1451, 753.0878
488.6272, 756.3015
489.1093, 757.9391
489.5914, 757.8334
490.0735, 756.0558
490.5557, 751.9221
491.0378, 744.6146
491.5199, 739.5752
492.0020, 743.1129
492.4841, 753.6661
492.9662, 761.7227
493.4484, 765.5815
493.9305, 767.4866
494.4126, 771.1128
494.8947, 775.5126
495.3768, 777.3337
495.8589, 771.2469
496.3411, 763.9019
496.8232, 764.2833
497.3053, 772.3837
497.7874, 777.3788
498.2695, 767.2217
498.7516, 753.6072
499.2338, 747.8390
499.7159, 761.7310
500.1980, 771.7967
500.6801, 766.1040
501.1622, 751.3227
501.6443, 744.1513
502.1265, 757.0883
502.6086, 768.2427
503.0907, 769.6023
503.5728, 758.6052
504.0549, 753.1827
504.5370, 755.4379
505.0192, 760.9143
505.5013, 766.0903
505.9834, 771.4523
506.4655, 773.9976
506.9476, 771.7640
507.4297, 767.7076
507.9119, 771.4232
508.3940, 783.4584
508.8761, 793.4504
509.3582, 795.0780
509.8403, 790.2178
510.3224, 783.5255
510.8046, 774.8462
511.2867, 767.8959
511.7688, 767.1122
512.2509, 770.4304
512.7330, 773.9777
513.2151, 776.7158
513.6973, 779.0618
514.1794, 780.9612
514.6615, 782.6501
515.1436, 784.8906
515.6257, 793.6559
516.1078, 798.7505
516.5900, 791.6136
517.0721, 766.6653
517.5542, 749.6439
518.0363, 749.3250
518.5184, 756.6223
519.0005, 762.3669
519.4827, 765.2498
519.9648, 768.6736
520.4469, 774.1588
520.9290, 780.3845
521.4111, 781.2864
521.8932, 774.8489
522.3754, 768.6199
522.8575, 766.6063
523.3396, 768.7960
523.8217, 771.5095
524.3038, 774.9603
524.7859, 778.0991
525.2681, 779.0820
525.7502, 778.5975
526.2323, 779.8133
526.7144, 784.9600
527.1965, 790.4744
527.6786, 791.0244
528.1608, 787.6553
528.6429, 784.3165
529.1250, 783.5731
529.6071, 783.6363
530.0892, 782.8238
530.5714, 780.7201
531.0535, 779.5331
531.5356, 782.0142
532.0176, 785.0270
532.4998, 785.4783
532.9819, 778.8530
533.4640, 774.2635
533.9461, 773.3359
534.4282, 775.3819
534.9103, 778.3629
535.3925, 783.5820
535.8746, 787.6940
536.3567, 788.4150
536.8388, 785.0895
537.3209, 788.0862
537.8030, 800.4989
538.2852, 811.1654
538.7673, 803.6293
539.2494, 779.6736
539.7315, 767.6006
540.2136, 776.3646
540.6957, 794.0441
541.1779, 803.3749
541.6600, 805.1477
542.1421, 802.7657
542.6242, 794.1575
543.1063, 784.5724
543.5884, 779.0295
544.0706, 777.8062
544.5527, 780.6276
545.0348, 794.0303
545.5169, 807.9729
545.9990, 813.0741
546.4811, 798.5607
546.9633, 786.9958
547.4454, 784.1880
547.9275, 787.5917
548.4096, 791.1624
548.8917, 795.6618
549.3738, 798.9996
549.8560, 799.9634
550.3381, 798.5363
550.8202, 800.4709
551.3023, 808.2122
551.7844, 813.7742
552.2665, 809.1385
552.7487, 794.3551
553.2308, 783.0163
553.7129, 776.5721
554.1950, 773.7062
554.6771, 773.3553
555.1592, 775.1628
555.6414, 777.5663
556.1235, 778.8792
556.6056, 781.1190
557.0877, 788.0859
557.5698, 798.8951
558.0519, 807.9357
558.5341, 812.9318
559.0162, 814.2733
559.4983, 811.5688
559.9804, 803.3775
560.4625, 795.5622
560.9446, 786.5197
561.4268, 779.8446
561.9089, 780.1183
562.3910, 796.8076
562.8731, 807.8112
563.3552, 808.2827
563.8373, 800.7516
564.3195, 795.4836
564.8016, 791.8327
565.2837, 792.3595
565.7658, 801.0580
566.2479, 817.5323
566.7300, 825.4551
567.2122, 823.7900
567.6943, 818.8016
568.1764, 816.2218
568.6585, 815.5224
569.1406, 815.2103
569.6227, 814.8851
570.1049, 814.8929
570.5870, 815.8360
571.0691, 817.4040
571.5512, 818.8792
572.0333, 819.7822
572.5154, 820.6016
572.9976, 822.6367
573.4797, 825.8966
573.9618, 825.6760
574.4439, 813.1680
574.9260, 802.2592
575.4081, 802.3932
575.8903, 823.4902
576.3724, 836.9667
576.8545, 841.4676
577.3366, 839.4521
577.8187, 832.3091
578.3008, 817.4393
578.7830, 810.5104
579.2651, 819.0740
579.7472, 836.3867
580.2293, 840.4214
580.7114, 831.5605
581.1935, 821.0284
581.6757, 814.2291
582.1578, 811.3170
582.6399, 814.7383
583.1220, 825.1418
583.6041, 833.1970
584.0862, 828.6451
584.5684, 818.8915
585.0505, 812.7253
585.5326, 814.4720
586.0147, 817.6302
586.4968, 820.8880
586.9789, 823.9704
587.4611, 826.3041
587.9432, 824.4333
588.4253, 825.7302
588.9074, 834.6638
589.3895, 851.0132
589.8716, 855.5153
590.3538, 842.5197
590.8359, 829.7408
591.3180, 831.5382
591.8001, 847.9357
592.2822, 857.0356
592.7643, 856.4970
593.2465, 852.1425
593.7286, 849.8038
594.2107, 849.6094
594.6928, 852.4800
595.1749, 862.6065
595.6570, 871.2830
596.1392, 868.4725
596.6213, 856.6019
597.1034, 843.8572
597.5854, 827.6650
598.0676, 816.8043
598.5497, 819.2888
599.0318, 837.5056
599.5139, 850.3464
599.9960, 849.1188
600.4781, 845.3478
600.9603, 846.9656
601.4424, 859.3810
601.9245, 864.8979
602.4066, 860.8826
602.8887, 851.9397
603.3708, 844.3453
603.8530, 837.9847
604.3351, 835.7860
604.8172, 840.4634
605.2993, 848.4992
605.7814, 851.6900
606.2635, 850.4295
606.7457, 847.6783
607.2278, 844.5060
607.7099, 841.3116
608.1920, 838.2147
608.6741, 835.1199
609.1563, 833.6524
609.6384, 835.8426
610.1205, 839.4380
610.6026, 842.4702
611.0847, 844.7385
611.5668, 846.2129
612.0490, 846.4135
612.5311, 845.9692
613.0132, 845.7177
613.4953, 845.0731
613.9774, 846.1203
614.4595, 850.7025
614.9417, 857.2828
615.4238, 855.9684
615.9059, 845.6373
616.3880, 838.3464
616.8701, 844.9724
617.3522, 860.4738
617.8344, 869.5261
618.3165, 871.3917
618.7986, 870.1798
619.2807, 867.6790
619.7628, 864.7903
620.2449, 862.7468
620.7271, 862.2414
621.2092, 861.8635
621.6913, 860.7780
622.1734, 859.4543
622.6555, 858.6796
623.1376, 859.3071
623.6198, 859.6261
624.1019, 858.1603
624.5840, 855.7485
625.0661, 858.0967
625.5482, 867.0741
626.0303, 876.4423
626.5125, 885.1232
626.9946, 892.7741
627.4767, 888.2251
627.9588, 869.5942
628.4409, 853.0569
628.9230, 858.3774
629.4052, 877.1591
629.8873, 890.4866
630.3694, 894.0298
630.8515, 893.2411
631.3336, 890.5417
631.8157, 886.9058
632.2979, 883.8954
632.7800, 881.9273
633.2621, 880.7903
633.7442, 880.1391
634.2263, 880.1848
634.7084, 882.3582
635.1906, 892.0031
635.6727, 896.4661
636.1548, 888.3381
636.6369, 866.9016
637.1190, 859.1527
637.6011, 868.1261
638.0833, 880.2545
638.5654, 883.5717
639.0475, 879.8917
639.5296, 879.0405
640.0117, 882.5408
640.4938, 886.9011
640.9760, 886.5414
641.4581, 884.7558
641.9402, 887.9084
642.4223, 907.1317
642.9044, 920.8947
643.3865, 910.2822
643.8687, 885.5864
644.3508, 872.6405
644.8329, 893.3511
645.3150, 910.1195
645.7971, 909.8087
646.2792, 893.2042
646.7614, 885.4058
647.2435, 889.9127
647.7256, 895.7757
648.2077, 895.8113
648.6898, 890.1006
649.1719, 886.8049
649.6541, 886.1213
650.1362, 887.4106
650.6183, 891.0659
651.1004, 896.0937
651.5825, 900.7381
652.0646, 905.8762
652.5468, 907.3107
653.0289, 897.1141
653.5110, 881.9098
653.9931, 872.7891
654.4752, 877.6429
654.9573, 884.3560
655.4395, 889.0794
655.9216, 892.4866
656.4037, 899.0746
656.8858, 914.3632
657.3679, 923.6763
657.8500, 919.0939
658.3322, 901.3088
658.8143, 890.9286
659.2964, 888.6765
659.7785, 889.5093
660.2606, 889.1815
660.7427, 888.6912
661.2249, 891.6733
661.7070, 898.9882
662.1891, 906.3968
662.6712, 909.2093
663.1533, 910.1459
663.6354, 913.2408
664.1175, 925.1928
664.5996, 931.6038
665.0817, 922.7620
665.5638, 905.7559
666.0460, 894.7808
666.5281, 892.3529
667.0102, 893.2516
667.4923, 897.3751
667.9744, 904.0665
668.4565, 910.8232
668.9387, 918.3498
669.4208, 922.3369
669.9029, 918.0695
670.3850, 908.3417
670.8671, 903.3881
671.3492, 903.2062
671.8314, 905.4569
672.3135, 910.9325
672.7956, 916.5150
673.2777, 918.0883
673.7598, 914.0928
674.2419, 910.0148
674.7241, 907.9905
675.2062, 907.1249
675.6883, 906.4942
676.1704, 906.8120
676.6525, 906.1339
677.1346, 903.7662
677.6168, 900.7319
678.0989, 899.1444
678.5810, 899.3085
679.0631, 898.8174
679.5452, 895.8534
680.0273, 892.7690
680.5095, 897.7606
680.9916, 909.3833
681.4737, 917.7914
681.9558, 913.4597
682.4379, 905.6509
682.9200, 903.9443
683.4022, 908.4019
683.8843, 914.0048
684.3664, 920.7302
684.8485, 926.3221
685.3306, 929.7438
685.8127, 931.1713
686.2949, 928.6122
686.7770, 918.4578
687.2591, 908.2337
687.7412, 905.3643
688.2233, 911.0085
688.7054, 914.8761
689.1876, 916.3308
689.6697, 915.0013
690.1518, 908.7709
690.6339, 899.0130
691.1160, 889.9241
691.5981, 879.8267
692.0803, 875.4251
692.5624, 889.9210
693.0445, 914.6429
693.5266, 929.8181
694.0087, 920.3212
694.4908, 908.0761
694.9730, 898.2401
695.4551, 891.8531
695.9372, 894.9879
696.4193, 916.0856
696.9014, 932.2191
697.3835, 931.5200
697.8657, 914.8396
698.3478, 905.2202
698.8299, 903.0268
699.3120, 904.9041
699.7941, 911.0977
700.2762, 918.8170
700.7584, 920.7871
701.2405, 915.5902
701.7226, 911.0226
702.2047, 915.4562
702.6868, 922.3623
703.1689, 924.6099
703.6511, 917.7344
704.1332, 911.1987
704.6153, 905.6662
705.0974, 901.8411
705.5795, 900.8870
706.0616, 903.8535
706.5438, 907.4495
707.0259, 912.3450
707.5080, 916.3153
707.9901, 912.1404
708.4722, 900.5263
708.9543, 892.3221
709.4365, 893.3473
709.9186, 899.1602
710.4007, 904.7152
710.8828, 909.8230
711.3649, 913.8383
711.8470, 915.9236
712.3292, 917.2401
712.8113, 917.7753
713.2934, 917.4597
713.7755, 919.6929
714.2576, 932.1525
714.7397, 938.6787
715.2219, 928.0616
715.7040, 896.6823
716.1861, 881.6694
716.6682, 885.1022
717.1503, 896.9164
717.6324, 911.7605
718.1146, 927.5474
718.5967, 937.8609
719.0788, 941.8639
719.5609, 940.2355
720.0430, 927.7414
720.5251, 912.1809
721.0073, 903.2748
721.4894, 907.1344
721.9715, 912.8900
722.4536, 918.9817
722.9357, 924.9326
723.4178, 930.2328
723.9000, 935.5920
724.3821, 938.7143
724.8642, 939.4791
725.3463, 937.4919
725.8284, 928.5955
726.3105, 913.4086
726.7927, 905.4510
727.2748, 914.2321
727.7569, 930.4241
728.2390, 944.7833
728.7211, 955.6901
729.2032, 956.6274
729.6853, 929.6353
730.1674, 904.4572
730.6495, 900.1818
731.1317, 917.9155
731.6138, 931.9987
732.0959, 941.9982
732.5780, 946.3687
733.0601, 942.6721
733.5422, 930.1226
734.0244, 922.5639
734.5065, 920.4029
734.9886, 920.4520
735.4707, 920.5565
735.9528, 920.6564
736.4349, 920.5779
736.9171, 920.2914
737.3992, 919.9315
737.8813, 917.9404
738.3634, 916.7515
738.8455, 919.6587
739.3276, 932.4940
739.8098, 939.4382
740.2919, 931.5168
740.7740, 919.8632
741.2561, 917.1924
741.7382, 927.9629
742.2203, 932.0543
742.7025, 924.4604
743.1846, 913.5328
743.6667, 914.7308
744.1488, 926.1130
744.6309, 937.3731
745.1130, 946.2082
745.5952, 951.4280
746.0773, 949.2637
746.5594, 942.4802
747.0415, 937.5882
747.5236, 939.3237
748.0057, 940.9244
748.4879, 938.1938
748.9700, 932.8553
749.4521, 933.8380
749.9342, 945.1274
750.4163, 953.9457
750.8984, 955.3519
751.3806, 950.6039
751.8627, 944.9158
752.3448, 938.3805
752.8269, 933.2283
753.3090, 931.6586
753.7911, 932.0299
754.2733, 931.3631
754.7554, 929.8658
755.2375, 931.7541
755.7196, 944.2518
756.2017, 956.7106
756.6838, 962.2263
757.1660, 958.4480
757.6481, 955.9022
758.1302, 955.9564
758.6123, 955.2396
759.0944, 949.4535
759.5765, 938.4638
760.0587, 936.9392
760.5408, 946.7841
761.0229, 957.4091
761.5050, 958.7333
761.9871, 953.6692
762.4692, 945.8070
762.9514, 934.0226
763.4335, 927.1243
763.9156, 937.6861
764.3977, 951.9108
764.8798, 955.5330
765.3619, 932.4985
765.8441, 919.6812
766.3262, 921.3159
766.8083, 929.3186
767.2904, 932.5400
767.7725, 930.6738
768.2546, 930.9148
768.7368, 934.9223
769.2189, 940.7587
769.7010, 948.3198
770.1831, 955.4597
770.6652, 956.9874
771.1473, 946.4186
771.6295, 935.4357
772.1116, 927.1650
772.5937, 923.2594
773.0758, 927.8057
773.5579, 954.0464
774.0400, 970.4151
774.5222, 968.9122
775.0043, 955.4590
775.4864, 946.8304
775.9685, 943.2220
776.4506, 941.4741
776.9327, 940.7902
777.4149, 940.8124
777.8970, 941.6353
778.3791, 942.7760
778.8612, 942.4707
779.3433, 937.6287
779.8254, 933.0583
780.3076, 931.7322
780.7897, 933.3447
781.2718, 934.8925
781.7539, 935.2667
782.2360, 936.8439
782.7181, 941.3188
783.2003, 948.0273
783.6824, 950.1398
784.1645, 947.3903
784.6466, 944.5647
785.1287, 947.0793
785.6108, 950.5232
786.0930, 945.1962
786.5751, 931.8123
787.0572, 920.8395
787.5393, 918.8790
788.0214, 920.6821
788.5035, 923.7721
788.9857, 928.2480
789.4678, 931.3436
789.9499, 932.7144
790.4320, 933.1620
790.9141, 932.3892
791.3962, 930.3881
791.8784, 932.1835
792.3605, 938.0953
792.8426, 944.0081
793.3247, 946.4061
793.8068, 946.6615
794.2889, 946.7761
794.7711, 946.9811
795.2531, 946.9493
795.7352, 947.3700
796.2173, 946.9083
796.6995, 943.5112
797.1816, 933.5895
797.6637, 932.3795
798.1458, 943.4011
798.6279, 957.3091
799.1100, 968.7359
799.5922, 977.0074
800.0743, 968.9669
800.5564, 940.9323
801.0385, 917.6436
801.5206, 933.0840
802.0027, 963.7715
802.4849, 977.1004
802.9670, 961.2301
803.4491, 945.7365
803.9312, 940.5034
804.4133, 940.4764
804.8954, 941.0851
805.3776, 943.6348
805.8597, 942.1332
806.3418, 933.5151
806.8239, 926.7661
807.3060, 936.8424
807.7881, 959.3344
808.2703, 972.8817
808.7524, 972.3182
809.2345, 968.0001
809.7166, 970.2052
810.1987, 973.8633
810.6808, 972.2639
811.1630, 959.0233
811.6451, 948.3654
812.1272, 943.6287
812.6093, 941.6591
813.0914, 938.6105
813.5735, 933.3965
814.0557, 932.7105
814.5378, 937.7107
815.0199, 946.4797
815.5020, 961.6260
815.9841, 978.1938
816.4662, 981.3009
816.9484, 960.5547
817.4305, 940.6284
817.9126, 942.3566
818.3947, 953.3304
818.8768, 957.3729
819.3589, 942.6556
819.8411, 933.0099
820.3232, 928.9451
820.8053, 930.8728
821.2874, 942.9121
821.7695, 965.1293
822.2516, 978.6190
822.7338, 978.7356
823.2159, 971.6906
823.6980, 962.0496
824.1801, 951.6363
824.6622, 943.9974
825.1443, 940.3275
825.6265, 939.3954
826.1086, 942.4866
826.5907, 947.4912
827.0728, 951.1621
827.5549, 953.7157
828.0370, 953.9128
828.5192, 950.3040
829.0013, 946.4184
829.4834, 949.7595
829.9655, 958.6619
830.4476, 964.8133
830.9297, 965.1292
831.4119, 963.9566
831.8940, 965.6530
832.3761, 968.3129
832.8582, 969.0247
833.3403, 963.2818
833.8224, 960.4882
834.3046, 963.5706
834.7867, 968.8209
835.2688, 971.1020
835.7509, 970.4043
836.2330, 966.0353
836.7151, 956.2966
837.1973, 946.8161
837.6794, 946.6868
838.1615, 952.6731
838.6436, 957.4085
839.1257, 957.3248
839.6078, 957.5741
840.0900, 962.5874
840.5721, 968.7355
841.0542, 970.2974
841.5363, 962.6913
842.0184, 959.8606
842.5005, 964.7106
842.9827, 972.3709
843.4648, 976.2604
843.9469, 976.3533
844.4290, 971.4446
844.9111, 959.3994
845.3932, 947.8797
845.8754, 944.8893
846.3575, 946.9117
846.8396, 948.9609
847.3217, 946.2897
847.8038, 948.6880
848.2859, 962.8573
848.7681, 978.7275
849.2502, 983.5744
849.7323, 975.6555
850.2144, 970.2552
850.6965, 970.0620
851.1786, 970.5958
851.6608, 962.0665
852.1429, 950.7215
852.6250, 950.6443
853.1071, 971.1169
853.5892, 987.5140
854.0714, 985.4737
854.5535, 973.9888
855.0356, 962.3509
855.5177, 946.9238
855.9998, 941.0300
856.4819, 947.2823
856.9641, 958.4532
857.4462, 966.9513
857.9283, 972.9856
858.4104, 977.8359
858.8925, 982.2429
859.3746, 982.3914
859.8568, 967.7354
860.3389, 950.9031
860.8210, 947.1123
861.3030, 968.6020
861.7852, 979.8134
862.2673, 971.7844
862.7494, 959.5090
863.2315, 955.4960
863.7136, 960.2079
864.1957, 964.6568
864.6779, 968.5019
865.1600, 970.8929
865.6421, 968.6478
866.1242, 965.3653
866.6063, 966.9079
867.0884, 974.7177
867.5706, 982.3605
868.0527, 991.5408
868.5348, 995.9901
869.0169, 989.5203
869.4990, 967.8260
869.9811, 962.0569
870.4633, 976.1754
870.9454, 991.4613
871.4275, 989.7913
871.9096, 978.3149
872.3917, 975.2631
872.8738, 981.4148
873.3560, 987.8072
873.8381, 988.1284
874.3202, 987.2654
874.8023, 989.8047
875.2844, 996.9018
875.7665, 996.1824
876.2487, 981.9352
876.7308, 971.3906
877.2129, 977.2895
877.6950, 995.0457
878.1771, 997.5000
878.6592, 985.7413
879.1414, 973.2000
879.6235, 964.6565
880.1056, 962.0721
880.5877, 970.9965
881.0698, 989.5697
881.5519, 1002.087
882.0341, 1003.706
882.5162, 1000.718
882.9983, 993.4048
883.4804, 982.9974
883.9625, 973.6185
884.4446, 965.3002
884.9268, 964.0965
885.4089, 981.5267
885.8910, 999.9597
886.3731, 990.9861
886.8552, 965.0939
887.3373, 951.5793
887.8195, 979.1696
888.3016, 999.2778
888.7837, 991.7205
889.2658, 970.1813
889.7479, 969.9298
890.2300, 994.2970
890.7122, 1013.896
891.1943, 1021.523
891.6764, 1019.906
892.1585, 1005.249
892.6406, 985.4331
893.1227, 978.6019
893.6049, 1007.293
894.0870, 1027.241
894.5691, 1013.184
895.0512, 984.5831
895.5333, 969.1168
896.0154, 970.8431
896.4976, 973.0246
896.9797, 973.9996
897.4618, 974.8769
897.9439, 976.6462
898.4260, 979.5061
898.9081, 985.5016
899.3903, 997.1960
899.8724, 1002.711
900.3545, 985.6760
900.8366, 964.5883
901.3187, 959.3723
901.8008, 979.5806
902.2830, 988.4135
902.7651, 982.0053
903.2472, 973.2697
903.7293, 974.5540
904.2114, 983.0933
904.6935, 987.2745
905.1757, 986.4782
905.6578, 985.8154
906.1399, 991.6138
906.6220, 996.9165
907.1041, 994.3733
907.5862, 982.0676
908.0684, 978.3981
908.5505, 988.4608
909.0326, 998.6377
909.5147, 1002.816
909.9968, 1001.743
910.4789, 996.5634
910.9611, 988.0928
911.4432, 983.9973
911.9253, 994.0777
912.4074, 1005.967
912.8895, 1010.461
913.3716, 1008.440
913.8538, 1004.862
914.3359, 997.6912
914.8180, 993.5118
915.3001, 994.4391
915.7822, 998.8665
916.2643, 1003.966
916.7465, 1009.232
917.2286, 1010.114
917.7107, 1001.449
918.1928, 993.7640
918.6749, 1000.457
919.1570, 1013.837
919.6392, 1021.196
920.1213, 1013.733
920.6034, 1007.662
921.0855, 1004.976
921.5676, 1003.126
922.0497, 996.5698
922.5319, 986.1078
923.0140, 986.2741
923.4961, 1001.199
923.9782, 1014.619
924.4603, 1007.415
924.9424, 992.4854
925.4246, 983.9216
925.9067, 985.3211
926.3888, 989.8664
926.8708, 1000.315
927.3530, 1009.017
927.8351, 1009.490
928.3172, 1001.940
928.7993, 1001.648
929.2814, 1008.668
929.7635, 1013.753
930.2457, 1005.022
930.7278, 994.2275
931.2099, 996.0186
931.6920, 1009.442
932.1741, 1017.051
932.6563, 1009.985
933.1384, 1002.622
933.6205, 998.4395
934.1026, 997.3147
934.5847, 1000.751
935.0668, 1008.326
935.5490, 1012.156
936.0311, 1007.300
936.5132, 999.0960
936.9953, 990.7360
937.4774, 983.3970
937.9595, 979.6422
938.4417, 982.1494
938.9238, 986.2253
939.4059, 993.9232
939.8880, 1000.263
940.3701, 994.9812
940.8522, 979.1530
941.3344, 970.1396
941.8165, 971.2322
942.2986, 978.0322
942.7807, 993.3281
943.2628, 1008.303
943.7449, 1010.614
944.2271, 989.7787
944.7092, 984.2082
945.1913, 1007.717
945.6734, 1031.529
946.1555, 1033.578
946.6376, 1015.703
947.1198, 1004.371
947.6019, 999.5858
948.0840, 1001.119
948.5661, 1017.151
949.0482, 1032.899
949.5303, 1032.088
950.0125, 1016.263
950.4946, 1008.847
950.9767, 1019.270
951.4588, 1026.826
951.9409, 1024.632
952.4230, 1016.197
952.9052, 1011.437
953.3873, 1010.024
953.8694, 1009.996
954.3515, 1011.239
954.8336, 1012.582
955.3157, 1015.109
955.7979, 1016.583
956.2800, 1012.685
956.7621, 990.7245
957.2442, 987.1813
957.7263, 1010.980
958.2084, 1041.206
958.6906, 1052.397
959.1727, 1048.465
959.6548, 1044.447
960.1369, 1042.353
960.6190, 1039.975
961.1011, 1035.790
961.5833, 1030.698
962.0654, 1025.010
962.5475, 1018.439
963.0296, 1013.371
963.5117, 1008.623
963.9938, 1008.940
964.4760, 1020.534
964.9581, 1038.146
965.4402, 1046.648
965.9223, 1046.974
966.4044, 1043.487
966.8865, 1033.342
967.3687, 1025.266
967.8508, 1027.617
968.3329, 1034.736
968.8150, 1030.307
969.2971, 1009.728
969.7792, 996.7682
970.2614, 997.0598
970.7435, 1004.100
971.2256, 1010.058
971.7077, 1015.341
972.1898, 1020.893
972.6719, 1026.876
973.1541, 1033.069
973.6362, 1043.093
974.1183, 1050.318
974.6004, 1048.921
975.0825, 1037.112
975.5646, 1028.342
976.0468, 1022.653
976.5289, 1019.612
977.0110, 1019.338
977.4931, 1021.240
977.9752, 1026.719
978.4573, 1034.707
978.9395, 1037.717
979.4216, 1023.841
979.9037, 1016.242
980.3858, 1024.238
980.8679, 1041.507
981.3500, 1048.922
981.8322, 1046.862
982.3143, 1043.204
982.7964, 1040.297
983.2785, 1037.264
983.7606, 1032.918
984.2427, 1028.046
984.7249, 1023.757
985.2070, 1019.792
985.6891, 1016.878
986.1712, 1013.214
986.6533, 1013.587
987.1354, 1028.214
987.6176, 1051.872
988.0997, 1056.712
988.5818, 1041.322
989.0639, 1026.887
989.5460, 1029.490
990.0281, 1036.826
990.5103, 1042.024
990.9924, 1044.384
991.4745, 1042.289
991.9566, 1033.586
992.4387, 1027.777
992.9208, 1029.473
993.4029, 1034.783
993.8850, 1035.807
994.3671, 1033.862
994.8492, 1032.371
995.3314, 1032.177
995.8135, 1033.287
996.2956, 1036.648
996.7777, 1040.789
997.2598, 1044.978
997.7419, 1050.055
998.2241, 1047.196
998.7062, 1034.646
999.1883, 1023.480
999.6704, 1025.563
1000.153, 1034.382
1000.635, 1043.810
1001.117, 1053.131
1001.599, 1057.459
1002.081, 1053.445
1002.563, 1046.435
1003.045, 1035.717
1003.527, 1024.073
1004.009, 1025.360
1004.492, 1037.944
1004.974, 1049.230
1005.456, 1055.828
1005.938, 1056.594
1006.420, 1046.130
1006.902, 1030.901
1007.384, 1021.184
1007.866, 1017.419
1008.349, 1021.250
1008.831, 1035.882
1009.313, 1050.342
1009.795, 1051.187
1010.277, 1043.036
1010.759, 1036.646
1011.241, 1033.037
1011.723, 1030.679
1012.205, 1027.404
1012.688, 1026.631
1013.170, 1031.541
1013.652, 1040.727
1014.134, 1045.909
1014.616, 1046.865
1015.098, 1046.110
1015.580, 1043.724
1016.062, 1041.480
1016.544, 1042.596
1017.027, 1045.215
1017.509, 1046.146
1017.991, 1046.234
1018.473, 1040.877
1018.955, 1024.373
1019.437, 1010.115
1019.919, 1014.909
1020.401, 1035.373
1020.884, 1049.875
1021.366, 1056.942
1021.848, 1058.475
1022.330, 1049.261
1022.812, 1040.580
1023.294, 1042.737
1023.776, 1054.462
1024.258, 1057.392
1024.740, 1048.663
1025.223, 1042.267
1025.705, 1043.536
1026.187, 1047.855
1026.669, 1046.488
1027.151, 1042.326
1027.633, 1041.893
1028.115, 1051.315
1028.597, 1056.399
1029.079, 1047.397
1029.562, 1038.380
1030.044, 1043.360
1030.526, 1062.587
1031.008, 1066.760
1031.490, 1055.258
1031.972, 1043.241
1032.454, 1039.925
1032.936, 1042.147
1033.419, 1051.139
1033.901, 1064.572
1034.383, 1068.362
1034.865, 1055.673
1035.347, 1048.700
1035.829, 1054.092
1036.311, 1064.795
1036.793, 1069.025
1037.276, 1068.731
1037.758, 1068.031
1038.240, 1067.092
1038.722, 1068.781
1039.204, 1079.123
1039.686, 1088.332
1040.168, 1088.860
1040.650, 1080.369
1041.132, 1075.869
1041.615, 1075.360
1042.097, 1077.138
1042.579, 1083.389
1043.061, 1088.724
1043.543, 1085.769
1044.025, 1077.611
1044.507, 1073.744
1044.989, 1079.571
1045.471, 1082.089
1045.954, 1079.232
1046.436, 1073.494
1046.918, 1065.968
1047.400, 1058.615
1047.882, 1057.961
1048.364, 1065.522
1048.846, 1072.799
1049.328, 1076.814
1049.811, 1077.776
1050.293, 1075.333
1050.775, 1069.909
1051.257, 1064.689
1051.739, 1059.655
1052.221, 1055.490
1052.703, 1051.025
1053.185, 1049.589
1053.667, 1059.199
1054.150, 1073.019
1054.632, 1079.430
1055.114, 1067.108
1055.596, 1062.645
1056.078, 1068.778
1056.560, 1077.695
1057.042, 1084.351
1057.524, 1087.355
1058.006, 1080.520
1058.489, 1064.542
1058.971, 1050.298
1059.453, 1038.490
1059.935, 1035.453
1060.417, 1049.841
1060.899, 1072.833
1061.381, 1077.073
1061.863, 1062.556
1062.346, 1051.507
1062.828, 1049.655
1063.310, 1052.518
1063.792, 1057.227
1064.274, 1063.286
1064.756, 1071.216
1065.238, 1083.942
1065.720, 1086.562
1066.203, 1075.658
1066.685, 1064.532
1067.167, 1062.500
1067.649, 1065.438
1068.131, 1063.322
1068.613, 1057.694
1069.095, 1053.814
1069.577, 1053.583
1070.059, 1055.792
1070.542, 1059.768
1071.024, 1066.141
1071.506, 1078.056
1071.988, 1094.770
1072.470, 1105.333
1072.952, 1108.549
1073.434, 1104.350
1073.916, 1081.126
1074.398, 1059.823
1074.881, 1061.624
1075.363, 1085.111
1075.845, 1093.121
1076.327, 1081.238
1076.809, 1072.768
1077.291, 1075.800
1077.773, 1084.058
1078.255, 1091.766
1078.738, 1096.853
1079.220, 1094.810
1079.702, 1079.119
1080.184, 1070.230
1080.666, 1072.480
1081.148, 1078.413
1081.630, 1085.591
1082.112, 1092.459
1082.594, 1088.006
1083.077, 1074.117
1083.559, 1062.616
1084.041, 1059.666
1084.523, 1061.195
1085.005, 1067.053
1085.487, 1075.607
1085.969, 1085.180
1086.451, 1096.296
1086.933, 1104.238
1087.416, 1108.680
1087.898, 1108.426
1088.380, 1100.962
1088.862, 1089.311
1089.344, 1072.307
1089.826, 1050.782
1090.308, 1045.892
1090.790, 1065.818
1091.272, 1082.288
1091.755, 1086.107
1092.237, 1082.903
1092.719, 1081.553
1093.201, 1081.229
1093.683, 1079.757
1094.165, 1074.927
1094.647, 1073.717
1095.129, 1080.933
1095.612, 1088.569
1096.094, 1091.351
1096.576, 1090.018
1097.058, 1090.998
1097.540, 1093.904
1098.022, 1096.044
1098.504, 1095.091
1098.986, 1093.842
1099.469, 1095.944
1099.951, 1097.626
1100.433, 1091.219
1100.915, 1074.243
1101.397, 1067.842
1101.879, 1074.693
1102.361, 1084.654
1102.843, 1090.146
1103.325, 1093.158
1103.807, 1096.287
1104.290, 1099.324
1104.772, 1097.683
1105.254, 1087.604
1105.736, 1082.688
1106.218, 1088.052
1106.700, 1096.569
1107.182, 1095.952
1107.664, 1090.419
1108.147, 1088.349
1108.629, 1092.629
1109.111, 1095.328
1109.593, 1092.880
1110.075, 1090.380
1110.557, 1090.067
1111.039, 1091.694
1111.521, 1095.429
1112.004, 1100.474
1112.486, 1103.049
1112.968, 1100.812
1113.450, 1096.666
1113.932, 1087.138
1114.414, 1079.669
1114.896, 1084.613
1115.378, 1103.957
1115.860, 1110.183
1116.343, 1102.324
1116.825, 1093.132
1117.307, 1090.872
1117.789, 1092.103
1118.271, 1095.358
1118.753, 1099.845
1119.235, 1103.002
1119.717, 1104.235
1120.199, 1106.035
1120.682, 1108.838
1121.164, 1112.093
1121.646, 1115.571
1122.128, 1118.925
1122.610, 1123.409
1123.092, 1129.403
1123.574, 1125.915
1124.056, 1104.345
1124.539, 1088.438
1125.021, 1086.359
1125.503, 1093.558
1125.985, 1105.157
1126.467, 1117.759
1126.949, 1122.537
1127.431, 1114.658
1127.913, 1106.011
1128.396, 1098.193
1128.878, 1092.919
1129.360, 1092.204
1129.842, 1095.116
1130.324, 1094.621
1130.806, 1091.572
1131.288, 1091.024
1131.770, 1101.085
1132.252, 1107.738
1132.734, 1096.951
1133.217, 1084.070
1133.699, 1089.585
1134.181, 1115.616
1134.663, 1129.567
1135.145, 1130.082
1135.627, 1125.284
1136.109, 1113.531
1136.591, 1105.808
1137.074, 1117.277
1137.556, 1140.044
1138.038, 1145.061
1138.520, 1127.197
1139.002, 1114.287
1139.484, 1111.304
1139.966, 1111.122
1140.448, 1104.558
1140.931, 1097.460
1141.413, 1097.986
1141.895, 1106.949
1142.377, 1112.921
1142.859, 1115.770
1143.341, 1113.311
1143.823, 1102.566
1144.305, 1090.651
1144.787, 1090.956
1145.270, 1098.421
1145.752, 1104.235
1146.234, 1106.370
1146.716, 1106.566
1147.198, 1103.164
1147.680, 1101.532
1148.162, 1105.606
1148.644, 1112.809
1149.126, 1113.635
1149.609, 1110.710
1150.091, 1112.536
1150.573, 1128.624
1151.055, 1139.563
1151.537, 1138.897
1152.019, 1133.009
1152.501, 1125.803
1152.983, 1117.460
1153.466, 1107.948
1153.948, 1098.094
1154.430, 1093.452
1154.912, 1104.324
1155.394, 1112.909
1155.876, 1105.277
1156.358, 1094.307
1156.840, 1099.817
1157.322, 1121.668
1157.805, 1130.332
1158.287, 1123.439
1158.769, 1116.667
1159.251, 1124.999
1159.733, 1134.319
1160.215, 1134.258
1160.697, 1127.204
1161.179, 1119.274
1161.661, 1109.744
1162.144, 1111.733
1162.626, 1130.136
1163.108, 1145.683
1163.590, 1135.562
1164.072, 1117.071
1164.554, 1104.356
1165.036, 1098.747
1165.518, 1105.324
1166.000, 1128.005
1166.483, 1138.382
1166.965, 1123.330
1167.447, 1102.901
1167.929, 1104.235
1168.411, 1113.485
1168.893, 1111.679
1169.375, 1091.177
1169.857, 1081.435
1170.340, 1083.927
1170.822, 1091.410
1171.304, 1101.249
1171.786, 1112.836
1172.268, 1130.337
1172.750, 1147.458
1173.232, 1152.500
1173.714, 1133.365
1174.197, 1118.806
1174.679, 1109.390
1175.161, 1104.369
1175.643, 1105.193
1176.125, 1109.188
1176.607, 1110.828
1177.089, 1111.036
1177.571, 1112.529
1178.053, 1116.192
1178.536, 1122.221
1179.018, 1133.574
1179.500, 1141.163
1179.982, 1129.250
1180.464, 1108.892
1180.946, 1109.661
1181.428, 1128.973
1181.910, 1142.584
1182.392, 1133.148
1182.875, 1128.432
1183.357, 1135.685
1183.839, 1146.276
1184.321, 1148.577
1184.803, 1144.415
1185.285, 1136.283
1185.767, 1124.920
1186.249, 1121.526
1186.732, 1141.497
1187.214, 1157.116
1187.696, 1159.581
1188.178, 1153.614
1188.660, 1145.345
1189.142, 1136.857
1189.624, 1137.031
1190.106, 1148.499
1190.589, 1157.277
1191.071, 1157.107
1191.553, 1151.877
1192.035, 1140.739
1192.517, 1127.525
1192.999, 1126.816
1193.481, 1135.136
1193.963, 1136.431
1194.445, 1123.202
1194.927, 1115.110
1195.410, 1127.055
1195.892, 1141.926
1196.374, 1152.254
1196.856, 1157.093
1197.338, 1146.234
1197.820, 1124.078
1198.302, 1113.179
1198.784, 1127.635
1199.267, 1142.871
1199.749, 1147.844
1200.231, 1147.937
1200.713, 1146.473
1201.195, 1143.517
1201.677, 1137.599
1202.159, 1129.914
1202.641, 1128.614
1203.124, 1144.508
1203.606, 1158.582
1204.088, 1159.491
1204.570, 1156.477
1205.052, 1160.081
1205.534, 1169.869
1206.016, 1162.255
1206.498, 1139.335
1206.980, 1123.364
1207.463, 1135.975
1207.945, 1148.228
1208.427, 1142.794
1208.909, 1131.839
1209.391, 1128.702
1209.873, 1133.086
1210.355, 1138.474
1210.837, 1144.339
1211.319, 1148.045
1211.802, 1148.787
1212.284, 1145.813
1212.766, 1132.268
1213.248, 1118.583
1213.730, 1123.543
1214.212, 1145.511
1214.694, 1154.068
1215.176, 1146.761
1215.659, 1142.537
1216.141, 1164.730
1216.623, 1181.205
1217.105, 1169.362
1217.587, 1144.140
1218.069, 1134.166
1218.551, 1138.203
1219.033, 1143.951
1219.516, 1149.720
1219.998, 1155.362
1220.480, 1165.987
1220.962, 1170.326
1221.444, 1157.486
1221.926, 1136.959
1222.408, 1134.344
1222.890, 1147.491
1223.372, 1158.073
1223.854, 1162.776
1224.337, 1164.169
1224.819, 1161.027
1225.301, 1157.944
1225.783, 1157.245
1226.265, 1158.543
1226.747, 1160.761
1227.229, 1163.837
1227.711, 1168.015
1228.193, 1174.115
1228.676, 1177.355
1229.158, 1171.630
1229.640, 1165.854
1230.122, 1164.852
1230.604, 1167.648
1231.086, 1171.515
1231.568, 1175.958
1232.050, 1178.664
1232.533, 1179.169
1233.015, 1177.257
1233.497, 1169.843
1233.979, 1162.940
1234.461, 1158.941
1234.943, 1158.308
1235.425, 1167.727
1235.907, 1182.946
1236.390, 1186.313
1236.872, 1164.706
1237.354, 1149.161
1237.836, 1158.122
1238.318, 1168.921
1238.800, 1169.144
1239.282, 1161.442
1239.764, 1154.694
1240.246, 1149.005
1240.729, 1144.298
1241.211, 1139.140
1241.693, 1138.424
1242.175, 1145.236
1242.657, 1153.754
1243.139, 1161.382
1243.621, 1167.441
1244.103, 1166.338
1244.585, 1161.436
1245.068, 1162.983
1245.550, 1182.568
1246.032, 1194.943
1246.514, 1196.743
1246.996, 1192.233
1247.478, 1181.014
1247.960, 1167.047
1248.442, 1159.694
1248.925, 1158.571
1249.407, 1163.020
1249.889, 1181.748
1250.371, 1190.967
1250.853, 1186.050
1251.335, 1180.252
1251.817, 1186.916
1252.299, 1198.451
1252.781, 1199.882
1253.264, 1194.126
1253.746, 1189.478
1254.228, 1190.507
1254.710, 1187.084
1255.192, 1177.137
1255.674, 1169.176
1256.156, 1173.694
1256.638, 1182.296
1257.120, 1183.039
1257.603, 1178.282
1258.085, 1175.424
1258.567, 1177.686
1259.049, 1174.128
1259.531, 1162.902
1260.013, 1153.982
1260.495, 1159.664
1260.977, 1168.520
1261.460, 1164.897
1261.942, 1155.460
1262.424, 1160.430
1262.906, 1185.493
1263.388, 1198.683
1263.870, 1197.650
1264.352, 1189.376
1264.834, 1169.917
1265.317, 1154.485
1265.799, 1157.765
1266.281, 1174.131
1266.763, 1192.021
1267.245, 1212.518
1267.727, 1217.927
1268.209, 1206.879
1268.691, 1192.530
1269.173, 1178.121
1269.656, 1169.780
1270.138, 1176.519
1270.620, 1189.022
1271.102, 1192.147
1271.584, 1187.052
1272.066, 1191.993
1272.548, 1207.568
1273.030, 1216.713
1273.512, 1198.104
1273.995, 1184.620
1274.477, 1192.741
1274.959, 1208.126
1275.441, 1209.373
1275.923, 1199.679
1276.405, 1190.086
1276.887, 1181.978
1277.369, 1180.383
1277.852, 1194.578
1278.334, 1205.575
1278.816, 1207.672
1279.298, 1207.633
1279.780, 1219.245
1280.262, 1234.093
1280.744, 1227.661
1281.226, 1202.133
1281.708, 1186.897
1282.191, 1193.985
1282.673, 1206.217
1283.155, 1223.850
1283.637, 1238.695
1284.119, 1241.802
1284.601, 1235.672
1285.083, 1218.188
1285.565, 1192.885
1286.047, 1181.910
1286.530, 1190.611
1287.012, 1198.953
1287.494, 1204.159
1287.976, 1208.682
1288.458, 1220.599
1288.940, 1228.364
1289.422, 1215.546
1289.904, 1188.068
1290.386, 1172.575
1290.869, 1169.593
1291.351, 1175.109
1291.833, 1189.056
1292.315, 1203.712
1292.797, 1219.215
1293.279, 1227.076
1293.761, 1216.059
1294.243, 1195.476
1294.726, 1179.351
1295.208, 1168.057
1295.690, 1169.145
1296.172, 1183.022
1296.654, 1194.375
1297.136, 1187.569
1297.618, 1185.009
1298.100, 1197.194
1298.583, 1214.321
1299.065, 1221.174
1299.547, 1219.931
1300.029, 1214.966
1300.511, 1207.430
1300.993, 1204.248
1301.475, 1213.739
1301.957, 1219.786
##END=



