##NAMES=Calcite
##RRUFFID=R050128
##IDEAL CHEMISTRY=CaCO_3_
##LOCALITY=Tie Siding, Albany County, Wyoming, USA
##OWNER=RRUFF
##SOURCE=Dave Bunk Minerals
##DESCRIPTION=Pseudomorph after aragonite, not single crystal. Trace of aragonite still present.
##STATUS=The identification of this mineral has been confirmed by X-ray diffraction and chemical analysis
##URL=rruff.info/R050128
##MEASURED CHEMISTRY=Ca_1.00_CO_3_
93.08527, 0.0000000E+00
93.56738, 10045.23
94.04950, 9932.939
94.53162, 9944.402
95.01373, 9983.949
95.49585, 10096.37
95.97797, 10223.70
96.46008, 10304.97
96.94220, 10355.18
97.42432, 10381.69
97.90643, 10380.17
98.38855, 10363.79
98.87067, 10340.03
99.35278, 10313.22
99.83490, 10285.35
100.3170, 10256.25
100.7991, 10201.32
101.2813, 10150.25
101.7634, 10102.92
102.2455, 10060.78
102.7276, 10025.18
103.2097, 9996.779
103.6918, 9974.436
104.1740, 9955.752
104.6561, 9935.524
105.1382, 9921.500
105.6203, 9918.401
106.1024, 9924.215
106.5845, 9931.000
107.0667, 9932.584
107.5488, 9929.948
108.0309, 9928.155
108.5130, 9926.703
108.9951, 9925.879
109.4772, 9926.378
109.9594, 9928.426
110.4415, 9930.100
110.9236, 9928.677
111.4057, 9925.512
111.8878, 9923.604
112.3699, 9925.243
112.8521, 9929.811
113.3342, 9933.077
113.8163, 9934.566
114.2984, 9934.931
114.7805, 9934.397
115.2626, 9933.021
115.7448, 9930.890
116.2269, 9927.653
116.7090, 9922.379
117.1911, 9919.213
117.6732, 9918.794
118.1553, 9919.501
118.6375, 9920.488
119.1196, 9921.541
119.6017, 9922.969
120.0838, 9925.255
120.5659, 9928.069
121.0480, 9932.358
121.5302, 9938.621
122.0123, 9946.011
122.4944, 9953.487
122.9765, 9960.550
123.4586, 9967.744
123.9407, 9976.902
124.4228, 9989.331
124.9050, 10000.68
125.3871, 10006.94
125.8692, 10010.22
126.3513, 10018.06
126.8334, 10035.69
127.3155, 10059.36
127.7977, 10080.11
128.2798, 10095.48
128.7619, 10111.56
129.2440, 10134.28
129.7261, 10164.22
130.2083, 10196.76
130.6904, 10230.33
131.1725, 10264.95
131.6546, 10301.44
132.1367, 10340.30
132.6188, 10380.53
133.1010, 10420.19
133.5831, 10461.03
134.0652, 10497.68
134.5473, 10529.19
135.0294, 10556.38
135.5115, 10580.07
135.9937, 10600.07
136.4758, 10616.81
136.9579, 10636.60
137.4400, 10664.96
137.9221, 10691.34
138.4042, 10709.85
138.8864, 10723.68
139.3685, 10740.58
139.8506, 10767.42
140.3327, 10805.56
140.8148, 10845.83
141.2969, 10889.50
141.7791, 10933.80
142.2612, 10979.21
142.7433, 11025.01
143.2254, 11066.40
143.7075, 11096.55
144.1896, 11112.81
144.6718, 11134.12
145.1539, 11161.57
145.6360, 11194.54
146.1181, 11232.17
146.6002, 11274.42
147.0823, 11320.93
147.5645, 11373.22
148.0466, 11430.27
148.5287, 11487.34
149.0108, 11541.11
149.4929, 11592.98
149.9750, 11649.01
150.4572, 11715.93
150.9393, 11778.92
151.4214, 11832.71
151.9035, 11876.30
152.3856, 11900.26
152.8677, 11899.72
153.3499, 11875.06
153.8320, 11820.46
154.3141, 11715.81
154.7962, 11590.66
155.2783, 11451.41
155.7604, 11300.93
156.2425, 11149.90
156.7247, 11011.68
157.2068, 10885.92
157.6889, 10772.76
158.1710, 10668.26
158.6531, 10575.79
159.1352, 10499.31
159.6174, 10439.65
160.0995, 10392.66
160.5816, 10350.67
161.0637, 10313.73
161.5458, 10283.09
162.0279, 10263.22
162.5101, 10247.53
162.9922, 10228.56
163.4743, 10202.94
163.9564, 10174.33
164.4385, 10153.36
164.9206, 10143.79
165.4028, 10136.19
165.8849, 10130.06
166.3670, 10124.81
166.8491, 10118.63
167.3312, 10109.84
167.8133, 10100.86
168.2955, 10099.10
168.7776, 10108.33
169.2597, 10118.00
169.7418, 10121.67
170.2239, 10120.63
170.7060, 10122.24
171.1882, 10132.83
171.6703, 10146.83
172.1524, 10153.16
172.6345, 10147.88
173.1166, 10139.94
173.5987, 10137.47
174.0809, 10140.94
174.5630, 10145.67
175.0451, 10149.95
175.5272, 10154.22
176.0093, 10158.74
176.4914, 10163.27
176.9736, 10168.66
177.4557, 10176.72
177.9378, 10188.68
178.4199, 10200.33
178.9020, 10212.89
179.3841, 10223.63
179.8663, 10229.54
180.3484, 10228.99
180.8305, 10223.19
181.3126, 10215.31
181.7947, 10201.57
182.2768, 10191.36
182.7590, 10188.33
183.2411, 10189.04
183.7232, 10188.60
184.2053, 10183.82
184.6874, 10176.29
185.1695, 10176.08
185.6517, 10190.35
186.1338, 10205.18
186.6159, 10218.76
187.0980, 10231.45
187.5801, 10244.63
188.0622, 10259.58
188.5444, 10275.74
189.0265, 10285.52
189.5086, 10284.82
189.9907, 10283.09
190.4728, 10284.27
190.9549, 10286.94
191.4371, 10286.74
191.9192, 10280.12
192.4013, 10267.68
192.8834, 10258.23
193.3655, 10250.46
193.8476, 10246.31
194.3298, 10248.94
194.8119, 10257.24
195.2940, 10264.93
195.7761, 10267.32
196.2582, 10265.13
196.7403, 10264.87
197.2225, 10265.63
197.7046, 10268.99
198.1867, 10277.34
198.6688, 10290.79
199.1509, 10304.46
199.6330, 10313.62
200.1152, 10320.87
200.5973, 10332.15
201.0794, 10350.79
201.5615, 10372.32
202.0436, 10390.34
202.5257, 10403.44
203.0079, 10418.72
203.4900, 10442.40
203.9721, 10470.30
204.4542, 10498.32
204.9363, 10527.89
205.4184, 10554.43
205.9006, 10569.62
206.3827, 10572.86
206.8648, 10564.77
207.3469, 10544.39
207.8290, 10514.88
208.3111, 10478.65
208.7933, 10435.23
209.2754, 10387.58
209.7575, 10343.48
210.2396, 10302.33
210.7217, 10267.03
211.2038, 10238.23
211.6860, 10214.85
212.1681, 10195.94
212.6502, 10181.58
213.1323, 10170.72
213.6144, 10158.77
214.0965, 10145.23
214.5787, 10131.01
215.0608, 10116.06
215.5429, 10100.59
216.0250, 10084.80
216.5071, 10068.66
216.9892, 10052.37
217.4714, 10036.82
217.9535, 10023.17
218.4356, 10008.92
218.9177, 9992.231
219.3998, 9974.941
219.8819, 9959.879
220.3641, 9948.687
220.8462, 9940.870
221.3283, 9933.574
221.8104, 9925.821
222.2925, 9919.580
222.7746, 9917.163
223.2568, 9916.399
223.7389, 9913.290
224.2210, 9905.330
224.7031, 9893.565
225.1852, 9883.911
225.6673, 9876.573
226.1495, 9870.600
226.6316, 9866.191
227.1137, 9863.038
227.5958, 9860.465
228.0779, 9858.184
228.5600, 9856.216
229.0422, 9854.692
229.5243, 9854.065
230.0064, 9853.244
230.4885, 9851.491
230.9706, 9849.157
231.4527, 9847.276
231.9349, 9846.469
232.4170, 9846.306
232.8991, 9845.894
233.3812, 9846.271
233.8633, 9844.706
234.3454, 9836.510
234.8276, 9824.048
235.3097, 9818.057
235.7918, 9825.771
236.2739, 9839.803
236.7560, 9847.061
237.2381, 9846.427
237.7203, 9842.696
238.2024, 9837.623
238.6845, 9831.520
239.1666, 9826.471
239.6487, 9822.527
240.1308, 9820.778
240.6130, 9822.688
241.0951, 9828.802
241.5772, 9834.915
242.0593, 9838.224
242.5414, 9838.778
243.0235, 9837.310
243.5057, 9831.229
243.9878, 9825.671
244.4699, 9825.627
244.9520, 9831.269
245.4341, 9837.513
245.9162, 9840.543
246.3984, 9840.377
246.8805, 9838.275
247.3626, 9832.940
247.8447, 9826.993
248.3268, 9821.612
248.8089, 9817.038
249.2911, 9813.768
249.7732, 9812.793
250.2553, 9814.248
250.7374, 9815.125
251.2195, 9814.456
251.7016, 9813.870
252.1838, 9814.505
252.6659, 9816.066
253.1480, 9817.286
253.6301, 9817.166
254.1122, 9815.681
254.5943, 9812.991
255.0765, 9806.033
255.5586, 9800.631
256.0407, 9798.776
256.5228, 9800.264
257.0049, 9804.051
257.4870, 9809.563
257.9691, 9816.814
258.4513, 9824.329
258.9334, 9833.622
259.4155, 9841.714
259.8976, 9847.905
260.3797, 9852.213
260.8618, 9854.512
261.3440, 9854.145
261.8261, 9851.334
262.3082, 9852.395
262.7903, 9863.731
263.2724, 9872.683
263.7545, 9875.319
264.2367, 9873.660
264.7188, 9871.247
265.2009, 9870.243
265.6830, 9870.639
266.1651, 9872.439
266.6472, 9877.184
267.1294, 9881.796
267.6115, 9885.995
268.0936, 9889.721
268.5757, 9892.870
269.0578, 9895.354
269.5399, 9897.416
270.0221, 9900.045
270.5042, 9902.484
270.9863, 9906.574
271.4684, 9914.557
271.9505, 9923.749
272.4326, 9930.743
272.9148, 9934.009
273.3969, 9934.546
273.8790, 9935.101
274.3611, 9934.395
274.8432, 9935.384
275.3253, 9939.627
275.8075, 9945.011
276.2896, 9948.660
276.7717, 9949.584
277.2538, 9949.987
277.7359, 9954.174
278.2180, 9966.225
278.7002, 9975.950
279.1823, 9984.433
279.6644, 9989.931
280.1465, 9990.256
280.6286, 9984.975
281.1107, 9976.290
281.5929, 9967.573
282.0750, 9960.594
282.5571, 9948.001
283.0392, 9925.167
283.5213, 9899.691
284.0034, 9878.452
284.4856, 9862.246
284.9677, 9846.292
285.4498, 9825.256
285.9319, 9797.764
286.4140, 9771.460
286.8961, 9745.085
287.3783, 9720.710
287.8604, 9700.682
288.3425, 9684.666
288.8246, 9669.624
289.3067, 9653.002
289.7888, 9634.741
290.2710, 9618.955
290.7531, 9605.215
291.2352, 9593.959
291.7173, 9587.051
292.1994, 9583.429
292.6815, 9578.643
293.1637, 9569.405
293.6458, 9556.620
294.1279, 9546.377
294.6100, 9539.991
295.0921, 9534.438
295.5742, 9528.030
296.0564, 9521.406
296.5385, 9516.690
297.0206, 9515.447
297.5027, 9516.092
297.9848, 9513.630
298.4669, 9507.104
298.9491, 9499.993
299.4312, 9492.654
299.9133, 9485.521
300.3954, 9479.688
300.8775, 9475.743
301.3596, 9472.567
301.8418, 9467.896
302.3239, 9461.169
302.8060, 9455.254
303.2881, 9451.964
303.7702, 9449.499
304.2523, 9445.124
304.7345, 9438.100
305.2166, 9430.063
305.6987, 9422.756
306.1808, 9416.059
306.6629, 9411.139
307.1451, 9409.837
307.6272, 9409.468
308.1093, 9407.298
308.5914, 9402.975
309.0735, 9397.497
309.5556, 9391.050
310.0378, 9383.893
310.5199, 9379.098
311.0020, 9379.288
311.4841, 9380.114
311.9662, 9377.729
312.4483, 9372.381
312.9305, 9367.724
313.4126, 9366.728
313.8947, 9368.223
314.3768, 9366.574
314.8589, 9358.984
315.3410, 9351.341
315.8232, 9347.747
316.3053, 9346.900
316.7874, 9343.629
317.2695, 9334.290
317.7516, 9322.622
318.2337, 9318.237
318.7159, 9324.135
319.1980, 9328.888
319.6801, 9327.032
320.1622, 9321.144
320.6443, 9316.368
321.1264, 9314.348
321.6086, 9313.537
322.0907, 9311.673
322.5728, 9308.703
323.0549, 9305.438
323.5370, 9302.237
324.0191, 9298.765
324.5013, 9294.976
324.9834, 9290.926
325.4655, 9285.604
325.9476, 9277.396
326.4297, 9266.377
326.9118, 9256.463
327.3940, 9247.254
327.8761, 9239.979
328.3582, 9237.190
328.8403, 9238.514
329.3224, 9238.796
329.8045, 9233.701
330.2867, 9224.362
330.7688, 9218.493
331.2509, 9218.925
331.7330, 9219.841
332.2151, 9218.704
332.6972, 9215.638
333.1794, 9210.654
333.6615, 9202.899
334.1436, 9194.271
334.6257, 9190.313
335.1078, 9192.554
335.5899, 9195.028
336.0721, 9197.293
336.5542, 9198.307
337.0363, 9195.392
337.5184, 9187.232
338.0005, 9177.938
338.4826, 9174.175
338.9648, 9177.605
339.4469, 9179.128
339.9290, 9176.802
340.4111, 9172.721
340.8932, 9168.709
341.3753, 9165.097
341.8575, 9161.595
342.3396, 9157.824
342.8217, 9153.761
343.3038, 9150.764
343.7859, 9150.524
344.2680, 9149.859
344.7502, 9145.879
345.2323, 9139.488
345.7144, 9134.718
346.1965, 9134.701
346.6786, 9138.071
347.1607, 9136.512
347.6429, 9125.411
348.1250, 9115.929
348.6071, 9112.326
349.0892, 9112.128
349.5713, 9111.497
350.0534, 9108.972
350.5356, 9104.854
351.0177, 9099.421
351.4998, 9090.933
351.9819, 9084.686
352.4640, 9081.855
352.9461, 9080.890
353.4283, 9081.549
353.9104, 9083.346
354.3925, 9083.365
354.8746, 9077.658
355.3567, 9064.138
355.8388, 9055.712
356.3210, 9056.432
356.8031, 9057.750
357.2852, 9054.484
357.7673, 9047.524
358.2494, 9041.183
358.7315, 9038.834
359.2137, 9039.730
359.6958, 9036.688
360.1779, 9028.490
360.6600, 9017.973
361.1421, 9002.546
361.6242, 8986.002
362.1064, 8974.062
362.5885, 8969.240
363.0706, 8968.318
363.5527, 8964.206
364.0348, 8953.468
364.5169, 8944.832
364.9991, 8940.627
365.4812, 8937.010
365.9633, 8930.549
366.4454, 8921.068
366.9275, 8911.259
367.4096, 8903.938
367.8918, 8899.233
368.3739, 8896.786
368.8560, 8900.087
369.3381, 8902.042
369.8202, 8899.358
370.3023, 8893.067
370.7845, 8885.813
371.2666, 8879.153
371.7487, 8873.116
372.2308, 8868.083
372.7129, 8864.466
373.1950, 8861.226
373.6772, 8858.814
374.1593, 8856.298
374.6414, 8852.642
375.1235, 8847.465
375.6056, 8841.334
376.0877, 8834.824
376.5699, 8826.819
377.0520, 8821.611
377.5341, 8821.818
378.0162, 8822.952
378.4983, 8823.752
378.9804, 8823.466
379.4626, 8820.587
379.9447, 8812.822
380.4268, 8800.375
380.9089, 8789.859
381.3910, 8781.530
381.8731, 8775.202
382.3553, 8772.833
382.8374, 8771.896
383.3195, 8767.967
383.8016, 8758.099
384.2837, 8745.563
384.7658, 8737.460
385.2480, 8735.315
385.7301, 8732.683
386.2122, 8726.459
386.6943, 8719.511
387.1764, 8714.405
387.6585, 8711.621
388.1407, 8708.861
388.6228, 8703.091
389.1049, 8694.668
389.5870, 8689.141
390.0691, 8688.779
390.5512, 8689.573
391.0334, 8689.096
391.5155, 8687.310
391.9976, 8684.007
392.4797, 8677.679
392.9618, 8670.187
393.4439, 8665.279
393.9261, 8663.415
394.4082, 8661.669
394.8903, 8657.873
395.3724, 8653.287
395.8545, 8650.236
396.3366, 8649.954
396.8188, 8649.382
397.3009, 8644.819
397.7830, 8637.534
398.2651, 8633.728
398.7472, 8636.684
399.2293, 8641.575
399.7115, 8640.648
400.1936, 8633.711
400.6757, 8628.284
401.1578, 8628.566
401.6399, 8630.585
402.1220, 8628.697
402.6042, 8622.264
403.0863, 8615.845
403.5684, 8613.321
404.0505, 8614.416
404.5326, 8614.189
405.0147, 8612.462
405.4969, 8609.696
405.9790, 8605.544
406.4611, 8600.548
406.9432, 8595.834
407.4253, 8591.796
407.9074, 8588.645
408.3896, 8587.053
408.8717, 8589.224
409.3538, 8588.762
409.8359, 8582.473
410.3180, 8575.050
410.8001, 8570.798
411.2823, 8570.253
411.7644, 8571.351
412.2465, 8572.228
412.7286, 8572.916
413.2107, 8572.708
413.6928, 8572.177
414.1750, 8570.215
414.6571, 8565.333
415.1392, 8558.885
415.6213, 8553.199
416.1034, 8549.471
416.5855, 8547.029
417.0677, 8544.165
417.5498, 8540.890
418.0319, 8537.089
418.5140, 8533.372
418.9961, 8528.809
419.4782, 8521.904
419.9604, 8513.012
420.4425, 8504.536
420.9246, 8498.960
421.4067, 8496.391
421.8888, 8494.707
422.3709, 8495.660
422.8531, 8495.454
423.3352, 8492.986
423.8173, 8488.579
424.2994, 8482.442
424.7815, 8474.264
425.2636, 8465.613
425.7458, 8459.987
426.2279, 8458.310
426.7100, 8455.528
427.1921, 8448.434
427.6742, 8441.029
428.1563, 8437.140
428.6385, 8436.803
429.1206, 8435.340
429.6027, 8427.049
430.0848, 8414.606
430.5669, 8408.278
431.0490, 8410.542
431.5312, 8414.520
432.0133, 8416.128
432.4954, 8415.822
432.9775, 8414.071
433.4596, 8410.567
433.9417, 8406.081
434.4239, 8400.168
434.9060, 8393.355
435.3881, 8389.752
435.8702, 8392.491
436.3523, 8396.891
436.8344, 8393.839
437.3166, 8382.213
437.7987, 8372.267
438.2808, 8368.009
438.7629, 8366.114
439.2450, 8362.833
439.7271, 8357.765
440.2093, 8352.842
440.6914, 8350.167
441.1735, 8349.439
441.6556, 8344.615
442.1377, 8331.531
442.6198, 8319.685
443.1020, 8312.253
443.5841, 8308.108
444.0662, 8306.325
444.5483, 8306.488
445.0304, 8306.243
445.5125, 8301.270
445.9947, 8289.210
446.4768, 8277.556
446.9589, 8265.703
447.4410, 8254.575
447.9231, 8244.331
448.4052, 8235.192
448.8874, 8228.003
449.3695, 8223.782
449.8516, 8221.670
450.3337, 8216.363
450.8158, 8204.760
451.2979, 8194.782
451.7801, 8188.210
452.2622, 8183.571
452.7443, 8180.067
453.2264, 8177.338
453.7085, 8174.246
454.1906, 8169.426
454.6728, 8162.835
455.1549, 8155.564
455.6370, 8147.304
456.1191, 8138.782
456.6012, 8129.477
457.0833, 8120.275
457.5655, 8113.260
458.0476, 8109.912
458.5297, 8108.553
459.0118, 8107.601
459.4939, 8107.125
459.9760, 8104.468
460.4582, 8097.119
460.9403, 8088.443
461.4224, 8083.867
461.9045, 8084.094
462.3866, 8082.219
462.8687, 8073.570
463.3508, 8061.799
463.8329, 8052.370
464.3151, 8045.958
464.7972, 8040.308
465.2793, 8033.536
465.7614, 8025.984
466.2435, 8020.447
466.7256, 8019.067
467.2078, 8017.148
467.6899, 8013.075
468.1720, 8007.334
468.6541, 8000.230
469.1362, 7991.906
469.6183, 7983.724
470.1005, 7977.725
470.5826, 7974.792
471.0647, 7971.329
471.5468, 7966.836
472.0289, 7962.388
472.5110, 7959.477
472.9932, 7957.025
473.4753, 7952.170
473.9574, 7942.883
474.4395, 7931.275
474.9216, 7924.081
475.4037, 7923.592
475.8859, 7923.041
476.3680, 7923.494
476.8501, 7922.142
477.3322, 7915.562
477.8143, 7904.302
478.2964, 7893.326
478.7786, 7887.810
479.2607, 7886.561
479.7428, 7881.993
480.2249, 7872.292
480.7070, 7863.095
481.1891, 7856.221
481.6713, 7851.681
482.1534, 7850.553
482.6355, 7854.190
483.1176, 7857.403
483.5997, 7855.547
484.0818, 7849.588
484.5640, 7843.307
485.0461, 7837.735
485.5282, 7831.440
486.0103, 7822.343
486.4924, 7810.842
486.9745, 7800.196
487.4567, 7789.960
487.9388, 7781.528
488.4209, 7777.383
488.9030, 7776.061
489.3851, 7772.480
489.8672, 7763.892
490.3494, 7753.648
490.8315, 7748.748
491.3136, 7754.140
491.7957, 7755.511
492.2778, 7751.470
492.7599, 7744.516
493.2421, 7734.983
493.7242, 7723.921
494.2063, 7713.831
494.6884, 7706.537
495.1705, 7701.589
495.6526, 7696.404
496.1348, 7690.163
496.6169, 7685.098
497.0990, 7682.247
497.5811, 7680.085
498.0632, 7677.411
498.5453, 7674.001
499.0275, 7670.300
499.5096, 7667.151
499.9917, 7664.321
500.4738, 7659.422
500.9559, 7651.830
501.4380, 7643.362
501.9202, 7632.340
502.4023, 7621.808
502.8844, 7616.908
503.3665, 7620.437
503.8486, 7624.810
504.3307, 7623.501
504.8129, 7617.866
505.2950, 7612.521
505.7771, 7608.403
506.2592, 7604.928
506.7413, 7601.712
507.2234, 7598.724
507.7056, 7595.328
508.1877, 7592.220
508.6698, 7587.992
509.1519, 7580.615
509.6340, 7571.563
510.1161, 7564.571
510.5983, 7561.229
511.0804, 7559.191
511.5625, 7553.994
512.0446, 7542.763
512.5267, 7535.985
513.0089, 7536.927
513.4910, 7538.756
513.9731, 7539.400
514.4552, 7537.919
514.9373, 7532.385
515.4194, 7521.108
515.9016, 7507.517
516.3837, 7501.822
516.8658, 7508.516
517.3479, 7510.792
517.8300, 7501.639
518.3121, 7490.491
518.7943, 7482.260
519.2764, 7477.235
519.7585, 7474.007
520.2406, 7473.365
520.7227, 7473.341
521.2048, 7468.950
521.6870, 7459.646
522.1691, 7450.630
522.6512, 7444.597
523.1333, 7439.978
523.6154, 7433.577
524.0975, 7424.672
524.5797, 7417.578
525.0618, 7416.844
525.5439, 7417.327
526.0260, 7410.854
526.5081, 7397.319
526.9902, 7385.493
527.4724, 7381.968
527.9545, 7385.302
528.4366, 7386.902
528.9187, 7388.080
529.4008, 7385.922
529.8829, 7376.776
530.3651, 7366.039
530.8472, 7359.211
531.3293, 7356.804
531.8114, 7355.396
532.2935, 7351.779
532.7756, 7346.022
533.2578, 7339.846
533.7399, 7333.115
534.2220, 7326.096
534.7041, 7318.034
535.1862, 7310.235
535.6683, 7304.281
536.1505, 7300.533
536.6326, 7297.350
537.1147, 7293.174
537.5968, 7288.286
538.0789, 7284.418
538.5610, 7282.283
539.0432, 7279.264
539.5253, 7272.198
540.0074, 7263.234
540.4895, 7257.412
540.9716, 7256.834
541.4537, 7256.576
541.9359, 7255.022
542.4180, 7251.900
542.9001, 7245.847
543.3822, 7236.678
543.8643, 7227.828
544.3464, 7222.992
544.8286, 7222.369
545.3107, 7219.039
545.7928, 7209.025
546.2749, 7201.398
546.7570, 7201.087
547.2391, 7203.156
547.7213, 7201.204
548.2034, 7193.636
548.6855, 7184.127
549.1676, 7176.632
549.6497, 7171.124
550.1318, 7167.508
550.6140, 7166.720
551.0961, 7166.479
551.5782, 7166.821
552.0603, 7166.765
552.5424, 7164.841
553.0245, 7160.493
553.5067, 7155.305
553.9888, 7150.128
554.4709, 7145.253
554.9530, 7142.273
555.4351, 7142.101
555.9172, 7141.134
556.3994, 7135.866
556.8815, 7127.157
557.3636, 7120.073
557.8457, 7115.620
558.3278, 7111.797
558.8099, 7108.136
559.2921, 7104.474
559.7742, 7100.378
560.2563, 7095.796
560.7384, 7091.491
561.2205, 7088.637
561.7026, 7087.396
562.1848, 7082.994
562.6669, 7072.447
563.1490, 7062.021
563.6311, 7051.956
564.1132, 7043.124
564.5953, 7036.835
565.0775, 7033.243
565.5596, 7030.560
566.0417, 7027.280
566.5238, 7023.398
567.0059, 7018.110
567.4880, 7010.281
567.9702, 7003.789
568.4523, 7002.271
568.9344, 7002.921
569.4165, 7001.921
569.8986, 6998.469
570.3807, 6994.458
570.8629, 6991.080
571.3450, 6987.782
571.8271, 6983.201
572.3092, 6977.178
572.7913, 6971.891
573.2734, 6969.130
573.7556, 6968.433
574.2377, 6966.659
574.7198, 6962.815
575.2019, 6959.158
575.6840, 6955.982
576.1661, 6953.030
576.6483, 6950.209
577.1304, 6947.397
577.6125, 6944.394
578.0946, 6941.269
578.5767, 6937.721
579.0588, 6931.593
579.5410, 6920.749
580.0231, 6912.292
580.5052, 6911.179
580.9873, 6911.312
581.4694, 6907.805
581.9515, 6900.425
582.4337, 6892.518
582.9158, 6887.420
583.3979, 6882.391
583.8800, 6870.834
584.3621, 6853.097
584.8442, 6840.541
585.3264, 6839.354
585.8085, 6845.243
586.2906, 6850.305
586.7727, 6855.464
587.2548, 6857.055
587.7369, 6852.422
588.2191, 6846.128
588.7012, 6840.963
589.1833, 6836.782
589.6654, 6832.235
590.1475, 6826.549
590.6296, 6820.450
591.1118, 6815.571
591.5939, 6812.321
592.0760, 6808.930
592.5581, 6804.625
593.0402, 6800.710
593.5223, 6798.968
594.0045, 6797.938
594.4866, 6793.962
594.9687, 6784.215
595.4508, 6773.711
595.9329, 6769.718
596.4150, 6770.571
596.8972, 6766.770
597.3793, 6755.158
597.8614, 6742.398
598.3435, 6734.656
598.8256, 6732.101
599.3077, 6730.243
599.7899, 6730.850
600.2720, 6730.263
600.7541, 6725.693
601.2362, 6719.777
601.7183, 6717.273
602.2004, 6718.690
602.6826, 6718.547
603.1647, 6710.115
603.6468, 6693.781
604.1289, 6683.750
604.6110, 6683.489
605.0931, 6684.103
605.5753, 6684.752
606.0574, 6684.151
606.5395, 6680.100
607.0216, 6672.547
607.5037, 6665.726
607.9858, 6663.735
608.4680, 6664.097
608.9501, 6662.039
609.4322, 6657.374
609.9143, 6651.090
610.3964, 6643.076
610.8785, 6634.433
611.3607, 6627.313
611.8428, 6621.625
612.3249, 6617.525
612.8070, 6617.485
613.2891, 6616.936
613.7712, 6611.725
614.2534, 6603.543
614.7355, 6597.002
615.2176, 6594.432
615.6997, 6593.798
616.1818, 6591.179
616.6639, 6585.979
617.1461, 6581.625
617.6282, 6579.325
618.1103, 6576.671
618.5924, 6572.646
619.0745, 6567.491
619.5566, 6561.365
620.0388, 6553.811
620.5209, 6546.811
621.0030, 6542.608
621.4851, 6540.163
621.9672, 6536.804
622.4493, 6532.058
622.9315, 6526.591
623.4136, 6520.019
623.8957, 6513.202
624.3778, 6511.728
624.8599, 6521.819
625.3420, 6528.218
625.8242, 6528.091
626.3063, 6524.272
626.7884, 6518.148
627.2705, 6510.542
627.7526, 6502.769
628.2347, 6495.517
628.7169, 6489.100
629.1990, 6484.880
629.6811, 6483.769
630.1632, 6480.556
630.6453, 6472.386
631.1274, 6463.647
631.6096, 6457.562
632.0917, 6453.858
632.5738, 6451.303
633.0559, 6450.772
633.5380, 6450.016
634.0201, 6446.963
634.5023, 6442.356
634.9844, 6437.913
635.4665, 6434.048
635.9486, 6430.492
636.4307, 6427.000
636.9128, 6423.558
637.3950, 6419.880
637.8771, 6415.880
638.3592, 6411.675
638.8413, 6407.040
639.3234, 6402.406
639.8055, 6398.458
640.2877, 6395.107
640.7698, 6391.337
641.2519, 6386.417
641.7340, 6380.516
642.2161, 6373.958
642.6982, 6366.698
643.1804, 6359.175
643.6625, 6350.701
644.1446, 6343.157
644.6267, 6340.176
645.1088, 6341.758
645.5909, 6341.275
646.0731, 6336.247
646.5552, 6330.560
647.0373, 6326.570
647.5194, 6323.452
648.0015, 6319.749
648.4836, 6314.955
648.9658, 6309.163
649.4479, 6301.796
649.9300, 6292.736
650.4121, 6288.986
650.8942, 6295.479
651.3763, 6298.815
651.8585, 6291.841
652.3406, 6281.661
652.8227, 6274.962
653.3048, 6272.500
653.7869, 6270.825
654.2690, 6269.716
654.7512, 6267.287
655.2333, 6258.981
655.7154, 6246.098
656.1975, 6237.284
656.6796, 6236.585
657.1617, 6239.544
657.6439, 6239.066
658.1260, 6233.870
658.6081, 6230.513
659.0902, 6231.817
659.5723, 6231.606
660.0544, 6226.454
660.5366, 6219.144
661.0187, 6213.381
661.5008, 6210.164
661.9829, 6207.722
662.4650, 6205.623
662.9471, 6203.000
663.4293, 6194.983
663.9114, 6180.383
664.3935, 6167.561
664.8756, 6159.648
665.3577, 6156.000
665.8398, 6156.938
666.3220, 6163.608
666.8041, 6166.397
667.2862, 6160.117
667.7683, 6152.982
668.2504, 6150.110
668.7325, 6150.380
669.2147, 6151.506
669.6968, 6152.501
670.1789, 6152.372
670.6610, 6150.038
671.1431, 6145.506
671.6252, 6137.064
672.1074, 6120.336
672.5895, 6107.871
673.0716, 6109.434
673.5537, 6115.152
674.0358, 6114.416
674.5179, 6105.938
675.0001, 6097.668
675.4822, 6093.462
675.9643, 6090.935
676.4464, 6088.031
676.9285, 6084.628
677.4106, 6080.694
677.8928, 6076.200
678.3749, 6071.572
678.8570, 6067.550
679.3391, 6064.484
679.8212, 6060.049
680.3033, 6051.170
680.7855, 6044.731
681.2676, 6044.895
681.7497, 6046.933
682.2318, 6045.516
682.7139, 6039.772
683.1960, 6032.847
683.6782, 6024.037
684.1603, 6016.716
684.6424, 6018.444
685.1245, 6028.505
685.6066, 6039.076
686.0887, 6047.636
686.5709, 6053.372
687.0530, 6054.370
687.5351, 6049.156
688.0172, 6047.341
688.4993, 6051.940
688.9814, 6055.999
689.4636, 6056.023
689.9457, 6055.007
690.4278, 6056.435
690.9099, 6061.019
691.3920, 6067.405
691.8741, 6076.469
692.3563, 6085.809
692.8384, 6086.681
693.3205, 6078.507
693.8026, 6074.055
694.2847, 6078.612
694.7668, 6086.959
695.2490, 6092.153
695.7311, 6093.945
696.2132, 6100.119
696.6953, 6113.762
697.1774, 6128.625
697.6595, 6141.557
698.1417, 6154.613
698.6238, 6171.478
699.1059, 6192.023
699.5880, 6212.190
700.0701, 6228.973
700.5522, 6242.107
701.0344, 6251.315
701.5165, 6257.291
701.9986, 6254.688
702.4807, 6238.661
702.9628, 6218.020
703.4449, 6199.836
703.9271, 6184.058
704.4092, 6171.927
704.8913, 6170.566
705.3734, 6164.875
705.8555, 6149.733
706.3376, 6125.854
706.8198, 6090.246
707.3019, 6045.334
707.7840, 6002.651
708.2661, 5970.497
708.7482, 5947.914
709.2303, 5933.107
709.7125, 5927.541
710.1946, 5923.641
710.6767, 5921.527
711.1588, 5919.170
711.6409, 5915.625
712.1230, 5910.697
712.6052, 5903.816
713.0873, 5894.859
713.5694, 5883.877
714.0515, 5869.576
714.5336, 5853.893
715.0157, 5838.545
715.4979, 5824.119
715.9800, 5811.200
716.4621, 5800.226
716.9442, 5791.186
717.4263, 5785.244
717.9084, 5784.279
718.3906, 5777.944
718.8727, 5760.246
719.3548, 5744.784
719.8369, 5740.331
720.3190, 5741.803
720.8011, 5741.504
721.2833, 5738.089
721.7654, 5733.861
722.2475, 5729.733
722.7296, 5725.480
723.2117, 5720.537
723.6938, 5715.158
724.1760, 5710.263
724.6581, 5706.212
725.1402, 5702.878
725.6223, 5700.268
726.1044, 5698.572
726.5865, 5695.396
727.0687, 5689.161
727.5508, 5683.831
728.0329, 5681.845
728.5150, 5680.708
728.9971, 5677.616
729.4792, 5672.360
729.9614, 5667.604
730.4435, 5665.378
730.9256, 5663.358
731.4077, 5658.803
731.8898, 5652.857
732.3719, 5648.630
732.8541, 5646.964
733.3362, 5645.946
733.8183, 5643.648
734.3004, 5640.145
734.7825, 5635.917
735.2646, 5630.665
735.7468, 5625.377
736.2289, 5619.923
736.7110, 5614.780
737.1931, 5610.440
737.6752, 5606.737
738.1573, 5602.932
738.6395, 5598.562
739.1216, 5594.385
739.6037, 5591.843
740.0858, 5589.479
740.5679, 5584.326
741.0500, 5576.450
741.5322, 5569.023
742.0143, 5564.209
742.4964, 5561.312
742.9785, 5558.317
743.4606, 5554.831
743.9427, 5552.822
744.4249, 5554.833
744.9070, 5555.144
745.3891, 5548.609
745.8712, 5539.177
746.3533, 5534.049
746.8354, 5535.578
747.3176, 5535.676
747.7997, 5528.940
748.2818, 5520.321
748.7639, 5514.186
749.2460, 5510.673
749.7281, 5510.018
750.2103, 5512.225
750.6924, 5513.771
751.1745, 5508.792
751.6566, 5497.227
752.1387, 5490.690
752.6208, 5491.512
753.1030, 5491.961
753.5851, 5489.271
754.0672, 5485.101
754.5493, 5481.334
755.0314, 5477.933
755.5135, 5473.490
755.9957, 5465.617
756.4778, 5458.827
756.9599, 5456.877
757.4420, 5457.043
757.9241, 5455.345
758.4063, 5451.199
758.8884, 5446.370
759.3705, 5441.928
759.8526, 5438.339
760.3347, 5437.786
760.8168, 5440.908
761.2990, 5440.852
761.7811, 5434.702
762.2632, 5428.735
762.7453, 5429.129
763.2274, 5433.073
763.7095, 5431.614
764.1917, 5421.148
764.6738, 5412.637
765.1559, 5409.599
765.6380, 5408.565
766.1201, 5408.161
766.6022, 5407.427
767.0844, 5404.967
767.5665, 5400.248
768.0486, 5394.153
768.5307, 5386.408
769.0128, 5377.967
769.4949, 5374.544
769.9771, 5376.894
770.4592, 5377.939
770.9413, 5374.222
771.4234, 5369.236
771.9055, 5368.311
772.3876, 5372.316
772.8698, 5372.011
773.3519, 5361.970
773.8340, 5354.619
774.3161, 5355.715
774.7982, 5359.382
775.2803, 5360.700
775.7625, 5358.933
776.2446, 5354.787
776.7267, 5347.842
777.2088, 5340.420
777.6909, 5335.333
778.1730, 5332.465
778.6552, 5331.993
779.1373, 5334.007
779.6194, 5335.604
780.1015, 5334.772
780.5836, 5332.235
781.0657, 5330.202
781.5479, 5329.801
782.0300, 5327.263
782.5121, 5319.682
782.9942, 5313.175
783.4763, 5310.271
783.9584, 5309.641
784.4406, 5309.919
784.9227, 5310.813
785.4048, 5310.604
785.8869, 5307.430
786.3690, 5303.326
786.8511, 5300.996
787.3333, 5299.668
787.8154, 5296.767
788.2975, 5291.614
788.7796, 5285.702
789.2617, 5280.274
789.7438, 5275.574
790.2260, 5273.758
790.7081, 5276.302
791.1902, 5277.287
791.6723, 5275.750
792.1544, 5272.296
792.6365, 5266.170
793.1187, 5258.611
793.6008, 5252.824
794.0829, 5249.794
794.5650, 5247.326
795.0471, 5245.114
795.5292, 5242.775
796.0114, 5240.122
796.4935, 5237.049
796.9756, 5233.266
797.4577, 5228.681
797.9398, 5223.866
798.4219, 5219.521
798.9041, 5215.582
799.3862, 5211.619
799.8683, 5207.652
800.3504, 5203.252
800.8325, 5198.096
801.3146, 5192.731
801.7968, 5187.530
802.2789, 5182.424
802.7610, 5178.823
803.2431, 5177.500
803.7252, 5176.386
804.2073, 5176.050
804.6895, 5174.991
805.1716, 5171.489
805.6537, 5166.262
806.1358, 5161.112
806.6179, 5156.266
807.1000, 5153.879
807.5822, 5158.464
808.0643, 5166.158
808.5464, 5169.041
809.0285, 5166.884
809.5106, 5163.202
809.9927, 5159.538
810.4749, 5156.042
810.9570, 5153.110
811.4391, 5150.893
811.9212, 5147.001
812.4033, 5139.446
812.8854, 5133.904
813.3676, 5134.028
813.8497, 5135.255
814.3318, 5134.205
814.8139, 5130.811
815.2960, 5125.449
815.7781, 5114.034
816.2603, 5105.885
816.7424, 5108.397
817.2245, 5114.150
817.7066, 5115.245
818.1887, 5111.691
818.6708, 5107.235
819.1530, 5103.810
819.6351, 5100.519
820.1172, 5095.578
820.5993, 5089.435
821.0814, 5085.222
821.5635, 5083.245
822.0457, 5081.249
822.5278, 5078.313
823.0099, 5074.794
823.4920, 5071.330
823.9741, 5068.102
824.4562, 5063.112
824.9384, 5051.358
825.4205, 5044.430
825.9026, 5048.746
826.3847, 5055.010
826.8668, 5056.135
827.3489, 5052.475
827.8311, 5047.250
828.3132, 5040.652
828.7953, 5035.377
829.2774, 5034.510
829.7595, 5035.674
830.2416, 5035.664
830.7238, 5034.259
831.2059, 5032.135
831.6880, 5029.600
832.1701, 5026.803
832.6522, 5023.812
833.1343, 5020.653
833.6165, 5018.591
834.0985, 5018.265
834.5806, 5016.421
835.0627, 5011.494
835.5449, 5005.381
836.0270, 4999.596
836.5091, 4994.231
836.9912, 4990.413
837.4733, 4989.406
837.9554, 4988.215
838.4376, 4986.856
838.9197, 4984.630
839.4018, 4980.122
839.8839, 4974.495
840.3660, 4970.521
840.8481, 4969.299
841.3303, 4968.112
841.8124, 4963.826
842.2945, 4958.484
842.7766, 4956.335
843.2587, 4956.572
843.7408, 4954.513
844.2230, 4948.646
844.7051, 4942.219
845.1872, 4938.790
845.6693, 4937.978
846.1514, 4937.329
846.6335, 4936.932
847.1157, 4936.431
847.5978, 4935.969
848.0799, 4935.086
848.5620, 4934.066
849.0441, 4932.234
849.5262, 4927.702
850.0084, 4919.257
850.4905, 4911.239
850.9726, 4901.762
851.4547, 4895.708
851.9368, 4898.076
852.4189, 4904.674
852.9011, 4910.818
853.3832, 4914.744
853.8653, 4913.882
854.3474, 4902.807
854.8295, 4889.725
855.3116, 4889.907
855.7938, 4898.151
856.2759, 4895.987
856.7580, 4880.891
857.2401, 4866.894
857.7222, 4863.820
858.2043, 4867.111
858.6865, 4865.310
859.1686, 4856.604
859.6507, 4852.505
860.1328, 4855.802
860.6149, 4858.200
861.0970, 4856.278
861.5792, 4851.738
862.0613, 4846.119
862.5434, 4839.424
863.0255, 4833.852
863.5076, 4828.783
863.9897, 4825.942
864.4719, 4827.907
864.9540, 4830.736
865.4361, 4830.627
865.9182, 4828.165
866.4003, 4826.269
866.8824, 4826.303
867.3646, 4826.289
867.8467, 4824.436
868.3288, 4821.250
868.8109, 4816.973
869.2930, 4812.096
869.7751, 4808.952
870.2573, 4808.359
870.7394, 4807.586
871.2215, 4803.321
871.7036, 4796.409
872.1857, 4791.861
872.6678, 4790.175
873.1500, 4788.705
873.6321, 4787.542
874.1142, 4785.352
874.5963, 4780.047
875.0784, 4773.311
875.5605, 4770.161
876.0427, 4771.602
876.5248, 4773.324
877.0069, 4777.193
877.4890, 4778.814
877.9711, 4774.655
878.4532, 4768.212
878.9354, 4763.564
879.4175, 4761.027
879.8996, 4758.415
880.3817, 4753.981
880.8638, 4749.973
881.3459, 4749.391
881.8281, 4750.027
882.3102, 4748.422
882.7923, 4744.373
883.2744, 4738.576
883.7565, 4731.329
884.2386, 4725.064
884.7208, 4724.368
885.2029, 4728.333
885.6850, 4729.146
886.1671, 4726.653
886.6492, 4722.823
887.1313, 4717.821
887.6135, 4713.058
888.0956, 4710.082
888.5777, 4708.552
889.0598, 4705.948
889.5419, 4701.536
890.0240, 4697.382
890.5062, 4693.143
890.9883, 4689.609
891.4704, 4687.716
891.9525, 4686.411
892.4346, 4683.562
892.9167, 4678.775
893.3989, 4676.381
893.8810, 4681.216
894.3631, 4685.048
894.8452, 4681.675
895.3273, 4675.285
895.8094, 4671.282
896.2916, 4669.780
896.7737, 4667.578
897.2558, 4662.774
897.7379, 4657.777
898.2200, 4656.261
898.7021, 4656.638
899.1843, 4654.550
899.6664, 4650.132
900.1485, 4646.353
900.6306, 4644.308
901.1127, 4643.127
901.5948, 4642.004
902.0770, 4640.779
902.5591, 4638.107
903.0412, 4633.280
903.5233, 4630.262
904.0054, 4630.299
904.4875, 4630.909
904.9697, 4631.397
905.4518, 4630.952
905.9339, 4627.341
906.4160, 4619.227
906.8981, 4612.644
907.3802, 4608.309
907.8624, 4604.798
908.3445, 4601.169
908.8266, 4598.586
909.3087, 4599.397
909.7908, 4602.549
910.2729, 4603.557
910.7551, 4600.584
911.2372, 4595.834
911.7193, 4588.396
912.2014, 4581.585
912.6835, 4579.361
913.1656, 4580.696
913.6478, 4583.218
914.1299, 4585.898
914.6120, 4587.656
915.0941, 4588.085
915.5762, 4586.326
916.0583, 4578.525
916.5405, 4566.434
917.0226, 4559.858
917.5047, 4560.398
917.9868, 4561.397
918.4689, 4558.666
918.9510, 4554.220
919.4332, 4552.286
919.9153, 4553.269
920.3974, 4552.542
920.8795, 4549.561
921.3616, 4546.500
921.8438, 4543.542
922.3259, 4541.481
922.8080, 4542.049
923.2901, 4544.507
923.7722, 4543.446
924.2543, 4535.237
924.7365, 4529.401
925.2186, 4527.896
925.7007, 4527.056
926.1828, 4525.481
926.6649, 4523.280
927.1470, 4520.360
927.6292, 4516.811
928.1113, 4514.214
928.5934, 4513.167
929.0755, 4513.257
929.5576, 4516.229
930.0397, 4518.848
930.5219, 4516.333
931.0040, 4509.995
931.4861, 4505.019
931.9682, 4503.644
932.4503, 4502.627
932.9324, 4497.703
933.4146, 4491.405
933.8967, 4489.199
934.3788, 4490.065
934.8609, 4489.901
935.3430, 4487.740
935.8251, 4484.458
936.3073, 4480.554
936.7894, 4476.632
937.2715, 4474.353
937.7536, 4473.723
938.2357, 4472.540
938.7178, 4470.645
939.2000, 4468.248
939.6821, 4465.022
940.1642, 4462.281
940.6463, 4461.896
941.1284, 4463.589
941.6105, 4463.319
942.0927, 4459.496
942.5748, 4456.836
943.0569, 4456.748
943.5390, 4456.688
944.0211, 4454.515
944.5032, 4452.002
944.9854, 4452.814
945.4675, 4457.706
945.9496, 4458.616
946.4317, 4451.474
946.9138, 4443.697
947.3959, 4436.071
947.8781, 4430.467
948.3602, 4429.818
948.8423, 4432.362
949.3244, 4433.578
949.8065, 4432.017
950.2886, 4429.316
950.7708, 4425.564
951.2529, 4422.019
951.7350, 4420.360
952.2171, 4419.583
952.6992, 4417.218
953.1813, 4413.392
953.6635, 4411.164
954.1456, 4412.627
954.6277, 4415.672
955.1098, 4418.449
955.5919, 4420.293
956.0740, 4418.540
956.5562, 4413.732
957.0383, 4409.961
957.5204, 4408.625
958.0025, 4408.328
958.4846, 4407.752
958.9667, 4407.020
959.4489, 4407.143
959.9310, 4408.292
960.4131, 4404.954
960.8952, 4394.987
961.3773, 4389.591
961.8594, 4396.092
962.3416, 4405.698
962.8237, 4404.901
963.3058, 4393.479
963.7879, 4387.337
964.2700, 4389.830
964.7521, 4390.039
965.2343, 4384.404
965.7164, 4378.685
966.1985, 4376.638
966.6806, 4376.860
967.1627, 4376.710
967.6448, 4376.355
968.1270, 4374.823
968.6091, 4370.175
969.0912, 4366.841
969.5733, 4368.698
970.0554, 4370.157
970.5375, 4365.399
971.0197, 4356.482
971.5018, 4349.591
971.9839, 4346.210
972.4660, 4344.666
972.9481, 4346.147
973.4302, 4347.292
973.9124, 4344.948
974.3945, 4341.343
974.8766, 4340.115
975.3587, 4340.935
975.8408, 4339.774
976.3229, 4333.884
976.8051, 4328.519
977.2872, 4330.813
977.7693, 4334.583
978.2514, 4328.535
978.7335, 4317.229
979.2156, 4314.749
979.6978, 4323.401
980.1799, 4330.816
980.6620, 4326.959
981.1441, 4318.284
981.6262, 4315.696
982.1083, 4317.242
982.5905, 4315.865
983.0726, 4311.573
983.5547, 4309.701
984.0368, 4312.264
984.5189, 4315.417
985.0010, 4315.165
985.4832, 4311.990
985.9653, 4306.882
986.4474, 4299.833
986.9295, 4294.799
987.4116, 4292.315
987.8937, 4291.869
988.3759, 4293.891
988.8580, 4295.687
989.3401, 4292.980
989.8222, 4286.119
990.3043, 4283.181
990.7864, 4286.087
991.2686, 4286.348
991.7507, 4281.247
992.2328, 4276.425
992.7149, 4275.376
993.1970, 4276.407
993.6791, 4276.732
994.1613, 4276.360
994.6434, 4275.021
995.1255, 4270.122
995.6076, 4268.167
996.0897, 4274.030
996.5718, 4279.107
997.0540, 4276.873
997.5361, 4270.615
998.0182, 4267.102
998.5003, 4267.273
998.9824, 4266.973
999.4645, 4265.396
999.9467, 4263.555
1000.429, 4261.371
1000.911, 4259.413
1001.393, 4258.314
1001.875, 4257.772
1002.357, 4257.103
1002.839, 4256.212
1003.321, 4254.740
1003.804, 4251.517
1004.286, 4248.828
1004.768, 4249.508
1005.250, 4250.458
1005.732, 4247.060
1006.214, 4240.623
1006.696, 4236.658
1007.178, 4237.576
1007.661, 4238.927
1008.143, 4236.627
1008.625, 4234.426
1009.107, 4237.674
1009.589, 4242.746
1010.071, 4242.970
1010.553, 4238.412
1011.035, 4233.786
1011.517, 4231.391
1012.000, 4230.669
1012.482, 4232.000
1012.964, 4233.994
1013.446, 4234.652
1013.928, 4234.100
1014.410, 4232.192
1014.892, 4229.413
1015.374, 4228.854
1015.857, 4232.935
1016.339, 4236.765
1016.821, 4231.751
1017.303, 4221.516
1017.785, 4215.179
1018.267, 4212.846
1018.749, 4214.091
1019.231, 4218.464
1019.713, 4222.091
1020.196, 4222.032
1020.678, 4219.990
1021.160, 4218.725
1021.642, 4218.295
1022.124, 4219.800
1022.606, 4223.054
1023.088, 4223.154
1023.570, 4218.577
1024.052, 4212.688
1024.535, 4208.058
1025.017, 4204.466
1025.499, 4200.707
1025.981, 4196.704
1026.463, 4198.172
1026.945, 4206.068
1027.427, 4211.662
1027.909, 4212.024
1028.392, 4210.543
1028.874, 4210.204
1029.356, 4210.232
1029.838, 4207.771
1030.320, 4201.890
1030.802, 4199.013
1031.284, 4199.876
1031.766, 4201.503
1032.249, 4203.690
1032.731, 4204.539
1033.213, 4201.614
1033.695, 4196.444
1034.177, 4194.914
1034.659, 4199.195
1035.141, 4199.324
1035.623, 4192.134
1036.105, 4188.038
1036.588, 4192.186
1037.070, 4197.716
1037.552, 4198.550
1038.034, 4195.702
1038.516, 4193.091
1038.998, 4190.699
1039.480, 4188.661
1039.962, 4187.897
1040.444, 4185.928
1040.927, 4179.425
1041.409, 4174.085
1041.891, 4176.729
1042.373, 4184.744
1042.855, 4187.644
1043.337, 4182.752
1043.819, 4179.049
1044.301, 4176.871
1044.784, 4175.379
1045.266, 4174.169
1045.748, 4173.704
1046.230, 4174.965
1046.712, 4177.269
1047.194, 4178.342
1047.676, 4177.443
1048.158, 4177.114
1048.641, 4179.073
1049.123, 4179.733
1049.605, 4176.516
1050.087, 4172.829
1050.569, 4171.248
1051.051, 4171.614
1051.533, 4173.396
1052.015, 4177.399
1052.497, 4179.439
1052.979, 4177.847
1053.462, 4175.359
1053.944, 4170.334
1054.426, 4167.099
1054.908, 4171.667
1055.390, 4180.579
1055.872, 4184.415
1056.354, 4180.605
1056.836, 4177.926
1057.319, 4179.608
1057.801, 4181.482
1058.283, 4182.812
1058.765, 4182.797
1059.247, 4180.011
1059.729, 4175.578
1060.211, 4171.601
1060.693, 4168.333
1061.176, 4167.354
1061.658, 4171.791
1062.140, 4175.252
1062.622, 4173.518
1063.104, 4171.035
1063.586, 4172.730
1064.068, 4176.339
1064.550, 4175.972
1065.032, 4170.416
1065.515, 4167.150
1065.997, 4171.005
1066.479, 4175.066
1066.961, 4175.377
1067.443, 4175.435
1067.925, 4178.950
1068.407, 4184.085
1068.889, 4185.510
1069.371, 4182.775
1069.854, 4186.202
1070.336, 4198.308
1070.818, 4219.500
1071.300, 4247.475
1071.782, 4287.086
1072.264, 4345.440
1072.746, 4416.676
1073.228, 4500.748
1073.711, 4592.382
1074.193, 4659.793
1074.675, 4682.796
1075.157, 4691.649
1075.639, 4686.422
1076.121, 4686.727
1076.603, 4705.185
1077.085, 4740.688
1077.568, 4790.241
1078.050, 4853.453
1078.532, 4930.678
1079.014, 5023.347
1079.496, 5127.268
1079.978, 5243.759
1080.460, 5367.768
1080.942, 5497.306
1081.424, 5630.392
1081.906, 5755.587
1082.389, 5881.378
1082.871, 6040.031
1083.353, 6233.847
1083.835, 6488.763
1084.317, 6940.587
1084.799, 7315.055
1085.281, 7491.995
1085.763, 7458.797
1086.245, 7145.341
1086.728, 6626.429
1087.210, 6086.470
1087.692, 5559.456
1088.174, 5119.280
1088.656, 4807.112
1089.138, 4578.722
1089.620, 4434.740
1090.102, 4341.991
1090.585, 4281.413
1091.067, 4242.915
1091.549, 4215.507
1092.031, 4196.840
1092.513, 4180.811
1092.995, 4163.500
1093.477, 4150.362
1093.959, 4147.494
1094.442, 4146.255
1094.924, 4138.222
1095.406, 4127.249
1095.888, 4121.510
1096.370, 4121.972
1096.852, 4121.388
1097.334, 4115.107
1097.816, 4110.757
1098.298, 4113.476
1098.781, 4116.349
1099.263, 4114.206
1099.745, 4109.750
1100.227, 4106.721
1100.709, 4105.397
1101.191, 4104.374
1101.673, 4103.677
1102.155, 4102.436
1102.637, 4098.901
1103.120, 4096.490
1103.602, 4098.196
1104.084, 4100.903
1104.566, 4101.478
1105.048, 4100.029
1105.530, 4097.849
1106.012, 4094.573
1106.494, 4092.467
1106.977, 4093.554
1107.459, 4093.742
1107.941, 4089.489
1108.423, 4085.703
1108.905, 4087.985
1109.387, 4093.334
1109.869, 4094.501
1110.351, 4090.263
1110.833, 4086.381
1111.316, 4081.578
1111.798, 4079.948
1112.280, 4086.834
1112.762, 4092.345
1113.244, 4088.850
1113.726, 4081.318
1114.208, 4077.062
1114.690, 4076.291
1115.172, 4076.170
1115.655, 4077.128
1116.137, 4077.904
1116.619, 4077.676
1117.101, 4078.256
1117.583, 4081.873
1118.065, 4085.209
1118.547, 4084.135
1119.029, 4079.580
1119.512, 4076.559
1119.994, 4074.972
1120.476, 4075.335
1120.958, 4079.365
1121.440, 4081.944
1121.922, 4080.540
1122.404, 4079.026
1122.886, 4080.632
1123.369, 4084.178
1123.851, 4086.796
1124.333, 4088.458
1124.815, 4089.492
1125.297, 4089.624
1125.779, 4090.214
1126.261, 4092.077
1126.743, 4092.705
1127.225, 4090.186
1127.708, 4086.664
1128.190, 4085.096
1128.672, 4085.479
1129.154, 4088.223
1129.636, 4093.919
1130.118, 4097.409
1130.600, 4097.797
1131.082, 4098.683
1131.564, 4101.634
1132.047, 4104.850
1132.529, 4106.737
1133.011, 4107.090
1133.493, 4104.394
1133.975, 4098.809
1134.457, 4096.698
1134.939, 4098.208
1135.421, 4100.785
1135.904, 4103.794
1136.386, 4106.253
1136.868, 4107.443
1137.350, 4108.142
1137.832, 4109.641
1138.314, 4111.718
1138.796, 4113.261
1139.278, 4114.528
1139.760, 4117.240
1140.243, 4121.386
1140.725, 4124.521
1141.207, 4125.658
1141.689, 4127.255
1142.171, 4132.481
1142.653, 4138.479
1143.135, 4139.997
1143.617, 4138.336
1144.099, 4135.067
1144.582, 4131.566
1145.064, 4131.765
1145.546, 4136.205
1146.028, 4141.511
1146.510, 4145.722
1146.992, 4149.218
1147.474, 4151.190
1147.956, 4153.644
1148.439, 4161.100
1148.921, 4169.880
1149.403, 4172.500
1149.885, 4170.119
1150.367, 4170.329
1150.849, 4175.897
1151.331, 4180.856
1151.813, 4180.374
1152.296, 4179.102
1152.778, 4178.648
1153.260, 4180.608
1153.742, 4188.640
1154.224, 4199.322
1154.706, 4205.626
1155.188, 4207.235
1155.670, 4211.775
1156.152, 4224.742
1156.635, 4234.833
1157.117, 4234.693
1157.599, 4234.394
1158.081, 4239.995
1158.563, 4247.758
1159.045, 4253.174
1159.527, 4257.252
1160.009, 4264.909
1160.491, 4278.612
1160.974, 4286.881
1161.456, 4280.654
1161.938, 4280.297
1162.420, 4295.007
1162.902, 4310.961
1163.384, 4320.290
1163.866, 4326.729
1164.348, 4335.463
1164.831, 4346.381
1165.313, 4357.503
1165.795, 4369.175
1166.277, 4380.607
1166.759, 4392.642
1167.241, 4401.596
1167.723, 4403.882
1168.205, 4408.854
1168.688, 4425.868
1169.170, 4433.713
1169.652, 4448.284
1170.134, 4465.493
1170.616, 4479.542
1171.098, 4505.434
1171.580, 4525.177
1172.062, 4535.301
1172.544, 4545.229
1173.026, 4559.598
1173.509, 4576.636
1173.991, 4594.634
1174.473, 4613.359
1174.955, 4633.331
1175.437, 4653.562
1175.919, 4667.770
1176.401, 4677.384
1176.883, 4692.404
1177.366, 4714.514
1177.848, 4735.391
1178.330, 4749.640
1178.812, 4761.188
1179.294, 4773.964
1179.776, 4787.628
1180.258, 4801.440
1180.740, 4815.706
1181.223, 4832.912
1181.705, 4850.775
1182.187, 4861.945
1182.669, 4864.821
1183.151, 4868.227
1183.633, 4879.185
1184.115, 4888.941
1184.597, 4888.210
1185.079, 4887.427
1185.562, 4900.563
1186.044, 4915.653
1186.526, 4914.563
1187.008, 4899.556
1187.490, 4885.864
1187.972, 4876.464
1188.454, 4870.128
1188.936, 4872.230
1189.418, 4869.404
1189.901, 4854.895
1190.383, 4837.005
1190.865, 4820.131
1191.347, 4803.976
1191.829, 4787.434
1192.311, 4770.686
1192.793, 4757.249
1193.275, 4750.297
1193.758, 4738.463
1194.240, 4718.966
1194.722, 4701.092
1195.204, 4688.512
1195.686, 4675.641
1196.168, 4657.376
1196.650, 4646.656
1197.132, 4634.050
1197.615, 4621.795
1198.097, 4613.729
1198.579, 4602.138
1199.061, 4595.058
1199.543, 4593.344
1200.025, 4588.686
1200.507, 4577.871
1200.989, 4565.291
1201.471, 4554.328
1201.953, 4545.912
1202.436, 4542.022
1202.918, 4541.779
1203.400, 4546.648
1203.882, 4552.513
1204.364, 4546.369
1204.846, 4529.817
1205.328, 4517.634
1205.810, 4515.688
1206.293, 4516.252
1206.775, 4513.136
1207.257, 4510.726
1207.739, 4514.610
1208.221, 4518.998
1208.703, 4517.794
1209.185, 4513.369
1209.667, 4508.984
1210.150, 4505.592
1210.632, 4504.783
1211.114, 4507.908
1211.596, 4510.198
1212.078, 4506.773
1212.560, 4507.505
1213.042, 4521.319
1213.524, 4534.305
1214.006, 4534.985
1214.489, 4530.343
1214.971, 4530.019
1215.453, 4533.735
1215.935, 4538.167
1216.417, 4543.720
1216.899, 4548.548
1217.381, 4552.478
1217.863, 4555.962
1218.345, 4558.969
1218.828, 4562.361
1219.310, 4566.932
1219.792, 4571.307
1220.274, 4572.445
1220.756, 4571.722
1221.238, 4575.904
1221.720, 4584.226
1222.202, 4593.400
1222.685, 4602.536
1223.167, 4608.721
1223.649, 4611.365
1224.131, 4613.054
1224.613, 4615.227
1225.095, 4619.108
1225.577, 4627.873
1226.059, 4637.456
1226.542, 4641.985
1227.024, 4644.604
1227.506, 4649.445
1227.988, 4656.804
1228.470, 4666.548
1228.952, 4678.266
1229.434, 4688.628
1229.916, 4695.330
1230.398, 4702.049
1230.880, 4710.792
1231.363, 4718.740
1231.845, 4723.320
1232.327, 4727.290
1232.809, 4734.062
1233.291, 4737.733
1233.773, 4742.273
1234.255, 4747.478
1234.737, 4750.548
1235.220, 4757.032
1235.702, 4761.766
1236.184, 4763.106
1236.666, 4767.763
1237.148, 4779.436
1237.630, 4789.917
1238.112, 4791.689
1238.594, 4799.402
1239.077, 4794.221
1239.559, 4803.744
1240.041, 4805.013
1240.523, 4800.231
1241.005, 4800.418
1241.487, 4806.034
1241.969, 4811.212
1242.451, 4813.921
1242.933, 4816.095
1243.416, 4819.142
1243.898, 4822.020
1244.380, 4820.539
1244.862, 4821.527
1245.344, 4836.954
1245.826, 4855.689
1246.308, 4861.286
1246.790, 4857.920
1247.272, 4859.829
1247.755, 4869.603
1248.237, 4877.315
1248.719, 4876.653
1249.201, 4879.419
1249.683, 4890.401
1250.165, 4901.534
1250.647, 4910.147
1251.129, 4917.298
1251.612, 4923.292
1252.094, 4928.741
1252.576, 4934.835
1253.058, 4941.549
1253.540, 4949.458
1254.022, 4958.631
1254.504, 4967.368
1254.986, 4975.372
1255.469, 4986.979
1255.951, 5003.596
1256.433, 5019.711
1256.915, 5031.201
1257.397, 5041.420
1257.879, 5055.169
1258.361, 5070.973
1258.843, 5086.232
1259.325, 5101.288
1259.807, 5116.400
1260.290, 5131.896
1260.772, 5147.885
1261.254, 5164.837
1261.736, 5185.042
1262.218, 5210.550
1262.700, 5235.415
1263.182, 5254.865
1263.664, 5275.600
1264.147, 5300.064
1264.629, 5327.716
1265.111, 5359.013
1265.593, 5392.672
1266.075, 5427.114
1266.557, 5462.209
1267.039, 5496.274
1267.521, 5528.279
1268.004, 5563.201
1268.486, 5601.570
1268.968, 5640.618
1269.450, 5679.676
1269.932, 5721.384
1270.414, 5767.277
1270.896, 5814.807
1271.378, 5860.519
1271.860, 5906.736
1272.343, 5959.453
1272.825, 6016.509
1273.307, 6075.326
1273.789, 6133.422
1274.271, 6183.981
1274.753, 6227.924
1275.235, 6272.149
1275.717, 6319.135
1276.199, 6367.482
1276.682, 6419.498
1277.164, 6468.188
1277.646, 6507.995
1278.128, 6546.525
1278.610, 6592.134
1279.092, 6636.365
1279.574, 6671.711
1280.056, 6698.079
1280.539, 6715.356
1281.021, 6723.072
1281.503, 6729.269
1281.985, 6734.437
1282.467, 6737.023
1282.949, 6737.167
1283.431, 6731.204
1283.913, 6717.568
1284.396, 6699.229
1284.878, 6677.986
1285.360, 6653.378
1285.842, 6624.708
1286.324, 6592.736
1286.806, 6562.462
##END=



