##NAMES=Calcioburbankite
##RRUFFID=R070023
##IDEAL CHEMISTRY=Na_3_(Ca,Ce^3+^,Sr,La^3+^)_3_(C^4+^O_3_)_5_
##LOCALITY=Vuoriyarvi Massif, Murmansk region, Russia
##OWNER=RRUFF
##SOURCE=Michael Scott
##DESCRIPTION=Pale orange vitreous massive embedded in white dolomite
##STATUS=The identification of this mineral is confirmed by single-crystal X-ray diffraction and chemical analysis.
##URL=rruff.info/R070023
##MEASURED CHEMISTRY=(Na_2.89_Ca_0.11_)_Σ=3_(Ca_0.91_Sr_0.67_Ba_0.53_Ce_0.51_La_0.26_Nd_0.12_)_Σ=3_(CO_3_)_5_; CO_2_ estimated by difference
146.8074, 3925.246
147.2895, 3996.064
147.7716, 4075.652
148.2537, 4151.352
148.7358, 4221.542
149.2180, 4287.541
149.7001, 4350.041
150.1822, 4405.187
150.6643, 4461.725
151.1464, 4521.624
151.6285, 4583.083
152.1107, 4640.528
152.5928, 4700.017
153.0749, 4751.019
153.5570, 4788.387
154.0391, 4800.921
154.5212, 4811.838
155.0034, 4828.053
155.4855, 4847.933
155.9676, 4856.272
156.4497, 4842.453
156.9318, 4819.733
157.4139, 4798.291
157.8961, 4780.653
158.3782, 4764.314
158.8603, 4748.854
159.3424, 4734.141
159.8245, 4719.624
160.3066, 4698.773
160.7887, 4679.792
161.2709, 4672.151
161.7530, 4687.983
162.2351, 4709.243
162.7172, 4727.701
163.1993, 4742.504
163.6814, 4754.515
164.1636, 4762.031
164.6457, 4767.047
165.1278, 4773.460
165.6099, 4782.029
166.0920, 4793.198
166.5741, 4807.959
167.0563, 4828.221
167.5384, 4848.387
168.0205, 4865.827
168.5026, 4880.485
168.9847, 4891.907
169.4668, 4900.575
169.9490, 4905.655
170.4311, 4904.981
170.9132, 4890.659
171.3953, 4879.084
171.8774, 4890.945
172.3595, 4923.033
172.8416, 4950.429
173.3238, 4950.107
173.8059, 4934.492
174.2880, 4923.839
174.7701, 4934.864
175.2522, 4948.660
175.7343, 4940.338
176.2165, 4909.684
176.6986, 4872.701
177.1807, 4837.967
177.6628, 4807.065
178.1449, 4783.009
178.6270, 4769.448
179.1092, 4763.105
179.5913, 4758.551
180.0734, 4755.719
180.5555, 4754.332
181.0376, 4754.985
181.5197, 4757.148
182.0019, 4758.564
182.4840, 4757.933
182.9661, 4755.673
183.4482, 4753.342
183.9303, 4751.568
184.4124, 4748.243
184.8945, 4735.823
185.3767, 4715.894
185.8588, 4702.903
186.3409, 4712.014
186.8230, 4737.622
187.3051, 4754.568
187.7872, 4758.176
188.2694, 4754.166
188.7515, 4753.744
189.2336, 4757.033
189.7157, 4759.883
190.1978, 4757.848
190.6799, 4751.685
191.1621, 4749.046
191.6442, 4752.614
192.1263, 4759.772
192.6084, 4762.043
193.0905, 4758.713
193.5726, 4755.378
194.0548, 4758.195
194.5369, 4767.103
195.0190, 4773.800
195.5011, 4775.550
195.9832, 4773.475
196.4653, 4774.017
196.9474, 4777.968
197.4296, 4781.856
197.9117, 4780.797
198.3938, 4774.105
198.8759, 4769.939
199.3580, 4771.295
199.8401, 4777.833
200.3223, 4784.722
200.8044, 4792.390
201.2865, 4799.534
201.7686, 4803.870
202.2507, 4804.933
202.7328, 4806.122
203.2150, 4810.184
203.6971, 4817.652
204.1792, 4817.054
204.6613, 4805.597
205.1434, 4789.756
205.6255, 4779.468
206.1077, 4774.042
206.5898, 4776.336
207.0719, 4791.356
207.5540, 4823.449
208.0361, 4842.885
208.5182, 4845.344
209.0004, 4838.252
209.4825, 4839.393
209.9646, 4852.794
210.4467, 4864.055
210.9288, 4862.313
211.4109, 4840.002
211.8931, 4836.976
212.3752, 4864.028
212.8573, 4908.089
213.3394, 4928.063
213.8215, 4914.260
214.3036, 4895.838
214.7858, 4888.606
215.2679, 4893.327
215.7500, 4907.326
216.2321, 4934.203
216.7142, 4970.210
217.1963, 4998.911
217.6785, 5017.829
218.1606, 5033.050
218.6427, 5048.885
219.1248, 5066.186
219.6069, 5081.240
220.0890, 5092.626
220.5712, 5100.925
221.0533, 5111.922
221.5354, 5126.420
222.0175, 5142.437
222.4996, 5158.792
222.9817, 5176.749
223.4638, 5192.800
223.9460, 5208.444
224.4281, 5223.401
224.9102, 5224.388
225.3923, 5203.348
225.8744, 5177.708
226.3565, 5164.800
226.8387, 5175.492
227.3208, 5176.399
227.8029, 5160.685
228.2850, 5127.986
228.7671, 5088.060
229.2492, 5030.653
229.7314, 4975.219
230.2135, 4944.343
230.6956, 4950.325
231.1777, 4956.648
231.6598, 4956.512
232.1419, 4949.708
232.6241, 4937.826
233.1062, 4918.582
233.5883, 4896.054
234.0704, 4875.221
234.5525, 4854.324
235.0346, 4838.065
235.5167, 4828.530
235.9989, 4826.915
236.4810, 4824.457
236.9631, 4820.493
237.4452, 4816.150
237.9273, 4813.882
238.4094, 4818.264
238.8916, 4816.491
239.3737, 4801.161
239.8558, 4765.223
240.3379, 4748.861
240.8200, 4761.504
241.3021, 4787.786
241.7843, 4804.295
242.2664, 4807.708
242.7485, 4806.650
243.2306, 4803.421
243.7127, 4797.939
244.1948, 4790.021
244.6770, 4776.300
245.1591, 4762.015
245.6412, 4757.229
246.1233, 4767.925
246.6054, 4778.177
247.0875, 4782.093
247.5696, 4777.114
248.0518, 4774.631
248.5339, 4777.411
249.0160, 4781.255
249.4981, 4777.020
249.9802, 4758.130
250.4623, 4742.118
250.9445, 4736.283
251.4266, 4744.920
251.9087, 4750.825
252.3908, 4755.337
252.8729, 4756.467
253.3550, 4748.324
253.8372, 4723.729
254.3193, 4702.624
254.8014, 4692.567
255.2835, 4694.987
255.7656, 4704.931
256.2477, 4725.177
256.7299, 4751.699
257.2120, 4776.349
257.6941, 4802.525
258.1762, 4820.885
258.6583, 4825.536
259.1404, 4809.162
259.6226, 4800.940
260.1047, 4800.977
260.5868, 4809.060
261.0689, 4826.895
261.5510, 4860.739
262.0331, 4891.706
262.5153, 4908.748
262.9974, 4904.862
263.4795, 4912.720
263.9616, 4935.563
264.4437, 4968.607
264.9258, 4999.913
265.4079, 5028.569
265.8900, 5058.552
266.3722, 5091.757
266.8543, 5129.573
267.3364, 5165.563
267.8185, 5197.066
268.3006, 5228.897
268.7827, 5273.875
269.2649, 5336.390
269.7470, 5400.881
270.2291, 5458.426
270.7112, 5506.714
271.1933, 5563.045
271.6754, 5631.756
272.1576, 5705.324
272.6397, 5760.526
273.1218, 5789.886
273.6039, 5828.383
274.0860, 5902.466
274.5681, 6017.430
275.0503, 6108.088
275.5324, 6166.814
276.0145, 6206.193
276.4966, 6250.856
276.9787, 6300.841
277.4608, 6354.943
277.9430, 6417.151
278.4251, 6487.669
278.9072, 6544.710
279.3893, 6586.851
279.8714, 6615.778
280.3535, 6636.890
280.8357, 6651.520
281.3178, 6648.168
281.7999, 6618.810
282.2820, 6563.598
282.7641, 6494.573
283.2462, 6408.223
283.7284, 6315.360
284.2105, 6238.316
284.6926, 6177.919
285.1747, 6111.122
285.6568, 6018.324
286.1389, 5903.905
286.6211, 5810.677
287.1032, 5742.366
287.5853, 5689.153
288.0674, 5638.393
288.5495, 5590.042
289.0316, 5542.884
289.5137, 5493.132
289.9958, 5443.411
290.4780, 5408.299
290.9601, 5391.344
291.4422, 5380.053
291.9243, 5359.630
292.4064, 5330.469
292.8885, 5295.632
293.3707, 5254.002
293.8528, 5207.994
294.3349, 5161.394
294.8170, 5113.861
295.2991, 5070.182
295.7813, 5037.502
296.2634, 5014.440
296.7455, 4996.063
297.2276, 4986.408
297.7097, 4978.618
298.1918, 4958.291
298.6740, 4923.867
299.1561, 4885.021
299.6382, 4854.354
300.1203, 4827.809
300.6024, 4795.205
301.0845, 4744.862
301.5667, 4688.423
302.0488, 4640.840
302.5309, 4603.648
303.0130, 4570.878
303.4951, 4537.529
303.9772, 4505.217
304.4594, 4477.967
304.9415, 4462.732
305.4236, 4450.173
305.9057, 4429.283
306.3878, 4399.940
306.8699, 4370.314
307.3521, 4345.289
307.8342, 4323.859
308.3163, 4304.018
308.7984, 4283.518
309.2805, 4265.661
309.7626, 4255.338
310.2448, 4252.257
310.7269, 4246.009
311.2090, 4225.825
311.6911, 4200.587
312.1732, 4180.468
312.6553, 4175.374
313.1375, 4170.855
313.6196, 4158.891
314.1017, 4139.961
314.5838, 4120.037
315.0659, 4100.389
315.5480, 4081.580
316.0301, 4063.878
316.5122, 4049.771
316.9944, 4034.615
317.4765, 4015.563
317.9586, 3993.344
318.4407, 3972.847
318.9228, 3957.736
319.4049, 3943.446
319.8871, 3926.698
320.3692, 3897.639
320.8513, 3876.989
321.3334, 3878.021
321.8155, 3893.859
322.2976, 3897.046
322.7798, 3871.167
323.2619, 3838.994
323.7440, 3811.746
324.2261, 3793.744
324.7082, 3776.323
325.1903, 3760.076
325.6725, 3744.034
326.1546, 3725.322
326.6367, 3691.428
327.1188, 3665.379
327.6009, 3657.147
328.0830, 3684.177
328.5652, 3697.880
329.0473, 3690.456
329.5294, 3671.167
330.0115, 3659.516
330.4936, 3667.847
330.9757, 3668.721
331.4579, 3650.106
331.9400, 3601.191
332.4221, 3568.656
332.9042, 3557.910
333.3863, 3560.285
333.8684, 3564.428
334.3506, 3574.696
334.8327, 3577.641
335.3148, 3566.629
335.7969, 3539.826
336.2790, 3520.598
336.7611, 3509.276
337.2433, 3505.092
337.7254, 3509.874
338.2075, 3527.809
338.6896, 3538.427
339.1717, 3535.439
339.6538, 3519.967
340.1359, 3501.822
340.6180, 3479.472
341.1002, 3459.512
341.5823, 3450.643
342.0644, 3453.281
342.5465, 3454.333
343.0286, 3449.596
343.5107, 3441.714
343.9929, 3440.190
344.4750, 3445.617
344.9571, 3451.278
345.4392, 3450.692
345.9213, 3444.968
346.4034, 3440.576
346.8856, 3439.250
347.3677, 3439.309
347.8498, 3437.154
348.3319, 3433.061
348.8140, 3430.254
349.2961, 3432.312
349.7783, 3437.206
350.2604, 3438.623
350.7425, 3433.094
351.2246, 3430.555
351.7067, 3453.126
352.1888, 3491.708
352.6710, 3514.229
353.1531, 3486.741
353.6352, 3439.567
354.1173, 3410.141
354.5994, 3403.940
355.0815, 3408.854
355.5637, 3421.735
356.0458, 3438.795
356.5279, 3452.818
357.0100, 3460.666
357.4921, 3464.140
357.9742, 3462.823
358.4564, 3456.325
358.9385, 3451.527
359.4206, 3456.113
359.9027, 3463.013
360.3848, 3464.049
360.8669, 3450.592
361.3491, 3436.178
361.8312, 3423.591
362.3133, 3413.268
362.7954, 3411.491
363.2775, 3427.497
363.7596, 3448.553
364.2417, 3465.253
364.7238, 3471.642
365.2060, 3478.184
365.6881, 3488.703
366.1702, 3501.867
366.6523, 3509.504
367.1344, 3506.613
367.6165, 3501.435
368.0987, 3497.759
368.5808, 3495.151
369.0629, 3494.852
369.5450, 3499.376
370.0271, 3505.976
370.5092, 3507.271
370.9914, 3497.549
371.4735, 3490.235
371.9556, 3491.446
372.4377, 3505.441
372.9198, 3512.698
373.4019, 3510.868
373.8841, 3504.488
374.3662, 3499.290
374.8483, 3493.743
375.3304, 3494.508
375.8125, 3506.250
376.2946, 3528.525
376.7768, 3542.842
377.2589, 3548.003
377.7410, 3548.743
378.2231, 3550.647
378.7052, 3553.855
379.1873, 3552.112
379.6695, 3540.285
380.1516, 3524.269
380.6337, 3523.108
381.1158, 3537.316
381.5979, 3555.958
382.0800, 3573.824
382.5622, 3589.659
383.0443, 3596.401
383.5264, 3590.470
384.0085, 3579.789
384.4906, 3577.209
384.9727, 3580.921
385.4549, 3581.888
385.9370, 3570.289
386.4191, 3553.957
386.9012, 3543.873
387.3833, 3541.368
387.8654, 3544.816
388.3475, 3557.301
388.8297, 3574.547
389.3118, 3588.446
389.7939, 3592.706
390.2760, 3593.818
390.7581, 3597.638
391.2402, 3604.690
391.7224, 3607.674
392.2045, 3596.299
392.6866, 3581.553
393.1687, 3574.879
393.6508, 3587.757
394.1329, 3601.319
394.6151, 3608.260
395.0972, 3609.485
395.5793, 3612.307
396.0614, 3619.115
396.5435, 3627.527
397.0256, 3636.240
397.5078, 3648.918
397.9899, 3657.053
398.4720, 3655.052
398.9541, 3647.944
399.4362, 3649.049
399.9183, 3668.468
400.4005, 3684.546
400.8826, 3687.736
401.3647, 3670.911
401.8468, 3665.640
402.3289, 3676.271
402.8110, 3694.851
403.2932, 3711.250
403.7753, 3725.885
404.2574, 3736.927
404.7395, 3742.408
405.2216, 3742.925
405.7037, 3748.714
406.1859, 3761.600
406.6680, 3774.282
407.1501, 3778.402
407.6322, 3773.995
408.1143, 3774.319
408.5964, 3784.549
409.0786, 3798.140
409.5607, 3797.929
410.0428, 3784.313
410.5249, 3770.654
411.0070, 3763.281
411.4891, 3762.898
411.9713, 3774.923
412.4534, 3803.857
412.9355, 3830.987
413.4176, 3832.231
413.8997, 3814.393
414.3818, 3797.141
414.8639, 3789.673
415.3460, 3787.265
415.8282, 3788.243
416.3103, 3792.682
416.7924, 3790.801
417.2745, 3766.164
417.7566, 3735.273
418.2387, 3717.188
418.7209, 3733.942
419.2030, 3749.594
419.6851, 3742.458
420.1672, 3718.396
420.6493, 3707.714
421.1314, 3737.165
421.6136, 3770.218
422.0957, 3785.339
422.5778, 3763.863
423.0599, 3750.002
423.5420, 3750.887
424.0241, 3762.002
424.5063, 3773.997
424.9884, 3793.213
425.4705, 3806.110
425.9526, 3808.233
426.4347, 3798.182
426.9168, 3784.846
427.3990, 3763.568
427.8811, 3744.130
428.3632, 3739.222
428.8453, 3754.497
429.3274, 3764.669
429.8095, 3762.398
430.2917, 3751.632
430.7738, 3752.738
431.2559, 3767.852
431.7380, 3783.587
432.2201, 3788.059
432.7022, 3782.773
433.1844, 3784.435
433.6665, 3795.653
434.1486, 3812.251
434.6307, 3831.441
435.1128, 3851.795
435.5949, 3865.033
436.0771, 3865.119
436.5592, 3856.066
437.0413, 3839.550
437.5234, 3815.025
438.0055, 3799.429
438.4876, 3816.960
438.9697, 3849.594
439.4518, 3870.403
439.9340, 3862.406
440.4161, 3847.999
440.8982, 3837.832
441.3803, 3832.399
441.8624, 3833.810
442.3445, 3854.223
442.8267, 3874.326
443.3088, 3879.035
443.7909, 3854.341
444.2730, 3840.494
444.7551, 3856.945
445.2372, 3887.654
445.7194, 3906.631
446.2015, 3900.616
446.6836, 3892.396
447.1657, 3885.434
447.6478, 3879.303
448.1299, 3879.816
448.6121, 3892.794
449.0942, 3906.475
449.5763, 3910.145
450.0584, 3898.886
450.5405, 3891.353
451.0226, 3889.295
451.5048, 3892.526
451.9869, 3902.844
452.4690, 3922.235
452.9511, 3938.235
453.4332, 3940.135
453.9153, 3929.638
454.3975, 3929.689
454.8796, 3942.338
455.3617, 3960.090
455.8438, 3978.714
456.3259, 3995.908
456.8080, 4000.338
457.2902, 3978.166
457.7723, 3947.525
458.2544, 3934.828
458.7365, 3938.821
459.2186, 3946.977
459.7007, 3951.047
460.1829, 3954.217
460.6650, 3961.190
461.1471, 3976.455
461.6292, 3987.848
462.1113, 3982.757
462.5934, 3968.949
463.0755, 3961.457
463.5576, 3970.283
464.0398, 3982.472
464.5219, 3992.856
465.0040, 4000.898
465.4861, 4008.339
465.9682, 4014.183
466.4503, 4020.227
466.9325, 4028.143
467.4146, 4041.915
467.8967, 4051.906
468.3788, 4057.275
468.8609, 4058.207
469.3430, 4053.688
469.8252, 4037.733
470.3073, 4027.993
470.7894, 4036.360
471.2715, 4066.824
471.7536, 4085.466
472.2357, 4090.517
472.7179, 4087.667
473.2000, 4081.422
473.6821, 4072.022
474.1642, 4068.426
474.6463, 4075.811
475.1284, 4089.083
475.6106, 4095.571
476.0927, 4095.817
476.5748, 4097.802
477.0569, 4113.860
477.5390, 4133.777
478.0211, 4138.591
478.5033, 4120.530
478.9854, 4102.710
479.4675, 4108.231
479.9496, 4126.906
480.4317, 4139.708
480.9138, 4131.390
481.3960, 4120.913
481.8781, 4120.203
482.3602, 4129.532
482.8423, 4135.885
483.3244, 4127.963
483.8065, 4120.299
484.2887, 4123.086
484.7708, 4148.749
485.2529, 4171.218
485.7350, 4190.078
486.2171, 4205.048
486.6992, 4215.079
487.1813, 4220.165
487.6635, 4220.364
488.1456, 4214.676
488.6277, 4202.654
489.1098, 4190.143
489.5919, 4174.551
490.0740, 4164.547
490.5562, 4171.242
491.0383, 4194.656
491.5204, 4219.397
492.0025, 4245.268
492.4846, 4266.929
492.9667, 4270.005
493.4489, 4256.109
493.9310, 4240.811
494.4131, 4233.273
494.8952, 4230.287
495.3773, 4225.738
495.8594, 4218.741
496.3416, 4215.523
496.8237, 4221.371
497.3058, 4233.929
497.7879, 4249.970
498.2700, 4273.857
498.7521, 4295.699
499.2343, 4312.948
499.7164, 4324.963
500.1985, 4329.626
500.6806, 4320.364
501.1627, 4308.399
501.6448, 4298.200
502.1270, 4287.660
502.6091, 4285.477
503.0912, 4299.945
503.5733, 4317.899
504.0554, 4323.365
504.5375, 4308.333
505.0197, 4297.743
505.5018, 4296.591
505.9839, 4303.293
506.4660, 4311.397
506.9481, 4321.772
507.4302, 4329.831
507.9124, 4330.034
508.3945, 4323.646
508.8766, 4325.818
509.3587, 4338.815
509.8408, 4354.538
510.3229, 4364.487
510.8051, 4369.298
511.2871, 4371.054
511.7693, 4371.515
512.2514, 4368.404
512.7335, 4354.075
513.2156, 4331.845
513.6978, 4317.186
514.1799, 4324.417
514.6620, 4339.789
515.1441, 4352.275
515.6262, 4358.698
516.1083, 4367.292
516.5905, 4382.906
517.0726, 4401.463
517.5547, 4418.022
518.0368, 4437.369
518.5189, 4448.311
519.0010, 4447.838
519.4832, 4436.807
519.9653, 4421.084
520.4474, 4391.817
520.9295, 4371.073
521.4116, 4373.732
521.8937, 4405.847
522.3759, 4429.197
522.8580, 4441.905
523.3401, 4448.550
523.8221, 4453.996
524.3043, 4458.336
524.7864, 4463.878
525.2685, 4473.704
525.7506, 4483.158
526.2327, 4479.279
526.7148, 4464.068
527.1970, 4452.189
527.6791, 4459.315
528.1612, 4472.982
528.6433, 4475.848
529.1254, 4463.756
529.6075, 4453.583
530.0897, 4455.865
530.5718, 4466.098
531.0539, 4478.682
531.5360, 4496.720
532.0181, 4511.958
532.5002, 4521.488
532.9824, 4525.879
533.4645, 4529.558
533.9466, 4537.182
534.4287, 4539.639
534.9108, 4529.638
535.3929, 4498.354
535.8751, 4492.754
536.3572, 4524.825
536.8393, 4566.456
537.3214, 4584.827
537.8035, 4577.095
538.2856, 4572.720
538.7678, 4579.592
539.2499, 4591.171
539.7320, 4588.680
540.2141, 4573.459
540.6962, 4562.672
541.1783, 4568.413
541.6605, 4584.940
542.1426, 4607.875
542.6247, 4637.818
543.1068, 4655.964
543.5889, 4628.268
544.0710, 4587.929
544.5532, 4576.229
545.0353, 4627.072
545.5174, 4677.341
545.9995, 4703.469
546.4816, 4710.274
546.9637, 4709.487
547.4459, 4695.339
547.9280, 4681.785
548.4101, 4671.277
548.8922, 4663.188
549.3743, 4667.960
549.8564, 4696.656
550.3386, 4724.253
550.8207, 4727.774
551.3028, 4699.141
551.7849, 4688.026
552.2670, 4702.901
552.7491, 4730.078
553.2313, 4749.747
553.7134, 4761.703
554.1955, 4761.960
554.6776, 4741.125
555.1597, 4711.153
555.6418, 4697.151
556.1240, 4697.821
556.6061, 4700.508
557.0882, 4690.879
557.5703, 4681.359
558.0524, 4688.856
558.5345, 4722.676
559.0167, 4750.021
559.4988, 4746.310
559.9809, 4729.938
560.4630, 4724.697
560.9451, 4749.586
561.4272, 4771.093
561.9094, 4781.129
562.3915, 4781.645
562.8736, 4781.684
563.3557, 4778.951
563.8378, 4779.117
564.3199, 4784.013
564.8021, 4793.406
565.2842, 4812.385
565.7663, 4844.904
566.2484, 4875.653
566.7305, 4883.302
567.2126, 4870.731
567.6948, 4867.191
568.1769, 4883.426
568.6590, 4902.743
569.1411, 4896.437
569.6232, 4871.365
570.1053, 4851.039
570.5875, 4850.719
571.0696, 4858.075
571.5517, 4862.292
572.0338, 4863.129
572.5159, 4867.126
572.9980, 4882.583
573.4801, 4898.803
573.9622, 4907.078
574.4443, 4896.124
574.9265, 4895.372
575.4086, 4917.896
575.8907, 4947.244
576.3728, 4961.331
576.8549, 4953.202
577.3370, 4944.250
577.8192, 4937.886
578.3013, 4934.148
578.7834, 4933.754
579.2655, 4937.165
579.7476, 4940.738
580.2297, 4941.660
580.7119, 4940.844
581.1940, 4940.591
581.6761, 4940.721
582.1582, 4944.800
582.6403, 4956.724
583.1224, 4974.814
583.6046, 4997.328
584.0867, 5030.584
584.5688, 5057.063
585.0509, 5064.160
585.5330, 5056.813
586.0151, 5045.462
586.4973, 5022.504
586.9794, 5006.528
587.4615, 5007.070
587.9436, 5024.917
588.4257, 5038.626
588.9078, 5047.818
589.3900, 5053.328
589.8721, 5054.259
590.3542, 5048.290
590.8363, 5048.426
591.3184, 5055.945
591.8005, 5067.352
592.2827, 5079.652
592.7648, 5092.542
593.2469, 5102.914
593.7290, 5109.878
594.2111, 5113.972
594.6932, 5115.174
595.1754, 5114.049
595.6575, 5112.764
596.1396, 5106.431
596.6217, 5104.714
597.1038, 5119.193
597.5859, 5150.439
598.0681, 5177.726
598.5502, 5190.935
599.0323, 5198.679
599.5144, 5207.057
599.9965, 5217.746
600.4786, 5227.622
600.9608, 5237.375
601.4429, 5245.961
601.9250, 5251.959
602.4071, 5255.611
602.8892, 5255.326
603.3713, 5248.130
603.8535, 5238.271
604.3356, 5240.852
604.8177, 5255.842
605.2998, 5272.355
605.7819, 5281.747
606.2640, 5288.638
606.7462, 5307.171
607.2283, 5337.875
607.7104, 5358.280
608.1925, 5338.073
608.6746, 5305.408
609.1567, 5291.653
609.6389, 5313.505
610.1210, 5334.815
610.6031, 5341.112
611.0852, 5339.425
611.5673, 5340.467
612.0494, 5346.066
612.5316, 5353.796
613.0137, 5364.495
613.4958, 5377.117
613.9779, 5387.151
614.4600, 5394.434
614.9421, 5399.413
615.4243, 5402.308
615.9064, 5403.125
616.3885, 5400.785
616.8706, 5394.863
617.3527, 5390.885
617.8348, 5393.570
618.3170, 5402.059
618.7991, 5416.243
619.2812, 5439.201
619.7633, 5458.458
620.2454, 5461.278
620.7275, 5454.911
621.2097, 5450.546
621.6918, 5451.976
622.1739, 5455.850
622.6559, 5459.883
623.1381, 5465.131
623.6202, 5477.253
624.1023, 5505.655
624.5844, 5528.302
625.0665, 5536.209
625.5486, 5528.803
626.0308, 5520.493
626.5129, 5509.488
626.9950, 5503.528
627.4771, 5512.880
627.9592, 5534.340
628.4413, 5549.323
628.9235, 5555.125
629.4056, 5556.610
629.8877, 5557.338
630.3698, 5557.895
630.8519, 5559.308
631.3340, 5560.524
631.8162, 5564.333
632.2983, 5577.827
632.7804, 5595.734
633.2625, 5602.857
633.7446, 5568.934
634.2267, 5550.231
634.7089, 5576.667
635.1910, 5648.665
635.6731, 5684.700
636.1552, 5669.578
636.6373, 5645.706
637.1194, 5638.160
637.6016, 5647.367
638.0837, 5664.409
638.5658, 5691.059
639.0479, 5716.603
639.5300, 5726.852
640.0121, 5726.079
640.4943, 5727.394
640.9764, 5735.792
641.4585, 5743.946
641.9406, 5745.232
642.4227, 5741.324
642.9048, 5735.551
643.3870, 5722.151
643.8691, 5714.061
644.3512, 5718.947
644.8333, 5735.528
645.3154, 5749.308
645.7975, 5754.175
646.2797, 5762.511
646.7618, 5781.340
647.2439, 5811.960
647.7260, 5834.618
648.2081, 5848.045
648.6902, 5856.905
649.1724, 5867.554
649.6545, 5878.061
650.1366, 5874.715
650.6187, 5852.711
651.1008, 5829.506
651.5829, 5820.260
652.0651, 5823.770
652.5472, 5838.202
653.0293, 5879.581
653.5114, 5912.741
653.9935, 5908.373
654.4756, 5881.961
654.9578, 5874.054
655.4399, 5920.316
655.9220, 5957.543
656.4041, 5965.731
656.8862, 5946.654
657.3683, 5931.719
657.8505, 5920.015
658.3326, 5915.277
658.8147, 5920.426
659.2968, 5935.147
659.7789, 5957.084
660.2610, 5987.323
660.7432, 6015.425
661.2253, 6032.484
661.7074, 6039.634
662.1895, 6037.666
662.6716, 6024.732
663.1537, 6008.729
663.6359, 5983.051
664.1180, 5960.956
664.6001, 5961.190
665.0822, 6018.881
665.5643, 6065.366
666.0464, 6079.977
666.5286, 6072.891
667.0107, 6070.738
667.4928, 6073.403
667.9749, 6081.456
668.4570, 6096.507
668.9391, 6117.345
669.4213, 6139.535
669.9034, 6163.728
670.3855, 6178.399
670.8676, 6168.532
671.3497, 6145.007
671.8318, 6128.711
672.3139, 6120.977
672.7960, 6120.411
673.2781, 6131.086
673.7603, 6145.681
674.2424, 6157.283
674.7245, 6164.365
675.2066, 6168.596
675.6887, 6164.340
676.1708, 6160.082
676.6530, 6166.160
677.1351, 6183.797
677.6172, 6210.158
678.0993, 6249.126
678.5814, 6293.389
679.0635, 6324.818
679.5457, 6343.572
680.0278, 6356.690
680.5099, 6364.557
680.9920, 6370.410
681.4741, 6379.797
681.9562, 6392.576
682.4384, 6408.472
682.9205, 6432.641
683.4026, 6455.842
683.8847, 6469.952
684.3668, 6474.104
684.8489, 6477.157
685.3311, 6475.453
685.8132, 6478.204
686.2953, 6491.282
686.7774, 6518.945
687.2595, 6545.229
687.7416, 6569.603
688.2238, 6593.532
688.7059, 6619.124
689.1880, 6646.084
689.6701, 6669.388
690.1522, 6688.538
690.6343, 6702.146
691.1165, 6700.742
691.5986, 6692.474
692.0807, 6696.573
692.5628, 6731.701
693.0449, 6769.883
693.5270, 6797.348
694.0092, 6815.517
694.4913, 6828.769
694.9734, 6825.764
695.4555, 6831.221
695.9376, 6854.347
696.4197, 6893.120
696.9019, 6930.852
697.3840, 6970.710
697.8661, 7000.068
698.3482, 7004.746
698.8303, 6989.861
699.3124, 6991.363
699.7946, 7009.602
700.2767, 7037.863
700.7588, 7077.515
701.2409, 7121.097
701.7230, 7158.858
702.2051, 7189.163
702.6873, 7214.184
703.1694, 7232.907
703.6515, 7247.987
704.1336, 7261.810
704.6157, 7267.254
705.0978, 7282.334
705.5800, 7311.759
706.0621, 7347.753
706.5442, 7379.586
707.0263, 7407.112
707.5084, 7431.326
707.9905, 7451.905
708.4727, 7469.687
708.9548, 7481.849
709.4369, 7491.353
709.9190, 7511.203
710.4011, 7564.140
710.8832, 7617.422
711.3654, 7637.426
711.8475, 7630.646
712.3296, 7625.885
712.8117, 7643.178
713.2938, 7655.737
713.7759, 7649.287
714.2581, 7623.245
714.7402, 7599.636
715.2223, 7578.986
715.7044, 7559.382
716.1865, 7540.183
716.6686, 7521.452
717.1508, 7496.127
717.6329, 7463.022
718.1150, 7435.236
718.5971, 7432.786
719.0792, 7442.440
719.5613, 7438.903
720.0435, 7414.103
720.5256, 7393.198
721.0077, 7395.326
721.4897, 7407.106
721.9719, 7414.249
722.4540, 7417.368
722.9361, 7409.684
723.4182, 7378.819
723.9003, 7344.881
724.3824, 7344.653
724.8646, 7388.597
725.3467, 7412.982
725.8288, 7401.821
726.3109, 7367.220
726.7930, 7328.717
727.2751, 7287.519
727.7573, 7247.697
728.2394, 7202.540
728.7215, 7165.983
729.2036, 7159.213
729.6857, 7173.453
730.1678, 7176.880
730.6500, 7141.291
731.1321, 7108.981
731.6142, 7101.423
732.0963, 7116.790
732.5784, 7120.482
733.0605, 7107.225
733.5427, 7093.685
734.0248, 7087.828
734.5069, 7089.461
734.9890, 7097.225
735.4711, 7111.261
735.9532, 7127.651
736.4354, 7148.809
736.9175, 7167.965
737.3996, 7173.570
737.8817, 7162.738
738.3638, 7150.923
738.8459, 7143.746
739.3281, 7140.140
739.8102, 7139.202
740.2923, 7140.252
740.7744, 7145.303
741.2565, 7155.065
741.7386, 7168.133
742.2208, 7184.004
742.7029, 7202.958
743.1850, 7219.526
743.6671, 7233.821
744.1492, 7242.839
744.6313, 7239.155
745.1135, 7226.918
745.5956, 7215.779
746.0777, 7205.729
746.5598, 7202.664
747.0419, 7215.822
747.5240, 7237.763
748.0062, 7253.968
748.4883, 7255.047
748.9704, 7257.258
749.4525, 7264.446
749.9346, 7274.517
750.4167, 7279.546
750.8989, 7277.307
751.3810, 7282.790
751.8631, 7306.765
752.3452, 7339.085
752.8273, 7353.568
753.3094, 7352.535
753.7916, 7350.117
754.2737, 7356.119
754.7558, 7362.864
755.2379, 7360.092
755.7200, 7349.341
756.2021, 7349.918
756.6843, 7378.813
757.1664, 7409.288
757.6485, 7431.902
758.1306, 7446.811
758.6127, 7446.304
759.0948, 7422.886
759.5770, 7408.123
760.0591, 7431.850
760.5412, 7484.154
761.0233, 7523.095
761.5054, 7546.541
761.9875, 7558.206
762.4697, 7552.836
762.9518, 7541.302
763.4339, 7535.700
763.9160, 7540.095
764.3981, 7541.054
764.8802, 7523.625
765.3624, 7509.123
765.8445, 7515.904
766.3266, 7558.259
766.8087, 7579.698
767.2908, 7571.717
767.7729, 7559.105
768.2551, 7572.515
768.7372, 7608.383
769.2193, 7648.795
769.7014, 7694.498
770.1835, 7729.579
770.6656, 7731.762
771.1477, 7715.509
771.6298, 7701.082
772.1119, 7690.467
772.5941, 7687.986
773.0762, 7694.667
773.5583, 7710.486
774.0404, 7738.251
774.5225, 7789.000
775.0046, 7818.908
775.4868, 7812.316
775.9689, 7793.392
776.4510, 7818.741
776.9331, 7879.440
777.4152, 7923.535
777.8973, 7927.374
778.3795, 7913.749
778.8616, 7894.544
779.3437, 7876.121
779.8258, 7873.015
780.3079, 7911.649
780.7900, 7943.511
781.2722, 7946.502
781.7543, 7931.608
782.2364, 7930.438
782.7185, 7945.881
783.2006, 7967.567
783.6827, 7997.776
784.1649, 8028.579
784.6470, 8030.778
785.1291, 8008.279
785.6112, 7989.128
786.0933, 7987.261
786.5754, 7996.626
787.0576, 8013.441
787.5397, 8037.208
788.0218, 8064.654
788.5039, 8105.483
788.9860, 8139.111
789.4681, 8157.317
789.9503, 8161.036
790.4324, 8159.668
790.9145, 8147.965
791.3966, 8149.814
791.8787, 8188.503
792.3608, 8250.194
792.8430, 8283.008
793.3251, 8289.045
793.8072, 8288.509
794.2893, 8289.248
794.7714, 8293.587
795.2535, 8306.887
795.7357, 8329.485
796.2178, 8344.124
796.6999, 8330.692
797.1820, 8324.043
797.6641, 8344.213
798.1462, 8393.794
798.6284, 8418.863
799.1105, 8414.135
799.5926, 8408.165
800.0747, 8424.591
800.5568, 8455.447
801.0389, 8479.253
801.5211, 8495.045
802.0032, 8512.102
802.4853, 8537.860
802.9674, 8566.823
803.4495, 8596.218
803.9316, 8628.275
804.4138, 8647.938
804.8959, 8650.015
805.3780, 8645.307
805.8601, 8638.397
806.3422, 8628.422
806.8243, 8624.361
807.3065, 8625.474
807.7886, 8637.947
808.2707, 8678.032
808.7528, 8730.208
809.2349, 8766.125
809.7170, 8781.286
810.1992, 8790.325
810.6813, 8794.393
811.1634, 8800.148
811.6455, 8814.177
812.1276, 8842.741
812.6097, 8862.970
813.0919, 8871.833
813.5740, 8877.221
814.0561, 8882.694
814.5382, 8889.099
815.0203, 8912.477
815.5024, 8956.156
815.9846, 8996.753
816.4667, 9003.503
816.9488, 8997.539
817.4309, 9008.467
817.9130, 9047.023
818.3951, 9081.727
818.8773, 9099.739
819.3594, 9111.394
819.8414, 9124.837
820.3235, 9138.724
820.8057, 9160.761
821.2878, 9195.241
821.7699, 9227.017
822.2520, 9236.563
822.7341, 9229.290
823.2162, 9220.408
823.6984, 9210.123
824.1805, 9212.697
824.6626, 9250.310
825.1447, 9301.100
825.6268, 9342.117
826.1089, 9365.172
826.5911, 9387.333
827.0732, 9415.585
827.5553, 9438.564
828.0374, 9440.414
828.5195, 9416.911
829.0016, 9422.843
829.4838, 9466.438
829.9659, 9517.057
830.4480, 9537.760
830.9301, 9541.780
831.4122, 9550.864
831.8943, 9568.544
832.3765, 9593.838
832.8586, 9643.104
833.3407, 9690.398
833.8228, 9706.704
834.3049, 9662.429
834.7870, 9660.193
835.2692, 9716.204
835.7513, 9783.433
836.2334, 9806.449
836.7155, 9793.419
837.1976, 9796.900
837.6797, 9824.005
838.1619, 9857.093
838.6440, 9879.024
839.1261, 9898.662
839.6082, 9926.632
840.0903, 9967.924
840.5724, 10008.92
841.0546, 10055.40
841.5367, 10093.66
842.0188, 10108.46
842.5009, 10092.63
842.9830, 10099.77
843.4651, 10134.79
843.9473, 10177.60
844.4294, 10206.43
844.9115, 10228.35
845.3936, 10259.56
845.8757, 10303.94
846.3578, 10345.10
846.8400, 10373.42
847.3221, 10395.06
847.8042, 10414.14
848.2863, 10428.89
848.7684, 10448.08
849.2505, 10473.02
849.7327, 10499.42
850.2148, 10519.65
850.6969, 10536.60
851.1790, 10575.08
851.6611, 10637.45
852.1432, 10694.57
852.6254, 10704.33
853.1075, 10706.90
853.5896, 10748.48
854.0717, 10844.36
854.5538, 10921.34
855.0359, 10951.70
855.5181, 10972.95
856.0002, 11006.32
856.4823, 11053.33
856.9644, 11089.45
857.4465, 11113.85
857.9286, 11136.35
858.4108, 11162.99
858.8929, 11193.67
859.3750, 11228.76
859.8571, 11268.45
860.3392, 11308.02
860.8214, 11343.99
861.3035, 11380.20
861.7856, 11419.77
862.2677, 11463.43
862.7498, 11501.81
863.2319, 11535.21
863.7141, 11563.41
864.1962, 11581.94
864.6783, 11595.22
865.1604, 11621.75
865.6425, 11660.31
866.1246, 11699.08
866.6068, 11722.37
867.0889, 11750.21
867.5710, 11803.35
868.0531, 11880.91
868.5352, 11944.28
869.0173, 11987.06
869.4994, 12021.17
869.9815, 12047.24
870.4636, 12067.97
870.9457, 12097.80
871.4279, 12136.72
871.9100, 12181.58
872.3921, 12246.06
872.8742, 12304.97
873.3563, 12313.11
873.8384, 12287.81
874.3206, 12293.48
874.8027, 12388.34
875.2848, 12475.23
875.7669, 12528.91
876.2490, 12555.43
876.7311, 12573.95
877.2133, 12583.38
877.6954, 12594.02
878.1775, 12606.22
878.6596, 12625.99
879.1417, 12671.94
879.6238, 12733.28
880.1060, 12782.73
880.5881, 12790.51
881.0702, 12804.72
881.5523, 12850.27
882.0344, 12912.68
882.5165, 12961.99
882.9987, 12993.47
883.4808, 13024.08
883.9629, 13053.64
884.4450, 13089.51
884.9271, 13152.79
885.4092, 13232.91
885.8914, 13298.91
886.3735, 13337.02
886.8556, 13369.19
887.3377, 13404.55
887.8198, 13444.33
888.3019, 13489.89
888.7841, 13541.90
889.2662, 13600.46
889.7483, 13671.80
890.2304, 13739.75
890.7125, 13773.58
891.1946, 13783.66
891.6768, 13831.22
892.1589, 13929.50
892.6410, 14029.08
893.1231, 14089.85
893.6052, 14128.85
894.0873, 14160.06
894.5695, 14181.21
895.0516, 14208.96
895.5337, 14241.34
896.0158, 14283.84
896.4979, 14344.81
896.9800, 14423.69
897.4622, 14487.24
897.9443, 14534.26
898.4264, 14577.57
898.9085, 14626.46
899.3906, 14677.61
899.8727, 14726.36
900.3549, 14772.20
900.8370, 14820.33
901.3191, 14870.03
901.8012, 14924.49
902.2833, 14987.56
902.7654, 15057.22
903.2476, 15114.54
903.7297, 15158.62
904.2118, 15206.14
904.6939, 15271.32
905.1760, 15343.17
905.6581, 15410.30
906.1403, 15471.87
906.6224, 15521.65
907.1045, 15539.49
907.5866, 15565.56
908.0687, 15614.39
908.5508, 15679.55
909.0330, 15749.05
909.5151, 15824.99
909.9972, 15875.62
910.4793, 15877.38
910.9614, 15876.69
911.4435, 15962.16
911.9257, 16096.17
912.4078, 16200.32
912.8899, 16222.18
913.3720, 16242.43
913.8541, 16282.82
914.3362, 16335.86
914.8184, 16391.12
915.3005, 16445.42
915.7826, 16522.10
916.2647, 16630.08
916.7468, 16737.27
917.2289, 16800.72
917.7111, 16835.83
918.1932, 16867.20
918.6752, 16896.77
919.1573, 16936.97
919.6395, 16997.67
920.1216, 17068.81
920.6037, 17146.89
921.0858, 17237.43
921.5679, 17289.66
922.0500, 17292.37
922.5322, 17305.25
923.0143, 17394.38
923.4964, 17520.90
923.9785, 17590.37
924.4606, 17605.62
924.9427, 17631.06
925.4249, 17717.65
925.9070, 17807.19
926.3891, 17858.54
926.8712, 17880.93
927.3533, 17945.39
927.8354, 18064.69
928.3176, 18178.62
928.7997, 18267.36
929.2818, 18333.21
929.7639, 18365.78
930.2460, 18376.72
930.7281, 18400.65
931.2103, 18468.71
931.6924, 18535.89
932.1745, 18577.45
932.6566, 18607.89
933.1387, 18651.34
933.6208, 18706.09
934.1030, 18786.70
934.5851, 18905.84
935.0672, 19025.70
935.5493, 19089.75
936.0314, 19115.28
936.5135, 19139.72
936.9957, 19165.76
937.4778, 19211.68
937.9599, 19304.62
938.4420, 19409.45
938.9241, 19496.16
939.4063, 19560.14
939.8884, 19624.99
940.3705, 19691.47
940.8526, 19754.77
941.3347, 19812.79
941.8168, 19863.27
942.2990, 19894.41
942.7811, 19908.41
943.2632, 19937.00
943.7453, 20010.79
944.2274, 20089.07
944.7095, 20144.77
945.1917, 20184.63
945.6738, 20260.16
946.1559, 20380.48
946.6380, 20488.61
947.1201, 20560.15
947.6022, 20607.75
948.0844, 20647.34
948.5665, 20680.60
949.0486, 20710.79
949.5307, 20716.50
950.0128, 20746.44
950.4949, 20841.72
950.9771, 20957.93
951.4592, 21033.13
951.9413, 21059.38
952.4234, 21092.18
952.9055, 21138.44
953.3876, 21192.60
953.8698, 21248.35
954.3519, 21306.69
954.8340, 21373.96
955.3161, 21455.84
955.7982, 21520.45
956.2803, 21547.49
956.7625, 21561.48
957.2446, 21571.42
957.7267, 21576.45
958.2088, 21608.36
958.6909, 21668.39
959.1730, 21735.44
959.6552, 21802.37
960.1373, 21862.89
960.6194, 21906.26
961.1015, 21935.10
961.5836, 21961.61
962.0657, 22001.98
962.5479, 22023.69
963.0300, 22008.89
963.5121, 21976.18
963.9942, 21969.64
964.4763, 21989.24
964.9584, 22038.18
965.4406, 22130.10
965.9227, 22220.17
966.4048, 22276.05
966.8869, 22295.94
967.3690, 22274.91
967.8511, 22163.64
968.3332, 22100.67
968.8153, 22112.58
969.2974, 22146.89
969.7795, 22154.84
970.2617, 22140.63
970.7438, 22145.18
971.2259, 22170.62
971.7080, 22187.99
972.1901, 22163.04
972.6722, 22130.50
973.1544, 22122.07
973.6365, 22139.12
974.1186, 22142.14
974.6007, 22119.96
975.0828, 22105.65
975.5649, 22115.27
976.0471, 22137.26
976.5292, 22141.24
977.0113, 22129.78
977.4934, 22112.39
977.9755, 22083.89
978.4576, 22062.66
978.9398, 22070.65
979.4219, 22087.17
979.9040, 22077.35
980.3861, 22027.81
980.8682, 21992.54
981.3503, 21978.25
981.8325, 21968.73
982.3146, 21941.25
982.7967, 21906.11
983.2788, 21891.03
983.7609, 21901.95
984.2430, 21891.98
984.7252, 21802.93
985.2073, 21722.38
985.6894, 21703.27
986.1715, 21741.84
986.6536, 21764.41
987.1357, 21771.51
987.6179, 21754.95
988.1000, 21692.44
988.5821, 21620.57
989.0642, 21601.50
989.5463, 21611.38
990.0284, 21591.27
990.5106, 21468.42
990.9927, 21387.64
991.4748, 21386.99
991.9569, 21420.34
992.4390, 21426.02
992.9211, 21404.47
993.4033, 21355.17
993.8854, 21272.99
994.3675, 21200.19
994.8496, 21181.05
995.3317, 21184.75
995.8138, 21181.37
996.2960, 21164.75
996.7781, 21158.67
997.2602, 21174.08
997.7423, 21176.77
998.2244, 21141.29
998.7065, 21081.23
999.1887, 21046.39
999.6708, 21030.07
1000.153, 21001.55
1000.635, 20919.54
1001.117, 20848.93
1001.599, 20828.77
1002.081, 20839.34
1002.563, 20841.20
1003.046, 20835.81
1003.528, 20813.04
1004.010, 20768.91
1004.492, 20717.00
1004.974, 20663.08
1005.456, 20617.28
1005.938, 20606.66
1006.420, 20645.25
1006.903, 20654.39
1007.385, 20584.09
1007.867, 20502.90
1008.349, 20439.78
1008.831, 20394.17
1009.313, 20362.62
1009.795, 20344.53
1010.277, 20322.82
1010.759, 20285.54
1011.242, 20242.05
1011.724, 20195.23
1012.206, 20148.58
1012.688, 20112.01
1013.170, 20088.11
1013.652, 20072.43
1014.134, 20067.73
1014.616, 20065.24
1015.099, 20050.84
1015.581, 20028.89
1016.063, 20016.05
1016.545, 20016.84
1017.027, 20006.49
1017.509, 19965.28
1017.991, 19912.45
1018.473, 19853.54
1018.955, 19789.48
1019.438, 19759.95
1019.920, 19770.75
1020.402, 19768.84
1020.884, 19718.46
1021.366, 19648.52
1021.848, 19586.68
1022.330, 19538.13
1022.812, 19514.87
1023.294, 19553.57
1023.777, 19572.83
1024.259, 19558.21
1024.741, 19526.43
1025.223, 19494.93
1025.705, 19464.43
1026.187, 19446.35
1026.669, 19443.04
1027.151, 19428.12
1027.634, 19364.95
1028.116, 19295.54
1028.598, 19250.53
1029.080, 19233.05
1029.562, 19233.00
1030.044, 19260.64
1030.526, 19267.51
1031.008, 19226.80
1031.490, 19163.71
1031.973, 19106.76
1032.455, 19065.99
1032.937, 19066.45
1033.419, 19184.59
1033.901, 19242.42
1034.383, 19148.92
1034.865, 19018.62
1035.347, 18962.79
1035.829, 18981.55
1036.312, 18980.56
1036.794, 18955.24
1037.276, 18921.57
1037.758, 18891.39
1038.240, 18859.29
1038.722, 18814.32
1039.204, 18759.55
1039.686, 18728.98
1040.169, 18731.75
1040.651, 18738.90
1041.133, 18744.75
1041.615, 18747.66
1042.097, 18746.34
1042.579, 18739.39
1043.061, 18721.47
1043.543, 18685.72
1044.025, 18654.59
1044.508, 18630.07
1044.990, 18620.20
1045.472, 18638.92
1045.954, 18689.56
1046.436, 18690.34
1046.918, 18640.78
1047.400, 18599.99
1047.882, 18614.38
1048.365, 18649.64
1048.847, 18673.67
1049.329, 18692.26
1049.811, 18729.50
1050.293, 18802.03
1050.775, 18859.36
1051.257, 18886.11
1051.739, 18911.16
1052.221, 18983.85
1052.703, 19085.23
1053.186, 19164.55
1053.668, 19208.49
1054.150, 19275.36
1054.632, 19378.68
1055.114, 19529.31
1055.596, 19747.37
1056.078, 20020.95
1056.560, 20241.59
1057.043, 20410.35
1057.525, 20564.05
1058.007, 20706.61
1058.489, 20858.81
1058.971, 21032.57
1059.453, 21232.57
1059.935, 21472.16
1060.417, 21807.49
1060.900, 22059.95
1061.382, 22203.50
1061.864, 22318.08
1062.346, 22468.10
1062.828, 22647.30
1063.310, 22847.00
1063.792, 23063.62
1064.274, 23284.84
1064.756, 23504.16
1065.239, 23729.16
1065.721, 23958.94
1066.203, 24194.56
1066.685, 24446.60
1067.167, 24711.64
1067.649, 24972.65
1068.131, 25224.81
1068.613, 25475.20
1069.095, 25734.32
1069.578, 25994.47
1070.060, 26255.14
1070.542, 26519.05
1071.024, 26774.15
1071.506, 27024.26
1071.988, 27257.57
1072.470, 27460.03
1072.952, 27649.50
1073.435, 27870.67
1073.917, 28105.44
1074.399, 28309.32
1074.881, 28470.80
1075.363, 28583.40
1075.845, 28621.34
1076.327, 28647.96
1076.809, 28751.73
1077.292, 28915.94
1077.774, 29060.83
1078.256, 29180.45
1078.738, 29270.08
1079.220, 29316.26
1079.702, 29341.59
1080.184, 29359.42
1080.666, 29368.04
1081.148, 29351.64
1081.630, 29307.77
1082.113, 29267.80
1082.595, 29251.84
1083.077, 29214.69
1083.559, 29114.99
1084.041, 28954.89
1084.523, 28731.22
1085.005, 28412.44
1085.487, 28138.31
1085.970, 27986.71
1086.452, 27708.70
1086.934, 27145.55
1087.416, 26337.02
1087.898, 25341.25
1088.380, 24209.83
1088.862, 23138.67
1089.344, 22182.06
1089.827, 21342.38
1090.309, 20610.77
1090.791, 19996.51
1091.273, 19535.31
1091.755, 19220.04
1092.237, 18934.70
1092.719, 18669.40
1093.201, 18476.39
1093.683, 18458.89
1094.166, 18472.87
1094.648, 18407.86
1095.130, 18275.50
1095.612, 18190.69
1096.094, 18167.75
1096.576, 18103.66
1097.058, 17958.67
1097.540, 17795.08
1098.022, 17705.13
1098.505, 17642.12
1098.987, 17531.54
1099.469, 17333.58
1099.951, 17192.40
1100.433, 17135.85
1100.915, 17098.61
1101.397, 17053.18
1101.879, 16996.67
1102.361, 16904.08
1102.844, 16790.36
1103.326, 16704.21
1103.808, 16692.67
1104.290, 16676.77
1104.772, 16631.09
1105.254, 16575.17
1105.736, 16526.05
1106.218, 16483.43
1106.701, 16453.78
1107.183, 16436.82
1107.665, 16426.48
1108.147, 16423.25
1108.629, 16420.49
1109.111, 16416.29
1109.593, 16408.64
1110.075, 16387.43
1110.557, 16346.93
1111.040, 16337.27
1111.522, 16375.51
1112.004, 16413.36
1112.486, 16384.53
1112.968, 16331.83
1113.450, 16308.55
1113.932, 16326.64
1114.414, 16324.79
1114.896, 16290.83
1115.379, 16261.73
1115.861, 16254.71
1116.343, 16258.89
1116.825, 16245.92
1117.307, 16227.94
1117.789, 16235.58
1118.271, 16309.36
1118.753, 16341.89
1119.236, 16292.15
1119.718, 16227.53
1120.200, 16193.64
1120.682, 16187.41
1121.164, 16195.31
1121.646, 16214.09
1122.128, 16223.60
1122.610, 16195.76
1123.093, 16175.83
1123.575, 16197.23
1124.057, 16231.04
1124.539, 16240.46
1125.021, 16225.26
1125.503, 16183.88
1125.985, 16113.79
1126.467, 16069.01
1126.949, 16125.32
1127.432, 16196.99
1127.914, 16214.76
1128.396, 16182.44
1128.878, 16157.63
1129.360, 16142.37
1129.842, 16120.13
1130.324, 16080.96
1130.806, 16053.86
1131.288, 16097.00
1131.771, 16161.32
1132.253, 16180.89
1132.735, 16137.47
1133.217, 16102.16
1133.699, 16080.25
1134.181, 16062.30
1134.663, 16041.57
1135.145, 16025.18
1135.628, 16030.40
1136.110, 16050.48
1136.592, 16071.41
1137.074, 16094.75
1137.556, 16106.62
1138.038, 16102.26
1138.520, 16091.91
1139.002, 16075.20
1139.484, 16058.39
1139.967, 16087.13
1140.449, 16148.44
1140.931, 16180.81
1141.413, 16121.23
1141.895, 16066.64
1142.377, 16049.03
1142.859, 16053.12
1143.341, 16066.32
1143.823, 16087.28
1144.306, 16106.05
1144.788, 16121.38
1145.270, 16112.80
1145.752, 16011.89
1146.234, 15936.18
1146.716, 15996.57
1147.198, 16130.72
1147.680, 16174.10
1148.162, 16123.07
1148.645, 16079.29
1149.127, 16061.73
1149.609, 16058.76
1150.091, 16067.77
1150.573, 16080.42
1151.055, 16089.78
1151.537, 16095.30
1152.019, 16099.65
1152.502, 16104.32
1152.984, 16097.61
1153.466, 16070.84
1153.948, 16040.71
1154.430, 16018.07
1154.912, 16009.27
1155.394, 16027.84
1155.876, 16092.68
1156.359, 16125.61
1156.841, 16121.66
1157.323, 16101.06
1157.805, 16058.49
1158.287, 16020.79
1158.769, 16053.82
1159.251, 16124.32
1159.733, 16161.13
1160.215, 16099.75
1160.698, 16070.80
1161.180, 16085.82
1161.662, 16118.75
1162.144, 16161.21
1162.626, 16200.93
1163.108, 16197.53
1163.590, 16160.74
1164.072, 16136.04
1164.554, 16158.64
1165.037, 16170.58
1165.519, 16160.50
1166.001, 16138.30
1166.483, 16105.79
1166.965, 16072.29
1167.447, 16077.84
1167.929, 16122.90
1168.411, 16161.33
1168.894, 16163.88
1169.376, 16162.71
1169.858, 16168.36
1170.340, 16177.67
1170.822, 16182.36
1171.304, 16184.38
1171.786, 16195.49
1172.268, 16218.61
1172.750, 16238.85
1173.233, 16248.02
1173.715, 16250.72
1174.197, 16250.80
1174.679, 16246.84
1175.161, 16226.94
1175.643, 16194.18
1176.125, 16177.36
1176.607, 16186.02
1177.089, 16206.00
1177.572, 16255.78
1178.054, 16288.15
1178.536, 16256.81
1179.018, 16167.89
1179.500, 16121.81
1179.982, 16117.84
1180.464, 16143.24
1180.946, 16214.81
1181.429, 16274.84
1181.911, 16253.85
1182.393, 16214.24
1182.875, 16234.98
1183.357, 16331.57
1183.839, 16362.05
1184.321, 16325.95
1184.803, 16288.66
1185.286, 16298.14
1185.768, 16315.80
1186.250, 16304.86
1186.732, 16283.58
1187.214, 16284.58
1187.696, 16314.37
1188.178, 16339.95
1188.660, 16360.41
1189.142, 16374.80
1189.625, 16384.10
1190.107, 16385.47
1190.589, 16364.39
1191.071, 16334.74
1191.553, 16336.78
1192.035, 16381.72
1192.517, 16415.14
1192.999, 16431.69
1193.481, 16436.56
1193.964, 16417.96
1194.446, 16402.97
1194.928, 16436.50
1195.410, 16504.60
1195.892, 16512.85
1196.374, 16435.00
1196.856, 16395.07
1197.338, 16421.33
1197.820, 16463.69
1198.303, 16474.34
1198.785, 16465.37
1199.267, 16439.55
1199.749, 16400.20
1200.231, 16400.78
1200.713, 16455.97
1201.195, 16500.84
1201.677, 16516.73
1202.160, 16522.04
1202.642, 16549.56
1203.124, 16575.85
1203.606, 16563.14
1204.088, 16499.79
1204.570, 16471.06
1205.052, 16482.51
1205.534, 16519.64
1206.016, 16592.48
1206.499, 16658.48
1206.981, 16639.47
1207.463, 16583.80
1207.945, 16566.00
1208.427, 16617.31
1208.909, 16624.72
1209.391, 16571.59
1209.873, 16534.54
1210.355, 16562.79
1210.838, 16610.28
1211.320, 16598.68
1211.802, 16560.88
1212.284, 16553.08
1212.766, 16605.97
1213.248, 16637.01
1213.730, 16639.61
1214.212, 16646.06
1214.695, 16685.77
1215.177, 16732.33
1215.659, 16755.44
1216.141, 16754.26
1216.623, 16725.45
1217.105, 16633.04
1217.587, 16590.93
1218.069, 16607.65
1218.552, 16642.82
1219.034, 16668.73
1219.516, 16693.17
1219.998, 16731.52
1220.480, 16776.21
1220.962, 16807.24
1221.444, 16820.18
1221.926, 16821.34
1222.408, 16808.07
1222.891, 16795.70
1223.373, 16795.33
1223.855, 16805.13
1224.337, 16837.54
1224.819, 16879.08
1225.301, 16876.81
1225.783, 16794.54
1226.265, 16767.79
1226.747, 16819.57
1227.230, 16877.19
1227.712, 16855.70
1228.194, 16812.80
1228.676, 16819.94
1229.158, 16867.92
1229.640, 16896.41
1230.122, 16896.64
1230.604, 16894.30
1231.087, 16892.17
1231.569, 16891.50
1232.051, 16888.51
1232.533, 16891.40
1233.015, 16915.63
1233.497, 16956.66
1233.979, 16980.27
1234.461, 16983.85
1234.943, 16977.44
1235.426, 16961.09
1235.908, 16943.55
1236.390, 16927.05
1236.872, 16918.63
1237.354, 16924.75
1237.836, 16946.81
1238.318, 16988.85
1238.800, 17057.40
1239.282, 17094.77
1239.765, 17084.83
1240.247, 17055.23
1240.729, 17011.90
1241.211, 16978.46
1241.693, 16978.65
1242.175, 17011.29
1242.657, 17076.71
1243.139, 17179.75
1243.621, 17219.62
1244.104, 17157.83
1244.586, 17081.77
1245.068, 17064.45
1245.550, 17071.51
1246.032, 17076.58
1246.514, 17078.96
1246.996, 17079.03
1247.478, 17077.20
1247.961, 17098.74
1248.443, 17161.18
1248.925, 17211.16
1249.407, 17186.24
1249.889, 17152.44
1250.371, 17165.33
1250.853, 17215.94
1251.335, 17236.47
1251.818, 17230.73
1252.300, 17237.97
1252.782, 17281.23
1253.264, 17307.99
1253.746, 17267.60
1254.228, 17216.35
1254.710, 17188.07
1255.192, 17182.25
1255.674, 17204.44
1256.156, 17248.68
1256.639, 17286.57
1257.121, 17311.70
1257.603, 17320.31
1258.085, 17293.81
1258.567, 17266.99
1259.049, 17256.55
1259.531, 17262.25
1260.013, 17289.38
1260.496, 17332.02
1260.978, 17370.85
1261.460, 17401.71
1261.942, 17422.04
1262.424, 17430.16
1262.906, 17429.47
1263.388, 17411.72
1263.870, 17392.39
1264.353, 17437.73
1264.835, 17517.43
1265.317, 17547.19
1265.799, 17456.52
1266.281, 17419.44
1266.763, 17475.86
1267.245, 17532.41
1267.727, 17521.04
1268.209, 17479.57
1268.692, 17487.48
1269.174, 17523.64
1269.656, 17544.39
1270.138, 17528.64
1270.620, 17514.37
1271.102, 17499.32
1271.584, 17494.95
1272.066, 17512.29
1272.548, 17540.90
1273.031, 17574.13
1273.513, 17605.54
1273.995, 17621.27
1274.477, 17609.30
1274.959, 17622.17
1275.441, 17663.43
1275.923, 17698.16
1276.405, 17695.57
1276.888, 17684.95
1277.370, 17692.57
1277.852, 17711.28
1278.334, 17734.28
1278.816, 17767.77
1279.298, 17754.31
1279.780, 17694.42
1280.262, 17645.09
1280.745, 17638.22
1281.227, 17657.54
1281.709, 17710.74
1282.191, 17773.11
1282.673, 17818.76
1283.155, 17847.62
1283.637, 17861.95
1284.119, 17862.19
1284.601, 17852.82
1285.083, 17801.47
1285.566, 17787.11
1286.048, 17877.36
1286.530, 17978.17
1287.012, 18006.71
1287.494, 17976.49
1287.976, 17945.02
1288.458, 17919.10
1288.940, 17924.75
1289.422, 18023.80
1289.905, 18077.13
1290.387, 18051.08
1290.869, 18008.45
1291.351, 17996.27
1291.833, 18008.30
1292.315, 18038.98
1292.797, 18080.57
1293.279, 18112.13
1293.762, 18122.38
1294.244, 18126.63
1294.726, 18119.56
1295.208, 18126.31
1295.690, 18196.48
1296.172, 18268.23
1296.654, 18231.64
1297.136, 18139.96
1297.619, 18113.53
1298.101, 18183.56
1298.583, 18232.93
1299.065, 18259.62
1299.547, 18274.34
1300.029, 18277.51
1300.511, 18279.57
1300.993, 18286.16
1301.475, 18298.73
1301.958, 18320.73
1302.440, 18353.92
1302.922, 18372.59
1303.404, 18377.22
1303.886, 18376.53
1304.368, 18363.63
1304.850, 18361.13
1305.332, 18387.68
1305.814, 18422.57
1306.297, 18451.82
1306.779, 18474.81
1307.261, 18489.33
1307.743, 18496.27
1308.225, 18499.84
1308.707, 18494.88
1309.189, 18496.70
1309.671, 18503.84
1310.154, 18523.46
1310.636, 18574.58
1311.118, 18635.60
1311.600, 18659.54
1312.082, 18652.50
1312.564, 18627.17
1313.046, 18554.04
1313.528, 18535.59
1314.010, 18584.75
1314.493, 18629.53
1314.975, 18602.49
1315.457, 18564.92
1315.939, 18592.02
1316.421, 18654.35
1316.903, 18707.79
1317.385, 18754.32
1317.867, 18764.77
##END=



