##NAMES=Calcite
##RRUFFID=R040170
##IDEAL CHEMISTRY=CaCO_3_
##LOCALITY=Peramea, Lerida Province, Catalonia, Spain
##OWNER=RRUFF
##SOURCE=University of Arizona Mineral Museum
##DESCRIPTION=Pink fragment
##STATUS=The identification of this mineral has been confirmed by X-ray diffraction and chemical analysis
##URL=rruff.info/R040170
##MEASURED CHEMISTRY=(Ca_0.99_Mg_0.01_)CO_3_; trace amounts of Co
141.9480, 4013.208
142.4301, 4095.497
142.9122, 4198.649
143.3943, 4289.255
143.8764, 4358.401
144.3585, 4406.190
144.8407, 4468.672
145.3228, 4552.574
145.8049, 4645.688
146.2870, 4736.379
146.7691, 4823.608
147.2512, 4908.155
147.7334, 4985.796
148.2155, 5052.405
148.6976, 5134.304
149.1797, 5241.638
149.6618, 5361.660
150.1439, 5476.466
150.6261, 5580.501
151.1082, 5682.988
151.5903, 5787.618
152.0724, 5902.781
152.5545, 6000.793
153.0366, 6074.601
153.5188, 6129.545
154.0009, 6175.938
154.4830, 6223.461
154.9651, 6257.077
155.4472, 6270.818
155.9293, 6262.641
156.4115, 6236.475
156.8936, 6186.491
157.3757, 6117.327
157.8578, 6044.604
158.3399, 5970.110
158.8221, 5895.164
159.3042, 5819.834
159.7863, 5735.649
160.2684, 5659.473
160.7505, 5599.409
161.2326, 5553.507
161.7148, 5511.114
162.1969, 5466.026
162.6790, 5422.684
163.1611, 5385.905
163.6432, 5361.180
164.1253, 5339.855
164.6075, 5315.519
165.0896, 5287.875
165.5717, 5266.645
166.0538, 5262.456
166.5359, 5267.216
167.0180, 5269.309
167.5002, 5256.431
167.9823, 5243.743
168.4644, 5245.128
168.9465, 5263.488
169.4286, 5282.782
169.9107, 5289.904
170.3929, 5289.208
170.8750, 5290.050
171.3571, 5301.598
171.8392, 5315.186
172.3213, 5319.266
172.8034, 5309.164
173.2856, 5300.095
173.7677, 5309.338
174.2498, 5332.550
174.7319, 5354.600
175.2140, 5363.634
175.6961, 5366.373
176.1783, 5373.547
176.6604, 5388.653
177.1425, 5405.777
177.6246, 5418.291
178.1067, 5426.379
178.5888, 5432.070
179.0710, 5431.951
179.5531, 5430.388
180.0352, 5438.583
180.5173, 5464.646
180.9994, 5496.028
181.4815, 5509.225
181.9637, 5504.871
182.4458, 5499.128
182.9279, 5507.586
183.4100, 5526.709
183.8921, 5543.265
184.3742, 5552.917
184.8564, 5557.856
185.3385, 5562.967
185.8206, 5568.411
186.3027, 5572.587
186.7848, 5570.307
187.2669, 5563.233
187.7491, 5564.153
188.2312, 5583.524
188.7133, 5614.541
189.1954, 5628.840
189.6775, 5623.032
190.1596, 5615.278
190.6418, 5631.438
191.1239, 5670.824
191.6060, 5707.341
192.0881, 5732.685
192.5702, 5746.865
193.0524, 5746.728
193.5345, 5728.663
194.0166, 5705.701
194.4987, 5697.246
194.9808, 5703.750
195.4629, 5718.007
195.9451, 5740.170
196.4272, 5770.255
196.9093, 5793.215
197.3914, 5807.662
197.8735, 5816.430
198.3556, 5822.097
198.8378, 5823.186
199.3199, 5830.254
199.8020, 5855.747
200.2841, 5902.021
200.7662, 5926.126
201.2483, 5919.754
201.7305, 5895.221
202.2126, 5883.008
202.6947, 5885.634
203.1768, 5891.179
203.6589, 5890.571
204.1410, 5881.664
204.6232, 5882.425
205.1053, 5896.495
205.5874, 5920.351
206.0695, 5943.237
206.5516, 5965.819
207.0337, 5985.680
207.5159, 6001.386
207.9980, 6012.604
208.4801, 6019.274
208.9622, 6018.837
209.4443, 6013.877
209.9264, 6018.589
210.4086, 6037.235
210.8907, 6057.046
211.3728, 6067.299
211.8549, 6065.102
212.3370, 6062.824
212.8191, 6059.201
213.3013, 6055.920
213.7834, 6070.411
214.2655, 6112.760
214.7476, 6156.773
215.2297, 6177.357
215.7118, 6165.091
216.1940, 6155.949
216.6761, 6156.221
217.1582, 6165.577
217.6403, 6178.703
218.1224, 6199.825
218.6045, 6218.884
219.0867, 6224.175
219.5688, 6207.705
220.0509, 6196.201
220.5330, 6195.273
221.0151, 6205.020
221.4972, 6220.311
221.9794, 6245.253
222.4615, 6271.304
222.9436, 6289.356
223.4257, 6296.555
223.9078, 6301.534
224.3899, 6305.082
224.8721, 6306.840
225.3542, 6312.085
225.8363, 6319.652
226.3184, 6331.825
226.8005, 6353.070
227.2827, 6390.297
227.7648, 6423.209
228.2469, 6447.085
228.7290, 6461.513
229.2111, 6469.126
229.6932, 6466.568
230.1754, 6459.835
230.6575, 6455.398
231.1396, 6448.609
231.6217, 6452.801
232.1038, 6474.915
232.5859, 6520.029
233.0681, 6555.935
233.5502, 6581.682
234.0323, 6598.848
234.5144, 6608.015
234.9965, 6600.022
235.4786, 6599.564
235.9608, 6616.023
236.4429, 6653.631
236.9250, 6687.898
237.4071, 6720.674
237.8892, 6748.672
238.3713, 6765.878
238.8535, 6767.237
239.3356, 6766.149
239.8177, 6765.655
240.2998, 6764.267
240.7819, 6768.890
241.2640, 6777.875
241.7462, 6793.887
242.2283, 6823.572
242.7104, 6878.125
243.1925, 6927.924
243.6746, 6962.503
244.1567, 6977.782
244.6389, 6990.959
245.1210, 6997.200
245.6031, 7004.130
246.0852, 7026.699
246.5673, 7074.089
247.0494, 7121.558
247.5316, 7161.364
248.0137, 7193.690
248.4958, 7216.441
248.9779, 7222.303
249.4600, 7222.602
249.9421, 7239.474
250.4243, 7282.027
250.9064, 7324.874
251.3885, 7355.788
251.8706, 7365.292
252.3527, 7396.990
252.8348, 7461.056
253.3170, 7540.827
253.7991, 7603.176
254.2812, 7638.036
254.7633, 7673.549
255.2454, 7721.798
255.7275, 7787.727
256.2097, 7845.524
256.6918, 7889.556
257.1739, 7928.670
257.6560, 7981.502
258.1381, 8055.833
258.6202, 8127.959
259.1024, 8185.702
259.5845, 8219.713
260.0666, 8276.967
260.5487, 8364.775
261.0308, 8470.217
261.5129, 8573.937
261.9951, 8673.520
262.4772, 8775.011
262.9593, 8878.299
263.4414, 8982.763
263.9235, 9097.026
264.4056, 9225.560
264.8878, 9361.132
265.3699, 9492.605
265.8520, 9617.657
266.3341, 9748.503
266.8162, 9893.915
267.2983, 10055.81
267.7805, 10209.75
268.2626, 10348.17
268.7447, 10485.71
269.2268, 10649.61
269.7089, 10845.35
270.1910, 11047.05
270.6732, 11247.98
271.1553, 11447.16
271.6374, 11643.75
272.1195, 11833.01
272.6016, 12027.07
273.0837, 12247.47
273.5659, 12504.30
274.0480, 12740.58
274.5301, 12926.97
275.0122, 13060.12
275.4943, 13221.23
275.9764, 13422.17
276.4586, 13628.71
276.9407, 13791.48
277.4228, 13906.53
277.9049, 13996.60
278.3870, 14070.14
278.8691, 14126.63
279.3513, 14155.38
279.8334, 14157.49
280.3155, 14129.00
280.7976, 14066.71
281.2798, 13971.53
281.7619, 13834.79
282.2440, 13643.85
282.7261, 13404.53
283.2082, 13158.16
283.6903, 12903.49
284.1725, 12646.33
284.6546, 12395.43
285.1367, 12152.37
285.6188, 11901.60
286.1009, 11631.88
286.5830, 11349.71
287.0652, 11078.03
287.5473, 10817.72
288.0294, 10577.43
288.5115, 10376.07
288.9936, 10208.85
289.4757, 10043.42
289.9579, 9855.490
290.4400, 9663.955
290.9221, 9522.727
291.4042, 9434.526
291.8863, 9362.703
292.3684, 9272.587
292.8506, 9167.953
293.3327, 9063.446
293.8148, 8958.684
294.2969, 8859.057
294.7790, 8773.329
295.2611, 8701.214
295.7433, 8639.100
296.2254, 8589.584
296.7075, 8547.159
297.1896, 8497.550
297.6717, 8429.227
298.1538, 8356.699
298.6360, 8306.454
299.1181, 8276.310
299.6002, 8245.918
300.0823, 8186.458
300.5644, 8116.750
301.0465, 8074.068
301.5287, 8080.587
302.0108, 8102.427
302.4929, 8101.852
302.9750, 8081.973
303.4571, 8060.675
303.9392, 8054.994
304.4214, 8053.603
304.9035, 8039.126
305.3856, 7999.771
305.8677, 7959.216
306.3498, 7942.883
306.8319, 7944.608
307.3141, 7942.270
307.7962, 7915.465
308.2783, 7881.820
308.7604, 7857.950
309.2425, 7848.255
309.7246, 7847.582
310.2068, 7862.543
310.6889, 7885.214
311.1710, 7895.287
311.6531, 7867.120
312.1352, 7832.273
312.6173, 7816.965
313.0995, 7833.454
313.5816, 7846.333
314.0637, 7830.790
314.5458, 7800.611
315.0279, 7781.635
315.5100, 7797.675
315.9922, 7817.037
316.4743, 7820.533
316.9564, 7801.007
317.4385, 7786.158
317.9206, 7790.498
318.4027, 7803.758
318.8849, 7811.587
319.3670, 7806.888
319.8491, 7798.963
320.3312, 7789.667
320.8133, 7778.177
321.2954, 7771.246
321.7776, 7775.040
322.2597, 7782.096
322.7418, 7784.456
323.2239, 7772.729
323.7060, 7764.438
324.1881, 7765.395
324.6703, 7776.694
325.1524, 7785.234
325.6345, 7786.207
326.1166, 7786.075
326.5987, 7790.079
327.0808, 7803.174
327.5630, 7814.588
328.0451, 7822.227
328.5272, 7826.326
329.0093, 7832.292
329.4914, 7842.844
329.9735, 7852.665
330.4557, 7858.458
330.9378, 7860.608
331.4199, 7857.691
331.9020, 7846.926
332.3841, 7830.559
332.8662, 7819.370
333.3484, 7813.835
333.8305, 7812.923
334.3126, 7817.225
334.7947, 7829.555
335.2768, 7837.550
335.7589, 7837.518
336.2411, 7834.506
336.7232, 7844.332
337.2053, 7873.407
337.6874, 7896.348
338.1695, 7894.307
338.6516, 7861.595
339.1338, 7858.933
339.6159, 7898.591
340.0980, 7950.684
340.5801, 7957.250
341.0622, 7912.649
341.5443, 7875.277
342.0265, 7874.084
342.5086, 7904.417
342.9907, 7922.563
343.4728, 7927.282
343.9549, 7924.034
344.4370, 7914.996
344.9192, 7901.376
345.4013, 7894.665
345.8834, 7900.198
346.3655, 7915.262
346.8476, 7935.216
347.3297, 7960.220
347.8119, 7983.381
348.2940, 7997.022
348.7761, 8003.303
349.2582, 8008.085
349.7403, 8011.469
350.2225, 8015.882
350.7046, 8027.155
351.1867, 8044.272
351.6688, 8058.631
352.1509, 8061.163
352.6331, 8057.749
353.1152, 8057.055
353.5973, 8061.040
354.0794, 8068.135
354.5615, 8080.277
355.0436, 8095.097
355.5258, 8105.379
356.0079, 8105.162
356.4900, 8099.781
356.9721, 8091.552
357.4542, 8077.634
357.9363, 8071.734
358.4185, 8088.436
358.9006, 8117.638
359.3827, 8141.866
359.8648, 8155.538
360.3469, 8161.508
360.8290, 8158.407
361.3112, 8144.413
361.7933, 8134.211
362.2754, 8132.491
362.7575, 8136.855
363.2396, 8144.734
363.7217, 8160.871
364.2039, 8175.057
364.6860, 8182.654
365.1681, 8183.556
365.6502, 8188.806
366.1323, 8206.134
366.6144, 8224.322
367.0966, 8235.678
367.5787, 8237.752
368.0608, 8235.343
368.5429, 8222.873
369.0250, 8204.257
369.5071, 8200.602
369.9893, 8224.551
370.4714, 8248.719
370.9535, 8257.851
371.4356, 8237.636
371.9177, 8236.259
372.3998, 8263.840
372.8820, 8305.811
373.3641, 8329.164
373.8462, 8329.354
374.3283, 8322.511
374.8104, 8311.523
375.2925, 8294.888
375.7747, 8292.301
376.2568, 8306.771
376.7389, 8329.268
377.2210, 8349.085
377.7031, 8366.296
378.1852, 8379.986
378.6674, 8391.585
379.1495, 8399.411
379.6316, 8391.742
380.1137, 8366.583
380.5958, 8344.573
381.0779, 8350.732
381.5601, 8379.090
382.0422, 8399.004
382.5243, 8401.302
383.0064, 8395.380
383.4885, 8396.856
383.9706, 8404.852
384.4528, 8412.771
384.9349, 8414.306
385.4170, 8413.338
385.8991, 8415.782
386.3812, 8422.103
386.8633, 8433.375
387.3455, 8454.756
387.8276, 8481.992
388.3097, 8505.714
388.7918, 8525.394
389.2739, 8536.658
389.7560, 8530.811
390.2382, 8505.268
390.7203, 8486.015
391.2024, 8491.824
391.6845, 8509.997
392.1666, 8526.021
392.6487, 8528.892
393.1309, 8534.526
393.6130, 8553.475
394.0951, 8584.098
394.5772, 8606.050
395.0593, 8611.172
395.5414, 8607.921
396.0236, 8601.451
396.5057, 8578.109
396.9878, 8568.622
397.4699, 8586.781
397.9520, 8622.400
398.4341, 8642.954
398.9163, 8630.183
399.3984, 8621.369
399.8805, 8633.532
400.3626, 8681.887
400.8447, 8704.322
401.3268, 8686.358
401.8090, 8653.144
402.2911, 8641.817
402.7732, 8662.572
403.2553, 8678.325
403.7374, 8675.380
404.2195, 8655.552
404.7017, 8654.737
405.1838, 8678.587
405.6659, 8706.300
406.1480, 8715.820
406.6301, 8706.802
407.1122, 8707.009
407.5944, 8724.149
408.0765, 8750.615
408.5586, 8771.109
409.0407, 8785.691
409.5228, 8790.258
410.0049, 8770.544
410.4871, 8738.436
410.9692, 8727.762
411.4513, 8743.385
411.9334, 8774.878
412.4155, 8825.515
412.8976, 8885.159
413.3798, 8923.142
413.8619, 8912.388
414.3440, 8881.522
414.8261, 8855.800
415.3082, 8835.961
415.7903, 8825.898
416.2725, 8836.421
416.7546, 8854.851
417.2367, 8866.805
417.7188, 8857.976
418.2009, 8852.284
418.6830, 8864.650
419.1652, 8890.302
419.6473, 8911.265
420.1294, 8915.295
420.6115, 8917.807
421.0937, 8927.954
421.5758, 8951.539
422.0579, 8972.403
422.5400, 8994.738
423.0221, 9011.900
423.5042, 9012.882
423.9864, 8968.557
424.4685, 8940.611
424.9506, 8949.097
425.4327, 8997.904
425.9148, 9031.026
426.3969, 9041.232
426.8791, 9044.009
427.3612, 9052.713
427.8433, 9069.869
428.3254, 9084.808
428.8075, 9095.326
429.2896, 9102.866
429.7718, 9113.115
430.2539, 9127.169
430.7360, 9138.348
431.2181, 9139.231
431.7002, 9131.040
432.1823, 9134.098
432.6645, 9152.275
433.1466, 9172.172
433.6287, 9171.558
434.1108, 9154.625
434.5929, 9142.244
435.0750, 9144.663
435.5572, 9156.394
436.0393, 9169.438
436.5214, 9183.703
437.0035, 9197.287
437.4856, 9210.512
437.9677, 9221.487
438.4499, 9226.433
438.9320, 9219.686
439.4141, 9214.712
439.8962, 9226.354
440.3783, 9247.720
440.8604, 9261.378
441.3426, 9250.751
441.8247, 9236.785
442.3068, 9231.151
442.7889, 9236.200
443.2710, 9244.432
443.7531, 9254.538
444.2353, 9266.529
444.7174, 9280.598
445.1995, 9303.629
445.6816, 9321.015
446.1637, 9326.749
446.6458, 9322.345
447.1280, 9324.616
447.6101, 9336.563
448.0922, 9351.941
448.5743, 9367.496
449.0564, 9383.665
449.5385, 9399.773
450.0207, 9417.533
450.5028, 9433.621
450.9849, 9442.577
451.4670, 9444.829
451.9491, 9436.650
452.4312, 9407.289
452.9134, 9362.814
453.3955, 9355.568
453.8776, 9389.694
454.3597, 9431.217
454.8418, 9445.559
455.3239, 9438.413
455.8061, 9432.625
456.2882, 9433.402
456.7703, 9437.689
457.2524, 9438.009
457.7345, 9436.860
458.2166, 9444.684
458.6988, 9478.331
459.1809, 9518.842
459.6630, 9545.552
460.1451, 9555.917
460.6272, 9557.638
461.1093, 9546.241
461.5915, 9531.915
462.0736, 9527.604
462.5557, 9546.147
463.0378, 9567.014
463.5199, 9585.907
464.0020, 9601.866
464.4842, 9609.584
464.9663, 9594.777
465.4484, 9581.063
465.9305, 9581.341
466.4126, 9605.900
466.8947, 9627.531
467.3769, 9649.404
467.8590, 9666.936
468.3411, 9669.688
468.8232, 9642.531
469.3053, 9632.063
469.7874, 9659.497
470.2696, 9721.247
470.7517, 9747.467
471.2338, 9730.821
471.7159, 9701.242
472.1980, 9680.605
472.6801, 9668.899
473.1623, 9667.920
473.6444, 9679.956
474.1265, 9698.666
474.6086, 9715.398
475.0907, 9729.908
475.5728, 9740.604
476.0550, 9748.110
476.5371, 9750.750
477.0192, 9737.933
477.5013, 9708.831
477.9834, 9694.543
478.4655, 9738.265
478.9477, 9805.375
479.4298, 9849.494
479.9119, 9844.372
480.3940, 9829.607
480.8761, 9820.031
481.3582, 9816.251
481.8404, 9820.278
482.3225, 9852.046
482.8046, 9875.867
483.2867, 9868.220
483.7688, 9809.436
484.2509, 9780.801
484.7331, 9820.178
485.2152, 9876.786
485.6973, 9902.317
486.1794, 9868.760
486.6615, 9853.059
487.1436, 9874.139
487.6258, 9921.627
488.1079, 9942.922
488.5900, 9927.776
489.0721, 9914.408
489.5542, 9930.772
490.0363, 9977.383
490.5185, 9995.445
491.0006, 9977.202
491.4827, 9950.788
491.9648, 9954.708
492.4470, 9984.114
492.9291, 10013.46
493.4112, 10036.86
493.8933, 10052.49
494.3754, 10051.59
494.8575, 10036.89
495.3397, 10025.58
495.8218, 10025.51
496.3039, 10036.42
496.7860, 10062.70
497.2681, 10111.95
497.7502, 10150.11
498.2324, 10150.54
498.7145, 10131.63
499.1966, 10118.38
499.6787, 10122.60
500.1608, 10129.12
500.6429, 10133.54
501.1251, 10135.95
501.6072, 10139.47
502.0893, 10137.34
502.5714, 10142.62
503.0535, 10164.52
503.5356, 10220.48
504.0178, 10249.30
504.4999, 10238.61
504.9820, 10211.73
505.4641, 10205.43
505.9462, 10224.06
506.4283, 10240.22
506.9105, 10243.94
507.3926, 10239.63
507.8747, 10248.21
508.3568, 10270.62
508.8389, 10288.73
509.3210, 10280.00
509.8032, 10256.78
510.2853, 10257.05
510.7674, 10290.31
511.2495, 10326.65
511.7316, 10333.94
512.2137, 10321.71
512.6959, 10309.38
513.1780, 10301.41
513.6601, 10299.02
514.1422, 10304.53
514.6243, 10317.14
515.1064, 10331.44
515.5886, 10343.88
516.0707, 10358.45
516.5528, 10380.19
517.0349, 10424.94
517.5170, 10445.39
517.9991, 10413.69
518.4813, 10364.21
518.9634, 10341.29
519.4455, 10363.33
519.9276, 10379.79
520.4097, 10376.05
520.8918, 10357.20
521.3740, 10358.72
521.8561, 10385.42
522.3382, 10416.55
522.8203, 10440.80
523.3024, 10458.02
523.7845, 10468.50
524.2667, 10471.64
524.7488, 10470.34
525.2309, 10466.45
525.7130, 10460.81
526.1951, 10456.28
526.6772, 10452.41
527.1594, 10451.45
527.6415, 10461.22
528.1236, 10478.12
528.6057, 10486.45
529.0878, 10458.45
529.5699, 10430.67
530.0521, 10435.18
530.5342, 10484.09
531.0163, 10528.51
531.4984, 10554.29
531.9805, 10567.41
532.4626, 10574.45
532.9448, 10579.45
533.4269, 10573.73
533.9090, 10544.96
534.3911, 10503.54
534.8732, 10493.22
535.3553, 10529.12
535.8375, 10567.90
536.3196, 10589.74
536.8017, 10593.92
537.2838, 10603.14
537.7659, 10619.16
538.2480, 10634.65
538.7302, 10641.11
539.2123, 10639.60
539.6944, 10635.75
540.1765, 10627.89
540.6586, 10623.56
541.1407, 10638.85
541.6229, 10668.16
542.1050, 10691.64
542.5871, 10691.22
543.0692, 10685.07
543.5513, 10687.89
544.0334, 10700.48
544.5156, 10720.59
544.9977, 10762.59
545.4798, 10802.81
545.9619, 10821.17
546.4440, 10794.64
546.9261, 10774.90
547.4083, 10772.57
547.8904, 10780.73
548.3725, 10786.35
548.8546, 10783.24
549.3367, 10788.47
549.8188, 10811.37
550.3010, 10849.08
550.7831, 10865.84
551.2652, 10856.82
551.7473, 10842.96
552.2294, 10837.12
552.7115, 10839.11
553.1937, 10849.95
553.6758, 10871.93
554.1579, 10893.65
554.6400, 10896.63
555.1221, 10887.46
555.6042, 10885.52
556.0864, 10906.45
556.5685, 10928.72
557.0506, 10925.19
557.5327, 10903.48
558.0148, 10892.07
558.4969, 10917.60
558.9791, 10948.15
559.4612, 10963.40
559.9433, 10958.41
560.4254, 10952.88
560.9075, 10940.24
561.3896, 10934.52
561.8718, 10948.87
562.3539, 11006.27
562.8360, 11044.22
563.3181, 11052.79
563.8002, 11041.46
564.2823, 11030.74
564.7645, 11019.57
565.2466, 11014.39
565.7287, 11019.59
566.2108, 11033.01
566.6929, 11043.86
567.1750, 11051.89
567.6572, 11060.63
568.1393, 11074.49
568.6214, 11090.78
569.1035, 11103.31
569.5856, 11110.68
570.0677, 11116.55
570.5499, 11122.32
571.0320, 11129.03
571.5141, 11138.40
571.9962, 11157.05
572.4783, 11172.48
572.9604, 11180.07
573.4426, 11180.13
573.9247, 11174.85
574.4068, 11145.64
574.8889, 11128.88
575.3710, 11142.38
575.8531, 11193.83
576.3353, 11235.91
576.8174, 11273.20
577.2995, 11293.70
577.7816, 11276.53
578.2637, 11216.24
578.7458, 11177.99
579.2280, 11172.76
579.7101, 11190.69
580.1922, 11226.91
580.6743, 11275.94
581.1564, 11307.00
581.6385, 11286.46
582.1207, 11250.25
582.6028, 11250.07
583.0849, 11281.47
583.5670, 11309.72
584.0491, 11313.43
584.5313, 11306.34
585.0134, 11295.44
585.4955, 11275.59
585.9776, 11272.56
586.4597, 11309.87
586.9418, 11360.41
587.4240, 11392.59
587.9061, 11390.15
588.3882, 11394.36
588.8703, 11415.71
589.3524, 11444.85
589.8345, 11450.08
590.3167, 11423.33
590.7988, 11404.11
591.2809, 11416.02
591.7630, 11450.65
592.2451, 11458.82
592.7272, 11439.27
593.2094, 11423.36
593.6915, 11446.28
594.1736, 11489.55
594.6557, 11516.65
595.1378, 11518.40
595.6199, 11515.80
596.1021, 11521.17
596.5842, 11532.88
597.0663, 11548.61
597.5485, 11577.42
598.0306, 11599.54
598.5127, 11604.64
598.9948, 11596.70
599.4769, 11593.52
599.9590, 11604.98
600.4412, 11610.39
600.9233, 11597.10
601.4054, 11562.04
601.8875, 11560.46
602.3696, 11604.33
602.8517, 11652.40
603.3339, 11666.79
603.8160, 11650.22
604.2981, 11633.44
604.7802, 11618.61
605.2623, 11609.17
605.7444, 11610.58
606.2266, 11621.23
606.7087, 11637.03
607.1908, 11664.34
607.6729, 11688.29
608.1550, 11690.42
608.6371, 11678.28
609.1193, 11676.44
609.6014, 11704.17
610.0835, 11736.50
610.5656, 11762.74
611.0477, 11782.13
611.5298, 11795.04
612.0120, 11795.49
612.4941, 11795.46
612.9762, 11804.37
613.4583, 11827.32
613.9404, 11840.37
614.4225, 11841.24
614.9047, 11834.12
615.3868, 11820.47
615.8689, 11801.33
616.3510, 11792.68
616.8331, 11802.41
617.3152, 11820.70
617.7974, 11837.17
618.2795, 11850.26
618.7616, 11854.88
619.2437, 11825.53
619.7258, 11803.50
620.2079, 11831.74
620.6901, 11911.52
621.1722, 11972.91
621.6543, 11979.21
622.1364, 11968.02
622.6185, 11963.62
623.1006, 11974.36
623.5828, 11975.65
624.0649, 11957.92
624.5470, 11939.53
625.0291, 11946.06
625.5112, 11983.69
625.9933, 12012.51
626.4755, 12023.13
626.9576, 12023.72
627.4397, 12034.27
627.9218, 12052.39
628.4039, 12059.95
628.8860, 12041.00
629.3682, 12009.92
629.8503, 11980.43
630.3324, 11953.99
630.8145, 11941.83
631.2966, 11960.25
631.7787, 11988.63
632.2609, 12011.16
632.7430, 12022.06
633.2251, 12042.14
633.7072, 12090.97
634.1893, 12140.72
634.6714, 12168.88
635.1536, 12170.69
635.6357, 12158.76
636.1178, 12125.44
636.5999, 12087.91
637.0820, 12082.24
637.5641, 12109.90
638.0463, 12133.96
638.5284, 12137.99
639.0105, 12135.14
639.4926, 12158.66
639.9747, 12203.18
640.4568, 12236.88
640.9390, 12231.67
641.4211, 12212.88
641.9032, 12203.59
642.3853, 12205.46
642.8674, 12207.92
643.3495, 12206.09
643.8317, 12203.83
644.3138, 12203.77
644.7959, 12206.74
645.2780, 12210.55
645.7601, 12211.58
646.2422, 12216.57
646.7244, 12237.20
647.2065, 12278.44
647.6886, 12308.21
648.1707, 12319.02
648.6528, 12317.86
649.1349, 12312.51
649.6171, 12305.06
650.0992, 12309.95
650.5813, 12353.12
651.0634, 12400.37
651.5455, 12404.67
652.0276, 12372.52
652.5098, 12338.58
652.9919, 12313.11
653.4740, 12297.96
653.9561, 12295.99
654.4382, 12309.20
654.9203, 12324.97
655.4025, 12345.63
655.8846, 12365.26
656.3667, 12378.88
656.8488, 12382.81
657.3309, 12388.30
657.8130, 12334.62
658.2952, 12408.23
658.7773, 12451.53
659.2594, 12466.17
659.7415, 12366.27
660.2236, 12414.27
660.7057, 12403.00
661.1879, 12389.29
661.6700, 12458.11
662.1521, 12374.87
662.6342, 12442.38
663.1163, 12449.71
663.5984, 12484.58
664.0806, 12459.82
664.5627, 12453.47
665.0448, 12506.79
665.5269, 12527.07
666.0090, 12495.44
666.4911, 12532.06
666.9733, 12446.74
667.4554, 12483.36
667.9375, 12497.56
668.4196, 12486.82
668.9017, 12452.59
669.3839, 12442.70
669.8660, 12464.13
670.3481, 12497.18
670.8302, 12522.13
671.3123, 12541.16
671.7944, 12559.51
672.2766, 12581.69
672.7587, 12598.60
673.2408, 12598.12
673.7229, 12588.92
674.2050, 12587.96
674.6871, 12612.86
675.1693, 12632.45
675.6514, 12628.95
676.1335, 12610.46
676.6156, 12624.07
677.0977, 12688.49
677.5798, 12742.18
678.0620, 12754.04
678.5441, 12728.69
679.0262, 12710.04
679.5083, 12698.34
679.9904, 12686.59
680.4725, 12657.72
680.9547, 12628.33
681.4368, 12634.78
681.9189, 12685.19
682.4010, 12732.79
682.8831, 12741.19
683.3652, 12732.91
683.8474, 12730.63
684.3295, 12746.75
684.8116, 12757.34
685.2937, 12755.64
685.7758, 12748.02
686.2579, 12741.25
686.7401, 12732.27
687.2222, 12733.03
687.7043, 12747.49
688.1864, 12771.20
688.6685, 12795.81
689.1506, 12821.01
689.6328, 12842.04
690.1149, 12855.95
690.5970, 12865.17
691.0791, 12872.12
691.5612, 12877.30
692.0433, 12883.09
692.5255, 12882.30
693.0076, 12889.41
693.4897, 12918.75
693.9718, 12973.86
694.4539, 13018.14
694.9360, 13034.02
695.4182, 13049.51
695.9003, 13081.06
696.3824, 13133.30
696.8645, 13178.16
697.3466, 13211.65
697.8287, 13248.20
698.3109, 13311.35
698.7930, 13394.01
699.2751, 13451.49
699.7572, 13466.04
700.2393, 13489.07
700.7214, 13584.92
701.2036, 13723.72
701.6857, 13855.70
702.1678, 13956.52
702.6499, 14055.24
703.1320, 14170.38
703.6141, 14291.18
704.0963, 14389.71
704.5784, 14441.46
705.0605, 14507.92
705.5426, 14603.03
706.0247, 14723.28
706.5068, 14854.41
706.9890, 14999.03
707.4711, 15138.34
707.9532, 15255.22
708.4353, 15360.77
708.9174, 15480.84
709.3995, 15614.81
709.8817, 15752.79
710.3638, 15921.23
710.8459, 16067.88
711.3280, 16146.41
711.8101, 16151.26
712.2922, 16100.84
712.7744, 15999.10
713.2565, 15842.60
713.7386, 15625.23
714.2207, 15311.44
714.7028, 15025.43
715.1849, 14762.83
715.6671, 14530.94
716.1492, 14334.90
716.6313, 14174.53
717.1134, 14026.02
717.5955, 13884.35
718.0776, 13761.47
718.5598, 13680.26
719.0419, 13629.24
719.5240, 13586.76
720.0061, 13552.67
720.4882, 13515.58
720.9703, 13458.34
721.4525, 13394.77
721.9346, 13356.33
722.4167, 13373.25
722.8988, 13379.85
723.3809, 13353.79
723.8630, 13309.36
724.3452, 13312.61
724.8273, 13371.78
725.3094, 13419.29
725.7915, 13417.24
726.2736, 13382.75
726.7557, 13359.48
727.2379, 13345.69
727.7200, 13327.79
728.2021, 13284.00
728.6842, 13241.63
729.1663, 13228.17
729.6484, 13246.94
730.1306, 13257.81
730.6127, 13227.57
731.0948, 13204.94
731.5769, 13221.09
732.0590, 13292.43
732.5411, 13332.95
733.0233, 13336.22
733.5054, 13323.08
733.9875, 13310.04
734.4696, 13296.99
734.9517, 13280.25
735.4338, 13256.98
735.9160, 13244.10
736.3981, 13273.02
736.8802, 13318.94
737.3623, 13343.87
737.8444, 13326.98
738.3266, 13308.70
738.8087, 13304.71
739.2908, 13308.38
739.7729, 13310.34
740.2551, 13311.35
740.7372, 13308.63
741.2193, 13302.07
741.7014, 13291.47
742.1835, 13267.33
742.6656, 13229.38
743.1478, 13224.31
743.6299, 13283.98
744.1120, 13363.23
744.5941, 13387.23
745.0762, 13369.89
745.5583, 13355.24
746.0405, 13371.52
746.5226, 13390.39
747.0047, 13394.31
747.4868, 13386.04
747.9689, 13383.22
748.4510, 13388.36
748.9332, 13399.20
749.4153, 13420.63
749.8974, 13449.91
750.3795, 13445.79
750.8616, 13401.53
751.3438, 13375.75
751.8259, 13433.83
752.3080, 13531.78
752.7901, 13559.17
753.2722, 13516.24
753.7543, 13462.59
754.2365, 13419.59
754.7186, 13394.97
755.2007, 13403.86
755.6828, 13456.63
756.1649, 13488.91
756.6470, 13475.47
757.1292, 13451.66
757.6113, 13438.27
758.0934, 13438.52
758.5755, 13432.96
759.0576, 13418.81
759.5397, 13407.95
760.0219, 13416.55
760.5040, 13438.78
760.9861, 13454.48
761.4682, 13458.70
761.9503, 13465.64
762.4324, 13493.93
762.9146, 13528.25
763.3967, 13549.96
763.8788, 13542.19
764.3609, 13541.92
764.8430, 13572.69
765.3251, 13603.82
765.8073, 13593.11
766.2894, 13521.56
766.7715, 13486.35
767.2536, 13509.57
767.7357, 13558.51
768.2178, 13581.52
768.7000, 13582.89
769.1821, 13579.44
769.6642, 13573.23
770.1463, 13569.75
770.6284, 13577.04
771.1105, 13590.05
771.5927, 13599.01
772.0748, 13592.58
772.5569, 13591.63
773.0390, 13605.34
773.5211, 13626.99
774.0032, 13636.42
774.4854, 13626.39
774.9675, 13634.86
775.4496, 13688.00
775.9317, 13753.91
776.4138, 13734.35
776.8959, 13646.04
777.3781, 13578.66
777.8602, 13600.72
778.3423, 13646.43
778.8244, 13658.13
779.3065, 13644.38
779.7886, 13644.43
780.2708, 13692.91
780.7529, 13732.84
781.2350, 13742.62
781.7171, 13725.96
782.1992, 13717.59
782.6813, 13718.85
783.1635, 13723.35
783.6456, 13726.85
784.1277, 13731.26
784.6098, 13743.09
785.0919, 13762.08
785.5740, 13785.65
786.0562, 13827.06
786.5383, 13861.74
787.0204, 13863.02
787.5025, 13829.77
787.9846, 13801.89
788.4667, 13790.33
788.9489, 13785.10
789.4310, 13783.18
789.9131, 13784.83
790.3952, 13784.07
790.8773, 13779.56
791.3594, 13778.89
791.8416, 13793.03
792.3237, 13814.69
792.8058, 13819.68
793.2879, 13807.31
793.7700, 13802.77
794.2521, 13837.21
794.7343, 13877.71
795.2164, 13895.20
795.6985, 13880.89
796.1806, 13868.60
796.6627, 13861.79
797.1448, 13858.27
797.6270, 13855.27
798.1091, 13851.34
798.5912, 13861.76
799.0733, 13888.80
799.5554, 13919.10
800.0375, 13945.92
800.5197, 13965.01
801.0018, 13960.96
801.4839, 13927.53
801.9660, 13907.19
802.4481, 13944.28
802.9302, 13994.19
803.4124, 14018.72
803.8945, 14000.18
804.3766, 13981.62
804.8587, 13957.55
805.3408, 13940.73
805.8229, 13945.51
806.3051, 13971.76
806.7872, 14001.46
807.2693, 14035.83
807.7514, 14057.13
808.2335, 14029.47
808.7156, 13983.27
809.1978, 13967.50
809.6799, 14001.05
810.1620, 14035.80
810.6441, 14054.02
811.1262, 14062.67
811.6083, 14067.52
812.0905, 14062.85
812.5726, 14070.65
813.0547, 14097.80
813.5368, 14124.86
814.0189, 14125.86
814.5010, 14105.00
814.9832, 14084.82
815.4653, 14067.29
815.9474, 14059.35
816.4295, 14081.24
816.9116, 14110.55
817.3937, 14116.33
817.8759, 14067.35
818.3580, 14041.41
818.8401, 14073.78
819.3222, 14123.51
819.8043, 14152.51
820.2864, 14155.53
820.7686, 14163.80
821.2507, 14182.86
821.7328, 14198.95
822.2149, 14186.07
822.6970, 14156.52
823.1791, 14142.97
823.6613, 14157.21
824.1434, 14173.90
824.6255, 14180.30
825.1076, 14178.12
825.5897, 14169.08
826.0718, 14129.27
826.5540, 14120.07
827.0361, 14156.32
827.5182, 14205.98
828.0003, 14231.25
828.4824, 14232.19
828.9645, 14231.09
829.4467, 14231.88
829.9288, 14228.17
830.4109, 14200.53
830.8930, 14167.53
831.3751, 14160.48
831.8572, 14201.52
832.3394, 14236.97
832.8215, 14245.26
833.3036, 14240.16
833.7857, 14236.67
834.2678, 14232.77
834.7499, 14237.71
835.2321, 14254.70
835.7142, 14274.44
836.1963, 14286.41
836.6784, 14291.42
837.1605, 14290.45
837.6426, 14282.04
838.1248, 14275.35
838.6069, 14278.35
839.0890, 14286.55
839.5711, 14294.86
840.0532, 14299.65
840.5353, 14309.51
841.0175, 14325.83
841.4996, 14346.26
841.9817, 14372.27
842.4638, 14404.90
842.9459, 14416.58
843.4280, 14401.17
843.9102, 14383.22
844.3923, 14396.80
844.8744, 14423.63
845.3565, 14430.33
845.8386, 14401.92
846.3207, 14385.13
846.8029, 14420.42
847.2850, 14461.55
847.7671, 14463.88
848.2492, 14396.28
848.7313, 14379.33
849.2134, 14428.92
849.6956, 14488.97
850.1777, 14501.81
850.6598, 14478.46
851.1419, 14451.50
851.6240, 14422.71
852.1061, 14411.79
852.5883, 14453.49
853.0704, 14507.67
853.5525, 14536.91
854.0346, 14526.89
854.5167, 14516.77
854.9988, 14506.52
855.4810, 14499.97
855.9631, 14500.91
856.4452, 14509.49
856.9273, 14518.20
857.4094, 14527.26
857.8915, 14531.05
858.3737, 14514.84
858.8558, 14495.34
859.3379, 14498.19
859.8200, 14528.20
860.3021, 14551.31
860.7842, 14553.36
861.2664, 14544.95
861.7485, 14525.84
862.2306, 14491.26
862.7127, 14502.37
863.1948, 14571.06
863.6769, 14633.54
864.1591, 14629.15
864.6412, 14588.68
865.1233, 14590.32
865.6054, 14633.47
866.0875, 14675.29
866.5696, 14701.58
867.0518, 14709.19
867.5339, 14689.10
868.0160, 14639.03
868.4981, 14600.94
868.9802, 14570.29
869.4623, 14561.89
869.9445, 14593.46
870.4266, 14652.53
870.9087, 14680.91
871.3908, 14680.57
871.8729, 14669.36
872.3550, 14649.99
872.8372, 14631.14
873.3193, 14618.77
873.8014, 14613.02
874.2835, 14614.01
874.7656, 14626.41
875.2477, 14640.00
875.7299, 14650.57
876.2120, 14660.76
876.6941, 14688.26
877.1762, 14732.93
877.6583, 14757.74
878.1404, 14730.91
878.6226, 14691.78
879.1047, 14699.09
879.5869, 14736.29
880.0690, 14760.94
880.5511, 14732.75
881.0332, 14718.04
881.5153, 14751.78
881.9974, 14806.46
882.4796, 14823.93
882.9617, 14796.84
883.4438, 14773.45
883.9259, 14764.45
884.4080, 14765.86
884.8901, 14775.25
885.3723, 14789.95
885.8544, 14803.40
886.3365, 14809.36
886.8186, 14820.03
887.3007, 14844.47
887.7828, 14875.23
888.2650, 14903.78
888.7471, 14937.23
889.2292, 14946.25
889.7113, 14923.19
890.1934, 14886.91
890.6755, 14853.96
891.1577, 14827.75
891.6398, 14821.38
892.1219, 14840.92
892.6040, 14861.76
893.0861, 14857.31
893.5682, 14851.49
894.0504, 14872.06
894.5325, 14952.00
895.0146, 14976.53
895.4967, 14920.89
895.9788, 14855.62
896.4609, 14842.60
896.9431, 14873.90
897.4252, 14904.35
897.9073, 14931.69
898.3894, 14954.21
898.8715, 14975.90
899.3536, 14989.04
899.8358, 14982.12
900.3179, 14951.89
900.8000, 14933.79
901.2821, 14932.13
901.7642, 14941.54
902.2463, 14961.63
902.7285, 14991.01
903.2106, 15027.29
903.6927, 15069.55
904.1748, 15098.54
904.6569, 15094.27
905.1390, 15077.37
905.6212, 15066.36
906.1033, 15060.82
906.5854, 15056.15
907.0675, 15060.49
907.5496, 15052.54
908.0317, 15016.37
908.5139, 14968.92
908.9960, 14966.90
909.4781, 15010.57
909.9602, 15055.88
910.4423, 15088.69
910.9244, 15113.14
911.4066, 15134.16
911.8887, 15150.22
912.3708, 15158.77
912.8529, 15157.30
913.3350, 15149.31
913.8171, 15127.15
914.2993, 15105.01
914.7814, 15106.01
915.2635, 15132.76
915.7456, 15144.49
916.2277, 15131.40
916.7098, 15119.80
917.1920, 15156.36
917.6741, 15207.89
918.1562, 15219.92
918.6383, 15166.95
919.1204, 15126.60
919.6025, 15127.87
920.0847, 15145.61
920.5668, 15167.09
921.0489, 15195.11
921.5310, 15203.81
922.0131, 15191.05
922.4952, 15176.85
922.9774, 15171.17
923.4595, 15177.37
923.9416, 15212.26
924.4237, 15272.94
924.9058, 15309.99
925.3879, 15280.92
925.8701, 15247.28
926.3522, 15235.89
926.8343, 15243.60
927.3164, 15245.76
927.7985, 15242.31
928.2806, 15232.80
928.7628, 15205.94
929.2449, 15183.53
929.7270, 15213.09
930.2091, 15275.70
930.6912, 15320.95
931.1733, 15323.46
931.6555, 15310.11
932.1376, 15264.66
932.6197, 15218.63
933.1018, 15237.30
933.5839, 15329.44
934.0660, 15368.72
934.5482, 15391.85
935.0303, 15399.69
935.5124, 15346.43
935.9945, 15372.06
936.4766, 15366.08
936.9587, 15358.80
937.4409, 15395.54
937.9230, 15351.17
938.4051, 15387.20
938.8872, 15391.14
939.3693, 15409.77
939.8514, 15396.59
940.3336, 15393.24
940.8157, 15421.70
941.2978, 15432.55
941.7799, 15415.71
942.2620, 15384.75
942.7441, 15423.60
943.2263, 15452.38
943.7084, 15445.57
944.1905, 15436.22
944.6726, 15440.74
945.1547, 15454.83
945.6368, 15443.42
946.1190, 15403.58
946.6011, 15388.74
947.0832, 15445.71
947.5653, 15515.24
948.0474, 15502.81
948.5295, 15441.83
949.0117, 15410.08
949.4938, 15470.22
949.9759, 15516.27
950.4580, 15520.05
950.9401, 15506.04
951.4222, 15508.49
951.9044, 15527.41
952.3865, 15566.12
952.8686, 15632.89
953.3507, 15682.10
953.8328, 15642.16
954.3149, 15566.60
954.7971, 15524.40
955.2792, 15538.49
955.7613, 15551.21
956.2434, 15554.21
956.7255, 15552.54
957.2076, 15544.29
957.6898, 15530.25
958.1719, 15547.66
958.6540, 15596.00
959.1361, 15631.01
959.6182, 15607.94
960.1003, 15569.18
960.5825, 15546.20
961.0646, 15540.91
961.5467, 15556.75
962.0288, 15620.21
962.5109, 15663.43
962.9930, 15661.46
963.4752, 15636.50
963.9573, 15650.34
964.4394, 15695.05
964.9215, 15720.00
965.4036, 15697.86
965.8857, 15672.35
966.3679, 15688.03
966.8500, 15717.59
967.3321, 15724.51
967.8142, 15684.78
968.2963, 15655.51
968.7784, 15635.45
969.2606, 15629.31
969.7427, 15649.26
970.2248, 15687.53
970.7069, 15715.67
971.1890, 15731.52
971.6711, 15745.06
972.1533, 15772.33
972.6354, 15791.33
973.1175, 15778.10
973.5996, 15733.70
974.0817, 15718.62
974.5638, 15743.44
975.0460, 15759.28
975.5281, 15739.26
976.0102, 15703.63
976.4923, 15691.29
976.9744, 15699.52
977.4565, 15720.35
977.9387, 15768.83
978.4208, 15807.60
978.9029, 15822.53
979.3850, 15820.36
979.8671, 15800.43
980.3492, 15751.50
980.8314, 15763.03
981.3135, 15857.22
981.7956, 15956.83
982.2777, 15973.72
982.7598, 15944.32
983.2419, 15914.59
983.7241, 15889.26
984.2062, 15882.10
984.6883, 15914.30
985.1704, 15948.80
985.6525, 15969.67
986.1346, 15978.10
986.6168, 15987.02
987.0989, 15996.29
987.5810, 16002.38
988.0631, 15996.31
988.5452, 15991.94
989.0273, 16008.08
989.5095, 16036.14
989.9916, 16053.48
990.4737, 16040.78
990.9558, 16041.71
991.4379, 16065.75
991.9200, 16099.09
992.4022, 16117.36
992.8843, 16125.38
993.3664, 16148.67
993.8485, 16195.31
994.3306, 16234.22
994.8127, 16240.37
995.2949, 16231.67
995.7770, 16217.47
996.2591, 16193.85
996.7412, 16204.39
997.2233, 16256.68
997.7054, 16315.14
998.1876, 16367.29
998.6697, 16406.64
999.1518, 16416.66
999.6339, 16401.02
1000.116, 16375.17
1000.598, 16318.62
1001.080, 16284.89
1001.562, 16306.47
1002.044, 16355.42
1002.527, 16378.83
1003.009, 16373.16
1003.491, 16396.54
1003.973, 16466.90
1004.455, 16535.07
1004.937, 16525.20
1005.419, 16490.44
1005.901, 16504.20
1006.384, 16596.79
1006.866, 16660.75
1007.348, 16665.70
1007.830, 16667.82
1008.312, 16704.35
1008.794, 16765.95
1009.276, 16797.44
1009.758, 16800.78
1010.240, 16793.96
1010.723, 16768.29
1011.205, 16754.70
1011.687, 16786.54
1012.169, 16844.41
1012.651, 16873.30
1013.133, 16857.56
1013.615, 16857.48
1014.097, 16885.10
1014.580, 16922.99
1015.062, 16953.79
1015.544, 16975.09
1016.026, 16979.85
1016.508, 16964.20
1016.990, 16946.94
1017.472, 16937.97
1017.954, 16927.42
1018.436, 16913.04
1018.919, 16894.21
1019.401, 16845.40
1019.883, 16766.50
1020.365, 16697.71
1020.847, 16676.17
1021.329, 16664.15
1021.811, 16621.47
1022.293, 16559.06
1022.776, 16502.83
1023.258, 16454.43
1023.740, 16416.25
1024.222, 16383.00
1024.704, 16369.52
1025.186, 16420.57
1025.668, 16509.39
1026.150, 16535.94
1026.632, 16482.84
1027.115, 16419.53
1027.597, 16367.36
1028.079, 16337.27
1028.561, 16342.77
1029.043, 16381.27
1029.525, 16413.75
1030.007, 16439.97
1030.489, 16457.52
1030.972, 16461.05
1031.454, 16459.88
1031.936, 16466.45
1032.418, 16478.54
1032.900, 16491.31
1033.382, 16513.03
1033.864, 16519.96
1034.346, 16502.08
1034.828, 16479.75
1035.311, 16478.87
1035.793, 16495.48
1036.275, 16501.27
1036.757, 16493.92
1037.239, 16490.91
1037.721, 16517.42
1038.203, 16541.73
1038.685, 16529.21
1039.167, 16486.64
1039.650, 16491.43
1040.132, 16557.48
1040.614, 16610.17
1041.096, 16622.42
1041.578, 16610.30
1042.060, 16585.14
1042.542, 16557.18
1043.024, 16545.19
1043.507, 16555.70
1043.989, 16583.28
1044.471, 16654.70
1044.953, 16710.90
1045.435, 16692.38
1045.917, 16607.25
1046.399, 16558.35
1046.881, 16547.60
1047.364, 16567.23
1047.846, 16654.35
1048.328, 16730.91
1048.810, 16729.36
1049.292, 16667.80
1049.774, 16634.32
1050.256, 16631.72
1050.738, 16654.46
1051.220, 16710.05
1051.703, 16767.18
1052.185, 16770.72
1052.667, 16746.75
1053.149, 16740.89
1053.631, 16767.18
1054.113, 16787.17
1054.595, 16783.96
1055.077, 16779.92
1055.559, 16788.60
1056.042, 16806.66
1056.524, 16802.56
1057.006, 16781.03
1057.488, 16780.90
1057.970, 16850.13
1058.452, 16919.73
1058.934, 16944.51
1059.416, 16940.66
1059.899, 16938.37
1060.381, 16935.19
1060.863, 16945.38
1061.345, 16970.41
1061.827, 17008.00
1062.309, 17067.16
1062.791, 17132.29
1063.273, 17178.93
1063.755, 17205.59
1064.238, 17226.24
1064.720, 17224.36
1065.202, 17245.99
1065.684, 17313.55
1066.166, 17407.15
1066.648, 17477.09
1067.130, 17522.69
1067.612, 17539.60
1068.094, 17503.19
1068.577, 17493.94
1069.059, 17576.98
1069.541, 17700.24
1070.023, 17805.63
1070.505, 17877.96
1070.987, 18028.38
1071.469, 18264.78
1071.951, 18518.52
1072.434, 18709.50
1072.916, 18917.97
1073.398, 19236.83
1073.880, 19659.13
1074.362, 20147.83
1074.844, 20680.81
1075.326, 21316.69
1075.808, 22070.25
1076.291, 22930.24
1076.773, 23885.24
1077.255, 24939.71
1077.737, 26090.97
1078.219, 27325.96
1078.701, 28635.33
1079.183, 30052.64
1079.665, 31481.70
1080.147, 32876.57
1080.630, 34247.27
1081.112, 35708.10
1081.594, 37255.15
1082.076, 38759.90
1082.558, 40130.30
1083.040, 41524.32
1083.522, 43185.13
1084.004, 44909.98
1084.486, 46462.30
1084.969, 48085.42
1085.451, 48909.01
1085.933, 48958.42
1086.415, 48093.44
1086.897, 45892.00
1087.379, 42858.68
1087.861, 39650.47
1088.343, 36366.86
1088.826, 33315.82
1089.308, 30589.25
1089.790, 28207.85
1090.272, 26175.88
1090.754, 24472.73
1091.236, 23111.23
1091.718, 22058.23
1092.200, 21172.31
1092.682, 20443.59
1093.165, 19836.63
1093.647, 19351.23
1094.129, 18968.21
1094.611, 18689.57
1095.093, 18499.08
1095.575, 18302.34
1096.057, 18097.82
1096.539, 17924.93
1097.022, 17806.15
1097.504, 17716.50
1097.986, 17641.05
1098.468, 17575.26
1098.950, 17511.54
1099.432, 17434.05
1099.914, 17403.89
1100.396, 17435.12
1100.879, 17469.63
1101.361, 17469.12
1101.843, 17441.49
1102.325, 17385.04
1102.807, 17312.16
1103.289, 17268.89
1103.771, 17305.21
1104.253, 17326.52
1104.735, 17305.67
1105.218, 17277.00
1105.700, 17304.29
1106.182, 17369.11
1106.664, 17371.14
1107.146, 17298.37
1107.628, 17233.49
1108.110, 17230.97
1108.592, 17246.75
1109.074, 17260.66
1109.557, 17271.79
1110.039, 17275.29
1110.521, 17270.98
1111.003, 17276.96
1111.485, 17301.97
1111.967, 17328.01
1112.449, 17351.41
1112.931, 17358.31
1113.414, 17321.60
1113.896, 17220.17
1114.378, 17187.03
1114.860, 17236.57
1115.342, 17291.73
1115.824, 17308.71
1116.306, 17305.45
1116.788, 17305.81
1117.271, 17308.91
1117.753, 17312.87
1118.235, 17317.47
1118.717, 17322.85
1119.199, 17330.78
1119.681, 17336.19
1120.163, 17329.89
1120.645, 17317.65
1121.127, 17315.74
1121.609, 17324.73
1122.092, 17341.53
1122.574, 17380.86
1123.056, 17406.79
1123.538, 17400.25
1124.020, 17380.07
1124.502, 17393.63
1124.984, 17433.59
1125.466, 17428.90
1125.949, 17361.14
1126.431, 17299.41
1126.913, 17280.12
1127.395, 17295.82
1127.877, 17364.77
1128.359, 17472.50
1128.841, 17496.55
1129.323, 17431.67
1129.806, 17374.65
1130.288, 17356.26
1130.770, 17369.21
1131.252, 17442.20
1131.734, 17525.27
1132.216, 17544.94
1132.698, 17467.41
1133.180, 17426.24
1133.662, 17427.99
1134.145, 17439.66
1134.627, 17441.60
1135.109, 17439.58
1135.591, 17440.43
1136.073, 17444.78
1136.555, 17454.20
1137.037, 17471.52
1137.519, 17491.35
1138.001, 17514.36
1138.484, 17537.53
1138.966, 17561.65
1139.448, 17582.20
1139.930, 17587.40
1140.412, 17577.13
1140.894, 17556.58
1141.376, 17498.43
1141.858, 17470.38
1142.341, 17500.36
1142.823, 17556.75
1143.305, 17579.32
1143.787, 17576.53
1144.269, 17592.63
1144.751, 17638.14
1145.233, 17666.65
1145.715, 17626.54
1146.198, 17588.23
1146.680, 17598.30
1147.162, 17641.35
1147.644, 17633.31
1148.126, 17579.65
1148.608, 17557.10
1149.090, 17599.54
1149.572, 17653.12
1150.054, 17688.72
1150.536, 17707.71
1151.019, 17710.85
1151.501, 17698.20
1151.983, 17672.13
1152.465, 17631.40
1152.947, 17604.82
1153.429, 17611.82
1153.911, 17635.50
1154.393, 17668.28
1154.876, 17703.96
1155.358, 17732.29
1155.840, 17756.58
1156.322, 17759.66
1156.804, 17737.61
1157.286, 17714.13
1157.768, 17701.55
1158.250, 17703.26
1158.733, 17746.61
1159.215, 17810.87
1159.697, 17813.55
1160.179, 17687.21
1160.661, 17628.13
1161.143, 17673.68
1161.625, 17749.03
1162.107, 17773.00
1162.589, 17765.51
1163.072, 17748.83
1163.554, 17727.58
1164.036, 17737.48
1164.518, 17828.89
1165.000, 17878.60
1165.482, 17844.37
1165.964, 17774.80
1166.446, 17753.08
1166.928, 17765.83
1167.411, 17788.22
1167.893, 17818.88
1168.375, 17834.52
1168.857, 17816.18
1169.339, 17794.23
1169.821, 17773.54
1170.303, 17762.04
1170.785, 17793.70
1171.268, 17855.04
1171.750, 17902.54
1172.232, 17919.17
1172.714, 17928.04
1173.196, 17945.05
1173.678, 17948.43
1174.160, 17915.72
1174.642, 17856.17
1175.125, 17831.62
1175.607, 17839.53
1176.089, 17867.97
1176.571, 17945.55
1177.053, 17997.08
1177.535, 17960.92
1178.017, 17904.33
1178.499, 17895.33
1178.981, 17932.91
1179.464, 17926.40
1179.946, 17877.74
1180.428, 17836.30
1180.910, 17836.57
1181.392, 17848.56
1181.874, 17865.76
1182.356, 17879.68
1182.838, 17871.06
1183.320, 17838.11
1183.803, 17840.05
1184.285, 17882.40
1184.767, 17931.38
1185.249, 17975.39
1185.731, 18004.60
1186.213, 17998.00
1186.695, 17972.65
1187.177, 17979.53
1187.660, 18021.70
1188.142, 18045.30
1188.624, 18038.79
1189.106, 18034.23
1189.588, 18065.67
1190.070, 18105.85
1190.552, 18142.39
1191.034, 18169.39
1191.516, 18148.53
1191.999, 18072.01
1192.481, 18020.47
1192.963, 18014.14
1193.445, 18036.79
1193.927, 18106.37
1194.409, 18173.62
1194.891, 18177.39
1195.373, 18112.88
1195.855, 18078.91
1196.338, 18077.77
1196.820, 18086.56
1197.302, 18100.59
1197.784, 18112.06
1198.266, 18111.93
1198.748, 18104.39
1199.230, 18091.73
1199.712, 18071.09
1200.195, 18069.08
1200.677, 18087.66
1201.159, 18111.60
1201.641, 18134.88
1202.123, 18156.46
1202.605, 18170.30
1203.087, 18183.11
1203.569, 18209.68
1204.052, 18268.78
1204.534, 18285.37
1205.016, 18254.15
1205.498, 18212.94
1205.980, 18176.48
1206.462, 18152.96
1206.944, 18164.73
1207.426, 18194.45
1207.908, 18199.26
1208.391, 18159.21
1208.873, 18145.67
1209.355, 18166.30
1209.837, 18187.53
1210.319, 18164.20
1210.801, 18138.61
1211.283, 18173.22
1211.765, 18248.57
1212.247, 18290.69
1212.730, 18289.28
1213.212, 18265.78
1213.694, 18214.28
1214.176, 18180.13
1214.658, 18232.34
1215.140, 18307.48
1215.622, 18329.13
1216.104, 18303.04
1216.587, 18289.26
1217.069, 18297.54
1217.551, 18294.49
1218.033, 18269.41
1218.515, 18254.87
1218.997, 18308.07
1219.479, 18377.67
1219.961, 18401.06
1220.443, 18376.45
1220.926, 18362.50
1221.408, 18360.56
1221.890, 18378.58
1222.372, 18427.17
1222.854, 18465.39
1223.336, 18423.36
1223.818, 18356.75
1224.300, 18332.01
1224.782, 18358.97
1225.265, 18375.03
1225.747, 18376.72
1226.229, 18383.29
1226.711, 18402.67
1227.193, 18423.58
1227.675, 18438.81
1228.157, 18443.93
1228.639, 18424.59
1229.122, 18374.94
1229.604, 18373.15
1230.086, 18427.54
1230.568, 18474.79
1231.050, 18491.91
1231.532, 18488.61
1232.014, 18458.80
1232.496, 18424.82
1232.979, 18416.64
1233.461, 18439.22
1233.943, 18458.01
1234.425, 18472.79
1234.907, 18484.99
1235.389, 18498.11
1235.871, 18504.21
1236.353, 18482.09
1236.835, 18455.58
1237.318, 18457.04
1237.800, 18488.50
1238.282, 18547.04
1238.764, 18635.86
1239.246, 18675.28
1239.728, 18573.96
1240.210, 18463.92
1240.692, 18467.34
1241.175, 18525.08
1241.657, 18555.11
1242.139, 18549.62
1242.621, 18559.66
1243.103, 18585.54
1243.585, 18596.19
1244.067, 18550.57
1244.549, 18507.21
1245.031, 18508.60
1245.514, 18535.50
1245.996, 18560.04
1246.478, 18582.48
1246.960, 18604.21
1247.442, 18624.94
1247.924, 18637.11
1248.406, 18627.56
1248.888, 18617.07
1249.370, 18613.32
1249.853, 18618.22
1250.335, 18641.13
1250.817, 18680.44
1251.299, 18686.89
1251.781, 18660.04
1252.263, 18627.00
1252.745, 18575.27
1253.227, 18556.63
1253.710, 18620.58
1254.192, 18708.69
1254.674, 18753.15
1255.156, 18756.77
1255.638, 18729.49
1256.120, 18675.39
1256.602, 18630.71
1257.084, 18599.52
1257.567, 18605.57
1258.049, 18671.67
1258.531, 18754.31
1259.013, 18790.64
1259.495, 18792.19
1259.977, 18804.01
1260.459, 18827.37
1260.941, 18835.25
1261.423, 18800.39
1261.906, 18767.32
1262.388, 18742.36
1262.870, 18729.41
1263.352, 18746.21
1263.834, 18775.88
1264.316, 18769.53
1264.798, 18727.60
1265.280, 18711.21
1265.762, 18746.97
1266.245, 18801.98
1266.727, 18881.55
1267.209, 18953.45
1267.691, 18971.40
1268.173, 18952.40
1268.655, 18913.04
1269.137, 18857.84
1269.619, 18832.24
1270.102, 18846.02
1270.584, 18872.75
1271.066, 18910.58
1271.548, 18947.09
1272.030, 18964.83
1272.512, 18972.54
1272.994, 18983.41
1273.476, 18996.20
1273.958, 18981.85
1274.441, 18926.23
1274.923, 18918.69
1275.405, 18989.85
1275.887, 19063.47
1276.369, 19052.05
1276.851, 19011.07
1277.333, 18990.03
1277.815, 18988.78
1278.297, 18984.07
1278.780, 18975.25
1279.262, 18978.22
1279.744, 18997.03
1280.226, 19025.09
1280.708, 19071.65
1281.190, 19112.03
1281.672, 19125.82
1282.154, 19119.78
1282.637, 19115.00
1283.119, 19111.14
1283.601, 19104.07
1284.083, 19091.74
1284.565, 19084.15
1285.047, 19093.23
1285.529, 19102.20
1286.011, 19103.53
1286.494, 19098.42
1286.976, 19090.55
1287.458, 19079.29
1287.940, 19058.13
1288.422, 19022.57
1288.904, 19004.82
1289.386, 19031.25
1289.868, 19058.79
1290.350, 19072.98
1290.833, 19081.19
1291.315, 19102.43
1291.797, 19127.21
1292.279, 19132.94
1292.761, 19111.93
1293.243, 19105.77
1293.725, 19122.67
1294.207, 19145.84
1294.689, 19175.74
1295.172, 19195.73
1295.654, 19163.88
1296.136, 19116.99
1296.618, 19107.53
1297.100, 19147.20
1297.582, 19173.79
1298.064, 19186.55
1298.546, 19189.29
1299.029, 19178.64
1299.511, 19173.22
1299.993, 19200.06
1300.475, 19236.12
1300.957, 19256.38
1301.439, 19263.39
1301.921, 19289.41
1302.403, 19332.79
1302.885, 19340.11
1303.368, 19289.58
1303.850, 19231.81
1304.332, 19178.94
1304.814, 19157.61
1305.296, 19189.47
1305.778, 19257.18
1306.260, 19307.00
1306.742, 19338.85
1307.224, 19350.61
1307.707, 19337.55
1308.189, 19327.56
1308.671, 19346.68
1309.153, 19347.56
1309.635, 19300.13
1310.117, 19241.33
1310.599, 19263.84
##END=



