##NAMES=Calcioaravaipaite
##RRUFFID=R100033
##IDEAL CHEMISTRY=Pb^2+^Ca_2_AlF_9_
##LOCALITY=Grand Reef mine, Klondyke, Aravaipa District, Graham County, Arizona, USA
##OWNER=RRUFF
##SOURCE=Natural History Museum of Los Angeles County
##DESCRIPTION=Colorless fragments from type specimen, associated with artroeite R100034.  Photos of type specimen are courtesy of LACMNH. Same sample as used in the Kampf et al (2011) study.
##STATUS=The identification of this mineral has been confirmed by single-crystal X-ray diffraction.
##URL=rruff.info/R100033
93.46167, 226.5424
93.94379, 226.0075
94.42590, 222.8996
94.90802, 219.0811
95.39014, 216.2147
95.87225, 214.6754
96.35437, 212.6178
96.83649, 208.8735
97.31860, 204.6431
97.80072, 201.1695
98.28284, 198.9129
98.76495, 197.4590
99.24707, 195.9033
99.72919, 194.3332
100.2113, 192.6375
100.6934, 190.5778
101.1755, 188.3187
101.6577, 186.2374
102.1398, 184.6824
102.6219, 183.8123
103.1040, 182.5866
103.5861, 180.3261
104.0682, 178.2911
104.5504, 177.3608
105.0325, 177.5807
105.5146, 178.1384
105.9967, 177.8783
106.4788, 176.4061
106.9609, 175.0323
107.4431, 173.8457
107.9252, 172.7757
108.4073, 171.7851
108.8894, 170.9114
109.3715, 169.9716
109.8536, 168.5473
110.3358, 166.4617
110.8179, 164.6341
111.3000, 163.6736
111.7821, 163.5030
112.2642, 163.3679
112.7463, 162.8430
113.2285, 162.3254
113.7106, 162.2393
114.1927, 162.7224
114.6748, 163.4627
115.1569, 164.1010
115.6390, 164.7328
116.1212, 164.9902
116.6033, 164.5213
117.0854, 163.7754
117.5675, 163.1936
118.0496, 163.0038
118.5317, 163.1185
119.0139, 163.1151
119.4960, 162.5627
119.9781, 162.3682
120.4602, 163.0583
120.9423, 164.2134
121.4244, 165.0844
121.9066, 165.0551
122.3887, 164.0348
122.8708, 163.3738
123.3529, 163.4838
123.8350, 163.5016
124.3171, 162.8660
124.7993, 161.6325
125.2814, 160.4084
125.7635, 159.8331
126.2456, 160.0916
126.7277, 160.1534
127.2098, 159.9744
127.6920, 159.6045
128.1741, 159.0362
128.6562, 158.2370
129.1383, 157.3962
129.6204, 156.7911
130.1025, 156.3918
130.5847, 155.9481
131.0668, 155.3609
131.5489, 154.6495
132.0310, 153.8396
132.5131, 152.7061
132.9952, 151.7497
133.4774, 151.4622
133.9595, 151.8431
134.4416, 152.3083
134.9237, 152.3040
135.4058, 151.7546
135.8879, 151.2697
136.3701, 150.9842
136.8522, 150.7901
137.3343, 150.7628
137.8164, 150.8984
138.2985, 150.9120
138.7806, 150.2000
139.2628, 147.9667
139.7449, 146.4898
140.2270, 146.3587
140.7091, 146.7655
141.1912, 146.9905
141.6733, 146.7084
142.1555, 146.0968
142.6376, 145.7696
143.1197, 146.1536
143.6018, 146.3603
144.0839, 146.1518
144.5660, 145.7188
145.0482, 145.3721
145.5303, 145.2992
146.0124, 145.4603
146.4945, 145.5539
146.9766, 145.5893
147.4587, 145.5662
147.9409, 145.3147
148.4230, 144.9313
148.9051, 144.8781
149.3872, 145.6615
149.8693, 147.0808
150.3514, 147.9009
150.8336, 147.6789
151.3157, 147.1109
151.7978, 146.7471
152.2799, 146.5967
152.7620, 146.6620
153.2441, 147.1090
153.7263, 147.7710
154.2084, 148.3893
154.6905, 148.7792
155.1726, 149.0777
155.6547, 149.7168
156.1368, 151.1283
156.6190, 152.0450
157.1011, 151.3051
157.5832, 149.6434
158.0653, 148.5036
158.5474, 149.0735
159.0295, 151.1920
159.5117, 152.7119
159.9938, 153.1806
160.4759, 153.4352
160.9580, 153.7024
161.4401, 154.0015
161.9222, 154.3040
162.4044, 154.5943
162.8865, 154.8862
163.3686, 155.0858
163.8507, 155.0491
164.3328, 155.0499
164.8149, 155.2870
165.2971, 155.7232
165.7792, 156.1091
166.2613, 156.0943
166.7434, 155.3018
167.2255, 155.2885
167.7076, 156.9442
168.1898, 158.6660
168.6719, 159.0193
169.1540, 157.8166
169.6361, 156.3522
170.1182, 156.5857
170.6003, 159.7120
171.0825, 161.4702
171.5646, 160.6031
172.0467, 158.6868
172.5288, 157.5219
173.0109, 157.6515
173.4930, 158.3966
173.9752, 158.7415
174.4573, 158.7164
174.9394, 158.4495
175.4215, 157.8047
175.9036, 156.9436
176.3857, 156.2361
176.8679, 155.7998
177.3500, 155.5308
177.8321, 155.3478
178.3142, 155.2806
178.7963, 155.0401
179.2784, 154.1558
179.7606, 152.7602
180.2427, 152.0597
180.7248, 152.9858
181.2069, 154.2111
181.6890, 154.5428
182.1711, 153.8732
182.6533, 152.8610
183.1354, 152.1058
183.6175, 151.6426
184.0996, 151.1623
184.5817, 150.1712
185.0638, 149.4160
185.5460, 149.5665
186.0281, 150.7352
186.5102, 152.1644
186.9923, 152.7802
187.4744, 152.3191
187.9565, 151.6998
188.4387, 150.6676
188.9208, 149.7586
189.4029, 149.4564
189.8850, 149.8848
190.3671, 150.6816
190.8492, 151.1588
191.3314, 151.0576
191.8135, 151.0296
192.2956, 151.1584
192.7777, 151.3469
193.2598, 151.5244
193.7419, 151.6608
194.2241, 151.7505
194.7062, 151.7805
195.1883, 151.7560
195.6704, 151.6515
196.1525, 151.1669
196.6346, 150.6989
197.1168, 150.7732
197.5989, 151.6323
198.0810, 153.0095
198.5631, 154.1456
199.0452, 155.0836
199.5273, 155.7555
200.0095, 155.8604
200.4916, 155.7268
200.9737, 156.0010
201.4558, 157.0797
201.9379, 158.5217
202.4200, 158.9702
202.9022, 157.8118
203.3843, 156.9418
203.8664, 157.2130
204.3485, 158.3139
204.8306, 159.4004
205.3127, 160.1296
205.7949, 160.6084
206.2770, 161.0815
206.7591, 161.5239
207.2412, 162.0137
207.7233, 162.5314
208.2054, 163.1049
208.6876, 163.9605
209.1697, 165.5427
209.6518, 167.1644
210.1339, 167.6743
210.6160, 166.5904
211.0981, 165.6558
211.5803, 166.6347
212.0624, 169.5311
212.5445, 171.9760
213.0266, 172.5928
213.5087, 172.6846
213.9908, 173.5670
214.4730, 175.5394
214.9551, 177.6638
215.4372, 178.7413
215.9193, 178.5598
216.4014, 178.6832
216.8836, 179.8675
217.3657, 181.3591
217.8478, 182.6952
218.3299, 183.7576
218.8120, 184.7256
219.2941, 185.8424
219.7763, 187.1616
220.2584, 188.4485
220.7405, 189.7466
221.2226, 190.9542
221.7047, 191.8693
222.1868, 192.4614
222.6690, 193.0913
223.1511, 194.3967
223.6332, 196.7684
224.1153, 198.9582
224.5974, 200.9362
225.0795, 202.6644
225.5617, 204.1008
226.0438, 205.2367
226.5259, 206.1051
227.0080, 206.7267
227.4901, 206.8709
227.9722, 207.1877
228.4544, 207.6904
228.9365, 208.3495
229.4186, 209.1774
229.9007, 210.1625
230.3828, 211.2334
230.8649, 212.2636
231.3471, 213.3081
231.8292, 214.2103
232.3113, 215.0045
232.7934, 215.6507
233.2755, 215.9852
233.7576, 216.0001
234.2398, 216.0327
234.7219, 216.6788
235.2040, 218.7224
235.6861, 219.9418
236.1682, 219.6240
236.6503, 218.8864
237.1325, 218.7931
237.6146, 219.6108
238.0967, 220.7813
238.5788, 221.4705
239.0609, 221.3982
239.5430, 221.4490
240.0252, 221.8161
240.5073, 222.2348
240.9894, 222.3277
241.4715, 222.0088
241.9536, 221.7179
242.4357, 222.0926
242.9179, 223.2954
243.4000, 224.4706
243.8821, 225.6705
244.3642, 226.7437
244.8463, 227.4489
245.3284, 227.7265
245.8106, 227.8916
246.2927, 228.2898
246.7748, 228.9220
247.2569, 229.6875
247.7390, 230.8400
248.2211, 232.0069
248.7033, 232.5517
249.1854, 232.2888
249.6675, 232.1364
250.1496, 233.2988
250.6317, 235.5600
251.1138, 237.4089
251.5960, 238.1825
252.0781, 238.5304
252.5602, 239.4815
253.0423, 241.2712
253.5244, 242.8013
254.0065, 242.5975
254.4887, 241.2841
254.9708, 240.5972
255.4529, 241.4696
255.9350, 243.0097
256.4171, 244.0049
256.8992, 244.3676
257.3813, 244.4292
257.8635, 244.3200
258.3456, 244.0747
258.8277, 243.7102
259.3098, 243.1248
259.7919, 242.4866
260.2740, 242.1584
260.7562, 242.2793
261.2383, 242.1037
261.7204, 241.1740
262.2025, 239.6875
262.6846, 237.7359
263.1667, 235.1662
263.6489, 232.3594
264.1310, 229.7750
264.6131, 227.3976
265.0952, 225.3100
265.5773, 223.8200
266.0594, 222.5482
266.5416, 221.1827
267.0237, 219.6758
267.5058, 217.9565
267.9879, 215.8651
268.4700, 213.3437
268.9521, 210.7489
269.4343, 208.0103
269.9164, 205.3447
270.3985, 202.9726
270.8806, 200.9583
271.3627, 199.1140
271.8448, 197.2595
272.3270, 195.4097
272.8091, 193.4260
273.2912, 191.0116
273.7733, 188.6140
274.2554, 186.5486
274.7375, 184.8487
275.2197, 183.2655
275.7018, 181.4944
276.1839, 179.5069
276.6660, 177.5550
277.1481, 175.5119
277.6302, 173.6480
278.1124, 172.1855
278.5945, 171.1054
279.0766, 170.1924
279.5587, 169.3624
280.0408, 168.6745
280.5229, 167.5240
281.0051, 165.1812
281.4872, 162.9671
281.9693, 161.3830
282.4514, 160.4251
282.9335, 159.8937
283.4156, 159.8548
283.8978, 160.3353
284.3799, 160.0060
284.8620, 157.8169
285.3441, 155.8373
285.8262, 154.9712
286.3083, 154.8771
286.7905, 154.7099
287.2726, 153.7900
287.7547, 152.2385
288.2368, 151.2582
288.7189, 151.2910
289.2010, 151.4194
289.6832, 151.5403
290.1653, 151.5637
290.6474, 151.3186
291.1295, 150.6472
291.6116, 149.7375
292.0938, 149.4032
292.5759, 150.2307
293.0580, 150.8113
293.5401, 150.7598
294.0222, 150.3828
294.5043, 149.9899
294.9865, 149.7145
295.4686, 149.5578
295.9507, 149.5218
296.4328, 149.6059
296.9149, 149.8332
297.3970, 150.3179
297.8792, 150.8602
298.3613, 151.2808
298.8434, 151.5282
299.3255, 151.6845
299.8076, 151.8553
300.2897, 151.9442
300.7719, 152.2863
301.2540, 153.0426
301.7361, 153.9061
302.2182, 154.7590
302.7003, 155.5432
303.1824, 156.1895
303.6646, 156.5467
304.1467, 156.4347
304.6288, 156.6955
305.1109, 157.5392
305.5930, 158.5471
306.0751, 159.6526
306.5573, 160.7729
307.0394, 161.7491
307.5215, 162.3975
308.0036, 162.6882
308.4857, 163.1410
308.9678, 164.0556
309.4500, 164.8426
309.9321, 165.2095
310.4142, 165.3197
310.8963, 165.5280
311.3784, 166.0935
311.8605, 166.9599
312.3427, 167.6712
312.8248, 168.1298
313.3069, 168.5377
313.7890, 168.9745
314.2711, 169.3730
314.7532, 169.6250
315.2354, 169.6695
315.7175, 169.5895
316.1996, 169.6289
316.6817, 169.9103
317.1638, 170.1210
317.6459, 170.3487
318.1281, 170.4378
318.6102, 170.1633
319.0923, 169.4787
319.5744, 168.6571
320.0565, 168.1859
320.5386, 168.3161
321.0208, 168.2146
321.5029, 167.5836
321.9850, 166.9464
322.4671, 166.6863
322.9492, 166.8085
323.4313, 166.9981
323.9135, 166.8977
324.3956, 166.4406
324.8777, 166.0251
325.3598, 165.8606
325.8419, 165.5413
326.3240, 164.7551
326.8062, 163.6516
327.2883, 162.6441
327.7704, 162.0734
328.2525, 161.9116
328.7346, 161.6348
329.2167, 161.1947
329.6989, 160.6788
330.1810, 159.9531
330.6631, 159.2010
331.1452, 158.7324
331.6273, 158.7452
332.1094, 159.0419
332.5916, 158.9776
333.0737, 158.2390
333.5558, 157.6734
334.0379, 157.4109
334.5200, 157.3649
335.0021, 157.5400
335.4843, 157.9248
335.9664, 158.3154
336.4485, 158.3428
336.9306, 157.8486
337.4127, 157.4605
337.8948, 157.4917
338.3770, 157.4486
338.8591, 156.7863
339.3412, 155.5968
339.8233, 154.6660
340.3055, 155.0453
340.7876, 156.9400
341.2697, 158.0378
341.7518, 157.5129
342.2339, 156.9462
342.7160, 156.9554
343.1982, 157.4182
343.6803, 157.9608
344.1624, 158.3867
344.6445, 158.6805
345.1266, 158.7320
345.6087, 158.3579
346.0909, 158.0373
346.5730, 158.0126
347.0551, 158.0969
347.5372, 158.0261
348.0193, 157.6607
348.5014, 157.2025
348.9836, 157.0404
349.4657, 157.2668
349.9478, 157.4833
350.4299, 157.7276
350.9120, 157.8356
351.3941, 157.5753
351.8763, 156.9173
352.3584, 156.2531
352.8405, 156.1225
353.3226, 156.5505
353.8047, 156.5468
354.2868, 155.5896
354.7690, 154.5669
355.2511, 154.0613
355.7332, 153.9968
356.2153, 153.9876
356.6974, 153.8238
357.1795, 153.5206
357.6617, 153.1284
358.1438, 152.6341
358.6259, 152.0808
359.1080, 151.2830
359.5901, 150.4814
360.0722, 150.1347
360.5544, 150.6759
361.0365, 151.4295
361.5186, 151.3907
362.0007, 150.4731
362.4828, 149.4216
362.9649, 148.3860
363.4471, 147.4566
363.9292, 146.7906
364.4113, 146.4747
364.8934, 146.0974
365.3755, 145.1579
365.8576, 143.8048
366.3398, 142.8778
366.8219, 142.6498
367.3040, 142.7971
367.7861, 143.2013
368.2682, 143.8139
368.7503, 143.8941
369.2325, 142.7666
369.7146, 141.0289
370.1967, 139.6059
370.6788, 138.5472
371.1609, 137.9998
371.6430, 138.5009
372.1252, 139.6479
372.6073, 140.0762
373.0894, 139.0885
373.5715, 137.7371
374.0536, 136.7354
374.5357, 136.0698
375.0179, 135.6920
375.5000, 135.7166
375.9821, 135.8976
376.4642, 135.6200
376.9463, 134.6753
377.4284, 133.8230
377.9106, 133.2522
378.3927, 132.9776
378.8748, 133.1055
379.3569, 133.6962
379.8390, 134.4473
380.3211, 135.0161
380.8033, 135.4009
381.2854, 135.5489
381.7675, 135.2274
382.2496, 134.8291
382.7317, 134.6660
383.2138, 134.7454
383.6960, 134.8989
384.1781, 135.0140
384.6602, 135.0896
385.1423, 135.1242
385.6244, 134.9812
386.1065, 134.9531
386.5887, 135.2687
387.0708, 135.7392
387.5529, 136.0010
388.0350, 135.8843
388.5171, 135.6077
388.9992, 135.6672
389.4814, 136.6391
389.9635, 137.0404
390.4456, 136.2146
390.9277, 135.2617
391.4098, 135.1496
391.8919, 135.9563
392.3741, 137.0560
392.8562, 137.8345
393.3383, 138.2932
393.8204, 138.4243
394.3025, 138.1281
394.7846, 137.6369
395.2668, 136.6654
395.7489, 135.5928
396.2310, 135.1589
396.7131, 135.8548
397.1952, 137.2737
397.6773, 137.9863
398.1595, 137.5701
398.6416, 137.1065
399.1237, 136.3997
399.6058, 135.9095
400.0879, 136.1685
400.5700, 137.2420
401.0522, 138.5399
401.5343, 139.3922
402.0164, 139.7562
402.4985, 139.8854
402.9806, 139.4432
403.4627, 139.0886
403.9449, 139.0396
404.4270, 139.3043
404.9091, 139.8802
405.3912, 140.9166
405.8733, 142.1890
406.3554, 142.9207
406.8376, 142.8708
407.3197, 142.8920
407.8018, 143.4085
408.2839, 144.1273
408.7660, 144.7502
409.2481, 145.1980
409.7303, 145.6253
410.2124, 146.1817
410.6945, 146.8629
411.1766, 147.6548
411.6587, 148.7722
412.1408, 149.7085
412.6230, 149.8519
413.1051, 149.3190
413.5872, 148.9707
414.0693, 149.3355
414.5514, 150.0453
415.0335, 150.4837
415.5157, 150.5906
415.9978, 150.7365
416.4799, 151.3172
416.9620, 152.0815
417.4441, 152.2663
417.9262, 151.3310
418.4084, 150.4946
418.8905, 150.4933
419.3726, 151.1270
419.8547, 152.0095
420.3368, 153.1162
420.8189, 154.0634
421.3011, 154.1598
421.7832, 153.2485
422.2653, 152.2216
422.7474, 151.0102
423.2295, 149.8309
423.7116, 148.7794
424.1938, 147.9065
424.6759, 147.3742
425.1580, 147.3564
425.6401, 147.8186
426.1222, 148.1207
426.6043, 148.4457
427.0865, 148.4274
427.5686, 147.7470
428.0507, 146.7371
428.5328, 145.8312
429.0149, 145.1963
429.4970, 144.7508
429.9792, 144.3575
430.4613, 144.0458
430.9434, 143.7176
431.4255, 143.3423
431.9076, 142.9791
432.3897, 142.8393
432.8719, 142.7754
433.3540, 142.2852
433.8361, 140.8167
434.3182, 138.6157
434.8003, 137.5188
435.2824, 138.3449
435.7646, 139.0669
436.2467, 139.3061
436.7288, 139.1421
437.2109, 138.5394
437.6930, 137.4802
438.1751, 136.3749
438.6573, 135.8911
439.1394, 136.1088
439.6215, 135.7800
440.1036, 134.3306
440.5857, 132.7326
441.0678, 131.4388
441.5500, 130.4963
442.0321, 130.0257
442.5142, 130.5195
442.9963, 131.3504
443.4784, 131.2632
443.9605, 130.1439
444.4427, 128.9789
444.9248, 128.1495
445.4069, 127.6461
445.8890, 127.5118
446.3711, 127.9826
446.8532, 128.1653
447.3354, 127.3407
447.8175, 125.8988
448.2996, 124.6356
448.7817, 123.7122
449.2638, 123.1005
449.7459, 122.9249
450.2281, 123.2199
450.7102, 123.0228
451.1923, 121.5153
451.6744, 120.2007
452.1565, 120.4208
452.6386, 121.6861
453.1208, 122.4231
453.6029, 121.7823
454.0850, 120.1984
454.5671, 118.8714
455.0492, 117.9082
455.5313, 117.0805
456.0135, 116.3719
456.4956, 115.8056
456.9777, 115.4760
457.4598, 115.3445
457.9419, 115.1843
458.4240, 114.7545
458.9062, 114.0503
459.3883, 113.5145
459.8704, 113.4182
460.3525, 113.1835
460.8346, 112.5897
461.3167, 111.8230
461.7989, 111.1134
462.2810, 110.5451
462.7631, 110.0686
463.2452, 109.6158
463.7273, 109.1898
464.2094, 108.7629
464.6916, 108.2641
465.1737, 107.8319
465.6558, 107.6502
466.1379, 107.6270
466.6200, 107.4222
467.1021, 106.6189
467.5843, 105.6168
468.0664, 105.3584
468.5485, 105.9704
469.0306, 106.4012
469.5127, 106.1389
469.9948, 105.4255
470.4770, 104.5923
470.9591, 103.5384
471.4412, 102.7930
471.9233, 102.8575
472.4054, 103.3522
472.8875, 103.5460
473.3697, 103.2945
473.8518, 103.0001
474.3339, 103.0739
474.8160, 103.5053
475.2981, 103.6230
475.7802, 103.1592
476.2624, 102.6722
476.7445, 102.4428
477.2266, 102.3607
477.7087, 102.2062
478.1908, 101.8896
478.6729, 101.4727
479.1551, 101.0289
479.6372, 100.2981
480.1193, 100.1969
480.6014, 101.2911
481.0835, 102.4192
481.5656, 102.9550
482.0478, 102.9579
482.5299, 102.7779
483.0120, 102.6433
483.4941, 102.5052
483.9762, 102.1267
484.4583, 101.2086
484.9405, 100.6770
485.4226, 101.0951
485.9047, 101.6767
486.3868, 101.7754
486.8689, 101.3290
487.3510, 100.7900
487.8332, 100.4778
488.3153, 100.3830
488.7974, 100.4937
489.2795, 100.8996
489.7616, 101.2886
490.2437, 101.4861
490.7259, 101.5385
491.2080, 101.4741
491.6901, 101.2050
492.1722, 101.0023
492.6543, 101.1331
493.1364, 101.4900
493.6186, 101.7609
494.1007, 101.8640
494.5828, 101.8855
495.0649, 101.9336
495.5470, 102.0163
496.0291, 101.9829
496.5113, 101.5705
496.9934, 101.2809
497.4755, 101.5065
497.9576, 102.0901
498.4397, 102.6633
498.9218, 103.0543
499.4040, 103.2652
499.8861, 103.2787
500.3682, 102.9302
500.8503, 102.6835
501.3324, 102.3408
501.8145, 102.2515
502.2967, 102.8712
502.7788, 103.9732
503.2609, 104.8215
503.7430, 104.8337
504.2251, 104.2873
504.7072, 104.3271
505.1894, 105.3244
505.6715, 106.0560
506.1536, 105.8336
506.6357, 105.4776
507.1178, 105.6423
507.5999, 106.4010
508.0821, 107.3501
508.5642, 108.4546
509.0463, 109.5146
509.5284, 109.7705
510.0105, 108.9719
510.4926, 108.2886
510.9748, 108.4947
511.4569, 109.3279
511.9390, 110.1316
512.4211, 110.8439
512.9032, 111.5701
513.3853, 112.3475
513.8674, 113.1745
514.3495, 114.1346
514.8317, 115.2520
515.3138, 116.1394
515.7959, 116.2735
516.2780, 115.5503
516.7601, 115.7644
517.2422, 117.7546
517.7244, 119.5837
518.2065, 120.4378
518.6886, 120.7791
519.1707, 121.2841
519.6528, 122.1972
520.1349, 123.3475
520.6171, 124.5050
521.0992, 125.7055
521.5813, 126.7707
522.0634, 127.5792
522.5455, 128.3679
523.0276, 129.2910
523.5098, 130.2464
523.9919, 131.0041
524.4740, 131.4167
524.9561, 131.7324
525.4382, 132.3581
525.9203, 133.2968
526.4025, 134.2008
526.8846, 135.1592
527.3667, 135.8128
527.8488, 135.5629
528.3309, 134.5856
528.8130, 134.0510
529.2952, 134.6666
529.7773, 135.5885
530.2594, 136.0959
530.7415, 136.2238
531.2236, 136.2144
531.7057, 136.1609
532.1879, 136.0700
532.6700, 135.9746
533.1521, 136.0096
533.6342, 135.6939
534.1163, 134.9167
534.5984, 133.8759
535.0806, 132.4432
535.5627, 130.8443
536.0448, 129.6007
536.5269, 129.0463
537.0090, 129.0395
537.4911, 129.2955
537.9733, 130.4038
538.4554, 130.4439
538.9375, 128.1350
539.4196, 125.6168
539.9017, 124.2928
540.3839, 124.0383
540.8660, 123.7756
541.3481, 122.7610
541.8302, 121.3015
542.3123, 120.1126
542.7944, 119.2402
543.2766, 118.2142
543.7587, 116.5641
544.2408, 114.9254
544.7229, 114.3414
545.2050, 114.9585
545.6871, 115.2675
546.1693, 114.3475
546.6514, 113.1155
547.1335, 112.7343
547.6156, 113.1326
548.0977, 113.2653
548.5798, 112.4303
549.0620, 110.9760
549.5441, 110.0855
550.0262, 110.3207
550.5083, 110.3958
550.9904, 110.0947
551.4725, 109.7909
551.9547, 109.9087
552.4368, 110.3316
552.9189, 110.5066
553.4010, 109.9591
553.8831, 108.9162
554.3652, 108.3015
554.8474, 108.2206
555.3295, 108.3103
555.8116, 109.1188
556.2937, 109.6166
556.7758, 108.7414
557.2579, 106.5594
557.7401, 104.5293
558.2222, 103.4830
558.7043, 103.1479
559.1864, 103.3308
559.6685, 104.0271
560.1506, 104.0924
560.6328, 102.7157
561.1149, 100.6139
561.5970, 99.42178
562.0791, 99.47576
562.5612, 99.18388
563.0433, 97.84522
563.5255, 96.35495
564.0076, 95.43849
564.4897, 95.09177
564.9718, 94.99999
565.4539, 95.00179
565.9360, 94.98232
566.4182, 94.53680
566.9003, 93.40990
567.3824, 92.32304
567.8645, 91.26648
568.3466, 90.30866
568.8287, 89.34748
569.3109, 88.49870
569.7930, 88.19773
570.2751, 89.01909
570.7572, 90.23386
571.2393, 90.08427
571.7214, 88.43075
572.2036, 87.13477
572.6857, 86.90183
573.1678, 87.16161
573.6499, 87.33529
574.1320, 87.42575
574.6141, 87.27176
575.0963, 86.42640
575.5784, 85.63872
576.0605, 85.80630
576.5426, 86.63631
577.0247, 87.00581
577.5068, 86.35821
577.9890, 85.29786
578.4711, 85.00936
578.9532, 86.07101
579.4353, 86.42189
579.9174, 85.48869
580.3995, 84.51195
580.8817, 84.07851
581.3638, 84.04923
581.8459, 84.09788
582.3280, 84.08092
582.8101, 83.99299
583.2922, 83.78561
583.7744, 83.44404
584.2565, 83.21141
584.7386, 83.16132
585.2207, 83.16505
585.7029, 82.96980
586.1850, 82.74879
586.6671, 83.03203
587.1492, 84.59575
587.6313, 85.82330
588.1135, 85.04881
588.5956, 83.09185
589.0777, 81.95579
589.5598, 82.16096
590.0419, 82.75323
590.5240, 82.73857
591.0062, 82.08707
591.4883, 81.52902
591.9704, 80.46501
592.4525, 80.19888
592.9346, 82.10252
593.4167, 84.43919
593.8989, 84.98183
594.3810, 83.38581
594.8631, 81.43090
595.3452, 81.07251
595.8273, 82.13740
596.3094, 82.56736
596.7916, 82.14268
597.2737, 81.58904
597.7558, 81.02383
598.2379, 80.58420
598.7200, 80.51942
599.2021, 80.90733
599.6843, 81.16256
600.1664, 80.83878
600.6485, 80.27692
601.1306, 79.94918
601.6127, 79.88010
602.0948, 79.89646
602.5770, 79.90105
603.0591, 79.92051
603.5412, 80.03590
604.0233, 80.44230
604.5054, 80.61309
604.9875, 80.46254
605.4697, 80.15601
605.9518, 79.70532
606.4339, 79.19018
606.9160, 78.74668
607.3981, 78.44085
607.8802, 78.29237
608.3624, 78.40726
608.8445, 78.83675
609.3266, 79.10691
609.8087, 78.99509
610.2908, 78.90333
610.7729, 79.32863
611.2551, 80.02831
611.7372, 80.23174
612.2193, 79.20494
612.7014, 78.29945
613.1835, 78.88400
613.6656, 80.24635
614.1478, 80.72395
614.6299, 79.91025
615.1120, 78.72514
615.5941, 78.04239
616.0762, 77.86259
616.5583, 77.99098
617.0405, 78.93950
617.5226, 79.55318
618.0047, 79.34612
618.4868, 78.90183
618.9689, 78.87027
619.4510, 79.29244
619.9332, 79.62541
620.4153, 79.30379
620.8974, 78.55288
621.3795, 78.14363
621.8616, 78.06927
622.3438, 78.43968
622.8259, 79.78572
623.3080, 81.16351
623.7901, 81.14493
624.2722, 79.64761
624.7543, 78.50267
625.2365, 78.44716
625.7186, 78.71998
626.2007, 78.68096
626.6828, 78.44352
627.1649, 78.42731
627.6470, 78.81136
628.1292, 79.40918
628.6113, 79.94645
629.0934, 80.44859
629.5755, 80.78151
630.0576, 80.53550
630.5397, 80.56150
631.0219, 81.40816
631.5040, 82.56287
631.9861, 83.28329
632.4682, 83.34570
632.9503, 83.24804
633.4324, 83.41209
633.9146, 83.78265
634.3967, 84.18014
634.8788, 84.58488
635.3609, 85.06987
635.8430, 85.71828
636.3251, 86.45604
636.8073, 87.04127
637.2894, 87.38559
637.7715, 87.81741
638.2536, 88.57970
638.7357, 89.29105
639.2178, 89.63394
639.7000, 89.66145
640.1821, 89.55261
640.6642, 89.38692
641.1463, 89.30217
641.6284, 89.65935
642.1105, 90.58659
642.5927, 91.26646
643.0748, 91.62292
643.5569, 91.71203
644.0390, 91.40025
644.5211, 90.89902
645.0032, 90.67138
645.4854, 90.95586
645.9675, 91.21285
646.4496, 91.09212
646.9317, 90.69222
647.4138, 90.16759
647.8959, 89.54804
648.3781, 88.83981
648.8602, 88.00293
649.3423, 87.12653
649.8244, 86.67439
650.3065, 87.22478
650.7886, 87.32777
651.2708, 86.66766
651.7529, 85.79550
652.2350, 85.03161
652.7171, 84.37769
653.1992, 83.70674
653.6813, 82.92974
654.1635, 82.14832
654.6456, 81.49398
655.1277, 80.96735
655.6098, 80.64066
656.0919, 80.63531
656.5740, 80.51852
657.0562, 79.84328
657.5383, 78.68970
658.0204, 77.73792
658.5025, 76.96165
658.9846, 76.42564
659.4667, 76.45573
659.9489, 76.55530
660.4310, 76.11062
660.9131, 75.13932
661.3952, 74.13734
661.8773, 73.43708
662.3594, 73.02853
662.8416, 72.95963
663.3237, 73.41863
663.8058, 73.51222
664.2879, 72.83208
664.7700, 71.99228
665.2521, 71.33425
665.7343, 70.87468
666.2164, 70.67089
666.6985, 70.95815
667.1806, 71.21203
667.6627, 70.92983
668.1448, 70.38579
668.6270, 70.16607
669.1091, 70.36536
669.5912, 70.53869
670.0733, 70.25468
670.5554, 69.61919
671.0375, 69.41260
671.5197, 70.01484
672.0018, 70.42686
672.4839, 70.60479
672.9660, 70.52734
673.4481, 69.98911
673.9302, 69.16138
674.4124, 68.55879
674.8945, 68.48891
675.3766, 68.69118
675.8587, 68.88718
676.3408, 69.07859
676.8229, 69.35857
677.3051, 69.80379
677.7872, 69.93592
678.2693, 69.17808
678.7514, 67.65500
679.2335, 66.82227
679.7156, 67.08928
680.1978, 67.41631
680.6799, 67.67883
681.1620, 67.92909
681.6441, 68.30113
682.1262, 68.72132
682.6083, 68.92149
683.0905, 68.72140
683.5726, 68.24074
684.0547, 67.58570
684.5368, 66.75925
685.0189, 66.28496
685.5010, 66.34978
685.9832, 66.59218
686.4653, 66.75938
686.9474, 66.85500
687.4295, 66.90815
687.9116, 66.87252
688.3937, 66.85923
688.8759, 66.89529
689.3580, 66.97270
689.8401, 67.20238
690.3222, 67.49307
690.8043, 67.45219
691.2864, 66.76154
691.7686, 65.81059
692.2507, 65.66293
692.7328, 66.50941
693.2149, 66.90087
693.6970, 66.30074
694.1791, 65.70935
694.6613, 66.01250
695.1434, 66.81427
695.6255, 67.20894
696.1076, 66.84646
696.5897, 66.50399
697.0718, 66.70060
697.5540, 67.01347
698.0361, 66.91782
698.5182, 66.40712
699.0003, 65.70484
699.4824, 64.91259
699.9645, 64.21705
700.4467, 64.15218
700.9288, 64.93335
701.4109, 65.55441
701.8930, 66.04604
702.3751, 66.25077
702.8572, 65.82943
703.3394, 65.16954
703.8215, 65.04262
704.3036, 65.81242
704.7857, 66.26234
705.2678, 65.22068
705.7499, 63.69818
706.2321, 63.08793
706.7142, 63.39127
707.1963, 63.94659
707.6784, 64.43021
708.1605, 64.85613
708.6426, 65.24011
709.1248, 65.53653
709.6069, 65.97118
710.0890, 67.24067
710.5711, 67.79927
711.0532, 66.43594
711.5353, 64.39243
712.0175, 63.31662
712.4996, 63.55208
712.9817, 64.10516
713.4638, 64.58305
713.9459, 64.88511
714.4280, 64.68865
714.9102, 64.12468
715.3923, 63.91164
715.8744, 64.38380
716.3565, 65.06948
716.8386, 65.26757
717.3207, 64.90488
717.8029, 64.57686
718.2850, 64.07041
718.7671, 63.88303
719.2492, 64.50438
719.7313, 65.25285
720.2134, 65.42905
720.6956, 64.97429
721.1777, 64.36589
721.6598, 63.69212
722.1419, 63.14849
722.6240, 63.05200
723.1061, 63.32289
723.5883, 63.65387
724.0704, 63.95655
724.5525, 64.30511
725.0346, 64.85612
725.5167, 65.58609
725.9988, 65.66121
726.4810, 64.27547
726.9631, 63.39694
727.4452, 63.60546
727.9273, 64.09779
728.4094, 64.29809
728.8915, 64.21915
729.3737, 64.14085
729.8558, 64.19112
730.3379, 64.29790
730.8200, 64.48840
731.3021, 64.66717
731.7842, 64.47443
732.2664, 63.85761
732.7485, 63.31744
733.2306, 63.26150
733.7127, 63.54776
734.1948, 63.60138
734.6769, 63.16469
735.1591, 62.96792
735.6412, 63.19913
736.1233, 63.48568
736.6054, 63.73304
737.0875, 63.87688
737.5696, 63.77604
738.0518, 63.33961
738.5339, 62.93586
739.0160, 62.92231
739.4981, 63.11470
739.9802, 63.18344
740.4623, 63.11189
740.9445, 62.97487
741.4266, 62.78698
741.9087, 62.66374
742.3908, 62.84766
742.8729, 63.46559
743.3550, 63.84365
743.8372, 63.84566
744.3193, 63.76026
744.8014, 63.68183
745.2835, 63.54576
745.7656, 63.17332
746.2477, 62.57438
746.7299, 62.22062
747.2120, 62.58421
747.6941, 63.16589
748.1762, 63.40472
748.6583, 63.37164
749.1404, 63.26895
749.6226, 63.15833
750.1047, 63.13781
750.5868, 63.35432
751.0689, 63.75704
751.5510, 63.74567
752.0331, 62.90330
752.5153, 62.45213
752.9974, 62.93341
753.4795, 63.56136
753.9616, 63.90748
754.4437, 63.98970
754.9258, 63.93364
755.4080, 63.70624
755.8901, 63.48656
756.3722, 63.32385
756.8543, 63.27971
757.3364, 63.53082
757.8185, 64.03051
758.3007, 64.48339
758.7828, 64.71310
759.2649, 64.76797
759.7470, 64.70900
760.2291, 64.46931
760.7112, 64.46049
761.1934, 64.89137
761.6755, 65.24329
762.1576, 65.14381
762.6397, 64.88945
763.1218, 64.88316
763.6039, 65.19218
764.0861, 65.42470
764.5682, 65.26967
765.0503, 65.15038
765.5324, 65.44896
766.0145, 66.02043
766.4966, 66.64601
766.9788, 67.22482
767.4609, 67.55585
767.9430, 67.36020
768.4251, 66.77247
768.9072, 66.46880
769.3893, 66.47484
769.8715, 66.67188
770.3536, 67.21257
770.8357, 67.67899
771.3178, 67.63149
771.7999, 67.15192
772.2820, 66.65632
772.7642, 66.04802
773.2463, 65.58753
773.7284, 65.43513
774.2105, 65.38945
774.6926, 65.30848
775.1747, 65.17066
775.6569, 64.94183
776.1390, 64.58513
776.6211, 64.32612
777.1032, 64.66657
777.5853, 65.43565
778.0674, 65.52376
778.5496, 64.75927
779.0317, 64.17549
779.5138, 64.36578
779.9959, 64.88334
780.4780, 64.88637
780.9601, 64.11651
781.4423, 63.90052
781.9244, 64.69383
782.4065, 65.46028
782.8886, 66.13445
783.3707, 66.45187
783.8528, 65.88026
784.3350, 64.54497
784.8171, 63.51861
785.2992, 63.58824
785.7813, 64.14859
786.2634, 64.54843
786.7455, 64.77592
787.2277, 64.72961
787.7098, 64.39587
788.1919, 64.03298
788.6740, 63.81502
789.1561, 63.77134
789.6382, 64.08195
790.1204, 65.12946
790.6025, 65.59351
791.0846, 64.76270
791.5667, 64.04664
792.0488, 64.25643
792.5309, 64.89922
793.0131, 65.15907
793.4952, 64.84818
793.9773, 64.56429
794.4594, 64.54595
794.9415, 64.71127
795.4236, 65.10757
795.9058, 65.60637
796.3879, 65.99150
796.8700, 66.17709
797.3521, 66.03056
797.8342, 65.24722
798.3163, 64.08205
798.7985, 64.05720
799.2806, 65.46245
799.7627, 66.27371
800.2448, 65.76820
800.7269, 64.98862
801.2090, 64.79537
801.6912, 65.10613
802.1733, 65.40144
802.6554, 65.70428
803.1375, 65.95204
803.6196, 66.08992
804.1017, 66.20675
804.5839, 66.40432
805.0660, 66.62383
805.5481, 66.72033
806.0302, 66.64040
806.5123, 66.51474
806.9944, 66.45235
807.4766, 66.44895
807.9587, 66.51738
808.4408, 66.64972
808.9229, 66.72795
809.4050, 66.69267
809.8871, 66.70455
810.3693, 67.00434
810.8514, 67.58580
811.3335, 67.80748
811.8156, 67.46046
812.2977, 67.10080
812.7798, 66.60294
813.2620, 66.30331
813.7441, 66.58242
814.2262, 67.23928
814.7083, 67.67791
815.1904, 67.63494
815.6725, 67.61873
816.1547, 68.05640
816.6368, 68.57375
817.1189, 68.70033
817.6010, 68.50656
818.0831, 68.34792
818.5652, 68.37363
819.0474, 68.38425
819.5295, 68.03603
820.0116, 67.39840
820.4937, 67.12846
820.9758, 67.26282
821.4579, 67.57397
821.9401, 68.08676
822.4222, 68.57666
822.9043, 68.72647
823.3864, 68.56238
823.8685, 68.76859
824.3506, 69.85857
824.8328, 70.58150
825.3149, 70.52947
825.7970, 70.24559
826.2791, 70.05248
826.7612, 69.96359
827.2433, 69.89309
827.7255, 69.79981
828.2076, 69.80091
828.6897, 70.05968
829.1718, 70.44479
829.6539, 70.74496
830.1360, 70.96262
830.6182, 71.18857
831.1003, 71.45686
831.5824, 71.66531
832.0645, 71.63478
832.5466, 72.08581
833.0287, 71.70911
833.5109, 72.77251
833.9930, 73.57077
834.4751, 73.82132
834.9572, 73.82712
835.4393, 73.78268
835.9214, 73.68607
836.4036, 73.51240
836.8857, 73.16391
837.3678, 72.93339
837.8499, 72.79018
838.3320, 72.88548
838.8141, 73.63606
839.2963, 74.61353
839.7784, 74.97239
840.2605, 74.48009
840.7426, 73.85939
841.2247, 73.74166
841.7068, 73.94414
842.1890, 74.16067
842.6711, 74.38123
843.1532, 74.54260
843.6353, 74.62837
844.1174, 74.67854
844.5995, 74.73931
845.0817, 74.78111
845.5638, 74.63530
846.0459, 74.14173
846.5280, 73.92758
847.0101, 74.39227
847.4922, 74.67873
847.9744, 74.14809
848.4565, 73.25163
848.9386, 72.67142
849.4207, 72.49325
849.9028, 72.38865
850.3849, 72.28932
850.8671, 72.22079
851.3492, 72.37142
851.8313, 72.47278
852.3134, 72.09832
852.7955, 71.24805
853.2776, 70.29385
853.7598, 69.39688
854.2419, 68.72240
854.7240, 68.63386
855.2061, 68.99159
855.6882, 69.33508
856.1703, 69.59566
856.6525, 69.42943
857.1346, 68.56663
857.6167, 67.45795
858.0988, 67.01056
858.5809, 67.36478
859.0630, 67.41312
859.5452, 66.80354
860.0273, 66.52061
860.5094, 67.37511
860.9915, 68.27078
861.4736, 68.09364
861.9557, 67.01762
862.4379, 66.17488
862.9200, 65.77005
863.4021, 65.62111
863.8842, 65.80936
864.3663, 66.10999
864.8484, 66.42574
865.3306, 66.67052
865.8127, 66.65847
866.2948, 66.32125
866.7769, 65.99009
867.2590, 66.11160
867.7411, 65.83866
868.2233, 66.27831
868.7054, 65.77203
869.1875, 65.53872
869.6696, 65.76242
870.1517, 66.08109
870.6339, 66.18084
871.1160, 66.06001
871.5981, 65.62342
872.0802, 64.63575
872.5623, 64.23065
873.0444, 64.91708
873.5266, 65.52591
874.0087, 65.11124
874.4908, 64.33608
874.9729, 64.57108
875.4550, 66.11139
875.9371, 66.96685
876.4193, 66.42661
876.9014, 65.68430
877.3835, 64.92737
877.8656, 64.42962
878.3477, 64.69341
878.8298, 65.52290
879.3120, 65.97562
879.7941, 65.42475
880.2762, 64.76134
880.7583, 64.95618
881.2404, 65.58063
881.7225, 65.86732
882.2047, 65.82007
882.6868, 65.83389
883.1689, 66.07946
883.6510, 66.33708
884.1331, 66.29153
884.6152, 66.00289
885.0974, 66.00932
885.5795, 66.39809
886.0616, 66.37263
886.5437, 65.53406
887.0258, 64.79350
887.5079, 65.04411
887.9901, 65.95588
888.4722, 66.17895
888.9543, 64.97754
889.4364, 64.49632
889.9185, 65.54619
890.4006, 66.36250
890.8828, 65.97607
891.3649, 65.13318
891.8470, 64.75484
892.3291, 64.93239
892.8112, 65.17455
893.2933, 65.48838
893.7755, 65.57761
894.2576, 64.92445
894.7397, 64.14837
895.2218, 64.15746
895.7039, 64.81928
896.1860, 65.32943
896.6682, 65.30124
897.1503, 65.06768
897.6324, 64.99244
898.1145, 65.04477
898.5966, 65.20133
899.0787, 65.43208
899.5609, 65.42466
900.0430, 65.06243
900.5251, 64.71004
901.0072, 64.74247
901.4893, 65.05962
901.9714, 65.15559
902.4536, 64.93463
902.9357, 64.86118
903.4178, 65.10847
903.8999, 65.26555
904.3820, 65.04493
904.8641, 64.64171
905.3463, 64.42226
905.8284, 64.43140
906.3105, 64.26505
906.7926, 63.54322
907.2747, 63.09602
907.7568, 63.28740
908.2390, 63.76689
908.7211, 64.46139
909.2032, 65.15452
909.6853, 65.29711
910.1674, 64.54734
910.6495, 63.82712
911.1317, 63.84287
911.6138, 64.13298
912.0959, 64.25727
912.5780, 64.20142
913.0601, 63.95246
913.5422, 63.54536
914.0244, 63.22097
914.5065, 63.17566
914.9886, 63.36528
915.4707, 63.82624
915.9528, 64.47701
916.4349, 64.78191
916.9171, 64.66454
917.3992, 64.33226
917.8813, 63.82720
918.3634, 63.45061
918.8455, 63.79038
919.3276, 64.91433
919.8098, 65.54521
920.2919, 65.53967
920.7740, 65.40717
921.2561, 65.22186
921.7382, 65.00153
922.2203, 64.67610
922.7025, 64.32560
923.1846, 64.27863
923.6667, 64.83622
924.1488, 65.03913
924.6309, 64.35351
925.1130, 63.80352
925.5952, 63.91129
926.0773, 64.38060
926.5594, 64.94075
927.0415, 65.50307
927.5236, 65.87435
928.0057, 65.97192
928.4879, 65.85677
928.9700, 65.34000
929.4521, 64.79206
929.9342, 64.65466
930.4163, 64.88087
930.8984, 65.25575
931.3806, 65.68880
931.8627, 66.09229
932.3448, 66.30885
932.8269, 66.47524
933.3090, 67.03328
933.7911, 67.81924
934.2733, 68.08044
934.7554, 67.68601
935.2375, 67.01550
935.7196, 66.26801
936.2017, 65.68011
936.6838, 65.87310
937.1660, 66.89989
937.6481, 67.63730
938.1302, 68.06554
938.6123, 68.25171
939.0944, 68.16026
939.5765, 67.94662
940.0587, 67.73164
940.5408, 67.53088
941.0229, 67.46407
941.5050, 67.50261
941.9871, 67.72743
942.4692, 68.39881
942.9514, 68.96213
943.4335, 68.93749
943.9156, 68.82684
944.3977, 69.39684
944.8798, 70.67027
945.3619, 71.62000
945.8441, 71.89738
946.3262, 71.98747
946.8083, 71.81227
947.2904, 71.73462
947.7725, 72.30752
948.2546, 73.16950
948.7368, 73.37630
949.2189, 72.62675
949.7010, 72.02905
950.1831, 72.37695
950.6652, 73.16198
951.1473, 74.09167
951.6295, 74.99133
952.1116, 75.50677
952.5937, 75.65955
953.0758, 75.81599
953.5579, 76.19636
954.0400, 76.24735
954.5222, 76.65419
955.0043, 76.51003
955.4864, 76.53010
955.9685, 76.69381
956.4506, 76.66255
956.9327, 76.33701
957.4149, 76.26988
957.8970, 77.02727
958.3791, 78.25371
958.8612, 78.82647
959.3433, 78.69169
959.8254, 78.65452
960.3076, 78.79783
960.7897, 78.88998
961.2718, 78.80479
961.7539, 78.68819
962.2360, 78.76693
962.7181, 78.55723
963.2003, 78.94518
963.6824, 78.27086
964.1645, 77.82320
964.6466, 77.72610
965.1287, 77.81125
965.6108, 77.96400
966.0930, 78.25850
966.5751, 78.93227
967.0572, 80.06139
967.5393, 80.74666
968.0214, 80.65847
968.5035, 80.42838
968.9857, 80.05542
969.4678, 79.75933
969.9499, 79.84276
970.4320, 80.09760
970.9141, 79.98976
971.3962, 79.33833
971.8784, 78.85149
972.3605, 79.10943
972.8426, 79.36687
973.3247, 78.97353
973.8068, 78.36040
974.2889, 77.95887
974.7711, 77.89935
975.2532, 78.36204
975.7353, 79.51163
976.2174, 80.62623
976.6995, 81.05189
977.1816, 81.04848
977.6638, 80.79993
978.1459, 80.46545
978.6280, 80.40441
979.1101, 80.67299
979.5922, 81.07063
980.0743, 81.47750
980.5565, 81.83656
981.0386, 82.03819
981.5207, 82.11245
982.0028, 82.18594
982.4849, 82.25099
982.9670, 82.13544
983.4492, 81.77959
983.9313, 81.44058
984.4134, 81.37306
984.8955, 81.48930
985.3776, 81.49536
985.8597, 81.38510
986.3419, 81.35379
986.8240, 81.41679
987.3061, 81.59132
987.7882, 81.95106
988.2703, 82.22272
988.7524, 82.04700
989.2346, 81.46903
989.7167, 80.97880
990.1988, 80.58571
990.6809, 80.27003
991.1630, 80.16810
991.6451, 79.86809
992.1273, 79.03078
992.6094, 77.98966
993.0915, 77.14574
993.5736, 76.47724
994.0557, 76.42337
994.5378, 77.90812
995.0200, 78.64216
995.5021, 77.84423
995.9842, 76.84931
996.4663, 76.28304
996.9484, 76.02496
997.4305, 75.90788
997.9127, 75.94022
998.3948, 75.82680
998.8769, 75.32224
999.3590, 74.92773
999.8411, 74.81975
1000.323, 74.85593
1000.805, 75.03000
1001.287, 75.22971
1001.770, 75.20249
1002.252, 74.87496
1002.734, 74.69671
1003.216, 75.19334
1003.698, 75.49681
1004.180, 74.81157
1004.662, 73.88000
1005.144, 73.46690
1005.627, 73.55664
1006.109, 73.93474
1006.591, 74.55252
1007.073, 74.89629
1007.555, 74.22655
1008.037, 73.48455
1008.519, 73.84874
1009.001, 74.62525
1009.483, 74.56913
1009.966, 73.75520
1010.448, 73.12488
1010.930, 73.12621
1011.412, 73.34678
1011.894, 73.39481
1012.376, 73.38625
1012.858, 73.63985
1013.340, 73.95779
1013.823, 73.64487
1014.305, 72.75344
1014.787, 72.26505
1015.269, 72.76516
1015.751, 73.57674
1016.233, 73.81605
1016.715, 73.63211
1017.197, 73.28525
1017.679, 72.87971
1018.162, 72.95569
1018.644, 73.59585
1019.126, 74.31383
1019.608, 74.80553
1020.090, 75.03557
1020.572, 74.78011
1021.054, 74.15781
1021.536, 73.99760
1022.018, 74.30083
1022.501, 75.04761
1022.983, 76.27612
1023.465, 77.19162
1023.947, 77.19495
1024.429, 76.59303
1024.911, 75.92379
1025.393, 75.17651
1025.875, 74.92421
1026.358, 75.23287
1026.840, 75.51067
1027.322, 75.62453
1027.804, 75.54288
1028.286, 75.14346
1028.768, 74.70814
1029.250, 75.03524
1029.732, 76.27825
1030.214, 77.03155
1030.697, 77.10216
1031.179, 77.41399
1031.661, 78.45255
1032.143, 79.19166
1032.625, 78.62419
1033.107, 77.32764
1033.589, 77.01989
1034.071, 78.06353
1034.553, 78.37700
1035.036, 77.27405
1035.518, 76.99329
1036.000, 78.64882
1036.482, 80.50008
1036.964, 81.20210
1037.446, 81.04371
1037.928, 80.83213
1038.410, 80.51624
1038.893, 80.32688
1039.375, 80.29066
1039.857, 80.33646
1040.339, 80.31622
1040.821, 80.51362
1041.303, 81.36540
1041.785, 82.57121
1042.267, 83.23825
1042.750, 83.20365
1043.232, 83.17752
1043.714, 83.08193
1044.196, 83.10838
1044.678, 83.46001
1045.160, 83.79816
1045.642, 83.69229
1046.124, 83.41734
1046.606, 83.75076
1047.089, 85.00764
1047.571, 85.69949
1048.053, 85.10545
1048.535, 84.68958
1049.017, 85.02337
1049.499, 85.51509
1049.981, 85.55708
1050.463, 85.44781
1050.945, 86.01237
1051.428, 87.52343
1051.910, 88.51181
1052.392, 88.30054
1052.874, 88.06469
1053.356, 88.08745
1053.838, 88.31164
1054.320, 88.83274
1054.802, 89.46689
1055.285, 89.85166
1055.767, 89.91328
1056.249, 89.97371
1056.731, 90.02575
1057.213, 90.21053
1057.695, 90.67925
1058.177, 91.20359
1058.659, 91.62724
1059.141, 91.96980
1059.624, 92.32076
1060.106, 92.69411
1060.588, 92.91753
1061.070, 92.63445
1061.552, 92.59512
1062.034, 93.32326
1062.516, 94.18919
1062.998, 94.58793
1063.480, 94.81801
1063.963, 95.61489
1064.445, 97.03197
1064.927, 97.90750
1065.409, 97.41066
1065.891, 96.84219
1066.373, 96.75689
1066.855, 96.77370
1067.337, 96.32286
1067.820, 95.91096
1068.302, 96.60896
1068.784, 98.38589
1069.266, 99.60688
1069.748, 99.29775
1070.230, 98.94621
1070.712, 99.25926
1071.194, 99.72227
1071.677, 99.89254
1072.159, 99.99370
1072.641, 100.4694
1073.123, 101.2830
1073.605, 101.9037
1074.087, 102.1920
1074.569, 102.1351
1075.051, 101.1748
1075.533, 100.4487
1076.016, 101.0103
1076.498, 102.1467
1076.980, 102.9551
1077.462, 103.3713
1077.944, 103.6959
1078.426, 103.9500
1078.908, 104.4134
1079.390, 105.7237
1079.873, 106.7226
1080.355, 106.1887
1080.837, 105.2393
1081.319, 105.1759
1081.801, 105.9255
1082.283, 106.7727
1082.765, 107.5150
1083.247, 108.3226
1083.729, 109.4396
1084.212, 110.4434
1084.694, 111.1422
1085.176, 111.5595
1085.658, 111.5479
1086.140, 111.3276
1086.622, 111.3504
1087.104, 111.7245
1087.586, 112.3413
1088.068, 113.4175
1088.551, 114.3905
1089.033, 114.9519
1089.515, 115.3164
1089.997, 115.5928
1090.479, 115.8515
1090.961, 116.0853
1091.443, 116.3209
1091.925, 116.9750
1092.408, 118.8110
1092.890, 120.2665
1093.372, 120.3666
1093.854, 120.2216
1094.336, 120.6002
1094.818, 121.2882
1095.300, 121.9495
1095.782, 122.5200
1096.265, 122.9613
1096.747, 123.1995
1097.229, 123.4350
1097.711, 123.8301
1098.193, 124.1335
1098.675, 123.9909
1099.157, 123.8209
1099.639, 123.9815
1100.121, 124.5653
1100.604, 125.7984
1101.086, 128.0451
1101.568, 129.9520
1102.050, 131.1394
1102.532, 131.9492
1103.014, 132.2339
1103.496, 132.4661
1103.978, 133.1580
1104.460, 133.5547
1104.943, 134.7632
1105.425, 134.8722
1105.907, 135.3601
1106.389, 136.3914
1106.871, 137.8249
1107.353, 140.2953
1107.835, 142.4786
1108.317, 143.1586
1108.800, 143.0640
1109.282, 143.4670
1109.764, 144.4754
1110.246, 145.4404
1110.728, 146.3545
1111.210, 147.1510
1111.692, 147.7434
1112.174, 148.3118
1112.656, 148.9484
1113.139, 149.6089
1113.621, 150.0893
1114.103, 150.4566
1114.585, 151.4502
1115.067, 153.4983
1115.549, 155.3984
1116.031, 157.0523
1116.513, 158.6926
1116.995, 160.4594
1117.478, 162.1637
1117.960, 163.5979
1118.442, 164.8505
1118.924, 166.2018
1119.406, 167.5789
1119.888, 169.3767
1120.370, 171.9086
1120.852, 174.1725
1121.335, 175.6468
1121.817, 177.3846
1122.299, 180.3362
1122.781, 183.6571
1123.263, 185.7077
1123.745, 186.4479
1124.227, 187.7499
1124.709, 189.6419
1125.192, 192.0305
1125.674, 195.0608
1126.156, 198.0970
1126.638, 200.8982
1127.120, 203.4052
1127.602, 205.4137
1128.084, 207.1602
1128.566, 209.9177
1129.048, 213.8310
1129.531, 217.4765
1130.013, 220.7763
1130.495, 224.0440
1130.977, 227.3490
1131.459, 230.7486
1131.941, 234.2490
1132.423, 237.9276
1132.905, 242.0098
1133.387, 246.4597
1133.870, 250.6964
1134.352, 254.7495
1134.834, 259.3026
1135.316, 264.4726
1135.798, 269.6698
1136.280, 274.5561
1136.762, 279.5969
1137.244, 285.5817
1137.727, 292.0639
1138.209, 297.3249
1138.691, 301.8513
1139.173, 307.7943
1139.655, 315.2011
1140.137, 322.9210
1140.619, 330.5644
1141.101, 338.4539
1141.583, 346.9240
1142.066, 355.2449
1142.548, 364.2679
1143.030, 372.8257
1143.512, 381.8462
1143.994, 391.1708
1144.476, 400.1586
1144.958, 408.8969
1145.440, 418.2733
1145.922, 428.7618
1146.405, 440.2434
1146.887, 453.1378
1147.369, 466.4808
1147.851, 479.2348
1148.333, 491.7059
1148.815, 503.8733
1149.297, 516.1377
1149.779, 529.3148
1150.262, 543.5338
1150.744, 558.3718
1151.226, 573.4681
1151.708, 589.0781
1152.190, 605.1166
1152.672, 621.8370
1153.154, 640.3707
1153.636, 659.3614
1154.119, 676.9094
1154.601, 693.0463
1155.083, 709.0819
1155.565, 725.4705
1156.047, 741.6895
1156.529, 757.4686
1157.011, 773.1791
1157.493, 789.2028
1157.975, 805.0195
1158.458, 820.1056
1158.940, 834.5810
1159.422, 849.0663
1159.904, 863.6142
1160.386, 876.9335
1160.868, 888.0686
1161.350, 899.2381
1161.832, 911.7953
1162.314, 922.9512
1162.797, 931.6624
1163.279, 938.3198
1163.761, 943.2413
1164.243, 946.5040
1164.725, 948.3182
1165.207, 948.4271
1165.689, 948.1166
1166.171, 947.7994
1166.654, 945.6556
1167.136, 940.7304
1167.618, 935.7458
1168.100, 933.0397
1168.582, 930.0637
1169.064, 922.3369
1169.546, 910.3079
1170.028, 898.2395
1170.510, 886.1432
1170.993, 871.8621
1171.475, 855.0665
1171.957, 839.4357
1172.439, 826.2679
1172.921, 813.1940
1173.403, 798.1182
1173.885, 781.3763
1174.367, 762.8677
1174.849, 743.3903
1175.332, 725.9475
1175.814, 710.2906
1176.296, 695.6570
1176.778, 681.4507
1177.260, 665.7365
1177.742, 647.5623
1178.224, 629.4553
1178.706, 613.5990
1179.189, 599.1260
1179.671, 585.1766
1180.153, 571.7338
1180.635, 559.1819
1181.117, 547.0608
1181.599, 534.5383
1182.081, 521.5617
1182.563, 508.7115
1183.046, 495.9785
1183.528, 484.5819
1184.010, 476.0984
1184.492, 468.2881
1184.974, 459.3486
1185.456, 450.5421
1185.938, 443.2437
1186.420, 437.1900
1186.902, 431.4844
1187.385, 426.0058
1187.867, 420.8275
1188.349, 415.8049
1188.831, 411.2801
1189.313, 407.5722
1189.795, 404.0330
1190.277, 399.8292
1190.759, 396.1147
1191.241, 394.4429
1191.724, 394.2083
1192.206, 393.0070
1192.688, 390.6161
1193.170, 387.9826
1193.652, 384.3499
1194.134, 383.1287
1194.616, 385.7764
1195.098, 388.1913
1195.581, 387.8479
1196.063, 386.8130
1196.545, 387.9792
1197.027, 390.8353
1197.509, 393.1374
1197.991, 394.9600
1198.473, 397.1078
1198.955, 399.6828
1199.438, 403.3794
1199.920, 408.2838
1200.402, 413.0748
1200.884, 416.7869
1201.366, 420.5342
1201.848, 425.8882
1202.330, 432.2728
1202.812, 438.3145
1203.294, 444.6367
1203.776, 452.5675
1204.259, 461.9784
1204.741, 472.2568
1205.223, 483.1232
1205.705, 494.2553
1206.187, 505.3633
1206.669, 516.9764
1207.151, 529.3273
1207.633, 542.4800
1208.116, 556.2388
1208.598, 571.0213
1209.080, 587.6422
1209.562, 605.7063
1210.044, 623.9717
1210.526, 642.0886
1211.008, 661.7383
1211.490, 682.9463
1211.973, 706.4373
1212.455, 733.7318
1212.937, 761.6277
1213.419, 788.3887
1213.901, 815.4589
1214.383, 844.2697
1214.865, 874.3633
1215.347, 904.0830
1215.829, 933.0712
1216.312, 963.9745
1216.794, 996.9490
1217.276, 1030.199
1217.758, 1063.456
1218.240, 1097.171
1218.722, 1132.044
1219.204, 1166.393
1219.686, 1198.574
1220.168, 1230.607
1220.651, 1259.992
1221.133, 1290.777
1221.615, 1319.546
1222.097, 1346.558
1222.579, 1373.673
1223.061, 1400.839
1223.543, 1425.194
1224.025, 1445.402
1224.508, 1463.302
1224.990, 1481.686
1225.472, 1497.029
1225.954, 1505.083
1226.436, 1512.096
1226.918, 1511.270
1227.400, 1511.410
1227.882, 1505.165
1228.365, 1493.003
1228.847, 1479.221
1229.329, 1465.041
1229.811, 1449.301
1230.293, 1431.831
1230.775, 1412.328
1231.257, 1389.912
1231.739, 1366.301
1232.221, 1341.745
1232.703, 1317.146
1233.186, 1294.307
1233.668, 1272.650
1234.150, 1247.896
1234.632, 1218.750
1235.114, 1192.362
1235.596, 1169.498
1236.078, 1146.033
1236.560, 1120.935
1237.043, 1096.338
1237.525, 1073.253
1238.007, 1052.133
1238.489, 1033.799
1238.971, 1013.241
1239.453, 997.7807
1239.935, 977.2154
1240.417, 959.8926
1240.900, 945.3788
1241.382, 930.7753
1241.864, 915.7786
1242.346, 902.8329
1242.828, 893.0861
1243.310, 885.8703
1243.792, 882.3113
1244.274, 879.0241
1244.756, 872.7708
1245.239, 865.9388
1245.721, 860.4158
1246.203, 856.1650
1246.685, 852.9363
1247.167, 850.6262
1247.649, 849.0759
1248.131, 848.4648
1248.613, 847.8948
1249.095, 847.4969
1249.578, 846.7166
1250.060, 844.5045
1250.542, 843.4851
1251.024, 845.4954
1251.506, 848.5624
1251.988, 850.4710
1252.470, 851.3330
1252.952, 851.3359
1253.435, 850.4374
1253.917, 850.7330
1254.399, 852.1920
1254.881, 852.8923
1255.363, 852.5292
1255.845, 852.3997
1256.327, 853.0667
1256.809, 852.6316
1257.292, 848.8133
1257.774, 844.1065
1258.256, 842.4197
1258.738, 841.6349
1259.220, 839.1859
1259.702, 835.1185
1260.184, 829.3683
1260.666, 822.4357
1261.148, 815.8584
1261.630, 810.0682
1262.113, 802.3763
1262.595, 789.4268
1263.077, 777.9481
1263.559, 771.0619
1264.041, 764.5631
1264.523, 756.9882
1265.005, 748.3408
1265.487, 738.5330
1265.970, 727.7512
1266.452, 716.3914
1266.934, 704.4233
1267.416, 692.7039
1267.898, 681.1701
1268.380, 670.3583
1268.862, 660.3630
1269.344, 650.4121
1269.827, 640.1806
1270.309, 629.1125
1270.791, 616.6046
1271.273, 604.6042
1271.755, 596.5593
1272.237, 590.3926
1272.719, 582.2158
1273.201, 573.2344
1273.683, 565.5558
1274.166, 559.0049
1274.648, 553.0436
1275.130, 547.3585
1275.612, 541.1447
1276.094, 534.0217
1276.576, 526.7018
1277.058, 518.8483
1277.540, 511.7413
1278.022, 506.2545
1278.505, 501.2853
1278.987, 496.2174
1279.469, 491.2685
1279.951, 486.5864
1280.433, 482.2902
1280.915, 478.9891
1281.397, 476.9872
1281.879, 474.1757
1282.362, 470.4594
1282.844, 466.8624
1283.326, 463.5258
1283.808, 460.9270
1284.290, 459.2154
1284.772, 457.7027
1285.254, 455.6137
1285.736, 452.9320
##END=



