##NAMES=Calcite
##RRUFFID=R050009
##IDEAL CHEMISTRY=CaCO_3_
##LOCALITY=Amparo mine, Rodeo, Durango, Mexico
##OWNER=RRUFF
##SOURCE=Eugene Schlepp
##DESCRIPTION=Colorless cleavage rhomb
##STATUS=The identification of this mineral has been confirmed by X-ray diffraction and chemical analysis
##URL=rruff.info/R050009
##MEASURED CHEMISTRY=Ca_1.00_CO_3_; trace amounts of Mn
120.2527, 195.4766
120.7348, 206.2847
121.2169, 217.5470
121.6990, 228.8976
122.1812, 240.9304
122.6633, 253.3234
123.1454, 264.8642
123.6275, 280.1547
124.1096, 305.1804
124.5917, 338.4461
125.0739, 373.8417
125.5560, 406.6219
126.0381, 438.6395
126.5202, 474.3646
127.0023, 515.3662
127.4844, 559.7986
127.9666, 605.7874
128.4487, 653.3054
128.9308, 700.3889
129.4129, 744.8285
129.8950, 787.1694
130.3772, 827.6687
130.8593, 864.8835
131.3414, 900.6696
131.8235, 942.4180
132.3056, 990.4714
132.7877, 1041.242
133.2699, 1088.037
133.7520, 1130.632
134.2341, 1179.805
134.7162, 1243.115
135.1983, 1320.847
135.6804, 1391.772
136.1626, 1453.235
136.6447, 1510.395
137.1268, 1573.202
137.6089, 1642.485
138.0910, 1712.882
138.5731, 1781.445
139.0553, 1850.169
139.5374, 1910.696
140.0195, 1958.751
140.5016, 1998.717
140.9837, 2046.761
141.4658, 2108.656
141.9480, 2170.291
142.4301, 2219.675
142.9122, 2245.988
143.3943, 2282.843
143.8764, 2335.464
144.3585, 2403.184
144.8407, 2477.095
145.3228, 2552.658
145.8049, 2637.444
146.2870, 2737.863
146.7691, 2853.075
147.2512, 2983.013
147.7334, 3124.006
148.2155, 3274.183
148.6976, 3450.476
149.1797, 3659.902
149.6618, 3894.128
150.1439, 4139.873
150.6261, 4391.802
151.1082, 4657.218
151.5903, 4939.680
152.0724, 5251.422
152.5545, 5551.110
153.0366, 5856.339
153.5188, 6145.290
154.0009, 6374.114
154.4830, 6583.298
154.9651, 6698.693
155.4472, 6687.415
155.9293, 6506.442
156.4115, 6256.828
156.8936, 5918.743
157.3757, 5516.611
157.8578, 5130.491
158.3399, 4771.088
158.8221, 4442.862
159.3042, 4144.960
159.7863, 3870.324
160.2684, 3633.144
160.7505, 3443.903
161.2326, 3298.477
161.7148, 3179.125
162.1969, 3088.776
162.6790, 3016.288
163.1611, 2951.909
163.6432, 2890.673
164.1253, 2837.254
164.6075, 2794.695
165.0896, 2763.128
165.5717, 2738.882
166.0538, 2722.944
166.5359, 2712.542
167.0180, 2703.620
167.5002, 2695.408
167.9823, 2687.382
168.4644, 2677.106
168.9465, 2663.257
169.4286, 2655.142
169.9107, 2666.159
170.3929, 2688.211
170.8750, 2704.532
171.3571, 2701.688
171.8392, 2690.701
172.3213, 2682.831
172.8034, 2679.626
173.2856, 2679.329
173.7677, 2681.323
174.2498, 2685.198
174.7319, 2689.492
175.2140, 2693.889
175.6961, 2698.024
176.1783, 2701.913
176.6604, 2706.820
177.1425, 2709.125
177.6246, 2698.996
178.1067, 2679.063
178.5888, 2665.802
179.0710, 2678.891
179.5531, 2707.560
180.0352, 2727.302
180.5173, 2728.873
180.9994, 2722.095
181.4815, 2721.484
181.9637, 2726.974
182.4458, 2736.572
182.9279, 2753.503
183.4100, 2774.504
183.8921, 2786.822
184.3742, 2780.834
184.8564, 2766.473
185.3385, 2770.441
185.8206, 2794.208
186.3027, 2818.889
186.7848, 2822.150
187.2669, 2806.889
187.7491, 2795.378
188.2312, 2796.168
188.7133, 2806.743
189.1954, 2819.275
189.6775, 2834.306
190.1596, 2848.494
190.6418, 2857.033
191.1239, 2860.014
191.6060, 2863.000
192.0881, 2868.273
192.5702, 2875.598
193.0524, 2882.684
193.5345, 2889.156
194.0166, 2896.303
194.4987, 2906.515
194.9808, 2919.991
195.4629, 2933.569
195.9451, 2946.553
196.4272, 2959.058
196.9093, 2967.219
197.3914, 2969.835
197.8735, 2969.805
198.3556, 2972.255
198.8378, 2977.283
199.3199, 2984.042
199.8020, 2992.118
200.2841, 3001.429
200.7662, 3012.879
201.2483, 3028.102
201.7305, 3044.043
202.2126, 3051.247
202.6947, 3046.951
203.1768, 3044.236
203.6589, 3052.543
204.1410, 3073.723
204.6232, 3092.534
205.1053, 3108.246
205.5874, 3120.470
206.0695, 3127.484
206.5516, 3128.468
207.0337, 3126.396
207.5159, 3120.038
207.9980, 3105.810
208.4801, 3106.056
208.9622, 3128.725
209.4443, 3167.863
209.9264, 3193.325
210.4086, 3200.942
210.8907, 3203.275
211.3728, 3210.322
211.8549, 3224.475
212.3370, 3235.008
212.8191, 3238.632
213.3013, 3236.656
213.7834, 3240.888
214.2655, 3253.278
214.7476, 3268.800
215.2297, 3283.347
215.7118, 3297.204
216.1940, 3309.656
216.6761, 3320.375
217.1582, 3329.461
217.6403, 3337.965
218.1224, 3345.518
218.6045, 3352.848
219.0867, 3361.221
219.5688, 3372.435
220.0509, 3379.993
220.5330, 3380.488
221.0151, 3373.637
221.4972, 3373.676
221.9794, 3382.010
222.4615, 3395.641
222.9436, 3412.523
223.4257, 3436.066
223.9078, 3456.041
224.3899, 3469.929
224.8721, 3477.721
225.3542, 3481.600
225.8363, 3479.461
226.3184, 3475.440
226.8005, 3473.508
227.2827, 3470.814
227.7648, 3476.052
228.2469, 3494.146
228.7290, 3527.701
229.2111, 3553.270
229.6932, 3568.803
230.1754, 3577.719
230.6575, 3583.676
231.1396, 3583.157
231.6217, 3585.870
232.1038, 3594.787
232.5859, 3610.815
233.0681, 3628.223
233.5502, 3646.914
234.0323, 3666.962
234.5144, 3689.240
234.9965, 3715.978
235.4786, 3740.963
235.9608, 3762.886
236.4429, 3781.905
236.9250, 3794.955
237.4071, 3795.383
237.8892, 3793.907
238.3713, 3808.381
238.8535, 3846.562
239.3356, 3887.924
239.8177, 3928.257
240.2998, 3970.910
240.7819, 3998.741
241.2640, 4004.840
241.7462, 4000.586
242.2283, 4006.106
242.7104, 4027.347
243.1925, 4048.411
243.6746, 4061.106
244.1567, 4057.025
244.6389, 4076.048
245.1210, 4132.085
245.6031, 4202.832
246.0852, 4247.033
246.5673, 4250.880
247.0494, 4251.555
247.5316, 4260.239
248.0137, 4275.548
248.4958, 4304.803
248.9779, 4353.644
249.4600, 4413.161
249.9421, 4465.554
250.4243, 4507.907
250.9064, 4548.962
251.3885, 4591.186
251.8706, 4633.754
252.3527, 4681.743
252.8348, 4738.796
253.3170, 4798.885
253.7991, 4848.394
254.2812, 4878.276
254.7633, 4913.941
255.2454, 4967.032
255.7275, 5043.333
256.2097, 5113.022
256.6918, 5170.676
257.1739, 5224.649
257.6560, 5291.194
258.1381, 5372.951
258.6202, 5462.254
259.1024, 5557.158
259.5845, 5656.191
260.0666, 5763.678
260.5487, 5883.004
261.0308, 6008.013
261.5129, 6133.735
261.9951, 6260.844
262.4772, 6384.149
262.9593, 6490.198
263.4414, 6564.620
263.9235, 6700.110
264.4056, 6919.245
264.8878, 7180.263
265.3699, 7410.044
265.8520, 7594.434
266.3341, 7793.624
266.8162, 8037.352
267.2983, 8330.574
267.7805, 8621.083
268.2626, 8900.229
268.7447, 9183.805
269.2268, 9493.943
269.7089, 9826.279
270.1910, 10199.21
270.6732, 10627.43
271.1553, 11112.25
271.6374, 11623.29
272.1195, 12159.55
272.6016, 12724.74
273.0837, 13300.58
273.5659, 13883.49
274.0480, 14506.41
274.5301, 15193.96
275.0122, 15944.86
275.4943, 16723.16
275.9764, 17540.53
276.4586, 18363.32
276.9407, 19159.41
277.4228, 19924.06
277.9049, 20621.23
278.3870, 21243.17
278.8691, 21787.66
279.3513, 22216.58
279.8334, 22543.99
280.3155, 22719.54
280.7976, 22673.08
281.2798, 22403.46
281.7619, 21952.67
282.2440, 21310.26
282.7261, 20489.41
283.2082, 19575.44
283.6903, 18557.83
284.1725, 17485.73
284.6546, 16383.18
285.1367, 15262.70
285.6188, 14204.43
286.1009, 13232.54
286.5830, 12346.61
287.0652, 11543.56
287.5473, 10831.13
288.0294, 10198.82
288.5115, 9649.027
288.9936, 9176.312
289.4757, 8756.215
289.9579, 8377.681
290.4400, 8044.038
290.9221, 7763.319
291.4042, 7537.990
291.8863, 7334.850
292.3684, 7114.531
292.8506, 6886.056
293.3327, 6685.476
293.8148, 6528.948
294.2969, 6403.113
294.7790, 6278.146
295.2611, 6153.561
295.7433, 6041.187
296.2254, 5954.760
296.7075, 5887.417
297.1896, 5822.785
297.6717, 5752.847
298.1538, 5684.152
298.6360, 5628.016
299.1181, 5583.459
299.6002, 5544.984
300.0823, 5507.574
300.5644, 5472.896
301.0465, 5444.242
301.5287, 5425.003
302.0108, 5408.973
302.4929, 5388.887
302.9750, 5365.476
303.4571, 5344.062
303.9392, 5332.237
304.4214, 5323.219
304.9035, 5306.609
305.3856, 5276.289
305.8677, 5244.264
306.3498, 5220.474
306.8319, 5203.992
307.3141, 5191.124
307.7962, 5183.321
308.2783, 5176.620
308.7604, 5166.983
309.2425, 5153.437
309.7246, 5137.646
310.2068, 5114.292
310.6889, 5088.681
311.1710, 5074.218
311.6531, 5090.502
312.1352, 5112.377
312.6173, 5119.928
313.0995, 5105.408
313.5816, 5089.691
314.0637, 5082.780
314.5458, 5081.392
315.0279, 5079.260
315.5100, 5072.930
315.9922, 5066.019
316.4743, 5057.703
316.9564, 5044.548
317.4385, 5043.934
317.9206, 5076.405
318.4027, 5121.498
318.8849, 5150.617
319.3670, 5145.629
319.8491, 5132.567
320.3312, 5119.025
320.8133, 5104.904
321.2954, 5094.419
321.7776, 5087.254
322.2597, 5084.435
322.7418, 5087.058
323.2239, 5103.533
323.7060, 5117.228
324.1881, 5121.718
324.6703, 5115.619
325.1524, 5116.086
325.6345, 5134.372
326.1166, 5154.319
326.5987, 5162.924
327.0808, 5141.123
327.5630, 5130.491
328.0451, 5143.089
328.5272, 5177.200
329.0093, 5194.759
329.4914, 5182.629
329.9735, 5165.536
330.4557, 5159.184
330.9378, 5166.692
331.4199, 5180.149
331.9020, 5203.240
332.3841, 5232.571
332.8662, 5250.803
333.3484, 5252.431
333.8305, 5251.037
334.3126, 5254.527
334.7947, 5265.600
335.2768, 5273.093
335.7589, 5276.027
336.2411, 5275.300
336.7232, 5271.769
337.2053, 5263.094
337.6874, 5258.548
338.1695, 5264.901
338.6516, 5284.073
339.1338, 5296.380
339.6159, 5299.961
340.0980, 5298.864
340.5801, 5296.772
341.0622, 5292.593
341.5443, 5297.972
342.0265, 5323.659
342.5086, 5366.274
342.9907, 5396.623
343.4728, 5413.961
343.9549, 5420.896
344.4370, 5412.946
344.9192, 5392.589
345.4013, 5384.289
345.8834, 5405.505
346.3655, 5442.582
346.8476, 5455.576
347.3297, 5443.751
347.8119, 5428.509
348.2940, 5429.439
348.7761, 5443.059
349.2582, 5459.121
349.7403, 5476.435
350.2225, 5493.448
350.7046, 5505.813
351.1867, 5514.583
351.6688, 5527.026
352.1509, 5558.804
352.6331, 5594.979
353.1152, 5610.238
353.5973, 5589.142
354.0794, 5564.378
354.5615, 5569.165
355.0436, 5595.159
355.5258, 5616.971
356.0079, 5613.594
356.4900, 5603.845
356.9721, 5604.990
357.4542, 5622.392
357.9363, 5641.491
358.4185, 5655.711
358.9006, 5665.942
359.3827, 5673.722
359.8648, 5675.245
360.3469, 5677.964
360.8290, 5687.336
361.3112, 5705.162
361.7933, 5719.872
362.2754, 5723.958
362.7575, 5724.581
363.2396, 5729.545
363.7217, 5745.241
364.2039, 5760.748
364.6860, 5771.685
365.1681, 5777.971
365.6502, 5788.843
366.1323, 5812.597
366.6144, 5836.961
367.0966, 5853.462
367.5787, 5850.784
368.0608, 5853.632
368.5429, 5865.745
369.0250, 5885.353
369.5071, 5903.526
369.9893, 5923.538
370.4714, 5938.293
370.9535, 5943.536
371.4356, 5934.243
371.9177, 5925.983
372.3998, 5915.528
372.8820, 5907.963
373.3641, 5916.274
373.8462, 5945.622
374.3283, 5977.511
374.8104, 6007.330
375.2925, 6036.385
375.7747, 6046.698
376.2568, 6030.792
376.7389, 6011.124
377.2210, 6023.799
377.7031, 6071.717
378.1852, 6109.859
378.6674, 6122.024
379.1495, 6113.606
379.6316, 6106.639
380.1137, 6101.094
380.5958, 6097.791
381.0779, 6097.654
381.5601, 6100.531
382.0422, 6105.170
382.5243, 6110.149
383.0064, 6118.333
383.4885, 6137.337
383.9706, 6165.856
384.4528, 6192.942
384.9349, 6211.261
385.4170, 6223.445
385.8991, 6234.778
386.3812, 6246.945
386.8633, 6255.711
387.3455, 6251.478
387.8276, 6240.556
388.3097, 6237.381
388.7918, 6253.796
389.2739, 6278.049
389.7560, 6302.744
390.2382, 6327.689
390.7203, 6348.398
391.2024, 6362.110
391.6845, 6370.331
392.1666, 6374.920
392.6487, 6363.039
393.1309, 6360.188
393.6130, 6380.909
394.0951, 6423.296
394.5772, 6463.623
395.0593, 6507.498
395.5414, 6540.120
396.0236, 6551.704
396.5057, 6521.850
396.9878, 6493.493
397.4699, 6464.775
397.9520, 6439.673
398.4341, 6430.770
398.9163, 6446.253
399.3984, 6469.609
399.8805, 6497.713
400.3626, 6537.650
400.8447, 6559.756
401.3268, 6552.533
401.8090, 6535.954
402.2911, 6540.658
402.7732, 6577.210
403.2553, 6606.894
403.7374, 6616.235
404.2195, 6606.852
404.7017, 6609.173
405.1838, 6625.763
405.6659, 6647.309
406.1480, 6665.449
406.6301, 6680.194
407.1122, 6696.317
407.5944, 6715.269
408.0765, 6735.551
408.5586, 6753.580
409.0407, 6769.446
409.5228, 6783.550
410.0049, 6795.207
410.4871, 6805.145
410.9692, 6816.548
411.4513, 6830.697
411.9334, 6842.496
412.4155, 6841.244
412.8976, 6832.257
413.3798, 6830.767
413.8619, 6851.489
414.3440, 6878.635
414.8261, 6896.108
415.3082, 6903.577
415.7903, 6907.579
416.2725, 6903.310
416.7546, 6901.409
417.2367, 6914.507
417.7188, 6962.832
418.2009, 7008.730
418.6830, 7032.699
419.1652, 7039.365
419.6473, 7044.747
420.1294, 7053.480
420.6115, 7062.992
421.0937, 7072.240
421.5758, 7081.554
422.0579, 7089.188
422.5400, 7091.332
423.0221, 7092.405
423.5042, 7099.721
423.9864, 7114.424
424.4685, 7134.329
424.9506, 7162.234
425.4327, 7199.099
425.9148, 7226.877
426.3969, 7244.285
426.8791, 7254.087
427.3612, 7256.894
427.8433, 7249.316
428.3254, 7245.180
428.8075, 7245.925
429.2896, 7251.636
429.7718, 7263.032
430.2539, 7280.598
430.7360, 7301.154
431.2181, 7324.785
431.7002, 7350.962
432.1823, 7371.809
432.6645, 7386.684
433.1466, 7397.105
433.6287, 7400.734
434.1108, 7399.860
434.5929, 7406.421
435.0750, 7430.996
435.5572, 7463.591
436.0393, 7486.631
436.5214, 7500.421
437.0035, 7511.483
437.4856, 7523.698
437.9677, 7536.597
438.4499, 7550.062
438.9320, 7566.587
439.4141, 7579.362
439.8962, 7574.444
440.3783, 7561.107
440.8604, 7563.126
441.3426, 7617.516
441.8247, 7670.129
442.3068, 7682.555
442.7889, 7638.615
443.2710, 7612.708
443.7531, 7639.361
444.2353, 7688.420
444.7174, 7727.010
445.1995, 7750.237
445.6816, 7762.454
446.1637, 7756.339
446.6458, 7734.851
447.1280, 7729.671
447.6101, 7748.835
448.0922, 7775.555
448.5743, 7802.332
449.0564, 7834.246
449.5385, 7851.747
450.0207, 7848.311
450.5028, 7835.748
450.9849, 7837.747
451.4670, 7857.318
451.9491, 7875.826
452.4312, 7883.201
452.9134, 7882.117
453.3955, 7894.694
453.8776, 7921.841
454.3597, 7955.528
454.8418, 7992.615
455.3239, 8030.804
455.8061, 8059.273
456.2882, 8076.216
456.7703, 8081.927
457.2524, 8065.866
457.7345, 8035.258
458.2166, 8019.463
458.6988, 8051.688
459.1809, 8100.177
459.6630, 8128.638
460.1451, 8131.275
460.6272, 8131.557
461.1093, 8142.935
461.5915, 8161.018
462.0736, 8180.178
462.5557, 8199.167
463.0378, 8218.328
463.5199, 8237.774
464.0020, 8257.362
464.4842, 8276.794
464.9663, 8301.302
465.4484, 8321.497
465.9305, 8331.646
466.4126, 8320.623
466.8947, 8319.385
467.3769, 8334.942
467.8590, 8357.180
468.3411, 8367.732
468.8232, 8354.719
469.3053, 8354.275
469.7874, 8380.421
470.2696, 8431.175
470.7517, 8470.581
471.2338, 8498.108
471.7159, 8515.762
472.1980, 8520.642
472.6801, 8513.193
473.1623, 8511.295
473.6444, 8516.414
474.1265, 8530.124
474.6086, 8565.431
475.0907, 8617.250
475.5728, 8652.704
476.0550, 8638.469
476.5371, 8602.285
477.0192, 8589.347
477.5013, 8601.229
477.9834, 8621.812
478.4655, 8642.032
478.9477, 8662.536
479.4298, 8683.904
479.9119, 8706.843
480.3940, 8730.372
480.8761, 8757.779
481.3582, 8785.824
481.8404, 8804.769
482.3225, 8795.856
482.8046, 8789.954
483.2867, 8805.193
483.7688, 8853.684
484.2509, 8886.460
484.7331, 8883.564
485.2152, 8871.216
485.6973, 8874.734
486.1794, 8908.795
486.6615, 8933.230
487.1436, 8938.840
487.6258, 8930.479
488.1079, 8929.912
488.5900, 8936.341
489.0721, 8952.977
489.5542, 8987.941
490.0363, 9041.686
490.5185, 9075.803
491.0006, 9085.802
491.4827, 9086.919
491.9648, 9096.196
492.4470, 9113.075
492.9291, 9135.434
493.4112, 9167.530
493.8933, 9199.930
494.3754, 9213.730
494.8575, 9211.781
495.3397, 9211.179
495.8218, 9225.056
496.3039, 9245.371
496.7860, 9262.280
497.2681, 9272.773
497.7502, 9286.914
498.2324, 9321.287
498.7145, 9359.481
499.1966, 9379.828
499.6787, 9344.157
500.1608, 9321.426
500.6429, 9340.555
501.1251, 9398.809
501.6072, 9445.976
502.0893, 9481.670
502.5714, 9503.411
503.0535, 9506.884
503.5356, 9475.636
504.0178, 9466.394
504.4999, 9486.612
504.9820, 9522.245
505.4641, 9554.124
505.9462, 9582.456
506.4283, 9605.348
506.9105, 9621.075
507.3926, 9631.005
507.8747, 9639.095
508.3568, 9645.159
508.8389, 9653.486
509.3210, 9667.396
509.8032, 9686.162
510.2853, 9708.892
510.7674, 9736.380
511.2495, 9763.907
511.7316, 9789.943
512.2137, 9812.345
512.6959, 9826.458
513.1780, 9816.885
513.6601, 9809.800
514.1422, 9823.638
514.6243, 9856.397
515.1064, 9893.130
515.5886, 9941.224
516.0707, 9982.333
516.5528, 10003.91
517.0349, 9996.761
517.5170, 9986.519
517.9991, 9963.498
518.4813, 9943.420
518.9634, 9948.949
519.4455, 10003.34
519.9276, 10042.57
520.4097, 10047.03
520.8918, 10023.91
521.3740, 10021.89
521.8561, 10044.60
522.3382, 10076.49
522.8203, 10112.71
523.3024, 10152.06
523.7845, 10176.31
524.2667, 10181.40
524.7488, 10183.49
525.2309, 10207.52
525.7130, 10246.64
526.1951, 10276.11
526.6772, 10282.42
527.1594, 10280.08
527.6415, 10282.76
528.1236, 10290.56
528.6057, 10304.14
529.0878, 10332.19
529.5699, 10360.63
530.0521, 10376.02
530.5342, 10372.68
531.0163, 10375.17
531.4984, 10393.26
531.9805, 10420.38
532.4626, 10449.54
532.9448, 10484.20
533.4269, 10515.56
533.9090, 10541.26
534.3911, 10562.79
534.8732, 10584.99
535.3553, 10608.62
535.8375, 10632.08
536.3196, 10655.63
536.8017, 10679.89
537.2838, 10694.67
537.7659, 10696.80
538.2480, 10700.38
538.7302, 10727.88
539.2123, 10774.39
539.6944, 10801.43
540.1765, 10792.97
540.6586, 10775.62
541.1407, 10793.16
541.6229, 10835.66
542.1050, 10867.72
542.5871, 10859.71
543.0692, 10839.70
543.5513, 10827.54
544.0334, 10824.64
544.5156, 10838.88
544.9977, 10899.71
545.4798, 10964.43
545.9619, 10997.03
546.4440, 10956.55
546.9261, 10934.81
547.4083, 10955.62
547.8904, 11000.94
548.3725, 11037.91
548.8546, 11062.06
549.3367, 11085.89
549.8188, 11114.71
550.3010, 11147.14
550.7831, 11164.29
551.2652, 11161.25
551.7473, 11159.33
552.2294, 11180.83
552.7115, 11221.78
553.1937, 11235.52
553.6758, 11212.41
554.1579, 11186.72
554.6400, 11205.53
555.1221, 11256.83
555.6042, 11305.93
556.0864, 11341.35
556.5685, 11368.98
557.0506, 11392.53
557.5327, 11412.45
558.0148, 11430.00
558.4969, 11439.94
558.9791, 11452.20
559.4612, 11474.77
559.9433, 11511.22
560.4254, 11543.06
560.9075, 11562.13
561.3896, 11577.77
561.8718, 11598.70
562.3539, 11629.46
562.8360, 11658.33
563.3181, 11686.80
563.8002, 11711.47
564.2823, 11721.91
564.7645, 11714.49
565.2466, 11708.96
565.7287, 11716.14
566.2108, 11731.82
566.6929, 11728.32
567.1750, 11704.37
567.6572, 11690.75
568.1393, 11722.55
568.6214, 11781.85
569.1035, 11834.02
569.5856, 11875.19
570.0677, 11904.34
570.5499, 11911.26
571.0320, 11907.92
571.5141, 11913.26
571.9962, 11946.50
572.4783, 11977.51
572.9604, 11994.30
573.4426, 11998.25
573.9247, 11997.78
574.4068, 11979.44
574.8889, 11970.62
575.3710, 11982.06
575.8531, 12015.73
576.3353, 12060.65
576.8174, 12125.79
577.2995, 12188.24
577.7816, 12224.97
578.2637, 12233.69
578.7458, 12235.86
579.2280, 12229.11
579.7101, 12227.14
580.1922, 12265.96
580.6743, 12337.09
581.1564, 12392.79
581.6385, 12402.63
582.1207, 12389.06
582.6028, 12375.20
583.0849, 12362.02
583.5670, 12355.86
584.0491, 12354.60
584.5313, 12365.69
585.0134, 12400.50
585.4955, 12472.86
585.9776, 12528.59
586.4597, 12534.31
586.9418, 12524.31
587.4240, 12538.09
587.9061, 12599.74
588.3882, 12649.23
588.8703, 12676.45
589.3524, 12688.42
589.8345, 12708.31
590.3167, 12741.23
590.7988, 12761.77
591.2809, 12748.48
591.7630, 12712.07
592.2451, 12713.03
592.7272, 12752.54
593.2094, 12800.38
593.6915, 12835.98
594.1736, 12861.08
594.6557, 12879.02
595.1378, 12890.05
595.6199, 12893.67
596.1021, 12876.01
596.5842, 12854.17
597.0663, 12852.55
597.5485, 12898.45
598.0306, 12945.68
598.5127, 12982.00
598.9948, 13008.12
599.4769, 13028.11
599.9590, 13033.42
600.4412, 13043.81
600.9233, 13066.26
601.4054, 13101.55
601.8875, 13138.72
602.3696, 13178.83
602.8517, 13217.54
603.3339, 13253.41
603.8160, 13285.98
604.2981, 13299.75
604.7802, 13288.38
605.2623, 13273.86
605.7444, 13283.64
606.2266, 13313.14
606.7087, 13350.05
607.1908, 13402.04
607.6729, 13447.62
608.1550, 13466.13
608.6371, 13463.64
609.1193, 13460.54
609.6014, 13457.53
610.0835, 13462.20
610.5656, 13479.85
611.0477, 13512.30
611.5298, 13545.80
612.0120, 13580.51
612.4941, 13615.12
612.9762, 13650.37
613.4583, 13690.52
613.9404, 13713.21
614.4225, 13711.28
614.9047, 13702.46
615.3868, 13714.60
615.8689, 13746.07
616.3510, 13772.68
616.8331, 13782.08
617.3152, 13789.88
617.7974, 13825.62
618.2795, 13882.37
618.7616, 13934.91
619.2437, 13974.17
619.7258, 14000.14
620.2079, 14007.44
620.6901, 13996.15
621.1722, 13990.31
621.6543, 13987.12
622.1364, 13999.98
622.6185, 14042.72
623.1006, 14147.63
623.5828, 14210.74
624.0649, 14215.96
624.5470, 14194.14
625.0291, 14176.09
625.5112, 14157.99
625.9933, 14166.78
626.4755, 14213.97
626.9576, 14281.38
627.4397, 14339.18
627.9218, 14386.07
628.4039, 14412.04
628.8860, 14390.01
629.3682, 14355.82
629.8503, 14365.74
630.3324, 14413.88
630.8145, 14454.62
631.2966, 14437.92
631.7787, 14420.23
632.2609, 14449.85
632.7430, 14551.27
633.2251, 14627.13
633.7072, 14645.36
634.1893, 14637.57
634.6714, 14627.49
635.1536, 14606.02
635.6357, 14603.80
636.1178, 14628.54
636.5999, 14667.66
637.0820, 14698.95
637.5641, 14721.98
638.0463, 14743.42
638.5284, 14765.14
639.0105, 14787.04
639.4926, 14806.47
639.9747, 14825.07
640.4568, 14851.26
640.9390, 14902.62
641.4211, 14956.21
641.9032, 14987.29
642.3853, 14994.08
642.8674, 15004.02
643.3495, 15032.75
643.8317, 15065.30
644.3138, 15091.34
644.7959, 15104.29
645.2780, 15121.01
645.7601, 15143.56
646.2422, 15167.99
646.7244, 15190.49
647.2065, 15211.18
647.6886, 15227.85
648.1707, 15238.44
648.6528, 15246.92
649.1349, 15263.29
649.6171, 15286.13
650.0992, 15305.70
650.5813, 15307.55
651.0634, 15309.79
651.5455, 15342.59
652.0276, 15399.73
652.5098, 15446.24
652.9919, 15454.19
653.4740, 15453.00
653.9561, 15460.07
654.4382, 15478.09
654.9203, 15498.68
655.4025, 15520.04
655.8846, 15544.31
656.3667, 15573.55
656.8488, 15610.83
657.3309, 15643.29
657.8130, 15668.54
658.2952, 15692.79
658.7773, 15729.06
659.2594, 15775.76
659.7415, 15808.62
660.2236, 15815.94
660.7057, 15815.64
661.1879, 15833.24
661.6700, 15864.18
662.1521, 15895.56
662.6342, 15917.36
663.1163, 15940.89
663.5984, 15979.13
664.0806, 16028.98
664.5627, 16064.82
665.0448, 16064.45
665.5269, 16062.84
666.0090, 16077.46
666.4911, 16112.30
666.9733, 16130.61
667.4554, 16124.41
667.9375, 16117.52
668.4196, 16127.78
668.9017, 16155.17
669.3839, 16198.02
669.8660, 16258.34
670.3481, 16322.78
670.8302, 16383.39
671.3123, 16435.57
671.7944, 16468.17
672.2766, 16469.43
672.7587, 16463.17
673.2408, 16461.03
673.7229, 16463.00
674.2050, 16469.01
674.6871, 16478.70
675.1693, 16492.85
675.6514, 16511.95
676.1335, 16535.82
676.6156, 16565.15
677.0977, 16605.56
677.5798, 16638.02
678.0620, 16646.34
678.5441, 16635.58
679.0262, 16660.13
679.5083, 16722.27
679.9904, 16786.03
680.4725, 16820.51
680.9547, 16837.65
681.4368, 16859.53
681.9189, 16889.25
682.4010, 16916.34
682.8831, 16922.65
683.3652, 16927.97
683.8474, 16953.72
684.3295, 17029.89
684.8116, 17086.59
685.2937, 17106.96
685.7758, 17105.51
686.2579, 17095.14
686.7401, 17063.02
687.2222, 17060.01
687.7043, 17105.52
688.1864, 17175.59
688.6685, 17206.18
689.1506, 17200.27
689.6328, 17206.01
690.1149, 17253.60
690.5970, 17319.97
691.0791, 17370.78
691.5612, 17409.14
692.0433, 17449.40
692.5255, 17510.27
693.0076, 17567.79
693.4897, 17604.84
693.9718, 17618.46
694.4539, 17632.27
694.9360, 17644.55
695.4182, 17662.32
695.9003, 17687.98
696.3824, 17718.28
696.8645, 17772.86
697.3466, 17858.83
697.8287, 17950.43
698.3109, 18012.00
698.7930, 18051.91
699.2751, 18113.86
699.7572, 18204.42
700.2393, 18319.68
700.7214, 18463.64
701.2036, 18627.63
701.6857, 18797.19
702.1678, 18964.94
702.6499, 19140.00
703.1320, 19324.79
703.6141, 19519.51
704.0963, 19725.17
704.5784, 19929.39
705.0605, 20163.32
705.5426, 20430.39
706.0247, 20733.83
706.5068, 21084.45
706.9890, 21486.70
707.4711, 21912.64
707.9532, 22339.26
708.4353, 22779.45
708.9174, 23263.52
709.3995, 23789.26
709.8817, 24318.30
710.3638, 24944.02
710.8459, 25478.99
711.3280, 25777.47
711.8101, 25832.89
712.2922, 25590.79
712.7744, 24862.94
713.2565, 23952.93
713.7386, 23043.21
714.2207, 22058.33
714.7028, 21271.29
715.1849, 20698.05
715.6671, 20282.29
716.1492, 19970.12
716.6313, 19758.53
717.1134, 19581.18
717.5955, 19429.98
718.0776, 19306.00
718.5598, 19211.40
719.0419, 19146.94
719.5240, 19115.18
720.0061, 19141.54
720.4882, 19170.31
720.9703, 19175.11
721.4525, 19163.82
721.9346, 19154.20
722.4167, 19141.51
722.8988, 19140.52
723.3809, 19159.23
723.8630, 19191.18
724.3452, 19207.11
724.8273, 19203.68
725.3094, 19207.70
725.7915, 19233.83
726.2736, 19275.59
726.7557, 19325.31
727.2379, 19379.92
727.7200, 19415.26
728.2021, 19397.93
728.6842, 19367.33
729.1663, 19351.63
729.6484, 19353.37
730.1306, 19372.45
730.6127, 19423.22
731.0948, 19479.78
731.5769, 19528.49
732.0590, 19568.88
732.5411, 19604.80
733.0233, 19635.30
733.5054, 19663.43
733.9875, 19695.25
734.4696, 19728.85
734.9517, 19745.96
735.4338, 19742.20
735.9160, 19736.84
736.3981, 19746.61
736.8802, 19768.27
737.3623, 19798.44
737.8444, 19843.39
738.3266, 19882.86
738.8087, 19900.82
739.2908, 19911.85
739.7729, 19936.95
740.2551, 19980.31
740.7372, 20033.69
741.2193, 20107.35
741.7014, 20181.16
742.1835, 20203.61
742.6656, 20173.94
743.1478, 20154.25
743.6299, 20167.84
744.1120, 20197.83
744.5941, 20217.34
745.0762, 20230.60
745.5583, 20251.34
746.0405, 20297.66
746.5226, 20342.59
747.0047, 20366.96
747.4868, 20374.81
747.9689, 20390.42
748.4510, 20420.99
748.9332, 20453.90
749.4153, 20486.22
749.8974, 20517.73
750.3795, 20546.33
750.8616, 20571.21
751.3438, 20598.55
751.8259, 20639.76
752.3080, 20684.62
752.7901, 20704.32
753.2722, 20699.58
753.7543, 20698.33
754.2365, 20712.78
754.7186, 20742.84
755.2007, 20797.28
755.6828, 20886.26
756.1649, 20944.85
756.6470, 20941.82
757.1292, 20924.03
757.6113, 20917.79
758.0934, 20925.01
758.5755, 20932.11
759.0576, 20934.86
759.5397, 20951.96
760.0219, 21019.52
760.5040, 21118.43
760.9861, 21184.31
761.4682, 21203.51
761.9503, 21206.55
762.4324, 21200.60
762.9146, 21199.50
763.3967, 21220.92
763.8788, 21289.79
764.3609, 21347.48
764.8430, 21372.56
765.3251, 21388.12
765.8073, 21424.01
766.2894, 21490.23
766.7715, 21535.23
767.2536, 21546.96
767.7357, 21543.29
768.2178, 21546.25
768.7000, 21558.27
769.1821, 21590.65
769.6642, 21656.43
770.1463, 21728.79
770.6284, 21795.38
771.1105, 21850.48
771.5927, 21883.02
772.0748, 21852.33
772.5569, 21842.44
773.0390, 21886.59
773.5211, 21962.15
774.0032, 22010.65
774.4854, 22024.59
774.9675, 22039.90
775.4496, 22068.63
775.9317, 22104.43
776.4138, 22125.63
776.8959, 22136.64
777.3781, 22162.34
777.8602, 22235.85
778.3423, 22313.30
778.8244, 22362.05
779.3065, 22384.04
779.7886, 22389.72
780.2708, 22362.24
780.7529, 22339.59
781.2350, 22329.76
781.7171, 22333.70
782.1992, 22365.71
782.6813, 22433.47
783.1635, 22497.51
783.6456, 22534.58
784.1277, 22552.66
784.6098, 22577.05
785.0919, 22607.60
785.5740, 22643.38
786.0562, 22701.15
786.5383, 22751.72
787.0204, 22756.04
787.5025, 22712.97
787.9846, 22703.06
788.4667, 22781.54
788.9489, 22862.70
789.4310, 22907.14
789.9131, 22911.21
790.3952, 22948.21
790.8773, 23027.42
791.3594, 23094.84
791.8416, 23091.66
792.3237, 23047.50
792.8058, 23041.96
793.2879, 23078.59
793.7700, 23128.61
794.2521, 23179.32
794.7343, 23230.13
795.2164, 23280.87
795.6985, 23333.56
796.1806, 23379.01
796.6627, 23412.76
797.1448, 23443.83
797.6270, 23475.18
798.1091, 23505.19
798.5912, 23552.96
799.0733, 23622.80
799.5554, 23690.18
800.0375, 23737.60
800.5197, 23763.67
801.0018, 23755.30
801.4839, 23705.06
801.9660, 23669.86
802.4481, 23699.08
802.9302, 23749.25
803.4124, 23782.02
803.8945, 23773.92
804.3766, 23791.83
804.8587, 23849.69
805.3408, 23915.18
805.8229, 23953.95
806.3051, 23966.27
806.7872, 24001.24
807.2693, 24066.36
807.7514, 24134.55
808.2335, 24180.43
808.7156, 24210.96
809.1978, 24236.60
809.6799, 24260.01
810.1620, 24276.96
810.6441, 24268.33
811.1262, 24262.48
811.6083, 24288.59
812.0905, 24364.79
812.5726, 24432.96
813.0547, 24492.61
813.5368, 24541.75
814.0189, 24570.21
814.5010, 24583.09
814.9832, 24615.13
815.4653, 24676.81
815.9474, 24733.07
816.4295, 24741.18
816.9116, 24729.61
817.3937, 24734.08
817.8759, 24769.47
818.3580, 24808.95
818.8401, 24852.39
819.3222, 24893.71
819.8043, 24926.37
820.2864, 24947.98
820.7686, 24971.50
821.2507, 24997.40
821.7328, 25026.71
822.2149, 25067.21
822.6970, 25111.29
823.1791, 25134.70
823.6613, 25121.14
824.1434, 25122.01
824.6255, 25197.25
825.1076, 25293.75
825.5897, 25351.26
826.0718, 25316.66
826.5540, 25303.81
827.0361, 25318.19
827.5182, 25348.35
828.0003, 25387.11
828.4824, 25433.89
828.9645, 25460.59
829.4467, 25458.16
829.9288, 25454.71
830.4109, 25478.88
830.8930, 25524.13
831.3751, 25584.03
831.8572, 25668.22
832.3394, 25739.67
832.8215, 25771.94
833.3036, 25792.83
833.7857, 25836.00
834.2678, 25915.31
834.7499, 25972.72
835.2321, 25998.86
835.7142, 26015.44
836.1963, 26053.03
836.6784, 26104.80
837.1605, 26145.61
837.6426, 26171.02
838.1248, 26182.03
838.6069, 26158.87
839.0890, 26131.45
839.5711, 26134.29
840.0532, 26194.28
840.5353, 26249.06
841.0175, 26293.39
841.4996, 26332.48
841.9817, 26370.57
842.4638, 26407.80
842.9459, 26442.21
843.4280, 26471.78
843.9102, 26508.06
844.3923, 26577.44
844.8744, 26657.79
845.3565, 26710.86
845.8386, 26724.08
846.3207, 26730.26
846.8029, 26734.89
847.2850, 26743.24
847.7671, 26757.65
848.2492, 26768.83
848.7313, 26817.67
849.2134, 26918.21
849.6956, 27019.66
850.1777, 27066.77
850.6598, 27072.69
851.1419, 27082.86
851.6240, 27103.07
852.1061, 27123.87
852.5883, 27117.37
853.0704, 27120.91
853.5525, 27177.84
854.0346, 27324.81
854.5167, 27427.09
854.9988, 27463.23
855.4810, 27472.55
855.9631, 27480.39
856.4452, 27486.79
856.9273, 27481.43
857.4094, 27461.66
857.8915, 27462.47
858.3737, 27543.52
858.8558, 27648.59
859.3379, 27699.63
859.8200, 27683.39
860.3021, 27671.88
860.7842, 27692.30
861.2664, 27725.34
861.7485, 27762.43
862.2306, 27805.51
862.7127, 27831.11
863.1948, 27833.69
863.6769, 27844.08
864.1591, 27876.74
864.6412, 27935.42
865.1233, 28057.37
865.6054, 28235.77
866.0875, 28361.25
866.5696, 28312.32
867.0518, 28238.24
867.5339, 28241.29
868.0160, 28332.92
868.4981, 28387.09
868.9802, 28386.96
869.4623, 28384.63
869.9445, 28408.61
870.4266, 28450.04
870.9087, 28453.63
871.3908, 28425.57
871.8729, 28429.58
872.3550, 28555.53
872.8372, 28688.63
873.3193, 28715.09
873.8014, 28653.79
874.2835, 28622.75
874.7656, 28666.63
875.2477, 28724.43
875.7299, 28789.42
876.2120, 28855.21
876.6941, 28891.19
877.1762, 28897.31
877.6583, 28918.25
878.1404, 28992.83
878.6226, 29071.78
879.1047, 29072.52
879.5869, 29024.60
880.0690, 29004.07
880.5511, 29063.95
881.0332, 29127.23
881.5153, 29162.35
881.9974, 29189.08
882.4796, 29260.60
882.9617, 29393.00
883.4438, 29472.07
883.9259, 29452.88
884.4080, 29403.76
884.8901, 29435.12
885.3723, 29521.22
885.8544, 29603.63
886.3365, 29668.69
886.8186, 29714.40
887.3007, 29721.86
887.7828, 29716.08
888.2650, 29734.45
888.7471, 29794.06
889.2292, 29827.68
889.7113, 29818.55
890.1934, 29807.89
890.6755, 29856.71
891.1577, 29948.46
891.6398, 30037.04
892.1219, 30116.09
892.6040, 30175.48
893.0861, 30192.48
893.5682, 30194.76
894.0504, 30208.54
894.5325, 30243.18
895.0146, 30273.76
895.4967, 30296.52
895.9788, 30321.98
896.4609, 30360.21
896.9431, 30409.28
897.4252, 30455.42
897.9073, 30497.84
898.3894, 30544.35
898.8715, 30611.87
899.3536, 30679.21
899.8358, 30734.16
900.3179, 30776.06
900.8000, 30782.75
901.2821, 30706.95
901.7642, 30664.15
902.2463, 30718.71
902.7285, 30854.93
903.2106, 30968.36
903.6927, 31058.36
904.1748, 31123.16
904.6569, 31155.07
905.1390, 31167.01
905.6212, 31162.38
906.1033, 31147.03
906.5854, 31144.17
907.0675, 31159.50
907.5496, 31190.76
908.0317, 31242.97
908.5139, 31308.06
908.9960, 31368.83
909.4781, 31425.03
909.9602, 31449.20
910.4423, 31406.48
910.9244, 31367.61
911.4066, 31444.94
911.8887, 31583.11
912.3708, 31681.22
912.8529, 31649.12
913.3350, 31645.90
913.8171, 31721.69
914.2993, 31823.53
914.7814, 31874.48
915.2635, 31868.78
915.7456, 31897.92
916.2277, 31984.91
916.7098, 32065.18
917.1920, 32032.22
917.6741, 31955.77
918.1562, 31942.54
918.6383, 32029.84
919.1204, 32124.49
919.6025, 32216.90
920.0847, 32291.87
920.5668, 32331.77
921.0489, 32327.33
921.5310, 32361.40
922.0131, 32438.21
922.4952, 32516.85
922.9774, 32564.92
923.4595, 32593.29
923.9416, 32614.34
924.4237, 32629.52
924.9058, 32647.09
925.3879, 32681.71
925.8701, 32706.82
926.3522, 32698.69
926.8343, 32667.15
927.3164, 32700.17
927.7985, 32805.03
928.2806, 32909.14
928.7628, 32985.71
929.2449, 33034.92
929.7270, 33035.25
930.2091, 33008.10
930.6912, 33011.39
931.1733, 33093.69
931.6555, 33181.09
932.1376, 33254.84
932.6197, 33318.34
933.1018, 33380.48
933.5839, 33445.26
934.0660, 33477.40
934.5482, 33463.52
935.0303, 33438.05
935.5124, 33437.86
935.9945, 33459.63
936.4766, 33500.67
936.9587, 33571.51
937.4409, 33631.35
937.9230, 33658.31
938.4051, 33676.27
938.8872, 33702.55
939.3693, 33738.16
939.8514, 33780.01
940.3336, 33829.04
940.8157, 33874.26
941.2978, 33898.23
941.7799, 33917.07
942.2620, 33956.06
942.7441, 34015.66
943.2263, 34078.46
943.7084, 34128.71
944.1905, 34190.57
944.6726, 34285.75
945.1547, 34402.49
945.6368, 34455.55
946.1190, 34440.89
946.6011, 34438.75
947.0832, 34492.08
947.5653, 34569.50
948.0474, 34643.20
948.5295, 34707.55
949.0117, 34749.46
949.4938, 34724.20
949.9759, 34728.82
950.4580, 34796.20
950.9401, 34890.45
951.4222, 34960.61
951.9044, 35006.94
952.3865, 35031.39
952.8686, 35030.09
953.3507, 35027.26
953.8328, 35043.79
954.3149, 35076.53
954.7971, 35122.88
955.2792, 35183.25
955.7613, 35252.15
956.2434, 35350.07
956.7255, 35429.99
957.2076, 35446.50
957.6898, 35403.32
958.1719, 35449.07
958.6540, 35582.50
959.1361, 35696.13
959.6182, 35692.10
960.1003, 35654.24
960.5825, 35655.65
961.0646, 35693.69
961.5467, 35735.72
962.0288, 35776.45
962.5109, 35820.36
962.9930, 35872.21
963.4752, 35923.75
963.9573, 35943.06
964.4394, 35937.65
964.9215, 35956.11
965.4036, 36021.57
965.8857, 36102.00
966.3679, 36186.54
966.8500, 36264.22
967.3321, 36319.87
967.8142, 36321.62
968.2963, 36358.16
968.7784, 36440.94
969.2606, 36535.60
969.7427, 36615.15
970.2248, 36677.06
970.7069, 36706.14
971.1890, 36701.55
971.6711, 36692.33
972.1533, 36686.83
972.6354, 36691.90
973.1175, 36708.65
973.5996, 36737.98
974.0817, 36804.30
974.5638, 36922.91
975.0460, 37022.60
975.5281, 37064.14
976.0102, 37078.11
976.4923, 37138.34
976.9744, 37227.23
977.4565, 37293.19
977.9387, 37292.67
978.4208, 37289.99
978.9029, 37296.87
979.3850, 37319.85
979.8671, 37372.06
980.3492, 37458.84
980.8314, 37546.55
981.3135, 37635.48
981.7956, 37707.94
982.2777, 37733.53
982.7598, 37736.38
983.2419, 37753.62
983.7241, 37793.73
984.2062, 37822.25
984.6883, 37789.16
985.1704, 37784.64
985.6525, 37859.43
986.1346, 38004.30
986.6168, 38130.62
987.0989, 38237.83
987.5810, 38308.77
988.0631, 38298.85
988.5452, 38277.32
989.0273, 38320.24
989.5095, 38403.08
989.9916, 38461.97
990.4737, 38465.90
990.9558, 38474.24
991.4379, 38494.10
991.9200, 38520.52
992.4022, 38537.05
992.8843, 38551.64
993.3664, 38613.23
993.8485, 38742.09
994.3306, 38842.49
994.8127, 38810.05
995.2949, 38745.89
995.7770, 38734.62
996.2591, 38782.16
996.7412, 38878.23
997.2233, 39040.44
997.7054, 39183.74
998.1876, 39239.85
998.6697, 39247.04
999.1518, 39290.36
999.6339, 39362.33
1000.116, 39433.25
1000.598, 39516.42
1001.080, 39565.00
1001.562, 39523.45
1002.044, 39455.98
1002.527, 39488.60
1003.009, 39629.11
1003.491, 39758.24
1003.973, 39856.57
1004.455, 39920.99
1004.937, 39919.96
1005.419, 39894.69
1005.901, 39896.60
1006.384, 39938.65
1006.866, 39992.86
1007.348, 40065.75
1007.830, 40132.84
1008.312, 40171.76
1008.794, 40191.61
1009.276, 40260.06
1009.758, 40369.86
1010.240, 40462.91
1010.723, 40482.14
1011.205, 40496.77
1011.687, 40564.59
1012.169, 40659.87
1012.651, 40708.93
1013.133, 40688.49
1013.615, 40689.74
1014.097, 40731.17
1014.580, 40785.36
1015.062, 40806.46
1015.544, 40814.34
1016.026, 40848.46
1016.508, 40918.64
1016.990, 40999.31
1017.472, 41111.82
1017.954, 41200.50
1018.436, 41222.50
1018.919, 41182.48
1019.401, 41189.64
1019.883, 41244.04
1020.365, 41314.32
1020.847, 41401.79
1021.329, 41480.43
1021.811, 41519.79
1022.293, 41530.02
1022.776, 41535.11
1023.258, 41491.65
1023.740, 41533.21
1024.222, 41707.37
1024.704, 41913.39
1025.186, 42021.36
1025.668, 42044.13
1026.150, 41990.50
1026.632, 41851.11
1027.115, 41785.72
1027.597, 41980.77
1028.079, 42207.18
1028.561, 42303.87
1029.043, 42275.68
1029.525, 42260.27
1030.007, 42257.96
1030.489, 42267.75
1030.972, 42289.07
1031.454, 42322.52
1031.936, 42366.62
1032.418, 42424.30
1032.900, 42500.82
1033.382, 42645.19
1033.864, 42739.45
1034.346, 42754.83
1034.828, 42741.88
1035.311, 42749.82
1035.793, 42778.38
1036.275, 42830.98
1036.757, 42908.42
1037.239, 42983.61
1037.721, 43034.86
1038.203, 43079.37
1038.685, 43131.04
1039.167, 43188.08
1039.650, 43224.10
1040.132, 43226.89
1040.614, 43264.73
1041.096, 43373.50
1041.578, 43505.23
1042.060, 43587.97
1042.542, 43634.20
1043.024, 43665.05
1043.507, 43663.09
1043.989, 43695.01
1044.471, 43808.11
1044.953, 43917.88
1045.435, 43949.59
1045.917, 43910.64
1046.399, 43895.07
1046.881, 43904.88
1047.364, 43940.80
1047.846, 44012.20
1048.328, 44101.70
1048.810, 44214.20
1049.292, 44336.33
1049.774, 44414.52
1050.256, 44432.28
1050.738, 44465.87
1051.220, 44535.54
1051.703, 44612.88
1052.185, 44648.80
1052.667, 44665.08
1053.149, 44697.52
1053.631, 44754.33
1054.113, 44822.14
1054.595, 44911.86
1055.077, 44995.44
1055.559, 45060.53
1056.042, 45107.01
1056.524, 45129.39
1057.006, 45131.23
1057.488, 45141.52
1057.970, 45166.51
1058.452, 45214.82
1058.934, 45309.01
1059.416, 45426.13
1059.899, 45519.09
1060.381, 45576.02
1060.863, 45655.82
1061.345, 45771.93
1061.827, 45874.95
1062.309, 45873.24
1062.791, 45847.30
1063.273, 45941.51
1063.755, 46164.38
1064.238, 46334.36
1064.720, 46339.69
1065.202, 46369.03
1065.684, 46486.28
1066.166, 46657.30
1066.648, 46817.19
1067.130, 46949.36
1067.612, 46976.02
1068.094, 46822.11
1068.577, 46677.84
1069.059, 46636.74
1069.541, 46676.39
1070.023, 46780.25
1070.505, 46963.86
1070.987, 47108.96
1071.469, 47212.81
1071.951, 47322.16
1072.434, 47472.23
1072.916, 47645.00
1073.398, 47795.82
1073.880, 47950.75
1074.362, 48196.05
1074.844, 48535.30
1075.326, 48988.52
1075.808, 49538.25
1076.291, 50249.88
1076.773, 51266.04
1077.255, 52519.41
1077.737, 53792.62
1078.219, 55036.80
1078.701, 56368.13
1079.183, 57800.46
1079.665, 59361.79
1080.147, 61041.91
1080.630, 62855.88
1081.112, 64911.40
1081.594, 67210.23
1082.076, 69775.94
1082.558, 72488.54
1083.040, 75719.46
1083.522, 79041.75
1084.004, 83422.94
1084.486, 90565.77
1084.969, 102708.0
1085.451, 112601.5
1085.933, 121080.8
1086.415, 123886.0
1086.897, 114679.5
1087.379, 99125.91
1087.861, 85696.00
1088.343, 74670.38
1088.826, 66140.11
1089.308, 61342.07
1089.790, 57805.21
1090.272, 55254.83
1090.754, 53474.05
1091.236, 52253.24
1091.718, 51525.02
1092.200, 51013.07
1092.682, 50690.50
1093.165, 50455.02
1093.647, 50271.33
1094.129, 50132.04
1094.611, 50035.63
1095.093, 49977.15
1095.575, 49929.68
1096.057, 49892.29
1096.539, 49893.79
1097.022, 49962.82
1097.504, 50038.91
1097.986, 50047.57
1098.468, 50029.52
1098.950, 50045.55
1099.432, 50139.48
1099.914, 50160.27
1100.396, 50078.27
1100.879, 50018.18
1101.361, 50106.73
1101.843, 50262.32
1102.325, 50317.45
1102.807, 50296.65
1103.289, 50296.13
1103.771, 50368.85
1104.253, 50444.54
1104.735, 50518.01
1105.218, 50580.96
1105.700, 50611.83
1106.182, 50619.92
1106.664, 50652.78
1107.146, 50716.48
1107.628, 50774.54
1108.110, 50797.49
1108.592, 50816.00
1109.074, 50842.56
1109.557, 50878.99
1110.039, 50936.90
1110.521, 51017.12
1111.003, 51086.88
1111.485, 51132.27
1111.967, 51175.32
1112.449, 51232.54
1112.931, 51300.20
1113.414, 51382.38
1113.896, 51489.79
1114.378, 51543.55
1114.860, 51531.11
1115.342, 51519.58
1115.824, 51544.06
1116.306, 51594.53
1116.788, 51671.13
1117.271, 51759.00
1117.753, 51826.07
1118.235, 51840.28
1118.717, 51863.03
1119.199, 51894.34
1119.681, 51942.36
1120.163, 52013.07
1120.645, 52107.28
1121.127, 52250.16
1121.609, 52433.20
1122.092, 52566.10
1122.574, 52557.74
1123.056, 52543.50
1123.538, 52559.10
1124.020, 52603.43
1124.502, 52687.59
1124.984, 52804.79
1125.466, 52899.47
1125.949, 52960.35
1126.431, 52996.27
1126.913, 52983.92
1127.395, 52973.33
1127.877, 53000.66
1128.359, 53063.03
1128.841, 53149.21
1129.323, 53261.71
1129.806, 53359.21
1130.288, 53426.74
1130.770, 53473.20
1131.252, 53484.45
1131.734, 53490.86
1132.216, 53534.06
1132.698, 53627.26
1133.180, 53730.60
1133.662, 53849.88
1134.145, 53952.05
1134.627, 54000.40
1135.109, 54030.27
1135.591, 54114.63
1136.073, 54224.84
1136.555, 54286.16
1137.037, 54195.33
1137.519, 54186.51
1138.001, 54299.26
1138.484, 54440.84
1138.966, 54503.19
1139.448, 54522.13
1139.930, 54595.73
1140.412, 54721.09
1140.894, 54813.91
1141.376, 54819.96
1141.858, 54812.40
1142.341, 54800.09
1142.823, 54797.31
1143.305, 54842.82
1143.787, 54923.24
1144.269, 54969.30
1144.751, 54964.04
1145.233, 54985.63
1145.715, 55108.70
1146.198, 55241.80
1146.680, 55329.54
1147.162, 55385.70
1147.644, 55483.33
1148.126, 55617.55
1148.608, 55713.89
1149.090, 55738.46
1149.572, 55751.10
1150.054, 55797.61
1150.536, 55853.13
1151.019, 55891.51
1151.501, 55909.72
1151.983, 55945.35
1152.465, 55998.62
1152.947, 56066.55
1153.429, 56174.67
1153.911, 56266.18
1154.393, 56255.14
1154.876, 56198.73
1155.358, 56198.88
1155.840, 56271.95
1156.322, 56369.23
1156.804, 56493.23
1157.286, 56622.84
1157.768, 56773.68
1158.250, 56897.45
1158.733, 56890.61
1159.215, 56797.40
1159.697, 56795.88
1160.179, 56979.70
1160.661, 57099.38
1161.143, 57109.91
1161.625, 57097.44
1162.107, 57169.58
1162.589, 57283.92
1163.072, 57370.05
1163.554, 57423.72
1164.036, 57472.55
1164.518, 57520.23
1165.000, 57565.15
1165.482, 57597.86
1165.964, 57642.43
1166.446, 57769.90
1166.928, 57935.99
1167.411, 58041.38
1167.893, 58063.13
1168.375, 58057.27
1168.857, 57995.26
1169.339, 57970.45
1169.821, 58031.96
1170.303, 58146.33
1170.785, 58220.82
1171.268, 58264.44
1171.750, 58307.62
1172.232, 58355.04
1172.714, 58414.55
1173.196, 58493.81
1173.678, 58582.80
1174.160, 58681.23
1174.642, 58784.59
1175.125, 58844.54
1175.607, 58870.27
1176.089, 58909.57
1176.571, 58999.84
1177.053, 59089.90
1177.535, 59164.89
1178.017, 59223.00
1178.499, 59248.61
1178.981, 59242.95
1179.464, 59310.77
1179.946, 59448.23
1180.428, 59570.04
1180.910, 59614.13
1181.392, 59637.44
1181.874, 59637.13
1182.356, 59653.83
1182.838, 59774.23
1183.320, 60006.14
1183.803, 60117.66
1184.285, 60088.09
1184.767, 60035.18
1185.249, 59998.28
1185.731, 60015.62
1186.213, 60163.81
1186.695, 60381.23
1187.177, 60488.27
1187.660, 60475.82
1188.142, 60499.31
1188.624, 60588.65
1189.106, 60675.69
1189.588, 60691.27
1190.070, 60686.81
1190.552, 60694.87
1191.034, 60720.39
1191.516, 60784.99
1191.999, 60894.38
1192.481, 60990.09
1192.963, 61052.88
1193.445, 61118.97
1193.927, 61262.64
1194.409, 61402.11
1194.891, 61428.22
1195.373, 61332.43
1195.855, 61339.37
1196.338, 61461.55
1196.820, 61579.73
1197.302, 61652.58
1197.784, 61689.93
1198.266, 61661.50
1198.748, 61625.02
1199.230, 61661.46
1199.712, 61789.73
1200.195, 61909.02
1200.677, 62018.82
1201.159, 62125.46
1201.641, 62251.56
1202.123, 62350.55
1202.605, 62318.71
1203.087, 62240.32
1203.569, 62264.34
1204.052, 62462.83
1204.534, 62579.30
1205.016, 62602.48
1205.498, 62616.39
1205.980, 62685.84
1206.462, 62772.76
1206.944, 62833.55
1207.426, 62877.97
1207.908, 62926.98
1208.391, 62983.23
1208.873, 63041.33
1209.355, 63099.24
1209.837, 63172.05
1210.319, 63308.89
1210.801, 63439.10
1211.283, 63438.54
1211.765, 63357.32
1212.247, 63389.84
1212.730, 63608.38
1213.212, 63739.61
1213.694, 63742.62
1214.176, 63715.51
1214.658, 63731.73
1215.140, 63786.86
1215.622, 63907.32
1216.104, 64071.62
1216.587, 64143.12
1217.069, 64065.68
1217.551, 64077.41
1218.033, 64231.45
1218.515, 64419.61
1218.997, 64555.30
1219.479, 64635.60
1219.961, 64626.46
1220.443, 64537.70
1220.926, 64525.50
1221.408, 64610.86
1221.890, 64715.74
1222.372, 64833.42
1222.854, 64924.75
1223.336, 64905.02
1223.818, 64856.73
1224.300, 64872.54
1224.782, 64967.87
1225.265, 65098.63
1225.747, 65283.08
1226.229, 65406.72
1226.711, 65416.42
1227.193, 65401.18
1227.675, 65475.49
1228.157, 65582.80
1228.639, 65647.70
1229.122, 65656.21
1229.604, 65716.66
1230.086, 65838.62
1230.568, 65948.91
1231.050, 66013.08
1231.532, 66066.88
1232.014, 66169.41
1232.496, 66275.30
1232.979, 66316.78
1233.461, 66277.45
1233.943, 66309.43
1234.425, 66422.53
1234.907, 66499.84
1235.389, 66441.69
1235.871, 66396.94
1236.353, 66573.78
1236.835, 66820.93
1237.318, 66920.07
1237.800, 66837.18
1238.282, 66842.09
1238.764, 66938.90
1239.246, 67036.85
1239.728, 67065.30
1240.210, 67098.09
1240.692, 67224.09
1241.175, 67376.70
1241.657, 67458.03
1242.139, 67450.64
1242.621, 67485.91
1243.103, 67564.65
1243.585, 67645.15
1244.067, 67700.15
1244.549, 67751.65
1245.031, 67823.70
1245.514, 67896.49
1245.996, 67935.21
1246.478, 67933.42
1246.960, 67994.84
1247.442, 68117.88
1247.924, 68237.11
1248.406, 68300.67
1248.888, 68357.57
1249.370, 68450.09
1249.853, 68543.06
1250.335, 68578.87
1250.817, 68560.31
1251.299, 68591.63
1251.781, 68675.13
1252.263, 68776.41
1252.745, 68903.27
1253.227, 69008.17
1253.710, 69045.02
1254.192, 69068.86
1254.674, 69166.77
1255.156, 69321.20
1255.638, 69394.87
1256.120, 69386.08
1256.602, 69377.01
1257.084, 69386.29
1257.567, 69441.70
1258.049, 69571.21
1258.531, 69720.11
1259.013, 69800.20
1259.495, 69835.16
1259.977, 69915.50
1260.459, 70044.53
1260.941, 70175.76
1261.423, 70334.68
1261.906, 70416.88
1262.388, 70368.82
1262.870, 70288.94
1263.352, 70326.69
1263.834, 70439.80
1264.316, 70534.13
1264.798, 70601.93
1265.280, 70674.19
1265.762, 70766.02
1266.245, 70853.13
1266.727, 70929.96
1267.209, 71004.96
1267.691, 71108.27
1268.173, 71208.65
1268.655, 71233.16
1269.137, 71183.79
1269.619, 71201.16
1270.102, 71323.95
1270.584, 71441.07
1271.066, 71524.24
1271.548, 71610.67
1272.030, 71787.16
1272.512, 71963.55
1272.994, 72002.84
1273.476, 71907.40
1273.958, 71899.27
1274.441, 72000.64
1274.923, 72111.40
1275.405, 72214.13
1275.887, 72297.77
1276.369, 72338.96
1276.851, 72364.84
1277.333, 72390.02
1277.815, 72421.27
1278.297, 72501.37
1278.780, 72633.77
1279.262, 72724.62
1279.744, 72747.38
1280.226, 72750.41
1280.708, 72736.88
1281.190, 72752.87
1281.672, 72841.52
1282.154, 72983.99
1282.637, 73128.56
1283.119, 73272.02
1283.601, 73375.19
1284.083, 73427.91
1284.565, 73465.96
1285.047, 73471.73
1285.529, 73518.24
1286.011, 73664.19
1286.494, 73854.11
1286.976, 73900.06
1287.458, 73851.43
1287.940, 73882.20
1288.422, 74038.00
1288.904, 74187.20
1289.386, 74285.89
1289.868, 74361.27
1290.350, 74416.79
1290.833, 74459.02
1291.315, 74498.45
1291.797, 74534.70
1292.279, 74565.67
1292.761, 74589.88
1293.243, 74615.15
1293.725, 74624.48
1294.207, 74687.16
1294.689, 74847.30
1295.172, 75021.61
1295.654, 75058.60
1296.136, 75051.64
1296.618, 75140.97
1297.100, 75358.63
1297.582, 75484.70
1298.064, 75505.02
1298.546, 75531.87
1299.029, 75605.28
1299.511, 75680.96
1299.993, 75715.95
1300.475, 75727.13
1300.957, 75704.98
1301.439, 75666.11
1301.921, 75756.79
1302.403, 75969.99
1302.885, 76071.91
1303.368, 75966.49
1303.850, 75880.41
1304.332, 76002.35
1304.814, 76167.59
1305.296, 76273.47
1305.778, 76337.03
1306.260, 76421.63
1306.742, 76520.79
1307.224, 76605.78
1307.707, 76661.10
1308.189, 76747.63
1308.671, 76956.42
1309.153, 77102.68
1309.635, 77093.80
1310.117, 77013.97
##END=



