##NAMES=Calcioancylite-(Ce)
##RRUFFID=R060205
##IDEAL CHEMISTRY=(Ce,Ca,Sr)(CO_3_)(OH,H_2_O)
##LOCALITY=Mont Saint-Hilaire, Rouville County, Quebec, Canada
##OWNER=RRUFF
##SOURCE=Royal Ontario Museum
##DESCRIPTION=Aggregate of coarse, poorly formed pink crystals, color is pale green under fluorescent lights
##STATUS=The identification of this mineral is confirmed by single-crystal X-ray diffraction and chemical analysis.
##URL=rruff.info/R060205
##MEASURED CHEMISTRY=(Ce_0.57_La_0.35_Nd_0.12_Pr_0.05_)_Σ=1.09_(Ca_0.44_Sr_0.36_Ba_0.04_)_Σ=0.84_(CO_3_)_1.97_(OH_0.83_F_0.17_)_Σ=1.00_·H_2_O
91.82715, 141.8812
92.30927, 141.2725
92.79138, 141.5337
93.27350, 141.4468
93.75562, 140.6935
94.23773, 139.3927
94.71985, 137.8446
95.20197, 136.3255
95.68408, 135.0053
96.16620, 133.8069
96.64832, 132.7372
97.13043, 131.8162
97.61255, 131.0577
98.09467, 130.5109
98.57678, 130.2673
99.05890, 129.6828
99.54102, 129.0012
100.0231, 128.2986
100.5052, 127.5202
100.9874, 126.5770
101.4695, 125.5659
101.9516, 125.1008
102.4337, 125.7817
102.9158, 126.4161
103.3979, 126.7490
103.8801, 126.8843
104.3622, 127.0562
104.8443, 127.4548
105.3264, 128.1081
105.8085, 128.6682
106.2906, 129.3003
106.7728, 129.7020
107.2549, 129.6500
107.7370, 129.1423
108.2191, 128.3887
108.7012, 127.5054
109.1833, 126.4626
109.6655, 125.7794
110.1476, 125.7889
110.6297, 126.1290
111.1118, 126.2555
111.5939, 126.0228
112.0760, 125.6203
112.5582, 125.0225
113.0403, 124.2587
113.5224, 124.0205
114.0045, 125.0747
114.4866, 127.3467
114.9687, 129.2510
115.4509, 131.0911
115.9330, 131.8872
116.4151, 130.5730
116.8972, 127.0654
117.3793, 122.9241
117.8614, 120.2307
118.3436, 119.6075
118.8257, 119.0187
119.3078, 118.0170
119.7899, 117.0400
120.2720, 116.5099
120.7541, 116.5869
121.2363, 117.0088
121.7184, 117.0236
122.2005, 115.9268
122.6826, 115.1632
123.1647, 115.0970
123.6468, 115.3776
124.1290, 115.4857
124.6111, 115.1044
125.0932, 114.3080
125.5753, 113.7317
126.0574, 113.4650
126.5395, 113.2649
127.0217, 113.0763
127.5038, 112.8845
127.9859, 112.6350
128.4680, 112.2417
128.9501, 111.7512
129.4323, 111.4120
129.9144, 111.4349
130.3965, 111.5050
130.8786, 111.2024
131.3607, 110.4162
131.8428, 109.7197
132.3250, 109.7468
132.8071, 110.1739
133.2892, 110.4367
133.7713, 110.0753
134.2534, 109.3298
134.7355, 109.0654
135.2176, 109.6088
135.6998, 110.2221
136.1819, 110.5297
136.6640, 110.6021
137.1461, 110.6281
137.6282, 110.7259
138.1103, 110.8902
138.5925, 111.1843
139.0746, 111.8090
139.5567, 112.4005
140.0388, 112.8218
140.5209, 113.0687
141.0030, 113.2201
141.4852, 113.3583
141.9673, 113.4632
142.4494, 113.6141
142.9315, 113.7899
143.4136, 114.0144
143.8957, 114.3246
144.3779, 114.7222
144.8600, 115.1522
145.3421, 115.5031
145.8242, 115.5168
146.3063, 115.9853
146.7884, 117.5517
147.2706, 119.3984
147.7527, 120.4518
148.2348, 120.2745
148.7169, 119.4087
149.1990, 118.8341
149.6811, 118.4092
150.1633, 118.4628
150.6454, 119.4782
151.1275, 121.1472
151.6096, 122.4592
152.0917, 122.9350
152.5738, 122.9474
153.0560, 123.1206
153.5381, 123.4607
154.0202, 123.9369
154.5023, 124.5651
154.9844, 125.3488
155.4665, 126.1353
155.9487, 126.8728
156.4308, 127.5780
156.9129, 128.2754
157.3950, 128.9796
157.8771, 129.6329
158.3592, 130.1122
158.8414, 130.2969
159.3235, 130.6145
159.8056, 131.1533
160.2877, 131.8544
160.7698, 132.7487
161.2519, 133.8666
161.7341, 135.0547
162.2162, 135.8317
162.6983, 135.7549
163.1804, 135.8445
163.6625, 136.1577
164.1446, 136.7322
164.6268, 137.6339
165.1089, 138.9185
165.5910, 140.5218
166.0731, 142.0699
166.5552, 143.6536
167.0373, 145.0878
167.5195, 146.2881
168.0016, 147.3132
168.4837, 148.2489
168.9658, 149.1171
169.4479, 149.9512
169.9300, 151.1027
170.4122, 152.6853
170.8943, 154.3979
171.3764, 156.3209
171.8585, 158.3378
172.3406, 159.9702
172.8227, 160.6953
173.3049, 160.6494
173.7870, 161.2256
174.2691, 163.1167
174.7512, 165.1506
175.2333, 166.2116
175.7154, 166.2342
176.1976, 166.2991
176.6797, 167.3186
177.1618, 168.9887
177.6439, 170.5663
178.1260, 171.8514
178.6081, 172.9789
179.0903, 174.1902
179.5724, 175.5461
180.0545, 176.7846
180.5366, 177.5956
181.0187, 178.1987
181.5008, 178.9359
181.9830, 179.9980
182.4651, 181.3003
182.9472, 182.6833
183.4293, 184.5485
183.9114, 185.7891
184.3935, 185.6316
184.8757, 184.6563
185.3578, 183.8606
185.8399, 183.9564
186.3220, 184.8448
186.8041, 185.4551
187.2862, 185.5928
187.7684, 185.6272
188.2505, 185.7648
188.7326, 185.8875
189.2147, 185.7212
189.6968, 184.9827
190.1789, 183.6334
190.6611, 182.7104
191.1432, 182.8662
191.6253, 182.8108
192.1074, 181.9296
192.5895, 180.4409
193.0716, 179.0002
193.5538, 178.2306
194.0359, 178.2680
194.5180, 177.7862
195.0001, 176.3407
195.4822, 174.9033
195.9643, 173.9230
196.4465, 173.3928
196.9286, 173.0521
197.4107, 172.6658
197.8928, 172.2172
198.3749, 171.9468
198.8570, 171.9809
199.3392, 172.0782
199.8213, 172.0552
200.3034, 171.9082
200.7855, 171.7923
201.2676, 171.8432
201.7497, 172.0802
202.2319, 172.4050
202.7140, 172.6000
203.1961, 173.0078
203.6782, 174.2518
204.1603, 176.4558
204.6424, 178.3786
205.1246, 178.5965
205.6067, 177.4690
206.0888, 176.6272
206.5709, 176.4965
207.0530, 176.7834
207.5351, 177.0784
208.0173, 177.3195
208.4994, 177.7134
208.9815, 178.5539
209.4636, 179.6731
209.9457, 180.7432
210.4278, 181.5972
210.9100, 182.3290
211.3921, 183.1436
211.8742, 184.0376
212.3563, 185.0242
212.8384, 186.1512
213.3205, 187.3617
213.8027, 188.5584
214.2848, 189.6721
214.7669, 190.7329
215.2490, 191.8444
215.7311, 193.0964
216.2132, 194.2559
216.6953, 195.1747
217.1775, 195.9533
217.6596, 196.7623
218.1417, 197.6923
218.6238, 198.7380
219.1059, 199.8771
219.5880, 201.2891
220.0702, 202.5594
220.5523, 203.4708
221.0344, 204.1767
221.5165, 204.9064
221.9986, 205.7773
222.4807, 206.8044
222.9629, 208.1444
223.4450, 210.5860
223.9271, 212.4818
224.4092, 213.3324
224.8913, 213.4206
225.3734, 213.1925
225.8556, 212.8996
226.3377, 212.5737
226.8198, 212.5813
227.3019, 213.0627
227.7840, 213.7460
228.2661, 214.8226
228.7483, 216.0475
229.2304, 217.0124
229.7125, 217.4504
230.1946, 217.4012
230.6767, 217.2850
231.1588, 216.8139
231.6410, 216.5893
232.1231, 216.9141
232.6052, 217.5907
233.0873, 218.2242
233.5694, 218.5649
234.0515, 218.6711
234.5337, 218.9697
235.0158, 219.7989
235.4979, 220.4199
235.9800, 220.4651
236.4621, 220.1357
236.9442, 219.8944
237.4264, 220.0219
237.9085, 220.4043
238.3906, 220.5069
238.8727, 220.0618
239.3548, 219.6972
239.8369, 219.7065
240.3191, 219.9647
240.8012, 220.1675
241.2833, 220.1631
241.7654, 220.0058
242.2475, 219.8602
242.7296, 219.7141
243.2118, 219.5938
243.6939, 219.5938
244.1760, 219.6436
244.6581, 219.4773
245.1402, 218.8581
245.6223, 218.1211
246.1045, 217.9817
246.5866, 218.6684
247.0687, 219.2538
247.5508, 219.1917
248.0329, 218.6265
248.5150, 218.0593
248.9972, 217.6131
249.4793, 217.2917
249.9614, 217.1804
250.4435, 217.3582
250.9256, 217.2666
251.4077, 216.3747
251.8899, 214.8816
252.3720, 213.6470
252.8541, 212.9552
253.3362, 212.5355
253.8183, 212.0280
254.3004, 211.4307
254.7826, 211.0013
255.2647, 211.0738
255.7468, 211.5156
256.2289, 211.6048
256.7110, 210.9685
257.1931, 210.2795
257.6753, 210.1722
258.1574, 210.5585
258.6395, 210.8737
259.1216, 210.5371
259.6037, 209.7348
260.0858, 209.5343
260.5680, 210.2576
261.0501, 211.3389
261.5322, 212.7344
262.0143, 214.2218
262.4964, 215.1399
262.9785, 214.6865
263.4607, 213.1552
263.9428, 212.3237
264.4249, 212.6776
264.9070, 213.0716
265.3891, 212.8394
265.8712, 212.2370
266.3534, 211.7852
266.8355, 211.8106
267.3176, 212.2261
267.7997, 212.6790
268.2818, 213.2272
268.7639, 213.7214
269.2461, 213.9589
269.7282, 214.1448
270.2103, 214.5565
270.6924, 215.3129
271.1745, 216.4227
271.6566, 218.0634
272.1388, 221.0995
272.6209, 223.1110
273.1030, 223.0784
273.5851, 222.0005
274.0672, 220.8766
274.5493, 220.0993
275.0315, 219.7477
275.5136, 220.1049
275.9957, 221.6595
276.4778, 223.0227
276.9599, 223.9047
277.4420, 224.5387
277.9242, 225.0941
278.4063, 225.6369
278.8884, 226.2078
279.3705, 226.9393
279.8526, 228.0666
280.3347, 228.8257
280.8169, 228.7848
281.2990, 228.6422
281.7811, 228.9531
282.2632, 229.8348
282.7453, 230.9561
283.2274, 231.8365
283.7096, 232.3859
284.1917, 232.9090
284.6738, 233.4996
285.1559, 234.0063
285.6380, 234.1613
286.1201, 234.0375
286.6023, 234.0925
287.0844, 234.9476
287.5665, 236.9089
288.0486, 238.4223
288.5307, 239.0808
289.0128, 239.6861
289.4950, 240.5966
289.9771, 241.7969
290.4592, 243.0746
290.9413, 244.2581
291.4234, 245.3486
291.9055, 246.2876
292.3877, 246.9992
292.8698, 247.6412
293.3519, 248.1168
293.8340, 248.5603
294.3161, 249.2614
294.7982, 250.4662
295.2804, 252.1167
295.7625, 253.3880
296.2446, 253.8384
296.7267, 254.3710
297.2088, 255.0804
297.6909, 255.9926
298.1731, 257.1703
298.6552, 258.6578
299.1373, 260.3410
299.6194, 261.7791
300.1015, 262.9084
300.5836, 263.8193
301.0658, 264.2963
301.5479, 264.6436
302.0300, 265.1951
302.5121, 266.0782
302.9942, 267.1657
303.4763, 268.2124
303.9585, 269.1717
304.4406, 270.1466
304.9227, 271.3365
305.4048, 272.4202
305.8869, 272.9737
306.3690, 272.9733
306.8512, 272.9521
307.3333, 273.6937
307.8154, 275.6201
308.2975, 277.2135
308.7796, 278.4298
309.2617, 279.4236
309.7439, 280.2139
310.2260, 280.8485
310.7081, 281.4438
311.1902, 282.1306
311.6723, 282.9627
312.1544, 283.5109
312.6366, 282.9496
313.1187, 282.9455
313.6008, 284.6833
314.0829, 287.5732
314.5650, 290.2028
315.0471, 291.5694
315.5293, 291.7195
316.0114, 291.2285
316.4935, 289.0360
316.9756, 287.3806
317.4577, 287.2237
317.9398, 287.7957
318.4220, 287.8848
318.9041, 286.8576
319.3862, 285.0949
319.8683, 283.7722
320.3504, 282.4414
320.8326, 282.2731
321.3147, 284.8767
321.7968, 287.8906
322.2789, 288.8400
322.7610, 286.9676
323.2431, 283.5896
323.7253, 280.9095
324.2074, 279.1122
324.6895, 277.7332
325.1716, 277.1779
325.6537, 276.6736
326.1358, 275.6556
326.6180, 274.0857
327.1001, 272.3148
327.5822, 270.6945
328.0643, 269.2225
328.5464, 267.9175
329.0285, 266.8549
329.5107, 265.8603
329.9928, 264.9924
330.4749, 264.1416
330.9570, 263.0686
331.4391, 261.5638
331.9212, 259.6664
332.4034, 257.9584
332.8855, 256.4486
333.3676, 255.1229
333.8497, 254.2506
334.3318, 253.5005
334.8139, 252.3794
335.2961, 250.6418
335.7782, 248.5010
336.2603, 246.6337
336.7424, 245.2934
337.2245, 243.8500
337.7066, 241.9944
338.1888, 240.1637
338.6708, 238.8383
339.1530, 238.1078
339.6351, 237.5925
340.1172, 236.7093
340.5993, 235.2920
341.0814, 233.9270
341.5635, 232.5620
342.0457, 231.2896
342.5278, 230.0867
343.0099, 229.0034
343.4920, 228.2176
343.9741, 228.0329
344.4562, 228.5249
344.9384, 228.2068
345.4205, 225.8957
345.9026, 223.8941
346.3847, 223.0386
346.8668, 222.9053
347.3489, 222.6859
347.8311, 221.8934
348.3132, 220.6522
348.7953, 219.4427
349.2774, 218.0602
349.7595, 217.0466
350.2416, 216.7142
350.7238, 216.6422
351.2059, 216.3913
351.6880, 215.8127
352.1701, 215.1432
352.6522, 214.8522
353.1343, 215.1846
353.6165, 215.1351
354.0986, 214.3121
354.5807, 213.3115
355.0628, 212.3492
355.5449, 211.5049
356.0270, 210.8890
356.5092, 210.6783
356.9913, 210.8897
357.4734, 211.0177
357.9555, 210.7463
358.4376, 210.7695
358.9197, 211.5774
359.4019, 212.8669
359.8840, 214.0757
360.3661, 215.0348
360.8482, 215.5724
361.3303, 215.0286
361.8124, 212.8829
362.2946, 210.8011
362.7767, 209.1457
363.2588, 207.9320
363.7409, 207.2933
364.2230, 207.3189
364.7051, 207.5975
365.1873, 207.5320
365.6694, 207.0523
366.1515, 206.8898
366.6336, 207.5559
367.1157, 208.3181
367.5978, 208.6732
368.0800, 208.6015
368.5621, 208.3086
369.0442, 207.8541
369.5263, 207.2784
370.0084, 206.7813
370.4905, 206.3922
370.9727, 206.0593
371.4548, 205.8722
371.9369, 205.7161
372.4190, 205.2986
372.9011, 204.3157
373.3832, 203.1395
373.8654, 202.4009
374.3475, 202.1697
374.8296, 201.8012
375.3117, 200.8568
375.7938, 199.6448
376.2759, 198.5830
376.7581, 197.6628
377.2402, 197.0129
377.7223, 196.9675
378.2044, 197.3431
378.6865, 197.3017
379.1686, 196.4976
379.6508, 195.3835
380.1329, 194.5362
380.6150, 193.9493
381.0971, 193.2901
381.5792, 192.3528
382.0613, 191.3174
382.5435, 190.4925
383.0256, 189.9211
383.5077, 189.2832
383.9898, 188.2027
384.4719, 186.7924
384.9540, 185.8068
385.4362, 185.5693
385.9183, 185.4940
386.4004, 185.3476
386.8825, 185.0931
387.3646, 184.6068
387.8467, 183.8098
388.3289, 182.7830
388.8110, 181.6915
389.2931, 180.3938
389.7752, 179.3231
390.2573, 178.5901
390.7394, 178.1209
391.2216, 177.9690
391.7037, 178.1206
392.1858, 178.1617
392.6679, 177.5398
393.1500, 176.0270
393.6321, 175.0642
394.1143, 175.2186
394.5964, 175.3559
395.0785, 174.6706
395.5606, 173.3968
396.0427, 172.3722
396.5248, 172.1691
397.0070, 172.5961
397.4891, 172.6097
397.9712, 171.9451
398.4533, 171.1691
398.9354, 170.1389
399.4175, 169.1169
399.8997, 168.4102
400.3818, 168.1035
400.8639, 167.9880
401.3460, 167.7463
401.8281, 167.3017
402.3102, 166.9452
402.7924, 166.6794
403.2745, 166.4823
403.7566, 166.3667
404.2387, 166.3133
404.7208, 166.2859
405.2029, 166.2701
405.6851, 166.2536
406.1672, 166.1534
406.6493, 166.0535
407.1314, 165.7263
407.6135, 164.8955
408.0956, 163.9346
408.5778, 163.2653
409.0599, 163.0412
409.5420, 163.0478
410.0241, 162.9794
410.5062, 162.8147
410.9883, 162.6941
411.4705, 162.7170
411.9526, 162.7227
412.4347, 162.6268
412.9168, 162.4314
413.3989, 162.1748
413.8810, 161.8228
414.3632, 161.4258
414.8453, 161.1844
415.3274, 161.1394
415.8095, 161.1510
416.2916, 161.1677
416.7737, 161.1878
417.2559, 161.2426
417.7380, 161.4229
418.2201, 161.4616
418.7022, 160.9393
419.1843, 159.9339
419.6664, 159.2066
420.1486, 159.0463
420.6307, 159.1804
421.1128, 159.0642
421.5949, 158.6700
422.0770, 159.0410
422.5591, 161.4010
423.0413, 164.3629
423.5234, 166.0980
424.0055, 166.4093
424.4876, 165.8143
424.9697, 164.3979
425.4518, 162.3338
425.9340, 160.8156
426.4161, 159.5462
426.8982, 159.1060
427.3803, 160.5432
427.8624, 162.9414
428.3445, 164.2641
428.8267, 163.6936
429.3088, 162.2043
429.7909, 161.4580
430.2730, 161.8845
430.7551, 162.1378
431.2372, 162.1700
431.7194, 162.0560
432.2015, 161.7426
432.6836, 161.3022
433.1657, 160.9754
433.6478, 160.9703
434.1299, 161.2596
434.6121, 161.4794
435.0942, 161.5575
435.5763, 161.6482
436.0584, 161.7704
436.5405, 161.9192
437.0226, 162.1247
437.5048, 162.3871
437.9869, 162.6051
438.4690, 162.5734
438.9511, 162.1492
439.4332, 161.9418
439.9153, 161.9094
440.3975, 162.1487
440.8796, 162.7954
441.3617, 163.7664
441.8438, 164.9049
442.3259, 166.2662
442.8080, 167.6072
443.2902, 167.9250
443.7723, 166.7144
444.2544, 165.7535
444.7365, 166.0117
445.2186, 166.6110
445.7007, 166.7183
446.1829, 166.1457
446.6650, 165.4990
447.1471, 165.2605
447.6292, 165.3948
448.1113, 165.7498
448.5934, 166.4006
449.0756, 167.0752
449.5577, 167.5892
450.0398, 167.9517
450.5219, 168.1479
451.0040, 168.0144
451.4861, 167.8262
451.9683, 167.8298
452.4504, 168.0145
452.9325, 168.3371
453.4146, 168.8542
453.8967, 169.4054
454.3788, 169.5752
454.8610, 169.2083
455.3431, 169.0340
455.8252, 169.2498
456.3073, 169.7227
456.7894, 170.4637
457.2715, 171.4122
457.7537, 172.1401
458.2358, 172.2017
458.7179, 171.5966
459.2000, 171.5139
459.6821, 172.4179
460.1642, 173.2190
460.6464, 173.6044
461.1285, 173.7088
461.6106, 173.7110
462.0927, 173.6831
462.5748, 173.6281
463.0569, 173.4996
463.5391, 173.0987
464.0212, 173.1796
464.5033, 174.3395
464.9854, 175.3912
465.4675, 175.6044
465.9496, 175.2326
466.4318, 175.0324
466.9139, 175.5485
467.3960, 176.5062
467.8781, 176.9806
468.3602, 176.7061
468.8423, 176.6487
469.3245, 177.3389
469.8066, 178.2028
470.2887, 178.7827
470.7708, 179.0151
471.2529, 179.1749
471.7350, 179.5194
472.2172, 179.9732
472.6993, 180.1638
473.1814, 179.9133
473.6635, 179.8290
474.1456, 180.5165
474.6277, 181.6816
475.1099, 182.6999
475.5920, 183.5735
476.0741, 184.1401
476.5562, 184.1021
477.0383, 183.6469
477.5204, 183.3044
478.0026, 183.2333
478.4847, 183.3902
478.9668, 183.7457
479.4489, 184.3432
479.9310, 184.9505
480.4131, 184.9452
480.8953, 185.4597
481.3774, 187.9414
481.8595, 191.7226
482.3416, 194.7414
482.8237, 195.8013
483.3058, 195.2007
483.7880, 193.9180
484.2701, 190.6417
484.7522, 188.6121
485.2343, 188.5914
485.7164, 189.3159
486.1985, 190.0501
486.6807, 190.5761
487.1628, 190.7831
487.6449, 190.4758
488.1270, 189.7126
488.6091, 189.3460
489.0912, 189.5621
489.5734, 189.8962
490.0555, 190.1643
490.5376, 190.4732
491.0197, 190.8425
491.5018, 191.2536
491.9839, 192.0795
492.4661, 194.3011
492.9482, 197.6269
493.4303, 199.2245
493.9124, 198.1574
494.3945, 196.3564
494.8766, 194.9625
495.3588, 194.0190
495.8409, 193.8287
496.3230, 195.1169
496.8051, 196.5748
497.2872, 197.0403
497.7693, 196.7329
498.2515, 196.4147
498.7336, 196.3243
499.2157, 196.4756
499.6978, 196.9606
500.1799, 197.9325
500.6620, 198.6487
501.1442, 198.9012
501.6263, 199.0219
502.1084, 199.2468
502.5905, 199.5523
503.0726, 199.7574
503.5547, 199.7269
504.0368, 199.6001
504.5190, 199.8797
505.0011, 201.0373
505.4832, 201.8570
505.9653, 202.2307
506.4474, 202.3148
506.9295, 202.0167
507.4117, 201.4757
507.8938, 201.1568
508.3759, 201.4678
508.8580, 202.3292
509.3401, 203.3521
509.8222, 204.8161
510.3044, 205.8207
510.7865, 205.6528
511.2686, 205.0799
511.7507, 204.8486
512.2328, 205.1103
512.7150, 205.4204
513.1971, 205.3586
513.6792, 205.0867
514.1613, 205.1173
514.6434, 205.5632
515.1255, 206.0691
515.6077, 206.3941
516.0898, 206.5587
516.5719, 206.6803
517.0540, 206.6572
517.5361, 206.7203
518.0182, 207.0608
518.5004, 207.5342
518.9825, 207.8818
519.4646, 208.0354
519.9467, 208.1249
520.4288, 208.2839
520.9109, 208.4931
521.3931, 208.9201
521.8752, 209.9365
522.3573, 210.7338
522.8394, 210.8769
523.3215, 210.6625
523.8036, 210.5851
524.2858, 210.8381
524.7679, 211.1405
525.2500, 210.8994
525.7321, 209.8784
526.2142, 209.5229
526.6964, 210.5225
527.1785, 211.5674
527.6606, 212.0049
528.1427, 212.0237
528.6248, 212.0921
529.1069, 212.4382
529.5891, 212.8648
530.0712, 213.0884
530.5533, 213.1223
531.0354, 213.2104
531.5175, 213.4605
531.9996, 213.7244
532.4818, 213.8825
532.9639, 213.9413
533.4460, 213.7266
533.9281, 212.7736
534.4102, 211.8940
534.8923, 211.8394
535.3745, 212.4241
535.8566, 212.9833
536.3387, 213.2145
536.8208, 213.2045
537.3029, 213.1020
537.7850, 212.6861
538.2672, 212.6662
538.7493, 213.6063
539.2314, 214.4032
539.7135, 214.1943
540.1956, 213.3028
540.6777, 212.7002
541.1599, 213.0056
541.6420, 213.8168
542.1241, 214.0878
542.6062, 213.6481
543.0883, 213.2109
543.5704, 212.4799
544.0526, 212.1591
544.5347, 213.0164
545.0168, 214.8113
545.4989, 216.3366
545.9810, 217.1782
546.4631, 217.2603
546.9453, 215.9860
547.4274, 213.4079
547.9095, 211.6314
548.3916, 211.7145
548.8737, 212.7941
549.3558, 213.4856
549.8380, 213.8175
550.3201, 213.8143
550.8022, 213.1233
551.2843, 212.3701
551.7664, 212.1027
552.2485, 212.2527
552.7307, 212.4393
553.2128, 212.4455
553.6949, 212.3490
554.1770, 212.3905
554.6591, 212.8509
555.1412, 212.9305
555.6234, 212.2734
556.1055, 211.5779
556.5876, 211.3389
557.0697, 211.4459
557.5518, 211.4111
558.0339, 210.8327
558.5161, 210.0862
558.9982, 210.0324
559.4803, 210.7215
559.9624, 211.9106
560.4445, 214.5554
560.9266, 216.6416
561.4088, 215.8551
561.8909, 212.4620
562.3730, 209.6299
562.8551, 208.8423
563.3372, 208.9538
563.8193, 208.8894
564.3015, 208.6547
564.7836, 208.4989
565.2657, 208.5600
565.7478, 208.6680
566.2299, 208.4964
566.7120, 207.8877
567.1942, 207.3670
567.6763, 206.9592
568.1584, 206.6164
568.6405, 206.2682
569.1226, 205.9644
569.6047, 205.8461
570.0869, 205.9970
570.5690, 206.2588
571.0511, 206.3254
571.5332, 206.1972
572.0153, 205.8584
572.4974, 204.9988
572.9796, 204.2404
573.4617, 204.0215
573.9438, 204.1634
574.4259, 204.1857
574.9080, 203.8734
575.3901, 203.3936
575.8723, 202.7942
576.3544, 202.1453
576.8365, 201.9113
577.3186, 202.3264
577.8007, 202.8745
578.2828, 202.9734
578.7650, 202.5922
579.2471, 202.2049
579.7292, 201.7912
580.2113, 201.4054
580.6934, 201.0456
581.1755, 200.7368
581.6577, 200.5533
582.1398, 200.5106
582.6219, 200.4587
583.1040, 200.1645
583.5861, 199.5722
584.0682, 199.1915
584.5504, 199.3846
585.0325, 199.3447
585.5145, 198.5684
585.9966, 197.5397
586.4788, 196.9041
586.9609, 196.8505
587.4430, 196.9853
587.9251, 196.9847
588.4072, 196.8682
588.8893, 196.7084
589.3715, 196.5122
589.8536, 196.2619
590.3357, 195.8961
590.8178, 195.4743
591.2999, 195.1958
591.7820, 195.0965
592.2642, 195.0644
592.7463, 195.3028
593.2284, 195.4534
593.7105, 195.0061
594.1926, 193.9892
594.6747, 192.8564
595.1569, 191.9223
595.6390, 191.2357
596.1211, 191.1022
596.6032, 191.9888
597.0853, 192.6192
597.5674, 192.8384
598.0496, 192.7858
598.5317, 192.4953
599.0138, 192.0127
599.4959, 191.4599
599.9780, 190.9454
600.4601, 190.3881
600.9423, 189.4843
601.4244, 188.2257
601.9065, 187.4008
602.3886, 187.3973
602.8707, 187.7601
603.3528, 187.9181
603.8350, 187.8793
604.3171, 187.7705
604.7992, 187.5517
605.2813, 187.3215
605.7634, 187.1682
606.2455, 187.0464
606.7277, 186.8320
607.2098, 186.4815
607.6919, 186.1154
608.1740, 185.9656
608.6561, 186.1367
609.1382, 185.9427
609.6204, 184.9430
610.1025, 184.0818
610.5846, 183.7850
611.0667, 183.7459
611.5488, 183.5347
612.0309, 183.0264
612.5131, 182.4663
612.9952, 182.0931
613.4773, 181.8511
613.9594, 181.5858
614.4415, 181.2979
614.9236, 180.8397
615.4058, 179.9413
615.8879, 178.8705
616.3700, 178.5122
616.8521, 179.2686
617.3342, 179.8240
617.8163, 179.8390
618.2985, 179.6000
618.7806, 179.2712
619.2627, 178.9194
619.7448, 178.6477
620.2269, 178.5314
620.7090, 178.5017
621.1912, 178.3944
621.6733, 178.2642
622.1554, 177.8885
622.6375, 177.0394
623.1196, 176.1169
623.6017, 175.2261
624.0839, 174.4414
624.5660, 173.9494
625.0481, 173.9293
625.5302, 174.0612
626.0123, 174.0938
626.4944, 174.0203
626.9766, 173.7872
627.4587, 173.3680
627.9408, 172.9069
628.4229, 172.5479
628.9050, 172.2892
629.3871, 171.9198
629.8693, 171.1768
630.3514, 170.6733
630.8335, 170.8393
631.3156, 171.1207
631.7977, 170.8088
632.2798, 169.9143
632.7620, 169.1511
633.2441, 169.1913
633.7262, 169.8031
634.2083, 170.0466
634.6904, 169.8104
635.1725, 169.6528
635.6547, 169.8443
636.1368, 170.0828
636.6189, 170.0568
637.1010, 169.7806
637.5831, 169.4796
638.0652, 169.2426
638.5474, 168.9914
639.0295, 168.5741
639.5116, 168.0964
639.9937, 167.8751
640.4758, 168.0200
640.9579, 168.2445
641.4401, 168.1667
641.9222, 167.7461
642.4043, 167.4026
642.8864, 167.2129
643.3685, 167.0119
643.8506, 166.6519
644.3328, 166.3263
644.8149, 166.3497
645.2970, 166.7363
645.7791, 166.9953
646.2612, 166.5133
646.7433, 165.6527
647.2255, 165.4100
647.7076, 165.8272
648.1897, 166.1401
648.6718, 165.9956
649.1539, 165.6092
649.6360, 165.3222
650.1182, 165.1345
650.6003, 165.0312
651.0824, 165.1688
651.5645, 165.2343
652.0466, 164.9495
652.5287, 164.4901
653.0109, 164.2445
653.4930, 164.3361
653.9751, 164.4153
654.4572, 163.8687
654.9393, 162.6663
655.4214, 162.1541
655.9036, 162.6216
656.3857, 163.2083
656.8678, 163.8005
657.3499, 164.1675
657.8320, 163.8760
658.3141, 162.7895
658.7963, 161.9503
659.2784, 162.0778
659.7605, 162.5210
660.2426, 162.5484
660.7247, 162.2022
661.2068, 161.8559
661.6890, 161.6829
662.1711, 161.6143
662.6532, 161.5202
663.1353, 161.3643
663.6174, 161.3101
664.0995, 161.5691
664.5817, 161.6960
665.0638, 161.4566
665.5459, 161.0379
666.0280, 160.6969
666.5101, 160.5014
666.9922, 160.3415
667.4744, 159.8709
667.9565, 159.4160
668.4386, 160.1418
668.9207, 162.1275
669.4028, 163.2975
669.8849, 162.3100
670.3671, 160.2568
670.8492, 159.4588
671.3313, 160.6895
671.8134, 161.1142
672.2955, 160.1228
672.7776, 158.8785
673.2598, 157.8188
673.7419, 156.9899
674.2240, 156.3255
674.7061, 155.8126
675.1882, 155.5911
675.6703, 156.0587
676.1525, 157.0993
676.6346, 157.5087
677.1167, 157.1311
677.5988, 156.5319
678.0809, 155.8094
678.5630, 155.1380
679.0452, 154.8418
679.5273, 154.9851
680.0094, 155.1361
680.4915, 155.2293
680.9736, 155.2588
681.4557, 155.1273
681.9379, 154.9382
682.4200, 154.9036
682.9021, 155.1112
683.3842, 155.5241
683.8663, 156.1744
684.3484, 157.0986
684.8306, 157.6366
685.3127, 157.4737
685.7948, 157.4817
686.2769, 158.3535
686.7590, 159.3977
687.2411, 159.7440
687.7233, 159.2561
688.2054, 159.0087
688.6875, 159.6869
689.1696, 160.6755
689.6517, 161.3282
690.1339, 161.7170
690.6160, 162.0352
691.0981, 162.3463
691.5802, 163.1204
692.0623, 165.2149
692.5444, 168.8896
693.0266, 171.6176
693.5087, 173.3707
693.9908, 174.1249
694.4729, 173.0487
694.9550, 171.5407
695.4371, 171.1509
695.9193, 172.0310
696.4014, 172.8610
696.8835, 172.9183
697.3656, 172.4644
697.8477, 171.7616
698.3298, 170.8443
698.8120, 169.8934
699.2941, 169.0066
699.7762, 167.8616
700.2583, 166.0190
700.7404, 163.4226
701.2225, 160.8431
701.7047, 158.1322
702.1868, 155.6421
702.6689, 153.6276
703.1510, 151.7474
703.6331, 149.5813
704.1152, 147.1645
704.5974, 144.9400
705.0795, 143.3025
705.5616, 141.9584
706.0437, 140.4268
706.5258, 138.7620
707.0079, 137.2533
707.4901, 135.9473
707.9722, 135.0098
708.4543, 134.7198
708.9364, 135.0564
709.4185, 134.9586
709.9006, 134.1743
710.3828, 133.3127
710.8649, 132.2879
711.3470, 131.3508
711.8291, 130.6951
712.3112, 130.3268
712.7933, 130.2029
713.2755, 130.3747
713.7576, 130.6234
714.2397, 130.5359
714.7218, 130.1814
715.2039, 130.1264
715.6860, 130.5629
716.1682, 130.8571
716.6503, 130.3405
717.1324, 129.2519
717.6145, 128.9551
718.0966, 130.3956
718.5787, 131.2233
719.0609, 130.7397
719.5430, 130.0205
720.0251, 129.8748
720.5072, 130.1364
720.9893, 130.1614
721.4714, 129.6114
721.9536, 128.9463
722.4357, 128.9052
722.9178, 129.3352
723.3999, 129.3011
723.8820, 128.6639
724.3641, 127.8643
724.8463, 127.1608
725.3284, 126.4734
725.8105, 125.6130
726.2926, 124.5316
726.7747, 123.3916
727.2568, 122.1737
727.7390, 120.9199
728.2211, 119.7191
728.7032, 118.4797
729.1853, 116.9925
729.6674, 115.2082
730.1495, 113.4536
730.6317, 112.1395
731.1138, 111.1470
731.5959, 110.0112
732.0780, 108.7089
732.5601, 107.4620
733.0422, 106.2809
733.5244, 105.3267
734.0065, 104.9399
734.4886, 105.2881
734.9707, 105.1438
735.4528, 104.2944
735.9349, 103.2143
736.4171, 101.8339
736.8992, 100.4458
737.3813, 99.32201
737.8634, 98.51880
738.3455, 97.95165
738.8276, 97.60283
739.3098, 97.40012
739.7919, 97.30754
740.2740, 97.29688
740.7561, 96.86057
741.2382, 95.78294
741.7203, 94.59170
742.2025, 93.72509
742.6846, 93.17067
743.1667, 92.83558
743.6488, 93.02538
744.1309, 92.99182
744.6130, 92.54408
745.0952, 91.93806
745.5773, 91.22617
746.0594, 90.53014
746.5415, 90.11054
747.0236, 90.13424
747.5057, 90.26563
747.9879, 90.14249
748.4700, 89.78891
748.9521, 89.21146
749.4342, 88.39187
749.9163, 87.75330
750.3984, 87.58237
750.8806, 87.67490
751.3627, 87.56019
751.8448, 87.11818
752.3269, 86.77681
752.8090, 86.62429
753.2911, 86.46303
753.7733, 86.22649
754.2554, 85.92927
754.7375, 85.62781
755.2196, 85.32560
755.7017, 84.88780
756.1838, 84.02901
756.6660, 83.06725
757.1481, 82.52859
757.6302, 82.38245
758.1123, 82.55026
758.5944, 83.06145
759.0765, 83.34236
759.5587, 82.63656
760.0408, 80.98154
760.5229, 80.02498
761.0050, 80.37322
761.4871, 80.51570
761.9692, 80.04375
762.4514, 79.48598
762.9335, 79.23687
763.4156, 79.23696
763.8977, 79.18345
764.3798, 78.91972
764.8619, 78.65137
765.3441, 78.63838
765.8262, 78.70322
766.3083, 78.48376
766.7904, 77.96411
767.2725, 77.40308
767.7546, 76.95305
768.2368, 76.57681
768.7189, 76.18801
769.2010, 75.75401
769.6831, 75.42919
770.1652, 75.30590
770.6473, 75.16043
771.1295, 74.92106
771.6116, 74.59603
772.0937, 74.12559
772.5758, 73.48111
773.0579, 73.05337
773.5400, 73.23825
774.0222, 73.47375
774.5043, 73.31181
774.9864, 72.85894
775.4685, 72.28699
775.9506, 71.67559
776.4327, 71.17213
776.9149, 70.92974
777.3970, 70.90849
777.8791, 70.98006
778.3612, 71.20383
778.8433, 71.18117
779.3254, 70.71500
779.8076, 70.15540
780.2897, 69.88259
780.7718, 69.77835
781.2539, 69.33562
781.7360, 68.12619
782.2181, 67.22952
782.7003, 67.22800
783.1824, 67.36721
783.6645, 66.88735
784.1466, 66.04336
784.6287, 65.65181
785.1108, 66.07431
785.5930, 66.65044
786.0751, 66.47424
786.5572, 65.76469
787.0393, 65.50822
787.5214, 65.77132
788.0035, 65.79066
788.4857, 65.16846
788.9678, 64.32565
789.4499, 63.88263
789.9320, 63.90156
790.4141, 63.81808
790.8962, 63.44054
791.3784, 63.21229
791.8605, 63.10273
792.3426, 63.26802
792.8247, 64.09605
793.3068, 65.38662
793.7889, 66.30699
794.2711, 66.52552
794.7532, 66.11214
795.2353, 64.73210
795.7174, 62.87267
796.1995, 61.57893
796.6816, 60.97320
797.1638, 60.70536
797.6459, 60.58717
798.1280, 60.53213
798.6101, 60.32208
799.0922, 59.88416
799.5743, 59.61783
800.0565, 59.70954
800.5386, 59.67650
801.0207, 59.18393
801.5028, 58.52434
801.9849, 58.01735
802.4670, 57.68312
802.9492, 57.40562
803.4313, 57.05235
803.9134, 56.85445
804.3955, 57.15712
804.8776, 57.60900
805.3597, 57.73405
805.8419, 57.44585
806.3240, 56.84862
806.8061, 55.90327
807.2882, 54.96001
807.7703, 54.74939
808.2524, 55.25916
808.7346, 56.57688
809.2167, 59.07381
809.6988, 60.62080
810.1809, 59.31326
810.6630, 56.44349
811.1451, 55.71716
811.6273, 58.92350
812.1094, 60.16348
812.5915, 57.38756
813.0736, 54.99450
813.5557, 55.37783
814.0378, 56.89162
814.5200, 57.36211
815.0021, 56.42820
815.4842, 55.17706
815.9663, 53.92495
816.4484, 52.97845
816.9305, 52.90225
817.4127, 53.39644
817.8948, 53.68658
818.3769, 53.61681
818.8590, 53.53910
819.3411, 53.76574
819.8232, 54.12799
820.3054, 54.02417
820.7875, 53.30156
821.2696, 52.77492
821.7517, 52.42841
822.2338, 52.42663
822.7159, 53.01172
823.1981, 53.95098
823.6802, 54.99068
824.1623, 56.34606
824.6444, 56.71935
825.1265, 55.07989
825.6086, 53.22545
826.0908, 51.89960
826.5729, 51.09712
827.0550, 50.84468
827.5371, 51.06047
828.0192, 51.37870
828.5013, 51.55921
828.9835, 51.64802
829.4656, 51.73611
829.9477, 51.80494
830.4298, 51.73689
830.9119, 51.50747
831.3940, 51.28905
831.8762, 51.21099
832.3583, 51.20568
832.8404, 51.08510
833.3225, 50.80205
833.8046, 50.53583
834.2867, 50.27421
834.7689, 50.04787
835.2510, 49.85685
835.7331, 49.71114
836.2152, 49.62674
836.6973, 49.60461
837.1794, 49.61048
837.6616, 49.66441
838.1437, 49.70933
838.6258, 49.74113
839.1079, 49.72651
839.5900, 49.56649
840.0721, 49.29802
840.5543, 49.12106
841.0364, 49.17066
841.5185, 49.33596
842.0006, 49.46498
842.4827, 49.55107
842.9648, 49.53669
843.4470, 49.41153
843.9291, 49.21974
844.4112, 48.92657
844.8933, 48.71467
845.3754, 48.94660
845.8575, 49.74943
846.3397, 50.19219
846.8218, 50.03733
847.3039, 49.83709
847.7860, 49.58609
848.2681, 49.41993
848.7502, 49.55893
849.2324, 49.90271
849.7145, 50.00703
850.1966, 49.55214
850.6787, 49.17505
851.1608, 49.36449
851.6429, 49.73546
852.1251, 49.89362
852.6072, 49.82809
853.0893, 49.59436
853.5714, 49.22459
854.0535, 48.93441
854.5356, 49.09511
855.0178, 49.57341
855.4999, 49.72475
855.9820, 49.54107
856.4641, 49.34928
856.9462, 49.22657
857.4283, 49.21832
857.9105, 49.44215
858.3926, 49.82698
858.8747, 49.78035
859.3568, 48.80252
859.8389, 48.27071
860.3210, 48.74119
860.8032, 49.15017
861.2853, 48.79442
861.7674, 48.09970
862.2495, 47.80680
862.7316, 48.06673
863.2137, 48.45038
863.6959, 48.94997
864.1780, 49.33807
864.6601, 49.39500
865.1422, 49.23521
865.6243, 49.03320
866.1064, 48.83190
866.5886, 48.61140
867.0707, 48.36461
867.5528, 48.07185
868.0349, 47.55055
868.5170, 46.90392
868.9991, 46.71999
869.4813, 47.06431
869.9634, 48.09930
870.4455, 50.07337
870.9276, 52.41024
871.4097, 54.11382
871.8918, 55.20834
872.3740, 55.45976
872.8561, 53.82899
873.3382, 53.04671
873.8203, 54.91693
874.3024, 57.03899
874.7845, 57.78773
875.2667, 57.17262
875.7488, 55.40520
876.2309, 51.37724
876.7130, 48.17559
877.1951, 47.30776
877.6772, 47.34942
878.1594, 47.42354
878.6415, 47.37721
879.1236, 47.10338
879.6057, 46.58943
880.0878, 46.17860
880.5699, 46.29050
881.0521, 46.66006
881.5342, 46.77850
882.0163, 46.71714
882.4984, 46.82130
882.9805, 47.16191
883.4626, 47.41137
883.9448, 47.28697
884.4269, 46.94642
884.9090, 46.87645
885.3911, 47.14546
885.8732, 47.28476
886.3553, 47.21488
886.8375, 47.15155
887.3196, 47.24265
887.8017, 47.35325
888.2838, 47.25090
888.7659, 46.91058
889.2480, 46.67766
889.7302, 46.59063
890.2123, 46.57140
890.6944, 46.56810
891.1765, 46.65269
891.6586, 46.70365
892.1407, 46.90979
892.6229, 47.98973
893.1050, 50.54662
893.5871, 52.21702
894.0692, 50.56945
894.5513, 47.85405
895.0334, 46.23407
895.5156, 45.80781
895.9977, 46.79722
896.4798, 49.04700
896.9619, 51.11992
897.4440, 51.77193
897.9261, 51.30323
898.4083, 50.11435
898.8904, 48.31990
899.3725, 47.31101
899.8546, 47.34301
900.3367, 47.60065
900.8188, 47.64616
901.3010, 47.53302
901.7831, 47.34528
902.2652, 47.05280
902.7473, 46.85349
903.2294, 46.58898
903.7115, 46.70704
904.1937, 47.87772
904.6758, 48.99458
905.1579, 48.92831
905.6400, 47.97650
906.1221, 47.40691
906.6042, 47.58107
907.0864, 47.75225
907.5685, 47.65413
908.0506, 47.57947
908.5327, 47.79999
909.0148, 48.14913
909.4969, 48.33921
909.9791, 48.31034
910.4612, 48.24379
910.9433, 48.20830
911.4254, 48.24131
911.9075, 48.50633
912.3896, 48.82768
912.8718, 48.76552
913.3539, 48.34716
913.8360, 48.06116
914.3181, 48.18900
914.8002, 48.49068
915.2823, 48.57318
915.7644, 48.47644
916.2465, 48.53129
916.7286, 48.75227
917.2108, 48.90211
917.6929, 48.90478
918.1750, 48.79539
918.6571, 48.53456
919.1392, 48.21764
919.6213, 48.46479
920.1035, 49.73940
920.5856, 50.43263
921.0677, 50.13108
921.5498, 49.67786
922.0319, 49.38807
922.5140, 49.22019
922.9962, 49.12316
923.4783, 49.09454
923.9604, 49.15434
924.4425, 49.35158
924.9246, 49.57774
925.4067, 49.84747
925.8889, 50.08995
926.3710, 49.95112
926.8531, 49.77031
927.3352, 50.61382
927.8173, 53.03989
928.2994, 54.94483
928.7816, 54.57195
929.2637, 53.22876
929.7458, 51.92973
930.2279, 50.90001
930.7100, 50.57529
931.1921, 50.93675
931.6743, 51.32282
932.1564, 51.22877
932.6385, 50.95798
933.1206, 50.98946
933.6027, 51.30024
934.0848, 51.71556
934.5670, 52.24023
935.0491, 53.57088
935.5312, 56.15058
936.0133, 58.27915
936.4954, 57.59250
936.9775, 54.46649
937.4597, 52.62993
937.9418, 52.19381
938.4239, 52.69787
938.9060, 54.66406
939.3881, 56.31179
939.8702, 56.40181
940.3524, 55.49623
940.8345, 54.78275
941.3166, 54.26648
941.7987, 53.91893
942.2808, 53.79442
942.7629, 53.76017
943.2451, 53.79211
943.7272, 53.89600
944.2093, 54.17277
944.6914, 54.52799
945.1735, 54.63461
945.6556, 54.28555
946.1378, 54.05968
946.6199, 54.20207
947.1020, 54.50248
947.5841, 54.96165
948.0662, 55.40516
948.5483, 55.52659
949.0305, 55.33511
949.5126, 55.23241
949.9947, 55.46581
950.4768, 55.84669
950.9589, 56.28711
951.4410, 56.70440
951.9232, 56.92607
952.4053, 56.99453
952.8874, 57.10907
953.3695, 57.34238
953.8516, 57.57771
954.3337, 57.68031
954.8159, 57.70061
955.2980, 57.74514
955.7801, 57.82264
956.2622, 58.02771
956.7443, 58.37646
957.2264, 58.69743
957.7086, 58.89151
958.1907, 58.98845
958.6728, 59.02648
959.1549, 59.00280
959.6370, 59.01138
960.1191, 59.01891
960.6013, 59.21452
961.0834, 59.71297
961.5655, 60.26701
962.0476, 60.67302
962.5297, 60.97430
963.0118, 61.33600
963.4940, 61.89559
963.9761, 62.16751
964.4582, 61.90898
964.9403, 61.68420
965.4224, 61.67715
965.9045, 61.76838
966.3867, 61.84080
966.8688, 61.90678
967.3509, 62.05641
967.8330, 62.28518
968.3151, 62.62681
968.7972, 63.01690
969.2794, 63.59596
969.7615, 64.86406
970.2436, 66.15540
970.7257, 66.40605
971.2078, 65.55791
971.6899, 64.71354
972.1721, 63.77877
972.6542, 63.81023
973.1363, 66.60188
973.6184, 69.86350
974.1005, 71.01051
974.5826, 70.42440
975.0648, 69.51519
975.5469, 68.77614
976.0290, 68.12138
976.5111, 67.33772
976.9932, 66.72818
977.4753, 66.78208
977.9575, 67.30666
978.4396, 68.02377
978.9217, 68.79483
979.4038, 69.19559
979.8859, 69.01004
980.3680, 68.72701
980.8502, 69.03723
981.3323, 69.77100
981.8144, 70.39260
982.2965, 70.88596
982.7786, 71.02659
983.2607, 70.76268
983.7429, 70.64841
984.2250, 71.07655
984.7071, 71.81853
985.1892, 72.47633
985.6713, 73.05486
986.1534, 73.26028
986.6356, 73.01157
987.1177, 72.84663
987.5998, 72.88994
988.0819, 73.14322
988.5640, 73.66827
989.0461, 74.35154
989.5283, 74.77769
990.0104, 74.79871
990.4925, 75.06683
990.9746, 75.87052
991.4567, 76.34921
991.9388, 75.96681
992.4210, 75.41287
992.9031, 75.33100
993.3852, 75.68523
993.8673, 76.24691
994.3494, 77.45757
994.8315, 78.12540
995.3137, 77.52454
995.7958, 77.21248
996.2779, 78.13419
996.7600, 79.43997
997.2421, 80.16185
997.7242, 80.31960
998.2064, 80.59005
998.6885, 81.15996
999.1706, 81.75424
999.6527, 82.02193
1000.135, 82.58656
1000.617, 84.37394
1001.099, 86.43822
1001.581, 87.33116
1002.063, 86.93245
1002.545, 86.30408
1003.028, 85.73103
1003.510, 85.26378
1003.992, 84.83778
1004.474, 84.60917
1004.956, 84.80695
1005.438, 85.29553
1005.920, 85.84571
1006.402, 86.37862
1006.884, 86.81960
1007.367, 87.08177
1007.849, 87.28013
1008.331, 87.44478
1008.813, 87.66025
1009.295, 88.08076
1009.777, 88.66232
1010.259, 89.28381
1010.741, 89.88866
1011.224, 90.39750
1011.706, 90.69245
1012.188, 90.90182
1012.670, 91.26004
1013.152, 91.67526
1013.634, 91.76917
1014.116, 91.65720
1014.598, 92.03346
1015.080, 93.19804
1015.563, 94.83244
1016.045, 96.99059
1016.527, 99.02337
1017.009, 98.94096
1017.491, 97.20856
1017.973, 95.90897
1018.455, 95.36687
1018.937, 95.40047
1019.419, 95.93654
1019.902, 96.71795
1020.384, 97.43433
1020.866, 98.08557
1021.348, 98.71030
1021.830, 99.30416
1022.312, 99.62343
1022.794, 99.60419
1023.276, 99.86375
1023.759, 100.8038
1024.241, 101.9597
1024.723, 102.5784
1025.205, 102.7027
1025.687, 102.8835
1026.169, 103.1051
1026.651, 103.5466
1027.133, 104.2929
1027.615, 105.0150
1028.098, 105.5013
1028.580, 105.8739
1029.062, 106.3545
1029.544, 106.9506
1030.026, 107.4177
1030.508, 107.7008
1030.990, 108.0556
1031.472, 108.5377
1031.955, 109.0832
1032.437, 109.6801
1032.919, 110.2856
1033.401, 110.8076
1033.883, 111.2253
1034.365, 111.7574
1034.847, 112.3651
1035.329, 113.2042
1035.812, 114.5450
1036.294, 115.7612
1036.776, 116.4354
1037.258, 116.7358
1037.740, 116.9510
1038.222, 117.0510
1038.704, 117.2602
1039.186, 117.4711
1039.668, 117.9710
1040.151, 119.1436
1040.633, 120.2339
1041.115, 120.6044
1041.597, 120.6359
1042.079, 121.0754
1042.561, 121.9972
1043.043, 122.8315
1043.525, 123.4027
1044.007, 124.1152
1044.490, 125.2152
1044.972, 126.2903
1045.454, 127.1053
1045.936, 127.7176
1046.418, 128.1619
1046.900, 128.3904
1047.382, 128.9560
1047.864, 130.2596
1048.347, 131.4284
1048.829, 132.0881
1049.311, 132.7344
1049.793, 133.7809
1050.275, 135.0007
1050.757, 135.9803
1051.239, 136.6645
1051.721, 137.3309
1052.203, 137.8520
1052.686, 138.6069
1053.168, 139.7019
1053.650, 141.0587
1054.132, 142.7618
1054.614, 144.6228
1055.096, 146.3452
1055.578, 147.8897
1056.060, 149.4964
1056.542, 151.2102
1057.025, 153.0169
1057.507, 154.9450
1057.989, 156.9417
1058.471, 158.8933
1058.953, 160.9268
1059.435, 163.2670
1059.917, 165.9464
1060.399, 168.7462
1060.882, 171.4363
1061.364, 174.4756
1061.846, 178.4305
1062.328, 182.4056
1062.810, 185.4532
1063.292, 188.2355
1063.774, 191.7073
1064.256, 195.9913
1064.739, 200.7783
1065.221, 206.0833
1065.703, 211.6391
1066.185, 217.3652
1066.667, 223.2629
1067.149, 229.3767
1067.631, 235.6681
1068.113, 242.1106
1068.595, 248.6780
1069.078, 255.3891
1069.560, 262.3120
1070.042, 269.3202
1070.524, 276.1225
1071.006, 283.2722
1071.488, 291.7354
1071.970, 300.5028
1072.452, 308.2830
1072.934, 315.0564
1073.417, 321.6203
1073.899, 328.0524
1074.381, 334.9634
1074.863, 343.1674
1075.345, 351.3400
1075.827, 358.3628
1076.309, 364.9896
1076.791, 372.1031
1077.274, 379.7277
1077.756, 387.4714
1078.238, 395.3150
1078.720, 402.8438
1079.202, 409.8816
1079.684, 416.4789
1080.166, 423.3763
1080.648, 429.3423
1081.130, 433.5447
1081.613, 435.6026
1082.095, 435.0972
1082.577, 431.9010
1083.059, 426.1743
1083.541, 417.7182
1084.023, 406.9987
1084.505, 394.0391
1084.987, 379.1329
1085.469, 361.5655
1085.952, 342.5308
1086.434, 324.3918
1086.916, 307.6867
1087.398, 292.2159
1087.880, 277.5705
1088.362, 264.5611
1088.844, 253.4637
1089.326, 244.2567
1089.808, 237.3463
1090.291, 232.1720
1090.773, 227.8821
1091.255, 224.3160
1091.737, 221.7029
1092.219, 220.5241
1092.701, 219.7295
1093.183, 218.9994
1093.665, 218.4126
1094.148, 217.8773
1094.630, 217.6092
1095.112, 218.0976
1095.594, 219.2493
1096.076, 220.0622
1096.558, 219.9395
1097.040, 220.0666
1097.522, 220.9819
1098.005, 222.0828
1098.487, 223.0155
1098.969, 223.9468
1099.451, 225.0256
1099.933, 226.2962
1100.415, 227.9638
1100.897, 230.4284
1101.379, 232.1909
1101.861, 231.8701
1102.344, 232.0063
1102.826, 234.2237
1103.308, 236.9363
1103.790, 238.3854
1104.272, 239.1373
1104.754, 241.2711
1105.236, 245.6849
1105.718, 248.2168
1106.200, 246.2163
1106.683, 244.8710
1107.165, 246.1135
1107.647, 248.0654
1108.129, 249.4924
1108.611, 250.6563
1109.093, 252.1982
1109.575, 254.2022
1110.057, 255.9028
1110.540, 257.2293
1111.022, 258.2354
1111.504, 258.1736
1111.986, 258.6412
1112.468, 261.1097
1112.950, 264.1476
1113.432, 265.6737
1113.914, 265.7941
1114.396, 266.6313
1114.879, 268.6343
1115.361, 270.5912
1115.843, 272.5146
1116.325, 274.3488
1116.807, 276.0538
1117.289, 277.6927
1117.771, 279.3037
1118.253, 280.9127
1118.735, 282.6316
1119.218, 284.5327
1119.700, 286.2750
1120.182, 287.5633
1120.664, 289.3809
1121.146, 292.3701
1121.628, 295.2431
1122.110, 297.0376
1122.592, 298.1157
1123.075, 299.0921
1123.557, 299.9030
1124.039, 301.7787
1124.521, 305.2578
1125.003, 307.7438
1125.485, 308.5456
1125.967, 309.2296
1126.449, 310.4997
1126.932, 312.3584
1127.414, 314.9521
1127.896, 318.0882
1128.378, 320.3258
1128.860, 321.5000
1129.342, 323.5019
1129.824, 326.5800
1130.306, 329.5525
1130.788, 331.9799
1131.271, 334.1266
1131.753, 336.1649
1132.235, 338.2050
1132.717, 340.4874
1133.199, 343.0074
1133.681, 345.8470
1134.163, 348.9941
1134.645, 352.0609
1135.127, 354.9491
1135.610, 357.1901
1136.092, 358.4221
1136.574, 359.6336
1137.056, 362.5859
1137.538, 366.6100
1138.020, 369.3599
1138.502, 371.1632
1138.984, 373.4017
1139.467, 376.1855
1139.949, 378.7715
1140.431, 380.8813
1140.913, 383.0258
1141.395, 385.7105
1141.877, 388.6792
1142.359, 391.5240
1142.841, 394.3511
1143.323, 397.4144
1143.806, 400.5991
1144.288, 403.3335
1144.770, 405.6577
1145.252, 408.6754
1145.734, 413.1784
1146.216, 417.8316
1146.698, 421.2793
1147.180, 424.2267
1147.662, 427.5706
1148.145, 430.9577
1148.627, 433.5717
1149.109, 435.6819
1149.591, 438.3539
1150.073, 441.9769
1150.555, 445.9092
1151.037, 449.5702
1151.519, 453.6971
1152.002, 459.3872
1152.484, 465.2037
1152.966, 469.6393
1153.448, 473.2150
1153.930, 477.0677
1154.412, 481.2930
1154.894, 485.0430
1155.376, 487.7101
1155.859, 490.5394
1156.341, 493.5975
1156.823, 497.2763
1157.305, 502.2777
1157.787, 507.6152
1158.269, 512.1525
1158.751, 516.2019
1159.233, 520.9524
1159.715, 526.7697
1160.198, 532.3588
1160.680, 537.5239
1161.162, 542.6329
1161.644, 547.6152
1162.126, 552.7679
1162.608, 558.0316
1163.090, 563.7908
1163.572, 570.9802
1164.054, 579.4925
1164.537, 585.8373
1165.019, 588.9101
1165.501, 593.3762
1165.983, 599.8752
1166.465, 606.4885
1166.947, 612.4652
1167.429, 618.5062
1167.911, 625.1953
1168.394, 632.4739
1168.876, 640.5563
1169.358, 649.4123
1169.840, 657.2208
1170.322, 663.9512
1170.804, 670.1202
1171.286, 675.8274
1171.768, 681.9646
1172.250, 689.0353
1172.733, 696.6865
1173.215, 704.5057
1173.697, 712.5833
1174.179, 721.3388
1174.661, 730.4390
1175.143, 738.5183
1175.625, 745.7910
1176.107, 753.6049
1176.589, 762.3427
1177.072, 771.7403
1177.554, 781.7303
1178.036, 791.8633
1178.518, 801.3422
1179.000, 810.7681
1179.482, 820.8885
1179.964, 831.5160
1180.446, 842.6591
1180.929, 854.0251
1181.411, 864.8152
1181.893, 874.7894
1182.375, 884.6457
1182.857, 894.3976
1183.339, 904.6661
1183.821, 916.2820
1184.303, 928.0750
1184.786, 938.5336
1185.268, 948.9363
1185.750, 961.4308
1186.232, 975.7125
1186.714, 989.0452
1187.196, 1000.406
1187.678, 1012.380
1188.160, 1025.234
1188.642, 1038.848
1189.125, 1053.914
1189.607, 1068.868
1190.089, 1082.235
1190.571, 1095.070
1191.053, 1109.141
1191.535, 1124.419
1192.017, 1139.638
1192.499, 1154.867
1192.981, 1169.922
1193.464, 1184.692
1193.946, 1199.503
1194.428, 1214.138
1194.910, 1230.121
1195.392, 1249.097
1195.874, 1269.457
1196.356, 1287.334
1196.838, 1302.844
1197.321, 1316.907
1197.803, 1329.678
1198.285, 1344.821
1198.767, 1362.734
1199.249, 1381.414
1199.731, 1399.929
1200.213, 1418.405
1200.695, 1436.871
1201.177, 1455.314
1201.660, 1473.762
1202.142, 1492.412
1202.624, 1512.054
1203.106, 1532.258
1203.588, 1551.493
1204.070, 1570.036
1204.552, 1589.996
1205.034, 1612.408
1205.516, 1635.582
1205.999, 1659.140
1206.481, 1681.938
1206.963, 1701.671
1207.445, 1721.430
1207.927, 1744.712
1208.409, 1770.169
1208.891, 1795.333
1209.373, 1819.656
1209.856, 1842.377
1210.338, 1861.229
1210.820, 1882.549
1211.302, 1909.195
1211.784, 1935.981
1212.266, 1960.977
1212.748, 1985.605
1213.230, 2011.278
1213.713, 2037.062
1214.195, 2061.022
1214.677, 2083.127
1215.159, 2106.359
1215.641, 2131.137
1216.123, 2155.457
1216.605, 2178.785
1217.087, 2204.254
1217.569, 2233.124
1218.052, 2262.769
1218.534, 2290.727
1219.016, 2317.470
1219.498, 2343.825
1219.980, 2369.507
1220.462, 2393.167
1220.944, 2415.367
1221.426, 2438.021
1221.908, 2461.903
1222.391, 2490.204
1222.873, 2523.504
1223.355, 2555.017
1223.837, 2579.203
1224.319, 2600.112
1224.801, 2620.737
1225.283, 2641.576
1225.765, 2663.222
1226.248, 2685.341
1226.730, 2708.298
1227.212, 2731.054
1227.694, 2750.655
1228.176, 2766.063
1228.658, 2781.002
1229.140, 2797.323
1229.622, 2812.277
1230.104, 2823.720
1230.587, 2834.953
1231.069, 2848.348
1231.551, 2862.068
1232.033, 2874.410
1232.515, 2885.355
1232.997, 2894.798
1233.479, 2902.508
1233.961, 2910.004
1234.443, 2917.447
1234.926, 2924.455
1235.408, 2931.354
1235.890, 2935.641
1236.372, 2935.876
1236.854, 2934.583
1237.336, 2934.941
1237.818, 2935.046
1238.300, 2929.419
1238.783, 2919.435
1239.265, 2909.902
1239.747, 2900.869
1240.229, 2891.597
1240.711, 2881.870
1241.193, 2871.482
1241.675, 2860.329
1242.157, 2848.407
1242.640, 2835.913
1243.122, 2822.363
1243.604, 2807.240
1244.086, 2790.768
1244.568, 2772.182
1245.050, 2752.965
1245.532, 2736.038
1246.014, 2720.564
1246.496, 2702.531
1246.979, 2680.665
1247.461, 2658.799
1247.943, 2638.828
1248.425, 2616.850
1248.907, 2589.891
1249.389, 2564.014
1249.871, 2542.693
1250.353, 2522.816
1250.835, 2500.918
1251.318, 2477.556
1251.800, 2454.450
1252.282, 2431.583
1252.764, 2409.664
1253.246, 2388.725
1253.728, 2368.840
1254.210, 2349.991
1254.692, 2331.542
1255.175, 2313.198
1255.657, 2295.178
1256.139, 2278.030
1256.621, 2260.686
1257.103, 2239.792
1257.585, 2218.926
1258.067, 2205.245
1258.549, 2195.447
1259.031, 2182.606
1259.514, 2167.164
1259.996, 2154.165
1260.478, 2145.079
1260.960, 2136.149
1261.442, 2126.000
1261.924, 2115.370
1262.406, 2103.813
1262.888, 2092.724
1263.370, 2082.958
1263.853, 2073.902
1264.335, 2064.494
1264.817, 2055.452
1265.299, 2048.667
1265.781, 2044.194
1266.263, 2040.741
1266.745, 2038.370
1267.227, 2036.861
1267.710, 2036.348
1268.192, 2035.216
1268.674, 2032.881
1269.156, 2029.766
1269.638, 2025.939
1270.120, 2023.154
1270.602, 2024.573
1271.084, 2028.883
1271.567, 2034.208
1272.049, 2039.672
1272.531, 2042.956
1273.013, 2044.803
1273.495, 2047.987
1273.977, 2052.816
1274.459, 2056.458
1274.941, 2056.919
1275.423, 2058.880
1275.906, 2065.479
1276.388, 2072.950
1276.870, 2079.794
1277.352, 2086.569
1277.834, 2094.128
1278.316, 2101.728
1278.798, 2107.772
1279.280, 2112.690
1279.762, 2119.130
1280.245, 2127.089
1280.727, 2136.333
1281.209, 2147.629
1281.691, 2156.894
1282.173, 2163.183
1282.655, 2168.100
1283.137, 2172.426
1283.619, 2177.284
1284.102, 2183.996
1284.584, 2190.762
1285.066, 2195.077
1285.548, 2197.348
##END=



