##NAMES=Calcite
##RRUFFID=R040070
##IDEAL CHEMISTRY=CaCO_3_
##LOCALITY=Pryor Mountain, Big Horn County, Montana, USA
##OWNER=RRUFF
##SOURCE=University of Arizona Mineral Museum
##DESCRIPTION=Orange scalenohedral crystals
##STATUS=The identification of this mineral has been confirmed by X-ray diffraction and chemical analysis
##URL=rruff.info/R040070
##MEASURED CHEMISTRY=(Ca_0.99_Mg_0.01_)CO_3_
128.7962, 1341.503
129.2784, 1343.209
129.7605, 1343.193
130.2426, 1344.797
130.7247, 1348.083
131.2068, 1354.524
131.6889, 1365.793
132.1711, 1379.568
132.6532, 1387.089
133.1353, 1386.931
133.6174, 1387.570
134.0995, 1398.699
134.5816, 1420.060
135.0638, 1444.262
135.5459, 1467.844
136.0280, 1490.814
136.5101, 1518.746
136.9922, 1551.231
137.4743, 1589.068
137.9565, 1633.475
138.4386, 1684.167
138.9207, 1742.302
139.4028, 1806.712
139.8849, 1876.437
140.3670, 1957.977
140.8492, 2052.531
141.3313, 2159.116
141.8134, 2273.092
142.2955, 2387.640
142.7776, 2521.114
143.2597, 2689.219
143.7419, 2899.570
144.2240, 3123.915
144.7061, 3352.869
145.1882, 3589.125
145.6703, 3854.975
146.1524, 4163.490
146.6346, 4495.240
147.1167, 4834.820
147.5988, 5153.875
148.0809, 5511.788
148.5630, 5921.538
149.0451, 6392.890
149.5273, 6884.484
150.0094, 7388.600
150.4915, 7911.333
150.9736, 8471.834
151.4557, 9123.871
151.9378, 9761.213
152.4200, 10365.35
152.9021, 11007.37
153.3842, 11495.70
153.8663, 11866.38
154.3484, 12084.42
154.8305, 12035.67
155.3127, 11602.05
155.7948, 10968.20
156.2769, 10237.95
156.7590, 9337.511
157.2411, 8435.252
157.7232, 7539.045
158.2053, 6657.715
158.6875, 5877.040
159.1696, 5245.750
159.6517, 4720.745
160.1338, 4263.876
160.6159, 3879.552
161.0980, 3546.798
161.5802, 3261.639
162.0623, 3027.463
162.5444, 2821.699
163.0265, 2638.275
163.5086, 2476.958
163.9907, 2337.535
164.4729, 2228.636
164.9550, 2135.347
165.4371, 2047.282
165.9192, 1962.056
166.4013, 1888.608
166.8834, 1839.151
167.3656, 1805.974
167.8477, 1771.674
168.3298, 1723.188
168.8119, 1671.324
169.2940, 1626.166
169.7761, 1591.742
170.2583, 1561.649
170.7404, 1530.286
171.2225, 1498.750
171.7046, 1472.333
172.1867, 1460.163
172.6688, 1453.779
173.1510, 1441.171
173.6331, 1413.994
174.1152, 1383.369
174.5973, 1359.614
175.0794, 1342.795
175.5615, 1330.730
176.0437, 1323.916
176.5258, 1320.679
177.0079, 1317.561
177.4900, 1314.248
177.9721, 1309.940
178.4542, 1303.433
178.9364, 1294.724
179.4185, 1284.184
179.9006, 1270.079
180.3827, 1253.850
180.8648, 1240.963
181.3469, 1234.673
181.8291, 1233.380
182.3112, 1234.218
182.7933, 1237.587
183.2754, 1241.013
183.7575, 1242.013
184.2396, 1240.493
184.7218, 1235.969
185.2039, 1225.489
185.6860, 1211.082
186.1681, 1201.283
186.6502, 1198.181
187.1323, 1197.932
187.6144, 1192.591
188.0966, 1182.147
188.5787, 1173.484
189.0608, 1172.512
189.5429, 1178.266
190.0250, 1183.946
190.5071, 1189.254
190.9893, 1193.134
191.4714, 1191.558
191.9535, 1183.982
192.4356, 1176.281
192.9177, 1174.237
193.3998, 1177.686
193.8820, 1180.393
194.3641, 1180.223
194.8462, 1178.255
195.3283, 1179.868
195.8104, 1185.979
196.2925, 1192.194
196.7747, 1193.455
197.2568, 1189.518
197.7389, 1184.608
198.2210, 1178.661
198.7031, 1172.121
199.1852, 1171.863
199.6674, 1179.873
200.1495, 1189.616
200.6316, 1190.677
201.1137, 1181.353
201.5958, 1174.050
202.0779, 1174.300
202.5601, 1182.707
203.0422, 1190.716
203.5243, 1199.219
204.0064, 1206.245
204.4885, 1207.185
204.9706, 1200.332
205.4528, 1193.706
205.9349, 1190.988
206.4170, 1192.707
206.8991, 1195.600
207.3812, 1200.116
207.8633, 1205.362
208.3455, 1208.811
208.8276, 1209.715
209.3097, 1210.850
209.7918, 1214.491
210.2739, 1222.101
210.7560, 1226.128
211.2382, 1224.975
211.7203, 1220.197
212.2024, 1217.788
212.6845, 1219.272
213.1666, 1220.071
213.6487, 1214.936
214.1309, 1198.473
214.6130, 1194.066
215.0951, 1209.368
215.5772, 1239.919
216.0593, 1257.567
216.5414, 1257.938
217.0236, 1252.202
217.5057, 1248.891
217.9878, 1249.009
218.4699, 1248.972
218.9520, 1247.930
219.4341, 1246.019
219.9162, 1245.559
220.3984, 1246.371
220.8805, 1248.898
221.3626, 1254.467
221.8447, 1266.421
222.3268, 1273.950
222.8089, 1272.770
223.2911, 1262.185
223.7732, 1259.029
224.2553, 1265.855
224.7374, 1277.575
225.2195, 1288.730
225.7016, 1300.183
226.1838, 1309.361
226.6659, 1314.808
227.1480, 1315.541
227.6301, 1319.338
228.1122, 1327.623
228.5943, 1337.814
229.0765, 1346.630
229.5586, 1353.435
230.0407, 1359.858
230.5228, 1366.584
231.0049, 1373.982
231.4870, 1379.908
231.9692, 1383.340
232.4513, 1386.107
232.9334, 1391.152
233.4155, 1398.839
233.8976, 1408.290
234.3797, 1419.903
234.8619, 1435.617
235.3440, 1446.954
235.8261, 1450.611
236.3082, 1451.568
236.7903, 1460.502
237.2724, 1483.070
237.7546, 1504.878
238.2367, 1520.482
238.7188, 1527.203
239.2009, 1533.692
239.6830, 1538.668
240.1651, 1543.781
240.6473, 1553.398
241.1294, 1569.693
241.6115, 1587.285
242.0936, 1603.534
242.5757, 1615.950
243.0578, 1632.830
243.5400, 1656.249
244.0221, 1683.700
244.5042, 1707.461
244.9863, 1725.061
245.4684, 1742.563
245.9505, 1762.332
246.4327, 1782.605
246.9148, 1809.614
247.3969, 1845.980
247.8790, 1888.988
248.3611, 1928.234
248.8432, 1961.441
249.3253, 1994.238
249.8075, 2029.608
250.2896, 2069.885
250.7717, 2107.641
251.2538, 2140.892
251.7359, 2171.000
252.2180, 2204.677
252.7002, 2239.242
253.1823, 2280.599
253.6644, 2333.843
254.1465, 2406.621
254.6286, 2473.080
255.1107, 2527.720
255.5929, 2574.157
256.0750, 2632.598
256.5571, 2707.196
257.0392, 2788.240
257.5213, 2869.044
258.0034, 2950.221
258.4856, 3030.509
258.9677, 3106.510
259.4498, 3180.329
259.9319, 3265.979
260.4140, 3362.944
260.8961, 3471.462
261.3783, 3591.062
261.8604, 3725.010
262.3425, 3863.255
262.8246, 4003.689
263.3067, 4147.851
263.7888, 4308.247
264.2710, 4484.899
264.7531, 4677.251
265.2352, 4879.999
265.7173, 5090.615
266.1994, 5325.779
266.6815, 5587.796
267.1637, 5878.535
267.6458, 6203.106
268.1279, 6566.800
268.6100, 6962.608
269.0921, 7390.698
269.5742, 7848.597
270.0564, 8337.557
270.5385, 8860.893
271.0206, 9417.529
271.5027, 10016.98
271.9848, 10665.30
272.4669, 11340.84
272.9491, 12029.55
273.4312, 12729.69
273.9133, 13437.05
274.3954, 14145.00
274.8775, 14856.13
275.3596, 15594.06
275.8418, 16360.13
276.3239, 17119.84
276.8060, 17842.84
277.2881, 18531.77
277.7702, 19165.20
278.2523, 19750.91
278.7345, 20275.83
279.2166, 20698.18
279.6987, 21026.06
280.1808, 21216.20
280.6629, 21248.44
281.1451, 21123.84
281.6272, 20785.95
282.1093, 20205.15
282.5914, 19410.98
283.0735, 18477.81
283.5556, 17388.21
284.0378, 16240.72
284.5199, 15074.04
285.0020, 13891.90
285.4841, 12765.51
285.9662, 11700.71
286.4483, 10706.57
286.9305, 9809.054
287.4126, 9014.702
287.8947, 8299.147
288.3768, 7638.517
288.8589, 7034.206
289.3410, 6498.351
289.8232, 6040.665
290.3053, 5643.921
290.7874, 5278.010
291.2695, 4941.059
291.7516, 4639.884
292.2337, 4395.584
292.7159, 4196.092
293.1980, 4001.724
293.6801, 3799.815
294.1622, 3601.635
294.6443, 3431.250
295.1264, 3286.957
295.6085, 3157.343
296.0906, 3035.630
296.5728, 2923.396
297.0549, 2823.612
297.5370, 2740.159
298.0191, 2666.254
298.5012, 2593.920
298.9833, 2523.806
299.4655, 2455.235
299.9476, 2387.203
300.4297, 2321.738
300.9118, 2263.515
301.3939, 2214.400
301.8760, 2172.068
302.3582, 2137.308
302.8403, 2108.540
303.3224, 2080.239
303.8045, 2049.721
304.2866, 2017.388
304.7687, 1982.918
305.2509, 1945.640
305.7330, 1908.350
306.2151, 1870.551
306.6972, 1834.091
307.1793, 1803.308
307.6614, 1785.919
308.1436, 1773.731
308.6257, 1758.501
309.1078, 1738.317
309.5899, 1716.818
310.0720, 1694.778
310.5541, 1673.112
311.0363, 1653.848
311.5184, 1638.055
312.0005, 1624.848
312.4826, 1613.648
312.9647, 1604.871
313.4468, 1596.547
313.9290, 1590.870
314.4111, 1584.809
314.8932, 1572.788
315.3753, 1543.812
315.8574, 1514.589
316.3395, 1494.691
316.8217, 1486.280
317.3038, 1482.683
317.7859, 1486.231
318.2680, 1492.088
318.7501, 1493.169
319.2322, 1484.519
319.7144, 1472.957
320.1965, 1460.737
320.6786, 1447.605
321.1607, 1435.847
321.6428, 1426.925
322.1249, 1419.364
322.6071, 1411.395
323.0892, 1402.818
323.5713, 1393.602
324.0534, 1382.022
324.5355, 1366.731
325.0176, 1358.220
325.4998, 1363.503
325.9819, 1373.451
326.4640, 1379.264
326.9461, 1379.881
327.4282, 1376.911
327.9103, 1369.289
328.3925, 1356.649
328.8746, 1345.808
329.3567, 1335.957
329.8388, 1328.604
330.3209, 1325.241
330.8030, 1329.577
331.2852, 1332.515
331.7673, 1332.231
332.2494, 1329.079
332.7315, 1327.958
333.2136, 1331.120
333.6957, 1333.756
334.1779, 1331.718
334.6600, 1321.089
335.1421, 1315.388
335.6242, 1318.411
336.1063, 1327.490
336.5884, 1329.027
337.0706, 1319.758
337.5527, 1309.825
338.0348, 1306.355
338.5169, 1310.905
338.9990, 1313.745
339.4811, 1313.631
339.9633, 1311.650
340.4454, 1310.501
340.9275, 1310.163
341.4096, 1310.628
341.8917, 1313.806
342.3738, 1319.663
342.8560, 1317.124
343.3381, 1302.523
343.8202, 1284.949
344.3023, 1283.020
344.7844, 1296.572
345.2665, 1307.581
345.7487, 1303.176
346.2308, 1287.435
346.7129, 1280.669
347.1950, 1284.832
347.6771, 1292.336
348.1592, 1292.930
348.6414, 1288.052
349.1235, 1284.126
349.6056, 1285.043
350.0877, 1288.699
350.5698, 1291.282
351.0519, 1292.758
351.5341, 1293.240
352.0162, 1291.894
352.4983, 1289.633
352.9804, 1288.471
353.4625, 1290.763
353.9446, 1293.501
354.4268, 1291.074
354.9089, 1284.083
355.3910, 1281.359
355.8731, 1295.712
356.3552, 1316.036
356.8373, 1328.286
357.3195, 1324.340
357.8015, 1315.068
358.2837, 1305.463
358.7658, 1295.900
359.2479, 1288.138
359.7300, 1283.224
360.2121, 1280.438
360.6942, 1279.372
361.1764, 1281.557
361.6585, 1283.053
362.1406, 1282.374
362.6227, 1279.954
363.1048, 1276.819
363.5869, 1270.007
364.0691, 1265.113
364.5512, 1265.391
365.0333, 1274.024
365.5154, 1281.525
365.9975, 1285.649
366.4796, 1287.796
366.9618, 1290.373
367.4439, 1297.263
367.9260, 1301.047
368.4081, 1297.915
368.8902, 1284.557
369.3723, 1276.990
369.8545, 1275.745
370.3366, 1279.972
370.8187, 1289.824
371.3008, 1314.450
371.7829, 1330.232
372.2650, 1329.625
372.7472, 1312.686
373.2293, 1302.780
373.7114, 1303.112
374.1935, 1306.185
374.6756, 1305.322
375.1577, 1299.038
375.6399, 1294.433
376.1220, 1292.781
376.6041, 1293.651
377.0862, 1295.643
377.5683, 1299.085
378.0504, 1302.370
378.5326, 1305.288
379.0147, 1307.851
379.4968, 1305.217
379.9789, 1294.713
380.4610, 1282.190
380.9431, 1280.334
381.4253, 1288.838
381.9074, 1297.198
382.3895, 1298.537
382.8716, 1294.923
383.3537, 1293.509
383.8358, 1295.105
384.3180, 1296.880
384.8001, 1294.164
385.2822, 1288.589
385.7643, 1285.460
386.2464, 1289.876
386.7285, 1296.882
387.2107, 1299.057
387.6928, 1296.275
388.1749, 1293.967
388.6570, 1297.829
389.1391, 1304.413
389.6212, 1308.828
390.1034, 1310.000
390.5855, 1307.952
391.0676, 1300.751
391.5497, 1289.354
392.0318, 1279.603
392.5139, 1272.160
392.9961, 1268.626
393.4782, 1271.064
393.9603, 1286.817
394.4424, 1297.630
394.9245, 1292.159
395.4066, 1277.148
395.8888, 1269.434
396.3709, 1280.689
396.8530, 1293.273
397.3351, 1299.995
397.8172, 1298.379
398.2993, 1296.030
398.7815, 1291.987
399.2636, 1287.900
399.7457, 1285.935
400.2278, 1286.383
400.7099, 1288.673
401.1920, 1293.935
401.6742, 1302.532
402.1563, 1306.601
402.6384, 1304.164
403.1205, 1299.562
403.6026, 1296.129
404.0847, 1293.445
404.5669, 1293.756
405.0490, 1298.808
405.5311, 1306.851
406.0132, 1310.001
406.4953, 1307.205
406.9774, 1303.760
407.4596, 1302.941
407.9417, 1304.722
408.4238, 1307.794
408.9059, 1312.579
409.3880, 1317.401
409.8701, 1319.126
410.3523, 1317.949
410.8344, 1316.297
411.3165, 1314.002
411.7986, 1312.225
412.2807, 1315.117
412.7628, 1323.232
413.2450, 1330.869
413.7271, 1331.337
414.2092, 1327.182
414.6913, 1323.555
415.1734, 1320.729
415.6555, 1320.650
416.1377, 1329.232
416.6198, 1344.697
417.1019, 1353.439
417.5840, 1338.545
418.0661, 1317.589
418.5482, 1307.746
419.0303, 1318.333
419.5125, 1331.468
419.9946, 1340.897
420.4767, 1347.187
420.9588, 1351.708
421.4409, 1354.197
421.9230, 1355.600
422.4052, 1356.371
422.8873, 1356.636
423.3694, 1355.935
423.8515, 1352.637
424.3336, 1348.934
424.8157, 1347.400
425.2979, 1348.190
425.7800, 1351.051
426.2621, 1356.714
426.7442, 1365.135
427.2263, 1372.864
427.7084, 1382.105
428.1906, 1387.908
428.6727, 1384.923
429.1548, 1369.131
429.6369, 1360.238
430.1190, 1362.413
430.6011, 1371.330
431.0833, 1375.704
431.5654, 1375.127
432.0475, 1372.412
432.5296, 1367.138
433.0117, 1360.012
433.4938, 1358.599
433.9760, 1364.127
434.4581, 1371.217
434.9402, 1372.791
435.4223, 1369.877
435.9044, 1367.107
436.3865, 1366.307
436.8687, 1366.704
437.3508, 1366.477
437.8329, 1365.831
438.3150, 1367.327
438.7971, 1376.261
439.2792, 1387.364
439.7614, 1393.110
440.2435, 1388.869
440.7256, 1384.108
441.2077, 1385.739
441.6898, 1391.600
442.1719, 1396.246
442.6541, 1395.733
443.1362, 1394.670
443.6183, 1395.595
444.1004, 1399.105
444.5825, 1403.294
445.0646, 1410.777
445.5468, 1417.603
446.0289, 1419.352
446.5110, 1408.677
446.9931, 1400.419
447.4752, 1396.572
447.9573, 1397.082
448.4395, 1401.628
448.9216, 1415.679
449.4037, 1427.186
449.8858, 1427.358
450.3679, 1410.613
450.8500, 1399.242
451.3322, 1395.161
451.8143, 1396.381
452.2964, 1399.838
452.7785, 1406.293
453.2606, 1410.584
453.7427, 1408.116
454.2249, 1400.490
454.7070, 1402.117
455.1891, 1414.462
455.6712, 1427.943
456.1533, 1431.195
456.6354, 1426.724
457.1176, 1423.950
457.5997, 1426.813
458.0818, 1431.291
458.5639, 1431.274
459.0460, 1427.481
459.5281, 1423.839
460.0103, 1421.422
460.4924, 1421.023
460.9745, 1423.830
461.4566, 1430.505
461.9387, 1438.410
462.4208, 1449.124
462.9030, 1459.469
463.3851, 1464.293
463.8672, 1455.827
464.3493, 1447.354
464.8314, 1443.156
465.3135, 1443.440
465.7957, 1447.440
466.2778, 1462.502
466.7599, 1476.429
467.2420, 1480.871
467.7241, 1463.751
468.2062, 1455.363
468.6884, 1461.347
469.1705, 1475.461
469.6526, 1481.078
470.1347, 1472.166
470.6168, 1467.453
471.0989, 1477.527
471.5811, 1503.461
472.0632, 1514.585
472.5453, 1508.462
473.0274, 1494.239
473.5095, 1478.568
473.9916, 1461.680
474.4738, 1452.715
474.9559, 1455.622
475.4380, 1465.836
475.9201, 1475.282
476.4022, 1483.931
476.8843, 1491.203
477.3665, 1494.479
477.8486, 1496.803
478.3307, 1504.747
478.8128, 1520.798
479.2949, 1533.742
479.7770, 1532.518
480.2592, 1523.069
480.7413, 1514.714
481.2234, 1511.891
481.7055, 1510.345
482.1876, 1507.905
482.6697, 1504.637
483.1518, 1502.147
483.6339, 1497.940
484.1161, 1496.608
484.5982, 1501.555
485.0803, 1522.948
485.5624, 1534.837
486.0445, 1531.018
486.5266, 1518.937
487.0088, 1511.615
487.4909, 1512.220
487.9730, 1512.181
488.4551, 1507.625
488.9372, 1498.739
489.4193, 1498.939
489.9015, 1511.121
490.3836, 1525.257
490.8657, 1533.400
491.3478, 1535.464
491.8299, 1534.066
492.3120, 1527.786
492.7942, 1521.366
493.2763, 1525.314
493.7584, 1538.052
494.2405, 1549.019
494.7226, 1551.935
495.2047, 1549.689
495.6869, 1545.341
496.1690, 1538.923
496.6511, 1534.717
497.1332, 1537.828
497.6153, 1544.347
498.0974, 1549.583
498.5796, 1553.189
499.0617, 1553.812
499.5438, 1546.443
500.0259, 1535.150
500.5080, 1531.034
500.9901, 1546.433
501.4723, 1561.921
501.9544, 1568.090
502.4365, 1560.033
502.9186, 1557.999
503.4007, 1568.877
503.8828, 1581.525
504.3650, 1584.544
504.8471, 1570.660
505.3292, 1563.305
505.8113, 1568.039
506.2934, 1580.963
506.7755, 1588.157
507.2577, 1588.758
507.7398, 1587.442
508.2219, 1587.373
508.7040, 1588.100
509.1861, 1583.038
509.6682, 1570.679
510.1504, 1560.489
510.6325, 1567.198
511.1146, 1585.304
511.5967, 1597.809
512.0788, 1595.972
512.5609, 1590.166
513.0430, 1594.451
513.5251, 1605.670
514.0073, 1611.148
514.4894, 1595.022
514.9715, 1576.128
515.4536, 1569.511
515.9357, 1579.326
516.4178, 1590.360
516.9000, 1599.758
517.3821, 1606.652
517.8642, 1610.242
518.3463, 1607.223
518.8284, 1604.363
519.3105, 1601.621
519.7927, 1599.516
520.2748, 1601.355
520.7569, 1611.633
521.2390, 1618.864
521.7211, 1615.806
522.2032, 1599.574
522.6854, 1592.535
523.1675, 1596.632
523.6496, 1605.744
524.1317, 1613.260
524.6138, 1619.257
525.0959, 1624.863
525.5781, 1631.446
526.0602, 1636.728
526.5423, 1634.156
527.0244, 1625.117
527.5065, 1618.041
527.9886, 1621.583
528.4708, 1628.450
528.9529, 1628.973
529.4350, 1621.490
529.9171, 1614.459
530.3992, 1613.966
530.8813, 1616.551
531.3635, 1618.302
531.8456, 1614.764
532.3277, 1613.815
532.8098, 1619.183
533.2919, 1629.333
533.7740, 1637.843
534.2562, 1641.783
534.7383, 1646.464
535.2204, 1655.301
535.7025, 1670.798
536.1846, 1675.856
536.6667, 1665.634
537.1489, 1652.003
537.6310, 1647.980
538.1131, 1655.069
538.5952, 1659.488
539.0773, 1658.451
539.5594, 1654.149
540.0416, 1649.791
540.5237, 1645.644
541.0058, 1645.066
541.4879, 1654.107
541.9700, 1666.528
542.4521, 1670.935
542.9343, 1666.954
543.4164, 1660.953
543.8985, 1655.018
544.3806, 1650.751
544.8627, 1650.406
545.3448, 1656.967
545.8270, 1663.672
546.3091, 1667.659
546.7912, 1669.784
547.2733, 1671.787
547.7554, 1675.047
548.2375, 1677.169
548.7197, 1676.585
549.2018, 1673.058
549.6839, 1672.024
550.1660, 1674.071
550.6481, 1677.774
551.1302, 1682.407
551.6124, 1688.165
552.0945, 1693.769
552.5766, 1699.331
553.0587, 1704.238
553.5408, 1706.942
554.0229, 1707.578
554.5051, 1708.730
554.9872, 1711.393
555.4693, 1715.140
555.9514, 1722.168
556.4335, 1731.431
556.9156, 1733.742
557.3978, 1714.408
557.8799, 1689.412
558.3620, 1675.314
558.8441, 1675.561
559.3262, 1682.332
559.8083, 1698.786
560.2905, 1717.078
560.7726, 1727.963
561.2547, 1722.621
561.7368, 1717.259
562.2189, 1714.527
562.7010, 1714.211
563.1832, 1716.033
563.6653, 1722.668
564.1474, 1727.285
564.6295, 1726.304
565.1116, 1719.044
565.5938, 1714.194
566.0759, 1711.939
566.5580, 1711.643
567.0401, 1713.216
567.5222, 1716.443
568.0043, 1719.608
568.4865, 1722.342
568.9686, 1724.903
569.4507, 1728.300
569.9328, 1731.928
570.4149, 1734.043
570.8970, 1729.581
571.3792, 1726.114
571.8613, 1734.012
572.3434, 1752.279
572.8255, 1763.168
573.3076, 1748.050
573.7897, 1729.685
574.2719, 1724.102
574.7540, 1740.777
575.2361, 1755.834
575.7182, 1770.177
576.2003, 1780.431
576.6824, 1780.868
577.1646, 1764.682
577.6467, 1753.628
578.1288, 1753.485
578.6109, 1761.094
579.0930, 1763.079
579.5751, 1758.308
580.0573, 1756.203
580.5394, 1764.902
581.0215, 1781.115
581.5036, 1792.054
581.9857, 1797.246
582.4678, 1797.543
582.9500, 1788.269
583.4321, 1775.872
583.9142, 1771.659
584.3963, 1782.557
584.8784, 1794.529
585.3605, 1800.679
585.8427, 1801.473
586.3248, 1797.701
586.8069, 1779.793
587.2890, 1767.109
587.7711, 1770.506
588.2532, 1790.167
588.7354, 1797.952
589.2175, 1782.880
589.6996, 1769.438
590.1817, 1773.022
590.6638, 1800.060
591.1459, 1814.179
591.6281, 1812.670
592.1102, 1804.037
592.5923, 1797.128
593.0744, 1791.984
593.5565, 1789.445
594.0386, 1789.145
594.5208, 1792.217
595.0029, 1805.235
595.4850, 1824.301
595.9671, 1835.862
596.4492, 1824.611
596.9313, 1808.550
597.4135, 1801.608
597.8956, 1804.508
598.3777, 1810.569
598.8598, 1823.908
599.3419, 1835.253
599.8240, 1837.418
600.3062, 1818.384
600.7883, 1810.348
601.2704, 1820.004
601.7525, 1836.847
602.2346, 1847.232
602.7167, 1849.780
603.1989, 1849.880
603.6810, 1848.073
604.1631, 1844.817
604.6452, 1840.631
605.1273, 1835.546
605.6094, 1832.365
606.0916, 1831.067
606.5737, 1833.149
607.0558, 1845.696
607.5379, 1868.532
608.0200, 1885.772
608.5021, 1880.374
608.9843, 1865.458
609.4664, 1854.815
609.9485, 1852.400
610.4306, 1851.953
610.9127, 1851.613
611.3948, 1851.902
611.8770, 1853.556
612.3591, 1858.903
612.8412, 1863.080
613.3233, 1865.439
613.8054, 1866.198
614.2875, 1866.099
614.7697, 1865.084
615.2518, 1863.255
615.7339, 1858.996
616.2160, 1853.101
616.6981, 1855.206
617.1802, 1865.899
617.6624, 1876.611
618.1445, 1878.421
618.6266, 1874.877
619.1087, 1872.421
619.5908, 1871.641
620.0729, 1874.248
620.5551, 1886.344
621.0372, 1901.468
621.5193, 1910.159
622.0014, 1903.173
622.4835, 1896.183
622.9656, 1894.324
623.4478, 1896.627
623.9299, 1898.029
624.4120, 1896.128
624.8941, 1896.512
625.3762, 1902.691
625.8583, 1914.827
626.3405, 1919.460
626.8226, 1915.196
627.3047, 1908.091
627.7868, 1901.281
628.2689, 1895.339
628.7510, 1894.402
629.2332, 1899.336
629.7153, 1906.959
630.1974, 1914.933
630.6795, 1923.002
631.1616, 1930.639
631.6437, 1939.048
632.1259, 1945.500
632.6080, 1948.429
633.0901, 1948.315
633.5722, 1946.334
634.0543, 1938.849
634.5364, 1933.545
635.0186, 1934.865
635.5006, 1942.689
635.9827, 1944.279
636.4648, 1937.408
636.9470, 1927.970
637.4291, 1917.233
637.9112, 1904.746
638.3933, 1903.265
638.8754, 1915.265
639.3575, 1928.975
639.8397, 1930.302
640.3218, 1922.506
640.8039, 1914.987
641.2860, 1908.634
641.7681, 1906.062
642.2502, 1912.878
642.7324, 1925.034
643.2145, 1934.516
643.6966, 1935.345
644.1787, 1935.716
644.6608, 1939.825
645.1429, 1946.935
645.6251, 1950.628
646.1072, 1947.990
646.5893, 1945.195
647.0714, 1944.940
647.5535, 1947.596
648.0356, 1948.350
648.5178, 1946.936
648.9999, 1944.668
649.4820, 1942.134
649.9641, 1939.571
650.4462, 1937.925
650.9283, 1936.903
651.4105, 1938.755
651.8926, 1949.298
652.3747, 1963.779
652.8568, 1974.047
653.3389, 1976.286
653.8210, 1974.679
654.3032, 1968.597
654.7853, 1960.246
655.2674, 1954.974
655.7495, 1954.372
656.2316, 1956.836
656.7137, 1963.169
657.1959, 1972.920
657.6780, 1979.553
658.1601, 1981.654
658.6422, 1984.055
659.1243, 1991.442
659.6064, 2003.012
660.0886, 2005.419
660.5707, 1997.722
661.0528, 1989.749
661.5349, 1990.881
662.0170, 1998.458
662.4991, 2008.572
662.9813, 2022.010
663.4634, 2032.298
663.9455, 2031.319
664.4276, 2025.629
664.9097, 2024.101
665.3918, 2032.719
665.8740, 2041.671
666.3561, 2051.137
666.8382, 2059.312
667.3203, 2060.700
667.8024, 2051.880
668.2845, 2043.788
668.7667, 2039.545
669.2488, 2038.825
669.7309, 2040.299
670.2130, 2044.071
670.6951, 2048.277
671.1772, 2051.972
671.6594, 2055.167
672.1415, 2058.213
672.6236, 2061.134
673.1057, 2062.373
673.5878, 2055.697
674.0699, 2049.571
674.5521, 2053.666
675.0342, 2077.302
675.5163, 2093.596
675.9984, 2087.562
676.4805, 2075.059
676.9626, 2074.958
677.4448, 2095.978
677.9269, 2110.628
678.4090, 2114.979
678.8911, 2111.608
679.3732, 2103.305
679.8553, 2090.088
680.3375, 2081.687
680.8196, 2082.939
681.3017, 2090.584
681.7838, 2099.843
682.2659, 2110.551
682.7480, 2121.730
683.2302, 2134.659
683.7123, 2146.624
684.1944, 2155.391
684.6765, 2160.741
685.1586, 2165.948
685.6407, 2174.477
686.1229, 2180.961
686.6050, 2181.549
687.0871, 2172.583
687.5692, 2170.394
688.0513, 2177.162
688.5334, 2186.796
689.0156, 2193.619
689.4977, 2197.628
689.9798, 2198.563
690.4619, 2195.121
690.9440, 2192.546
691.4261, 2197.835
691.9083, 2209.005
692.3904, 2221.725
692.8725, 2235.239
693.3546, 2248.824
693.8367, 2258.404
694.3188, 2267.779
694.8010, 2286.633
695.2831, 2326.532
695.7652, 2365.969
696.2473, 2397.917
696.7294, 2424.142
697.2115, 2458.052
697.6937, 2502.981
698.1758, 2547.099
698.6579, 2581.105
699.1400, 2608.383
699.6221, 2651.515
700.1042, 2710.646
700.5864, 2775.211
701.0685, 2833.171
701.5506, 2893.067
702.0327, 2965.204
702.5148, 3051.628
702.9969, 3149.763
703.4791, 3258.815
703.9612, 3379.510
704.4433, 3512.585
704.9254, 3662.408
705.4075, 3818.822
705.8896, 3974.153
706.3718, 4140.881
706.8539, 4332.102
707.3360, 4549.063
707.8181, 4787.176
708.3002, 5045.225
708.7823, 5325.750
709.2645, 5628.726
709.7466, 5953.605
710.2287, 6306.065
710.7108, 6769.535
711.1929, 7190.946
711.6750, 7508.851
712.1572, 7691.857
712.6393, 7627.316
713.1214, 7108.537
713.6035, 6492.925
714.0856, 5911.689
714.5677, 5361.765
715.0499, 4801.261
715.5320, 4176.224
716.0141, 3636.848
716.4962, 3285.556
716.9783, 3113.130
717.4604, 2967.020
717.9426, 2845.396
718.4247, 2748.377
718.9068, 2679.915
719.3889, 2633.657
719.8710, 2600.547
720.3531, 2581.412
720.8353, 2563.281
721.3174, 2532.580
721.7995, 2502.464
722.2816, 2485.699
722.7637, 2501.203
723.2458, 2504.808
723.7280, 2487.544
724.2101, 2462.381
724.6922, 2445.193
725.1743, 2436.727
725.6564, 2434.357
726.1385, 2439.583
726.6207, 2447.303
727.1028, 2449.779
727.5849, 2447.038
728.0670, 2438.526
728.5491, 2417.316
729.0313, 2397.536
729.5134, 2394.301
729.9955, 2402.751
730.4776, 2409.191
730.9597, 2407.872
731.4418, 2404.712
731.9240, 2399.728
732.4061, 2393.811
732.8882, 2395.365
733.3703, 2409.986
733.8524, 2418.608
734.3345, 2407.544
734.8167, 2381.114
735.2988, 2374.589
735.7809, 2388.117
736.2630, 2404.514
736.7451, 2411.659
737.2272, 2413.294
737.7094, 2413.380
738.1915, 2412.208
738.6736, 2412.563
739.1557, 2416.901
739.6378, 2422.696
740.1199, 2428.767
740.6021, 2437.634
741.0842, 2439.822
741.5663, 2432.104
742.0484, 2421.695
742.5305, 2413.508
743.0126, 2407.093
743.4948, 2412.381
743.9769, 2433.104
744.4590, 2455.946
744.9411, 2463.626
745.4232, 2460.808
745.9053, 2457.858
746.3875, 2456.801
746.8696, 2457.810
747.3517, 2460.766
747.8338, 2465.791
748.3159, 2473.156
748.7980, 2493.624
749.2802, 2501.938
749.7623, 2486.750
750.2444, 2461.007
750.7265, 2456.527
751.2086, 2477.869
751.6907, 2495.017
752.1729, 2496.701
752.6550, 2490.964
753.1371, 2494.781
753.6192, 2506.708
754.1013, 2519.760
754.5834, 2537.295
755.0656, 2549.084
755.5477, 2540.393
756.0298, 2516.361
756.5119, 2504.208
756.9940, 2525.240
757.4761, 2544.764
757.9583, 2549.379
758.4403, 2539.878
758.9224, 2536.517
759.4045, 2540.737
759.8867, 2546.040
760.3688, 2547.724
760.8509, 2547.263
761.3330, 2551.699
761.8151, 2560.912
762.2972, 2570.217
762.7794, 2576.675
763.2615, 2581.185
763.7436, 2583.033
764.2257, 2581.363
764.7078, 2584.971
765.1899, 2609.491
765.6721, 2629.602
766.1542, 2626.556
766.6363, 2588.955
767.1184, 2572.795
767.6005, 2583.129
768.0826, 2602.106
768.5648, 2615.245
769.0469, 2622.393
769.5290, 2620.308
770.0111, 2607.043
770.4932, 2595.290
770.9753, 2599.185
771.4575, 2610.511
771.9396, 2619.529
772.4217, 2624.171
772.9038, 2625.927
773.3859, 2619.710
773.8680, 2613.708
774.3502, 2618.206
774.8323, 2639.702
775.3144, 2651.067
775.7965, 2645.625
776.2786, 2636.598
776.7607, 2650.588
777.2429, 2681.628
777.7250, 2696.212
778.2071, 2678.589
778.6892, 2655.759
779.1713, 2654.955
779.6534, 2666.570
780.1356, 2674.322
780.6177, 2669.541
781.0998, 2664.228
781.5819, 2659.685
782.0640, 2657.014
782.5461, 2660.332
783.0283, 2674.670
783.5104, 2677.528
783.9925, 2658.541
784.4746, 2631.284
784.9567, 2627.272
785.4388, 2643.284
785.9210, 2661.640
786.4031, 2678.876
786.8852, 2690.974
787.3673, 2681.809
787.8494, 2663.466
788.3315, 2670.087
788.8137, 2759.908
789.2958, 2823.090
789.7779, 2814.042
790.2600, 2751.630
790.7421, 2714.900
791.2242, 2708.489
791.7064, 2707.911
792.1885, 2703.824
792.6706, 2698.472
793.1527, 2697.482
793.6348, 2700.790
794.1169, 2707.844
794.5991, 2726.003
795.0812, 2741.704
795.5633, 2741.178
796.0454, 2726.709
796.5275, 2717.484
797.0096, 2728.301
797.4918, 2733.906
797.9739, 2722.441
798.4560, 2696.127
798.9381, 2684.320
799.4202, 2687.853
799.9023, 2700.552
800.3845, 2727.203
800.8666, 2758.674
801.3487, 2767.858
801.8308, 2757.591
802.3129, 2749.792
802.7950, 2764.532
803.2772, 2781.140
803.7593, 2783.756
804.2414, 2770.678
804.7235, 2762.182
805.2056, 2760.617
805.6877, 2762.905
806.1699, 2768.798
806.6520, 2778.162
807.1341, 2784.502
807.6162, 2787.666
808.0983, 2789.958
808.5804, 2793.026
809.0626, 2796.328
809.5447, 2799.219
810.0268, 2801.604
810.5089, 2803.034
810.9910, 2799.079
811.4731, 2797.319
811.9553, 2803.830
812.4374, 2820.762
812.9195, 2834.177
813.4016, 2844.726
813.8837, 2850.986
814.3658, 2849.699
814.8480, 2842.077
815.3301, 2842.717
815.8122, 2852.045
816.2943, 2859.368
816.7764, 2852.807
817.2585, 2842.019
817.7407, 2837.052
818.2228, 2839.202
818.7049, 2845.932
819.1870, 2859.703
819.6691, 2875.401
820.1512, 2890.071
820.6334, 2903.558
821.1155, 2917.625
821.5976, 2933.254
822.0797, 2945.254
822.5618, 2946.021
823.0439, 2939.770
823.5261, 2941.253
824.0082, 2951.168
824.4903, 2960.507
824.9724, 2960.629
825.4545, 2958.899
825.9366, 2962.189
826.4188, 2972.719
826.9009, 2979.548
827.3830, 2976.200
827.8651, 2975.467
828.3472, 2987.061
828.8293, 3012.276
829.3115, 3029.125
829.7936, 3037.385
830.2757, 3039.432
830.7578, 3033.686
831.2399, 3024.369
831.7220, 3016.665
832.2042, 3011.076
832.6863, 3011.586
833.1684, 3027.480
833.6505, 3044.538
834.1326, 3051.533
834.6147, 3045.384
835.0969, 3048.961
835.5790, 3066.400
836.0611, 3084.422
836.5432, 3093.891
837.0253, 3096.064
837.5074, 3097.365
837.9896, 3097.987
838.4717, 3095.761
838.9538, 3082.789
839.4359, 3070.365
839.9180, 3069.775
840.4001, 3082.993
840.8823, 3096.659
841.3644, 3112.718
841.8465, 3123.465
842.3286, 3123.641
842.8107, 3112.717
843.2928, 3104.685
843.7750, 3099.736
844.2571, 3096.027
844.7392, 3090.932
845.2213, 3086.696
845.7034, 3087.653
846.1855, 3093.849
846.6677, 3102.047
847.1498, 3115.111
847.6319, 3125.937
848.1140, 3128.247
848.5961, 3121.447
849.0782, 3122.370
849.5604, 3135.121
850.0425, 3145.866
850.5246, 3145.395
851.0067, 3136.455
851.4888, 3131.997
851.9709, 3131.745
852.4531, 3133.303
852.9352, 3129.781
853.4173, 3131.295
853.8994, 3154.277
854.3815, 3196.169
854.8636, 3218.529
855.3458, 3196.631
855.8279, 3174.664
856.3100, 3166.911
856.7921, 3171.605
857.2742, 3177.336
857.7563, 3184.181
858.2385, 3189.796
858.7206, 3190.694
859.2027, 3190.816
859.6848, 3200.828
860.1669, 3216.462
860.6490, 3220.553
861.1312, 3180.176
861.6133, 3152.359
862.0954, 3176.873
862.5775, 3235.607
863.0596, 3256.600
863.5417, 3228.289
864.0239, 3203.621
864.5060, 3201.413
864.9881, 3213.464
865.4702, 3224.072
865.9523, 3232.748
866.4344, 3238.349
866.9166, 3237.198
867.3987, 3235.816
867.8808, 3237.202
868.3629, 3241.253
868.8450, 3248.162
869.3271, 3264.618
869.8093, 3271.050
870.2914, 3259.525
870.7735, 3240.479
871.2556, 3239.370
871.7377, 3253.855
872.2198, 3264.425
872.7020, 3262.517
873.1841, 3258.948
873.6662, 3265.802
874.1483, 3278.147
874.6304, 3287.910
875.1125, 3292.523
875.5947, 3294.670
876.0768, 3292.260
876.5589, 3289.685
877.0410, 3295.038
877.5231, 3309.125
878.0052, 3316.505
878.4874, 3313.901
878.9695, 3307.072
879.4516, 3300.527
879.9337, 3295.237
880.4158, 3292.777
880.8979, 3293.558
881.3801, 3297.086
881.8622, 3305.688
882.3442, 3315.279
882.8264, 3321.842
883.3085, 3323.849
883.7906, 3328.573
884.2727, 3336.734
884.7548, 3345.683
885.2369, 3355.042
885.7191, 3362.586
886.2012, 3360.161
886.6833, 3345.809
887.1654, 3336.932
887.6475, 3347.580
888.1296, 3364.834
888.6118, 3381.764
889.0939, 3399.876
889.5760, 3402.444
890.0581, 3383.764
890.5402, 3363.479
891.0223, 3353.888
891.5045, 3353.681
891.9866, 3359.549
892.4687, 3370.891
892.9508, 3381.834
893.4329, 3388.771
893.9150, 3393.602
894.3972, 3397.920
894.8793, 3401.659
895.3614, 3402.903
895.8435, 3400.086
896.3256, 3397.066
896.8077, 3394.195
897.2899, 3392.393
897.7720, 3396.442
898.2541, 3405.771
898.7362, 3415.734
899.2183, 3426.509
899.7004, 3434.505
900.1826, 3433.389
900.6647, 3426.743
901.1468, 3424.087
901.6289, 3435.133
902.1110, 3440.404
902.5931, 3433.743
903.0753, 3421.861
903.5574, 3421.449
904.0395, 3431.875
904.5216, 3437.090
905.0037, 3430.547
905.4858, 3422.823
905.9680, 3426.690
906.4501, 3436.797
906.9322, 3444.946
907.4143, 3449.929
907.8964, 3450.720
908.3785, 3442.590
908.8607, 3434.369
909.3428, 3435.692
909.8249, 3446.977
910.3070, 3460.096
910.7891, 3474.597
911.2712, 3488.909
911.7534, 3503.896
912.2355, 3516.673
912.7176, 3522.646
913.1997, 3520.313
913.6818, 3516.642
914.1639, 3512.556
914.6461, 3508.839
915.1282, 3505.295
915.6103, 3501.767
916.0924, 3504.594
916.5745, 3514.657
917.0566, 3523.552
917.5388, 3526.330
918.0209, 3523.910
918.5030, 3513.742
918.9851, 3497.992
919.4672, 3489.038
919.9493, 3495.557
920.4315, 3506.372
920.9136, 3517.860
921.3957, 3529.915
921.8778, 3543.577
922.3599, 3559.391
922.8420, 3570.539
923.3242, 3573.074
923.8063, 3571.531
924.2884, 3571.041
924.7705, 3572.217
925.2526, 3576.625
925.7347, 3592.275
926.2169, 3602.385
926.6990, 3598.451
927.1811, 3587.660
927.6632, 3578.160
928.1453, 3569.890
928.6274, 3563.510
929.1096, 3557.957
929.5917, 3559.282
930.0738, 3584.659
930.5559, 3618.842
931.0380, 3633.390
931.5201, 3618.307
932.0023, 3606.051
932.4844, 3610.307
932.9665, 3621.308
933.4486, 3633.309
933.9307, 3647.101
934.4128, 3653.643
934.8950, 3651.871
935.3771, 3649.279
935.8592, 3650.732
936.3413, 3655.225
936.8234, 3663.792
937.3055, 3675.192
937.7877, 3680.892
938.2698, 3666.008
938.7519, 3656.780
939.2340, 3669.011
939.7161, 3695.408
940.1982, 3704.247
940.6804, 3693.419
941.1625, 3682.185
941.6446, 3675.900
942.1267, 3675.042
942.6088, 3683.826
943.0909, 3698.358
943.5731, 3710.359
944.0552, 3711.542
944.5373, 3716.323
945.0194, 3731.753
945.5015, 3750.304
945.9836, 3765.635
946.4658, 3778.614
946.9479, 3778.060
947.4300, 3760.859
947.9121, 3741.032
948.3942, 3715.230
948.8763, 3704.746
949.3585, 3757.233
949.8406, 3893.146
950.3227, 3978.737
950.8048, 3934.589
951.2869, 3865.225
951.7690, 3816.353
952.2512, 3787.689
952.7333, 3771.837
953.2154, 3769.162
953.6975, 3769.980
954.1796, 3766.361
954.6617, 3764.347
955.1439, 3774.239
955.6260, 3792.417
956.1081, 3805.940
956.5902, 3806.412
957.0723, 3806.990
957.5544, 3810.417
958.0366, 3815.527
958.5187, 3820.720
959.0008, 3825.881
959.4829, 3826.133
959.9650, 3817.369
960.4471, 3812.228
960.9293, 3831.382
961.4114, 3857.897
961.8935, 3869.625
962.3756, 3851.318
962.8577, 3840.905
963.3398, 3844.209
963.8220, 3850.162
964.3041, 3848.729
964.7862, 3841.127
965.2683, 3836.906
965.7504, 3836.411
966.2325, 3844.126
966.7147, 3877.061
967.1968, 3908.227
967.6789, 3911.640
968.1610, 3888.814
968.6431, 3877.923
969.1252, 3882.997
969.6074, 3896.437
970.0895, 3920.292
970.5716, 3946.764
971.0537, 3953.160
971.5358, 3944.170
972.0179, 3937.063
972.5001, 3939.215
972.9822, 3943.399
973.4643, 3947.069
973.9464, 3949.651
974.4285, 3949.373
974.9106, 3941.615
975.3928, 3946.472
975.8749, 3969.115
976.3570, 3990.259
976.8391, 3978.963
977.3212, 3954.265
977.8033, 3963.634
978.2855, 4011.218
978.7676, 4049.984
979.2497, 4049.240
979.7318, 4038.939
980.2139, 4034.498
980.6960, 4035.166
981.1782, 4030.143
981.6603, 4018.183
982.1424, 4011.945
982.6245, 4019.802
983.1066, 4033.401
983.5887, 4041.613
984.0709, 4046.352
984.5530, 4051.752
985.0351, 4056.130
985.5172, 4066.315
985.9993, 4088.583
986.4814, 4112.040
986.9636, 4122.044
987.4457, 4119.103
987.9278, 4118.302
988.4099, 4121.389
988.8920, 4125.511
989.3741, 4122.311
989.8563, 4122.508
990.3384, 4141.498
990.8205, 4183.836
991.3026, 4209.274
991.7847, 4209.861
992.2668, 4202.626
992.7490, 4190.553
993.2311, 4178.055
993.7132, 4186.389
994.1953, 4210.732
994.6774, 4228.669
995.1595, 4223.848
995.6417, 4215.306
996.1238, 4208.389
996.6059, 4206.485
997.0880, 4216.728
997.5701, 4245.881
998.0522, 4265.044
998.5344, 4270.330
999.0165, 4269.570
999.4986, 4271.006
999.9807, 4273.342
1000.463, 4272.947
1000.945, 4268.916
1001.427, 4268.747
1001.909, 4279.828
1002.391, 4291.294
1002.873, 4297.375
1003.356, 4298.831
1003.838, 4302.006
1004.320, 4307.028
1004.802, 4312.363
1005.284, 4315.112
1005.766, 4320.349
1006.248, 4336.965
1006.730, 4359.690
1007.212, 4377.534
1007.695, 4389.975
1008.177, 4391.732
1008.659, 4374.521
1009.141, 4358.059
1009.623, 4372.482
1010.105, 4409.538
1010.587, 4431.869
1011.069, 4434.913
1011.551, 4430.122
1012.034, 4412.197
1012.516, 4400.071
1012.998, 4414.727
1013.480, 4454.492
1013.962, 4469.947
1014.444, 4454.285
1014.926, 4444.896
1015.408, 4462.981
1015.891, 4489.293
1016.373, 4482.591
1016.855, 4457.547
1017.337, 4446.643
1017.819, 4478.539
1018.301, 4502.605
1018.783, 4497.514
1019.265, 4488.662
1019.747, 4506.205
1020.230, 4550.098
1020.712, 4571.536
1021.194, 4567.023
1021.676, 4555.279
1022.158, 4548.699
1022.640, 4543.847
1023.122, 4534.423
1023.604, 4521.115
1024.087, 4522.290
1024.569, 4545.499
1025.051, 4568.100
1025.533, 4584.916
1026.015, 4595.558
1026.497, 4595.556
1026.979, 4588.679
1027.461, 4585.976
1027.943, 4591.818
1028.426, 4600.571
1028.908, 4616.777
1029.390, 4629.729
1029.872, 4627.438
1030.354, 4605.125
1030.836, 4601.125
1031.318, 4616.848
1031.800, 4634.588
1032.282, 4642.267
1032.765, 4643.562
1033.247, 4640.674
1033.729, 4634.598
1034.211, 4629.097
1034.693, 4618.420
1035.175, 4619.565
1035.657, 4640.000
1036.139, 4668.020
1036.622, 4681.218
1037.104, 4683.591
1037.586, 4691.680
1038.068, 4710.263
1038.550, 4728.607
1039.032, 4745.926
1039.514, 4755.602
1039.996, 4747.787
1040.479, 4720.712
1040.961, 4716.450
1041.443, 4738.243
1041.925, 4758.377
1042.407, 4757.910
1042.889, 4749.451
1043.371, 4748.695
1043.853, 4753.875
1044.335, 4760.771
1044.818, 4763.571
1045.300, 4775.483
1045.782, 4802.537
1046.264, 4832.592
1046.746, 4852.665
1047.228, 4863.215
1047.710, 4862.875
1048.192, 4851.151
1048.674, 4842.573
1049.157, 4846.946
1049.639, 4857.530
1050.121, 4874.319
1050.603, 4894.821
1051.085, 4899.727
1051.567, 4885.249
1052.049, 4883.959
1052.531, 4914.757
1053.014, 4948.600
1053.496, 4934.084
1053.978, 4899.281
1054.460, 4890.900
1054.942, 4938.286
1055.424, 4974.856
1055.906, 4987.958
1056.388, 4999.781
1056.870, 5031.856
1057.353, 5078.018
1057.835, 5102.658
1058.317, 5108.065
1058.799, 5116.465
1059.281, 5148.639
1059.763, 5178.409
1060.245, 5182.572
1060.727, 5177.050
1061.209, 5197.862
1061.692, 5248.727
1062.174, 5299.507
1062.656, 5345.620
1063.138, 5391.745
1063.620, 5440.285
1064.102, 5493.845
1064.584, 5552.026
1065.066, 5614.332
1065.549, 5700.917
1066.031, 5847.045
1066.513, 5947.129
1066.995, 5949.058
1067.477, 5881.998
1067.959, 5805.011
1068.441, 5727.925
1068.923, 5682.258
1069.405, 5677.249
1069.888, 5708.959
1070.370, 5782.583
1070.852, 5889.523
1071.334, 6017.618
1071.816, 6166.581
1072.298, 6352.331
1072.780, 6576.534
1073.262, 6869.340
1073.745, 7257.510
1074.227, 7723.258
1074.709, 8279.320
1075.191, 8907.867
1075.673, 9540.127
1076.155, 10140.74
1076.637, 10813.63
1077.119, 11569.27
1077.601, 12407.55
1078.083, 13315.54
1078.566, 14320.55
1079.048, 15448.56
1079.530, 16687.66
1080.012, 18209.99
1080.494, 20056.44
1080.976, 22226.72
1081.458, 24692.94
1081.940, 27513.86
1082.423, 30812.21
1082.905, 34669.70
1083.387, 39510.33
1083.869, 44950.78
1084.351, 52407.55
1084.833, 65647.88
1085.315, 79694.88
1085.797, 89673.04
1086.280, 97010.87
1086.762, 92952.73
1087.244, 76504.11
1087.726, 57705.16
1088.208, 42012.52
1088.690, 29548.38
1089.172, 21085.75
1089.654, 16069.64
1090.136, 12552.79
1090.619, 10707.37
1091.101, 9372.600
1091.583, 8483.698
1092.065, 7891.084
1092.547, 7456.497
1093.029, 7145.727
1093.511, 6880.227
1093.993, 6651.023
1094.475, 6465.844
1094.958, 6348.014
1095.440, 6253.468
1095.922, 6165.063
1096.404, 6084.030
1096.886, 6014.735
1097.368, 5957.251
1097.850, 5910.730
1098.332, 5877.250
1098.815, 5847.099
1099.297, 5813.704
1099.779, 5779.889
1100.261, 5747.522
1100.743, 5715.119
1101.225, 5693.801
1101.707, 5684.588
1102.189, 5677.516
1102.672, 5669.507
1103.154, 5658.010
1103.636, 5634.886
1104.118, 5606.633
1104.600, 5588.797
1105.082, 5591.002
1105.564, 5594.728
1106.046, 5601.262
1106.528, 5604.030
1107.010, 5594.979
1107.493, 5577.161
1107.975, 5551.428
1108.457, 5519.833
1108.939, 5504.861
1109.421, 5527.458
1109.903, 5554.267
1110.385, 5579.643
1110.867, 5599.130
1111.350, 5597.325
1111.832, 5579.045
1112.314, 5574.213
1112.796, 5590.122
1113.278, 5610.546
1113.760, 5630.516
1114.242, 5645.688
1114.724, 5651.648
1115.207, 5649.315
1115.689, 5651.207
1116.171, 5657.550
1116.653, 5656.729
1117.135, 5639.817
1117.617, 5621.423
1118.099, 5614.563
1118.581, 5615.759
1119.063, 5621.542
1119.546, 5635.708
1120.028, 5640.410
1120.510, 5633.909
1120.992, 5626.389
1121.474, 5625.927
1121.956, 5628.600
1122.438, 5630.982
1122.920, 5631.398
1123.402, 5624.935
1123.885, 5592.650
1124.367, 5581.112
1124.849, 5599.529
1125.331, 5629.267
1125.813, 5656.654
1126.295, 5677.000
1126.777, 5668.933
1127.259, 5634.337
1127.742, 5613.399
1128.224, 5640.452
1128.706, 5665.022
1129.188, 5669.031
1129.670, 5661.520
1130.152, 5661.051
1130.634, 5666.945
1131.116, 5676.301
1131.599, 5689.471
1132.081, 5699.224
1132.563, 5691.423
1133.045, 5687.127
1133.527, 5706.625
1134.009, 5744.175
1134.491, 5751.182
1134.973, 5727.812
1135.455, 5714.215
1135.938, 5729.680
1136.420, 5748.936
1136.902, 5748.787
1137.384, 5739.882
1137.866, 5733.604
1138.348, 5729.672
1138.830, 5737.657
1139.312, 5760.286
1139.794, 5777.705
1140.277, 5776.965
1140.759, 5766.267
1141.241, 5749.979
1141.723, 5732.875
1142.205, 5724.888
1142.687, 5731.851
1143.169, 5741.162
1143.651, 5753.218
1144.134, 5765.490
1144.616, 5778.961
1145.098, 5789.406
1145.580, 5784.491
1146.062, 5768.108
1146.544, 5759.038
1147.026, 5763.743
1147.508, 5777.403
1147.990, 5802.639
1148.473, 5830.702
1148.955, 5852.533
1149.437, 5866.560
1149.919, 5865.484
1150.401, 5848.987
1150.883, 5836.524
1151.365, 5837.565
1151.847, 5843.261
1152.329, 5849.521
1152.812, 5858.861
1153.294, 5884.834
1153.776, 5920.640
1154.258, 5932.038
1154.740, 5908.235
1155.222, 5883.559
1155.704, 5872.266
1156.186, 5872.100
1156.669, 5883.696
1157.151, 5904.199
1157.633, 5916.448
1158.115, 5921.370
1158.597, 5928.093
1159.079, 5941.177
1159.561, 5953.632
1160.043, 5967.473
1160.526, 5972.508
1161.008, 5953.860
1161.490, 5909.762
1161.972, 5898.127
1162.454, 5919.113
1162.936, 5940.112
1163.418, 5935.181
1163.900, 5933.473
1164.382, 5978.505
1164.865, 6033.776
1165.347, 6040.281
1165.829, 5974.130
1166.311, 5950.362
1166.793, 5974.419
1167.275, 6003.434
1167.757, 6004.680
1168.239, 5996.491
1168.721, 5995.125
1169.204, 5999.687
1169.686, 6006.756
1170.168, 6014.608
1170.650, 6030.200
1171.132, 6056.915
1171.614, 6078.227
1172.096, 6071.517
1172.578, 6055.208
1173.061, 6054.213
1173.543, 6066.485
1174.025, 6072.658
1174.507, 6066.572
1174.989, 6062.237
1175.471, 6060.093
1175.953, 6065.358
1176.435, 6093.345
1176.917, 6128.620
1177.400, 6147.163
1177.882, 6146.885
1178.364, 6146.392
1178.846, 6155.364
1179.328, 6150.638
1179.810, 6121.423
1180.292, 6085.706
1180.774, 6069.711
1181.256, 6069.769
1181.739, 6082.910
1182.221, 6110.589
1182.703, 6130.404
1183.185, 6131.239
1183.667, 6136.018
1184.149, 6156.777
1184.631, 6181.801
1185.113, 6178.206
1185.596, 6158.760
1186.078, 6154.954
1186.560, 6178.991
1187.042, 6202.470
1187.524, 6223.092
1188.006, 6234.907
1188.488, 6231.603
1188.970, 6219.082
1189.453, 6213.153
1189.935, 6213.738
1190.417, 6222.037
1190.899, 6248.137
1191.381, 6261.052
1191.863, 6245.539
1192.345, 6226.525
1192.827, 6216.754
1193.309, 6217.373
1193.792, 6242.248
1194.274, 6283.027
1194.756, 6308.437
1195.238, 6284.913
1195.720, 6272.942
1196.202, 6299.045
1196.684, 6326.492
1197.166, 6318.407
1197.648, 6283.463
1198.130, 6262.784
1198.613, 6256.904
1199.095, 6265.264
1199.577, 6306.565
1200.059, 6337.167
1200.541, 6340.155
1201.023, 6333.038
1201.505, 6334.428
1201.987, 6342.508
1202.470, 6348.369
1202.952, 6351.532
1203.434, 6351.750
1203.916, 6338.771
1204.398, 6336.487
1204.880, 6357.599
1205.362, 6387.181
1205.844, 6403.969
1206.327, 6410.361
1206.809, 6422.863
1207.291, 6441.925
1207.773, 6450.873
1208.255, 6429.924
1208.737, 6409.488
1209.219, 6398.690
1209.701, 6396.718
1210.183, 6409.354
1210.666, 6431.070
1211.148, 6426.366
1211.630, 6390.397
1212.112, 6370.578
1212.594, 6417.906
1213.076, 6456.135
1213.558, 6449.546
1214.040, 6419.941
1214.522, 6417.069
1215.005, 6434.861
1215.487, 6444.391
1215.969, 6439.637
1216.451, 6440.520
1216.933, 6468.196
1217.415, 6490.900
1217.897, 6491.134
1218.379, 6479.926
1218.862, 6491.620
1219.344, 6518.855
1219.826, 6529.334
1220.308, 6512.294
1220.790, 6500.939
1221.272, 6517.035
1221.754, 6535.611
1222.236, 6543.855
1222.719, 6547.365
1223.201, 6569.676
1223.683, 6603.029
1224.165, 6618.241
1224.647, 6603.525
1225.129, 6587.597
1225.611, 6575.355
1226.093, 6574.313
1226.575, 6594.889
1227.057, 6625.058
1227.540, 6618.921
1228.022, 6588.534
1228.504, 6573.862
1228.986, 6594.072
1229.468, 6608.590
1229.950, 6596.647
1230.432, 6586.576
1230.914, 6592.792
1231.397, 6611.239
1231.879, 6631.183
1232.361, 6652.227
1232.843, 6674.512
1233.325, 6705.880
1233.807, 6717.107
1234.289, 6692.159
1234.771, 6663.607
1235.254, 6648.445
1235.736, 6644.241
1236.218, 6646.473
1236.700, 6653.562
1237.182, 6661.171
1237.664, 6665.013
1238.146, 6676.248
1238.628, 6699.487
1239.110, 6722.416
1239.593, 6736.246
1240.075, 6744.655
1240.557, 6758.063
1241.039, 6773.114
1241.521, 6781.053
1242.003, 6768.342
1242.485, 6770.618
1242.967, 6796.890
1243.449, 6819.461
1243.932, 6816.492
1244.414, 6798.613
1244.896, 6775.973
1245.378, 6756.055
1245.860, 6755.933
1246.342, 6806.819
1246.824, 6830.251
1247.306, 6820.372
1247.789, 6803.487
1248.271, 6789.692
1248.753, 6787.945
1249.235, 6826.685
1249.717, 6885.370
1250.199, 6915.622
1250.681, 6896.810
1251.163, 6882.776
1251.646, 6874.026
1252.128, 6872.891
1252.610, 6884.813
1253.092, 6902.111
1253.574, 6921.703
1254.056, 6938.689
1254.538, 6940.619
1255.020, 6920.049
1255.502, 6916.530
1255.984, 6932.895
1256.467, 6948.422
1256.949, 6945.778
1257.431, 6937.711
1257.913, 6929.402
1258.395, 6925.966
1258.877, 6937.535
1259.359, 6967.335
1259.841, 6985.723
1260.324, 6991.560
1260.806, 6997.214
1261.288, 7018.948
1261.770, 7035.412
1262.252, 7030.055
1262.734, 7011.495
1263.216, 6988.162
1263.698, 6960.294
1264.181, 6950.158
1264.663, 6958.523
1265.145, 6981.787
1265.627, 7039.790
1266.109, 7086.052
1266.591, 7093.596
1267.073, 7083.229
1267.555, 7076.934
1268.037, 7073.169
1268.520, 7052.587
1269.002, 7019.005
1269.484, 7008.332
1269.966, 7071.747
1270.448, 7114.709
1270.930, 7103.935
1271.412, 7079.016
1271.894, 7085.095
1272.376, 7113.278
1272.859, 7137.232
1273.341, 7156.095
1273.823, 7172.503
1274.305, 7185.875
1274.787, 7199.668
1275.269, 7216.024
1275.751, 7229.211
1276.233, 7231.596
1276.716, 7227.387
1277.198, 7223.885
1277.680, 7220.958
1278.162, 7216.100
1278.644, 7203.844
1279.126, 7200.590
1279.608, 7207.717
1280.090, 7224.272
1280.573, 7264.017
1281.055, 7301.390
1281.537, 7296.926
1282.019, 7264.932
1282.501, 7253.485
1282.983, 7270.489
1283.465, 7283.454
1283.947, 7289.389
1284.429, 7298.554
1284.911, 7327.425
1285.394, 7354.751
1285.876, 7358.333
1286.358, 7349.116
1286.840, 7351.747
1287.322, 7367.307
1287.804, 7371.404
1288.286, 7363.193
##END=



