##NAMES=Calcite
##RRUFFID=R040070
##IDEAL CHEMISTRY=CaCO_3_
##LOCALITY=Pryor Mountain, Big Horn County, Montana, USA
##OWNER=RRUFF
##SOURCE=University of Arizona Mineral Museum
##DESCRIPTION=Orange scalenohedral crystals
##STATUS=The identification of this mineral has been confirmed by X-ray diffraction and chemical analysis
##URL=rruff.info/R040070
##MEASURED CHEMISTRY=(Ca_0.99_Mg_0.01_)CO_3_
131.7538, 436.1905
132.2359, 449.1364
132.7181, 459.5959
133.2002, 466.1228
133.6823, 473.6485
134.1644, 484.9463
134.6465, 495.2141
135.1286, 499.9954
135.6108, 498.8768
136.0929, 496.1537
136.5750, 498.8965
137.0571, 514.3145
137.5392, 522.3468
138.0213, 513.2993
138.5035, 502.5430
138.9856, 504.0244
139.4677, 521.8663
139.9498, 549.4868
140.4319, 574.2742
140.9140, 584.0486
141.3962, 609.3702
141.8783, 656.4366
142.3604, 717.1418
142.8425, 783.6653
143.3246, 852.9713
143.8067, 925.6179
144.2889, 1003.691
144.7710, 1083.629
145.2531, 1173.610
145.7352, 1271.086
146.2173, 1361.740
146.6994, 1443.434
147.1816, 1530.063
147.6637, 1621.334
148.1458, 1716.876
148.6279, 1808.736
149.1100, 1915.130
149.5921, 2047.543
150.0743, 2197.776
150.5564, 2350.371
151.0385, 2501.120
151.5206, 2648.625
152.0027, 2791.624
152.4848, 2945.978
152.9670, 3076.709
153.4491, 3184.731
153.9312, 3260.680
154.4133, 3276.641
154.8954, 3215.066
155.3775, 3082.853
155.8597, 2914.102
156.3418, 2694.215
156.8239, 2462.559
157.3060, 2225.655
157.7881, 1989.307
158.2702, 1773.429
158.7524, 1590.012
159.2345, 1437.927
159.7166, 1303.894
160.1987, 1189.125
160.6808, 1088.890
161.1629, 1001.368
161.6451, 926.4324
162.1272, 861.0876
162.6093, 805.6146
163.0914, 758.9919
163.5735, 716.1492
164.0556, 676.3173
164.5378, 641.0430
165.0199, 612.1339
165.5020, 589.3211
165.9841, 570.4518
166.4662, 555.8650
166.9483, 544.2890
167.4305, 533.0282
167.9126, 522.1685
168.3947, 511.2516
168.8768, 499.3217
169.3589, 486.2836
169.8410, 474.6664
170.3232, 466.1905
170.8053, 459.8744
171.2874, 454.1714
171.7695, 449.3904
172.2516, 444.5415
172.7337, 437.9592
173.2159, 429.3123
173.6980, 421.9559
174.1801, 419.0814
174.6622, 418.0558
175.1443, 415.0261
175.6264, 408.0378
176.1086, 400.0504
176.5907, 395.0031
177.0728, 393.4479
177.5549, 391.0895
178.0370, 385.5316
178.5191, 377.8949
179.0013, 368.9774
179.4834, 357.4888
179.9655, 346.5085
180.4476, 340.1928
180.9297, 339.0448
181.4118, 339.8562
181.8940, 343.8239
182.3761, 348.0867
182.8582, 349.0024
183.3403, 344.4782
183.8224, 337.6940
184.3046, 333.0469
184.7867, 331.0566
185.2688, 328.7970
185.7509, 323.6158
186.2330, 317.8611
186.7151, 314.2562
187.1973, 314.3252
187.6794, 315.7000
188.1615, 315.3708
188.6436, 313.3152
189.1257, 309.6903
189.6078, 301.9966
190.0900, 293.7288
190.5721, 288.5723
191.0542, 288.2610
191.5363, 290.3360
192.0184, 291.4868
192.5005, 291.4685
192.9827, 291.5927
193.4648, 292.9036
193.9469, 294.4353
194.4290, 295.1611
194.9111, 294.5852
195.3932, 293.5811
195.8754, 293.5013
196.3575, 294.6448
196.8396, 295.3502
197.3217, 294.3855
197.8038, 292.9227
198.2859, 291.7986
198.7681, 291.0321
199.2502, 291.1808
199.7323, 294.0976
200.2144, 300.8597
200.6965, 304.6839
201.1786, 298.1803
201.6608, 289.8113
202.1429, 287.6295
202.6250, 294.8557
203.1071, 303.8592
203.5892, 304.3839
204.0713, 294.9448
204.5535, 286.6733
205.0356, 284.0342
205.5177, 283.8516
205.9998, 283.5492
206.4819, 282.3958
206.9640, 282.1776
207.4462, 285.8318
207.9283, 293.9484
208.4104, 300.3907
208.8925, 302.5025
209.3746, 302.6252
209.8567, 302.5068
210.3388, 302.4564
210.8210, 301.8461
211.3031, 299.7566
211.7852, 296.1126
212.2673, 292.7104
212.7494, 290.1564
213.2315, 287.9567
213.7137, 285.3599
214.1958, 282.2220
214.6779, 280.0989
215.1600, 281.5128
215.6421, 286.3639
216.1242, 288.8074
216.6064, 285.4586
217.0885, 281.1066
217.5706, 279.4114
218.0527, 280.6043
218.5348, 283.3186
219.0169, 287.7436
219.4991, 293.5161
219.9812, 296.7368
220.4633, 296.0988
220.9454, 293.1351
221.4275, 287.7476
221.9096, 280.2417
222.3918, 275.7235
222.8739, 279.8274
223.3560, 290.6600
223.8381, 297.7391
224.3202, 298.2549
224.8023, 296.4815
225.2845, 295.9413
225.7666, 296.4517
226.2487, 296.8490
226.7308, 295.9103
227.2129, 294.3000
227.6950, 294.2954
228.1772, 296.7246
228.6593, 299.6803
229.1414, 301.4900
229.6235, 302.4609
230.1056, 303.7257
230.5877, 306.8087
231.0699, 310.3651
231.5520, 310.7789
232.0341, 306.3877
232.5162, 302.8008
232.9983, 305.6819
233.4804, 312.8431
233.9626, 319.1438
234.4447, 322.4720
234.9268, 324.1517
235.4089, 325.6847
235.8910, 326.8707
236.3731, 329.2488
236.8553, 335.4139
237.3374, 343.6138
237.8195, 349.7848
238.3016, 352.0576
238.7837, 352.5412
239.2658, 353.2265
239.7480, 354.1239
240.2301, 354.8747
240.7122, 353.9380
241.1943, 353.0812
241.6764, 356.6429
242.1585, 368.8910
242.6407, 381.8470
243.1228, 388.6091
243.6049, 389.8708
244.0870, 391.4599
244.5691, 395.8741
245.0512, 402.9242
245.5334, 411.6093
246.0155, 424.3304
246.4976, 435.0882
246.9797, 437.9670
247.4618, 435.6288
247.9439, 437.3432
248.4261, 447.7983
248.9082, 463.4228
249.3903, 476.2598
249.8724, 484.9399
250.3545, 494.2783
250.8366, 506.9525
251.3188, 521.2518
251.8009, 533.5471
252.2830, 542.1975
252.7651, 549.7590
253.2472, 560.6841
253.7293, 574.8895
254.2115, 591.6557
254.6936, 612.3240
255.1757, 635.0007
255.6578, 657.4612
256.1399, 679.0883
256.6220, 700.2144
257.1042, 720.8895
257.5863, 740.3534
258.0684, 762.3508
258.5505, 787.7745
259.0326, 815.1947
259.5147, 843.8029
259.9969, 873.4680
260.4790, 903.9055
260.9611, 935.3116
261.4432, 967.6286
261.9253, 1000.303
262.4074, 1028.246
262.8896, 1060.596
263.3717, 1102.903
263.8538, 1154.570
264.3359, 1212.085
264.8180, 1272.662
265.3001, 1336.567
265.7823, 1406.616
266.2644, 1487.371
266.7465, 1568.968
267.2286, 1642.782
267.7107, 1715.563
268.1928, 1798.928
268.6750, 1899.073
269.1571, 2016.540
269.6392, 2150.101
270.1213, 2311.393
270.6034, 2478.183
271.0855, 2641.971
271.5677, 2812.330
272.0498, 3001.825
272.5319, 3214.863
273.0140, 3446.601
273.4961, 3681.929
273.9782, 3906.740
274.4604, 4163.450
274.9425, 4477.950
275.4246, 4806.554
275.9067, 5113.007
276.3888, 5390.562
276.8709, 5656.909
277.3531, 5944.731
277.8352, 6271.503
278.3173, 6560.009
278.7994, 6816.465
279.2815, 7027.895
279.7636, 7195.347
280.2458, 7313.395
280.7279, 7366.988
281.2100, 7343.488
281.6921, 7242.602
282.1742, 7068.357
282.6563, 6791.422
283.1385, 6463.073
283.6206, 6095.967
284.1027, 5698.168
284.5848, 5283.622
285.0669, 4850.974
285.5490, 4409.624
286.0312, 4005.718
286.5133, 3641.132
286.9954, 3313.248
287.4775, 3027.302
287.9596, 2773.009
288.4417, 2538.915
288.9239, 2321.296
289.4060, 2122.997
289.8881, 1949.733
290.3702, 1802.919
290.8523, 1671.790
291.3344, 1555.915
291.8166, 1453.444
292.2987, 1363.146
292.7808, 1286.973
293.2629, 1217.017
293.7450, 1147.018
294.2271, 1078.113
294.7093, 1015.580
295.1914, 962.0541
295.6735, 914.5172
296.1556, 866.7222
296.6377, 817.6158
297.1198, 775.7482
297.6020, 748.6880
298.0841, 729.8837
298.5662, 707.2471
299.0483, 677.7371
299.5304, 648.2545
300.0125, 627.4009
300.4947, 615.4526
300.9768, 599.4758
301.4589, 573.3163
301.9410, 546.0063
302.4231, 525.8187
302.9052, 512.6779
303.3874, 500.6396
303.8695, 484.9044
304.3516, 465.8966
304.8337, 451.0226
305.3158, 441.6357
305.7979, 434.2846
306.2801, 429.2456
306.7622, 425.1209
307.2443, 418.6100
307.7264, 407.7237
308.2085, 394.5312
308.6906, 385.9169
309.1728, 389.9508
309.6549, 388.6388
310.1370, 376.6693
310.6191, 360.9511
311.1012, 347.9232
311.5833, 339.5778
312.0655, 334.7500
312.5476, 332.0489
313.0297, 332.8653
313.5118, 332.4852
313.9939, 330.9298
314.4760, 328.3627
314.9582, 324.2386
315.4403, 318.9598
315.9224, 314.0582
316.4045, 311.5486
316.8866, 311.4702
317.3687, 307.3827
317.8509, 293.3423
318.3330, 282.0898
318.8151, 280.0247
319.2972, 283.3312
319.7793, 285.3839
320.2614, 282.7758
320.7436, 276.6415
321.2257, 268.9882
321.7078, 258.4995
322.1899, 250.3710
322.6720, 248.0983
323.1541, 248.2946
323.6363, 247.9623
324.1184, 246.3132
324.6005, 244.6275
325.0826, 244.7894
325.5647, 246.5848
326.0468, 246.3005
326.5290, 241.1582
327.0111, 235.8552
327.4932, 236.9408
327.9753, 244.5341
328.4574, 248.6347
328.9395, 240.8006
329.4217, 227.6900
329.9038, 222.2774
330.3859, 227.1508
330.8680, 232.7443
331.3501, 229.3557
331.8322, 217.8985
332.3144, 211.4224
332.7965, 215.1033
333.2786, 220.5148
333.7607, 222.2775
334.2428, 220.6349
334.7249, 217.3575
335.2070, 213.0378
335.6891, 208.2319
336.1713, 205.5611
336.6534, 206.2958
337.1355, 207.2756
337.6176, 208.8179
338.0997, 209.9554
338.5818, 208.9908
339.0640, 205.4413
339.5461, 201.1344
340.0282, 199.1115
340.5103, 200.7804
340.9924, 201.6415
341.4745, 200.5161
341.9567, 199.6635
342.4388, 201.6042
342.9209, 205.5060
343.4030, 207.7407
343.8851, 204.6028
344.3672, 196.2831
344.8494, 190.2941
345.3315, 186.1621
345.8136, 185.3843
346.2957, 191.8379
346.7778, 200.8263
347.2599, 204.8190
347.7421, 199.4109
348.2242, 190.3454
348.7063, 189.4061
349.1884, 199.1410
349.6705, 205.9292
350.1526, 203.9069
350.6348, 198.4156
351.1169, 192.8709
351.5990, 187.5744
352.0811, 183.8446
352.5632, 183.7307
353.0453, 186.1943
353.5275, 186.9301
354.0096, 184.6392
354.4917, 182.0206
354.9738, 181.4483
355.4559, 182.6584
355.9380, 185.3613
356.4202, 192.5209
356.9023, 199.1175
357.3844, 199.3239
357.8665, 193.5650
358.3486, 187.3458
358.8307, 183.5883
359.3129, 182.0846
359.7950, 181.7717
360.2771, 184.1645
360.7592, 185.7398
361.2413, 185.2460
361.7234, 183.4808
362.2056, 181.3470
362.6877, 179.1505
363.1698, 177.1668
363.6519, 175.7766
364.1340, 174.7663
364.6161, 175.0177
365.0983, 179.2785
365.5804, 182.3205
366.0625, 179.3820
366.5446, 171.9658
367.0267, 165.9235
367.5089, 166.1714
367.9910, 171.9842
368.4731, 176.3268
368.9552, 179.6311
369.4373, 180.5677
369.9194, 176.9782
370.4016, 171.8103
370.8837, 168.5592
371.3658, 168.5658
371.8479, 170.3912
372.3300, 172.8282
372.8121, 176.0705
373.2943, 177.0708
373.7764, 173.1286
374.2585, 168.6374
374.7406, 167.7874
375.2227, 170.4344
375.7048, 172.8121
376.1870, 172.5464
376.6691, 170.8839
377.1512, 170.3249
377.6333, 171.2121
378.1154, 171.8447
378.5975, 170.8384
379.0797, 168.4289
379.5618, 166.4499
380.0439, 164.4119
380.5260, 163.3134
381.0081, 164.9382
381.4902, 167.8318
381.9724, 168.1813
382.4545, 164.1773
382.9366, 158.5199
383.4187, 156.6109
383.9008, 162.3680
384.3829, 164.9376
384.8651, 162.1706
385.3472, 157.8716
385.8293, 154.5649
386.3114, 152.4844
386.7935, 150.4774
387.2756, 147.0595
387.7578, 142.3690
388.2399, 142.0943
388.7220, 151.4435
389.2041, 158.8063
389.6862, 161.2569
390.1683, 160.1356
390.6505, 156.5219
391.1326, 150.4568
391.6147, 144.6118
392.0968, 143.5500
392.5789, 147.8338
393.0610, 151.4018
393.5432, 153.0766
394.0253, 153.5127
394.5074, 153.4667
394.9895, 152.9019
395.4716, 151.1855
395.9537, 146.4568
396.4359, 140.9183
396.9180, 138.5464
397.4001, 139.7181
397.8822, 141.9775
398.3643, 144.0262
398.8464, 145.8399
399.3286, 147.4387
399.8107, 149.6511
400.2928, 150.7373
400.7749, 148.8157
401.2570, 145.5853
401.7391, 144.4285
402.2213, 146.4775
402.7034, 149.2092
403.1855, 148.5466
403.6676, 142.4689
404.1497, 138.3843
404.6318, 136.5414
405.1140, 136.1564
405.5961, 137.8556
406.0782, 140.7393
406.5603, 142.6611
407.0424, 141.9837
407.5245, 139.3987
408.0067, 137.9220
408.4888, 137.9613
408.9709, 138.3546
409.4530, 139.1064
409.9351, 139.8835
410.4172, 140.3766
410.8994, 140.5207
411.3815, 140.4726
411.8636, 140.4551
412.3457, 140.3996
412.8278, 139.7608
413.3099, 138.0958
413.7921, 136.6515
414.2742, 137.1403
414.7563, 138.8770
415.2384, 139.4492
415.7205, 137.5563
416.2026, 135.0228
416.6848, 132.6047
417.1669, 130.6202
417.6490, 130.4741
418.1311, 133.1838
418.6132, 137.0897
419.0953, 138.3377
419.5775, 133.9286
420.0596, 132.0825
420.5417, 135.4480
421.0238, 139.7748
421.5059, 142.0828
421.9880, 141.9830
422.4702, 140.0947
422.9523, 136.4195
423.4344, 131.2589
423.9165, 129.8681
424.3986, 136.2106
424.8807, 140.8419
425.3629, 139.8997
425.8450, 136.8716
426.3271, 136.1540
426.8092, 139.2571
427.2913, 142.6790
427.7734, 141.5880
428.2556, 136.3669
428.7377, 133.6604
429.2198, 135.5577
429.7019, 138.5430
430.1840, 140.2317
430.6661, 140.6339
431.1483, 139.3316
431.6304, 133.8040
432.1125, 128.3336
432.5946, 127.6449
433.0767, 130.8383
433.5588, 133.1968
434.0410, 132.2892
434.5231, 129.5883
435.0052, 128.7861
435.4873, 132.3977
435.9694, 133.4923
436.4515, 128.5090
436.9337, 123.0999
437.4158, 122.5202
437.8979, 126.5724
438.3800, 131.1066
438.8621, 132.6472
439.3442, 131.4206
439.8264, 130.3146
440.3085, 129.0366
440.7906, 128.3559
441.2727, 129.1021
441.7548, 130.1550
442.2369, 130.0996
442.7191, 128.5049
443.2012, 126.8222
443.6833, 126.6478
444.1654, 127.7703
444.6475, 128.7990
445.1296, 129.7387
445.6118, 130.1499
446.0939, 129.0507
446.5760, 126.9477
447.0581, 125.8245
447.5402, 126.4700
448.0223, 127.7893
448.5045, 129.5365
448.9866, 131.3765
449.4687, 132.6840
449.9508, 133.2818
450.4329, 132.6386
450.9150, 129.4298
451.3972, 120.5118
451.8793, 116.1567
452.3614, 119.5227
452.8435, 124.4372
453.3256, 127.8006
453.8077, 129.4792
454.2899, 130.3519
454.7720, 130.8728
455.2541, 131.1943
455.7362, 132.2101
456.2183, 135.0537
456.7004, 135.6217
457.1826, 129.1530
457.6647, 122.2554
458.1468, 121.0407
458.6289, 126.0401
459.1110, 130.6496
459.5931, 129.4567
460.0753, 125.2488
460.5574, 124.5774
461.0395, 128.2768
461.5216, 130.9758
462.0037, 128.2922
462.4858, 121.7760
462.9680, 118.9844
463.4501, 123.1907
463.9322, 126.6993
464.4143, 127.3522
464.8964, 126.1369
465.3785, 124.0532
465.8607, 121.4133
466.3428, 118.1686
466.8249, 113.6402
467.3070, 107.2541
467.7891, 106.1215
468.2712, 116.6429
468.7534, 125.5164
469.2355, 128.9260
469.7176, 128.7471
470.1997, 127.1959
470.6818, 124.8284
471.1639, 123.1101
471.6461, 125.1345
472.1282, 130.4574
472.6103, 131.7689
473.0924, 125.8548
473.5745, 119.2256
474.0566, 119.1644
474.5388, 123.9485
475.0209, 126.2563
475.5030, 122.4934
475.9851, 117.8920
476.4672, 116.1541
476.9493, 116.4662
477.4315, 116.3744
477.9136, 114.8355
478.3957, 113.0739
478.8778, 113.2733
479.3599, 116.0896
479.8420, 119.3135
480.3242, 125.0777
480.8063, 129.1954
481.2884, 128.3858
481.7705, 124.2409
482.2526, 120.5521
482.7347, 119.5261
483.2169, 119.9903
483.6990, 119.3041
484.1811, 117.1034
484.6632, 115.9933
485.1453, 116.7608
485.6274, 118.7459
486.1096, 121.6674
486.5917, 125.4232
487.0738, 128.4447
487.5559, 131.3715
488.0380, 132.4960
488.5201, 128.1522
489.0023, 119.4384
489.4844, 113.0475
489.9665, 112.6906
490.4486, 116.1382
490.9307, 117.9608
491.4128, 117.1752
491.8950, 116.1636
492.3771, 114.2531
492.8592, 112.6640
493.3413, 112.1972
493.8234, 112.8277
494.3055, 114.2132
494.7877, 116.3573
495.2698, 118.7886
495.7519, 119.8415
496.2340, 119.0552
496.7161, 118.4600
497.1982, 119.0175
497.6804, 119.7179
498.1625, 119.6494
498.6446, 118.7624
499.1267, 117.6116
499.6088, 115.8427
500.0909, 114.2831
500.5730, 114.5859
501.0551, 116.5508
501.5373, 117.5455
502.0194, 115.7075
502.5015, 112.3254
502.9836, 111.3844
503.4657, 115.7127
503.9478, 118.5215
504.4300, 118.8387
504.9121, 118.2120
505.3942, 117.3483
505.8763, 116.5933
506.3584, 116.4974
506.8405, 117.6918
507.3227, 119.6627
507.8048, 120.3487
508.2869, 119.1818
508.7690, 118.6780
509.2511, 121.1665
509.7332, 123.5181
510.2154, 122.0891
510.6975, 116.6110
511.1796, 112.1006
511.6617, 111.5911
512.1439, 112.7679
512.6260, 112.4820
513.1081, 110.8408
513.5902, 110.2868
514.0723, 112.4875
514.5544, 116.1747
515.0366, 117.5635
515.5187, 113.2945
516.0008, 111.5917
516.4829, 115.4437
516.9650, 119.4033
517.4471, 119.0284
517.9293, 115.0916
518.4114, 111.5698
518.8935, 111.2451
519.3756, 112.9756
519.8577, 113.6932
520.3398, 113.1372
520.8220, 113.0032
521.3041, 114.0814
521.7862, 115.5165
522.2683, 116.5067
522.7504, 117.0508
523.2325, 117.0702
523.7147, 115.0856
524.1968, 113.6533
524.6789, 116.4272
525.1610, 122.2042
525.6431, 125.9714
526.1252, 125.2107
526.6074, 121.5878
527.0895, 118.5313
527.5716, 115.0309
528.0537, 114.2821
528.5358, 120.2432
529.0179, 124.8783
529.5001, 122.7095
529.9822, 115.9427
530.4643, 110.2248
530.9464, 108.4260
531.4285, 109.1145
531.9106, 111.0552
532.3928, 114.1613
532.8749, 114.9415
533.3570, 111.8871
533.8391, 107.4950
534.3212, 103.5893
534.8033, 100.2054
535.2855, 99.68427
535.7676, 105.5944
536.2497, 111.1023
536.7318, 111.6913
537.2139, 109.3502
537.6960, 107.6368
538.1782, 107.8486
538.6603, 109.4179
539.1424, 111.9686
539.6245, 115.9681
540.1066, 117.7251
540.5887, 114.5151
541.0709, 112.4284
541.5530, 115.9256
542.0351, 121.2019
542.5172, 121.9062
542.9993, 115.0541
543.4814, 108.2520
543.9636, 108.8638
544.4457, 114.2304
544.9278, 117.8772
545.4099, 118.8218
545.8920, 117.7885
546.3741, 114.7006
546.8563, 109.9974
547.3384, 107.9424
547.8205, 110.2969
548.3026, 112.7342
548.7847, 115.4743
549.2668, 117.3963
549.7490, 117.2625
550.2311, 115.0694
550.7132, 111.7986
551.1953, 107.5062
551.6774, 103.0241
552.1595, 102.5852
552.6417, 107.3871
553.1238, 111.2059
553.6059, 111.2355
554.0880, 109.5039
554.5701, 108.6198
555.0522, 108.6284
555.5344, 109.1141
556.0165, 110.1734
556.4986, 111.4885
556.9807, 112.9885
557.4628, 114.5131
557.9449, 115.7871
558.4271, 116.7273
558.9092, 116.9522
559.3913, 115.2205
559.8734, 109.6224
560.3555, 107.0998
560.8376, 111.4361
561.3198, 115.4444
561.8019, 116.0090
562.2840, 113.9408
562.7661, 111.0644
563.2482, 107.5122
563.7303, 104.5979
564.2125, 104.8384
564.6946, 106.9686
565.1767, 105.7771
565.6588, 99.78653
566.1409, 93.75275
566.6230, 91.97233
567.1052, 94.40671
567.5873, 98.02247
568.0694, 104.7348
568.5515, 110.0921
569.0336, 112.9545
569.5157, 114.0537
569.9979, 114.0478
570.4800, 113.1068
570.9621, 111.0771
571.4442, 106.8234
571.9263, 101.5024
572.4084, 100.4679
572.8906, 104.6872
573.3727, 108.0565
573.8548, 107.2533
574.3369, 105.1250
574.8190, 106.5319
575.3011, 112.1891
575.7833, 115.8557
576.2654, 114.9816
576.7475, 112.5643
577.2296, 110.2121
577.7117, 108.2594
578.1938, 106.9359
578.6760, 106.3366
579.1581, 106.6072
579.6402, 108.5776
580.1223, 113.1392
580.6044, 114.8044
581.0865, 110.7371
581.5686, 107.1358
582.0507, 108.2082
582.5328, 111.5613
583.0150, 112.3938
583.4971, 108.1609
583.9792, 104.8301
584.4613, 108.1309
584.9434, 114.4038
585.4255, 116.8001
585.9077, 114.5529
586.3898, 111.7500
586.8719, 111.5881
587.3540, 113.5084
587.8361, 114.3626
588.3182, 113.6178
588.8004, 112.6181
589.2825, 111.2525
589.7646, 109.8915
590.2467, 107.9714
590.7288, 106.1123
591.2109, 106.6892
591.6931, 113.2928
592.1752, 120.6527
592.6573, 120.0647
593.1394, 112.9280
593.6215, 107.7060
594.1036, 106.8427
594.5858, 108.6565
595.0679, 111.8283
595.5500, 116.7409
596.0321, 118.7617
596.5142, 114.3607
596.9963, 111.6304
597.4785, 115.1401
597.9606, 120.4142
598.4427, 121.8412
598.9248, 118.4527
599.4069, 114.2449
599.8890, 113.0229
600.3712, 113.9641
600.8533, 114.0446
601.3354, 113.1387
601.8175, 112.4415
602.2996, 112.2472
602.7817, 112.7696
603.2639, 114.9893
603.7460, 119.9144
604.2281, 122.0029
604.7102, 118.0673
605.1923, 113.6736
605.6744, 112.2121
606.1566, 112.7696
606.6387, 113.2692
607.1208, 112.8660
607.6029, 112.0787
608.0850, 111.8179
608.5671, 112.0474
609.0493, 110.8408
609.5314, 106.9958
610.0135, 104.6266
610.4956, 107.4039
610.9777, 112.8329
611.4598, 115.4337
611.9420, 114.2057
612.4241, 112.4824
612.9062, 110.4059
613.3883, 108.8643
613.8704, 109.0284
614.3525, 110.5309
614.8347, 112.1548
615.3168, 113.2935
615.7989, 113.6482
616.2810, 112.2152
616.7631, 108.5788
617.2452, 105.8520
617.7274, 103.7614
618.2095, 103.5242
618.6916, 107.6262
619.1737, 113.9816
619.6558, 117.8572
620.1379, 117.5520
620.6201, 116.3941
621.1022, 115.9001
621.5843, 115.4196
622.0664, 113.3486
622.5485, 110.0939
623.0306, 108.8034
623.5128, 112.1427
623.9949, 118.0632
624.4770, 119.5546
624.9591, 114.9967
625.4412, 111.4612
625.9233, 110.4077
626.4055, 110.2150
626.8876, 109.9270
627.3697, 109.5590
627.8518, 109.1711
628.3339, 108.6003
628.8160, 108.2528
629.2982, 108.1923
629.7803, 108.5833
630.2624, 110.2757
630.7445, 113.1044
631.2266, 114.9089
631.7087, 113.6644
632.1909, 110.1308
632.6730, 108.2474
633.1551, 108.4394
633.6372, 109.2688
634.1193, 112.6020
634.6014, 114.5574
635.0836, 110.7039
635.5657, 102.5360
636.0478, 97.28191
636.5299, 99.16917
637.0120, 102.6053
637.4941, 103.8935
637.9763, 104.0215
638.4584, 104.9666
638.9405, 107.0530
639.4226, 108.8313
639.9047, 108.8078
640.3868, 107.3417
640.8690, 107.1194
641.3511, 108.9202
641.8332, 110.1695
642.3153, 110.6401
642.7974, 110.0523
643.2795, 107.2504
643.7617, 102.8099
644.2438, 100.1177
644.7259, 100.9226
645.2080, 103.1705
645.6901, 106.9596
646.1722, 110.7461
646.6544, 111.0154
647.1365, 107.2945
647.6186, 103.0423
648.1007, 101.4614
648.5828, 102.3622
649.0649, 104.7433
649.5471, 110.1018
650.0292, 113.1666
650.5113, 110.6836
650.9934, 107.1262
651.4755, 106.3047
651.9576, 107.8767
652.4398, 108.7790
652.9219, 107.5701
653.4040, 106.0021
653.8861, 104.8314
654.3682, 104.1934
654.8503, 104.5564
655.3325, 105.8879
655.8146, 107.2539
656.2967, 107.8718
656.7788, 107.7404
657.2609, 106.6483
657.7430, 104.0744
658.2252, 102.2130
658.7073, 101.9055
659.1894, 102.1875
659.6715, 101.9861
660.1536, 101.4682
660.6357, 101.8063
661.1179, 104.4832
661.6000, 106.6896
662.0821, 106.9253
662.5642, 105.8618
663.0463, 103.8067
663.5284, 101.2192
664.0106, 99.83059
664.4927, 101.4072
664.9748, 104.9072
665.4569, 106.3032
665.9390, 105.0634
666.4211, 104.9910
666.9033, 107.6896
667.3854, 110.7282
667.8675, 111.3169
668.3496, 109.9906
668.8317, 110.0286
669.3138, 114.9805
669.7960, 117.3089
670.2781, 111.4553
670.7602, 103.5366
671.2423, 100.1663
671.7244, 101.6833
672.2065, 104.4364
672.6887, 105.9305
673.1708, 106.9940
673.6529, 110.5666
674.1350, 116.6256
674.6171, 117.4530
675.0992, 109.7789
675.5814, 101.7717
676.0635, 100.8404
676.5456, 105.8552
677.0277, 108.0138
677.5098, 103.2011
677.9919, 101.4588
678.4741, 107.6571
678.9562, 114.7185
679.4383, 116.3509
679.9204, 113.7161
680.4025, 112.1469
680.8846, 114.6180
681.3668, 118.6550
681.8489, 122.0098
682.3310, 124.2503
682.8131, 122.8268
683.2952, 117.1185
683.7773, 110.8963
684.2595, 106.1882
684.7416, 103.4117
685.2237, 104.1390
685.7058, 111.6788
686.1879, 117.2674
686.6700, 120.6668
687.1522, 122.4379
687.6343, 121.1650
688.1164, 118.8578
688.5985, 119.6538
689.0806, 125.5102
689.5627, 131.6772
690.0449, 133.8456
690.5270, 134.1372
691.0091, 136.8681
691.4912, 141.8001
691.9733, 144.3907
692.4554, 141.9659
692.9376, 137.7206
693.4197, 138.1685
693.9018, 144.4428
694.3839, 150.7023
694.8660, 156.8727
695.3481, 163.1744
695.8303, 169.7582
696.3124, 176.4826
696.7945, 183.1996
697.2766, 189.9232
697.7587, 196.3115
698.2408, 199.3809
698.7230, 204.5258
699.2051, 215.0854
699.6872, 231.5624
700.1693, 255.0884
700.6514, 285.7452
701.1335, 321.2210
701.6157, 358.6698
702.0978, 398.3799
702.5799, 440.7364
703.0620, 483.1811
703.5441, 540.6462
704.0262, 619.7611
704.5084, 714.2170
704.9905, 817.2081
705.4726, 928.1235
705.9547, 1054.338
706.4368, 1180.627
706.9189, 1341.394
707.4011, 1562.949
707.8832, 1817.080
708.3653, 2063.954
708.8474, 2305.523
709.3295, 2584.828
709.8116, 2941.664
710.2938, 3341.930
710.7759, 3797.670
711.2580, 4267.109
711.7401, 4537.469
712.2222, 4562.931
712.7043, 4368.604
713.1865, 3946.584
713.6686, 3332.956
714.1507, 2746.766
714.6328, 2144.666
715.1149, 1647.025
715.5970, 1285.879
716.0792, 1008.676
716.5613, 807.4861
717.0434, 667.7396
717.5255, 560.6097
718.0076, 484.8594
718.4897, 425.5109
718.9719, 377.5476
719.4540, 338.3456
719.9361, 305.5618
720.4182, 278.5756
720.9003, 256.7598
721.3824, 239.8899
721.8646, 226.5353
722.3467, 214.3837
722.8288, 203.4075
723.3109, 194.6031
723.7930, 188.5795
724.2751, 182.9848
724.7573, 176.4162
725.2394, 169.8916
725.7215, 165.8203
726.2036, 164.9002
726.6857, 162.1370
727.1678, 154.3071
727.6500, 147.6316
728.1321, 145.4825
728.6142, 145.8777
729.0963, 146.9235
729.5784, 147.8197
730.0605, 146.9428
730.5427, 142.0138
731.0248, 135.2371
731.5069, 129.6452
731.9890, 125.4059
732.4711, 123.9900
732.9532, 125.9219
733.4354, 127.9029
733.9175, 126.7189
734.3996, 122.8408
734.8817, 119.6846
735.3638, 116.7660
735.8459, 115.6324
736.3281, 119.4486
736.8102, 122.2686
737.2923, 118.8762
737.7744, 111.7406
738.2565, 107.8484
738.7386, 109.7011
739.2208, 112.5696
739.7029, 115.7839
740.1850, 117.9836
740.6671, 117.0662
741.1492, 113.8478
741.6313, 111.1499
742.1135, 110.3163
742.5956, 109.4188
743.0777, 103.9978
743.5598, 95.59928
744.0419, 95.32364
744.5240, 104.4835
745.0062, 111.6235
745.4883, 111.2584
745.9704, 107.4357
746.4525, 106.6877
746.9346, 110.1415
747.4167, 110.0676
747.8989, 101.6206
748.3810, 95.77680
748.8631, 96.95889
749.3452, 100.4297
749.8273, 101.2954
750.3094, 99.60703
750.7916, 99.41424
751.2737, 104.9476
751.7558, 109.9715
752.2379, 108.4402
752.7200, 103.5466
753.2021, 100.4628
753.6843, 99.94717
754.1664, 100.2609
754.6485, 100.2225
755.1306, 100.1466
755.6127, 101.0347
756.0948, 102.9489
756.5770, 103.7283
757.0591, 102.9269
757.5412, 101.6388
758.0233, 100.1923
758.5054, 98.90248
758.9875, 98.45335
759.4697, 98.61275
759.9518, 100.2816
760.4339, 107.0760
760.9160, 111.3548
761.3981, 107.6378
761.8802, 100.6839
762.3624, 96.59378
762.8445, 96.52785
763.3266, 97.47726
763.8087, 98.67007
764.2908, 99.17078
764.7729, 97.17893
765.2551, 93.84262
765.7372, 92.09902
766.2193, 92.48872
766.7014, 92.79202
767.1835, 90.72812
767.6656, 87.66257
768.1478, 88.80835
768.6299, 94.73331
769.1120, 99.71870
769.5941, 103.0606
770.0762, 104.7822
770.5583, 104.3740
771.0405, 102.4671
771.5226, 101.2448
772.0047, 101.2121
772.4868, 100.8584
772.9689, 98.80439
773.4510, 97.81087
773.9332, 100.8065
774.4153, 105.1264
774.8974, 106.2698
775.3795, 103.1648
775.8616, 100.3517
776.3438, 100.5083
776.8259, 102.4583
777.3080, 106.9310
777.7901, 111.8641
778.2722, 111.3635
778.7543, 104.4342
779.2365, 97.01298
779.7186, 94.54533
780.2007, 95.93307
780.6828, 97.69724
781.1649, 99.83768
781.6470, 102.6006
782.1292, 106.7111
782.6113, 109.2553
783.0934, 107.2415
783.5755, 102.2120
784.0576, 99.99612
784.5397, 103.3456
785.0219, 104.7054
785.5040, 101.2710
785.9861, 98.92164
786.4682, 101.7358
786.9503, 106.7048
787.4324, 109.5371
787.9146, 109.3589
788.3967, 107.4842
788.8788, 103.4546
789.3609, 99.01893
789.8430, 94.53418
790.3251, 91.10413
790.8073, 91.44592
791.2894, 95.59553
791.7715, 99.69337
792.2536, 100.5321
792.7357, 99.21361
793.2178, 97.84195
793.7000, 96.50575
794.1821, 96.82810
794.6642, 99.44148
795.1463, 100.8772
795.6284, 98.44584
796.1105, 93.52968
796.5927, 89.98648
797.0748, 88.00083
797.5569, 86.92590
798.0390, 87.29899
798.5211, 87.91640
799.0032, 88.81905
799.4854, 89.43555
799.9675, 88.72579
800.4496, 86.53284
800.9317, 85.10889
801.4138, 84.25816
801.8959, 85.23183
802.3781, 90.78326
802.8602, 97.31855
803.3423, 100.4378
803.8244, 99.86374
804.3065, 97.86488
804.7886, 95.40732
805.2708, 93.10619
805.7529, 91.39518
806.2350, 90.52443
806.7171, 91.43967
807.1992, 94.10549
807.6813, 97.46594
808.1635, 101.1237
808.6456, 104.0203
809.1277, 103.9475
809.6098, 100.6749
810.0919, 98.08107
810.5740, 95.84978
811.0562, 95.48888
811.5383, 98.68501
812.0204, 102.5138
812.5025, 103.5101
812.9846, 101.6127
813.4667, 99.71533
813.9489, 97.04784
814.4310, 95.44986
814.9131, 96.77670
815.3952, 97.88153
815.8773, 95.18121
816.3594, 90.54336
816.8416, 89.09306
817.3237, 93.07627
817.8058, 97.71716
818.2879, 101.7906
818.7700, 103.8898
819.2521, 100.5939
819.7343, 94.43631
820.2164, 91.68891
820.6985, 94.14500
821.1806, 97.88419
821.6627, 99.28993
822.1448, 99.10545
822.6270, 98.99319
823.1091, 98.96497
823.5912, 99.07695
824.0733, 99.33414
824.5554, 99.99934
825.0375, 101.4924
825.5197, 103.2042
826.0018, 103.1537
826.4839, 101.2645
826.9660, 97.47761
827.4481, 89.21806
827.9302, 83.79809
828.4124, 86.66756
828.8945, 93.36140
829.3766, 96.65318
829.8587, 96.13302
830.3408, 95.19188
830.8229, 93.18156
831.3051, 91.87642
831.7872, 92.57555
832.2693, 93.68895
832.7514, 93.62608
833.2335, 92.49075
833.7156, 91.43903
834.1978, 91.09523
834.6799, 90.62254
835.1620, 88.05482
835.6441, 85.96341
836.1262, 88.42513
836.6083, 94.27068
837.0905, 99.71572
837.5726, 103.1776
838.0547, 104.4826
838.5368, 102.4269
839.0189, 98.26939
839.5010, 95.53084
839.9832, 94.15497
840.4653, 93.75242
840.9474, 94.24834
841.4295, 95.12052
841.9116, 95.89483
842.3937, 96.68723
842.8759, 98.12678
843.3580, 100.5690
843.8401, 102.1125
844.3222, 102.7058
844.8043, 102.0397
845.2864, 98.89616
845.7686, 95.11138
846.2507, 94.25835
846.7328, 97.23645
847.2149, 99.55950
847.6970, 101.6133
848.1791, 102.5187
848.6613, 101.7852
849.1434, 99.99787
849.6255, 96.90932
850.1076, 93.12440
850.5897, 90.91792
851.0718, 91.43656
851.5540, 92.79600
852.0361, 95.54951
852.5182, 97.50636
853.0003, 95.56782
853.4824, 91.31077
853.9645, 88.24472
854.4467, 87.60845
854.9288, 88.73995
855.4109, 92.78484
855.8930, 97.17515
856.3751, 96.89693
856.8572, 93.36133
857.3394, 90.55018
857.8215, 89.49119
858.3036, 90.77346
858.7857, 95.27892
859.2678, 100.9334
859.7499, 102.6075
860.2321, 100.4093
860.7142, 98.91679
861.1963, 98.65678
861.6784, 97.28304
862.1605, 93.15498
862.6426, 88.81071
863.1248, 88.10990
863.6069, 91.22393
864.0890, 94.50456
864.5711, 99.20773
865.0532, 101.4866
865.5353, 99.95135
866.0175, 96.48662
866.4996, 90.66305
866.9817, 84.07046
867.4638, 81.91910
867.9459, 86.88127
868.4280, 90.74615
868.9102, 91.93243
869.3923, 92.46339
869.8744, 93.05953
870.3565, 93.72694
870.8386, 94.12334
871.3207, 94.32195
871.8029, 95.51246
872.2850, 100.7508
872.7671, 104.2020
873.2492, 100.6859
873.7313, 94.51038
874.2134, 89.95332
874.6956, 87.59985
875.1777, 87.35403
875.6598, 89.32076
876.1419, 91.07375
876.6240, 89.57865
877.1061, 86.59744
877.5883, 84.39842
878.0704, 83.43456
878.5525, 85.69858
879.0346, 91.34756
879.5167, 96.21128
879.9988, 96.48030
880.4810, 94.06237
880.9631, 93.69094
881.4452, 95.17100
881.9273, 95.91303
882.4094, 95.61755
882.8915, 94.86494
883.3737, 93.83276
883.8558, 92.95747
884.3379, 93.18925
884.8200, 94.59777
885.3021, 93.44236
885.7842, 87.64963
886.2664, 85.97639
886.7485, 93.13970
887.2306, 100.2799
887.7127, 99.37463
888.1948, 92.89799
888.6769, 90.50512
889.1591, 95.83503
889.6412, 97.91249
890.1233, 93.63156
890.6054, 89.92271
891.0875, 88.72372
891.5696, 89.69574
892.0518, 94.02647
892.5339, 101.2407
893.0160, 104.0739
893.4981, 95.53599
893.9802, 89.68003
894.4623, 93.65387
894.9445, 99.70063
895.4266, 102.6898
895.9087, 102.4796
896.3908, 99.13403
896.8729, 92.38003
897.3550, 87.68404
897.8372, 88.71200
898.3193, 92.64182
898.8014, 99.35561
899.2835, 106.1970
899.7656, 109.0386
900.2477, 107.7163
900.7299, 104.8552
901.2120, 101.5304
901.6941, 98.90884
902.1762, 98.99564
902.6583, 100.4053
903.1404, 100.4103
903.6226, 99.19530
904.1047, 97.96828
904.5868, 97.20573
905.0689, 97.51244
905.5510, 99.85703
906.0331, 103.2126
906.5153, 105.2206
906.9974, 105.8749
907.4795, 104.4724
907.9616, 100.9425
908.4437, 98.37831
908.9258, 98.55300
909.4080, 100.1711
909.8900, 101.0949
910.3721, 101.3518
910.8542, 102.8638
911.3364, 106.2676
911.8185, 106.5538
912.3006, 101.5382
912.7827, 95.87061
913.2648, 92.90288
913.7469, 92.58884
914.2291, 95.38493
914.7112, 104.2862
915.1933, 107.1611
915.6754, 101.0218
916.1575, 94.25478
916.6396, 88.71353
917.1218, 85.21682
917.6039, 84.96217
918.0860, 87.88852
918.5681, 92.00656
919.0502, 100.6922
919.5323, 105.5573
920.0145, 102.9343
920.4966, 99.69375
920.9787, 99.61608
921.4608, 101.1050
921.9429, 101.2168
922.4250, 99.47981
922.9072, 99.14169
923.3893, 103.7167
923.8714, 106.0643
924.3535, 100.6737
924.8356, 94.53141
925.3177, 94.11121
925.7999, 98.03899
926.2820, 101.6919
926.7641, 104.1644
927.2462, 104.7488
927.7283, 101.0173
928.2104, 97.51630
928.6926, 97.87713
929.1747, 100.1457
929.6568, 101.7432
930.1389, 102.2871
930.6210, 102.4624
931.1031, 102.5372
931.5853, 102.5116
932.0674, 102.7716
932.5495, 102.6410
933.0316, 100.7598
933.5137, 97.96580
933.9958, 95.96959
934.4780, 95.30250
934.9601, 95.94476
935.4422, 98.62289
935.9243, 101.4328
936.4064, 101.5190
936.8885, 100.0275
937.3707, 99.42417
937.8528, 99.60059
938.3349, 98.40017
938.8170, 95.01360
939.2991, 92.62528
939.7813, 95.61966
940.2634, 101.5173
940.7455, 104.7923
941.2276, 105.8238
941.7097, 105.6760
942.1918, 104.7113
942.6740, 104.4394
943.1561, 105.8475
943.6382, 107.2522
944.1203, 105.2115
944.6024, 100.6012
945.0845, 98.94189
945.5667, 100.1287
946.0488, 102.3677
946.5309, 105.2736
947.0130, 107.5863
947.4951, 108.4212
947.9772, 107.7055
948.4594, 104.1955
948.9415, 97.75580
949.4236, 96.77167
949.9057, 102.2886
950.3878, 105.9534
950.8699, 104.7487
951.3521, 101.8312
951.8342, 100.1016
952.3163, 99.48338
952.7984, 99.80383
953.2805, 101.2698
953.7626, 102.6300
954.2448, 103.9242
954.7269, 104.7798
955.2090, 105.1729
955.6911, 104.7204
956.1732, 102.5945
956.6553, 99.02468
957.1375, 97.13356
957.6196, 96.70928
958.1017, 99.10294
958.5838, 107.4896
959.0659, 112.5690
959.5480, 107.5635
960.0302, 98.35253
960.5123, 94.11094
960.9944, 95.12141
961.4765, 97.12940
961.9586, 101.0193
962.4407, 104.2567
962.9229, 106.9629
963.4050, 108.2762
963.8871, 106.7011
964.3692, 103.7957
964.8513, 103.0987
965.3334, 105.6915
965.8156, 105.5054
966.2977, 98.81004
966.7798, 94.51153
967.2619, 94.70240
967.7440, 97.23373
968.2261, 102.7510
968.7083, 109.1148
969.1904, 110.4934
969.6725, 104.5361
970.1546, 100.7410
970.6367, 100.6359
971.1188, 101.6654
971.6010, 103.5258
972.0831, 105.8452
972.5652, 109.1835
973.0473, 112.7375
973.5294, 113.8439
974.0115, 111.4729
974.4937, 108.6023
974.9758, 104.1903
975.4579, 101.1885
975.9400, 101.1173
976.4221, 102.7908
976.9042, 105.6093
977.3864, 109.1219
977.8685, 111.9883
978.3506, 114.7168
978.8327, 115.0816
979.3148, 109.6101
979.7969, 105.0232
980.2791, 106.0197
980.7612, 109.0478
981.2433, 109.0172
981.7254, 106.4323
982.2075, 107.0845
982.6896, 114.7701
983.1718, 121.4086
983.6539, 126.2472
984.1360, 127.4164
984.6181, 119.5981
985.1002, 109.8304
985.5823, 108.0817
986.0645, 114.5385
986.5466, 120.5659
987.0287, 124.0963
987.5108, 125.6168
987.9929, 124.7230
988.4750, 122.4867
988.9572, 119.1061
989.4393, 115.1649
989.9214, 110.3935
990.4035, 105.2781
990.8856, 103.8106
991.3677, 110.4812
991.8499, 116.5533
992.3320, 117.6007
992.8141, 117.3213
993.2962, 117.4940
993.7783, 118.8669
994.2604, 122.9771
994.7426, 129.7412
995.2247, 135.1588
995.7068, 137.9086
996.1889, 138.5828
996.6710, 135.1558
997.1531, 131.8913
997.6353, 132.6116
998.1174, 135.9912
998.5995, 140.2339
999.0816, 144.6805
999.5637, 146.3881
1000.046, 140.2859
1000.528, 136.0628
1001.010, 140.0816
1001.492, 146.4615
1001.974, 150.5975
1002.456, 153.0283
1002.939, 156.0258
1003.421, 159.9162
1003.903, 161.6371
1004.385, 157.5343
1004.867, 153.8894
1005.349, 153.9137
1005.831, 155.6431
1006.313, 157.5908
1006.795, 159.8192
1007.278, 163.0080
1007.760, 167.2356
1008.242, 170.9575
1008.724, 173.8771
1009.206, 175.6416
1009.688, 174.8463
1010.170, 173.9426
1010.652, 174.5179
1011.135, 176.7969
1011.617, 181.5509
1012.099, 188.7737
1012.581, 194.5176
1013.063, 197.5541
1013.545, 198.2337
1014.027, 194.1044
1014.509, 190.1193
1014.991, 191.4226
1015.474, 195.5475
1015.956, 197.3591
1016.438, 195.9608
1016.920, 194.7206
1017.402, 196.2692
1017.884, 196.3386
1018.366, 190.9087
1018.848, 185.5139
1019.331, 184.1431
1019.813, 186.0772
1020.295, 191.2235
1020.777, 199.2450
1021.259, 202.1240
1021.741, 191.8674
1022.223, 183.6048
1022.705, 185.3032
1023.187, 188.1600
1023.670, 184.5194
1024.152, 178.3309
1024.634, 176.5292
1025.116, 179.9636
1025.598, 184.5800
1026.080, 193.3999
1026.562, 197.5459
1027.044, 190.4321
1027.526, 182.3695
1028.009, 179.7828
1028.491, 180.5066
1028.973, 181.0611
1029.455, 181.1247
1029.937, 181.7211
1030.419, 184.2397
1030.901, 185.5199
1031.383, 183.9777
1031.866, 182.1452
1032.348, 181.3078
1032.830, 181.0510
1033.312, 180.4258
1033.794, 179.5069
1034.276, 180.3118
1034.758, 185.4630
1035.240, 188.6074
1035.723, 188.9131
1036.205, 187.3830
1036.687, 182.7404
1037.169, 177.6323
1037.651, 175.7735
1038.133, 176.8064
1038.615, 175.8706
1039.097, 168.9843
1039.579, 166.8016
1040.062, 173.2593
1040.544, 179.1544
1041.026, 180.3193
1041.508, 180.2682
1041.990, 182.8966
1042.472, 187.5782
1042.954, 190.7130
1043.436, 192.2056
1043.918, 192.2641
1044.401, 189.8651
1044.883, 187.9512
1045.365, 187.1568
1045.847, 187.7105
1046.329, 190.2142
1046.811, 194.0714
1047.293, 197.2142
1047.775, 199.7891
1048.258, 201.0146
1048.740, 200.7636
1049.222, 198.9515
1049.704, 193.7895
1050.186, 192.1097
1050.668, 201.0201
1051.150, 214.9998
1051.632, 218.8898
1052.115, 211.3985
1052.597, 209.6088
1053.079, 214.4343
1053.561, 219.4045
1054.043, 223.2216
1054.525, 225.9735
1055.007, 227.5737
1055.489, 228.5581
1055.971, 229.5736
1056.453, 230.7681
1056.936, 234.3416
1057.418, 240.2677
1057.900, 246.0890
1058.382, 251.3595
1058.864, 257.9144
1059.346, 266.9178
1059.828, 276.0512
1060.310, 280.6315
1060.793, 283.5980
1061.275, 296.2820
1061.757, 317.6305
1062.239, 341.4870
1062.721, 367.2746
1063.203, 396.0183
1063.685, 428.1245
1064.167, 466.4761
1064.650, 515.5685
1065.132, 570.5936
1065.614, 633.1045
1066.096, 690.6509
1066.578, 710.2910
1067.060, 694.1168
1067.542, 655.3238
1068.024, 601.2390
1068.506, 550.1772
1068.989, 513.9567
1069.471, 492.0728
1069.953, 486.4144
1070.435, 493.3118
1070.917, 508.8586
1071.399, 531.9272
1071.881, 560.5129
1072.363, 594.9539
1072.845, 638.4952
1073.328, 692.2599
1073.810, 758.0356
1074.292, 833.6545
1074.774, 925.5352
1075.256, 1027.012
1075.738, 1156.068
1076.220, 1327.076
1076.702, 1548.480
1077.184, 1824.042
1077.667, 2138.974
1078.149, 2590.081
1078.631, 3177.091
1079.113, 3963.650
1079.595, 4914.356
1080.077, 6137.432
1080.559, 7690.666
1081.041, 9603.905
1081.524, 11924.50
1082.006, 14650.06
1082.488, 17841.35
1082.970, 21264.19
1083.452, 25482.78
1083.934, 30630.56
1084.416, 36610.08
1084.898, 45149.91
1085.380, 53570.80
1085.863, 58281.11
1086.345, 59283.51
1086.827, 55231.29
1087.309, 42993.20
1087.791, 32012.18
1088.273, 22357.79
1088.755, 14798.70
1089.237, 9936.262
1089.719, 6855.790
1090.202, 4773.575
1090.684, 3555.342
1091.166, 2666.706
1091.648, 2143.403
1092.130, 1748.173
1092.612, 1489.469
1093.094, 1288.191
1093.576, 1125.571
1094.059, 995.3772
1094.541, 894.1107
1095.023, 815.1202
1095.505, 744.9208
1095.987, 683.7557
1096.469, 631.3978
1096.951, 587.4046
1097.433, 545.4362
1097.916, 504.5173
1098.398, 470.1234
1098.880, 445.1319
1099.362, 424.9959
1099.844, 404.2920
1100.326, 384.7579
1100.808, 372.5525
1101.290, 363.6491
1101.772, 346.1290
1102.255, 322.4929
1102.737, 305.2391
1103.219, 298.0394
1103.701, 294.9407
1104.183, 294.0735
1104.665, 290.6096
1105.147, 276.3608
1105.629, 260.1104
1106.111, 252.2770
1106.594, 249.4174
1107.076, 244.7066
1107.558, 237.7021
1108.040, 232.6595
1108.522, 231.9662
1109.004, 230.3062
1109.486, 225.3410
1109.968, 218.7713
1110.451, 208.4068
1110.933, 199.5256
1111.415, 198.5605
1111.897, 202.7621
1112.379, 205.1731
1112.861, 205.0844
1113.343, 202.7921
1113.825, 196.2988
1114.307, 190.6061
1114.790, 185.8040
1115.272, 182.8359
1115.754, 183.2615
1116.236, 184.7170
1116.718, 184.1478
1117.200, 181.7272
1117.682, 179.1175
1118.164, 176.4339
1118.646, 172.5914
1119.129, 166.6337
1119.611, 164.0893
1120.093, 167.4614
1120.575, 171.2149
1121.057, 170.7697
1121.539, 167.4938
1122.021, 163.6621
1122.503, 159.5901
1122.986, 158.4035
1123.468, 159.5296
1123.950, 157.7859
1124.432, 152.7610
1124.914, 150.2346
1125.396, 153.0763
1125.878, 155.7866
1126.360, 150.6258
1126.843, 143.7142
1127.325, 145.4844
1127.807, 151.8200
1128.289, 157.4078
1128.771, 160.6341
1129.253, 158.0801
1129.735, 150.1275
1130.217, 144.4658
1130.699, 145.8842
1131.182, 148.8130
1131.664, 150.3023
1132.146, 151.4144
1132.628, 154.1112
1133.110, 156.0102
1133.592, 153.0212
1134.074, 146.7605
1134.556, 143.3013
1135.038, 144.3847
1135.521, 144.5839
1136.003, 141.2592
1136.485, 139.5733
1136.967, 142.8587
1137.449, 145.4185
1137.931, 143.7176
1138.413, 140.0179
1138.895, 137.0793
1139.378, 135.0008
1139.860, 135.3083
1140.342, 139.2113
1140.824, 139.4035
1141.306, 134.5919
1141.788, 131.3715
1142.270, 132.0140
1142.752, 133.7422
1143.234, 134.5531
1143.717, 134.1319
1144.199, 130.4153
1144.681, 124.9807
1145.163, 126.1778
1145.645, 132.4223
1146.127, 137.5357
1146.609, 140.2783
1147.091, 139.7450
1147.573, 135.7509
1148.056, 132.5734
1148.538, 134.9339
1149.020, 138.1830
1149.502, 136.6516
1149.984, 133.6553
1150.466, 133.3774
1150.948, 134.5914
1151.430, 134.9681
1151.913, 134.0271
1152.395, 131.5327
1152.877, 126.0701
1153.359, 123.5965
1153.841, 129.8560
1154.323, 134.6056
1154.805, 132.1916
1155.287, 127.8992
1155.770, 125.0306
1156.252, 123.7547
1156.734, 124.6368
1157.216, 127.7911
1157.698, 128.5130
1158.180, 124.7036
1158.662, 125.5100
1159.144, 134.4032
1159.626, 137.7222
1160.109, 129.0384
1160.591, 118.7745
1161.073, 116.0953
1161.555, 118.6866
1162.037, 122.2869
1162.519, 126.3591
1163.001, 126.6632
1163.483, 124.0271
1163.965, 123.0776
1164.448, 124.3731
1164.930, 126.4090
1165.412, 128.4298
1165.894, 128.3364
1166.376, 122.1393
1166.858, 116.1183
1167.340, 118.7198
1167.822, 124.0675
1168.305, 125.3744
1168.787, 123.9798
1169.269, 122.6607
1169.751, 121.9513
1170.233, 121.8008
1170.715, 122.6099
1171.197, 122.4383
1171.679, 118.3446
1172.161, 116.4377
1172.644, 120.6633
1173.126, 125.9041
1173.608, 129.7454
1174.090, 131.6188
1174.572, 129.8427
1175.054, 124.8817
1175.536, 123.9607
1176.018, 128.5317
1176.500, 129.8756
1176.983, 127.0716
1177.465, 123.8062
1177.947, 121.0743
1178.429, 119.4252
1178.911, 119.1101
1179.393, 121.0568
1179.875, 129.6788
1180.357, 140.5087
1180.840, 139.7987
1181.322, 131.4655
1181.804, 123.5180
1182.286, 118.1656
1182.768, 119.5601
1183.250, 127.8600
1183.732, 134.0054
1184.214, 132.0941
1184.697, 127.9276
1185.179, 122.7907
1185.661, 119.5373
1186.143, 120.9549
1186.625, 124.7149
1187.107, 129.8200
1187.589, 134.7273
1188.071, 135.3330
1188.553, 130.2398
1189.036, 127.9524
1189.518, 131.2823
1190.000, 131.4994
1190.482, 126.0450
1190.964, 121.6811
1191.446, 121.3358
1191.928, 122.7030
1192.410, 123.8027
1192.892, 124.4505
1193.375, 124.3596
1193.857, 123.4301
1194.339, 119.5519
1194.821, 113.9715
1195.303, 114.3786
1195.785, 120.6699
1196.267, 125.3740
1196.749, 125.5337
1197.232, 124.4112
1197.714, 124.0710
1198.196, 124.4156
1198.678, 125.0899
1199.160, 126.6727
1199.642, 131.7528
1200.124, 136.7206
1200.606, 135.6799
1201.089, 130.0360
1201.571, 126.1532
1202.053, 125.3270
1202.535, 124.9351
1203.017, 124.3231
1203.499, 124.8647
1203.981, 128.0272
1204.463, 129.7446
1204.945, 127.3635
1205.427, 124.8050
1205.910, 126.6179
1206.392, 130.6153
1206.874, 130.0246
1207.356, 125.3231
1207.838, 122.5990
1208.320, 121.7089
1208.802, 121.4001
1209.284, 121.3644
1209.767, 121.1108
1210.249, 120.4937
1210.731, 120.5664
1211.213, 122.0130
1211.695, 124.8308
1212.177, 131.1688
1212.659, 136.7537
1213.141, 136.2776
1213.624, 133.2296
1214.106, 132.5704
1214.588, 133.8130
1215.070, 133.4306
1215.552, 130.4597
1216.034, 128.7889
1216.516, 129.1966
1216.998, 130.3873
1217.480, 133.7190
1217.963, 134.3571
1218.445, 129.2454
1218.927, 123.8279
1219.409, 123.2634
1219.891, 125.7845
1220.373, 128.1068
1220.855, 129.8639
1221.337, 127.2596
1221.819, 121.8611
1222.302, 121.0809
1222.784, 124.7716
1223.266, 127.5617
1223.748, 127.7517
1224.230, 128.1865
1224.712, 131.2586
1225.194, 133.5570
1225.676, 131.2764
1226.159, 128.8229
1226.641, 129.1884
1227.123, 131.2170
1227.605, 136.0384
1228.087, 140.6667
1228.569, 136.8808
1229.051, 123.9464
1229.533, 118.5077
1230.016, 123.8366
1230.498, 127.1988
1230.980, 127.7003
1231.462, 127.0191
1231.944, 125.3313
1232.426, 125.2783
1232.908, 129.0444
1233.390, 132.8073
1233.872, 130.2533
1234.354, 124.3329
1234.837, 121.1297
1235.319, 119.9968
1235.801, 119.9912
1236.283, 120.6829
1236.765, 122.2421
1237.247, 123.9777
1237.729, 122.4483
1238.211, 115.1786
1238.694, 110.5211
1239.176, 113.2239
1239.658, 116.9339
1240.140, 119.6340
1240.622, 122.5628
1241.104, 128.2717
1241.586, 132.3679
1242.068, 128.4267
1242.551, 119.6284
1243.033, 118.5880
1243.515, 125.6519
1243.997, 127.1999
1244.479, 123.6618
1244.961, 124.5295
1245.443, 130.5957
1245.925, 134.4856
1246.407, 133.3437
1246.890, 131.0105
1247.372, 130.3971
1247.854, 130.0444
1248.336, 127.5586
1248.818, 125.7579
1249.300, 128.3208
1249.782, 132.1127
1250.264, 134.3627
1250.746, 134.5117
1251.229, 130.8351
1251.711, 122.9635
1252.193, 121.1918
1252.675, 130.6086
1253.157, 132.6564
1253.639, 123.7303
1254.121, 119.2004
1254.603, 123.8963
1255.086, 128.2051
1255.568, 125.8962
1256.050, 121.9192
1256.532, 122.8831
1257.014, 126.2894
1257.496, 127.2358
1257.978, 126.9909
1258.460, 127.8753
1258.943, 129.4622
1259.425, 130.7644
1259.907, 131.5469
1260.389, 131.4566
1260.871, 130.1467
1261.353, 130.5124
1261.835, 135.0346
1262.317, 138.7495
1262.799, 141.4304
##END=



