##NAMES=Calcite
##RRUFFID=R050130
##IDEAL CHEMISTRY=CaCO_3_
##LOCALITY=Mexico
##OWNER=RRUFF
##SOURCE=Dave Bunk Minerals
##DESCRIPTION=Colorless cleavage rhomb
##STATUS=The identification of this mineral has been confirmed by X-ray diffraction and chemical analysis
##URL=rruff.info/R050130
##MEASURED CHEMISTRY=Ca_1.00_CO_3_; trace amounts of Si (?)
93.88477, 167.2747
94.36688, 163.1878
94.84900, 163.9000
95.33112, 169.1269
95.81323, 177.5254
96.29535, 188.6715
96.77747, 202.4970
97.25958, 219.2058
97.74170, 239.4338
98.22382, 261.6109
98.70593, 281.7734
99.18805, 299.7271
99.67017, 319.5356
100.1523, 344.8403
100.6344, 375.7778
101.1165, 405.6320
101.5986, 433.6169
102.0807, 459.7544
102.5629, 482.2537
103.0450, 500.0037
103.5271, 516.9136
104.0092, 536.5648
104.4913, 560.8109
104.9734, 583.2131
105.4556, 601.9979
105.9377, 616.6743
106.4198, 634.9036
106.9019, 658.0609
107.3840, 683.6743
107.8661, 708.3363
108.3483, 732.0895
108.8304, 755.2018
109.3125, 777.2496
109.7946, 796.7120
110.2767, 819.7018
110.7588, 847.6979
111.2410, 879.1931
111.7231, 911.6652
112.2052, 946.7076
112.6873, 981.7390
113.1694, 1015.957
113.6515, 1048.855
114.1337, 1082.282
114.6158, 1117.701
115.0979, 1153.924
115.5800, 1188.129
116.0621, 1218.713
116.5442, 1247.455
117.0264, 1275.012
117.5085, 1303.769
117.9906, 1329.746
118.4727, 1349.938
118.9548, 1365.236
119.4369, 1381.523
119.9191, 1401.772
120.4012, 1424.386
120.8833, 1447.540
121.3654, 1469.431
121.8475, 1492.755
122.3296, 1521.510
122.8118, 1555.813
123.2939, 1586.610
123.7760, 1603.334
124.2581, 1612.767
124.7402, 1626.365
125.2223, 1650.981
125.7045, 1681.435
126.1866, 1711.896
126.6687, 1741.774
127.1508, 1773.094
127.6329, 1808.344
128.1150, 1846.669
128.5972, 1886.549
129.0793, 1925.189
129.5614, 1964.639
130.0435, 2008.916
130.5256, 2058.772
131.0077, 2112.785
131.4899, 2168.584
131.9720, 2226.309
132.4541, 2287.095
132.9362, 2340.237
133.4183, 2385.123
133.9004, 2440.888
134.3826, 2509.859
134.8647, 2589.423
135.3468, 2673.153
135.8289, 2761.652
136.3110, 2852.541
136.7931, 2946.985
137.2753, 3045.003
137.7574, 3135.335
138.2395, 3216.263
138.7216, 3288.125
139.2037, 3354.942
139.6858, 3415.236
140.1680, 3474.540
140.6501, 3538.763
141.1322, 3608.677
141.6143, 3681.637
142.0964, 3757.763
142.5785, 3837.310
143.0607, 3919.495
143.5428, 4002.173
144.0249, 4090.412
144.5070, 4192.160
144.9891, 4306.530
145.4712, 4434.499
145.9534, 4572.597
146.4355, 4720.624
146.9176, 4886.018
147.3997, 5065.547
147.8818, 5263.880
148.3639, 5493.111
148.8461, 5743.528
149.3282, 6034.397
149.8103, 6364.927
150.2924, 6724.394
150.7745, 7144.573
151.2566, 7624.956
151.7388, 8166.085
152.2209, 8755.686
152.7030, 9458.603
153.1851, 10158.40
153.6672, 10815.50
154.1493, 11545.87
154.6315, 12065.79
155.1136, 12395.10
155.5957, 12515.34
156.0778, 12367.14
156.5599, 11834.41
157.0420, 11106.78
157.5242, 10282.39
158.0063, 9242.145
158.4884, 8265.840
158.9705, 7376.362
159.4526, 6579.440
159.9347, 5885.685
160.4169, 5315.547
160.8990, 4838.640
161.3811, 4432.920
161.8632, 4118.835
162.3453, 3849.610
162.8274, 3614.437
163.3096, 3412.369
163.7917, 3236.679
164.2738, 3091.038
164.7559, 2967.787
165.2380, 2859.382
165.7201, 2766.780
166.2023, 2685.527
166.6844, 2613.794
167.1665, 2551.476
167.6486, 2495.120
168.1307, 2442.989
168.6128, 2395.640
169.0950, 2353.817
169.5771, 2320.008
170.0592, 2290.297
170.5413, 2262.328
171.0234, 2235.894
171.5055, 2210.161
171.9877, 2183.457
172.4698, 2157.094
172.9519, 2133.415
173.4340, 2113.304
173.9161, 2096.468
174.3982, 2083.248
174.8804, 2073.963
175.3625, 2065.704
175.8446, 2055.783
176.3267, 2044.928
176.8088, 2035.017
177.2909, 2027.468
177.7731, 2021.286
178.2552, 2015.069
178.7373, 2008.574
179.2194, 2002.155
179.7015, 1995.729
180.1836, 1989.461
180.6658, 1984.144
181.1479, 1981.108
181.6300, 1979.163
182.1121, 1975.869
182.5942, 1970.728
183.0763, 1964.731
183.5585, 1958.654
184.0406, 1952.573
184.5227, 1947.202
185.0048, 1943.906
185.4869, 1941.742
185.9690, 1937.583
186.4511, 1930.471
186.9333, 1922.177
187.4154, 1915.264
187.8975, 1909.668
188.3796, 1905.369
188.8617, 1902.747
189.3438, 1901.527
189.8260, 1900.421
190.3081, 1899.420
190.7902, 1898.187
191.2723, 1894.904
191.7544, 1889.459
192.2365, 1885.999
192.7187, 1889.795
193.2008, 1899.861
193.6829, 1905.834
194.1650, 1905.010
194.6471, 1899.798
195.1292, 1896.725
195.6114, 1895.900
196.0935, 1895.973
196.5756, 1895.211
197.0577, 1893.646
197.5398, 1895.249
198.0219, 1902.349
198.5041, 1912.508
198.9862, 1915.475
199.4683, 1910.081
199.9504, 1903.111
200.4325, 1899.776
200.9146, 1900.096
201.3968, 1903.359
201.8789, 1910.723
202.3610, 1920.825
202.8431, 1926.779
203.3252, 1927.955
203.8073, 1926.975
204.2895, 1925.499
204.7716, 1923.288
205.2537, 1922.786
205.7358, 1925.205
206.2179, 1929.963
206.7000, 1932.550
207.1822, 1932.388
207.6643, 1931.568
208.1464, 1932.116
208.6285, 1934.367
209.1106, 1936.415
209.5927, 1937.530
210.0749, 1937.900
210.5570, 1940.321
211.0391, 1945.819
211.5212, 1951.310
212.0033, 1953.024
212.4854, 1949.161
212.9676, 1947.966
213.4497, 1952.082
213.9318, 1961.206
214.4139, 1967.847
214.8960, 1971.411
215.3781, 1973.483
215.8603, 1975.098
216.3424, 1975.197
216.8245, 1978.126
217.3066, 1986.246
217.7887, 1999.491
218.2708, 2007.406
218.7530, 2008.021
219.2351, 2006.086
219.7172, 2006.460
220.1993, 2009.882
220.6814, 2013.702
221.1635, 2017.088
221.6457, 2020.049
222.1278, 2025.186
222.6099, 2034.589
223.0920, 2043.741
223.5741, 2047.173
224.0562, 2041.708
224.5384, 2037.822
225.0205, 2037.199
225.5026, 2039.818
225.9847, 2046.821
226.4668, 2060.989
226.9489, 2076.491
227.4311, 2086.735
227.9132, 2089.721
228.3953, 2091.986
228.8774, 2094.347
229.3595, 2096.789
229.8416, 2100.994
230.3238, 2107.171
230.8059, 2114.994
231.2880, 2124.422
231.7701, 2136.563
232.2522, 2148.104
232.7343, 2158.069
233.2165, 2166.458
233.6986, 2175.835
234.1807, 2185.966
234.6628, 2197.291
235.1449, 2210.353
235.6270, 2225.934
236.1092, 2241.288
236.5913, 2255.782
237.0734, 2269.297
237.5555, 2284.144
238.0376, 2301.946
238.5197, 2319.385
239.0019, 2332.311
239.4840, 2335.782
239.9661, 2344.317
240.4482, 2362.059
240.9303, 2388.903
241.4124, 2412.179
241.8946, 2429.432
242.3767, 2445.757
242.8588, 2465.608
243.3409, 2491.003
243.8230, 2516.108
244.3051, 2539.606
244.7873, 2561.602
245.2694, 2586.157
245.7515, 2614.191
246.2336, 2643.740
246.7157, 2672.936
247.1978, 2700.113
247.6800, 2730.476
248.1621, 2764.981
248.6442, 2803.704
249.1263, 2843.081
249.6084, 2883.264
250.0905, 2924.352
250.5726, 2965.992
251.0548, 3006.363
251.5369, 3051.375
252.0190, 3101.056
252.5011, 3155.935
252.9832, 3216.580
253.4653, 3284.555
253.9475, 3356.695
254.4296, 3430.154
254.9117, 3502.401
255.3938, 3582.435
255.8759, 3670.895
256.3581, 3768.244
256.8402, 3872.255
257.3223, 3983.757
257.8044, 4101.505
258.2865, 4223.958
258.7686, 4345.912
259.2508, 4482.721
259.7329, 4637.011
260.2150, 4805.876
260.6971, 4990.771
261.1792, 5190.796
261.6613, 5404.887
262.1435, 5633.891
262.6256, 5877.884
263.1077, 6131.566
263.5898, 6395.779
264.0719, 6667.830
264.5540, 6938.277
265.0362, 7209.919
265.5183, 7479.169
266.0004, 7748.414
266.4825, 8016.706
266.9646, 8279.337
267.4467, 8532.096
267.9289, 8780.765
268.4110, 9025.605
268.8931, 9265.736
269.3752, 9514.041
269.8573, 9774.498
270.3394, 10048.21
270.8216, 10340.15
271.3037, 10649.56
271.7858, 10979.21
272.2679, 11319.37
272.7500, 11665.58
273.2321, 12040.12
273.7143, 12447.44
274.1964, 12884.58
274.6785, 13365.23
275.1606, 13887.98
275.6427, 14452.17
276.1248, 15062.22
276.6070, 15723.42
277.0891, 16404.99
277.5712, 17099.71
278.0533, 17807.86
278.5354, 18527.43
279.0175, 19276.45
279.4996, 19995.60
279.9818, 20615.21
280.4639, 21136.64
280.9460, 21498.93
281.4281, 21694.61
281.9102, 21718.76
282.3923, 21514.83
282.8745, 21076.08
283.3566, 20431.79
283.8387, 19579.47
284.3208, 18511.58
284.8029, 17369.62
285.2850, 16154.16
285.7672, 14892.36
286.2493, 13693.90
286.7314, 12555.80
287.2135, 11498.62
287.6956, 10542.42
288.1777, 9682.904
288.6599, 8916.693
289.1420, 8244.574
289.6241, 7656.237
290.1062, 7127.042
290.5883, 6655.470
291.0704, 6238.500
291.5526, 5876.516
292.0347, 5564.044
292.5168, 5280.731
292.9989, 5019.991
293.4810, 4785.049
293.9631, 4580.538
294.4453, 4405.808
294.9274, 4247.372
295.4095, 4098.326
295.8916, 3958.852
296.3737, 3831.931
296.8558, 3719.890
297.3380, 3619.098
297.8201, 3524.070
298.3022, 3434.509
298.7843, 3351.541
299.2664, 3276.093
299.7485, 3206.377
300.2307, 3140.888
300.7128, 3078.354
301.1949, 3020.396
301.6770, 2968.929
302.1591, 2922.919
302.6412, 2879.837
303.1234, 2838.139
303.6055, 2798.360
304.0876, 2759.732
304.5697, 2722.668
305.0518, 2688.759
305.5339, 2662.245
306.0161, 2640.307
306.4982, 2617.668
306.9803, 2590.227
307.4624, 2561.745
307.9445, 2536.133
308.4266, 2513.465
308.9088, 2493.077
309.3909, 2475.708
309.8730, 2459.836
310.3551, 2443.249
310.8372, 2422.756
311.3193, 2402.781
311.8015, 2387.775
312.2836, 2376.945
312.7657, 2365.107
313.2478, 2345.908
313.7299, 2325.583
314.2120, 2310.202
314.6942, 2304.641
315.1763, 2300.919
315.6584, 2296.138
316.1405, 2290.012
316.6226, 2281.752
317.1047, 2268.587
317.5869, 2254.580
318.0690, 2242.467
318.5511, 2232.801
319.0332, 2225.046
319.5153, 2221.190
319.9974, 2219.199
320.4796, 2214.553
320.9617, 2202.898
321.4438, 2190.493
321.9259, 2180.447
322.4080, 2173.844
322.8901, 2167.415
323.3723, 2160.819
323.8544, 2153.898
324.3365, 2146.388
324.8186, 2135.778
325.3007, 2127.027
325.7828, 2122.917
326.2650, 2124.937
326.7471, 2123.575
327.2292, 2114.906
327.7113, 2103.853
328.1934, 2095.065
328.6755, 2088.782
329.1577, 2084.951
329.6398, 2085.039
330.1219, 2089.005
330.6040, 2089.834
331.0861, 2084.542
331.5682, 2078.373
332.0504, 2074.896
332.5325, 2077.326
333.0146, 2077.241
333.4967, 2073.144
333.9788, 2065.853
334.4609, 2059.163
334.9431, 2052.129
335.4252, 2046.911
335.9073, 2045.343
336.3894, 2050.140
336.8715, 2051.069
337.3536, 2046.359
337.8358, 2038.843
338.3179, 2034.628
338.8000, 2034.964
339.2821, 2035.455
339.7642, 2034.392
340.2463, 2031.670
340.7285, 2028.460
341.2106, 2023.982
341.6927, 2020.597
342.1748, 2022.796
342.6569, 2031.484
343.1390, 2037.971
343.6212, 2038.809
344.1033, 2034.948
344.5854, 2032.326
345.0675, 2031.075
345.5496, 2030.173
346.0317, 2028.663
346.5139, 2026.557
346.9960, 2024.286
347.4781, 2021.302
347.9602, 2018.783
348.4423, 2019.781
348.9244, 2024.226
349.4066, 2029.678
349.8887, 2036.351
350.3708, 2042.885
350.8529, 2044.457
351.3350, 2039.578
351.8171, 2032.259
352.2993, 2027.142
352.7814, 2024.012
353.2635, 2021.787
353.7456, 2020.478
354.2277, 2019.508
354.7098, 2017.749
355.1920, 2015.006
355.6741, 2012.696
356.1562, 2012.618
356.6383, 2013.747
357.1204, 2014.287
357.6025, 2012.010
358.0847, 2009.853
358.5668, 2011.234
359.0489, 2015.757
359.5310, 2018.594
360.0131, 2014.434
360.4952, 2008.209
360.9774, 2005.062
361.4595, 2008.659
361.9416, 2012.676
362.4237, 2015.350
362.9058, 2016.368
363.3879, 2014.716
363.8701, 2005.479
364.3522, 1996.698
364.8343, 1993.795
365.3164, 2000.735
365.7985, 2005.817
366.2806, 2006.090
366.7628, 2002.931
367.2449, 1998.549
367.7270, 1989.588
368.2091, 1982.988
368.6912, 1981.862
369.1733, 1987.717
369.6555, 1991.260
370.1376, 1989.755
370.6197, 1987.136
371.1018, 1986.812
371.5839, 1991.629
372.0660, 1994.704
372.5482, 1994.364
373.0303, 1991.153
373.5124, 1989.278
373.9945, 1988.934
374.4766, 1989.591
374.9587, 1991.364
375.4409, 1995.484
375.9230, 1997.115
376.4051, 1995.799
376.8872, 1992.098
377.3693, 1986.364
377.8514, 1977.425
378.3336, 1970.760
378.8157, 1969.476
379.2978, 1973.674
379.7799, 1976.794
380.2620, 1978.544
380.7441, 1980.222
381.2263, 1984.523
381.7084, 1991.266
382.1905, 1994.899
382.6726, 1992.336
383.1547, 1986.146
383.6368, 1983.969
384.1190, 1985.804
384.6011, 1988.092
385.0832, 1986.889
385.5653, 1983.763
386.0474, 1983.665
386.5295, 1988.551
387.0117, 1994.344
387.4938, 1996.018
387.9759, 1994.205
388.4580, 1991.300
388.9401, 1987.701
389.4222, 1984.196
389.9044, 1981.747
390.3865, 1980.452
390.8686, 1979.860
391.3507, 1980.974
391.8328, 1982.302
392.3149, 1981.642
392.7971, 1973.978
393.2792, 1967.663
393.7613, 1968.890
394.2434, 1976.700
394.7255, 1983.420
395.2076, 1986.088
395.6898, 1986.253
396.1719, 1984.808
396.6540, 1980.064
397.1361, 1976.628
397.6182, 1976.850
398.1003, 1979.140
398.5825, 1979.902
399.0646, 1977.434
399.5467, 1974.331
400.0288, 1970.975
400.5109, 1966.533
400.9930, 1964.832
401.4752, 1968.354
401.9573, 1973.151
402.4394, 1975.243
402.9215, 1973.730
403.4036, 1970.903
403.8857, 1966.114
404.3678, 1959.878
404.8499, 1957.043
405.3321, 1958.459
405.8142, 1961.709
406.2963, 1965.628
406.7784, 1970.533
407.2605, 1974.735
407.7426, 1978.507
408.2248, 1981.045
408.7069, 1979.867
409.1890, 1974.609
409.6711, 1970.202
410.1532, 1969.216
410.6353, 1970.973
411.1175, 1971.945
411.5996, 1972.092
412.0817, 1971.506
412.5638, 1969.527
413.0459, 1966.738
413.5280, 1965.329
414.0102, 1966.622
414.4923, 1968.659
414.9744, 1968.057
415.4565, 1965.388
415.9386, 1963.623
416.4207, 1966.236
416.9029, 1970.194
417.3850, 1971.065
417.8671, 1967.466
418.3492, 1964.697
418.8313, 1967.364
419.3134, 1973.217
419.7956, 1978.681
420.2777, 1983.780
420.7598, 1986.831
421.2419, 1986.167
421.7240, 1981.929
422.2061, 1977.891
422.6883, 1974.045
423.1704, 1971.557
423.6525, 1971.254
424.1346, 1975.068
424.6167, 1978.663
425.0988, 1982.275
425.5810, 1985.215
426.0631, 1985.667
426.5452, 1979.690
427.0273, 1975.343
427.5094, 1975.995
427.9915, 1983.523
428.4737, 1986.548
428.9558, 1982.361
429.4379, 1976.509
429.9200, 1974.775
430.4021, 1978.536
430.8842, 1982.553
431.3664, 1986.696
431.8485, 1990.291
432.3306, 1989.950
432.8127, 1984.949
433.2948, 1979.405
433.7769, 1975.543
434.2591, 1973.310
434.7412, 1972.437
435.2233, 1973.106
435.7054, 1974.314
436.1875, 1974.338
436.6696, 1973.484
437.1518, 1973.691
437.6339, 1976.476
438.1160, 1980.292
438.5981, 1982.545
439.0802, 1983.311
439.5623, 1983.524
440.0445, 1984.733
440.5266, 1985.527
441.0087, 1983.479
441.4908, 1976.689
441.9729, 1970.608
442.4550, 1968.880
442.9372, 1970.634
443.4193, 1974.167
443.9014, 1981.850
444.3835, 1988.551
444.8656, 1991.542
445.3477, 1990.615
445.8299, 1987.706
446.3120, 1980.359
446.7941, 1972.864
447.2762, 1968.625
447.7583, 1968.637
448.2404, 1971.183
448.7226, 1978.298
449.2047, 1987.981
449.6868, 1994.221
450.1689, 1996.110
450.6510, 1995.810
451.1331, 1993.538
451.6153, 1988.702
452.0974, 1985.615
452.5795, 1984.875
453.0616, 1985.043
453.5437, 1984.521
454.0258, 1983.174
454.5080, 1982.002
454.9901, 1980.964
455.4722, 1980.373
455.9543, 1981.879
456.4364, 1985.572
456.9185, 1988.171
457.4007, 1986.561
457.8828, 1982.137
458.3649, 1979.367
458.8470, 1978.595
459.3291, 1979.201
459.8112, 1981.438
460.2934, 1984.560
460.7755, 1986.874
461.2576, 1987.797
461.7397, 1987.695
462.2218, 1986.578
462.7039, 1984.640
463.1861, 1982.745
463.6682, 1979.875
464.1503, 1978.183
464.6324, 1980.164
465.1145, 1988.000
465.5966, 1993.662
466.0788, 1992.110
466.5609, 1987.540
467.0430, 1985.359
467.5251, 1990.913
468.0072, 1994.397
468.4893, 1991.565
468.9715, 1982.971
469.4536, 1979.139
469.9357, 1982.906
470.4178, 1988.352
470.8999, 1992.629
471.3820, 1996.131
471.8642, 1997.091
472.3463, 1994.249
472.8284, 1990.211
473.3105, 1989.258
473.7926, 1991.982
474.2747, 1994.399
474.7569, 1994.979
475.2390, 1994.361
475.7211, 1995.394
476.2032, 1998.161
476.6853, 2001.324
477.1674, 2004.124
477.6496, 2006.532
478.1317, 2008.559
478.6138, 2010.291
479.0959, 2011.280
479.5780, 2010.489
480.0602, 2008.552
480.5423, 2006.976
481.0244, 2007.630
481.5065, 2008.031
481.9886, 2004.709
482.4707, 1998.384
482.9529, 1994.972
483.4350, 2000.281
483.9171, 2007.731
484.3992, 2012.641
484.8813, 2014.206
485.3634, 2013.348
485.8456, 2007.657
486.3277, 2000.297
486.8098, 1996.032
487.2919, 1998.519
487.7740, 2000.566
488.2561, 2000.416
488.7383, 1998.260
489.2204, 1997.966
489.7025, 2000.995
490.1846, 2003.579
490.6667, 2002.529
491.1488, 1996.376
491.6310, 1994.763
492.1131, 1999.224
492.5952, 2006.266
493.0773, 2011.514
493.5594, 2014.981
494.0415, 2015.878
494.5237, 2012.517
495.0058, 2007.292
495.4879, 2006.690
495.9700, 2010.370
496.4521, 2013.396
496.9342, 2010.061
497.4164, 2004.510
497.8985, 2003.830
498.3806, 2009.847
498.8627, 2016.242
499.3448, 2018.592
499.8269, 2018.188
500.3091, 2016.997
500.7912, 2014.315
501.2733, 2012.364
501.7554, 2012.781
502.2375, 2015.043
502.7196, 2016.214
503.2018, 2013.718
503.6839, 2011.470
504.1660, 2011.718
504.6481, 2016.101
505.1302, 2018.546
505.6123, 2017.453
506.0945, 2015.575
506.5766, 2016.263
507.0587, 2021.040
507.5408, 2024.490
508.0229, 2025.915
508.5050, 2025.337
508.9872, 2021.960
509.4693, 2015.209
509.9514, 2009.757
510.4335, 2008.333
510.9156, 2010.499
511.3977, 2014.952
511.8799, 2022.152
512.3619, 2027.666
512.8441, 2025.510
513.3262, 2018.453
513.8083, 2012.493
514.2904, 2008.458
514.7725, 2007.410
515.2546, 2012.582
515.7368, 2021.689
516.2189, 2028.964
516.7010, 2030.296
517.1831, 2030.071
517.6652, 2031.116
518.1473, 2033.695
518.6295, 2034.736
519.1116, 2031.378
519.5937, 2027.373
520.0758, 2025.429
520.5579, 2028.221
521.0400, 2029.831
521.5222, 2029.673
522.0043, 2028.605
522.4864, 2028.309
522.9685, 2029.454
523.4506, 2029.851
523.9327, 2028.450
524.4149, 2025.695
524.8970, 2024.791
525.3791, 2025.880
525.8612, 2028.214
526.3433, 2032.946
526.8254, 2039.046
527.3076, 2039.545
527.7897, 2032.692
528.2718, 2025.138
528.7539, 2025.825
529.2360, 2031.751
529.7181, 2035.702
530.2003, 2033.566
530.6824, 2029.839
531.1645, 2027.851
531.6466, 2027.473
532.1287, 2028.094
532.6108, 2029.735
533.0930, 2032.085
533.5751, 2035.246
534.0572, 2039.447
534.5393, 2043.186
535.0214, 2046.900
535.5035, 2049.633
535.9857, 2050.468
536.4678, 2048.837
536.9499, 2046.182
537.4320, 2041.718
537.9141, 2036.603
538.3962, 2033.676
538.8784, 2033.074
539.3605, 2034.200
539.8426, 2037.571
540.3247, 2042.649
540.8068, 2045.359
541.2889, 2045.551
541.7711, 2044.865
542.2532, 2044.840
542.7353, 2045.025
543.2174, 2043.689
543.6995, 2040.254
544.1816, 2037.021
544.6638, 2036.604
545.1459, 2038.008
545.6280, 2039.413
546.1101, 2039.444
546.5922, 2039.846
547.0743, 2042.303
547.5565, 2046.144
548.0386, 2048.864
548.5207, 2048.189
549.0028, 2047.381
549.4849, 2048.453
549.9670, 2052.588
550.4492, 2053.931
550.9313, 2049.797
551.4134, 2045.037
551.8955, 2043.773
552.3776, 2047.959
552.8597, 2050.197
553.3419, 2049.266
553.8240, 2046.739
554.3061, 2045.805
554.7882, 2046.574
555.2703, 2047.551
555.7524, 2048.339
556.2346, 2048.870
556.7167, 2048.665
557.1988, 2047.789
557.6809, 2047.171
558.1630, 2047.450
558.6451, 2048.391
559.1273, 2049.922
559.6094, 2052.198
560.0915, 2053.894
560.5736, 2053.804
561.0557, 2052.791
561.5378, 2051.854
562.0200, 2050.738
562.5021, 2050.317
562.9842, 2051.926
563.4663, 2054.481
563.9484, 2054.694
564.4305, 2049.226
564.9127, 2045.427
565.3948, 2046.189
565.8769, 2051.588
566.3590, 2053.904
566.8411, 2052.030
567.3232, 2049.590
567.8054, 2049.611
568.2875, 2052.085
568.7696, 2052.437
569.2517, 2049.859
569.7338, 2046.971
570.2159, 2047.573
570.6981, 2050.741
571.1802, 2053.477
571.6623, 2054.982
572.1444, 2055.428
572.6265, 2054.213
573.1086, 2051.965
573.5908, 2050.640
574.0729, 2051.646
574.5550, 2053.483
575.0371, 2055.719
575.5192, 2058.340
576.0013, 2059.729
576.4835, 2058.526
576.9656, 2056.601
577.4477, 2054.964
577.9298, 2052.371
578.4119, 2052.731
578.8940, 2057.840
579.3762, 2064.251
579.8583, 2066.938
580.3404, 2065.232
580.8225, 2063.000
581.3046, 2060.153
581.7867, 2058.163
582.2689, 2062.743
582.7510, 2073.420
583.2331, 2082.062
583.7152, 2083.015
584.1973, 2079.570
584.6794, 2076.370
585.1616, 2073.596
585.6437, 2072.195
586.1258, 2075.250
586.6079, 2078.689
587.0900, 2077.983
587.5721, 2070.058
588.0543, 2064.118
588.5364, 2065.194
589.0185, 2069.272
589.5006, 2071.331
589.9827, 2067.619
590.4648, 2066.007
590.9470, 2069.309
591.4291, 2075.107
591.9112, 2074.315
592.3933, 2063.619
592.8754, 2056.156
593.3575, 2059.369
593.8397, 2071.171
594.3218, 2073.685
594.8039, 2066.267
595.2860, 2058.386
595.7681, 2058.049
596.2502, 2062.857
596.7324, 2068.207
597.2145, 2073.972
597.6966, 2077.487
598.1787, 2074.236
598.6608, 2067.963
599.1429, 2063.597
599.6251, 2062.899
600.1072, 2064.109
600.5893, 2067.754
601.0714, 2072.785
601.5535, 2076.779
602.0356, 2079.612
602.5178, 2080.925
602.9999, 2080.300
603.4820, 2077.828
603.9641, 2075.069
604.4462, 2071.256
604.9283, 2068.853
605.4105, 2070.146
605.8926, 2075.134
606.3747, 2077.385
606.8568, 2076.478
607.3389, 2075.251
607.8210, 2078.192
608.3032, 2083.135
608.7853, 2083.427
609.2674, 2075.638
609.7495, 2068.205
610.2316, 2071.361
610.7137, 2079.871
611.1959, 2084.563
611.6780, 2076.462
612.1601, 2069.281
612.6422, 2069.823
613.1243, 2076.462
613.6064, 2080.486
614.0886, 2078.407
614.5707, 2076.057
615.0528, 2075.410
615.5349, 2076.612
616.0170, 2076.784
616.4991, 2075.638
616.9813, 2074.095
617.4634, 2072.341
617.9455, 2070.447
618.4276, 2070.847
618.9097, 2074.067
619.3918, 2077.854
619.8740, 2079.613
620.3561, 2079.917
620.8382, 2080.226
621.3203, 2081.181
621.8024, 2081.902
622.2845, 2081.217
622.7667, 2079.820
623.2488, 2079.184
623.7309, 2080.933
624.2130, 2082.455
624.6951, 2082.704
625.1772, 2081.736
625.6594, 2080.736
626.1415, 2079.655
626.6236, 2078.659
627.1057, 2077.688
627.5878, 2076.682
628.0699, 2076.593
628.5521, 2077.520
629.0342, 2079.091
629.5163, 2081.429
629.9984, 2084.259
630.4805, 2086.063
630.9626, 2086.607
631.4448, 2086.342
631.9269, 2085.550
632.4090, 2084.328
632.8911, 2082.765
633.3732, 2079.961
633.8553, 2078.066
634.3375, 2079.240
634.8196, 2082.181
635.3017, 2084.031
635.7838, 2084.254
636.2659, 2083.033
636.7480, 2079.097
637.2302, 2073.073
637.7123, 2070.973
638.1944, 2074.388
638.6765, 2078.583
639.1586, 2081.734
639.6407, 2083.844
640.1229, 2083.959
640.6050, 2081.892
641.0871, 2079.270
641.5692, 2077.402
642.0513, 2076.162
642.5334, 2075.008
643.0156, 2073.709
643.4977, 2073.403
643.9798, 2076.491
644.4619, 2080.680
644.9440, 2082.893
645.4261, 2079.915
645.9083, 2077.563
646.3904, 2078.045
646.8725, 2080.293
647.3546, 2082.068
647.8367, 2083.294
648.3188, 2083.953
648.8010, 2083.792
649.2831, 2083.049
649.7652, 2082.743
650.2473, 2082.784
650.7294, 2083.731
651.2115, 2087.290
651.6937, 2092.080
652.1758, 2090.970
652.6579, 2084.077
653.1400, 2078.912
653.6221, 2084.565
654.1042, 2093.703
654.5864, 2095.928
655.0685, 2088.611
655.5506, 2083.238
656.0327, 2089.031
656.5148, 2097.791
656.9969, 2101.793
657.4791, 2094.211
657.9612, 2089.976
658.4433, 2091.448
658.9254, 2095.483
659.4075, 2097.549
659.8896, 2097.122
660.3718, 2096.546
660.8539, 2096.083
661.3360, 2095.961
661.8181, 2097.599
662.3002, 2100.656
662.7823, 2101.703
663.2645, 2096.160
663.7466, 2089.520
664.2287, 2090.780
664.7108, 2098.416
665.1929, 2104.888
665.6750, 2103.825
666.1572, 2102.109
666.6393, 2104.990
667.1214, 2113.455
667.6035, 2119.049
668.0856, 2118.748
668.5677, 2116.548
669.0499, 2114.167
669.5320, 2111.178
670.0141, 2109.806
670.4962, 2110.567
670.9783, 2111.846
671.4604, 2111.662
671.9426, 2110.240
672.4247, 2109.565
672.9068, 2110.002
673.3889, 2111.204
673.8710, 2113.054
674.3531, 2115.339
674.8353, 2117.640
675.3174, 2120.400
675.7995, 2122.380
676.2816, 2122.464
676.7637, 2121.240
677.2458, 2120.057
677.7280, 2117.400
678.2101, 2116.876
678.6922, 2120.125
679.1743, 2126.334
679.6564, 2130.734
680.1385, 2132.896
680.6207, 2134.771
681.1028, 2137.941
681.5849, 2141.691
682.0670, 2141.747
682.5491, 2138.143
683.0313, 2134.029
683.5134, 2130.022
683.9955, 2127.705
684.4776, 2130.277
684.9597, 2138.245
685.4418, 2145.545
685.9240, 2148.008
686.4061, 2148.762
686.8882, 2150.370
687.3703, 2153.842
687.8524, 2156.733
688.3345, 2157.762
688.8167, 2159.023
689.2988, 2162.761
689.7809, 2169.417
690.2630, 2176.780
690.7451, 2184.983
691.2272, 2193.237
691.7094, 2199.608
692.1915, 2204.615
692.6736, 2211.202
693.1557, 2219.808
693.6378, 2231.101
694.1199, 2245.368
694.6021, 2262.938
695.0842, 2284.371
695.5663, 2305.960
696.0484, 2335.120
696.5305, 2372.252
697.0126, 2418.507
697.4948, 2482.143
697.9769, 2571.941
698.4590, 2666.081
698.9411, 2761.697
699.4232, 2857.583
699.9053, 2932.628
700.3875, 2986.152
700.8696, 3027.049
701.3517, 3053.173
701.8338, 3072.059
702.3159, 3103.460
702.7980, 3148.235
703.2802, 3201.810
703.7623, 3254.152
704.2444, 3318.058
704.7265, 3400.635
705.2086, 3497.104
705.6907, 3639.359
706.1729, 3830.223
706.6550, 4076.500
707.1371, 4388.737
707.6192, 4800.659
708.1013, 5196.117
708.5834, 5577.326
709.0656, 5936.512
709.5477, 6249.329
710.0298, 6519.833
710.5119, 6797.052
710.9940, 7091.876
711.4761, 7395.901
711.9582, 7783.671
712.4403, 8166.521
712.9224, 8358.255
713.4045, 8320.071
713.8867, 8032.902
714.3688, 7350.027
714.8509, 6421.817
715.3330, 5561.833
715.8151, 4771.867
716.2972, 4122.897
716.7794, 3638.423
717.2615, 3301.531
717.7436, 3042.782
718.2257, 2868.562
718.7078, 2739.029
719.1899, 2646.217
719.6721, 2581.858
720.1542, 2522.780
720.6363, 2469.991
721.1184, 2427.343
721.6005, 2404.043
722.0826, 2387.897
722.5648, 2367.708
723.0469, 2343.332
723.5290, 2322.194
724.0111, 2309.613
724.4932, 2298.909
724.9753, 2286.184
725.4575, 2270.619
725.9396, 2258.963
726.4217, 2252.022
726.9038, 2247.701
727.3859, 2245.499
727.8680, 2245.167
728.3502, 2241.992
728.8323, 2235.543
729.3144, 2228.329
729.7965, 2222.165
730.2786, 2217.007
730.7607, 2212.678
731.2429, 2209.073
731.7250, 2206.366
732.2071, 2205.101
732.6892, 2204.492
733.1713, 2203.781
733.6534, 2202.425
734.1356, 2201.574
734.6177, 2201.694
735.0998, 2201.855
735.5819, 2201.183
736.0640, 2199.783
736.5461, 2195.644
737.0283, 2187.256
737.5104, 2178.935
737.9925, 2178.164
738.4746, 2182.781
738.9567, 2187.240
739.4388, 2189.828
739.9210, 2191.383
740.4031, 2192.685
740.8852, 2193.335
741.3673, 2192.564
741.8494, 2187.828
742.3315, 2184.545
742.8137, 2184.492
743.2958, 2186.345
743.7779, 2186.068
744.2600, 2182.851
744.7421, 2181.289
745.2242, 2183.655
745.7064, 2188.055
746.1885, 2189.416
746.6706, 2188.235
747.1527, 2186.860
747.6348, 2186.829
748.1169, 2186.954
748.5991, 2186.146
749.0812, 2184.550
749.5633, 2182.929
750.0454, 2179.660
750.5275, 2178.330
751.0096, 2181.378
751.4918, 2188.229
751.9739, 2192.298
752.4560, 2192.950
752.9381, 2192.366
753.4202, 2191.166
753.9023, 2189.581
754.3845, 2188.908
754.8666, 2189.098
755.3487, 2189.339
755.8308, 2188.492
756.3129, 2187.734
756.7950, 2189.203
757.2772, 2192.950
757.7593, 2194.686
758.2414, 2189.899
758.7235, 2185.099
759.2056, 2184.647
759.6877, 2189.648
760.1699, 2192.018
760.6520, 2190.628
761.1341, 2189.026
761.6162, 2190.458
762.0983, 2194.426
762.5804, 2196.094
763.0626, 2195.212
763.5447, 2193.562
764.0268, 2191.891
764.5089, 2190.762
764.9910, 2191.186
765.4731, 2193.541
765.9553, 2195.836
766.4374, 2197.366
766.9195, 2198.444
767.4016, 2199.329
767.8837, 2200.137
768.3658, 2200.243
768.8480, 2199.069
769.3301, 2198.126
769.8122, 2199.249
770.2943, 2202.204
770.7764, 2204.939
771.2585, 2207.369
771.7407, 2208.567
772.2228, 2205.049
772.7049, 2200.628
773.1870, 2201.668
773.6691, 2212.769
774.1512, 2220.948
774.6334, 2218.154
775.1155, 2211.589
775.5976, 2209.300
776.0797, 2215.458
776.5618, 2217.191
777.0439, 2212.531
777.5261, 2205.751
778.0082, 2202.202
778.4903, 2201.632
778.9724, 2201.605
779.4545, 2201.462
779.9366, 2202.505
780.4188, 2208.018
780.9009, 2215.141
781.3830, 2219.212
781.8651, 2217.027
782.3472, 2214.811
782.8293, 2215.647
783.3115, 2217.094
783.7936, 2215.311
784.2757, 2207.036
784.7578, 2204.135
785.2399, 2209.480
785.7220, 2218.028
786.2042, 2221.210
786.6863, 2219.885
787.1684, 2220.016
787.6505, 2223.557
788.1326, 2227.940
788.6147, 2231.657
789.0969, 2234.192
789.5790, 2234.696
790.0611, 2230.761
790.5432, 2227.266
791.0253, 2224.891
791.5074, 2223.703
791.9896, 2224.145
792.4717, 2227.034
792.9538, 2229.011
793.4359, 2229.621
793.9180, 2229.090
794.4001, 2227.350
794.8823, 2224.727
795.3644, 2222.399
795.8465, 2220.039
796.3286, 2219.408
796.8107, 2224.774
797.2928, 2232.306
797.7750, 2235.554
798.2571, 2227.521
798.7392, 2221.624
799.2213, 2220.912
799.7034, 2223.074
800.1855, 2224.582
800.6677, 2225.526
801.1498, 2224.919
801.6319, 2221.990
802.1140, 2218.449
802.5961, 2217.496
803.0782, 2218.371
803.5604, 2218.810
804.0425, 2217.572
804.5246, 2216.356
805.0067, 2216.020
805.4888, 2216.511
805.9709, 2217.738
806.4531, 2221.553
806.9352, 2223.513
807.4173, 2222.212
807.8994, 2219.572
808.3815, 2218.945
808.8636, 2220.342
809.3458, 2223.666
809.8279, 2229.965
810.3100, 2235.680
810.7921, 2233.611
811.2742, 2227.379
811.7563, 2224.601
812.2385, 2231.892
812.7206, 2237.774
813.2027, 2235.037
813.6848, 2228.568
814.1669, 2226.867
814.6490, 2233.552
815.1312, 2237.985
815.6133, 2238.399
816.0954, 2236.860
816.5775, 2236.994
817.0596, 2238.539
817.5417, 2239.430
818.0239, 2239.145
818.5060, 2238.074
818.9881, 2236.292
819.4702, 2234.116
819.9523, 2232.002
820.4344, 2228.982
820.9166, 2227.509
821.3987, 2229.111
821.8808, 2231.996
822.3629, 2233.877
822.8450, 2234.397
823.3271, 2235.786
823.8093, 2238.690
824.2914, 2241.520
824.7735, 2241.217
825.2556, 2238.942
825.7377, 2238.230
826.2198, 2240.721
826.7020, 2242.751
827.1841, 2240.352
827.6662, 2236.779
828.1483, 2235.792
828.6304, 2240.764
829.1125, 2244.731
829.5947, 2247.779
830.0768, 2249.645
830.5589, 2249.697
831.0410, 2247.998
831.5231, 2246.048
832.0052, 2243.781
832.4874, 2242.919
832.9695, 2247.686
833.4516, 2254.289
833.9337, 2256.277
834.4158, 2249.951
834.8979, 2246.347
835.3801, 2252.245
835.8622, 2260.578
836.3443, 2265.336
836.8264, 2266.050
837.3085, 2263.419
837.7906, 2255.708
838.2728, 2249.607
838.7549, 2254.608
839.2370, 2266.738
839.7191, 2272.822
840.2012, 2271.184
840.6833, 2266.806
841.1655, 2260.839
841.6476, 2255.391
842.1297, 2252.417
842.6118, 2252.804
843.0939, 2253.478
843.5760, 2254.546
844.0582, 2255.509
844.5403, 2256.149
845.0224, 2256.502
845.5045, 2255.984
845.9866, 2254.547
846.4688, 2253.671
846.9509, 2255.523
847.4330, 2258.107
847.9151, 2258.184
848.3972, 2255.613
848.8793, 2254.494
849.3615, 2257.659
849.8436, 2261.524
850.3257, 2264.498
850.8078, 2266.552
851.2899, 2267.521
851.7720, 2267.375
852.2542, 2266.114
852.7363, 2262.136
853.2184, 2257.461
853.7005, 2257.851
854.1826, 2262.816
854.6647, 2269.328
855.1469, 2279.137
855.6290, 2286.694
856.1111, 2287.178
856.5932, 2281.406
857.0753, 2277.392
857.5574, 2276.214
858.0396, 2275.692
858.5217, 2275.534
859.0038, 2275.379
859.4859, 2273.611
859.9680, 2270.403
860.4501, 2267.658
860.9323, 2265.788
861.4144, 2265.187
861.8965, 2266.616
862.3786, 2269.572
862.8607, 2272.915
863.3428, 2278.410
863.8250, 2281.461
864.3071, 2280.465
864.7892, 2277.013
865.2713, 2274.090
865.7534, 2271.688
866.2355, 2269.664
866.7177, 2267.806
867.1998, 2266.729
867.6819, 2268.495
868.1640, 2271.472
868.6461, 2272.251
869.1282, 2268.358
869.6104, 2264.794
870.0925, 2263.437
870.5746, 2263.485
871.0567, 2263.852
871.5388, 2264.531
872.0209, 2265.691
872.5031, 2267.575
872.9852, 2269.307
873.4673, 2269.648
873.9494, 2269.017
874.4315, 2268.602
874.9136, 2268.565
875.3958, 2268.839
875.8779, 2269.571
876.3600, 2270.459
876.8421, 2271.164
877.3242, 2271.391
877.8063, 2272.384
878.2885, 2274.404
878.7706, 2276.668
879.2527, 2278.628
879.7348, 2280.292
880.2169, 2282.276
880.6990, 2284.530
881.1812, 2285.750
881.6633, 2283.679
882.1454, 2281.081
882.6275, 2280.399
883.1096, 2281.715
883.5917, 2283.589
884.0739, 2287.089
884.5560, 2289.338
885.0381, 2288.724
885.5202, 2286.110
886.0023, 2287.282
886.4844, 2292.164
886.9666, 2294.044
887.4487, 2286.812
887.9308, 2277.632
888.4129, 2275.505
888.8950, 2278.447
889.3771, 2281.277
889.8593, 2281.945
890.3414, 2282.605
890.8235, 2283.423
891.3056, 2284.737
891.7877, 2288.118
892.2698, 2294.235
892.7520, 2295.909
893.2341, 2290.651
893.7162, 2283.116
894.1983, 2278.710
894.6804, 2276.836
895.1625, 2276.137
895.6447, 2275.816
896.1268, 2277.649
896.6089, 2285.367
897.0910, 2293.527
897.5731, 2296.934
898.0552, 2294.126
898.5374, 2291.464
899.0195, 2288.880
899.5016, 2287.056
899.9837, 2287.149
900.4658, 2288.319
900.9479, 2288.696
901.4301, 2288.087
901.9122, 2287.650
902.3943, 2288.215
902.8764, 2288.983
903.3585, 2289.365
903.8406, 2289.339
904.3228, 2289.573
904.8049, 2289.833
905.2870, 2291.207
905.7691, 2295.428
906.2512, 2300.704
906.7333, 2301.787
907.2155, 2299.398
907.6976, 2296.754
908.1797, 2294.996
908.6618, 2294.044
909.1439, 2294.351
909.6260, 2295.481
910.1082, 2295.916
910.5903, 2294.948
911.0724, 2295.129
911.5545, 2297.355
912.0366, 2300.354
912.5187, 2301.439
913.0009, 2301.258
913.4830, 2302.381
913.9651, 2306.467
914.4472, 2309.484
914.9293, 2306.349
915.4114, 2301.856
915.8936, 2301.935
916.3757, 2312.023
916.8578, 2315.548
917.3399, 2309.775
917.8220, 2303.111
918.3041, 2304.675
918.7863, 2312.187
919.2684, 2316.356
919.7505, 2316.588
920.2326, 2314.802
920.7147, 2309.881
921.1968, 2305.402
921.6790, 2304.712
922.1611, 2308.253
922.6432, 2309.652
923.1253, 2308.280
923.6074, 2305.723
924.0895, 2301.990
924.5717, 2297.832
925.0538, 2295.675
925.5359, 2295.495
926.0180, 2297.325
926.5001, 2304.074
926.9822, 2310.015
927.4644, 2310.841
927.9465, 2308.292
928.4286, 2306.227
928.9107, 2305.433
929.3928, 2304.179
929.8749, 2301.708
930.3571, 2299.625
930.8392, 2300.794
931.3213, 2304.522
931.8034, 2307.910
932.2855, 2310.443
932.7676, 2312.277
933.2498, 2313.150
933.7319, 2313.581
934.2140, 2314.146
934.6961, 2315.193
935.1782, 2314.697
935.6603, 2310.833
936.1425, 2309.233
936.6246, 2316.057
937.1067, 2328.472
937.5888, 2333.427
938.0709, 2331.567
938.5530, 2328.111
939.0352, 2325.641
939.5173, 2323.209
939.9994, 2319.242
940.4815, 2314.607
940.9636, 2313.489
941.4457, 2316.909
941.9279, 2322.038
942.4100, 2329.791
942.8921, 2336.517
943.3742, 2332.909
943.8563, 2321.928
944.3384, 2313.161
944.8206, 2309.352
945.3027, 2308.700
945.7848, 2312.170
946.2669, 2317.207
946.7490, 2320.879
947.2311, 2322.369
947.7133, 2324.326
948.1954, 2326.908
948.6775, 2329.484
949.1596, 2331.660
949.6417, 2333.381
950.1238, 2334.709
950.6060, 2335.604
951.0881, 2335.240
951.5702, 2332.415
952.0523, 2328.921
952.5344, 2324.895
953.0165, 2320.808
953.4987, 2319.811
953.9808, 2322.497
954.4629, 2325.723
954.9450, 2328.431
955.4271, 2330.928
955.9092, 2334.240
956.3914, 2337.720
956.8735, 2339.807
957.3556, 2339.013
957.8376, 2338.041
958.3198, 2338.590
958.8019, 2338.921
959.2840, 2336.499
959.7661, 2330.207
960.2482, 2328.309
960.7303, 2332.039
961.2125, 2335.832
961.6946, 2333.325
962.1767, 2327.993
962.6588, 2324.382
963.1409, 2322.994
963.6230, 2323.515
964.1052, 2328.011
964.5873, 2332.155
965.0694, 2334.209
965.5515, 2334.500
966.0336, 2334.794
966.5157, 2335.089
966.9979, 2335.244
967.4800, 2334.938
967.9621, 2334.797
968.4442, 2335.933
968.9263, 2337.668
969.4084, 2338.748
969.8906, 2336.037
970.3727, 2337.075
970.8548, 2345.344
971.3369, 2353.815
971.8190, 2353.675
972.3011, 2345.828
972.7833, 2338.325
973.2654, 2331.774
973.7475, 2328.585
974.2296, 2333.923
974.7117, 2341.003
975.1938, 2343.660
975.6760, 2341.184
976.1581, 2340.687
976.6402, 2343.219
977.1223, 2346.235
977.6044, 2349.154
978.0865, 2351.563
978.5687, 2351.520
979.0508, 2349.744
979.5329, 2348.933
980.0150, 2351.031
980.4971, 2353.354
980.9792, 2354.362
981.4614, 2354.824
981.9435, 2355.784
982.4256, 2357.262
982.9077, 2359.455
983.3898, 2362.543
983.8719, 2365.752
984.3541, 2367.196
984.8362, 2368.555
985.3183, 2374.012
985.8004, 2383.709
986.2825, 2391.631
986.7646, 2394.205
987.2468, 2395.083
987.7289, 2395.795
988.2110, 2396.214
988.6931, 2394.693
989.1752, 2390.969
989.6573, 2391.975
990.1395, 2403.108
990.6216, 2415.391
991.1037, 2417.100
991.5858, 2412.947
992.0679, 2410.660
992.5500, 2415.333
993.0322, 2417.078
993.5143, 2413.632
993.9964, 2409.545
994.4785, 2408.756
994.9606, 2411.128
995.4427, 2416.018
995.9249, 2423.304
996.4070, 2430.872
996.8891, 2437.938
997.3712, 2443.947
997.8533, 2448.251
998.3354, 2450.836
998.8176, 2452.612
999.2997, 2452.508
999.7818, 2454.437
1000.264, 2459.782
1000.746, 2466.912
1001.228, 2473.957
1001.710, 2480.206
1002.192, 2483.444
1002.674, 2481.432
1003.157, 2480.642
1003.639, 2485.373
1004.121, 2491.363
1004.603, 2494.938
1005.085, 2495.633
1005.567, 2499.062
1006.049, 2505.574
1006.531, 2511.415
1007.014, 2513.668
1007.496, 2514.120
1007.978, 2513.482
1008.460, 2512.727
1008.942, 2515.245
1009.424, 2525.434
1009.906, 2534.510
1010.388, 2541.209
1010.870, 2546.080
1011.353, 2549.817
1011.835, 2552.521
1012.317, 2554.403
1012.799, 2555.314
1013.281, 2556.403
1013.763, 2559.865
1014.245, 2562.897
1014.727, 2562.310
1015.210, 2557.495
1015.692, 2555.417
1016.174, 2556.604
1016.656, 2558.670
1017.138, 2560.596
1017.620, 2562.530
1018.102, 2564.911
1018.584, 2567.512
1019.066, 2569.721
1019.549, 2571.696
1020.031, 2572.692
1020.513, 2571.694
1020.995, 2570.296
1021.477, 2570.556
1021.959, 2572.469
1022.441, 2573.428
1022.923, 2573.216
1023.406, 2571.818
1023.888, 2566.873
1024.370, 2562.448
1024.852, 2563.223
1025.334, 2569.157
1025.816, 2573.151
1026.298, 2574.523
1026.780, 2574.466
1027.262, 2573.104
1027.745, 2570.878
1028.227, 2567.315
1028.709, 2563.707
1029.191, 2564.227
1029.673, 2572.837
1030.155, 2578.837
1030.637, 2574.960
1031.119, 2568.359
1031.602, 2564.950
1032.084, 2565.180
1032.566, 2563.591
1033.048, 2560.031
1033.530, 2557.405
1034.012, 2558.899
1034.494, 2561.462
1034.976, 2561.594
1035.458, 2560.026
1035.941, 2559.253
1036.423, 2559.288
1036.905, 2561.428
1037.387, 2567.035
1037.869, 2572.823
1038.351, 2572.783
1038.833, 2568.917
1039.315, 2568.164
1039.797, 2571.646
1040.280, 2575.590
1040.762, 2578.634
1041.244, 2580.547
1041.726, 2580.558
1042.208, 2579.063
1042.690, 2579.717
1043.172, 2582.704
1043.654, 2585.076
1044.137, 2585.164
1044.619, 2585.033
1045.101, 2588.409
1045.583, 2592.911
1046.065, 2594.515
1046.547, 2587.808
1047.029, 2587.576
1047.511, 2597.989
1047.994, 2608.374
1048.476, 2608.283
1048.958, 2601.026
1049.440, 2599.568
1049.922, 2603.632
1050.404, 2609.688
1050.886, 2618.544
1051.368, 2625.934
1051.850, 2627.989
1052.333, 2627.779
1052.815, 2631.602
1053.297, 2640.061
1053.779, 2645.704
1054.261, 2646.647
1054.743, 2648.841
1055.225, 2660.972
1055.707, 2676.187
1056.189, 2686.498
1056.672, 2690.527
1057.154, 2696.611
1057.636, 2706.255
1058.118, 2715.980
1058.600, 2723.813
1059.082, 2731.486
1059.564, 2743.780
1060.046, 2759.440
1060.529, 2774.975
1061.011, 2787.694
1061.493, 2803.023
1061.975, 2821.109
1062.457, 2844.307
1062.939, 2873.352
1063.421, 2907.538
1063.903, 2954.877
1064.385, 3015.626
1064.868, 3086.930
1065.350, 3168.070
1065.832, 3258.691
1066.314, 3377.053
1066.796, 3503.599
1067.278, 3587.686
1067.760, 3633.807
1068.242, 3616.401
1068.724, 3517.053
1069.207, 3398.968
1069.689, 3326.557
1070.171, 3295.609
1070.653, 3295.728
1071.135, 3325.649
1071.617, 3396.385
1072.099, 3492.139
1072.581, 3654.430
1073.064, 3877.528
1073.546, 4186.133
1074.028, 4667.559
1074.510, 5310.165
1074.992, 6123.012
1075.474, 7166.475
1075.956, 8181.612
1076.438, 8998.048
1076.921, 9676.962
1077.403, 10238.03
1077.885, 10670.41
1078.367, 11165.85
1078.849, 11717.23
1079.331, 12385.58
1079.813, 13169.63
1080.295, 14111.55
1080.777, 15163.58
1081.260, 16443.33
1081.742, 18193.08
1082.224, 20056.80
1082.706, 23123.80
1083.188, 27366.26
1083.670, 32937.98
1084.152, 40054.85
1084.634, 48676.58
1085.116, 58997.06
1085.599, 70859.92
1086.081, 83436.82
1086.563, 103491.5
1087.045, 115792.7
1087.527, 114009.7
1088.009, 101614.7
1088.491, 83063.11
1088.973, 58783.21
1089.455, 39360.38
1089.938, 26804.40
1090.420, 18360.67
1090.902, 13276.83
1091.384, 10137.29
1091.866, 8036.317
1092.348, 6875.456
1092.830, 5982.578
1093.312, 5376.495
1093.795, 4914.346
1094.277, 4563.370
1094.759, 4290.653
1095.241, 4065.471
1095.723, 3880.233
1096.205, 3723.399
1096.687, 3601.590
1097.169, 3491.676
1097.651, 3391.300
1098.134, 3304.303
1098.616, 3236.663
1099.098, 3184.111
1099.580, 3131.847
1100.062, 3081.821
1100.544, 3038.212
1101.026, 3008.342
1101.508, 2978.665
1101.990, 2943.047
1102.473, 2907.534
1102.955, 2880.366
1103.437, 2861.316
1103.919, 2838.110
1104.401, 2810.126
1104.883, 2784.847
1105.365, 2769.386
1105.847, 2756.569
1106.330, 2739.951
1106.812, 2729.886
1107.294, 2711.182
1107.776, 2709.949
1108.258, 2706.393
1108.740, 2698.151
1109.222, 2687.783
1109.704, 2676.518
1110.187, 2665.549
1110.669, 2656.522
1111.151, 2649.836
1111.633, 2641.319
1112.115, 2628.533
1112.597, 2619.909
1113.079, 2619.948
1113.561, 2623.262
1114.043, 2619.786
1114.526, 2611.679
1115.008, 2603.247
1115.490, 2594.630
1115.972, 2588.566
1116.454, 2588.027
1116.936, 2586.919
1117.418, 2581.362
1117.900, 2572.445
1118.382, 2564.572
1118.865, 2558.040
1119.347, 2553.744
1119.829, 2553.565
1120.311, 2553.907
1120.793, 2554.292
1121.275, 2553.698
1121.757, 2550.673
1122.239, 2545.050
1122.722, 2540.871
1123.204, 2538.193
1123.686, 2535.805
1124.168, 2532.181
1124.650, 2529.185
1125.132, 2529.513
1125.614, 2531.240
1126.096, 2528.949
1126.578, 2521.058
1127.061, 2516.793
1127.543, 2517.411
1128.025, 2519.711
1128.507, 2522.237
1128.989, 2523.585
1129.471, 2521.103
1129.953, 2515.242
1130.435, 2511.875
1130.917, 2512.256
1131.400, 2513.129
1131.882, 2514.401
1132.364, 2514.414
1132.846, 2509.027
1133.328, 2501.375
1133.810, 2496.266
1134.292, 2494.474
1134.774, 2495.454
1135.257, 2501.444
1135.739, 2506.276
1136.221, 2507.761
1136.703, 2506.604
1137.185, 2503.717
1137.667, 2499.693
1138.149, 2496.164
1138.631, 2493.398
1139.114, 2491.575
1139.596, 2492.021
1140.078, 2492.157
1140.560, 2490.348
1141.042, 2486.985
1141.524, 2484.109
1142.006, 2481.760
1142.488, 2480.072
1142.970, 2479.477
1143.453, 2479.044
1143.935, 2478.960
1144.417, 2478.350
1144.899, 2476.377
1145.381, 2472.970
1145.863, 2468.093
1146.345, 2461.915
1146.827, 2459.090
1147.309, 2466.060
1147.792, 2474.080
1148.274, 2477.511
1148.756, 2477.281
1149.238, 2475.297
1149.720, 2471.050
1150.202, 2467.691
1150.684, 2465.323
1151.166, 2464.473
1151.649, 2467.308
1152.131, 2470.466
1152.613, 2470.265
1153.095, 2467.524
1153.577, 2465.971
1154.059, 2466.057
1154.541, 2466.847
1155.023, 2468.681
1155.505, 2469.176
1155.988, 2462.721
1156.470, 2455.191
1156.952, 2455.942
1157.434, 2464.818
1157.916, 2467.550
1158.398, 2458.826
1158.880, 2454.360
1159.362, 2459.007
1159.844, 2466.286
1160.327, 2465.831
1160.809, 2461.728
1161.291, 2461.515
1161.773, 2466.779
1162.255, 2468.967
1162.737, 2464.267
1163.219, 2460.435
1163.701, 2460.225
1164.184, 2462.025
1164.666, 2462.557
1165.148, 2462.452
1165.630, 2463.404
1166.112, 2466.322
1166.594, 2468.071
1167.076, 2467.087
1167.558, 2465.885
1168.041, 2465.920
1168.523, 2466.343
1169.005, 2462.843
1169.487, 2457.327
1169.969, 2456.437
1170.451, 2465.422
1170.933, 2471.785
1171.415, 2468.834
1171.897, 2464.352
1172.380, 2462.449
1172.862, 2462.896
1173.344, 2465.066
1173.826, 2468.462
1174.308, 2470.989
1174.790, 2472.454
1175.272, 2471.759
1175.754, 2464.967
1176.236, 2458.752
1176.719, 2459.696
1177.201, 2467.364
1177.683, 2469.845
1178.165, 2467.707
1178.647, 2465.543
1179.129, 2466.719
1179.611, 2467.615
1180.093, 2465.805
1180.576, 2466.046
1181.058, 2462.441
1181.540, 2463.355
1182.022, 2462.238
1182.504, 2459.119
1182.986, 2457.506
1183.468, 2461.720
1183.950, 2465.986
1184.432, 2466.376
1184.915, 2464.906
1185.397, 2464.847
1185.879, 2466.273
1186.361, 2467.762
1186.843, 2469.225
1187.325, 2469.810
1187.807, 2467.896
1188.289, 2465.850
1188.771, 2465.110
1189.254, 2465.532
1189.736, 2467.596
1190.218, 2471.604
1190.700, 2470.166
1191.182, 2461.845
1191.664, 2454.666
1192.146, 2458.816
1192.628, 2463.688
1193.111, 2458.390
1193.593, 2447.137
1194.075, 2446.487
1194.557, 2457.509
1195.039, 2465.151
1195.521, 2466.512
1196.003, 2465.516
1196.485, 2464.420
1196.968, 2463.504
1197.450, 2462.373
1197.932, 2461.487
1198.414, 2464.171
1198.896, 2470.920
1199.378, 2474.834
1199.860, 2473.766
1200.342, 2471.636
1200.824, 2473.654
1201.307, 2475.152
1201.789, 2469.718
1202.271, 2458.365
1202.753, 2455.342
1203.235, 2461.368
1203.717, 2466.249
1204.199, 2466.751
1204.681, 2466.131
1205.163, 2467.937
1205.646, 2469.969
1206.128, 2468.812
1206.610, 2464.611
1207.092, 2466.974
1207.574, 2476.633
1208.056, 2481.869
1208.538, 2477.263
1209.020, 2470.328
1209.503, 2467.945
1209.985, 2467.510
1210.467, 2466.365
1210.949, 2464.336
1211.431, 2462.058
1211.913, 2459.363
1212.395, 2459.150
1212.877, 2463.687
1213.359, 2468.747
1213.842, 2470.071
1214.324, 2469.890
1214.806, 2471.478
1215.288, 2475.323
1215.770, 2473.695
1216.252, 2466.359
1216.734, 2460.641
1217.216, 2460.828
1217.698, 2462.379
1218.181, 2461.138
1218.663, 2459.103
1219.145, 2458.713
1219.627, 2460.121
1220.109, 2461.622
1220.591, 2463.191
1221.073, 2464.595
1221.555, 2466.335
1222.038, 2466.850
1222.520, 2463.259
1223.002, 2458.686
1223.484, 2457.064
1223.966, 2458.760
1224.448, 2459.902
1224.930, 2460.519
1225.412, 2461.687
1225.895, 2464.951
1226.377, 2467.819
1226.859, 2467.238
1227.341, 2466.188
1227.823, 2469.156
1228.305, 2477.025
1228.787, 2477.170
1229.269, 2470.005
1229.751, 2463.473
1230.234, 2463.353
1230.716, 2463.839
1231.198, 2460.655
1231.680, 2456.639
1232.162, 2455.085
1232.644, 2456.068
1233.126, 2457.489
1233.608, 2459.338
1234.090, 2461.733
1234.573, 2467.191
1235.055, 2470.390
1235.537, 2466.191
1236.019, 2460.033
1236.501, 2457.403
1236.983, 2458.234
1237.465, 2459.104
1237.947, 2460.134
1238.430, 2462.523
1238.912, 2469.324
1239.394, 2474.735
1239.876, 2475.997
1240.358, 2474.915
1240.840, 2472.298
1241.322, 2468.490
1241.804, 2466.240
1242.286, 2465.472
1242.769, 2465.356
1243.251, 2467.420
1243.733, 2467.317
1244.215, 2462.896
1244.697, 2457.037
1245.179, 2450.855
1245.661, 2445.535
1246.143, 2448.271
1246.625, 2457.521
1247.108, 2464.405
1247.590, 2462.179
1248.072, 2461.101
1248.554, 2463.190
1249.036, 2466.795
1249.518, 2471.120
1250.000, 2475.444
1250.482, 2477.579
1250.965, 2477.634
1251.447, 2476.285
1251.929, 2471.040
1252.411, 2468.968
1252.893, 2472.041
1253.375, 2475.530
1253.857, 2473.695
1254.339, 2469.572
1254.822, 2469.736
1255.304, 2473.018
1255.786, 2474.576
1256.268, 2471.265
1256.750, 2469.592
1257.232, 2470.164
1257.714, 2471.701
1258.196, 2474.555
1258.678, 2476.578
1259.161, 2472.782
1259.643, 2465.555
1260.125, 2462.835
1260.607, 2466.974
1261.089, 2471.099
1261.571, 2474.851
1262.053, 2477.964
1262.535, 2480.338
1263.017, 2481.835
1263.500, 2481.336
1263.982, 2480.052
1264.464, 2481.287
1264.946, 2486.225
1265.428, 2487.772
1265.910, 2485.381
1266.392, 2483.110
1266.874, 2485.207
1267.357, 2487.454
1267.839, 2486.519
1268.321, 2483.534
1268.803, 2480.487
1269.285, 2477.299
1269.767, 2475.885
1270.249, 2476.316
1270.731, 2477.927
1271.214, 2482.566
1271.696, 2485.740
1272.178, 2482.412
1272.660, 2478.219
1273.142, 2480.879
1273.624, 2489.207
1274.106, 2490.134
1274.588, 2484.250
1275.070, 2479.521
1275.552, 2480.707
1276.035, 2483.030
1276.517, 2485.726
1276.999, 2488.043
1277.481, 2489.405
1277.963, 2489.736
1278.445, 2487.889
1278.927, 2484.615
1279.409, 2483.218
1279.892, 2486.282
1280.374, 2489.556
1280.856, 2492.761
1281.338, 2495.463
1281.820, 2498.072
1282.302, 2499.529
1282.784, 2496.480
1283.266, 2490.607
1283.749, 2486.724
1284.231, 2486.268
1284.713, 2487.612
1285.195, 2491.285
1285.677, 2494.229
1286.159, 2492.473
1286.641, 2490.062
1287.123, 2493.582
1287.605, 2491.282
1288.088, 2490.701
1288.570, 2492.043
1289.052, 2489.493
1289.534, 2492.636
1290.016, 2495.280
1290.498, 2491.715
1290.980, 2487.814
1291.462, 2487.284
1291.944, 2489.407
1292.427, 2493.761
1292.909, 2500.656
1293.391, 2503.219
1293.873, 2501.549
1294.355, 2496.627
1294.837, 2483.827
1295.319, 2474.990
1295.801, 2479.857
1296.284, 2486.613
1296.766, 2485.902
1297.248, 2479.747
1297.730, 2478.420
1298.212, 2481.053
1298.694, 2484.871
1299.176, 2490.724
1299.658, 2493.863
1300.141, 2492.747
1300.623, 2490.908
1301.105, 2490.541
1301.587, 2491.157
1302.069, 2492.937
1302.551, 2494.403
1303.033, 2492.116
1303.515, 2481.677
1303.997, 2477.624
1304.479, 2481.443
1304.962, 2485.227
1305.444, 2486.166
##END=



