##NAMES=Calcite
##RRUFFID=R050128
##IDEAL CHEMISTRY=CaCO_3_
##LOCALITY=Tie Siding, Albany County, Wyoming, USA
##OWNER=RRUFF
##SOURCE=Dave Bunk Minerals
##DESCRIPTION=Pseudomorph after aragonite, not single crystal. Trace of aragonite still present.
##STATUS=The identification of this mineral has been confirmed by X-ray diffraction and chemical analysis
##URL=rruff.info/R050128
##MEASURED CHEMISTRY=Ca_1.00_CO_3_
93.88477, 278.0907
94.36688, 269.7516
94.84900, 271.1357
95.33112, 281.6993
95.81323, 298.8731
96.29535, 323.4118
96.77747, 353.9724
97.25958, 385.3520
97.74170, 416.9082
98.22382, 450.2664
98.70593, 487.5130
99.18805, 528.7791
99.67017, 574.3702
100.1523, 625.0283
100.6344, 680.6611
101.1165, 737.8896
101.5986, 796.2604
102.0807, 855.7601
102.5629, 913.0746
103.0450, 967.3011
103.5271, 1022.311
104.0092, 1082.110
104.4913, 1151.260
104.9734, 1214.331
105.4556, 1267.719
105.9377, 1310.328
106.4198, 1356.986
106.9019, 1408.520
107.3840, 1463.232
107.8661, 1518.026
108.3483, 1572.754
108.8304, 1628.601
109.3125, 1684.857
109.7946, 1738.620
110.2767, 1801.895
110.7588, 1878.155
111.2410, 1963.921
111.7231, 2053.424
112.2052, 2153.530
112.6873, 2252.661
113.1694, 2347.084
113.6515, 2434.706
114.1337, 2522.271
114.6158, 2614.909
115.0979, 2708.607
115.5800, 2793.204
116.0621, 2860.109
116.5442, 2920.377
117.0264, 2979.680
117.5085, 3042.892
117.9906, 3103.062
118.4727, 3156.736
118.9548, 3204.683
119.4369, 3251.833
119.9191, 3300.531
120.4012, 3350.069
120.8833, 3399.307
121.3654, 3441.080
121.8475, 3487.892
122.3296, 3550.223
122.8118, 3628.344
123.2939, 3708.786
123.7760, 3781.480
124.2581, 3850.165
124.7402, 3922.435
125.2223, 4002.489
125.7045, 4086.142
126.1866, 4167.974
126.6687, 4247.214
127.1508, 4327.300
127.6329, 4406.294
128.1150, 4487.024
128.5972, 4581.806
129.0793, 4702.988
129.5614, 4841.605
130.0435, 4975.882
130.5256, 5099.557
131.0077, 5227.994
131.4899, 5385.940
131.9720, 5572.106
132.4541, 5767.440
132.9362, 5933.008
133.4183, 6067.138
133.9004, 6217.656
134.3826, 6392.477
134.8647, 6581.944
135.3468, 6761.001
135.8289, 6930.768
136.3110, 7093.112
136.7931, 7248.824
137.2753, 7397.247
137.7574, 7542.891
138.2395, 7686.380
138.7216, 7827.779
139.2037, 7972.398
139.6858, 8116.989
140.1680, 8272.769
140.6501, 8452.643
141.1322, 8659.520
141.6143, 8884.080
142.0964, 9138.229
142.5785, 9425.438
143.0607, 9670.563
143.5428, 9885.637
144.0249, 10050.16
144.5070, 10128.19
144.9891, 10066.46
145.4712, 10022.12
145.9534, 10034.96
146.4355, 10105.79
146.9176, 10225.71
147.3997, 10388.41
147.8818, 10601.65
148.3639, 10887.09
148.8461, 11279.04
149.3282, 11701.25
149.8103, 12122.03
150.2924, 12531.64
150.7745, 12962.92
151.2566, 13448.99
151.7388, 13958.94
152.2209, 14397.11
152.7030, 14841.23
153.1851, 15156.59
153.6672, 15291.58
154.1493, 15254.40
154.6315, 15026.11
155.1136, 14551.40
155.5957, 13872.19
156.0778, 13139.24
156.5599, 12282.26
157.0420, 11427.87
157.5242, 10638.45
158.0063, 9916.521
158.4884, 9280.298
158.9705, 8729.807
159.4526, 8265.534
159.9347, 7875.047
160.4169, 7576.569
160.8990, 7338.145
161.3811, 7136.638
161.8632, 6989.626
162.3453, 6856.125
162.8274, 6724.607
163.3096, 6594.923
163.7917, 6468.563
164.2738, 6343.006
164.7559, 6222.208
165.2380, 6110.072
165.7201, 6003.584
166.2023, 5909.604
166.6844, 5831.824
167.1665, 5770.298
167.6486, 5718.837
168.1307, 5673.960
168.6128, 5637.134
169.0950, 5610.284
169.5771, 5599.318
170.0592, 5595.231
170.5413, 5590.908
171.0234, 5585.637
171.5055, 5584.162
171.9877, 5589.792
172.4698, 5601.463
172.9519, 5617.294
173.4340, 5632.922
173.9161, 5654.046
174.3982, 5688.771
174.8804, 5739.385
175.3625, 5793.456
175.8446, 5836.150
176.3267, 5872.999
176.8088, 5917.054
177.2909, 5978.712
177.7731, 6050.591
178.2552, 6123.563
178.7373, 6198.114
179.2194, 6270.661
179.7015, 6345.612
180.1836, 6418.975
180.6658, 6473.952
181.1479, 6503.021
181.6300, 6507.406
182.1121, 6485.440
182.5942, 6432.013
183.0763, 6366.021
183.5585, 6303.975
184.0406, 6247.010
184.5227, 6204.632
185.0048, 6180.581
185.4869, 6175.222
185.9690, 6189.415
186.4511, 6223.837
186.9333, 6276.857
187.4154, 6348.640
187.8975, 6439.260
188.3796, 6539.097
188.8617, 6651.326
189.3438, 6770.875
189.8260, 6876.505
190.3081, 6968.480
190.7902, 7042.163
191.2723, 7089.667
191.7544, 7111.118
192.2365, 7107.053
192.7187, 7069.926
193.2008, 7002.712
193.6829, 6933.082
194.1650, 6862.593
194.6471, 6794.028
195.1292, 6734.014
195.6114, 6682.084
196.0935, 6640.877
196.5756, 6612.444
197.0577, 6596.724
197.5398, 6595.189
198.0219, 6609.648
198.5041, 6637.802
198.9862, 6668.452
199.4683, 6699.794
199.9504, 6741.921
200.4325, 6804.501
200.9146, 6887.646
201.3968, 6980.478
201.8789, 7078.466
202.3610, 7183.979
202.8431, 7308.775
203.3252, 7451.427
203.8073, 7613.717
204.2895, 7804.499
204.7716, 8029.242
205.2537, 8245.951
205.7358, 8455.201
206.2179, 8651.693
206.7000, 8803.803
207.1822, 8919.197
207.6643, 8969.861
208.1464, 8918.708
208.6285, 8751.085
209.1106, 8548.646
209.5927, 8312.491
210.0749, 8048.552
210.5570, 7827.035
211.0391, 7650.724
211.5212, 7514.645
212.0033, 7416.601
212.4854, 7362.034
212.9676, 7326.479
213.4497, 7310.625
213.9318, 7313.085
214.4139, 7305.877
214.8960, 7292.833
215.3781, 7263.968
215.8603, 7208.327
216.3424, 7123.754
216.8245, 7019.864
217.3066, 6894.093
217.7887, 6746.151
218.2708, 6602.820
218.7530, 6461.364
219.2351, 6325.695
219.7172, 6203.066
220.1993, 6092.959
220.6814, 5992.818
221.1635, 5903.331
221.6457, 5823.771
222.1278, 5753.315
222.6099, 5691.883
223.0920, 5638.420
223.5741, 5593.876
224.0562, 5560.067
224.5384, 5529.321
225.0205, 5499.265
225.5026, 5470.033
225.9847, 5446.795
226.4668, 5432.809
226.9489, 5421.423
227.4311, 5406.285
227.9132, 5386.072
228.3953, 5364.171
228.8774, 5339.541
229.3595, 5311.688
229.8416, 5292.122
230.3238, 5283.204
230.8059, 5279.967
231.2880, 5278.014
231.7701, 5278.903
232.2522, 5277.833
232.7343, 5272.076
233.2165, 5261.173
233.6986, 5258.557
234.1807, 5268.361
234.6628, 5282.144
235.1449, 5291.363
235.6270, 5293.325
236.1092, 5295.665
236.5913, 5299.581
237.0734, 5305.032
237.5555, 5311.670
238.0376, 5319.470
238.5197, 5328.396
239.0019, 5338.392
239.4840, 5349.838
239.9661, 5361.513
240.4482, 5372.237
240.9303, 5382.063
241.4124, 5398.074
241.8946, 5425.412
242.3767, 5453.501
242.8588, 5471.713
243.3409, 5472.637
243.8230, 5478.029
244.3051, 5492.210
244.7873, 5514.931
245.2694, 5537.856
245.7515, 5562.662
246.2336, 5585.786
246.7157, 5604.052
247.1978, 5615.476
247.6800, 5626.160
248.1621, 5637.358
248.6442, 5648.966
249.1263, 5657.717
249.6084, 5663.591
250.0905, 5666.903
250.5726, 5666.996
251.0548, 5660.069
251.5369, 5658.521
252.0190, 5666.552
252.5011, 5682.580
252.9832, 5690.859
253.4653, 5685.617
253.9475, 5680.517
254.4296, 5685.362
254.9117, 5703.297
255.3938, 5724.068
255.8759, 5747.168
256.3581, 5772.302
256.8402, 5796.580
257.3223, 5819.078
257.8044, 5842.213
258.2865, 5868.342
258.7686, 5899.658
259.2508, 5927.089
259.7329, 5947.625
260.2150, 5963.624
260.6971, 5987.346
261.1792, 6021.927
261.6613, 6058.390
262.1435, 6092.606
262.6256, 6125.972
263.1077, 6151.190
263.5898, 6162.743
264.0719, 6167.314
264.5540, 6187.042
265.0362, 6227.244
265.5183, 6271.629
266.0004, 6311.436
266.4825, 6343.716
266.9646, 6380.570
267.4467, 6421.216
267.9289, 6467.311
268.4110, 6522.504
268.8931, 6590.854
269.3752, 6659.463
269.8573, 6721.513
270.3394, 6775.993
270.8216, 6831.999
271.3037, 6891.952
271.7858, 6951.518
272.2679, 6998.783
272.7500, 7031.874
273.2321, 7060.380
273.7143, 7089.142
274.1964, 7119.095
274.6785, 7140.317
275.1606, 7150.265
275.6427, 7155.063
276.1248, 7165.024
276.6070, 7181.202
277.0891, 7197.492
277.5712, 7208.431
278.0533, 7213.808
278.5354, 7235.798
279.0175, 7278.432
279.4996, 7328.775
279.9818, 7371.120
280.4639, 7405.530
280.9460, 7427.621
281.4281, 7435.370
281.9102, 7429.086
282.3923, 7412.657
282.8745, 7386.497
283.3566, 7348.737
283.8387, 7296.250
284.3208, 7228.612
284.8029, 7151.699
285.2850, 7065.331
285.7672, 6970.756
286.2493, 6871.046
286.7314, 6765.001
287.2135, 6661.186
287.6956, 6568.948
288.1777, 6487.372
288.6599, 6407.945
289.1420, 6325.994
289.6241, 6245.462
290.1062, 6178.920
290.5883, 6126.688
291.0704, 6080.370
291.5526, 6030.905
292.0347, 5979.711
292.5168, 5936.942
292.9989, 5905.841
293.4810, 5881.996
293.9631, 5855.772
294.4453, 5827.331
294.9274, 5801.571
295.4095, 5783.288
295.8916, 5770.708
296.3737, 5759.170
296.8558, 5748.610
297.3380, 5737.490
297.8201, 5722.567
298.3022, 5704.359
298.7843, 5686.768
299.2664, 5670.775
299.7485, 5657.087
300.2307, 5648.619
300.7128, 5646.684
301.1949, 5646.069
301.6770, 5640.210
302.1591, 5630.574
302.6412, 5621.946
303.1234, 5619.015
303.6055, 5617.907
304.0876, 5611.628
304.5697, 5599.137
305.0518, 5587.439
305.5339, 5583.999
306.0161, 5586.150
306.4982, 5588.446
306.9803, 5588.293
307.4624, 5587.054
307.9445, 5585.485
308.4266, 5583.525
308.9088, 5582.778
309.3909, 5584.539
309.8730, 5588.114
310.3551, 5592.522
310.8372, 5600.680
311.3193, 5607.082
311.8015, 5606.523
312.2836, 5599.650
312.7657, 5592.331
313.2478, 5586.103
313.7299, 5581.931
314.2120, 5580.813
314.6942, 5584.424
315.1763, 5589.626
315.6584, 5596.456
316.1405, 5604.091
316.6226, 5608.946
317.1047, 5605.408
317.5869, 5601.064
318.0690, 5601.563
318.5511, 5610.526
319.0332, 5619.694
319.5153, 5627.523
319.9974, 5633.330
320.4796, 5635.517
320.9617, 5631.458
321.4438, 5625.315
321.9259, 5618.674
322.4080, 5611.174
322.8901, 5604.840
323.3723, 5599.680
323.8544, 5596.104
324.3365, 5594.682
324.8186, 5597.729
325.3007, 5601.044
325.7828, 5603.670
326.2650, 5605.665
326.7471, 5606.706
327.2292, 5606.707
327.7113, 5605.877
328.1934, 5604.400
328.6755, 5595.447
329.1577, 5593.384
329.6398, 5605.028
330.1219, 5630.288
330.6040, 5643.960
331.0861, 5635.185
331.5682, 5623.107
332.0504, 5620.521
332.5325, 5635.814
333.0146, 5647.006
333.4967, 5651.237
333.9788, 5649.879
334.4609, 5649.475
334.9431, 5650.964
335.4252, 5652.060
335.9073, 5651.614
336.3894, 5649.354
336.8715, 5646.243
337.3536, 5641.257
337.8358, 5636.277
338.3179, 5636.228
338.8000, 5643.977
339.2821, 5649.145
339.7642, 5645.229
340.2463, 5630.532
340.7285, 5627.291
341.2106, 5638.397
341.6927, 5655.784
342.1748, 5669.390
342.6569, 5679.129
343.1390, 5686.046
343.6212, 5689.725
344.1033, 5690.543
344.5854, 5690.089
345.0675, 5687.638
345.5496, 5687.005
346.0317, 5694.679
346.5139, 5709.485
346.9960, 5717.173
347.4781, 5711.694
347.9602, 5700.179
348.4423, 5700.598
348.9244, 5712.560
349.4066, 5723.504
349.8887, 5722.155
350.3708, 5712.817
350.8529, 5707.924
351.3350, 5709.751
351.8171, 5715.186
352.2993, 5722.700
352.7814, 5731.141
353.2635, 5736.115
353.7456, 5731.497
354.2277, 5723.458
354.7098, 5720.908
355.1920, 5724.584
355.6741, 5730.991
356.1562, 5739.556
356.6383, 5748.301
357.1204, 5753.960
357.6025, 5749.972
358.0847, 5745.876
358.5668, 5751.659
359.0489, 5766.364
359.5310, 5777.965
360.0131, 5775.019
360.4952, 5767.276
360.9774, 5765.055
361.4595, 5778.289
361.9416, 5788.553
362.4237, 5785.415
362.9058, 5772.185
363.3879, 5759.226
363.8701, 5746.464
364.3522, 5737.901
364.8343, 5736.888
365.3164, 5747.405
365.7985, 5757.042
366.2806, 5764.689
366.7628, 5769.495
367.2449, 5770.003
367.7270, 5758.950
368.2091, 5750.405
368.6912, 5749.439
369.1733, 5757.821
369.6555, 5765.165
370.1376, 5771.979
370.6197, 5777.133
371.1018, 5779.530
371.5839, 5775.493
372.0660, 5773.750
372.5482, 5776.515
373.0303, 5782.893
373.5124, 5786.301
373.9945, 5783.979
374.4766, 5782.137
374.9587, 5785.247
375.4409, 5796.826
375.9230, 5802.818
376.4051, 5801.091
376.8872, 5794.685
377.3693, 5789.226
377.8514, 5783.809
378.3336, 5782.940
378.8157, 5790.757
379.2978, 5807.599
379.7799, 5818.430
380.2620, 5822.483
380.7441, 5823.256
381.2263, 5824.759
381.7084, 5826.949
382.1905, 5828.609
382.6726, 5829.175
383.1547, 5828.950
383.6368, 5827.832
384.1190, 5825.691
384.6011, 5825.748
385.0832, 5832.468
385.5653, 5843.413
386.0474, 5852.040
386.5295, 5856.881
387.0117, 5859.288
387.4938, 5859.966
387.9759, 5859.411
388.4580, 5859.471
388.9401, 5861.206
389.4222, 5864.149
389.9044, 5867.284
390.3865, 5870.398
390.8686, 5875.762
391.3507, 5889.219
391.8328, 5905.179
392.3149, 5915.308
392.7971, 5911.593
393.2792, 5905.144
393.7613, 5901.379
394.2434, 5900.199
394.7255, 5900.439
395.2076, 5904.322
395.6898, 5907.803
396.1719, 5907.587
396.6540, 5899.140
397.1361, 5892.980
397.6182, 5892.067
398.1003, 5895.165
398.5825, 5899.483
399.0646, 5907.019
399.5467, 5913.436
400.0288, 5916.817
400.5109, 5915.843
400.9930, 5915.971
401.4752, 5917.438
401.9573, 5919.890
402.4394, 5923.220
402.9215, 5929.516
403.4036, 5933.299
403.8857, 5932.831
404.3678, 5928.770
404.8499, 5926.808
405.3321, 5927.685
405.8142, 5929.468
406.2963, 5930.801
406.7784, 5931.417
407.2605, 5933.237
407.7426, 5936.364
408.2248, 5940.723
408.7069, 5947.358
409.1890, 5956.513
409.6711, 5962.893
410.1532, 5962.720
410.6353, 5957.316
411.1175, 5954.534
411.5996, 5954.567
412.0817, 5955.363
412.5638, 5953.123
413.0459, 5949.495
413.5280, 5951.267
414.0102, 5963.651
414.4923, 5978.020
414.9744, 5980.550
415.4565, 5973.226
415.9386, 5966.372
416.4207, 5966.889
416.9029, 5971.563
417.3850, 5976.741
417.8671, 5982.210
418.3492, 5987.385
418.8313, 5993.231
419.3134, 5998.338
419.7956, 6000.536
420.2777, 5993.017
420.7598, 5987.361
421.2419, 5991.397
421.7240, 6004.700
422.2061, 6016.128
422.6883, 6021.412
423.1704, 6023.636
423.6525, 6024.912
424.1346, 6023.354
424.6167, 6023.601
425.0988, 6027.818
425.5810, 6034.255
426.0631, 6038.620
426.5452, 6040.235
427.0273, 6040.301
427.5094, 6038.332
427.9915, 6033.193
428.4737, 6032.598
428.9558, 6039.560
429.4379, 6048.298
429.9200, 6053.206
430.4021, 6053.965
430.8842, 6052.110
431.3664, 6046.669
431.8485, 6039.245
432.3306, 6037.068
432.8127, 6041.472
433.2948, 6044.980
433.7769, 6040.542
434.2591, 6029.039
434.7412, 6025.103
435.2233, 6030.560
435.7054, 6039.759
436.1875, 6045.036
436.6696, 6047.086
437.1518, 6050.454
437.6339, 6058.348
438.1160, 6067.694
438.5981, 6073.018
439.0802, 6074.558
439.5623, 6075.233
440.0445, 6075.411
440.5266, 6076.714
441.0087, 6082.407
441.4908, 6095.866
441.9729, 6107.267
442.4550, 6109.239
442.9372, 6104.332
443.4193, 6097.444
443.9014, 6086.113
444.3835, 6077.187
444.8656, 6075.698
445.3477, 6082.221
445.8299, 6087.637
446.3120, 6088.027
446.7941, 6087.086
447.2762, 6087.671
447.7583, 6092.258
448.2404, 6095.777
448.7226, 6096.625
449.2047, 6095.964
449.6868, 6097.206
450.1689, 6100.876
450.6510, 6105.825
451.1331, 6112.190
451.6153, 6120.689
452.0974, 6126.881
452.5795, 6131.080
453.0616, 6132.603
453.5437, 6128.611
454.0258, 6117.355
454.5080, 6113.507
454.9901, 6122.444
455.4722, 6138.887
455.9543, 6148.458
456.4364, 6150.940
456.9185, 6149.287
457.4007, 6142.101
457.8828, 6131.957
458.3649, 6127.716
458.8470, 6130.412
459.3291, 6135.958
459.8112, 6141.095
460.2934, 6145.736
460.7755, 6149.671
461.2576, 6152.631
461.7397, 6155.216
462.2218, 6158.504
462.7039, 6162.245
463.1861, 6164.813
463.6682, 6164.943
464.1503, 6163.953
464.6324, 6162.573
465.1145, 6160.435
465.5966, 6159.559
466.0788, 6160.413
466.5609, 6162.983
467.0430, 6167.250
467.5251, 6177.460
468.0072, 6184.819
468.4893, 6186.013
468.9715, 6181.372
469.4536, 6177.903
469.9357, 6175.373
470.4178, 6174.135
470.8999, 6174.452
471.3820, 6176.634
471.8642, 6179.583
472.3463, 6183.466
472.8284, 6187.901
473.3105, 6192.460
473.7926, 6197.118
474.2747, 6201.948
474.7569, 6207.376
475.2390, 6212.894
475.7211, 6216.419
476.2032, 6217.898
476.6853, 6217.897
477.1674, 6215.379
477.6496, 6211.638
478.1317, 6210.844
478.6138, 6213.867
479.0959, 6218.565
479.5780, 6222.862
480.0602, 6227.040
480.5423, 6231.694
481.0244, 6239.746
481.5065, 6246.544
481.9886, 6246.900
482.4707, 6241.663
482.9529, 6237.678
483.4350, 6240.260
483.9171, 6244.151
484.3992, 6245.172
484.8813, 6240.687
485.3634, 6237.602
485.8456, 6238.040
486.3277, 6240.667
486.8098, 6243.504
487.2919, 6246.123
487.7740, 6249.166
488.2561, 6252.284
488.7383, 6255.556
489.2204, 6261.301
489.7025, 6272.083
490.1846, 6281.142
490.6667, 6283.656
491.1488, 6278.154
491.6310, 6273.517
492.1131, 6269.832
492.5952, 6267.545
493.0773, 6268.227
493.5594, 6271.868
494.0415, 6273.669
494.5237, 6270.742
495.0058, 6265.726
495.4879, 6265.422
495.9700, 6269.552
496.4521, 6273.839
496.9342, 6274.631
497.4164, 6273.837
497.8985, 6274.218
498.3806, 6276.167
498.8627, 6279.261
499.3448, 6284.022
499.8269, 6289.541
500.3091, 6294.485
500.7912, 6299.424
501.2733, 6302.608
501.7554, 6302.545
502.2375, 6299.722
502.7196, 6297.070
503.2018, 6292.373
503.6839, 6290.230
504.1660, 6293.956
504.6481, 6307.819
505.1302, 6315.878
505.6123, 6314.952
506.0945, 6310.506
506.5766, 6308.472
507.0587, 6309.496
507.5408, 6311.402
508.0229, 6314.446
508.5050, 6317.964
508.9872, 6319.640
509.4693, 6319.388
509.9514, 6318.282
510.4335, 6316.383
510.9156, 6314.031
511.3977, 6312.925
511.8799, 6313.142
512.3619, 6314.689
512.8441, 6318.605
513.3262, 6323.825
513.8083, 6327.577
514.2904, 6327.840
514.7725, 6328.538
515.2546, 6334.288
515.7368, 6343.375
516.2189, 6351.553
516.7010, 6356.814
517.1831, 6360.431
517.6652, 6363.750
518.1473, 6366.902
518.6295, 6366.329
519.1116, 6354.956
519.5937, 6343.131
520.0758, 6338.328
520.5579, 6348.542
521.0400, 6356.178
521.5222, 6361.444
522.0043, 6364.206
522.4864, 6363.280
522.9685, 6355.447
523.4506, 6351.912
523.9327, 6357.805
524.4149, 6371.315
524.8970, 6377.604
525.3791, 6375.400
525.8612, 6372.895
526.3433, 6378.089
526.8254, 6388.987
527.3076, 6393.306
527.7897, 6388.733
528.2718, 6382.452
528.7539, 6383.367
529.2360, 6388.940
529.7181, 6393.146
530.2003, 6392.413
530.6824, 6390.651
531.1645, 6391.438
531.6466, 6394.121
532.1287, 6396.423
532.6108, 6397.064
533.0930, 6397.225
533.5751, 6397.438
534.0572, 6397.676
534.5393, 6398.820
535.0214, 6402.801
535.5035, 6406.956
535.9857, 6408.743
536.4678, 6404.823
536.9499, 6404.070
537.4320, 6408.482
537.9141, 6415.782
538.3962, 6420.120
538.8784, 6420.386
539.3605, 6421.263
539.8426, 6425.245
540.3247, 6431.438
540.8068, 6432.212
541.2889, 6426.921
541.7711, 6422.804
542.2532, 6428.617
542.7353, 6440.530
543.2174, 6446.132
543.6995, 6442.685
544.1816, 6438.324
544.6638, 6442.882
545.1459, 6452.204
545.6280, 6458.583
546.1101, 6456.069
546.5922, 6452.318
547.0743, 6451.960
547.5565, 6454.104
548.0386, 6455.463
548.5207, 6450.758
549.0028, 6448.413
549.4849, 6454.125
549.9670, 6471.833
550.4492, 6482.129
550.9313, 6479.934
551.4134, 6474.212
551.8955, 6471.856
552.3776, 6473.757
552.8597, 6477.200
553.3419, 6483.160
553.8240, 6489.470
554.3061, 6491.011
554.7882, 6487.519
555.2703, 6484.183
555.7524, 6482.247
556.2346, 6482.292
556.7167, 6488.151
557.1988, 6499.248
557.6809, 6507.400
558.1630, 6503.625
558.6451, 6494.373
559.1273, 6488.166
559.6094, 6485.887
560.0915, 6487.149
560.5736, 6495.124
561.0557, 6505.089
561.5378, 6511.598
562.0200, 6511.034
562.5021, 6509.012
562.9842, 6506.411
563.4663, 6503.372
563.9484, 6500.161
564.4305, 6495.489
564.9127, 6492.259
565.3948, 6490.987
565.8769, 6491.686
566.3590, 6496.363
566.8411, 6507.404
567.3232, 6517.242
567.8054, 6519.868
568.2875, 6515.345
568.7696, 6511.481
569.2517, 6508.871
569.7338, 6506.998
570.2159, 6504.458
570.6981, 6502.006
571.1802, 6502.073
571.6623, 6506.623
572.1444, 6512.613
572.6265, 6517.233
573.1086, 6520.714
573.5908, 6523.819
574.0729, 6526.000
574.5550, 6528.680
575.0371, 6533.037
575.5192, 6539.158
576.0013, 6544.878
576.4835, 6551.021
576.9656, 6555.476
577.4477, 6556.412
577.9298, 6548.435
578.4119, 6547.771
578.8940, 6558.897
579.3762, 6573.224
579.8583, 6577.539
580.3404, 6569.353
580.8225, 6564.318
581.3046, 6566.679
581.7867, 6573.631
582.2689, 6577.108
582.7510, 6577.460
583.2331, 6580.352
583.7152, 6593.231
584.1973, 6609.100
584.6794, 6615.997
585.1616, 6613.835
585.6437, 6607.276
586.1258, 6592.975
586.6079, 6579.440
587.0900, 6575.933
587.5721, 6588.510
588.0543, 6599.202
588.5364, 6600.107
589.0185, 6596.513
589.5006, 6595.039
589.9827, 6600.792
590.4648, 6603.230
590.9470, 6599.925
591.4291, 6592.680
591.9112, 6586.887
592.3933, 6581.987
592.8754, 6580.338
593.3575, 6584.479
593.8397, 6593.255
594.3218, 6596.815
594.8039, 6594.821
595.2860, 6592.057
595.7681, 6592.021
596.2502, 6594.126
596.7324, 6597.840
597.2145, 6603.618
597.6966, 6607.722
598.1787, 6604.220
598.6608, 6597.845
599.1429, 6594.868
599.6251, 6598.453
600.1072, 6604.288
600.5893, 6612.904
601.0714, 6622.466
601.5535, 6628.712
602.0356, 6628.761
602.5178, 6627.445
602.9999, 6625.054
603.4820, 6621.715
603.9641, 6620.561
604.4462, 6622.474
604.9283, 6624.462
605.4105, 6624.216
605.8926, 6621.767
606.3747, 6622.174
606.8568, 6625.886
607.3389, 6630.310
607.8210, 6635.129
608.3032, 6638.660
608.7853, 6634.587
609.2674, 6617.767
609.7495, 6603.154
610.2316, 6609.533
610.7137, 6626.886
611.1959, 6637.663
611.6780, 6625.833
612.1601, 6615.336
612.6422, 6617.419
613.1243, 6629.648
613.6064, 6638.913
614.0886, 6638.625
614.5707, 6640.394
615.0528, 6650.108
615.5349, 6668.702
616.0170, 6676.360
616.4991, 6669.897
616.9813, 6659.984
617.4634, 6653.503
617.9455, 6650.409
618.4276, 6652.458
618.9097, 6660.529
619.3918, 6669.903
619.8740, 6674.967
620.3561, 6677.117
620.8382, 6679.970
621.3203, 6685.466
621.8024, 6690.478
622.2845, 6690.771
622.7667, 6688.928
623.2488, 6690.449
623.7309, 6703.224
624.2130, 6713.862
624.6951, 6715.841
625.1772, 6709.850
625.6594, 6706.984
626.1415, 6710.011
626.6236, 6712.913
627.1057, 6713.312
627.5878, 6711.082
628.0699, 6707.737
628.5521, 6702.919
629.0342, 6698.276
629.5163, 6695.636
629.9984, 6694.655
630.4805, 6692.673
630.9626, 6688.789
631.4448, 6686.642
631.9269, 6692.022
632.4090, 6701.703
632.8911, 6709.812
633.3732, 6714.280
633.8553, 6716.624
634.3375, 6715.583
634.8196, 6713.058
635.3017, 6713.267
635.7838, 6724.862
636.2659, 6731.195
636.7480, 6722.741
637.2302, 6702.244
637.7123, 6695.478
638.1944, 6709.557
638.6765, 6723.212
639.1586, 6725.229
639.6407, 6715.856
640.1229, 6710.064
640.6050, 6708.130
641.0871, 6708.466
641.5692, 6709.443
642.0513, 6711.641
642.5334, 6717.505
643.0156, 6728.223
643.4977, 6737.903
643.9798, 6740.138
644.4619, 6738.682
644.9440, 6738.633
645.4261, 6742.551
645.9083, 6746.745
646.3904, 6750.336
646.8725, 6753.343
647.3546, 6755.728
647.8367, 6757.105
648.3188, 6758.350
648.8010, 6759.249
649.2831, 6760.117
649.7652, 6762.858
650.2473, 6767.812
650.7294, 6772.962
651.2115, 6778.319
651.6937, 6783.151
652.1758, 6783.612
652.6579, 6779.801
653.1400, 6776.101
653.6221, 6775.362
654.1042, 6776.911
654.5864, 6780.540
655.0685, 6786.592
655.5506, 6791.924
656.0327, 6794.693
656.5148, 6796.089
656.9969, 6797.172
657.4791, 6797.452
657.9612, 6798.492
658.4433, 6801.495
658.9254, 6804.603
659.4075, 6804.773
659.8896, 6800.941
660.3718, 6798.073
660.8539, 6797.348
661.3360, 6797.919
661.8181, 6798.203
662.3002, 6798.152
662.7823, 6797.268
663.2645, 6793.218
663.7466, 6789.474
664.2287, 6791.659
664.7108, 6798.813
665.1929, 6806.330
665.6750, 6812.071
666.1572, 6817.041
666.6393, 6823.306
667.1214, 6831.583
667.6035, 6833.398
668.0856, 6819.177
668.5677, 6804.980
669.0499, 6799.810
669.5320, 6807.443
670.0141, 6810.082
670.4962, 6805.727
670.9783, 6801.098
671.4604, 6805.284
671.9426, 6817.115
672.4247, 6824.608
672.9068, 6825.020
673.3889, 6823.190
673.8710, 6823.188
674.3531, 6825.239
674.8353, 6829.984
675.3174, 6841.267
675.7995, 6850.672
676.2816, 6851.542
676.7637, 6847.087
677.2458, 6844.612
677.7280, 6844.876
678.2101, 6848.213
678.6922, 6857.387
679.1743, 6870.271
679.6564, 6873.428
680.1385, 6863.093
680.6207, 6854.620
681.1028, 6855.486
681.5849, 6864.067
682.0670, 6872.439
682.5491, 6880.699
683.0313, 6887.927
683.5134, 6890.562
683.9955, 6893.163
684.4776, 6903.489
684.9597, 6922.501
685.4418, 6941.477
685.9240, 6947.564
686.4061, 6956.194
686.8882, 6980.699
687.3703, 7030.277
687.8524, 7081.081
688.3345, 7135.541
688.8167, 7186.972
689.2988, 7227.190
689.7809, 7251.567
690.2630, 7282.490
690.7451, 7321.707
691.2272, 7370.685
691.7094, 7436.688
692.1915, 7515.791
692.6736, 7593.157
693.1557, 7663.142
693.6378, 7729.214
694.1199, 7785.300
694.6021, 7840.598
695.0842, 7915.919
695.5663, 8019.249
696.0484, 8144.294
696.5305, 8297.896
697.0126, 8474.032
697.4948, 8642.203
697.9769, 8791.918
698.4590, 8943.532
698.9411, 9093.936
699.4232, 9248.087
699.9053, 9457.982
700.3875, 9725.958
700.8696, 10037.83
701.3517, 10445.57
701.8338, 10883.30
702.3159, 11194.83
702.7980, 11374.34
703.2802, 11392.36
703.7623, 11099.96
704.2444, 10712.56
704.7265, 10428.09
705.2086, 10282.25
705.6907, 10216.15
706.1729, 10343.84
706.6550, 10459.98
707.1371, 10399.14
707.6192, 10118.01
708.1013, 9744.165
708.5834, 9232.996
709.0656, 8699.268
709.5477, 8290.994
710.0298, 8003.292
710.5119, 7793.041
710.9940, 7659.659
711.4761, 7578.909
711.9582, 7535.120
712.4403, 7517.522
712.9224, 7504.836
713.4045, 7502.226
713.8867, 7487.302
714.3688, 7442.384
714.8509, 7377.478
715.3330, 7313.462
715.8151, 7246.161
716.2972, 7189.758
716.7794, 7146.776
717.2615, 7116.479
717.7436, 7097.092
718.2257, 7091.130
718.7078, 7083.280
719.1899, 7066.042
719.6721, 7042.642
720.1542, 7018.895
720.6363, 6995.755
721.1184, 6979.423
721.6005, 6980.570
722.0826, 6985.888
722.5648, 6980.793
723.0469, 6965.563
723.5290, 6955.560
724.0111, 6962.977
724.4932, 6971.396
724.9753, 6971.241
725.4575, 6960.872
725.9396, 6954.474
726.4217, 6953.980
726.9038, 6954.112
727.3859, 6949.966
727.8680, 6942.128
728.3502, 6938.909
728.8323, 6940.904
729.3144, 6945.284
729.7965, 6950.253
730.2786, 6955.435
730.7607, 6961.326
731.2429, 6969.302
731.7250, 6972.215
732.2071, 6958.755
732.6892, 6942.250
733.1713, 6935.595
733.6534, 6950.392
734.1356, 6961.288
734.6177, 6967.357
735.0998, 6970.155
735.5819, 6971.346
736.0640, 6970.841
736.5461, 6969.365
737.0283, 6966.607
737.5104, 6964.048
737.9925, 6965.155
738.4746, 6968.327
738.9567, 6969.133
739.4388, 6964.228
739.9210, 6959.208
740.4031, 6957.112
740.8852, 6957.723
741.3673, 6960.603
741.8494, 6971.646
742.3315, 6977.573
742.8137, 6974.193
743.2958, 6964.683
743.7779, 6956.922
744.2600, 6950.497
744.7421, 6948.155
745.2242, 6952.475
745.7064, 6960.194
746.1885, 6961.623
746.6706, 6958.181
747.1527, 6956.792
747.6348, 6966.526
748.1169, 6975.799
748.5991, 6971.288
749.0812, 6956.292
749.5633, 6946.858
750.0454, 6950.206
750.5275, 6958.249
751.0096, 6970.759
751.4918, 6986.642
751.9739, 6993.817
752.4560, 6989.449
752.9381, 6983.453
753.4202, 6978.482
753.9023, 6975.750
754.3845, 6985.463
754.8666, 7006.683
755.3487, 7022.434
755.8308, 7013.957
756.3129, 6997.438
756.7950, 6990.739
757.2772, 6995.044
757.7593, 7000.319
758.2414, 7006.329
758.7235, 7009.479
759.2056, 7006.685
759.6877, 6996.759
760.1699, 6990.207
760.6520, 6988.202
761.1341, 6987.560
761.6162, 6985.716
762.0983, 6983.016
762.5804, 6982.484
763.0626, 6984.341
763.5447, 6986.774
764.0268, 6987.738
764.5089, 6988.499
764.9910, 6990.544
765.4731, 6994.032
765.9553, 6998.867
766.4374, 7008.461
766.9195, 7017.020
767.4016, 7018.733
767.8837, 7007.383
768.3658, 7006.272
768.8480, 7019.505
769.3301, 7035.618
769.8122, 7042.878
770.2943, 7041.973
770.7764, 7041.033
771.2585, 7041.257
771.7407, 7039.331
772.2228, 7027.441
772.7049, 7012.892
773.1870, 7006.827
773.6691, 7014.805
774.1512, 7023.441
774.6334, 7027.946
775.1155, 7030.534
775.5976, 7033.921
776.0797, 7041.329
776.5618, 7042.427
777.0439, 7034.252
777.5261, 7023.980
778.0082, 7022.142
778.4903, 7027.619
778.9724, 7029.595
779.4545, 7025.173
779.9366, 7019.996
780.4188, 7019.694
780.9009, 7022.962
781.3830, 7028.103
781.8651, 7037.319
782.3472, 7043.956
782.8293, 7042.571
783.3115, 7038.836
783.7936, 7040.938
784.2757, 7052.563
784.7578, 7060.975
785.2399, 7064.349
785.7220, 7064.698
786.2042, 7064.435
786.6863, 7063.693
787.1684, 7062.892
787.6505, 7060.405
788.1326, 7061.952
788.6147, 7079.313
789.0969, 7103.069
789.5790, 7117.801
790.0611, 7109.812
790.5432, 7102.635
791.0253, 7103.419
791.5074, 7107.269
791.9896, 7106.375
792.4717, 7098.420
792.9538, 7093.623
793.4359, 7094.740
793.9180, 7097.929
794.4001, 7095.544
794.8823, 7089.055
795.3644, 7085.072
795.8465, 7087.528
796.3286, 7089.857
796.8107, 7084.616
797.2928, 7075.900
797.7750, 7070.517
798.2571, 7071.864
798.7392, 7075.048
799.2213, 7081.558
799.7034, 7088.127
800.1855, 7088.212
800.6677, 7080.155
801.1498, 7074.543
801.6319, 7073.903
802.1140, 7075.938
802.5961, 7076.478
803.0782, 7076.452
803.5604, 7078.875
804.0425, 7086.806
804.5246, 7094.496
805.0067, 7099.830
805.4888, 7102.134
805.9709, 7100.280
806.4531, 7087.114
806.9352, 7078.976
807.4173, 7078.601
807.8994, 7083.204
808.3815, 7088.572
808.8636, 7094.747
809.3458, 7098.906
809.8279, 7099.263
810.3100, 7099.649
810.7921, 7108.146
811.2742, 7120.348
811.7563, 7127.092
812.2385, 7121.087
812.7206, 7114.397
813.2027, 7109.982
813.6848, 7108.663
814.1669, 7112.445
814.6490, 7127.132
815.1312, 7134.346
815.6133, 7129.527
816.0954, 7119.904
816.5775, 7118.487
817.0596, 7124.144
817.5417, 7127.923
818.0239, 7127.068
818.5060, 7124.931
818.9881, 7125.349
819.4702, 7126.782
819.9523, 7126.802
820.4344, 7121.205
820.9166, 7118.733
821.3987, 7124.999
821.8808, 7133.334
822.3629, 7134.557
822.8450, 7126.223
823.3271, 7121.609
823.8093, 7122.468
824.2914, 7127.306
824.7735, 7135.823
825.2556, 7146.498
825.7377, 7156.062
826.2198, 7164.509
826.7020, 7168.417
827.1841, 7160.253
827.6662, 7148.430
828.1483, 7142.629
828.6304, 7151.473
829.1125, 7157.069
829.5947, 7159.017
830.0768, 7158.053
830.5589, 7153.052
831.0410, 7144.293
831.5231, 7142.895
832.0052, 7151.507
832.4874, 7161.915
832.9695, 7164.370
833.4516, 7163.036
833.9337, 7163.588
834.4158, 7166.729
834.8979, 7173.500
835.3801, 7191.658
835.8622, 7208.523
836.3443, 7212.366
836.8264, 7195.527
837.3085, 7188.124
837.7906, 7192.100
838.2728, 7199.846
838.7549, 7204.730
839.2370, 7207.130
839.7191, 7208.435
840.2012, 7208.736
840.6833, 7208.245
841.1655, 7204.921
841.6476, 7202.336
842.1297, 7205.024
842.6118, 7216.787
843.0939, 7220.644
843.5760, 7209.804
844.0582, 7199.221
844.5403, 7200.313
845.0224, 7213.567
845.5045, 7218.937
845.9866, 7216.255
846.4688, 7211.521
846.9509, 7206.849
847.4330, 7204.406
847.9151, 7208.431
848.3972, 7219.003
848.8793, 7228.274
849.3615, 7232.044
849.8436, 7234.647
850.3257, 7237.347
850.8078, 7240.065
851.2899, 7247.175
851.7720, 7259.221
852.2542, 7273.294
852.7363, 7289.870
853.2184, 7306.494
853.7005, 7316.999
854.1826, 7321.659
854.6647, 7322.092
855.1469, 7319.294
855.6290, 7312.625
856.1111, 7299.256
856.5932, 7280.471
857.0753, 7265.952
857.5574, 7256.323
858.0396, 7250.453
858.5217, 7248.606
859.0038, 7249.995
859.4859, 7251.987
859.9680, 7254.655
860.4501, 7259.315
860.9323, 7270.982
861.4144, 7280.248
861.8965, 7272.324
862.3786, 7254.912
862.8607, 7246.154
863.3428, 7261.419
863.8250, 7274.118
864.3071, 7278.446
864.7892, 7277.293
865.2713, 7275.413
865.7534, 7272.565
866.2355, 7272.504
866.7177, 7277.623
867.1998, 7282.293
867.6819, 7275.801
868.1640, 7263.466
868.6461, 7256.184
869.1282, 7260.912
869.6104, 7264.529
870.0925, 7257.798
870.5746, 7249.541
871.0567, 7251.159
871.5388, 7267.724
872.0209, 7279.043
872.5031, 7283.227
872.9852, 7284.104
873.4673, 7286.090
873.9494, 7288.432
874.4315, 7287.982
874.9136, 7283.668
875.3958, 7281.556
875.8779, 7288.564
876.3600, 7297.619
876.8421, 7302.099
877.3242, 7298.705
877.8063, 7299.656
878.2885, 7306.873
878.7706, 7314.830
879.2527, 7318.633
879.7348, 7319.095
880.2169, 7324.859
880.6990, 7335.755
881.1812, 7344.737
881.6633, 7344.641
882.1454, 7341.712
882.6275, 7339.765
883.1096, 7339.396
883.5917, 7344.729
884.0739, 7363.706
884.5560, 7379.630
885.0381, 7387.696
885.5202, 7388.357
886.0023, 7381.691
886.4844, 7367.862
886.9666, 7356.158
887.4487, 7350.321
887.9308, 7349.860
888.4129, 7359.439
888.8950, 7374.109
889.3771, 7380.823
889.8593, 7364.822
890.3414, 7352.902
890.8235, 7353.548
891.3056, 7361.288
891.7877, 7365.651
892.2698, 7366.205
892.7520, 7368.128
893.2341, 7373.063
893.7162, 7378.231
894.1983, 7379.106
894.6804, 7377.648
895.1625, 7377.854
895.6447, 7382.701
896.1268, 7384.987
896.6089, 7378.487
897.0910, 7370.517
897.5731, 7367.788
898.0552, 7371.146
898.5374, 7377.716
899.0195, 7388.726
899.5016, 7397.828
899.9837, 7395.765
900.4658, 7388.211
900.9479, 7388.298
901.4301, 7397.296
901.9122, 7405.327
902.3943, 7405.286
902.8764, 7403.904
903.3585, 7406.570
903.8406, 7413.479
904.3228, 7414.652
904.8049, 7408.161
905.2870, 7402.174
905.7691, 7401.239
906.2512, 7403.689
906.7333, 7405.319
907.2155, 7406.210
907.6976, 7406.582
908.1797, 7408.212
908.6618, 7407.734
909.1439, 7400.673
909.6260, 7390.015
910.1082, 7385.053
910.5903, 7387.470
911.0724, 7392.303
911.5545, 7400.180
912.0366, 7407.425
912.5187, 7404.212
913.0009, 7394.211
913.4830, 7391.108
913.9651, 7401.087
914.4472, 7412.037
914.9293, 7418.766
915.4114, 7420.632
915.8936, 7416.079
916.3757, 7398.511
916.8578, 7388.678
917.3399, 7387.964
917.8220, 7392.170
918.3041, 7398.932
918.7863, 7407.430
919.2684, 7415.214
919.7505, 7422.056
920.2326, 7425.203
920.7147, 7419.060
921.1968, 7411.307
921.6790, 7407.629
922.1611, 7408.713
922.6432, 7410.168
923.1253, 7413.298
923.6074, 7413.622
924.0895, 7407.842
924.5717, 7398.529
925.0538, 7395.361
925.5359, 7397.332
926.0180, 7399.544
926.5001, 7400.206
926.9822, 7399.735
927.4644, 7397.595
927.9465, 7394.694
928.4286, 7393.129
928.9107, 7393.958
929.3928, 7393.916
929.8749, 7391.126
930.3571, 7389.821
930.8392, 7399.588
931.3213, 7417.001
931.8034, 7426.098
932.2855, 7422.540
932.7676, 7417.742
933.2498, 7419.913
933.7319, 7424.647
934.2140, 7428.278
934.6961, 7430.651
935.1782, 7429.502
935.6603, 7422.232
936.1425, 7416.748
936.6246, 7420.604
937.1067, 7430.794
937.5888, 7432.455
938.0709, 7426.677
938.5530, 7422.399
939.0352, 7428.247
939.5173, 7434.638
939.9994, 7433.605
940.4815, 7427.338
940.9636, 7427.464
941.4457, 7437.985
941.9279, 7445.789
942.4100, 7447.294
942.8921, 7444.931
943.3742, 7441.220
943.8563, 7437.511
944.3384, 7439.275
944.8206, 7452.061
945.3027, 7460.954
945.7848, 7450.512
946.2669, 7434.677
946.7490, 7429.880
947.2311, 7442.224
947.7133, 7450.115
948.1954, 7452.108
948.6775, 7453.897
949.1596, 7465.083
949.6417, 7479.271
950.1238, 7475.614
950.6060, 7454.409
951.0881, 7439.039
951.5702, 7449.224
952.0523, 7462.615
952.5344, 7466.288
953.0165, 7461.733
953.4987, 7458.671
953.9808, 7456.338
954.4629, 7459.458
954.9450, 7472.128
955.4271, 7487.610
955.9092, 7492.602
956.3914, 7490.706
956.8735, 7490.723
957.3556, 7498.745
957.8376, 7504.732
958.3198, 7502.881
958.8019, 7498.494
959.2840, 7497.415
959.7661, 7500.236
960.2482, 7503.487
960.7303, 7507.300
961.2125, 7509.848
961.6946, 7508.316
962.1767, 7505.042
962.6588, 7503.482
963.1409, 7504.012
963.6230, 7504.581
964.1052, 7504.124
964.5873, 7504.202
965.0694, 7506.306
965.5515, 7509.583
966.0336, 7507.007
966.5157, 7498.594
966.9979, 7495.052
967.4800, 7502.923
967.9621, 7515.025
968.4442, 7526.546
968.9263, 7535.567
969.4084, 7538.386
969.8906, 7522.011
970.3727, 7517.183
970.8548, 7532.374
971.3369, 7551.828
971.8190, 7557.001
972.3011, 7549.309
972.7833, 7542.324
973.2654, 7537.153
973.7475, 7535.075
974.2296, 7536.743
974.7117, 7542.152
975.1938, 7553.757
975.6760, 7571.728
976.1581, 7582.339
976.6402, 7583.062
977.1223, 7580.198
977.6044, 7574.892
978.0865, 7568.626
978.5687, 7564.729
979.0508, 7563.586
979.5329, 7566.849
980.0150, 7579.924
980.4971, 7591.235
980.9792, 7590.654
981.4614, 7586.448
981.9435, 7591.253
982.4256, 7611.173
982.9077, 7620.624
983.3898, 7616.298
983.8719, 7609.288
984.3541, 7610.955
984.8362, 7617.812
985.3183, 7622.875
985.8004, 7625.615
986.2825, 7630.870
986.7646, 7644.892
987.2468, 7657.089
987.7289, 7661.419
988.2110, 7659.760
988.6931, 7663.282
989.1752, 7672.202
989.6573, 7678.745
990.1395, 7679.519
990.6216, 7677.597
991.1037, 7676.532
991.5858, 7675.593
992.0679, 7673.438
992.5500, 7667.421
993.0322, 7665.040
993.5143, 7669.635
993.9964, 7674.609
994.4785, 7672.006
994.9606, 7663.464
995.4427, 7662.891
995.9249, 7670.689
996.4070, 7678.800
996.8891, 7678.768
997.3712, 7679.047
997.8533, 7688.176
998.3354, 7704.374
998.8176, 7711.700
999.2997, 7705.508
999.7818, 7701.175
1000.264, 7702.393
1000.746, 7708.025
1001.228, 7719.277
1001.710, 7732.965
1002.192, 7741.116
1002.674, 7739.775
1003.157, 7736.914
1003.639, 7735.294
1004.121, 7734.134
1004.603, 7732.934
1005.085, 7731.795
1005.567, 7730.989
1006.049, 7730.702
1006.531, 7730.405
1007.014, 7728.718
1007.496, 7727.736
1007.978, 7731.624
1008.460, 7738.739
1008.942, 7742.567
1009.424, 7736.816
1009.906, 7733.865
1010.388, 7737.720
1010.870, 7742.810
1011.353, 7736.512
1011.835, 7721.599
1012.317, 7714.522
1012.799, 7718.952
1013.281, 7727.010
1013.763, 7736.682
1014.245, 7744.615
1014.727, 7745.728
1015.210, 7738.689
1015.692, 7742.859
1016.174, 7763.066
1016.656, 7775.926
1017.138, 7764.478
1017.620, 7742.271
1018.102, 7736.810
1018.584, 7743.398
1019.066, 7748.957
1019.549, 7744.877
1020.031, 7743.667
1020.513, 7750.934
1020.995, 7760.144
1021.477, 7763.017
1021.959, 7759.354
1022.441, 7758.865
1022.923, 7762.255
1023.406, 7767.155
1023.888, 7774.264
1024.370, 7779.827
1024.852, 7778.983
1025.334, 7771.877
1025.816, 7767.850
1026.298, 7768.609
1026.780, 7770.120
1027.262, 7771.573
1027.745, 7772.735
1028.227, 7771.430
1028.709, 7769.483
1029.191, 7772.527
1029.673, 7784.976
1030.155, 7795.702
1030.637, 7797.636
1031.119, 7797.427
1031.602, 7801.788
1032.084, 7812.108
1032.566, 7810.623
1033.048, 7796.602
1033.530, 7783.444
1034.012, 7781.909
1034.494, 7784.877
1034.976, 7784.431
1035.458, 7782.037
1035.941, 7782.794
1036.423, 7787.881
1036.905, 7797.360
1037.387, 7814.617
1037.869, 7830.736
1038.351, 7828.350
1038.833, 7813.916
1039.315, 7810.233
1039.797, 7821.083
1040.280, 7832.271
1040.762, 7836.770
1041.244, 7837.438
1041.726, 7833.777
1042.208, 7827.004
1042.690, 7828.737
1043.172, 7839.787
1043.654, 7847.652
1044.137, 7845.232
1044.619, 7841.335
1045.101, 7849.360
1045.583, 7862.371
1046.065, 7869.362
1046.547, 7864.880
1047.029, 7858.970
1047.511, 7849.327
1047.994, 7843.675
1048.476, 7853.016
1048.958, 7871.612
1049.440, 7873.908
1049.922, 7861.948
1050.404, 7852.018
1050.886, 7852.365
1051.368, 7857.804
1051.850, 7869.599
1052.333, 7883.584
1052.815, 7892.377
1053.297, 7895.768
1053.779, 7895.920
1054.261, 7892.517
1054.743, 7889.723
1055.225, 7889.470
1055.707, 7893.733
1056.189, 7907.097
1056.672, 7931.061
1057.154, 7948.223
1057.636, 7953.784
1058.118, 7960.147
1058.600, 7971.168
1059.082, 7986.980
1059.564, 8013.351
1060.046, 8044.745
1060.529, 8065.853
1061.011, 8070.236
1061.493, 8065.608
1061.975, 8047.888
1062.457, 8027.617
1062.939, 8013.665
1063.421, 8006.658
1063.903, 7993.918
1064.385, 7975.306
1064.868, 7965.423
1065.350, 7979.815
1065.832, 8002.090
1066.314, 8022.081
1066.796, 8038.346
1067.278, 8047.487
1067.760, 8043.044
1068.242, 8048.798
1068.724, 8068.569
1069.207, 8096.389
1069.689, 8124.685
1070.171, 8155.947
1070.653, 8188.130
1071.135, 8221.104
1071.617, 8286.765
1072.099, 8365.742
1072.581, 8516.436
1073.064, 8733.986
1073.546, 9048.612
1074.028, 9595.948
1074.510, 10344.09
1074.992, 11180.83
1075.474, 12132.04
1075.956, 12956.50
1076.438, 13415.16
1076.921, 13698.14
1077.403, 13963.92
1077.885, 14218.36
1078.367, 14500.15
1078.849, 14803.94
1079.331, 15177.67
1079.813, 15633.01
1080.295, 16182.35
1080.777, 16726.82
1081.260, 17399.99
1081.742, 18489.21
1082.224, 19930.03
1082.706, 22137.87
1083.188, 25316.10
1083.670, 28883.77
1084.152, 32085.99
1084.634, 36544.34
1085.116, 39893.00
1085.599, 45838.38
1086.081, 50752.30
1086.563, 55777.04
1087.045, 56711.51
1087.527, 50702.07
1088.009, 40581.76
1088.491, 31723.43
1088.973, 24123.48
1089.455, 18397.04
1089.938, 14711.35
1090.420, 12258.76
1090.902, 10841.82
1091.384, 10005.09
1091.866, 9449.654
1092.348, 9144.608
1092.830, 8904.254
1093.312, 8731.465
1093.795, 8602.490
1094.277, 8516.161
1094.759, 8455.335
1095.241, 8402.483
1095.723, 8355.682
1096.205, 8311.468
1096.687, 8268.261
1097.169, 8230.909
1097.651, 8200.173
1098.134, 8174.330
1098.616, 8152.227
1099.098, 8134.141
1099.580, 8123.616
1100.062, 8118.712
1100.544, 8110.905
1101.026, 8088.797
1101.508, 8072.729
1101.990, 8073.381
1102.473, 8079.693
1102.955, 8080.245
1103.437, 8075.152
1103.919, 8063.908
1104.401, 8046.630
1104.883, 8033.230
1105.365, 8031.986
1105.847, 8035.855
1106.330, 8043.085
1106.812, 8051.392
1107.294, 8052.201
1107.776, 8043.177
1108.258, 8042.333
1108.740, 8055.026
1109.222, 8066.975
1109.704, 8059.165
1110.187, 8043.754
1110.669, 8034.630
1111.151, 8033.923
1111.633, 8032.987
1112.115, 8030.819
1112.597, 8029.226
1113.079, 8028.702
1113.561, 8029.316
1114.043, 8033.276
1114.526, 8038.102
1115.008, 8037.697
1115.490, 8027.733
1115.972, 8021.602
1116.454, 8023.583
1116.936, 8028.551
1117.418, 8036.231
1117.900, 8044.491
1118.382, 8039.063
1118.865, 8023.556
1119.347, 8013.752
1119.829, 8022.896
1120.311, 8031.796
1120.793, 8027.878
1121.275, 8023.042
1121.757, 8031.586
1122.239, 8054.579
1122.722, 8063.636
1123.204, 8058.388
1123.686, 8052.474
1124.168, 8056.017
1124.650, 8061.611
1125.132, 8064.950
1125.614, 8065.923
1126.096, 8064.707
1126.578, 8060.442
1127.061, 8058.224
1127.543, 8058.819
1128.025, 8059.719
1128.507, 8055.995
1128.989, 8052.935
1129.471, 8057.075
1129.953, 8068.282
1130.435, 8081.141
1130.917, 8099.295
1131.400, 8107.640
1131.882, 8100.843
1132.364, 8088.128
1132.846, 8082.028
1133.328, 8079.998
1133.810, 8076.733
1134.292, 8070.933
1134.774, 8070.420
1135.257, 8081.667
1135.739, 8090.173
1136.221, 8089.127
1136.703, 8083.524
1137.185, 8085.155
1137.667, 8092.634
1138.149, 8103.095
1138.631, 8118.315
1139.114, 8128.170
1139.596, 8125.670
1140.078, 8119.052
1140.560, 8110.243
1141.042, 8100.948
1141.524, 8103.834
1142.006, 8116.562
1142.488, 8125.734
1142.970, 8120.363
1143.453, 8117.845
1143.935, 8135.670
1144.417, 8154.489
1144.899, 8153.072
1145.381, 8128.935
1145.863, 8120.775
1146.345, 8128.156
1146.827, 8136.218
1147.309, 8132.851
1147.792, 8129.302
1148.274, 8135.586
1148.756, 8146.504
1149.238, 8152.081
1149.720, 8151.050
1150.202, 8150.201
1150.684, 8149.776
1151.166, 8150.409
1151.649, 8153.976
1152.131, 8157.669
1152.613, 8159.281
1153.095, 8158.669
1153.577, 8155.425
1154.059, 8147.749
1154.541, 8143.568
1155.023, 8143.888
1155.505, 8148.309
1155.988, 8160.409
1156.470, 8173.831
1156.952, 8180.261
1157.434, 8179.394
1157.916, 8176.825
1158.398, 8171.960
1158.880, 8168.752
1159.362, 8167.968
1159.844, 8169.608
1160.327, 8176.736
1160.809, 8185.026
1161.291, 8185.530
1161.773, 8175.991
1162.255, 8171.931
1162.737, 8180.340
1163.219, 8186.541
1163.701, 8184.413
1164.184, 8179.052
1164.666, 8181.724
1165.148, 8189.399
1165.630, 8195.569
1166.112, 8198.999
1166.594, 8199.494
1167.076, 8194.119
1167.558, 8189.981
1168.041, 8190.662
1168.523, 8194.697
1169.005, 8198.172
1169.487, 8201.005
1169.969, 8202.666
1170.451, 8201.674
1170.933, 8202.741
1171.415, 8210.408
1171.897, 8217.402
1172.380, 8217.985
1172.862, 8214.080
1173.344, 8219.265
1173.826, 8231.022
1174.308, 8237.932
1174.790, 8232.055
1175.272, 8224.571
1175.754, 8216.677
1176.236, 8211.793
1176.719, 8214.104
1177.201, 8223.204
1177.683, 8228.236
1178.165, 8229.677
1178.647, 8231.596
1179.129, 8238.111
1179.611, 8243.468
1180.093, 8244.213
1180.576, 8242.753
1181.058, 8241.639
1181.540, 8240.861
1182.022, 8239.475
1182.504, 8237.514
1182.986, 8236.637
1183.468, 8239.016
1183.950, 8241.693
1184.432, 8243.160
1184.915, 8243.791
1185.397, 8243.720
1185.879, 8242.894
1186.361, 8245.296
1186.843, 8251.307
1187.325, 8256.709
1187.807, 8259.427
1188.289, 8259.496
1188.771, 8253.276
1189.254, 8245.405
1189.736, 8248.081
1190.218, 8262.189
1190.700, 8268.314
1191.182, 8263.478
1191.664, 8258.022
1192.146, 8262.967
1192.628, 8268.654
1193.111, 8266.832
1193.593, 8259.604
1194.075, 8254.747
1194.557, 8252.348
1195.039, 8251.838
1195.521, 8253.108
1196.003, 8256.686
1196.485, 8266.732
1196.968, 8276.241
1197.450, 8277.305
1197.932, 8271.820
1198.414, 8272.272
1198.896, 8279.055
1199.378, 8285.764
1199.860, 8290.180
1200.342, 8296.869
1200.824, 8317.747
1201.307, 8337.093
1201.789, 8337.084
1202.271, 8319.342
1202.753, 8309.252
1203.235, 8307.378
1203.717, 8306.255
1204.199, 8303.596
1204.681, 8301.769
1205.163, 8304.271
1205.646, 8308.034
1206.128, 8309.969
1206.610, 8310.016
1207.092, 8309.128
1207.574, 8307.095
1208.056, 8308.377
1208.538, 8316.885
1209.020, 8322.803
1209.503, 8309.954
1209.985, 8293.401
1210.467, 8291.761
1210.949, 8305.428
1211.431, 8315.186
1211.913, 8321.035
1212.395, 8324.049
1212.877, 8323.879
1213.359, 8322.869
1213.842, 8324.395
1214.324, 8325.642
1214.806, 8321.747
1215.288, 8311.960
1215.770, 8311.798
1216.252, 8321.636
1216.734, 8331.021
1217.216, 8334.378
1217.698, 8336.768
1218.181, 8343.354
1218.663, 8351.111
1219.145, 8356.865
1219.627, 8360.685
1220.109, 8359.248
1220.591, 8352.333
1221.073, 8345.873
1221.555, 8340.527
1222.038, 8340.186
1222.520, 8352.563
1223.002, 8368.926
1223.484, 8378.942
1223.966, 8382.136
1224.448, 8382.006
1224.930, 8378.612
1225.412, 8373.831
1225.895, 8364.494
1226.377, 8359.765
1226.859, 8372.088
1227.341, 8389.214
1227.823, 8395.787
1228.305, 8390.806
1228.787, 8387.927
1229.269, 8386.990
1229.751, 8385.111
1230.234, 8379.032
1230.716, 8373.134
1231.198, 8366.792
1231.680, 8364.262
1232.162, 8372.435
1232.644, 8392.156
1233.126, 8398.072
1233.608, 8391.372
1234.090, 8387.039
1234.573, 8397.196
1235.055, 8408.182
1235.537, 8413.227
1236.019, 8415.354
1236.501, 8418.721
1236.983, 8423.180
1237.465, 8418.104
1237.947, 8404.709
1238.430, 8393.391
1238.912, 8391.861
1239.394, 8391.680
1239.876, 8388.955
1240.358, 8386.385
1240.840, 8385.408
1241.322, 8386.513
1241.804, 8397.379
1242.286, 8416.010
1242.769, 8428.505
1243.251, 8421.800
1243.733, 8415.282
1244.215, 8412.751
1244.697, 8414.619
1245.179, 8424.676
1245.661, 8439.670
1246.143, 8444.452
1246.625, 8440.006
1247.108, 8434.384
1247.590, 8426.540
1248.072, 8425.068
1248.554, 8434.233
1249.036, 8444.813
1249.518, 8444.629
1250.000, 8454.003
1250.482, 8446.855
1250.965, 8464.599
1251.447, 8478.143
1251.929, 8482.316
1252.411, 8479.760
1252.893, 8467.384
1253.375, 8456.813
1253.857, 8464.490
1254.339, 8479.740
1254.822, 8478.533
1255.304, 8465.854
1255.786, 8461.542
1256.268, 8480.796
1256.750, 8490.376
1257.232, 8486.584
1257.714, 8478.627
1258.196, 8471.427
1258.678, 8467.680
1259.161, 8473.997
1259.643, 8487.027
1260.125, 8496.141
1260.607, 8499.489
1261.089, 8499.662
1261.571, 8495.727
1262.053, 8495.303
1262.535, 8510.180
1263.017, 8527.134
1263.500, 8530.710
1263.982, 8525.886
1264.464, 8526.298
1264.946, 8534.079
1265.428, 8539.282
1265.910, 8541.361
1266.392, 8541.472
1266.874, 8539.775
1267.357, 8537.071
1267.839, 8532.233
1268.321, 8527.554
1268.803, 8527.682
1269.285, 8533.011
1269.767, 8534.100
1270.249, 8530.802
1270.731, 8529.341
1271.214, 8533.297
1271.696, 8540.801
1272.178, 8557.592
1272.660, 8572.650
1273.142, 8569.393
1273.624, 8550.973
1274.106, 8552.219
1274.588, 8571.150
1275.070, 8583.037
1275.552, 8562.869
1276.035, 8550.221
1276.517, 8559.303
1276.999, 8574.932
1277.481, 8582.143
1277.963, 8583.398
1278.445, 8587.950
1278.927, 8595.177
1279.409, 8601.530
1279.892, 8603.009
1280.374, 8607.904
1280.856, 8619.033
1281.338, 8629.072
1281.820, 8631.599
1282.302, 8628.627
1282.784, 8620.405
1283.266, 8610.295
1283.749, 8607.457
1284.231, 8618.112
1284.713, 8628.710
1285.195, 8639.701
1285.677, 8647.153
1286.159, 8646.961
1286.641, 8642.540
1287.123, 8633.134
1287.605, 8624.003
1288.088, 8627.166
1288.570, 8648.655
1289.052, 8656.060
1289.534, 8648.143
1290.016, 8642.660
1290.498, 8655.439
1290.980, 8670.594
1291.462, 8679.002
1291.944, 8681.107
1292.427, 8676.620
1292.909, 8664.850
1293.391, 8662.083
1293.873, 8667.357
1294.355, 8671.381
1294.837, 8666.240
1295.319, 8663.116
1295.801, 8669.955
1296.284, 8678.102
1296.766, 8681.092
1297.248, 8680.076
1297.730, 8680.419
1298.212, 8681.831
1298.694, 8683.289
1299.176, 8685.847
1299.658, 8685.396
1300.141, 8679.693
1300.623, 8674.290
1301.105, 8672.023
1301.587, 8673.486
1302.069, 8683.179
1302.551, 8696.100
1303.033, 8701.443
1303.515, 8690.653
1303.997, 8688.796
1304.479, 8698.161
1304.962, 8705.958
1305.444, 8708.525
##END=



