##NAMES=Calderonite
##RRUFFID=R060427
##IDEAL CHEMISTRY=Pb^2+^_2_Fe^3+^(V^5+^O_4_)_2_(OH)
##LOCALITY=Las Colmenitas mine, Santa Marta, Badajoz, Extremadura, Spain
##OWNER=RRUFF
##SOURCE=Michael Scott
##DESCRIPTION=Sheaf of brown bladed crystals
##STATUS=The identification of this mineral is confirmed by single-crystal X-ray diffraction and chemical analysis.
##URL=rruff.info/R060427
##MEASURED CHEMISTRY=(Pb_1.90_Cu_0.08_Zn_0.02_)_Σ=2_(Fe^3+^_0.84_Cr_0.14_Al_0.02_)_Σ=1_((V_0.98_As_0.01_P_0.01_)_Σ=1_O_4_)_2_(OH); OH estimated by difference and charge balance
170.1547, 592.2027
170.6368, 582.8928
171.1189, 573.0623
171.6010, 563.2269
172.0831, 553.5198
172.5652, 544.0715
173.0474, 534.9290
173.5295, 526.3428
174.0116, 517.6315
174.4937, 508.0725
174.9758, 497.6499
175.4579, 487.6655
175.9401, 478.8980
176.4222, 470.7797
176.9043, 462.7257
177.3864, 454.5016
177.8685, 446.5471
178.3506, 439.3653
178.8328, 433.0167
179.3149, 427.2245
179.7970, 422.0342
180.2791, 417.2428
180.7612, 412.8063
181.2433, 408.7159
181.7255, 404.8345
182.2076, 400.6736
182.6897, 395.3253
183.1718, 391.5168
183.6539, 390.3605
184.1360, 390.4870
184.6181, 390.6314
185.1003, 390.2000
185.5824, 389.2661
186.0645, 388.0630
186.5466, 385.8130
187.0287, 384.2821
187.5108, 383.8663
187.9930, 384.2392
188.4751, 385.0380
188.9572, 386.0700
189.4393, 387.3130
189.9214, 388.6403
190.4035, 389.6659
190.8857, 391.2007
191.3678, 393.7240
191.8499, 396.8344
192.3320, 399.8402
192.8141, 402.3065
193.2962, 404.3314
193.7784, 406.7223
194.2605, 409.5241
194.7426, 412.5318
195.2247, 415.7669
195.7068, 419.1724
196.1889, 422.6425
196.6711, 426.1558
197.1532, 429.6552
197.6353, 432.9137
198.1174, 435.2081
198.5995, 437.9414
199.0816, 442.3007
199.5638, 448.0509
200.0459, 453.5086
200.5280, 457.4952
201.0101, 460.5483
201.4922, 464.2704
201.9743, 469.2049
202.4565, 474.3545
202.9386, 478.9409
203.4207, 482.9691
203.9028, 486.6680
204.3849, 489.8201
204.8670, 492.8213
205.3492, 496.2493
205.8313, 500.4058
206.3134, 504.7716
206.7955, 508.7902
207.2776, 512.5020
207.7597, 515.6688
208.2419, 517.9251
208.7240, 519.6755
209.2061, 521.2781
209.6882, 522.9210
210.1703, 524.3121
210.6524, 524.8635
211.1346, 524.2910
211.6167, 523.5695
212.0988, 523.2890
212.5809, 522.9155
213.0630, 521.9730
213.5451, 520.3000
214.0273, 517.8752
214.5094, 514.5655
214.9915, 509.9023
215.4736, 505.1297
215.9557, 500.8125
216.4378, 496.4060
216.9200, 491.2938
217.4021, 485.2222
217.8842, 478.4251
218.3663, 471.6320
218.8484, 465.0540
219.3305, 458.1579
219.8127, 450.8978
220.2948, 443.2996
220.7769, 435.1898
221.2590, 426.4882
221.7411, 417.5889
222.2232, 409.6662
222.7054, 403.6974
223.1875, 397.6325
223.6696, 391.2658
224.1517, 384.7619
224.6338, 378.2147
225.1159, 371.6345
225.5980, 365.2739
226.0802, 359.8842
226.5623, 356.6034
227.0444, 352.9863
227.5265, 348.7370
228.0086, 344.0898
228.4907, 339.2275
228.9729, 334.1894
229.4550, 329.2984
229.9371, 325.5322
230.4192, 323.4830
230.9013, 321.5357
231.3834, 319.6999
231.8656, 317.7746
232.3477, 315.1812
232.8298, 311.5388
233.3119, 307.7810
233.7940, 306.2972
234.2761, 308.1215
234.7583, 309.1429
235.2404, 307.5281
235.7225, 304.5651
236.2046, 302.5352
236.6867, 302.2761
237.1688, 302.9742
237.6510, 303.3347
238.1331, 303.4009
238.6152, 303.1681
239.0973, 302.2342
239.5794, 301.0194
240.0615, 300.5154
240.5437, 301.1600
241.0258, 302.2310
241.5079, 302.6713
241.9900, 302.4786
242.4721, 302.5559
242.9542, 303.5243
243.4364, 305.0521
243.9185, 306.2463
244.4006, 306.8037
244.8827, 307.2368
245.3648, 308.0092
245.8469, 309.0902
246.3290, 310.3816
246.8112, 312.1411
247.2933, 314.0990
247.7754, 315.4123
248.2575, 315.7605
248.7396, 315.7736
249.2217, 315.8923
249.7039, 316.0988
250.1860, 316.3430
250.6681, 316.4781
251.1502, 316.6065
251.6323, 317.1701
252.1144, 318.4287
252.5966, 319.7340
253.0787, 320.6603
253.5608, 321.3340
254.0429, 322.0560
254.5250, 323.0852
255.0071, 324.2962
255.4893, 325.1491
255.9714, 325.3023
256.4535, 325.6528
256.9356, 326.7155
257.4177, 328.1905
257.8998, 329.5817
258.3820, 330.5438
258.8641, 331.2552
259.3462, 332.4376
259.8283, 334.6736
260.3104, 336.3855
260.7925, 336.6364
261.2747, 336.2754
261.7568, 336.4509
262.2389, 337.8022
262.7210, 339.9156
263.2031, 341.6151
263.6852, 342.7593
264.1674, 343.6870
264.6495, 344.2374
265.1316, 344.7472
265.6137, 345.5923
266.0958, 346.9424
266.5779, 348.6234
267.0601, 350.2340
267.5422, 351.7535
268.0243, 353.2242
268.5064, 354.7106
268.9885, 356.1343
269.4706, 357.2057
269.9528, 357.8572
270.4349, 358.6481
270.9170, 360.7535
271.3991, 364.9873
271.8812, 368.9595
272.3633, 371.7885
272.8455, 374.7664
273.3276, 379.0529
273.8097, 384.8544
274.2918, 391.2802
274.7739, 396.9215
275.2560, 401.1143
275.7382, 405.9552
276.2202, 411.4238
276.7024, 417.4056
277.1845, 423.7717
277.6666, 430.5610
278.1487, 438.0237
278.6308, 446.7176
279.1129, 457.5214
279.5951, 466.3495
280.0772, 471.3781
280.5593, 476.3844
281.0414, 483.6284
281.5235, 492.9250
282.0056, 502.5034
282.4878, 510.5908
282.9699, 516.9330
283.4520, 523.9581
283.9341, 531.9896
284.4162, 540.3102
284.8983, 548.5996
285.3805, 556.9318
285.8626, 565.5983
286.3447, 574.8780
286.8268, 584.7253
287.3089, 594.4363
287.7910, 603.8136
288.2732, 613.2569
288.7553, 623.1808
289.2374, 633.2001
289.7195, 642.5355
290.2016, 650.7261
290.6837, 657.8414
291.1659, 664.4256
291.6480, 670.2595
292.1301, 675.7706
292.6122, 680.9867
293.0943, 685.9233
293.5764, 690.7780
294.0586, 695.6926
294.5407, 700.2023
295.0228, 703.0587
295.5049, 702.5916
295.9870, 702.4240
296.4691, 702.9930
296.9513, 703.7898
297.4334, 704.1201
297.9155, 703.7849
298.3976, 703.3749
298.8797, 703.8909
299.3618, 705.8826
299.8440, 707.8984
300.3261, 709.7260
300.8082, 711.6914
301.2903, 714.0490
301.7724, 716.8463
302.2545, 720.0039
302.7367, 723.3769
303.2188, 726.7603
303.7009, 731.4256
304.1830, 737.7996
304.6651, 744.9749
305.1472, 752.1508
305.6294, 759.4609
306.1115, 767.8623
306.5936, 778.2764
307.0757, 790.8719
307.5578, 803.2745
308.0399, 815.1582
308.5221, 827.2177
309.0042, 839.6518
309.4863, 852.5007
309.9684, 865.6068
310.4505, 878.7968
310.9326, 892.1766
311.4148, 906.1092
311.8969, 920.2786
312.3790, 935.3254
312.8611, 951.7892
313.3432, 969.1471
313.8253, 986.8666
314.3075, 1004.685
314.7896, 1022.388
315.2717, 1039.500
315.7538, 1055.470
316.2359, 1071.732
316.7180, 1088.098
317.2001, 1104.952
317.6823, 1122.973
318.1644, 1142.395
318.6465, 1162.228
319.1286, 1181.143
319.6107, 1198.940
320.0928, 1215.730
320.5750, 1231.619
321.0571, 1246.526
321.5392, 1260.385
322.0213, 1273.155
322.5034, 1285.052
322.9855, 1296.206
323.4677, 1306.710
323.9498, 1315.877
324.4319, 1324.280
324.9140, 1331.087
325.3961, 1336.046
325.8782, 1339.088
326.3604, 1340.180
326.8425, 1339.252
327.3246, 1336.350
327.8067, 1331.789
328.2888, 1325.128
328.7709, 1317.613
329.2531, 1310.011
329.7352, 1301.709
330.2173, 1291.377
330.6994, 1278.302
331.1815, 1263.583
331.6636, 1250.063
332.1458, 1240.012
332.6279, 1228.371
333.1100, 1214.217
333.5921, 1198.863
334.0742, 1182.987
334.5563, 1167.041
335.0385, 1151.889
335.5206, 1139.208
336.0027, 1131.038
336.4848, 1119.800
336.9669, 1103.711
337.4490, 1086.214
337.9312, 1069.257
338.4133, 1053.013
338.8954, 1037.033
339.3775, 1021.029
339.8596, 1005.076
340.3417, 987.6003
340.8239, 967.1400
341.3060, 946.9288
341.7881, 928.4395
342.2702, 911.0253
342.7523, 893.3456
343.2344, 874.6158
343.7166, 855.0684
344.1987, 836.0179
344.6808, 817.3979
345.1629, 799.3894
345.6450, 782.1744
346.1271, 765.6432
346.6093, 749.7037
347.0914, 734.4195
347.5735, 719.6505
348.0556, 705.3576
348.5377, 690.8395
349.0198, 678.1515
349.5020, 668.0059
349.9841, 658.8642
350.4662, 649.6839
350.9483, 640.4373
351.4304, 631.8758
351.9125, 624.9423
352.3947, 619.8627
352.8768, 614.9970
353.3589, 609.7001
353.8410, 605.2568
354.3231, 602.5976
354.8052, 601.1569
355.2874, 599.7050
355.7695, 597.3796
356.2516, 594.4086
356.7337, 592.0552
357.2158, 590.6610
357.6979, 589.4797
358.1800, 588.0893
358.6621, 586.9382
359.1443, 586.6896
359.6264, 587.5907
360.1085, 588.9800
360.5906, 589.7735
361.0727, 590.0784
361.5548, 589.4478
362.0370, 587.7004
362.5191, 585.1956
363.0012, 581.8073
363.4833, 577.6804
363.9654, 573.5618
364.4475, 570.5486
364.9297, 568.7970
365.4118, 565.4623
365.8939, 559.3394
366.3760, 552.8351
366.8581, 547.0540
367.3402, 541.6432
367.8224, 535.7659
368.3045, 528.8737
368.7866, 521.2823
369.2687, 513.8000
369.7508, 506.2395
370.2329, 499.2768
370.7151, 493.9977
371.1972, 488.9643
371.6793, 482.2802
372.1614, 473.2492
372.6435, 464.0877
373.1256, 457.9642
373.6078, 455.1444
374.0899, 451.6685
374.5720, 446.2353
375.0541, 440.2816
375.5362, 434.9019
376.0183, 430.0542
376.5005, 425.1441
376.9826, 419.5964
377.4647, 413.6284
377.9468, 408.1038
378.4289, 403.3467
378.9110, 398.4161
379.3932, 392.2085
379.8753, 385.4068
380.3574, 379.3950
380.8395, 375.1727
381.3216, 371.3915
381.8037, 366.3352
382.2859, 359.9707
382.7680, 353.5577
383.2501, 347.7025
383.7322, 342.0691
384.2143, 335.9547
384.6964, 329.1499
385.1786, 322.6853
385.6607, 317.6647
386.1428, 313.5042
386.6249, 308.4982
387.1070, 302.1014
387.5891, 295.2762
388.0713, 289.0101
388.5534, 283.2573
389.0355, 277.8192
389.5176, 272.8649
389.9997, 268.0778
390.4818, 263.1548
390.9640, 258.0636
391.4461, 252.9001
391.9282, 247.5420
392.4103, 242.2034
392.8924, 237.8423
393.3745, 235.1153
393.8567, 232.5448
394.3388, 229.8093
394.8209, 226.7980
395.3030, 223.2093
395.7851, 218.8381
396.2672, 214.1818
396.7494, 210.0373
397.2315, 206.4470
397.7136, 203.3780
398.1957, 200.8934
398.6778, 198.8590
399.1599, 197.4275
399.6420, 196.4607
400.1241, 195.2772
400.6063, 193.2237
401.0884, 190.2576
401.5705, 187.6237
402.0526, 185.3139
402.5347, 183.2883
403.0168, 181.5997
403.4990, 180.1746
403.9811, 178.9662
404.4632, 177.9614
404.9453, 177.0455
405.4274, 175.9174
405.9095, 174.2715
406.3917, 172.9578
406.8738, 172.1555
407.3559, 171.5484
407.8380, 170.9346
408.3201, 170.2765
408.8022, 169.6127
409.2844, 168.9200
409.7665, 168.1748
410.2486, 167.8427
410.7307, 168.4517
411.2128, 168.9100
411.6949, 168.8992
412.1771, 168.5244
412.6592, 167.9328
413.1413, 167.1557
413.6234, 166.3404
414.1055, 165.7771
414.5876, 165.4440
415.0698, 165.4310
415.5519, 166.1792
416.0340, 166.9760
416.5161, 167.2844
416.9982, 167.0607
417.4803, 166.7263
417.9625, 166.5476
418.4446, 166.5373
418.9267, 166.8357
419.4088, 167.6568
419.8909, 168.4140
420.3730, 168.5251
420.8552, 168.3109
421.3373, 168.4728
421.8194, 169.6270
422.3015, 170.8624
422.7836, 170.9063
423.2657, 169.7744
423.7479, 168.7478
424.2300, 168.2283
424.7121, 168.2012
425.1942, 168.6676
425.6763, 169.7467
426.1584, 170.6873
426.6406, 171.1140
427.1227, 171.2104
427.6048, 171.2896
428.0869, 171.4105
428.5690, 171.4130
429.0511, 170.9889
429.5333, 170.1801
430.0154, 170.1387
430.4975, 171.6526
430.9796, 173.1975
431.4617, 173.8714
431.9438, 173.8847
432.4260, 173.8291
432.9081, 173.9715
433.3902, 174.2424
433.8723, 174.4828
434.3544, 174.7039
434.8365, 174.8667
435.3187, 174.5351
435.8008, 174.4316
436.2829, 175.4465
436.7650, 177.4874
437.2471, 179.5029
437.7292, 180.4955
438.2114, 180.4434
438.6935, 180.3718
439.1756, 180.1904
439.6577, 180.0923
440.1398, 179.9821
440.6219, 180.0286
441.1040, 180.5713
441.5862, 181.7472
442.0683, 183.1172
442.5504, 183.8074
443.0325, 183.5320
443.5146, 183.4630
443.9967, 183.9236
444.4789, 184.4280
444.9610, 184.8437
445.4431, 185.0977
445.9252, 185.0390
446.4073, 184.3908
446.8894, 183.3655
447.3716, 182.9248
447.8537, 183.4918
448.3358, 183.5785
448.8179, 182.1684
449.3000, 180.0850
449.7821, 178.0903
450.2643, 176.2988
450.7464, 174.7930
451.2285, 173.8308
451.7106, 173.2782
452.1927, 172.5412
452.6748, 171.5908
453.1570, 170.2561
453.6391, 168.1488
454.1212, 165.4322
454.6033, 162.7766
455.0854, 160.5808
455.5675, 158.3441
456.0497, 155.4134
456.5318, 151.9297
457.0139, 148.7520
457.4960, 146.4067
457.9781, 144.5366
458.4602, 142.1093
458.9424, 138.7407
459.4245, 135.7128
459.9066, 133.5916
460.3887, 131.7361
460.8708, 129.3766
461.3529, 126.4610
461.8351, 123.6224
462.3172, 121.4558
462.7993, 119.9962
463.2814, 118.5239
463.7635, 117.0976
464.2456, 115.5932
464.7278, 113.9636
465.2099, 112.2277
465.6920, 110.4195
466.1741, 108.5431
466.6562, 106.5971
467.1383, 104.5121
467.6205, 102.0882
468.1026, 100.0996
468.5847, 98.85299
469.0668, 97.79878
469.5489, 96.71889
470.0310, 95.63281
470.5132, 94.68851
470.9953, 94.05531
471.4774, 93.54804
471.9595, 92.64960
472.4416, 91.25850
472.9237, 89.85627
473.4059, 88.44292
473.8880, 87.21294
474.3701, 86.41373
474.8522, 86.08921
475.3343, 85.85497
475.8164, 85.46115
476.2986, 84.97743
476.7807, 84.67233
477.2628, 84.66031
477.7449, 84.35452
478.2270, 83.05994
478.7091, 81.07064
479.1913, 79.67012
479.6734, 79.27692
480.1555, 79.09050
480.6376, 78.76942
481.1197, 78.35064
481.6018, 77.86871
482.0839, 77.32430
482.5660, 76.85632
483.0482, 76.70644
483.5303, 77.06762
484.0124, 77.00553
484.4945, 76.22475
484.9766, 75.32732
485.4587, 74.61797
485.9409, 74.05428
486.4230, 73.45625
486.9051, 72.71507
487.3872, 71.90170
487.8693, 71.22901
488.3514, 70.73904
488.8336, 70.31016
489.3157, 70.07360
489.7978, 69.77714
490.2799, 69.16587
490.7620, 68.29762
491.2441, 67.49655
491.7263, 67.03972
492.2084, 66.86649
492.6905, 66.70306
493.1726, 66.58402
493.6547, 66.39295
494.1368, 66.01765
494.6190, 65.57909
495.1011, 65.20609
495.5832, 64.93042
496.0653, 64.64828
496.5474, 64.33388
497.0295, 63.95499
497.5117, 63.30518
497.9938, 62.23908
498.4759, 61.40508
498.9580, 61.64145
499.4401, 62.64415
499.9222, 62.78566
500.4044, 61.06127
500.8865, 59.39124
501.3686, 58.87600
501.8507, 59.11197
502.3328, 59.30161
502.8149, 59.17980
503.2971, 58.83924
503.7792, 58.40727
504.2613, 57.87911
504.7434, 57.24217
505.2255, 56.18933
505.7076, 55.34130
506.1898, 55.10709
506.6719, 55.29261
507.1540, 55.51208
507.6361, 55.56975
508.1182, 55.47861
508.6003, 55.25174
509.0825, 54.83499
509.5646, 54.42659
510.0467, 54.00800
510.5288, 53.63546
511.0109, 53.37161
511.4930, 53.18822
511.9752, 52.97916
512.4573, 52.63683
512.9394, 52.25066
513.4215, 52.06933
513.9036, 52.13838
514.3857, 52.11119
514.8679, 51.76141
515.3500, 51.31635
515.8321, 51.09170
516.3142, 51.12018
516.7963, 51.12251
517.2784, 50.94899
517.7606, 50.69218
518.2427, 50.46490
518.7248, 50.27984
519.2069, 50.16410
519.6890, 50.19404
520.1711, 50.28683
520.6533, 50.01387
521.1354, 48.94215
521.6175, 48.13758
522.0996, 47.89626
522.5817, 47.93441
523.0638, 48.01600
523.5460, 48.07938
524.0281, 48.13626
524.5102, 48.20420
524.9923, 48.28101
525.4744, 48.29495
525.9565, 48.44358
526.4387, 48.24247
526.9208, 47.21124
527.4029, 46.00011
527.8850, 45.33183
528.3671, 45.37453
528.8492, 45.65789
529.3314, 45.66783
529.8135, 45.44953
530.2956, 45.51534
530.7777, 46.10214
531.2598, 46.53857
531.7419, 46.28993
532.2241, 45.63964
532.7062, 44.95995
533.1883, 44.15786
533.6704, 43.66574
534.1525, 44.03759
534.6346, 44.91330
535.1168, 45.42019
535.5989, 45.34435
536.0810, 45.07277
536.5631, 45.00618
537.0452, 45.15709
537.5273, 45.07435
538.0095, 44.41111
538.4916, 43.92190
538.9737, 44.01348
539.4558, 44.41068
539.9379, 44.73418
540.4200, 44.84981
540.9022, 44.79497
541.3843, 44.58175
541.8664, 44.15171
542.3485, 43.89579
542.8306, 43.94638
543.3127, 44.03942
543.7948, 44.25859
544.2769, 44.41864
544.7590, 44.15617
545.2411, 43.27994
545.7233, 42.36722
546.2054, 42.30643
546.6875, 43.01800
547.1696, 43.25358
547.6517, 42.58384
548.1339, 41.86521
548.6160, 41.97995
549.0981, 42.64012
549.5802, 43.04259
550.0623, 42.77698
550.5444, 42.49257
551.0266, 42.66469
551.5087, 43.12857
551.9908, 43.55393
552.4729, 43.84805
552.9550, 43.94490
553.4371, 43.73497
553.9193, 43.15380
554.4014, 42.64260
554.8835, 41.94041
555.3656, 41.58192
555.8477, 42.05822
556.3298, 42.90227
556.8120, 43.40398
557.2941, 43.31275
557.7762, 42.96973
558.2583, 42.87927
558.7404, 43.09136
559.2225, 43.11644
559.7047, 42.65452
560.1868, 42.39198
560.6689, 42.96941
561.1510, 43.86051
561.6331, 44.09748
562.1152, 43.19614
562.5974, 42.12425
563.0795, 41.82771
563.5616, 42.11299
564.0437, 42.28788
564.5258, 42.21455
565.0079, 42.01898
565.4901, 41.77980
565.9722, 41.50475
566.4543, 41.30595
566.9364, 41.04075
567.4185, 41.01214
567.9006, 41.59387
568.3828, 42.38414
568.8649, 42.74388
569.3470, 42.54004
569.8291, 42.25687
570.3112, 42.51573
570.7933, 43.37748
571.2755, 43.68133
571.7576, 42.80033
572.2397, 42.13984
572.7218, 42.22112
573.2039, 42.59707
573.6860, 42.72591
574.1682, 42.47889
574.6503, 42.21458
575.1324, 42.33966
575.6145, 42.74901
576.0966, 42.98343
576.5787, 43.00993
577.0609, 42.87612
577.5430, 42.55198
578.0251, 42.09872
578.5072, 41.62576
578.9893, 40.94628
579.4714, 40.67409
579.9536, 41.39131
580.4357, 42.46264
580.9178, 43.13761
581.3999, 43.32500
581.8820, 43.29473
582.3641, 43.24138
582.8463, 43.15232
583.3284, 42.94633
583.8105, 42.41154
584.2926, 42.07174
584.7747, 41.97007
585.2568, 42.06132
585.7390, 42.43797
586.2211, 43.00855
586.7032, 43.44783
587.1853, 43.49428
587.6674, 43.26569
588.1495, 43.02583
588.6317, 42.74208
589.1138, 42.65814
589.5959, 42.92347
590.0780, 43.36357
590.5601, 43.81479
591.0422, 44.27709
591.5244, 44.59960
592.0065, 44.69148
592.4886, 44.65778
592.9707, 44.44522
593.4528, 44.16796
593.9349, 44.25165
594.4171, 44.91658
594.8992, 45.78127
595.3813, 46.17434
595.8634, 45.94150
596.3455, 45.67524
596.8276, 45.13231
597.3098, 44.81286
597.7919, 45.15737
598.2740, 45.80935
598.7561, 46.12946
599.2382, 45.84652
599.7203, 45.37149
600.2025, 45.26413
600.6846, 45.51387
601.1667, 45.74154
601.6488, 45.91817
602.1309, 46.05214
602.6130, 46.11831
603.0952, 46.14957
603.5773, 46.20227
604.0594, 46.24833
604.5415, 46.38465
605.0236, 46.82304
605.5057, 47.32174
605.9879, 47.47373
606.4700, 47.23090
606.9521, 46.84032
607.4342, 46.47864
607.9163, 46.16002
608.3984, 45.99267
608.8806, 46.09878
609.3627, 46.19561
609.8448, 46.25232
610.3269, 46.29603
610.8090, 46.34229
611.2911, 46.39570
611.7733, 46.46607
612.2554, 46.58791
612.7375, 46.70617
613.2196, 46.58855
613.7017, 46.17897
614.1838, 46.18309
614.6660, 47.08828
615.1481, 48.16180
615.6302, 48.47504
616.1123, 48.08803
616.5944, 47.79545
617.0765, 47.75278
617.5587, 47.85992
618.0408, 48.22260
618.5229, 48.66187
619.0050, 48.62662
619.4871, 47.94448
619.9692, 47.40893
620.4514, 48.27350
620.9335, 50.90144
621.4156, 52.16635
621.8977, 50.76649
622.3798, 49.49577
622.8619, 49.02486
623.3441, 49.07745
623.8262, 49.45850
624.3083, 50.09950
624.7904, 50.59093
625.2725, 50.37128
625.7546, 49.75619
626.2367, 49.71719
626.7188, 50.35802
627.2009, 50.90525
627.6830, 50.91975
628.1652, 50.61962
628.6473, 50.47585
629.1294, 50.46273
629.6115, 50.63758
630.0936, 51.30328
630.5757, 51.90885
631.0579, 51.86464
631.5400, 51.42195
632.0221, 51.28193
632.5042, 51.80177
632.9863, 52.74891
633.4684, 53.85315
633.9506, 55.31899
634.4327, 55.88380
634.9148, 54.64762
635.3969, 53.55738
635.8790, 53.66566
636.3611, 54.52651
636.8433, 55.40461
637.3254, 56.14899
637.8075, 56.77426
638.2896, 57.33597
638.7717, 57.76849
639.2538, 57.79025
639.7360, 57.38995
640.2181, 57.26155
640.7002, 57.95300
641.1823, 59.24813
641.6644, 60.27639
642.1465, 61.04177
642.6287, 61.49811
643.1108, 61.32870
643.5929, 61.12291
644.0750, 61.13970
644.5571, 61.46761
645.0392, 62.28165
645.5214, 63.78842
646.0035, 65.44893
646.4856, 66.18269
646.9677, 65.99515
647.4498, 66.25436
647.9319, 67.35291
648.4141, 68.61446
648.8962, 69.44466
649.3783, 69.97417
649.8604, 70.67165
650.3425, 71.70610
650.8246, 72.73103
651.3068, 73.58537
651.7889, 74.36485
652.2710, 75.12969
652.7531, 75.91982
653.2352, 76.87245
653.7173, 78.14055
654.1995, 79.57845
654.6816, 80.50949
655.1637, 80.54356
655.6458, 80.99966
656.1279, 82.44578
656.6100, 84.08004
657.0922, 85.47171
657.5743, 86.66626
658.0564, 87.87704
658.5385, 89.11312
659.0206, 90.50834
659.5027, 92.33987
659.9849, 94.42855
660.4670, 96.23003
660.9491, 97.60547
661.4312, 98.97890
661.9133, 100.7845
662.3954, 102.9760
662.8776, 104.8408
663.3597, 105.8362
663.8418, 107.2192
664.3239, 109.4535
664.8060, 111.8712
665.2881, 113.8864
665.7703, 115.5396
666.2524, 117.2647
666.7345, 119.3374
667.2166, 121.6590
667.6987, 124.2691
668.1808, 127.1448
668.6630, 129.3257
669.1451, 130.3419
669.6272, 131.1619
670.1093, 132.6921
670.5914, 134.8999
671.0735, 137.0727
671.5557, 139.3048
672.0378, 141.3683
672.5199, 142.9344
673.0020, 144.4213
673.4841, 146.4279
673.9662, 148.9187
674.4484, 151.3075
674.9305, 153.1829
675.4126, 154.5743
675.8947, 155.4621
676.3768, 155.6479
676.8589, 156.2207
677.3411, 157.5783
677.8232, 159.2025
678.3053, 160.7144
678.7874, 162.1385
679.2695, 163.5630
679.7516, 165.2865
680.2338, 166.6648
680.7159, 167.1729
681.1980, 167.1459
681.6801, 167.0635
682.1622, 167.0286
682.6443, 167.0303
683.1265, 167.1152
683.6086, 167.1563
684.0907, 166.4798
684.5728, 164.6731
685.0549, 163.0525
685.5370, 161.9694
686.0192, 160.9694
686.5013, 159.7264
686.9834, 158.3504
687.4655, 157.2042
687.9476, 156.5515
688.4297, 155.9420
688.9119, 155.0774
689.3940, 153.9404
689.8761, 152.4224
690.3582, 150.5057
690.8403, 148.4748
691.3224, 146.4873
691.8046, 144.6013
692.2867, 143.0748
692.7688, 142.3866
693.2509, 141.2838
693.7330, 139.4744
694.2151, 137.5004
694.6973, 135.5372
695.1794, 133.6788
695.6615, 132.1436
696.1436, 131.1420
696.6257, 130.0819
697.1078, 127.9870
697.5900, 125.2676
698.0721, 123.5167
698.5542, 123.0358
699.0363, 122.4013
699.5184, 120.4309
700.0005, 117.7351
700.4827, 116.5261
700.9648, 118.6541
701.4469, 119.2406
701.9290, 116.7464
702.4111, 114.0866
702.8932, 113.1053
703.3754, 113.2901
703.8575, 113.3359
704.3396, 112.7096
704.8217, 111.7786
705.3038, 110.8441
705.7859, 109.9650
706.2681, 109.5256
706.7502, 109.6393
707.2323, 109.5966
707.7144, 108.9417
708.1965, 107.9282
708.6786, 107.1224
709.1607, 106.5467
709.6428, 106.0973
710.1249, 105.7937
710.6071, 105.5856
711.0892, 105.5088
711.5713, 105.4881
712.0534, 105.3992
712.5355, 105.2020
713.0176, 104.9837
713.4998, 104.8825
713.9819, 104.8556
714.4640, 104.6120
714.9461, 104.0967
715.4282, 103.7309
715.9103, 103.7930
716.3925, 103.9880
716.8746, 103.8066
717.3567, 103.1890
717.8388, 102.7701
718.3209, 102.7519
718.8030, 102.7806
719.2852, 102.6074
719.7673, 102.4159
720.2494, 102.5597
720.7315, 103.0607
721.2136, 103.4784
721.6957, 103.3468
722.1779, 102.8403
722.6600, 102.6296
723.1421, 102.7637
723.6242, 102.7202
724.1063, 102.2182
724.5884, 101.6953
725.0706, 101.6316
725.5527, 102.0016
726.0348, 102.4495
726.5169, 103.0597
726.9990, 103.6211
727.4811, 104.2061
727.9633, 104.6193
728.4454, 104.4347
728.9275, 103.7964
729.4096, 103.4534
729.8917, 103.9689
730.3738, 104.9550
730.8560, 105.5665
731.3381, 105.7884
731.8202, 106.1718
732.3023, 106.8931
732.7844, 107.5634
733.2665, 107.7783
733.7487, 107.7202
734.2308, 108.0858
734.7129, 109.1196
735.1950, 110.1052
735.6771, 111.0418
736.1592, 111.7615
736.6414, 111.8855
737.1235, 111.7092
737.6056, 111.9672
738.0877, 113.0017
738.5698, 114.3575
739.0519, 115.4214
739.5341, 116.2269
740.0162, 117.1215
740.4983, 118.1512
740.9804, 119.1118
741.4625, 119.8967
741.9446, 120.5534
742.4268, 121.1434
742.9089, 121.6419
743.3910, 122.2059
743.8731, 122.8022
744.3552, 123.5155
744.8373, 124.3619
745.3195, 125.3619
745.8016, 126.6190
746.2837, 128.1096
746.7658, 129.5666
747.2479, 130.7428
747.7300, 131.7055
748.2122, 132.6856
748.6943, 133.6892
749.1764, 134.3072
749.6585, 134.2900
750.1406, 134.1975
750.6227, 134.5555
751.1049, 135.3655
751.5870, 136.4953
752.0691, 138.7349
752.5512, 140.2032
753.0333, 139.6584
753.5154, 138.9296
753.9976, 139.7681
754.4797, 141.8485
754.9618, 143.6050
755.4439, 144.1669
755.9260, 144.3551
756.4081, 145.2959
756.8903, 146.8013
757.3724, 148.0329
757.8545, 148.8730
758.3366, 149.7855
758.8187, 151.1013
759.3008, 152.6186
759.7830, 153.7978
760.2651, 154.2258
760.7472, 155.3196
761.2293, 157.7453
761.7114, 160.0422
762.1935, 161.5186
762.6757, 162.5567
763.1578, 163.6091
763.6399, 164.7966
764.1220, 166.2859
764.6041, 168.4715
765.0862, 170.8735
765.5684, 172.5966
766.0505, 173.8228
766.5326, 175.4841
767.0147, 177.9001
767.4968, 180.5517
767.9789, 182.8466
768.4611, 184.8191
768.9432, 186.9028
769.4253, 189.2020
769.9074, 191.4468
770.3895, 193.2088
770.8716, 195.2444
771.3538, 198.5524
771.8359, 202.5794
772.3180, 205.4334
772.8001, 205.7723
773.2822, 206.3266
773.7643, 209.2256
774.2465, 213.3484
774.7286, 217.2603
775.2107, 220.7533
775.6928, 223.9616
776.1749, 226.9830
776.6570, 229.6974
777.1392, 231.6179
777.6213, 232.4765
778.1034, 234.6480
778.5855, 238.9346
779.0676, 243.0131
779.5497, 245.5691
780.0319, 247.5319
780.5140, 250.1260
780.9961, 253.4518
781.4782, 256.5303
781.9603, 259.1390
782.4424, 261.4191
782.9246, 263.3745
783.4067, 265.0990
783.8888, 266.5772
784.3709, 267.8964
784.8530, 269.4338
785.3351, 271.5056
785.8173, 273.9742
786.2994, 276.6583
786.7815, 279.5493
787.2636, 281.7353
787.7457, 282.8144
788.2278, 283.9305
788.7100, 285.9108
789.1921, 288.6149
789.6742, 291.4940
790.1563, 295.0641
790.6384, 297.8798
791.1205, 299.1363
791.6026, 300.3579
792.0847, 302.5378
792.5668, 305.2332
793.0490, 307.5238
793.5311, 309.1493
794.0132, 311.0096
794.4953, 314.2613
794.9774, 318.0358
795.4595, 320.6839
795.9417, 322.3448
796.4238, 323.7790
796.9059, 325.1962
797.3880, 327.1484
797.8701, 330.3016
798.3522, 334.6021
798.8344, 338.9665
799.3165, 343.9156
799.7986, 347.9402
800.2807, 349.5674
800.7628, 351.2914
801.2449, 354.8456
801.7271, 359.6523
802.2092, 363.9380
802.6913, 366.9067
803.1734, 370.2648
803.6555, 374.7611
804.1376, 380.1423
804.6198, 386.6610
805.1019, 393.7858
805.5840, 400.1424
806.0661, 405.1148
806.5482, 409.8203
807.0303, 415.8554
807.5125, 423.0483
807.9946, 429.5319
808.4767, 435.1776
808.9588, 440.9291
809.4409, 446.8047
809.9230, 453.3632
810.4052, 461.6132
810.8873, 471.5446
811.3694, 480.2321
811.8515, 486.1491
812.3336, 492.8649
812.8157, 501.3442
813.2979, 510.6333
813.7800, 519.9188
814.2621, 529.2672
814.7442, 539.0978
815.2263, 549.5450
815.7084, 560.5682
816.1906, 572.4291
816.6727, 584.6094
817.1548, 595.8868
817.6369, 606.3124
818.1190, 616.7719
818.6011, 627.6148
819.0833, 639.1103
819.5654, 651.7675
820.0475, 665.6603
820.5296, 679.1746
821.0117, 692.4603
821.4938, 705.2458
821.9760, 716.6122
822.4581, 728.1544
822.9402, 741.4984
823.4223, 756.2050
823.9044, 770.0735
824.3865, 781.9612
824.8687, 793.9715
825.3508, 807.0029
825.8329, 820.5411
826.3150, 834.1246
826.7971, 847.7170
827.2792, 861.5091
827.7614, 875.6552
828.2435, 889.5250
828.7256, 902.2667
829.2077, 914.1110
829.6898, 925.8993
830.1719, 937.5919
830.6541, 949.3182
831.1362, 961.1600
831.6183, 972.7664
832.1004, 983.7305
832.5825, 994.0061
833.0646, 1004.709
833.5468, 1016.791
834.0289, 1027.677
834.5110, 1036.494
834.9931, 1044.561
835.4752, 1052.335
835.9573, 1060.123
836.4395, 1068.684
836.9216, 1078.482
837.4037, 1088.146
837.8858, 1097.425
838.3679, 1105.908
838.8500, 1112.192
839.3322, 1117.447
839.8143, 1124.830
840.2964, 1135.288
840.7785, 1146.454
841.2606, 1155.534
841.7427, 1163.156
842.2249, 1171.622
842.7070, 1180.877
843.1891, 1191.264
843.6712, 1203.235
844.1533, 1214.782
844.6354, 1223.594
845.1176, 1230.581
845.5997, 1240.226
846.0818, 1255.313
846.5639, 1268.578
847.0460, 1278.948
847.5281, 1288.760
848.0103, 1298.570
848.4924, 1308.818
848.9745, 1320.237
849.4566, 1332.970
849.9387, 1345.809
850.4208, 1359.741
850.9030, 1372.121
851.3851, 1379.711
851.8672, 1384.339
852.3493, 1389.050
852.8314, 1394.672
853.3135, 1401.611
853.7957, 1410.396
854.2778, 1419.755
854.7599, 1427.021
855.2420, 1432.206
855.7241, 1434.824
856.2062, 1434.474
856.6884, 1433.247
857.1705, 1432.429
857.6526, 1431.208
858.1347, 1428.204
858.6168, 1423.555
859.0989, 1416.402
859.5811, 1404.319
860.0632, 1392.929
860.5453, 1385.724
861.0274, 1378.006
861.5095, 1365.310
861.9916, 1348.027
862.4738, 1329.644
862.9559, 1311.036
863.4380, 1291.953
863.9201, 1272.779
864.4022, 1252.734
864.8843, 1230.351
865.3665, 1206.235
865.8486, 1183.215
866.3307, 1162.447
866.8128, 1141.683
867.2949, 1117.970
867.7770, 1092.080
868.2592, 1066.775
868.7413, 1042.092
869.2234, 1019.350
869.7055, 999.2338
870.1876, 979.4265
870.6697, 957.8216
871.1519, 934.8348
871.6340, 913.0800
872.1161, 893.4555
872.5981, 873.3242
873.0803, 851.5961
873.5624, 830.5715
874.0445, 811.5448
874.5266, 793.7149
875.0087, 775.5084
875.4908, 756.7842
875.9730, 738.9105
876.4551, 722.5519
876.9372, 707.0968
877.4193, 692.7225
877.9014, 678.7311
878.3835, 664.0476
878.8657, 648.7484
879.3478, 633.7787
879.8299, 619.7482
880.3120, 606.0909
880.7941, 591.6169
881.2762, 576.8503
881.7584, 563.8040
882.2405, 552.5182
882.7226, 541.3998
883.2047, 529.7509
883.6868, 518.2495
884.1689, 507.9129
884.6511, 498.6909
885.1332, 489.7188
885.6153, 481.2894
886.0974, 472.2355
886.5795, 462.0097
887.0616, 451.4589
887.5438, 440.6238
888.0259, 429.9232
888.5080, 420.6575
888.9901, 413.7375
889.4722, 406.1394
889.9543, 396.4132
890.4365, 386.9697
890.9186, 379.2969
891.4007, 372.5845
891.8828, 365.7358
892.3649, 358.5508
892.8470, 351.6043
893.3292, 345.4766
893.8113, 339.3813
894.2934, 332.3193
894.7755, 324.8984
895.2576, 318.3526
895.7397, 312.6886
896.2219, 306.9589
896.7040, 300.6922
897.1861, 294.3722
897.6682, 288.7762
898.1503, 283.8336
898.6324, 278.7972
899.1146, 273.6646
899.5967, 268.5949
900.0788, 263.6180
900.5609, 258.7093
901.0430, 253.8672
901.5251, 249.0583
902.0073, 244.0473
902.4894, 238.4020
902.9715, 233.4018
903.4536, 229.6292
903.9357, 225.8987
904.4178, 221.5693
904.9000, 217.0456
905.3821, 212.9956
905.8642, 209.5167
906.3463, 205.8087
906.8284, 201.1118
907.3105, 196.8523
907.7927, 194.1118
908.2748, 191.8767
908.7569, 189.1615
909.2390, 185.9282
909.7211, 182.4675
910.2032, 178.8755
910.6854, 175.3623
911.1675, 172.1498
911.6496, 169.1031
912.1317, 166.0618
912.6138, 163.0050
913.0959, 159.7295
913.5781, 156.2243
914.0602, 153.1121
914.5423, 151.0407
915.0244, 149.6588
915.5065, 147.8359
915.9886, 145.5644
916.4708, 143.5108
916.9529, 141.7985
917.4350, 139.9934
917.9171, 137.8410
918.3992, 135.4585
918.8813, 133.0353
919.3635, 130.5412
919.8456, 128.1093
920.3277, 125.8156
920.8098, 123.4599
921.2919, 120.7116
921.7740, 118.1493
922.2562, 116.3570
922.7383, 115.0847
923.2204, 113.5407
923.7025, 111.4158
924.1846, 109.5859
924.6667, 108.3931
925.1489, 107.4270
925.6310, 106.7745
926.1131, 106.0205
926.5952, 104.4677
927.0773, 102.1484
927.5594, 99.99876
928.0416, 98.68684
928.5237, 97.51119
929.0058, 95.77787
929.4879, 93.77223
929.9700, 91.78291
930.4521, 89.94191
930.9343, 88.57670
931.4164, 87.81570
931.8985, 87.32883
932.3806, 86.88359
932.8627, 86.35281
933.3448, 85.10292
933.8270, 83.23959
934.3091, 82.05926
934.7912, 81.89129
935.2733, 81.61034
935.7554, 80.37766
936.2375, 78.60256
936.7197, 77.25692
937.2018, 76.38973
937.6839, 75.68518
938.1660, 75.20168
938.6481, 74.73806
939.1302, 74.29603
939.6124, 73.75517
940.0945, 72.97416
940.5766, 71.97229
941.0587, 70.91553
941.5408, 69.60769
942.0229, 68.54054
942.5051, 67.73428
942.9872, 67.17489
943.4693, 66.99355
943.9514, 66.98193
944.4335, 66.97636
944.9156, 66.93188
945.3978, 66.47404
945.8799, 65.08766
946.3620, 63.72925
946.8441, 63.02570
947.3262, 62.49652
947.8083, 61.51413
948.2905, 60.28498
948.7726, 59.46111
949.2547, 59.28429
949.7368, 59.37115
950.2189, 59.63492
950.7010, 59.80298
951.1832, 59.31524
951.6653, 58.47343
952.1474, 58.11134
952.6295, 58.29496
953.1116, 58.33928
953.5938, 57.79351
954.0759, 56.94287
954.5580, 56.18345
955.0400, 55.52987
955.5222, 55.13799
956.0043, 54.99986
956.4864, 54.65430
956.9685, 53.92097
957.4506, 53.22058
957.9327, 52.98995
958.4149, 53.10173
958.8970, 53.03088
959.3791, 52.75577
959.8612, 52.38546
960.3433, 51.86734
960.8254, 51.42037
961.3076, 51.17929
961.7897, 51.01896
962.2718, 50.71798
962.7539, 50.26691
963.2360, 50.18900
963.7181, 51.10260
964.2003, 51.42835
964.6824, 50.66878
965.1645, 49.68180
965.6466, 48.68072
966.1287, 47.84363
966.6108, 47.54700
967.0930, 47.88969
967.5751, 48.03999
968.0572, 47.69232
968.5393, 47.28600
969.0214, 46.93417
969.5035, 46.64962
969.9857, 46.52999
970.4678, 46.47202
970.9499, 46.17632
971.4320, 45.50460
971.9141, 44.95649
972.3962, 44.99256
972.8784, 45.11466
973.3605, 44.80080
973.8426, 44.31632
974.3247, 44.19189
974.8068, 44.39184
975.2889, 44.34746
975.7711, 43.69426
976.2532, 42.98215
976.7353, 42.92283
977.2174, 43.17713
977.6995, 43.15755
978.1816, 42.87668
978.6638, 42.44732
979.1459, 41.92483
979.6280, 41.48070
980.1101, 41.25950
980.5922, 41.18223
981.0743, 41.14906
981.5565, 41.13039
982.0386, 40.93117
982.5207, 40.54083
983.0028, 40.03926
983.4849, 39.44719
983.9670, 38.85553
984.4492, 38.33689
984.9313, 37.92976
985.4134, 37.88544
985.8955, 38.28312
986.3776, 38.42891
986.8597, 38.20705
987.3419, 37.89943
987.8240, 37.61242
988.3061, 37.36953
988.7882, 37.24401
989.2703, 37.23419
989.7524, 36.89537
990.2346, 35.83209
990.7167, 35.35042
991.1988, 36.08600
991.6809, 36.75196
992.1630, 36.48358
992.6451, 35.75964
993.1273, 35.41355
993.6094, 35.48209
994.0915, 35.65855
994.5736, 36.53078
995.0557, 36.68607
995.5378, 34.87223
996.0200, 33.22053
996.5021, 33.66922
996.9842, 35.15986
997.4663, 35.34009
997.9484, 33.66227
998.4305, 32.49176
998.9127, 32.80068
999.3948, 33.25410
999.8769, 33.48663
1000.359, 33.44289
1000.841, 32.90649
1001.323, 32.09383
1001.805, 31.53068
1002.287, 31.38316
1002.770, 31.37838
1003.252, 31.49397
1003.734, 31.57697
1004.216, 31.38460
1004.698, 31.17300
1005.180, 31.42063
1005.662, 31.99352
1006.144, 32.22773
1006.627, 31.79489
1007.109, 31.29860
1007.591, 31.18398
1008.073, 31.31893
1008.555, 31.79113
1009.037, 32.30479
1009.519, 32.17455
1010.001, 31.42967
1010.483, 30.80311
1010.966, 30.72323
1011.448, 30.86685
1011.930, 30.85095
1012.412, 30.78893
1012.894, 31.05685
1013.376, 31.47499
1013.858, 31.27130
1014.340, 30.37446
1014.823, 29.75390
1015.305, 30.14670
1015.787, 29.57498
1016.269, 29.49124
1016.751, 29.57022
1017.233, 29.30344
1017.715, 29.69824
1018.197, 29.94806
1018.679, 29.82595
1019.162, 29.62625
1019.644, 29.58798
1020.126, 29.63466
1020.608, 29.62935
1021.090, 29.56367
1021.572, 29.23254
1022.054, 28.61423
1022.536, 28.28237
1023.018, 28.43827
1023.501, 28.78858
1023.983, 29.11139
1024.465, 29.35046
1024.947, 29.29049
1025.429, 28.90136
1025.911, 28.57450
1026.393, 28.33199
1026.875, 28.06641
1027.358, 27.68077
1027.840, 27.47314
1028.322, 27.80246
1028.804, 28.49107
1029.286, 28.79708
1029.768, 28.65882
1030.250, 28.35505
1030.732, 27.75528
1031.214, 27.38436
1031.697, 27.51583
1032.179, 27.79079
1032.661, 27.83963
1033.143, 27.72229
1033.625, 27.75265
1034.107, 28.02625
1034.589, 28.22157
1035.071, 28.43977
1035.553, 28.37177
1036.036, 27.65242
1036.518, 26.89454
1037.000, 26.76038
1037.482, 27.14346
1037.964, 27.42614
1038.446, 27.59459
1038.928, 27.68665
1039.410, 27.73996
1039.893, 27.66403
1040.375, 27.24138
1040.857, 26.82388
1041.339, 26.85443
1041.821, 27.22168
1042.303, 27.30555
1042.785, 26.81033
1043.267, 26.58861
1043.750, 27.05137
1044.232, 27.32358
1044.714, 26.91811
1045.196, 26.32169
1045.678, 25.94399
1046.160, 25.79350
1046.642, 25.83234
1047.124, 26.23194
1047.606, 26.42318
1048.089, 26.10138
1048.571, 25.84061
1049.053, 26.01680
1049.535, 26.24802
1050.017, 26.07154
1050.499, 25.59962
1050.981, 25.36846
1051.463, 25.55850
1051.945, 25.73255
1052.428, 25.86020
1052.910, 25.87934
1053.392, 25.69767
1053.874, 25.44493
1054.356, 25.19767
1054.838, 24.99467
1055.320, 24.92466
1055.802, 25.01796
1056.285, 25.20035
1056.767, 25.68911
1057.249, 25.97460
1057.731, 25.52262
1058.213, 24.97069
1058.695, 25.09594
1059.177, 25.67767
1059.659, 25.87460
1060.141, 25.40339
1060.624, 24.97428
1061.106, 24.84540
1061.588, 24.80386
1062.070, 24.72452
1062.552, 24.69182
1063.034, 24.93056
1063.516, 25.27059
1063.998, 25.20836
1064.480, 24.55915
1064.963, 24.02558
1065.445, 23.99274
1065.927, 24.01453
1066.409, 23.82533
1066.891, 23.60623
1067.373, 23.52482
1067.855, 23.57008
1068.337, 23.67685
1068.820, 23.83086
1069.302, 24.01909
1069.784, 24.27423
1070.266, 24.51473
1070.748, 24.81426
1071.230, 24.97980
1071.712, 24.75381
1072.194, 24.28019
1072.677, 23.84241
1073.159, 23.50741
1073.641, 23.29299
1074.123, 23.39658
1074.605, 23.38041
1075.087, 22.81251
1075.569, 22.22028
1076.051, 22.02216
1076.533, 22.16321
1077.016, 22.57867
1077.498, 23.20850
1077.980, 23.61410
1078.462, 23.45192
1078.944, 23.25936
1079.426, 23.34015
1079.908, 23.45290
1080.390, 23.38329
1080.872, 23.21968
1081.354, 23.09812
1081.837, 23.04886
1082.319, 23.08145
1082.801, 23.25662
1083.283, 23.40204
1083.765, 23.56423
1084.247, 23.53518
1084.729, 22.83841
1085.211, 22.05377
1085.694, 22.16352
1086.176, 23.02744
1086.658, 23.40639
1087.140, 22.73207
1087.622, 21.99351
1088.104, 21.36701
1088.586, 21.07169
1089.068, 21.49446
1089.551, 22.14934
1090.033, 22.49472
1090.515, 22.54498
1090.997, 22.58605
1091.479, 22.72653
1091.961, 22.71478
1092.443, 22.28967
1092.925, 21.89137
1093.407, 21.73008
1093.890, 21.72362
1094.372, 21.85700
1094.854, 22.05463
1095.336, 22.15680
1095.818, 22.11975
1096.300, 22.09945
1096.782, 22.22325
1097.264, 22.27000
1097.746, 22.09760
1098.229, 21.86686
1098.711, 21.73969
1099.193, 21.63530
1099.675, 21.30784
1100.157, 20.72519
1100.639, 20.45541
1101.121, 20.99058
1101.603, 21.35409
1102.086, 21.12441
1102.568, 20.81504
1103.050, 20.73261
1103.532, 20.77594
1104.014, 20.79613
1104.496, 20.78129
1104.978, 20.75668
1105.460, 20.61788
1105.943, 20.65302
1106.425, 21.15008
1106.907, 21.53666
1107.389, 21.60952
1107.871, 21.40656
1108.353, 20.70548
1108.835, 19.73060
1109.317, 19.53803
1109.799, 20.75516
1110.281, 21.38889
1110.764, 20.81573
1111.246, 20.28233
1111.728, 20.24201
1112.210, 20.28121
1112.692, 19.96946
1113.174, 20.05432
1113.656, 20.09186
1114.138, 19.97275
1114.621, 20.24876
1115.103, 20.11207
1115.585, 20.02780
1116.067, 20.10464
1116.549, 20.20882
1117.031, 20.35059
1117.513, 20.40231
1117.995, 20.09272
1118.478, 19.41645
1118.960, 18.99157
1119.442, 18.70787
1119.924, 19.01344
1120.406, 20.41907
1120.888, 21.43489
1121.370, 21.31894
1121.852, 20.67345
1122.334, 20.10682
1122.817, 19.63726
1123.299, 19.38708
1123.781, 19.42405
1124.263, 19.38845
1124.745, 19.24268
1125.227, 19.12366
1125.709, 19.06115
1126.191, 19.09262
1126.673, 19.29498
1127.156, 19.52663
1127.638, 19.35232
1128.120, 19.67454
1128.602, 18.84952
1129.084, 19.79672
1129.566, 20.19218
1130.048, 19.70438
1130.530, 19.11016
1131.013, 18.83101
1131.495, 18.85871
1131.977, 19.32640
1132.459, 18.79058
1132.941, 19.59701
1133.423, 18.19613
1133.905, 17.34082
1134.387, 17.19216
1134.870, 17.34925
1135.352, 17.65403
1135.834, 18.03978
1136.316, 18.50299
1136.798, 18.83827
1137.280, 18.30509
1137.762, 18.78499
1138.244, 17.57124
1138.726, 18.82932
1139.208, 19.41562
1139.691, 18.99614
1140.173, 18.47131
1140.655, 18.39813
1141.137, 18.50970
1141.619, 18.60386
1142.101, 18.56105
1142.583, 18.02495
1143.065, 17.23190
1143.548, 16.62057
1144.030, 16.29376
1144.512, 16.33134
1144.994, 16.75318
1145.476, 17.33640
1145.958, 18.09000
1146.440, 18.68075
1146.922, 18.63519
1147.405, 18.33368
1147.887, 18.26154
1148.369, 18.32431
1148.851, 18.18365
1149.333, 17.82802
1149.815, 17.65409
1150.297, 17.93860
1150.779, 18.19115
1151.261, 18.03452
1151.744, 17.83850
1152.226, 17.95042
1152.708, 18.12222
1153.190, 18.03989
1153.672, 17.73506
1154.154, 17.37657
1154.636, 16.97140
1155.118, 16.72141
1155.600, 16.71093
1156.083, 16.83027
1156.565, 17.15381
1157.047, 17.47976
1157.529, 17.84035
1158.011, 18.02532
1158.493, 17.51183
1158.975, 16.30276
1159.457, 15.74481
1159.940, 16.37224
1160.422, 16.91291
1160.904, 17.32378
1161.386, 17.64759
1161.868, 17.86506
1162.350, 18.04821
1162.832, 18.35224
1163.314, 18.62930
1163.796, 18.33789
1164.279, 17.27011
1164.761, 16.86427
1165.243, 17.37627
1165.725, 17.62863
1166.207, 17.31179
1166.689, 16.98692
1167.171, 16.95515
1167.653, 17.16583
1168.135, 17.61528
1168.618, 18.20174
1169.100, 18.32277
1169.582, 17.98329
1170.064, 17.47284
1170.546, 16.82603
1171.028, 16.54375
1171.510, 16.79271
1171.992, 17.07628
1172.474, 16.97138
1172.957, 16.78601
1173.439, 17.23698
1173.921, 16.95787
1174.403, 17.82443
1174.885, 17.08569
1175.367, 17.05048
1175.849, 17.74456
1176.331, 18.13371
1176.814, 17.77839
1177.296, 17.28612
1177.778, 17.09182
1178.260, 17.17530
1178.742, 17.82905
1179.224, 18.51153
1179.706, 18.36926
1180.188, 17.70658
1180.671, 17.19571
1181.153, 16.96858
1181.635, 16.83851
1182.117, 16.73542
1182.599, 16.68694
1183.081, 16.76753
1183.563, 16.83732
1184.045, 16.78499
1184.527, 16.70004
1185.010, 16.66072
1185.492, 16.66628
1185.974, 16.66869
1186.456, 16.65264
1186.938, 16.80924
1187.420, 17.47214
1187.902, 17.84875
1188.384, 17.55794
1188.866, 17.27306
1189.349, 17.41727
1189.831, 17.57703
1190.313, 17.27340
1190.795, 16.63667
1191.277, 16.15993
1191.759, 15.80892
1192.241, 15.81588
1192.723, 16.30876
1193.206, 16.72336
1193.688, 16.96703
1194.170, 17.01660
1194.652, 16.84106
1195.134, 16.51151
1195.616, 16.08456
1196.098, 15.63497
1196.580, 15.44860
1197.063, 15.53331
1197.545, 16.15513
1198.027, 17.22153
1198.509, 17.65233
1198.991, 17.18755
1199.473, 16.72573
1199.955, 16.91138
1200.437, 17.17835
1200.919, 16.56520
1201.401, 15.68847
1201.884, 15.72896
1202.366, 16.27280
1202.848, 16.56521
1203.330, 16.54564
1203.812, 16.34138
1204.294, 16.01822
1204.776, 15.75916
1205.258, 15.63605
1205.741, 15.67539
1206.223, 16.03102
1206.705, 16.41039
1207.187, 16.64053
1207.669, 16.72519
1208.151, 16.56765
1208.633, 16.29541
1209.115, 16.33223
1209.598, 16.84197
1210.080, 17.11089
1210.562, 16.94617
1211.044, 16.66027
1211.526, 15.98594
1212.008, 15.62462
1212.490, 16.15362
1212.972, 16.89163
1213.454, 17.02831
1213.937, 16.68150
1214.419, 16.39814
1214.901, 16.15626
1215.383, 16.12622
1215.865, 16.36228
1216.347, 16.45227
1216.829, 16.27946
1217.311, 16.18890
1217.793, 16.39902
1218.276, 16.65263
1218.758, 16.58841
1219.240, 16.32653
1219.722, 16.14417
1220.204, 16.06786
1220.686, 16.34403
1221.168, 16.82273
1221.650, 16.78173
1222.133, 16.15661
1222.615, 15.73902
1223.097, 16.00299
1223.579, 16.31015
1224.061, 15.96231
1224.543, 15.50825
1225.025, 15.51303
1225.507, 15.69625
1225.990, 15.70470
1226.472, 15.62048
1226.954, 15.70982
1227.436, 15.98746
1227.918, 16.15191
1228.400, 16.10286
1228.882, 15.96195
1229.364, 15.80436
1229.846, 15.49712
1230.328, 14.61202
1230.811, 13.95060
1231.293, 14.39011
1231.775, 15.26822
1232.257, 15.27323
1232.739, 14.41433
1233.221, 14.05353
1233.703, 14.26931
1234.185, 14.71532
1234.668, 15.47066
1235.150, 15.78618
1235.632, 15.36931
1236.114, 14.84958
1236.596, 14.70729
1237.078, 14.80475
1237.560, 14.95207
1238.042, 15.12174
1238.525, 15.29450
1239.007, 15.39984
1239.489, 15.08831
1239.971, 14.48478
1240.453, 14.19481
1240.935, 14.35814
1241.417, 14.50760
1241.899, 14.33501
1242.381, 14.13233
1242.864, 14.08362
1243.346, 14.15443
1243.828, 14.41887
1244.310, 14.70263
1244.792, 14.88650
1245.274, 14.90799
1245.756, 14.54682
1246.238, 13.78187
1246.720, 13.46027
1247.203, 14.10425
1247.685, 14.56165
1248.167, 14.69515
1248.649, 14.70744
1249.131, 14.60088
1249.613, 14.48618
1250.095, 14.44684
1250.577, 14.45222
1251.059, 14.42579
1251.542, 14.38316
1252.024, 14.61002
1252.506, 15.10219
1252.988, 14.97150
1253.470, 14.19476
1253.952, 13.99746
1254.434, 14.71301
1254.916, 15.31079
1255.399, 15.05549
1255.881, 14.48957
1256.363, 14.25771
1256.845, 14.16213
1257.327, 13.85765
1257.809, 13.84784
1258.291, 13.57115
1258.773, 13.82883
1259.255, 14.05478
1259.738, 14.15828
1260.220, 13.97801
1260.702, 13.27130
1261.184, 12.79637
1261.666, 12.83298
1262.148, 13.09492
1262.630, 13.73282
1263.112, 14.27871
1263.594, 14.34450
1264.077, 14.16400
1264.559, 14.08176
1265.041, 14.07027
1265.523, 13.85466
1266.005, 13.76991
1266.487, 13.68217
1266.969, 13.43094
1267.451, 13.49848
1267.934, 13.24626
1268.416, 13.13793
1268.898, 13.44385
1269.380, 13.81792
1269.862, 13.83208
1270.344, 13.68286
1270.826, 13.66301
1271.308, 13.78241
1271.791, 14.26803
1272.273, 14.81827
1272.755, 14.67655
1273.237, 13.94088
1273.719, 13.44523
1274.201, 13.47820
1274.683, 13.63027
1275.165, 13.93153
1275.647, 14.00908
1276.130, 13.32782
1276.612, 12.84613
1277.094, 13.53039
1277.576, 14.34313
1278.058, 13.99727
1278.540, 12.98137
1279.022, 12.66985
1279.504, 13.11674
1279.986, 13.52872
1280.469, 13.92137
1280.951, 14.14040
1281.433, 14.15880
1281.915, 14.17355
1282.397, 14.25697
1282.879, 14.24742
1283.361, 14.01229
1283.843, 13.66102
1284.326, 13.32361
1284.808, 12.99838
##END=



