##NAMES=Calderonite
##RRUFFID=R060427
##IDEAL CHEMISTRY=Pb^2+^_2_Fe^3+^(V^5+^O_4_)_2_(OH)
##LOCALITY=Las Colmenitas mine, Santa Marta, Badajoz, Extremadura, Spain
##OWNER=RRUFF
##SOURCE=Michael Scott
##DESCRIPTION=Sheaf of brown bladed crystals
##STATUS=The identification of this mineral is confirmed by single-crystal X-ray diffraction and chemical analysis.
##URL=rruff.info/R060427
##MEASURED CHEMISTRY=(Pb_1.90_Cu_0.08_Zn_0.02_)_Σ=2_(Fe^3+^_0.84_Cr_0.14_Al_0.02_)_Σ=1_((V_0.98_As_0.01_P_0.01_)_Σ=1_O_4_)_2_(OH); OH estimated by difference and charge balance
172.5130, 492.6549
172.9951, 490.7658
173.4772, 487.0411
173.9593, 481.9122
174.4414, 474.9082
174.9236, 466.9787
175.4057, 459.3027
175.8878, 451.8187
176.3699, 444.0675
176.8520, 435.4022
177.3341, 426.0948
177.8163, 416.7071
178.2984, 407.1140
178.7805, 397.7604
179.2626, 389.4947
179.7447, 382.5237
180.2268, 375.8722
180.7090, 368.6279
181.1911, 360.9838
181.6732, 353.6141
182.1553, 346.6315
182.6374, 340.1689
183.1195, 334.9062
183.6017, 330.9145
184.0838, 327.3744
184.5659, 322.9181
185.0480, 317.8379
185.5301, 313.4171
186.0123, 310.6270
186.4944, 309.0101
186.9765, 307.2343
187.4586, 305.1862
187.9407, 303.1360
188.4228, 301.5077
188.9050, 300.2680
189.3871, 299.0228
189.8692, 297.4186
190.3513, 295.5954
190.8334, 294.3701
191.3155, 293.9571
191.7977, 293.7109
192.2798, 292.1859
192.7619, 289.3863
193.2440, 287.3772
193.7261, 287.8015
194.2082, 290.3875
194.6904, 291.8704
195.1725, 291.9363
195.6546, 291.1617
196.1367, 290.2865
196.6188, 289.2398
197.1009, 288.8844
197.5831, 290.0454
198.0652, 292.7219
198.5473, 294.7368
199.0294, 295.8532
199.5115, 296.4195
199.9937, 297.0685
200.4758, 297.7745
200.9579, 298.6367
201.4400, 299.7561
201.9221, 301.1531
202.4042, 302.4811
202.8864, 303.7240
203.3685, 304.8795
203.8506, 305.7852
204.3327, 306.2548
204.8148, 307.1736
205.2969, 309.2755
205.7791, 312.8049
206.2612, 315.6783
206.7433, 317.6045
207.2254, 318.9401
207.7075, 320.8336
208.1896, 323.7612
208.6718, 325.8826
209.1539, 325.7726
209.6360, 322.7598
210.1181, 320.9835
210.6002, 320.8581
211.0823, 321.9912
211.5645, 323.5735
212.0466, 326.1399
212.5287, 327.9232
213.0108, 327.5849
213.4929, 324.2718
213.9750, 322.2916
214.4572, 322.3053
214.9393, 323.6270
215.4214, 324.3209
215.9035, 324.4273
216.3856, 323.8177
216.8678, 322.3028
217.3499, 319.5387
217.8320, 316.9286
218.3141, 314.6112
218.7962, 312.4714
219.2783, 310.2297
219.7605, 308.0151
220.2426, 305.4801
220.7247, 302.2814
221.2068, 297.8764
221.6889, 294.4289
222.1710, 292.4094
222.6532, 291.3280
223.1353, 289.6807
223.6174, 287.1229
224.0995, 284.5558
224.5816, 282.5246
225.0637, 281.4445
225.5459, 279.7231
226.0280, 276.8633
226.5101, 273.4251
226.9922, 271.3353
227.4743, 271.3950
227.9564, 271.5108
228.4386, 270.6203
228.9207, 268.2969
229.4028, 265.9801
229.8849, 263.3826
230.3670, 260.8701
230.8492, 259.5648
231.3313, 260.3811
231.8134, 261.0377
232.2955, 260.3144
232.7776, 257.1029
233.2597, 255.2010
233.7419, 255.2555
234.2240, 256.4637
234.7061, 256.7143
235.1882, 255.6467
235.6703, 254.1917
236.1524, 252.5981
236.6346, 250.3735
237.1167, 249.1950
237.5988, 249.3026
238.0809, 250.3513
238.5630, 251.6281
239.0451, 253.3962
239.5273, 254.9791
240.0094, 256.1322
240.4915, 256.8873
240.9736, 257.0630
241.4557, 256.3368
241.9378, 255.1678
242.4200, 254.5017
242.9021, 254.4222
243.3842, 254.7039
243.8663, 255.3707
244.3484, 256.7294
244.8306, 257.5077
245.3127, 257.3711
245.7948, 256.8258
246.2769, 256.8295
246.7590, 257.6583
247.2411, 258.5649
247.7233, 259.2513
248.2054, 259.5694
248.6875, 260.2910
249.1696, 261.7650
249.6517, 263.4069
250.1338, 264.1989
250.6160, 263.7098
251.0981, 263.1382
251.5802, 262.7278
252.0623, 262.3448
252.5444, 262.8876
253.0265, 264.8721
253.5087, 267.3578
253.9908, 268.9030
254.4729, 269.0036
254.9550, 269.2208
255.4371, 270.0750
255.9192, 271.6772
256.4014, 272.9326
256.8835, 273.6962
257.3656, 274.2564
257.8477, 274.9195
258.3298, 275.5331
258.8120, 276.6239
259.2941, 278.5402
259.7762, 281.3788
260.2583, 283.4066
260.7404, 284.2494
261.2225, 284.7612
261.7047, 285.9234
262.1868, 288.0036
262.6689, 290.0348
263.1510, 291.8461
263.6331, 293.4229
264.1152, 294.9191
264.5974, 296.4425
265.0795, 297.6992
265.5616, 298.1586
266.0437, 297.3466
266.5258, 297.3775
267.0079, 298.8616
267.4901, 301.6222
267.9722, 303.9689
268.4543, 305.9099
268.9364, 307.4883
269.4185, 308.6235
269.9006, 309.1495
270.3828, 309.9857
270.8649, 311.3645
271.3470, 313.1551
271.8291, 314.7947
272.3112, 316.3136
272.7933, 317.6303
273.2755, 318.4738
273.7576, 318.6675
274.2397, 319.5570
274.7218, 321.3605
275.2039, 323.9083
275.6860, 326.8056
276.1682, 330.1883
276.6503, 333.5124
277.1324, 336.0788
277.6145, 337.7017
278.0966, 341.0113
278.5787, 346.7506
279.0609, 353.6410
279.5430, 358.5091
280.0251, 360.8878
280.5072, 364.0610
280.9893, 370.7259
281.4715, 380.8042
281.9536, 388.1844
282.4357, 391.8463
282.9178, 394.2241
283.3999, 399.6786
283.8820, 408.3541
284.3642, 417.4045
284.8463, 425.3201
285.3284, 432.2818
285.8105, 440.1192
286.2926, 449.0035
286.7747, 458.3330
287.2569, 467.1722
287.7390, 475.5460
288.2211, 484.3134
288.7032, 493.8329
289.1853, 504.0225
289.6674, 514.8513
290.1496, 526.4637
290.6317, 538.1216
291.1138, 548.8976
291.5959, 558.9590
292.0780, 569.0385
292.5602, 579.4836
293.0423, 590.1711
293.5244, 600.7780
294.0065, 611.2542
294.4886, 621.8126
294.9707, 633.6722
295.4529, 646.1210
295.9350, 656.1964
296.4171, 662.5146
296.8992, 666.7914
297.3813, 671.9254
297.8634, 677.8074
298.3456, 683.4813
298.8277, 688.0292
299.3098, 691.7902
299.7919, 695.4960
300.2740, 699.3344
300.7561, 703.0598
301.2383, 706.2213
301.7204, 708.9109
302.2025, 711.3252
302.6846, 712.9810
303.1667, 714.6337
303.6488, 717.4496
304.1310, 721.6110
304.6131, 726.8561
305.0952, 732.5263
305.5773, 738.9733
306.0594, 747.1124
306.5415, 758.8447
307.0237, 771.8517
307.5058, 783.3793
307.9879, 792.7498
308.4700, 803.1057
308.9521, 817.2241
309.4343, 833.9769
309.9164, 851.6461
310.3985, 869.8807
310.8806, 888.6572
311.3627, 907.4672
311.8448, 926.4340
312.3270, 947.2626
312.8091, 971.2283
313.2912, 997.5847
313.7733, 1025.451
314.2554, 1055.300
314.7375, 1085.904
315.2197, 1116.437
315.7018, 1147.222
316.1839, 1178.726
316.6660, 1210.075
317.1481, 1242.991
317.6302, 1278.531
318.1124, 1318.236
318.5945, 1359.214
319.0766, 1401.339
319.5587, 1444.279
320.0408, 1487.487
320.5229, 1530.827
321.0051, 1574.357
321.4872, 1618.297
321.9693, 1662.293
322.4514, 1706.482
322.9335, 1752.646
323.4156, 1798.866
323.8978, 1841.448
324.3799, 1877.210
324.8620, 1911.456
325.3441, 1946.703
325.8262, 1984.296
326.3083, 2018.062
326.7905, 2046.818
327.2726, 2071.839
327.7547, 2094.335
328.2368, 2116.345
328.7189, 2133.976
329.2010, 2145.551
329.6832, 2150.458
330.1653, 2155.178
330.6474, 2160.530
331.1295, 2165.106
331.6116, 2167.735
332.0938, 2167.239
332.5759, 2166.641
333.0580, 2166.206
333.5401, 2165.930
334.0222, 2165.884
334.5043, 2166.309
334.9865, 2166.617
335.4686, 2166.079
335.9507, 2163.395
336.4328, 2163.715
336.9149, 2168.800
337.3970, 2176.359
337.8792, 2180.205
338.3613, 2179.914
338.8434, 2177.363
339.3255, 2173.721
339.8076, 2169.315
340.2898, 2161.355
340.7719, 2149.934
341.2540, 2134.792
341.7361, 2115.193
342.2182, 2091.491
342.7003, 2063.526
343.1825, 2032.173
343.6646, 1996.730
344.1467, 1953.694
344.6288, 1901.935
345.1109, 1846.401
345.5930, 1790.496
346.0752, 1734.805
346.5573, 1678.127
347.0394, 1618.850
347.5215, 1559.101
348.0036, 1501.725
348.4857, 1446.962
348.9679, 1394.803
349.4500, 1344.749
349.9321, 1296.761
350.4142, 1250.922
350.8963, 1206.950
351.3784, 1165.259
351.8606, 1126.732
352.3427, 1091.597
352.8248, 1059.879
353.3069, 1033.187
353.7890, 1009.765
354.2711, 986.8140
354.7533, 964.1641
355.2354, 942.4608
355.7175, 922.6423
356.1996, 904.3441
356.6817, 886.9295
357.1638, 869.1453
357.6460, 852.8772
358.1281, 839.9609
358.6102, 830.2411
359.0923, 820.9627
359.5744, 810.4955
360.0565, 799.8580
360.5387, 790.0417
361.0208, 781.5084
361.5029, 773.5774
361.9850, 766.1178
362.4671, 759.0850
362.9492, 752.4480
363.4314, 745.7211
363.9135, 739.7331
364.3956, 734.9744
364.8777, 731.6989
365.3598, 729.1811
365.8419, 728.3288
366.3241, 727.9134
366.8062, 726.0918
367.2883, 720.5637
367.7704, 715.5734
368.2526, 712.4517
368.7347, 711.5802
369.2168, 710.4843
369.6989, 708.8231
370.1810, 707.0930
370.6631, 705.6429
371.1453, 704.0372
371.6274, 703.3627
372.1095, 703.8268
372.5916, 705.3574
373.0737, 707.4886
373.5558, 710.5354
374.0380, 713.7366
374.5201, 716.4607
375.0022, 717.9999
375.4843, 721.4725
375.9664, 727.6391
376.4485, 735.2044
376.9307, 741.7560
377.4128, 747.0530
377.8949, 752.1414
378.3770, 757.7231
378.8591, 763.6751
379.3412, 767.8205
379.8234, 769.9677
380.3055, 770.8578
380.7876, 771.3367
381.2697, 771.3738
381.7518, 770.3510
382.2339, 768.2261
382.7161, 764.8787
383.1982, 759.8593
383.6803, 753.2291
384.1624, 745.3539
384.6445, 736.8727
385.1266, 727.4068
385.6088, 715.6477
386.0909, 700.9764
386.5730, 685.4473
387.0551, 671.7670
387.5372, 659.4318
388.0193, 646.7211
388.5015, 632.6346
388.9836, 617.9080
389.4657, 603.2424
389.9478, 588.6718
390.4299, 574.2010
390.9120, 559.9490
391.3942, 545.7183
391.8763, 531.4709
392.3584, 516.8650
392.8405, 502.5292
393.3226, 488.7498
393.8047, 475.5049
394.2869, 462.6920
394.7690, 450.0815
395.2511, 438.0205
395.7332, 426.7605
396.2154, 416.5483
396.6975, 406.7460
397.1796, 397.0057
397.6617, 387.5255
398.1438, 378.7137
398.6259, 371.0834
399.1081, 363.5856
399.5902, 355.8054
400.0723, 347.5845
400.5544, 340.0788
401.0365, 333.5268
401.5186, 327.4798
402.0008, 321.6508
402.4829, 315.9836
402.9650, 310.5410
403.4471, 305.2187
403.9292, 300.1063
404.4113, 295.7555
404.8935, 292.3258
405.3756, 289.2260
405.8577, 286.1493
406.3398, 283.1017
406.8219, 280.2596
407.3040, 277.6338
407.7862, 275.1981
408.2683, 272.9863
408.7504, 271.0164
409.2325, 268.7547
409.7146, 265.5785
410.1967, 262.0958
410.6789, 260.4497
411.1610, 260.7028
411.6431, 261.2172
412.1252, 260.4074
412.6073, 258.7243
413.0894, 257.4975
413.5716, 257.1339
414.0537, 257.0329
414.5358, 256.4384
415.0179, 255.4884
415.5000, 254.6163
415.9821, 253.5856
416.4643, 253.0101
416.9464, 253.7753
417.4285, 256.0147
417.9106, 258.4076
418.3927, 260.3002
418.8748, 261.7945
419.3570, 262.9796
419.8391, 263.4089
420.3212, 264.0102
420.8033, 265.1561
421.2854, 266.8074
421.7675, 268.7807
422.2497, 271.2934
422.7318, 273.9173
423.2139, 276.5111
423.6960, 279.4575
424.1781, 281.5018
424.6602, 281.1413
425.1424, 280.1645
425.6245, 281.2370
426.1066, 286.3104
426.5887, 290.9453
427.0709, 294.1200
427.5530, 295.8341
428.0351, 297.5067
428.5172, 299.1597
428.9993, 300.7598
429.4814, 302.2368
429.9636, 303.4918
430.4457, 305.0420
430.9278, 307.0684
431.4099, 309.2721
431.8920, 311.0013
432.3741, 312.2430
432.8563, 313.2081
433.3384, 313.5408
433.8205, 313.5186
434.3026, 315.5186
434.7847, 319.8258
435.2668, 323.9513
435.7490, 324.5993
436.2311, 322.7894
436.7132, 322.2154
437.1953, 324.2902
437.6774, 327.4167
438.1595, 329.6254
438.6417, 331.0552
439.1238, 332.2806
439.6059, 333.4806
440.0880, 334.7403
440.5701, 336.0647
441.0522, 337.4141
441.5344, 339.1859
442.0165, 341.9857
442.4986, 345.2367
442.9807, 348.2182
443.4628, 350.1134
443.9449, 352.2613
444.4271, 355.3573
444.9092, 359.2399
445.3913, 362.9936
445.8734, 366.4780
446.3555, 369.6251
446.8376, 372.2798
447.3198, 373.7716
447.8019, 376.1145
448.2840, 379.9745
448.7661, 384.4136
449.2482, 388.0998
449.7303, 390.5198
450.2125, 393.0121
450.6946, 395.9485
451.1767, 399.2935
451.6588, 402.3315
452.1409, 405.1125
452.6230, 407.5343
453.1052, 409.5216
453.5873, 411.0963
454.0694, 412.2333
454.5515, 413.0231
455.0337, 413.1868
455.5158, 412.0314
455.9979, 409.6166
456.4800, 407.0182
456.9621, 405.0848
457.4442, 403.1484
457.9264, 399.5406
458.4085, 394.3141
458.8906, 388.2185
459.3727, 381.3653
459.8548, 374.2061
460.3369, 367.7331
460.8191, 362.4322
461.3012, 357.0296
461.7833, 350.3939
462.2654, 342.8900
462.7475, 335.3061
463.2296, 327.4465
463.7118, 319.9430
464.1939, 313.1929
464.6760, 307.1625
465.1581, 301.4567
465.6402, 296.2269
466.1223, 291.1445
466.6045, 286.0462
467.0866, 280.6918
467.5687, 275.6041
468.0508, 271.1003
468.5329, 266.8207
469.0150, 261.8044
469.4972, 255.1808
469.9793, 249.2405
470.4614, 244.8855
470.9435, 242.2015
471.4256, 239.4753
471.9077, 236.7940
472.3899, 233.9060
472.8720, 230.3767
473.3541, 226.0532
473.8362, 222.5322
474.3183, 220.2171
474.8004, 218.4686
475.2826, 215.9310
475.7647, 212.6681
476.2468, 209.5972
476.7289, 207.2407
477.2110, 205.3846
477.6931, 203.6596
478.1753, 202.0515
478.6574, 200.4487
479.1395, 198.9277
479.6216, 197.3062
480.1037, 195.2085
480.5858, 192.1051
481.0680, 189.3090
481.5501, 188.1353
482.0322, 187.9121
482.5143, 187.2488
482.9964, 184.7781
483.4786, 182.4576
483.9607, 181.4349
484.4428, 181.8989
484.9249, 181.9807
485.4070, 181.0001
485.8892, 179.7207
486.3713, 178.6768
486.8534, 178.0253
487.3355, 177.4288
487.8176, 177.0831
488.2997, 176.7204
488.7819, 175.6689
489.2640, 173.5396
489.7461, 171.5926
490.2282, 170.3168
490.7103, 169.6496
491.1924, 168.7300
491.6746, 167.5355
492.1567, 166.1542
492.6388, 164.3911
493.1209, 162.3491
493.6030, 161.3249
494.0851, 161.7604
494.5673, 162.4562
495.0494, 161.5768
495.5315, 159.4423
496.0136, 157.2445
496.4957, 155.4351
496.9778, 153.9050
497.4600, 152.6450
497.9421, 151.6086
498.4242, 150.3217
498.9063, 147.7416
499.3884, 145.2093
499.8705, 144.1003
500.3527, 145.5467
500.8348, 146.2862
501.3169, 144.5719
501.7990, 141.6202
502.2811, 139.1257
502.7632, 137.8721
503.2454, 136.6120
503.7275, 134.8551
504.2096, 132.7059
504.6917, 131.3101
505.1738, 131.1858
505.6559, 131.1338
506.1381, 130.4440
506.6202, 128.8260
507.1023, 127.8302
507.5844, 127.6664
508.0665, 127.7509
508.5486, 127.2998
509.0308, 126.2995
509.5129, 125.1825
509.9950, 123.9994
510.4771, 122.8196
510.9592, 121.7638
511.4413, 120.8332
511.9235, 120.0083
512.4056, 119.3373
512.8877, 118.7414
513.3698, 118.0607
513.8519, 117.2723
514.3340, 116.5603
514.8162, 116.3119
515.2983, 116.1250
515.7804, 115.4789
516.2625, 113.4998
516.7446, 111.9533
517.2267, 111.9448
517.7089, 112.9145
518.1910, 113.4889
518.6731, 113.3766
519.1552, 112.8237
519.6373, 111.6056
520.1194, 109.5624
520.6016, 108.6114
521.0837, 109.7734
521.5658, 110.8992
522.0479, 110.1565
522.5300, 106.6824
523.0121, 104.6050
523.4943, 104.5369
523.9764, 105.5270
524.4585, 105.9709
524.9406, 105.8538
525.4227, 105.5562
525.9048, 105.1445
526.3870, 104.6802
526.8691, 104.5063
527.3513, 104.5730
527.8334, 104.1639
528.3155, 102.0211
528.7976, 99.34482
529.2797, 98.02642
529.7618, 98.45908
530.2440, 99.17493
530.7261, 99.23548
531.2082, 98.93151
531.6903, 98.63441
532.1724, 98.26943
532.6545, 98.13261
533.1367, 98.75814
533.6188, 99.77275
534.1009, 99.87085
534.5830, 97.42416
535.0651, 95.42538
535.5472, 95.14560
536.0294, 96.97477
536.5115, 97.62754
536.9936, 96.60841
537.4757, 95.10744
537.9578, 94.07617
538.4399, 93.55808
538.9221, 93.19360
539.4042, 92.96303
539.8863, 92.83428
540.3684, 92.74342
540.8505, 92.69395
541.3326, 92.74575
541.8148, 93.11842
542.2969, 93.49000
542.7790, 93.02194
543.2611, 91.84872
543.7432, 91.02216
544.2253, 91.83068
544.7075, 93.04147
545.1896, 93.31582
545.6717, 92.34766
546.1538, 91.15422
546.6359, 89.83282
547.1180, 88.71152
547.6002, 88.15811
548.0823, 89.07039
548.5644, 89.62029
549.0465, 89.17753
549.5286, 88.12245
550.0107, 87.57104
550.4929, 87.80774
550.9750, 88.11772
551.4571, 88.24812
551.9392, 88.19749
552.4213, 88.43128
552.9034, 89.06445
553.3856, 89.62608
553.8677, 89.73172
554.3498, 89.40414
554.8319, 88.87624
555.3140, 88.13225
555.7961, 87.33398
556.2783, 86.50362
556.7604, 85.77559
557.2425, 85.57408
557.7246, 86.40412
558.2067, 87.46603
558.6888, 88.02150
559.1710, 88.15936
559.6531, 88.16585
560.1352, 88.45574
560.6173, 88.43745
561.0994, 87.35805
561.5815, 84.90385
562.0637, 83.69138
562.5458, 85.87526
563.0279, 88.41120
563.5100, 89.02361
563.9921, 85.85629
564.4742, 84.07755
564.9564, 84.34425
565.4385, 85.61906
565.9206, 86.19633
566.4027, 85.98364
566.8848, 85.46488
567.3669, 84.60775
567.8491, 83.63026
568.3312, 83.26293
568.8133, 83.49438
569.2954, 84.05586
569.7775, 85.15974
570.2596, 86.36704
570.7418, 86.61124
571.2239, 85.79796
571.7060, 85.20815
572.1881, 86.33760
572.6702, 87.98771
573.1523, 88.78987
573.6345, 87.94462
574.1166, 87.03413
574.5987, 86.70316
575.0808, 86.67890
575.5629, 86.50217
576.0450, 85.53383
576.5272, 85.07457
577.0093, 85.70621
577.4914, 87.17323
577.9735, 87.75435
578.4556, 87.16580
578.9377, 86.26704
579.4199, 85.39960
579.9020, 84.57378
580.3841, 83.73038
580.8662, 82.77949
581.3483, 82.29453
581.8304, 83.31728
582.3126, 85.35686
582.7947, 86.60706
583.2768, 86.55044
583.7589, 86.18678
584.2410, 86.96838
584.7231, 88.19291
585.2053, 88.47053
585.6874, 86.04957
586.1696, 83.60270
586.6517, 82.52721
587.1338, 82.64603
587.6159, 83.10778
588.0980, 84.20698
588.5801, 85.14235
589.0623, 85.54269
589.5444, 85.35181
590.0265, 84.99607
590.5086, 84.28410
590.9907, 83.65312
591.4728, 83.42253
591.9550, 83.60683
592.4371, 84.21065
592.9192, 85.37952
593.4013, 86.61467
593.8834, 87.14602
594.3655, 87.05628
594.8477, 86.82670
595.3298, 86.49026
595.8119, 86.24982
596.2940, 86.48657
596.7761, 87.07741
597.2582, 87.61587
597.7404, 88.13359
598.2225, 88.32956
598.7046, 87.69673
599.1867, 86.23414
599.6688, 85.34023
600.1509, 85.85796
600.6331, 86.75581
601.1152, 87.38490
601.5973, 87.52164
602.0794, 87.87770
602.5615, 88.59788
603.0436, 89.39561
603.5258, 90.02276
604.0079, 90.54946
604.4900, 90.42082
604.9721, 89.27793
605.4542, 87.83733
605.9363, 87.71689
606.4185, 88.77719
606.9006, 89.76430
607.3827, 89.92882
607.8648, 89.79103
608.3469, 90.23426
608.8290, 91.13249
609.3112, 91.75146
609.7933, 91.50538
610.2754, 90.92448
610.7575, 90.33448
611.2396, 89.76172
611.7217, 89.35152
612.2039, 89.14311
612.6860, 89.11832
613.1681, 89.26563
613.6502, 89.58093
614.1323, 90.09189
614.6144, 91.00776
615.0966, 91.92852
615.5787, 92.14471
616.0608, 91.48127
616.5429, 91.28387
617.0250, 92.04016
617.5071, 93.24585
617.9893, 93.55529
618.4714, 93.11169
618.9535, 93.00839
619.4356, 94.38152
619.9177, 96.11320
620.3998, 96.68734
620.8820, 96.18761
621.3641, 95.53599
621.8462, 95.01994
622.3283, 94.69791
622.8104, 94.70794
623.2925, 95.22062
623.7747, 95.42497
624.2568, 94.62156
624.7389, 93.80158
625.2210, 93.80807
625.7031, 95.16998
626.1852, 96.21479
626.6674, 96.86279
627.1495, 97.13577
627.6316, 96.85365
628.1137, 95.97581
628.5958, 95.57810
629.0779, 96.11913
629.5601, 97.14827
630.0422, 97.93736
630.5243, 98.46655
631.0064, 98.67168
631.4885, 98.00355
631.9706, 97.34363
632.4528, 97.94081
632.9349, 99.64588
633.4170, 100.5349
633.8991, 98.43943
634.3812, 96.27064
634.8633, 95.93034
635.3455, 98.36682
635.8276, 100.2659
636.3097, 101.6847
636.7918, 102.4048
637.2739, 101.9521
637.7560, 99.74852
638.2382, 98.80563
638.7203, 99.61331
639.2024, 101.2801
639.6845, 102.6442
640.1666, 103.7099
640.6487, 104.4723
641.1309, 104.8770
641.6130, 105.0659
642.0951, 105.0838
642.5772, 105.0244
643.0594, 105.1552
643.5415, 105.7988
644.0236, 106.5042
644.5057, 107.0869
644.9879, 107.5266
645.4700, 107.7155
645.9521, 107.0875
646.4342, 106.7123
646.9163, 107.0840
647.3984, 108.3154
647.8806, 109.6372
648.3627, 111.2420
648.8448, 112.6068
649.3269, 113.1176
649.8090, 112.7777
650.2911, 113.0738
650.7733, 114.2316
651.2554, 115.5478
651.7375, 116.1314
652.2196, 116.2308
652.7017, 116.4498
653.1838, 116.9400
653.6660, 117.6272
654.1481, 118.4951
654.6302, 119.5074
655.1123, 120.6161
655.5944, 121.7951
656.0765, 123.0637
656.5587, 124.5786
657.0408, 126.2195
657.5229, 127.4877
658.0050, 128.3037
658.4871, 128.7998
658.9692, 128.7406
659.4514, 128.2697
659.9335, 129.1673
660.4156, 131.5528
660.8977, 134.2729
661.3798, 136.7811
661.8619, 138.9375
662.3441, 140.1601
662.8262, 140.3870
663.3083, 140.8233
663.7904, 142.6368
664.2725, 145.0789
664.7546, 147.3627
665.2368, 149.3586
665.7189, 151.1257
666.2010, 152.1225
666.6831, 153.1681
667.1652, 155.2668
667.6473, 159.4406
668.1295, 163.0170
668.6116, 165.7405
669.0937, 167.8634
669.5758, 169.5833
670.0579, 170.7836
670.5400, 172.8746
671.0222, 176.7065
671.5043, 181.2082
671.9864, 183.9145
672.4685, 185.1913
672.9506, 186.8694
673.4327, 190.3088
673.9149, 194.3214
674.3970, 198.0160
674.8791, 201.3836
675.3612, 204.4508
675.8433, 206.3595
676.3254, 208.7495
676.8076, 212.8596
677.2897, 219.2135
677.7718, 224.0828
678.2539, 226.7224
678.7360, 228.8579
679.2181, 231.4809
679.7003, 234.5526
680.1824, 238.5414
680.6645, 243.6550
681.1466, 248.8020
681.6287, 252.1915
682.1108, 254.6699
682.5930, 258.8238
683.0751, 265.7857
683.5572, 272.4593
684.0393, 276.0648
684.5214, 277.8244
685.0035, 279.5204
685.4857, 281.1773
685.9678, 283.4453
686.4499, 287.3278
686.9320, 291.7937
687.4141, 294.6393
687.8962, 295.2696
688.3784, 295.3034
688.8605, 294.8806
689.3426, 294.2024
689.8247, 293.8984
690.3068, 293.9678
690.7889, 294.4821
691.2711, 296.3128
691.7532, 298.2343
692.2353, 297.3789
692.7174, 294.0886
693.1995, 290.4649
693.6816, 287.5297
694.1638, 284.9428
694.6459, 282.3332
695.1280, 279.6463
695.6101, 277.7733
696.0922, 278.1388
696.5743, 278.3687
697.0565, 277.1135
697.5386, 273.9446
698.0207, 271.0602
698.5028, 268.5718
698.9849, 266.1372
699.4670, 263.3333
699.9492, 260.2211
700.4313, 257.3918
700.9135, 254.9108
701.3956, 252.8454
701.8777, 251.5624
702.3598, 250.6829
702.8419, 249.5152
703.3240, 247.6203
703.8062, 245.8964
704.2883, 244.8334
704.7704, 244.2258
705.2525, 243.7967
705.7346, 243.7128
706.2167, 243.5381
706.6989, 243.2960
707.1810, 242.9150
707.6631, 242.2398
708.1452, 241.2894
708.6273, 239.9275
709.1094, 237.6985
709.5916, 235.4509
710.0737, 235.7624
710.5558, 238.1037
711.0379, 239.7425
711.5200, 238.3055
712.0021, 236.1933
712.4843, 235.5691
712.9664, 236.2174
713.4485, 236.8435
713.9306, 236.3789
714.4127, 236.3083
714.8948, 237.8105
715.3770, 240.9374
715.8591, 242.3030
716.3412, 241.0335
716.8233, 239.7252
717.3054, 239.9724
717.7875, 241.7067
718.2697, 243.0396
718.7518, 243.9547
719.2339, 244.8665
719.7160, 246.4499
720.1981, 248.1528
720.6802, 249.0257
721.1624, 248.8962
721.6445, 248.5335
722.1266, 247.7999
722.6087, 247.3810
723.0908, 247.9680
723.5729, 250.4267
724.0551, 252.3141
724.5372, 253.2955
725.0193, 253.8730
725.5014, 254.4254
725.9835, 254.8703
726.4656, 255.9078
726.9478, 257.8026
727.4299, 259.8242
727.9120, 260.7015
728.3941, 260.8153
728.8762, 261.3259
729.3583, 262.5823
729.8405, 264.2753
730.3226, 266.4362
730.8047, 268.8099
731.2868, 270.9071
731.7689, 272.8224
732.2510, 274.1866
732.7332, 274.2249
733.2153, 273.7984
733.6974, 274.8148
734.1795, 277.9866
734.6616, 280.6388
735.1437, 282.0259
735.6259, 282.5276
736.1080, 282.8631
736.5901, 283.0854
737.0722, 283.6651
737.5543, 284.6327
738.0364, 286.2204
738.5186, 289.1811
739.0007, 293.0858
739.4828, 296.5024
739.9649, 298.6088
740.4470, 300.2799
740.9291, 301.6437
741.4113, 302.7731
741.8934, 304.5381
742.3755, 307.2886
742.8576, 310.0728
743.3397, 312.6261
743.8218, 314.9230
744.3040, 316.6113
744.7861, 317.6645
745.2682, 318.6864
745.7503, 319.5653
746.2324, 320.9089
746.7145, 324.2121
747.1967, 329.3626
747.6788, 333.8159
748.1609, 335.6028
748.6430, 336.6408
749.1251, 338.1023
749.6072, 340.1362
750.0894, 342.5384
750.5715, 345.5640
751.0536, 348.5918
751.5357, 351.2983
752.0178, 353.7345
752.4999, 355.2644
752.9821, 355.7405
753.4642, 356.3443
753.9463, 358.6003
754.4284, 361.6861
754.9105, 363.8217
755.3926, 364.7123
755.8748, 365.5422
756.3569, 367.1051
756.8390, 368.9432
757.3211, 370.6286
757.8032, 371.7930
758.2853, 373.4663
758.7675, 375.8559
759.2496, 378.5823
759.7318, 381.3822
760.2139, 384.2491
760.6960, 387.1210
761.1781, 390.0295
761.6602, 392.7634
762.1423, 394.7632
762.6245, 396.4160
763.1066, 398.7104
763.5887, 401.9764
764.0708, 405.5049
764.5529, 408.5113
765.0350, 411.5902
765.5172, 415.4453
765.9993, 420.9017
766.4814, 426.2651
766.9635, 431.5946
767.4456, 436.6488
767.9277, 440.7605
768.4099, 443.6084
768.8920, 448.0075
769.3741, 454.7250
769.8562, 462.3636
770.3383, 468.6605
770.8204, 474.2845
771.3026, 481.2104
771.7847, 490.8803
772.2668, 500.4499
772.7489, 507.1674
773.2310, 512.7769
773.7131, 519.9124
774.1953, 530.1206
774.6774, 540.8035
775.1595, 551.9352
775.6416, 563.2232
776.1237, 574.1423
776.6058, 584.6787
777.0880, 594.9007
777.5701, 604.4752
778.0522, 614.1627
778.5343, 625.4742
779.0164, 637.9268
779.4985, 650.1600
779.9807, 661.0486
780.4628, 672.0413
780.9449, 684.1391
781.4270, 696.8930
781.9091, 709.6710
782.3912, 722.2180
782.8734, 734.7880
783.3555, 747.7796
783.8376, 760.6761
784.3197, 771.6521
784.8018, 780.6068
785.2839, 790.1179
785.7661, 801.3976
786.2482, 813.0357
786.7303, 822.7707
787.2124, 830.8065
787.6945, 837.9865
788.1766, 844.6785
788.6588, 850.6070
789.1409, 855.2759
789.6230, 859.1302
790.1051, 863.6305
790.5872, 869.8807
791.0693, 875.1922
791.5515, 878.7145
792.0336, 881.0975
792.5157, 884.3292
792.9978, 888.4210
793.4799, 891.5799
793.9620, 892.5741
794.4442, 892.9889
794.9263, 895.6235
795.4084, 899.6659
795.8905, 902.8792
796.3726, 903.6086
796.8547, 903.9635
797.3369, 904.8284
797.8190, 906.0159
798.3011, 906.7092
798.7832, 905.8857
799.2653, 906.7061
799.7474, 910.5677
800.2296, 916.0920
800.7117, 919.2410
801.1938, 920.2123
801.6759, 921.1458
802.1580, 922.6237
802.6401, 924.8607
803.1223, 928.0506
803.6044, 932.2101
804.0865, 937.2960
804.5686, 944.2402
805.0507, 951.1183
805.5328, 957.2123
806.0150, 962.8558
806.4971, 969.0186
806.9792, 975.9626
807.4613, 982.5401
807.9434, 988.1739
808.4255, 993.5377
808.9077, 1000.387
809.3898, 1008.499
809.8719, 1016.898
810.3540, 1025.121
810.8361, 1033.469
811.3182, 1042.399
811.8004, 1051.579
812.2825, 1060.439
812.7646, 1067.358
813.2467, 1075.850
813.7288, 1087.528
814.2109, 1100.826
814.6931, 1111.157
815.1752, 1118.199
815.6573, 1126.128
816.1394, 1136.300
816.6215, 1147.889
817.1037, 1159.895
817.5858, 1172.158
818.0679, 1184.542
818.5500, 1196.762
819.0322, 1209.404
819.5143, 1221.914
819.9964, 1234.965
820.4785, 1249.992
820.9606, 1267.583
821.4427, 1285.603
821.9249, 1303.579
822.4070, 1322.008
822.8891, 1341.916
823.3712, 1363.181
823.8533, 1384.336
824.3354, 1404.827
824.8176, 1425.778
825.2997, 1447.117
825.7818, 1470.000
826.2639, 1495.921
826.7460, 1529.303
827.2281, 1561.394
827.7103, 1588.943
828.1924, 1615.138
828.6745, 1644.909
829.1566, 1678.979
829.6387, 1712.756
830.1208, 1745.205
830.6030, 1777.374
831.0851, 1809.726
831.5672, 1842.210
832.0493, 1875.014
832.5314, 1907.926
833.0135, 1940.922
833.4957, 1974.402
833.9778, 2007.273
834.4599, 2038.793
834.9420, 2067.349
835.4241, 2095.899
835.9063, 2125.543
836.3884, 2153.886
836.8705, 2176.963
837.3526, 2194.948
837.8347, 2213.880
838.3168, 2235.117
838.7990, 2255.283
839.2811, 2271.464
839.7632, 2284.460
840.2453, 2295.168
840.7274, 2303.614
841.2095, 2310.636
841.6917, 2316.605
842.1738, 2321.076
842.6559, 2323.830
843.1380, 2324.703
843.6201, 2324.215
844.1022, 2322.164
844.5844, 2319.445
845.0665, 2316.909
845.5486, 2314.377
846.0307, 2311.194
846.5128, 2307.285
846.9949, 2303.728
847.4771, 2300.925
847.9592, 2299.018
848.4413, 2298.121
848.9234, 2298.302
849.4055, 2299.296
849.8876, 2300.312
850.3698, 2303.306
850.8519, 2309.815
851.3340, 2319.575
851.8161, 2329.055
852.2982, 2338.243
852.7803, 2348.213
853.2625, 2360.132
853.7446, 2372.936
854.2267, 2385.614
854.7088, 2398.210
855.1909, 2411.919
855.6730, 2427.483
856.1552, 2443.788
856.6373, 2460.917
857.1194, 2478.561
857.6015, 2494.343
858.0836, 2508.215
858.5657, 2521.800
859.0479, 2536.620
859.5300, 2551.379
860.0121, 2563.597
860.4942, 2573.475
860.9763, 2581.529
861.4584, 2588.175
861.9406, 2592.685
862.4227, 2594.691
862.9048, 2594.081
863.3869, 2591.321
863.8690, 2587.224
864.3511, 2578.734
864.8333, 2564.620
865.3154, 2546.203
865.7975, 2525.344
866.2796, 2502.059
866.7617, 2476.204
867.2438, 2447.014
867.7260, 2416.004
868.2081, 2382.760
868.6902, 2348.616
869.1723, 2315.070
869.6544, 2284.303
870.1365, 2250.862
870.6187, 2214.133
871.1008, 2175.090
871.5829, 2134.837
872.0650, 2093.525
872.5471, 2054.274
873.0292, 2017.889
873.5114, 1981.952
873.9935, 1943.088
874.4756, 1903.604
874.9577, 1866.788
875.4399, 1833.736
875.9220, 1800.590
876.4041, 1765.636
876.8862, 1731.260
877.3683, 1699.336
877.8505, 1670.318
878.3326, 1640.312
878.8147, 1609.206
879.2968, 1578.531
879.7789, 1549.935
880.2610, 1522.974
880.7432, 1497.042
881.2253, 1471.996
881.7074, 1445.799
882.1895, 1415.259
882.6716, 1385.369
883.1537, 1359.154
883.6359, 1336.509
884.1180, 1313.397
884.6001, 1289.516
885.0822, 1266.009
885.5643, 1243.573
886.0464, 1221.816
886.5286, 1199.466
887.0107, 1176.848
887.4928, 1155.130
887.9749, 1136.326
888.4570, 1117.777
888.9391, 1097.707
889.4213, 1076.878
889.9034, 1057.706
890.3855, 1041.108
890.8676, 1024.552
891.3497, 1007.452
891.8318, 990.2216
892.3140, 972.5526
892.7961, 954.7751
893.2782, 938.3249
893.7603, 924.4153
894.2424, 910.4411
894.7245, 894.2952
895.2067, 877.2786
895.6888, 860.7828
896.1709, 845.4533
896.6530, 830.1532
897.1351, 814.7608
897.6172, 799.7809
898.0994, 786.2742
898.5815, 773.9564
899.0636, 760.9423
899.5457, 747.1862
900.0278, 733.5894
900.5099, 720.8758
900.9921, 708.6055
901.4742, 696.1104
901.9563, 683.3484
902.4384, 671.0120
902.9205, 659.6576
903.4026, 648.3649
903.8848, 636.5568
904.3669, 624.4008
904.8490, 612.3705
905.3311, 600.5188
905.8132, 589.0511
906.2953, 577.6647
906.7775, 566.9125
907.2596, 557.5472
907.7417, 549.2229
908.2238, 540.5278
908.7059, 530.5501
909.1880, 520.9597
909.6702, 512.3767
910.1523, 504.2277
910.6344, 494.8353
911.1165, 484.2453
911.5986, 474.6265
912.0807, 466.8001
912.5629, 459.6013
913.0450, 451.8184
913.5271, 443.7802
914.0092, 435.7767
914.4913, 427.4581
914.9734, 420.3224
915.4556, 415.5338
915.9377, 411.0777
916.4198, 405.0945
916.9019, 397.4984
917.3840, 389.6724
917.8661, 381.5726
918.3483, 374.0807
918.8304, 368.1721
919.3125, 363.1220
919.7946, 358.1570
920.2767, 353.2394
920.7589, 348.1490
921.2410, 342.4601
921.7231, 336.9882
922.2052, 332.1881
922.6873, 327.9157
923.1694, 322.6307
923.6516, 316.3300
924.1337, 310.5466
924.6158, 306.4020
925.0979, 302.8813
925.5800, 298.8826
926.0621, 294.4785
926.5443, 289.7951
927.0264, 284.0194
927.5085, 279.0963
927.9906, 275.7356
928.4727, 273.1034
928.9548, 269.8978
929.4370, 266.1203
929.9191, 262.1510
930.4012, 258.0620
930.8833, 253.9494
931.3654, 249.6364
931.8475, 245.5173
932.3297, 242.1418
932.8118, 239.8519
933.2939, 237.5173
933.7761, 234.8983
934.2582, 232.1237
934.7403, 229.2868
935.2224, 226.3630
935.7045, 223.3837
936.1866, 220.3264
936.6688, 217.1602
937.1509, 213.3378
937.6330, 209.7495
938.1151, 207.9391
938.5972, 207.4711
939.0793, 206.1126
939.5615, 201.6507
940.0436, 198.1255
940.5257, 196.9591
941.0078, 197.1618
941.4899, 196.0676
941.9720, 193.7288
942.4542, 191.5039
942.9363, 189.7307
943.4184, 188.2776
943.9005, 187.3067
944.3826, 186.4428
944.8647, 185.0955
945.3469, 182.6706
945.8290, 180.6583
946.3111, 179.3801
946.7932, 178.2682
947.2753, 176.7457
947.7574, 174.8356
948.2396, 173.5173
948.7217, 172.8220
949.2038, 172.1074
949.6859, 170.7568
950.1680, 169.2515
950.6501, 167.9605
951.1323, 166.9129
951.6144, 166.1114
952.0965, 165.6611
952.5786, 165.3150
953.0607, 165.2315
953.5428, 165.0454
954.0250, 163.1889
954.5071, 160.0195
954.9892, 157.6979
955.4713, 157.5166
955.9534, 157.7034
956.4355, 156.8848
956.9177, 155.6222
957.3998, 154.7239
957.8819, 154.4508
958.3640, 154.2488
958.8461, 154.1470
959.3282, 154.0369
959.8104, 153.8376
960.2925, 153.5392
960.7746, 153.1107
961.2567, 152.5476
961.7388, 151.8494
962.2209, 150.7957
962.7031, 149.7817
963.1852, 149.1120
963.6673, 148.7832
964.1494, 148.4728
964.6315, 148.2088
965.1136, 147.8383
965.5958, 147.1549
966.0779, 146.4941
966.5600, 146.7544
967.0421, 147.6138
967.5242, 148.1933
968.0063, 148.1125
968.4885, 147.7496
968.9706, 147.2661
969.4527, 146.5548
969.9348, 145.3601
970.4169, 143.4476
970.8990, 142.2477
971.3812, 141.8670
971.8633, 142.0647
972.3454, 143.1612
972.8275, 144.4177
973.3096, 144.7361
973.7917, 144.0130
974.2739, 142.8566
974.7560, 140.6824
975.2381, 139.0188
975.7202, 138.6143
976.2023, 139.1760
976.6844, 139.2554
977.1666, 138.8569
977.6487, 138.2532
978.1308, 137.5364
978.6129, 136.7100
979.0950, 135.5936
979.5771, 134.4168
980.0593, 133.5473
980.5414, 133.5235
981.0235, 133.1334
981.5056, 132.1072
981.9877, 131.0182
982.4698, 130.5132
982.9520, 130.4811
983.4341, 130.3548
983.9162, 130.0898
984.3983, 129.3056
984.8804, 126.8508
985.3625, 124.4988
985.8447, 123.7893
986.3268, 124.7030
986.8089, 125.0967
987.2910, 124.8769
987.7731, 124.3704
988.2552, 123.6577
988.7374, 122.7523
989.2195, 121.5101
989.7016, 120.1148
990.1837, 119.0991
990.6658, 118.9352
991.1479, 118.5922
991.6301, 117.1154
992.1122, 115.6147
992.5944, 115.3213
993.0765, 116.6466
993.5586, 116.8006
994.0407, 115.6317
994.5228, 114.2915
995.0049, 113.6735
995.4871, 113.4762
995.9692, 113.5771
996.4513, 113.8293
996.9334, 113.4078
997.4155, 110.8595
997.8976, 109.1558
998.3798, 109.3911
998.8619, 110.6315
999.3440, 110.3825
999.8261, 108.8526
1000.308, 108.2117
1000.790, 109.3731
1001.272, 110.3760
1001.755, 109.2305
1002.237, 107.2475
1002.719, 105.7970
1003.201, 105.0915
1003.683, 104.9580
1004.165, 105.7811
1004.647, 106.2040
1005.129, 104.7055
1005.612, 102.2552
1006.094, 102.1908
1006.576, 103.9399
1007.058, 104.7946
1007.540, 101.9450
1008.022, 99.49642
1008.504, 99.80527
1008.986, 101.3413
1009.468, 101.4705
1009.951, 100.0267
1010.433, 98.32327
1010.915, 96.38744
1011.397, 94.97826
1011.879, 95.40905
1012.361, 96.62174
1012.843, 97.42285
1013.325, 97.64433
1013.807, 97.24975
1014.290, 95.53838
1014.772, 94.28576
1015.254, 94.49525
1015.736, 95.71624
1016.218, 96.05817
1016.700, 95.65183
1017.182, 95.25861
1017.664, 95.39185
1018.147, 95.41875
1018.629, 94.86892
1019.111, 93.98121
1019.593, 93.05427
1020.075, 91.85603
1020.557, 91.48915
1021.039, 92.18627
1021.521, 92.97263
1022.003, 92.71508
1022.486, 91.99368
1022.968, 92.02928
1023.450, 92.78526
1023.932, 93.05845
1024.414, 91.60021
1024.896, 90.52297
1025.378, 90.78250
1025.860, 91.75501
1026.343, 91.42492
1026.825, 89.92221
1027.307, 89.05851
1027.789, 89.49874
1028.271, 90.15638
1028.753, 90.02993
1029.235, 89.60462
1029.717, 89.46474
1030.199, 89.87308
1030.682, 89.82202
1031.164, 89.13509
1031.646, 88.47961
1032.128, 88.30387
1032.610, 88.44630
1033.092, 88.49751
1033.574, 88.49752
1034.056, 88.59164
1034.539, 89.36068
1035.021, 89.59428
1035.503, 88.48547
1035.985, 86.91884
1036.467, 86.03226
1036.949, 85.84554
1037.431, 85.81464
1037.913, 85.88645
1038.396, 86.06022
1038.878, 86.48299
1039.360, 86.90267
1039.842, 87.13526
1040.324, 87.15043
1040.806, 86.79253
1041.288, 85.76643
1041.770, 85.08630
1042.252, 85.17370
1042.734, 85.64502
1043.217, 85.66706
1043.699, 85.42480
1044.181, 85.44122
1044.663, 86.05904
1045.145, 86.51391
1045.627, 86.67885
1046.109, 86.40054
1046.591, 85.29813
1047.074, 83.29079
1047.556, 82.84483
1048.038, 83.96206
1048.520, 85.04206
1049.002, 84.89597
1049.484, 84.35425
1049.966, 84.05448
1050.448, 83.94332
1050.931, 83.81413
1051.413, 83.45284
1051.895, 83.56984
1052.377, 84.44771
1052.859, 85.31887
1053.341, 84.94524
1053.823, 83.93947
1054.305, 83.86442
1054.787, 84.90329
1055.270, 85.49547
1055.752, 84.66902
1056.234, 83.48099
1056.716, 82.08434
1057.198, 80.77901
1057.680, 81.16569
1058.162, 83.10056
1058.644, 84.27293
1059.126, 83.69862
1059.609, 82.74320
1060.091, 82.45911
1060.573, 82.55736
1061.055, 82.75406
1061.537, 83.05087
1062.019, 83.35444
1062.501, 83.74063
1062.983, 83.85677
1063.466, 83.28017
1063.948, 82.38216
1064.430, 81.80730
1064.912, 81.49691
1065.394, 81.27251
1065.876, 81.21987
1066.358, 81.03013
1066.840, 80.53348
1067.323, 80.02335
1067.805, 79.90141
1068.287, 80.11068
1068.769, 80.13257
1069.251, 79.92905
1069.733, 80.16008
1070.215, 82.26279
1070.697, 84.06575
1071.179, 83.70640
1071.661, 81.72131
1072.144, 80.34673
1072.626, 79.60430
1073.108, 79.49052
1073.590, 80.17211
1074.072, 80.98577
1074.554, 81.13879
1075.036, 80.88969
1075.518, 80.54884
1076.001, 80.14832
1076.483, 79.75225
1076.965, 79.27650
1077.447, 79.00014
1077.929, 79.15440
1078.411, 79.56392
1078.893, 79.73071
1079.375, 79.71020
1079.858, 79.68423
1080.340, 79.77110
1080.822, 79.79853
1081.304, 79.46627
1081.786, 79.22987
1082.268, 79.66360
1082.750, 80.78622
1083.232, 81.27155
1083.714, 81.09464
1084.197, 80.57629
1084.679, 79.61495
1085.161, 78.70849
1085.643, 78.32070
1086.125, 78.30996
1086.607, 78.13730
1087.089, 77.75268
1087.571, 77.26682
1088.054, 76.58757
1088.536, 76.22746
1089.018, 77.21464
1089.500, 78.69728
1089.982, 79.33085
1090.464, 78.95872
1090.946, 78.80164
1091.428, 79.26636
1091.911, 79.70393
1092.393, 79.91414
1092.875, 79.97129
1093.357, 80.13708
1093.839, 80.30288
1094.321, 79.99318
1094.803, 78.73509
1095.285, 78.10713
1095.767, 80.03109
1096.250, 81.75526
1096.732, 81.11134
1097.214, 78.29345
1097.696, 77.46445
1098.178, 78.51524
1098.660, 79.21780
1099.142, 77.95712
1099.624, 76.47011
1100.106, 75.97664
1100.589, 76.16786
1101.071, 76.59074
1101.553, 77.38132
1102.035, 77.76720
1102.517, 77.66371
1102.999, 77.56346
1103.481, 78.20788
1103.963, 78.88346
1104.446, 78.30846
1104.928, 76.83702
1105.410, 76.05042
1105.892, 76.77492
1106.374, 77.41548
1106.856, 77.76689
1107.338, 77.96497
1107.820, 78.13802
1108.302, 78.31808
1108.785, 78.70029
1109.267, 79.30067
1109.749, 79.55728
1110.231, 78.84539
1110.713, 78.21186
1111.195, 78.22578
1111.677, 78.46939
1112.159, 77.43183
1112.641, 75.41508
1113.124, 74.43423
1113.606, 75.22179
1114.088, 76.09887
1114.570, 76.00142
1115.052, 75.46909
1115.534, 74.78406
1116.016, 73.99110
1116.498, 73.80283
1116.981, 74.23512
1117.463, 74.75037
1117.945, 75.14412
1118.427, 75.46931
1118.909, 75.91782
1119.391, 76.27148
1119.873, 76.19071
1120.355, 75.55439
1120.838, 74.61633
1121.320, 73.16514
1121.802, 72.32110
1122.284, 73.70515
1122.766, 75.64052
1123.248, 75.18675
1123.730, 73.17951
1124.212, 71.90419
1124.694, 72.82746
1125.177, 73.31282
1125.659, 72.97935
1126.141, 72.56444
1126.623, 73.13087
1127.105, 74.16422
1127.587, 74.10851
1128.069, 73.04839
1128.551, 72.23034
1129.033, 72.31313
1129.516, 72.61837
1129.998, 73.12768
1130.480, 73.55322
1130.962, 73.30489
1131.444, 72.51384
1131.926, 71.67883
1132.408, 70.83829
1132.890, 70.71017
1133.373, 72.70274
1133.855, 74.57922
1134.337, 74.98454
1134.819, 74.30088
1135.301, 73.72810
1135.783, 73.27016
1136.265, 72.91222
1136.747, 72.67451
1137.229, 72.43587
1137.712, 72.09637
1138.194, 71.70668
1138.676, 71.12048
1139.158, 70.33888
1139.640, 70.84951
1140.122, 72.87609
1140.604, 73.94077
1141.086, 72.46351
1141.569, 70.64913
1142.051, 71.36913
1142.533, 73.09972
1143.015, 73.67540
1143.497, 72.22331
1143.979, 71.60017
1144.461, 71.95473
1144.943, 72.59402
1145.426, 73.53395
1145.908, 74.12751
1146.390, 72.73427
1146.872, 70.27695
1147.354, 68.66980
1147.836, 68.93887
1148.318, 69.50877
1148.800, 70.52985
1149.282, 71.39007
1149.765, 71.51118
1150.247, 71.11736
1150.729, 70.35915
1151.211, 69.47693
1151.693, 69.38143
1152.175, 71.55345
1152.657, 72.91011
1153.139, 72.66543
1153.621, 71.92599
1154.104, 72.14004
1154.586, 72.93959
1155.068, 73.06915
1155.550, 72.48322
1156.032, 71.68116
1156.514, 70.54060
1156.996, 69.67431
1157.478, 69.20056
1157.961, 69.12919
1158.443, 69.65099
1158.925, 70.63695
1159.407, 71.36108
1159.889, 71.71463
1160.371, 71.93825
1160.853, 71.96517
1161.335, 72.14140
1161.818, 72.89132
1162.300, 73.82417
1162.782, 73.53430
1163.264, 72.16335
1163.746, 71.52652
1164.228, 72.12906
1164.710, 72.80917
1165.192, 72.52879
1165.674, 72.18284
1166.156, 72.64710
1166.639, 73.69554
1167.121, 73.69524
1167.603, 72.65285
1168.085, 71.67286
1168.567, 71.02657
1169.049, 70.77166
1169.531, 71.14408
1170.013, 71.80868
1170.496, 72.53616
1170.978, 73.31628
1171.460, 73.70671
1171.942, 73.71177
1172.424, 73.22762
1172.906, 71.81978
1173.388, 70.58974
1173.870, 70.81808
1174.353, 71.81635
1174.835, 72.75036
1175.317, 73.60228
1175.799, 74.11049
1176.281, 74.24174
1176.763, 74.34338
1177.245, 74.84188
1177.727, 75.16626
1178.209, 74.14612
1178.692, 72.67583
1179.174, 72.41842
1179.656, 74.45707
1180.138, 74.98806
1180.620, 73.70208
1181.102, 72.51521
1181.584, 73.00740
1182.066, 74.23302
1182.548, 75.27361
1183.031, 76.05376
1183.513, 76.41075
1183.995, 76.21104
1184.477, 75.78913
1184.959, 75.05196
1185.441, 74.49812
1185.923, 74.69678
1186.405, 75.25864
1186.888, 75.66601
1187.370, 75.96252
1187.852, 76.37065
1188.334, 77.22173
1188.816, 77.48253
1189.298, 76.88377
1189.780, 76.26924
1190.262, 76.63394
1190.745, 77.47218
1191.227, 78.18273
1191.709, 78.67958
1192.191, 78.70787
1192.673, 77.66526
1193.155, 77.32478
1193.637, 78.11469
1194.119, 79.14214
1194.601, 79.31526
1195.084, 79.03408
1195.566, 78.91247
1196.048, 78.98638
1196.530, 79.03126
1197.012, 78.71861
1197.494, 79.03232
1197.976, 80.40228
1198.458, 81.88195
1198.941, 82.05614
1199.423, 81.44629
1199.905, 80.78198
1200.387, 80.15730
1200.869, 79.92725
1201.351, 80.29714
1201.833, 80.79611
1202.315, 81.40218
1202.797, 81.89936
1203.280, 81.59267
1203.762, 81.06734
1204.244, 81.60445
1204.726, 83.46725
1205.208, 84.46361
1205.690, 83.89899
1206.172, 83.11436
1206.654, 82.37212
1207.136, 81.84916
1207.619, 81.94640
1208.101, 82.44205
1208.583, 83.04192
1209.065, 83.75444
1209.547, 84.03822
1210.029, 83.66904
1210.511, 83.24752
1210.993, 82.98727
1211.476, 82.78226
1211.958, 82.06232
1212.440, 81.37530
1212.922, 81.97298
1213.404, 84.52577
1213.886, 85.97739
1214.368, 85.64201
1214.850, 85.15231
1215.333, 85.23898
1215.815, 85.48049
1216.297, 84.90067
1216.779, 83.97635
1217.261, 83.59846
1217.743, 84.10203
1218.225, 84.66672
1218.707, 85.46827
1219.189, 85.61111
1219.672, 84.32771
1220.154, 82.58817
1220.636, 82.01378
1221.118, 82.33369
1221.600, 83.15689
1222.082, 84.65884
1222.564, 85.84895
1223.046, 86.79970
1223.528, 87.05914
1224.011, 86.04546
1224.493, 84.61822
1224.975, 84.27837
1225.457, 84.57724
1225.939, 84.77523
1226.421, 84.86297
1226.903, 84.14632
1227.385, 82.19373
1227.868, 80.99614
1228.350, 82.07671
1228.832, 84.08741
1229.314, 85.51067
1229.796, 86.19772
1230.278, 85.71025
1230.760, 83.12501
1231.242, 81.85185
1231.724, 82.05009
1232.207, 82.77845
1232.689, 83.81418
1233.171, 84.71547
1233.653, 84.86824
1234.135, 84.51411
1234.617, 84.03541
1235.099, 83.45021
1235.581, 82.86308
1236.063, 82.27327
1236.546, 81.72646
1237.028, 81.27750
1237.510, 80.86961
1237.992, 80.34052
1238.474, 79.84659
1238.956, 79.69978
1239.438, 80.03165
1239.920, 80.17337
1240.403, 80.12428
1240.885, 79.85887
1241.367, 79.03843
1241.849, 78.32781
1242.331, 78.33622
1242.813, 78.83248
1243.295, 79.56672
1243.777, 80.72728
1244.260, 80.81746
1244.742, 79.83876
1245.224, 78.84828
1245.706, 78.80248
1246.188, 78.63990
1246.670, 77.06538
1247.152, 75.28560
1247.634, 75.11210
1248.116, 76.74244
1248.599, 76.90340
1249.081, 75.67850
1249.563, 74.56040
1250.045, 74.50207
1250.527, 74.72811
1251.009, 74.84138
1251.491, 75.03696
1251.973, 75.74350
1252.455, 76.89600
1252.938, 76.53347
1253.420, 74.86961
1253.902, 73.71572
1254.384, 74.75671
1254.866, 75.59766
1255.348, 75.29316
1255.830, 74.49647
1256.313, 73.56036
1256.795, 72.58496
1257.277, 72.31639
1257.759, 72.64040
1258.241, 72.95242
1258.723, 73.24360
1259.205, 73.06245
1259.687, 72.13764
1260.169, 71.06869
1260.651, 70.16618
1261.134, 69.58263
1261.616, 70.30251
1262.098, 71.82970
1262.580, 72.45850
1263.062, 70.21570
1263.544, 69.20731
1264.026, 70.25595
1264.508, 71.44344
1264.991, 70.96597
1265.473, 69.63383
1265.955, 68.84318
1266.437, 68.51952
1266.919, 68.43226
1267.401, 68.80915
1267.883, 68.83234
1268.365, 68.37069
1268.848, 68.02316
1269.330, 68.65686
1269.812, 69.35294
1270.294, 68.45904
1270.776, 66.81120
1271.258, 66.40421
1271.740, 68.03355
1272.222, 68.65488
1272.704, 68.12984
1273.187, 67.47268
1273.669, 67.60612
1274.151, 67.69720
1274.633, 66.63765
1275.115, 65.23358
1275.597, 64.79525
1276.079, 65.50993
1276.561, 66.23229
1277.043, 66.92976
1277.526, 66.82167
1278.008, 64.38563
1278.490, 62.20840
1278.972, 61.93862
1279.454, 62.66755
1279.936, 63.62223
1280.418, 64.76797
1280.900, 65.56056
1281.383, 65.96461
1281.865, 65.78587
1282.347, 64.46925
1282.829, 63.17952
1283.311, 62.01838
1283.793, 61.35460
1284.275, 61.75806
1284.757, 62.87864
1285.240, 63.29234
1285.722, 63.13519
1286.204, 62.82389
1286.686, 62.28278
1287.168, 62.04733
1287.650, 62.27052
1288.132, 62.54571
1288.614, 62.47476
1289.096, 62.35408
1289.578, 63.22331
1290.061, 64.41383
1290.543, 64.46166
1291.025, 62.05274
1291.507, 60.87347
1291.989, 61.12244
1292.471, 61.70265
1292.953, 62.32235
1293.435, 62.51400
1293.918, 60.94134
1294.400, 58.95201
1294.882, 58.88107
1295.364, 61.15539
1295.846, 61.45764
1296.328, 59.74794
1296.810, 58.46391
1297.292, 58.90707
1297.775, 59.86795
1298.257, 60.95965
1298.739, 61.67759
1299.221, 61.47902
1299.703, 60.48554
1300.185, 59.97475
1300.667, 59.85903
1301.149, 59.58403
1301.631, 58.83424
1302.114, 58.18271
1302.596, 57.87976
##END=



