##NAMES=Caledonite
##RRUFFID=R070321
##IDEAL CHEMISTRY=Cu^2+^_2_Pb^2+^_5_(S^6+^O_4_)_3_(CO_3_)(OH)_6_
##LOCALITY=Soda Lake Mountains, near Baker, San Bernardino County, California, USA
##OWNER=RRUFF
##SOURCE=James Shigley
##DESCRIPTION=Striated blue bladed crystals
##STATUS=The identification of this mineral has been confirmed by single-crystal X-ray diffraction.
##URL=rruff.info/R070321
151.1082, 11630.76
151.5903, 11559.77
152.0724, 11555.34
152.5545, 11542.77
153.0366, 11503.68
153.5188, 11453.53
154.0009, 11422.82
154.4830, 11436.80
154.9651, 11455.25
155.4472, 11460.09
155.9293, 11439.35
156.4115, 11419.15
156.8936, 11404.03
157.3757, 11393.26
157.8578, 11383.98
158.3399, 11366.16
158.8221, 11354.88
159.3042, 11359.99
159.7863, 11415.76
160.2684, 11456.98
160.7505, 11452.95
161.2326, 11409.27
161.7148, 11369.43
162.1969, 11348.43
162.6790, 11341.28
163.1611, 11343.35
163.6432, 11368.22
164.1253, 11389.80
164.6075, 11384.53
165.0896, 11351.21
165.5717, 11335.12
166.0538, 11379.24
166.5359, 11453.53
167.0180, 11514.99
167.5002, 11536.43
167.9823, 11544.78
168.4644, 11557.87
168.9465, 11576.56
169.4286, 11603.00
169.9107, 11645.58
170.3929, 11697.20
170.8750, 11744.05
171.3571, 11777.49
171.8392, 11802.72
172.3213, 11824.75
172.8034, 11843.74
173.2856, 11860.32
173.7677, 11872.24
174.2498, 11881.40
174.7319, 11894.06
175.2140, 11907.65
175.6961, 11928.50
176.1783, 11970.77
176.6604, 12046.68
177.1425, 12126.40
177.6246, 12171.01
178.1067, 12183.84
178.5888, 12189.38
179.0710, 12200.50
179.5531, 12217.11
180.0352, 12239.42
180.5173, 12268.26
180.9994, 12301.82
181.4815, 12336.27
181.9637, 12371.97
182.4458, 12410.48
182.9279, 12462.06
183.4100, 12520.21
183.8921, 12561.10
184.3742, 12573.62
184.8564, 12566.47
185.3385, 12559.82
185.8206, 12554.10
186.3027, 12542.90
186.7848, 12513.34
187.2669, 12468.64
187.7491, 12432.40
188.2312, 12417.61
188.7133, 12417.93
189.1954, 12410.35
189.6775, 12394.59
190.1596, 12372.27
190.6418, 12341.25
191.1239, 12301.98
191.6060, 12267.01
192.0881, 12240.46
192.5702, 12222.26
193.0524, 12215.53
193.5345, 12224.39
194.0166, 12234.04
194.4987, 12214.97
194.9808, 12164.65
195.4629, 12123.27
195.9451, 12114.70
196.4272, 12138.06
196.9093, 12156.67
197.3914, 12170.53
197.8735, 12177.83
198.3556, 12171.63
198.8378, 12149.55
199.3199, 12129.27
199.8020, 12119.26
200.2841, 12119.72
200.7662, 12130.26
201.2483, 12154.26
201.7305, 12185.24
202.2126, 12207.41
202.6947, 12219.77
203.1768, 12227.06
203.6589, 12227.65
204.1410, 12218.33
204.6232, 12227.14
205.1053, 12263.66
205.5874, 12316.80
206.0695, 12345.79
206.5516, 12341.17
207.0337, 12337.17
207.5159, 12359.32
207.9980, 12412.64
208.4801, 12466.45
208.9622, 12518.02
209.4443, 12567.20
209.9264, 12613.49
210.4086, 12657.72
210.8907, 12697.57
211.3728, 12728.47
211.8549, 12745.92
212.3370, 12771.27
212.8191, 12811.19
213.3013, 12862.85
213.7834, 12905.08
214.2655, 12935.46
214.7476, 12960.44
215.2297, 12981.79
215.7118, 12992.13
216.1940, 13021.64
216.6761, 13084.20
217.1582, 13177.51
217.6403, 13240.80
218.1224, 13257.63
218.6045, 13265.43
219.0867, 13300.57
219.5688, 13371.06
220.0509, 13450.28
220.5330, 13535.12
221.0151, 13627.05
221.4972, 13706.57
221.9794, 13771.82
222.4615, 13827.57
222.9436, 13878.50
223.4257, 13921.01
223.9078, 13967.16
224.3899, 14021.98
224.8721, 14087.87
225.3542, 14139.98
225.8363, 14174.72
226.3184, 14199.55
226.8005, 14222.42
227.2827, 14238.75
227.7648, 14261.23
228.2469, 14289.27
228.7290, 14319.71
229.2111, 14383.97
229.6932, 14512.95
230.1754, 14649.94
230.6575, 14720.32
231.1396, 14700.99
231.6217, 14654.05
232.1038, 14591.84
232.5859, 14511.17
233.0681, 14431.39
233.5502, 14348.73
234.0323, 14269.96
234.5144, 14203.99
234.9965, 14153.50
235.4786, 14112.48
235.9608, 14082.67
236.4429, 14069.93
236.9250, 14041.11
237.4071, 13983.41
237.8892, 13917.76
238.3713, 13879.23
238.8535, 13884.03
239.3356, 13888.93
239.8177, 13880.31
240.2998, 13855.06
240.7819, 13827.52
241.2640, 13794.86
241.7462, 13761.12
242.2283, 13732.39
242.7104, 13706.62
243.1925, 13689.35
243.6746, 13684.65
244.1567, 13698.45
244.6389, 13704.04
245.1210, 13697.73
245.6031, 13685.43
246.0852, 13677.66
246.5673, 13676.57
247.0494, 13676.26
247.5316, 13672.92
248.0137, 13661.77
248.4958, 13665.29
248.9779, 13691.96
249.4600, 13728.55
249.9421, 13750.63
250.4243, 13756.89
250.9064, 13751.27
251.3885, 13732.66
251.8706, 13694.96
252.3527, 13665.61
252.8348, 13651.92
253.3170, 13642.15
253.7991, 13610.15
254.2812, 13539.07
254.7633, 13478.83
255.2454, 13452.63
255.7275, 13474.43
256.2097, 13478.69
256.6918, 13460.05
257.1739, 13427.54
257.6560, 13399.32
258.1381, 13382.71
258.6202, 13354.76
259.1024, 13299.77
259.5845, 13204.59
260.0666, 13139.91
260.5487, 13112.10
261.0308, 13110.19
261.5129, 13116.31
261.9951, 13135.53
262.4772, 13150.45
262.9593, 13151.97
263.4414, 13135.63
263.9235, 13128.43
264.4056, 13135.09
264.8878, 13146.40
265.3699, 13144.74
265.8520, 13125.23
266.3341, 13106.65
266.8162, 13095.74
267.2983, 13093.20
267.7805, 13094.38
268.2626, 13098.63
268.7447, 13107.37
269.2268, 13128.08
269.7089, 13168.13
270.1910, 13193.30
270.6732, 13179.34
271.1553, 13118.30
271.6374, 13101.98
272.1195, 13142.76
272.6016, 13210.10
273.0837, 13252.97
273.5659, 13267.21
274.0480, 13279.49
274.5301, 13302.30
275.0122, 13336.23
275.4943, 13358.79
275.9764, 13367.10
276.4586, 13369.41
276.9407, 13380.73
277.4228, 13402.95
277.9049, 13416.90
278.3870, 13413.24
278.8691, 13392.64
279.3513, 13367.26
279.8334, 13332.79
280.3155, 13304.61
280.7976, 13313.62
281.2798, 13362.02
281.7619, 13394.54
282.2440, 13382.31
282.7261, 13332.43
283.2082, 13301.32
283.6903, 13292.57
284.1725, 13289.36
284.6546, 13267.00
285.1367, 13226.66
285.6188, 13194.53
286.1009, 13182.66
286.5830, 13186.79
287.0652, 13188.83
287.5473, 13188.41
288.0294, 13188.09
288.5115, 13191.67
288.9936, 13198.57
289.4757, 13203.80
289.9579, 13203.84
290.4400, 13201.47
290.9221, 13204.67
291.4042, 13213.66
291.8863, 13225.52
292.3684, 13240.21
292.8506, 13256.17
293.3327, 13266.57
293.8148, 13265.39
294.2969, 13259.61
294.7790, 13261.60
295.2611, 13271.43
295.7433, 13288.67
296.2254, 13323.17
296.7075, 13366.26
297.1896, 13390.72
297.6717, 13375.84
298.1538, 13350.23
298.6360, 13362.02
299.1181, 13408.47
299.6002, 13456.01
300.0823, 13467.61
300.5644, 13463.64
301.0465, 13485.12
301.5287, 13556.04
302.0108, 13639.99
302.4929, 13695.96
302.9750, 13727.53
303.4571, 13751.99
303.9392, 13771.92
304.4214, 13794.77
304.9035, 13834.37
305.3856, 13905.67
305.8677, 13974.25
306.3498, 13999.99
306.8319, 13993.92
307.3141, 13995.55
307.7962, 14030.78
308.2783, 14083.63
308.7604, 14141.94
309.2425, 14208.34
309.7246, 14266.10
310.2068, 14295.24
310.6889, 14306.34
311.1710, 14327.13
311.6531, 14380.85
312.1352, 14443.43
312.6173, 14496.34
313.0995, 14533.23
313.5816, 14568.63
314.0637, 14614.35
314.5458, 14663.18
315.0279, 14701.98
315.5100, 14714.39
315.9922, 14723.99
316.4743, 14746.03
316.9564, 14787.21
317.4385, 14820.30
317.9206, 14836.51
318.4027, 14839.23
318.8849, 14833.18
319.3670, 14803.45
319.8491, 14779.39
320.3312, 14777.60
320.8133, 14805.22
321.2954, 14818.28
321.7776, 14797.46
322.2597, 14762.18
322.7418, 14733.13
323.2239, 14723.83
323.7060, 14710.51
324.1881, 14686.02
324.6703, 14649.15
325.1524, 14613.85
325.6345, 14574.70
326.1166, 14541.26
326.5987, 14521.08
327.0808, 14535.97
327.5630, 14538.28
328.0451, 14513.61
328.5272, 14464.04
329.0093, 14436.06
329.4914, 14449.25
329.9735, 14466.86
330.4557, 14462.22
330.9378, 14403.74
331.4199, 14379.65
331.9020, 14411.63
332.3841, 14485.64
332.8662, 14531.77
333.3484, 14536.30
333.8305, 14533.08
334.3126, 14539.48
334.7947, 14556.15
335.2768, 14581.25
335.7589, 14619.12
336.2411, 14662.86
336.7232, 14690.77
337.2053, 14691.69
337.6874, 14708.82
338.1695, 14776.79
338.6516, 14906.08
339.1338, 14981.33
339.6159, 14981.38
340.0980, 14956.49
340.5801, 15004.50
341.0622, 15136.39
341.5443, 15244.69
342.0265, 15278.31
342.5086, 15244.93
342.9907, 15213.48
343.4728, 15181.37
343.9549, 15162.47
344.4370, 15195.66
344.9192, 15272.24
345.4013, 15307.72
345.8834, 15254.87
346.3655, 15144.11
346.8476, 15048.31
347.3297, 14967.47
347.8119, 14909.21
348.2940, 14902.85
348.7761, 14928.50
349.2582, 14925.17
349.7403, 14862.66
350.2225, 14776.46
350.7046, 14715.73
351.1867, 14677.66
351.6688, 14644.94
352.1509, 14610.66
352.6331, 14572.21
353.1152, 14524.54
353.5973, 14462.96
354.0794, 14398.71
354.5615, 14335.20
355.0436, 14275.87
355.5258, 14231.31
356.0079, 14218.91
356.4900, 14217.38
356.9721, 14208.46
357.4542, 14188.20
357.9363, 14164.46
358.4185, 14141.29
358.9006, 14117.69
359.3827, 14091.94
359.8648, 14052.31
360.3469, 14019.12
360.8290, 14003.25
361.3112, 14006.63
361.7933, 14019.96
362.2754, 14058.68
362.7575, 14098.99
363.2396, 14115.11
363.7217, 14078.24
364.2039, 14039.38
364.6860, 14009.56
365.1681, 13989.13
365.6502, 13975.92
366.1323, 13970.62
366.6144, 13971.68
367.0966, 13978.18
367.5787, 13999.29
368.0608, 14014.21
368.5429, 14015.31
369.0250, 14007.22
369.5071, 14014.62
369.9893, 14052.49
370.4714, 14088.34
370.9535, 14106.11
371.4356, 14098.80
371.9177, 14088.27
372.3998, 14071.78
372.8820, 14053.70
373.3641, 14044.37
373.8462, 14046.24
374.3283, 14050.58
374.8104, 14053.24
375.2925, 14053.64
375.7747, 14062.19
376.2568, 14083.64
376.7389, 14103.98
377.2210, 14098.44
377.7031, 14064.51
378.1852, 14041.00
378.6674, 14042.42
379.1495, 14063.55
379.6316, 14083.05
380.1137, 14100.59
380.5958, 14118.01
381.0779, 14142.83
381.5601, 14171.16
382.0422, 14180.28
382.5243, 14157.88
383.0064, 14123.56
383.4885, 14109.38
383.9706, 14113.50
384.4528, 14123.40
384.9349, 14126.22
385.4170, 14130.36
385.8991, 14156.17
386.3812, 14216.25
386.8633, 14267.63
387.3455, 14254.17
387.8276, 14200.66
388.3097, 14163.66
388.7918, 14174.58
389.2739, 14212.06
389.7560, 14270.64
390.2382, 14353.35
390.7203, 14414.95
391.2024, 14410.76
391.6845, 14378.86
392.1666, 14363.02
392.6487, 14397.32
393.1309, 14432.06
393.6130, 14441.73
394.0951, 14429.15
394.5772, 14429.69
395.0593, 14459.31
395.5414, 14500.49
396.0236, 14542.04
396.5057, 14580.37
396.9878, 14621.66
397.4699, 14673.63
397.9520, 14729.76
398.4341, 14768.65
398.9163, 14766.91
399.3984, 14772.13
399.8805, 14802.45
400.3626, 14866.06
400.8447, 14930.98
401.3268, 14999.01
401.8090, 15066.96
402.2911, 15131.18
402.7732, 15189.45
403.2553, 15247.96
403.7374, 15307.07
404.2195, 15367.08
404.7017, 15432.37
405.1838, 15501.62
405.6659, 15580.72
406.1480, 15674.64
406.6301, 15783.74
407.1122, 15907.69
407.5944, 16052.33
408.0765, 16206.26
408.5586, 16334.59
409.0407, 16438.43
409.5228, 16548.14
410.0049, 16682.83
410.4871, 16837.58
410.9692, 16999.76
411.4513, 17167.42
411.9334, 17347.30
412.4155, 17555.79
412.8976, 17787.64
413.3798, 18018.82
413.8619, 18244.64
414.3440, 18465.05
414.8261, 18675.54
415.3082, 18877.28
415.7903, 19094.89
416.2725, 19346.30
416.7546, 19623.42
417.2367, 19923.71
417.7188, 20259.32
418.2009, 20595.68
418.6830, 20914.42
419.1652, 21219.89
419.6473, 21515.58
420.1294, 21792.06
420.6115, 22069.61
421.0937, 22370.56
421.5758, 22724.23
422.0579, 23030.94
422.5400, 23231.26
423.0221, 23387.13
423.5042, 23605.29
423.9864, 23954.02
424.4685, 24290.41
424.9506, 24599.11
425.4327, 24879.33
425.9148, 25094.52
426.3969, 25272.04
426.8791, 25353.69
427.3612, 25278.01
427.8433, 25014.70
428.3254, 24686.06
428.8075, 24290.95
429.2896, 23848.68
429.7718, 23430.35
430.2539, 23036.31
430.7360, 22659.63
431.2181, 22291.03
431.7002, 21933.25
432.1823, 21631.71
432.6645, 21394.49
433.1466, 21193.10
433.6287, 21003.38
434.1108, 20822.29
434.5929, 20632.55
435.0750, 20423.77
435.5572, 20205.13
436.0393, 19990.03
436.5214, 19778.63
437.0035, 19573.43
437.4856, 19381.99
437.9677, 19198.28
438.4499, 19015.42
438.9320, 18832.42
439.4141, 18648.50
439.8962, 18453.83
440.3783, 18257.76
440.8604, 18078.67
441.3426, 17939.38
441.8247, 17810.80
442.3068, 17673.96
442.7889, 17521.80
443.2710, 17385.60
443.7531, 17266.78
444.2353, 17171.24
444.7174, 17103.45
445.1995, 17104.74
445.6816, 17090.51
446.1637, 17034.57
446.6458, 16943.05
447.1280, 16877.15
447.6101, 16848.54
448.0922, 16832.62
448.5743, 16817.83
449.0564, 16806.91
449.5385, 16787.27
450.0207, 16751.13
450.5028, 16712.95
450.9849, 16702.04
451.4670, 16722.13
451.9491, 16750.44
452.4312, 16773.81
452.9134, 16796.10
453.3955, 16855.62
453.8776, 16956.78
454.3597, 17061.90
454.8418, 17137.61
455.3239, 17186.40
455.8061, 17214.21
456.2882, 17218.98
456.7703, 17209.33
457.2524, 17198.73
457.7345, 17185.13
458.2166, 17159.51
458.6988, 17125.63
459.1809, 17072.43
459.6630, 16981.24
460.1451, 16844.51
460.6272, 16705.48
461.1093, 16575.50
461.5915, 16464.46
462.0736, 16387.65
462.5557, 16377.33
463.0378, 16375.11
463.5199, 16351.96
464.0020, 16313.34
464.4842, 16301.64
464.9663, 16348.54
465.4484, 16407.98
465.9305, 16453.71
466.4126, 16454.64
466.8947, 16497.46
467.3769, 16614.16
467.8590, 16758.42
468.3411, 16849.17
468.8232, 16842.85
469.3053, 16871.43
469.7874, 16987.62
470.2696, 17183.77
470.7517, 17311.58
471.2338, 17355.83
471.7159, 17377.93
472.1980, 17432.10
472.6801, 17517.53
473.1623, 17590.10
473.6444, 17646.33
474.1265, 17682.92
474.6086, 17699.46
475.0907, 17693.87
475.5728, 17652.85
476.0550, 17552.86
476.5371, 17418.16
477.0192, 17286.82
477.5013, 17159.57
477.9834, 17033.64
478.4655, 16903.04
478.9477, 16773.20
479.4298, 16651.97
479.9119, 16530.69
480.3940, 16430.36
480.8761, 16379.74
481.3582, 16361.65
481.8404, 16327.32
482.3225, 16242.10
482.8046, 16152.57
483.2867, 16079.16
483.7688, 16026.89
484.2509, 15979.52
484.7331, 15924.59
485.2152, 15880.07
485.6973, 15865.30
486.1794, 15913.55
486.6615, 15933.64
487.1436, 15904.50
487.6258, 15837.18
488.1079, 15782.33
488.5900, 15740.96
489.0721, 15710.29
489.5542, 15692.88
490.0363, 15688.79
490.5185, 15677.24
491.0006, 15656.87
491.4827, 15632.08
491.9648, 15602.95
492.4470, 15572.19
492.9291, 15557.31
493.4112, 15577.63
493.8933, 15605.81
494.3754, 15597.85
494.8575, 15557.35
495.3397, 15507.59
495.8218, 15449.79
496.3039, 15396.82
496.7860, 15364.74
497.2681, 15358.53
497.7502, 15360.25
498.2324, 15372.20
498.7145, 15382.93
499.1966, 15377.06
499.6787, 15330.64
500.1608, 15286.47
500.6429, 15255.94
501.1251, 15239.08
501.6072, 15231.32
502.0893, 15245.00
502.5714, 15256.34
503.0535, 15252.95
503.5356, 15224.85
504.0178, 15207.25
504.4999, 15207.88
504.9820, 15212.10
505.4641, 15190.13
505.9462, 15132.31
506.4283, 15101.24
506.9105, 15128.26
507.3926, 15192.93
507.8747, 15210.00
508.3568, 15177.43
508.8389, 15133.90
509.3210, 15101.81
509.8032, 15080.60
510.2853, 15069.17
510.7674, 15068.28
511.2495, 15073.29
511.7316, 15089.11
512.2137, 15106.84
512.6959, 15108.36
513.1780, 15065.63
513.6601, 15021.30
514.1422, 15006.19
514.6243, 15016.65
515.1064, 15025.79
515.5886, 15011.98
516.0707, 15001.40
516.5528, 15013.13
517.0349, 15069.65
517.5170, 15106.65
517.9991, 15111.28
518.4813, 15095.53
518.9634, 15071.93
519.4455, 15029.16
519.9276, 14998.29
520.4097, 14988.20
520.8918, 14995.97
521.3740, 14999.93
521.8561, 14996.90
522.3382, 15000.55
522.8203, 15030.47
523.3024, 15083.23
523.7845, 15096.13
524.2667, 15057.35
524.7488, 15010.79
525.2309, 15018.95
525.7130, 15066.17
526.1951, 15097.24
526.6772, 15084.05
527.1594, 15054.27
527.6415, 15040.29
528.1236, 15038.54
528.6057, 15032.91
529.0878, 15004.57
529.5699, 14975.25
530.0521, 14961.50
530.5342, 14966.74
531.0163, 14980.91
531.4984, 15013.06
531.9805, 15047.39
532.4626, 15067.28
532.9448, 15056.45
533.4269, 15047.79
533.9090, 15045.46
534.3911, 15048.01
534.8732, 15048.76
535.3553, 15042.41
535.8375, 15044.60
536.3196, 15067.76
536.8017, 15114.21
537.2838, 15136.32
537.7659, 15130.66
538.2480, 15112.66
538.7302, 15092.15
539.2123, 15071.16
539.6944, 15067.49
540.1765, 15092.11
540.6586, 15122.67
541.1407, 15126.38
541.6229, 15108.89
542.1050, 15090.61
542.5871, 15084.90
543.0692, 15081.76
543.5513, 15066.85
544.0334, 15039.87
544.5156, 15027.69
544.9977, 15054.98
545.4798, 15095.36
545.9619, 15128.29
546.4440, 15151.75
546.9261, 15164.93
547.4083, 15157.17
547.8904, 15141.10
548.3725, 15141.01
548.8546, 15175.18
549.3367, 15194.71
549.8188, 15182.12
550.3010, 15141.15
550.7831, 15114.63
551.2652, 15102.82
551.7473, 15104.57
552.2294, 15124.47
552.7115, 15160.35
553.1937, 15192.54
553.6758, 15221.67
554.1579, 15237.99
554.6400, 15219.73
555.1221, 15177.72
555.6042, 15143.42
556.0864, 15131.15
556.5685, 15127.79
557.0506, 15114.00
557.5327, 15096.48
558.0148, 15100.67
558.4969, 15176.00
558.9791, 15249.08
559.4612, 15266.58
559.9433, 15209.26
560.4254, 15168.44
560.9075, 15169.62
561.3896, 15189.63
561.8718, 15207.89
562.3539, 15224.42
562.8360, 15239.01
563.3181, 15250.57
563.8002, 15260.56
564.2823, 15275.04
564.7645, 15297.05
565.2466, 15309.08
565.7287, 15300.67
566.2108, 15276.31
566.6929, 15253.72
567.1750, 15232.62
567.6572, 15224.35
568.1393, 15249.43
568.6214, 15292.58
569.1035, 15324.45
569.5856, 15341.82
570.0677, 15343.13
570.5499, 15305.01
571.0320, 15254.59
571.5141, 15234.46
571.9962, 15296.15
572.4783, 15355.28
572.9604, 15374.35
573.4426, 15359.87
573.9247, 15348.28
574.4068, 15339.01
574.8889, 15339.93
575.3710, 15359.02
575.8531, 15403.81
576.3353, 15424.94
576.8174, 15414.53
577.2995, 15391.81
577.7816, 15371.45
578.2637, 15352.75
578.7458, 15347.86
579.2280, 15363.75
579.7101, 15384.60
580.1922, 15370.15
580.6743, 15329.41
581.1564, 15313.28
581.6385, 15368.39
582.1207, 15449.08
582.6028, 15496.59
583.0849, 15513.24
583.5670, 15520.83
584.0491, 15520.00
584.5313, 15522.91
585.0134, 15540.99
585.4955, 15581.12
585.9776, 15619.15
586.4597, 15640.19
586.9418, 15659.62
587.4240, 15695.97
587.9061, 15777.75
588.3882, 15831.35
588.8703, 15833.26
589.3524, 15806.20
589.8345, 15817.85
590.3167, 15873.97
590.7988, 15948.27
591.2809, 16040.26
591.7630, 16141.99
592.2451, 16195.24
592.7272, 16197.61
593.2094, 16209.65
593.6915, 16303.60
594.1736, 16438.60
594.6557, 16532.36
595.1378, 16561.69
595.6199, 16584.29
596.1021, 16638.79
596.5842, 16714.63
597.0663, 16797.04
597.5485, 16884.74
598.0306, 16973.24
598.5127, 17067.49
598.9948, 17162.90
599.4769, 17241.12
599.9590, 17300.67
600.4412, 17345.14
600.9233, 17372.05
601.4054, 17380.22
601.8875, 17393.87
602.3696, 17417.27
602.8517, 17435.31
603.3339, 17430.15
603.8160, 17404.00
604.2981, 17387.03
604.7802, 17383.97
605.2623, 17386.22
605.7444, 17377.70
606.2266, 17365.31
606.7087, 17369.39
607.1908, 17429.85
607.6729, 17475.95
608.1550, 17448.79
608.6371, 17360.53
609.1193, 17249.63
609.6014, 17105.36
610.0835, 16964.81
610.5656, 16853.27
611.0477, 16777.65
611.5298, 16685.45
612.0120, 16555.00
612.4941, 16428.30
612.9762, 16338.33
613.4583, 16300.30
613.9404, 16240.77
614.4225, 16146.38
614.9047, 16049.02
615.3868, 15988.19
615.8689, 15963.20
616.3510, 15975.09
616.8331, 16037.63
617.3152, 16119.17
617.7974, 16170.77
618.2795, 16198.59
618.7616, 16229.37
619.2437, 16279.05
619.7258, 16336.08
620.2079, 16394.04
620.6901, 16452.21
621.1722, 16508.81
621.6543, 16576.57
622.1364, 16633.34
622.6185, 16661.90
623.1006, 16646.87
623.5828, 16635.80
624.0649, 16621.57
624.5470, 16617.83
625.0291, 16642.05
625.5112, 16697.07
625.9933, 16765.37
626.4755, 16843.48
626.9576, 16932.47
627.4397, 17048.83
627.9218, 17186.00
628.4039, 17294.04
628.8860, 17359.48
629.3682, 17375.77
629.8503, 17328.52
630.3324, 17220.69
630.8145, 17073.09
631.2966, 16862.97
631.7787, 16643.44
632.2609, 16447.07
632.7430, 16273.68
633.2251, 16140.86
633.7072, 16093.96
634.1893, 16065.22
634.6714, 15993.37
635.1536, 15835.60
635.6357, 15731.87
636.1178, 15706.88
636.5999, 15726.07
637.0820, 15728.53
637.5641, 15713.44
638.0463, 15701.34
638.5284, 15699.66
639.0105, 15704.25
639.4926, 15708.96
639.9747, 15713.24
640.4568, 15713.83
640.9390, 15710.39
641.4211, 15701.27
641.9032, 15678.63
642.3853, 15642.09
642.8674, 15620.17
643.3495, 15641.44
643.8317, 15669.87
644.3138, 15679.32
644.7959, 15648.05
645.2780, 15634.58
645.7601, 15646.54
646.2422, 15669.58
646.7244, 15687.33
647.2065, 15698.39
647.6886, 15712.37
648.1707, 15735.39
648.6528, 15755.64
649.1349, 15739.16
649.6171, 15692.35
650.0992, 15659.92
650.5813, 15669.95
651.0634, 15701.24
651.5455, 15734.97
652.0276, 15769.52
652.5098, 15794.46
652.9919, 15805.64
653.4740, 15804.50
653.9561, 15787.19
654.4382, 15749.01
654.9203, 15721.90
655.4025, 15716.00
655.8846, 15717.22
656.3667, 15714.38
656.8488, 15698.94
657.3309, 15710.87
657.8130, 15764.82
658.2952, 15822.40
658.7773, 15816.35
659.2594, 15753.54
659.7415, 15720.12
660.2236, 15750.21
660.7057, 15800.48
661.1879, 15811.04
661.6700, 15790.97
662.1521, 15765.29
662.6342, 15731.85
663.1163, 15708.99
663.5984, 15720.65
664.0806, 15760.47
664.5627, 15776.55
665.0448, 15724.61
665.5269, 15675.01
666.0090, 15660.00
666.4911, 15685.41
666.9733, 15700.73
667.4554, 15697.88
667.9375, 15701.01
668.4196, 15740.83
668.9017, 15815.33
669.3839, 15852.29
669.8660, 15839.85
670.3481, 15814.89
670.8302, 15823.48
671.3123, 15851.60
671.7944, 15867.35
672.2766, 15849.47
672.7587, 15835.08
673.2408, 15848.80
673.7229, 15883.33
674.2050, 15924.52
674.6871, 15991.32
675.1693, 16039.45
675.6514, 16049.56
676.1335, 16029.35
676.6156, 16016.95
677.0977, 16013.90
677.5798, 16014.99
678.0620, 16015.46
678.5441, 16016.93
679.0262, 16037.46
679.5083, 16078.05
679.9904, 16124.58
680.4725, 16176.04
680.9547, 16222.74
681.4368, 16247.51
681.9189, 16247.50
682.4010, 16231.84
682.8831, 16195.22
683.3652, 16151.58
683.8474, 16115.46
684.3295, 16095.11
684.8116, 16074.49
685.2937, 16054.59
685.7758, 16031.60
686.2579, 15997.85
686.7401, 15943.44
687.2222, 15906.80
687.7043, 15899.46
688.1864, 15909.78
688.6685, 15911.10
689.1506, 15903.82
689.6328, 15894.09
690.1149, 15883.44
690.5970, 15872.65
691.0791, 15856.99
691.5612, 15839.83
692.0433, 15838.35
692.5255, 15887.38
693.0076, 15934.41
693.4897, 15939.49
693.9718, 15895.18
694.4539, 15866.05
694.9360, 15873.29
695.4182, 15886.37
695.9003, 15888.23
696.3824, 15873.93
696.8645, 15870.00
697.3466, 15878.32
697.8287, 15892.09
698.3109, 15908.64
698.7930, 15925.68
699.2751, 15929.71
699.7572, 15916.52
700.2393, 15896.82
700.7214, 15866.45
701.2036, 15840.45
701.6857, 15844.61
702.1678, 15927.08
702.6499, 15995.79
703.1320, 16005.15
703.6141, 15975.73
704.0963, 15959.04
704.5784, 15960.21
705.0605, 15971.30
705.5426, 15994.53
706.0247, 16026.20
706.5068, 16050.86
706.9890, 16068.97
707.4711, 16077.17
707.9532, 16061.34
708.4353, 16036.98
708.9174, 16048.42
709.3995, 16092.97
709.8817, 16144.45
710.3638, 16184.07
710.8459, 16222.88
711.3280, 16272.09
711.8101, 16334.97
712.2922, 16392.73
712.7744, 16434.57
713.2565, 16474.00
713.7386, 16519.66
714.2207, 16569.39
714.7028, 16632.97
715.1849, 16716.40
715.6671, 16804.34
716.1492, 16877.09
716.6313, 16936.51
717.1134, 17013.74
717.5955, 17114.62
718.0776, 17230.47
718.5598, 17352.46
719.0419, 17480.19
719.5240, 17612.23
720.0061, 17748.05
720.4882, 17889.66
720.9703, 18044.11
721.4525, 18205.67
721.9346, 18362.99
722.4167, 18571.26
722.8988, 18703.56
723.3809, 18732.88
723.8630, 18668.99
724.3452, 18538.49
724.8273, 18334.71
725.3094, 18116.09
725.7915, 17906.11
726.2736, 17704.03
726.7557, 17505.52
727.2379, 17311.69
727.7200, 17131.17
728.2021, 16961.82
728.6842, 16814.20
729.1663, 16695.98
729.6484, 16608.76
730.1306, 16544.20
730.6127, 16514.40
731.0948, 16495.26
731.5769, 16472.73
732.0590, 16444.08
732.5411, 16423.12
733.0233, 16411.46
733.5054, 16403.89
733.9875, 16398.26
734.4696, 16393.46
734.9517, 16380.97
735.4338, 16359.17
735.9160, 16333.30
736.3981, 16294.19
736.8802, 16259.02
737.3623, 16257.78
737.8444, 16325.17
738.3266, 16375.33
738.8087, 16353.90
739.2908, 16303.23
739.7729, 16286.69
740.2551, 16332.96
740.7372, 16364.88
741.2193, 16370.60
741.7014, 16359.93
742.1835, 16349.46
742.6656, 16339.16
743.1478, 16341.41
743.6299, 16369.56
744.1120, 16400.62
744.5941, 16392.18
745.0762, 16355.03
745.5583, 16322.33
746.0405, 16275.46
746.5226, 16270.53
747.0047, 16371.13
747.4868, 16554.42
747.9689, 16686.56
748.4510, 16738.57
748.9332, 16753.77
749.4153, 16743.78
749.8974, 16708.01
750.3795, 16627.60
750.8616, 16494.91
751.3438, 16378.98
751.8259, 16334.33
752.3080, 16336.68
752.7901, 16323.01
753.2722, 16293.71
753.7543, 16282.70
754.2365, 16333.74
754.7186, 16397.82
755.2007, 16433.75
755.6828, 16432.25
756.1649, 16432.11
756.6470, 16444.76
757.1292, 16456.20
757.6113, 16456.53
758.0934, 16441.51
758.5755, 16434.43
759.0576, 16435.78
759.5397, 16443.29
760.0219, 16459.24
760.5040, 16479.63
760.9861, 16489.92
761.4682, 16486.21
761.9503, 16480.88
762.4324, 16479.08
762.9146, 16483.18
763.3967, 16497.26
763.8788, 16539.80
764.3609, 16563.70
764.8430, 16547.64
765.3251, 16516.64
765.8073, 16494.87
766.2894, 16478.61
766.7715, 16490.53
767.2536, 16543.54
767.7357, 16607.50
768.2178, 16628.29
768.7000, 16614.73
769.1821, 16604.15
769.6642, 16614.19
770.1463, 16622.50
770.6284, 16599.42
771.1105, 16562.10
771.5927, 16543.74
772.0748, 16556.34
772.5569, 16588.11
773.0390, 16654.53
773.5211, 16734.29
774.0032, 16766.17
774.4854, 16733.48
774.9675, 16716.49
775.4496, 16744.44
775.9317, 16798.80
776.4138, 16841.27
776.8959, 16870.37
777.3781, 16879.91
777.8602, 16837.94
778.3423, 16798.08
778.8244, 16814.49
779.3065, 16874.80
779.7886, 16924.81
780.2708, 16942.81
780.7529, 16952.78
781.2350, 16958.71
781.7171, 16962.35
782.1992, 16981.66
782.6813, 17019.49
783.1635, 17061.24
783.6456, 17104.96
784.1277, 17145.92
784.6098, 17162.17
785.0919, 17156.81
785.5740, 17161.10
786.0562, 17210.80
786.5383, 17267.58
787.0204, 17300.39
787.5025, 17307.46
787.9846, 17302.47
788.4667, 17258.51
788.9489, 17233.24
789.4310, 17259.13
789.9131, 17340.24
790.3952, 17389.04
790.8773, 17400.32
791.3594, 17401.70
791.8416, 17415.94
792.3237, 17435.64
792.8058, 17439.97
793.2879, 17428.11
793.7700, 17410.93
794.2521, 17391.64
794.7343, 17373.15
795.2164, 17355.22
795.6985, 17333.78
796.1806, 17333.49
796.6627, 17384.96
797.1448, 17426.57
797.6270, 17406.84
798.1091, 17311.58
798.5912, 17283.03
799.0733, 17334.84
799.5554, 17383.23
800.0375, 17323.74
800.5197, 17209.06
801.0018, 17144.36
801.4839, 17149.32
801.9660, 17160.56
802.4481, 17133.60
802.9302, 17099.88
803.4124, 17089.60
803.8945, 17135.24
804.3766, 17135.80
804.8587, 17065.06
805.3408, 16983.82
805.8229, 16949.86
806.3051, 16962.89
806.7872, 16979.06
807.2693, 16996.87
807.7514, 17004.20
808.2335, 16971.03
808.7156, 16925.46
809.1978, 16917.95
809.6799, 16977.32
810.1620, 17012.77
810.6441, 16960.59
811.1262, 16881.01
811.6083, 16833.45
812.0905, 16829.65
812.5726, 16834.79
813.0547, 16851.79
813.5368, 16870.66
814.0189, 16874.84
814.5010, 16868.54
814.9832, 16881.60
815.4653, 16923.93
815.9474, 16960.32
816.4295, 16950.48
816.9116, 16919.06
817.3937, 16897.19
817.8759, 16900.13
818.3580, 16897.99
818.8401, 16877.10
819.3222, 16853.62
819.8043, 16839.71
820.2864, 16832.28
820.7686, 16854.67
821.2507, 16917.15
821.7328, 16984.47
822.2149, 17011.93
822.6970, 17007.49
823.1791, 16986.42
823.6613, 16944.32
824.1434, 16912.94
824.6255, 16922.28
825.1076, 16950.05
825.5897, 16971.35
826.0718, 16982.17
826.5540, 16984.95
827.0361, 16976.09
827.5182, 16963.52
828.0003, 16954.91
828.4824, 16950.37
828.9645, 16956.06
829.4467, 16975.94
829.9288, 16993.38
830.4109, 16982.78
830.8930, 16959.34
831.3751, 16946.17
831.8572, 16950.57
832.3394, 16962.94
832.8215, 16983.69
833.3036, 17009.06
833.7857, 17035.71
834.2678, 17066.41
834.7499, 17088.25
835.2321, 17097.74
835.7142, 17104.24
836.1963, 17117.96
836.6784, 17138.56
837.1605, 17171.11
837.6426, 17223.75
838.1248, 17254.19
838.6069, 17211.05
839.0890, 17136.44
839.5711, 17076.03
840.0532, 17035.82
840.5353, 17017.84
841.0175, 17026.78
841.4996, 17051.60
841.9817, 17086.05
842.4638, 17131.23
842.9459, 17162.48
843.4280, 17177.54
843.9102, 17178.27
844.3923, 17155.04
844.8744, 17122.62
845.3565, 17107.73
845.8386, 17121.62
846.3207, 17130.07
846.8029, 17112.97
847.2850, 17088.38
847.7671, 17071.84
848.2492, 17064.89
848.7313, 17064.42
849.2134, 17074.28
849.6956, 17080.78
850.1777, 17059.52
850.6598, 17022.79
851.1419, 17022.40
851.6240, 17068.96
852.1061, 17105.44
852.5883, 17077.91
853.0704, 17026.88
853.5525, 16989.81
854.0346, 16979.71
854.5167, 16961.11
854.9988, 16924.24
855.4810, 16888.55
855.9631, 16872.71
856.4452, 16877.23
856.9273, 16850.67
857.4094, 16788.49
857.8915, 16741.91
858.3737, 16780.09
858.8558, 16848.73
859.3379, 16876.96
859.8200, 16853.97
860.3021, 16825.90
860.7842, 16809.71
861.2664, 16793.52
861.7485, 16767.06
862.2306, 16726.69
862.7127, 16717.23
863.1948, 16746.47
863.6769, 16771.94
864.1591, 16767.38
864.6412, 16735.72
865.1233, 16668.19
865.6054, 16568.87
866.0875, 16496.70
866.5696, 16510.47
867.0518, 16541.96
867.5339, 16548.95
868.0160, 16527.05
868.4981, 16506.12
868.9802, 16485.27
869.4623, 16467.64
869.9445, 16457.89
870.4266, 16452.52
870.9087, 16429.46
871.3908, 16390.95
871.8729, 16363.79
872.3550, 16381.32
872.8372, 16402.85
873.3193, 16390.17
873.8014, 16348.54
874.2835, 16313.08
874.7656, 16280.61
875.2477, 16270.70
875.7299, 16300.00
876.2120, 16353.30
876.6941, 16367.45
877.1762, 16342.57
877.6583, 16319.08
878.1404, 16323.79
878.6226, 16329.58
879.1047, 16284.52
879.5869, 16211.40
880.0690, 16167.70
880.5511, 16206.88
881.0332, 16242.03
881.5153, 16240.93
881.9974, 16221.60
882.4796, 16223.77
882.9617, 16253.77
883.4438, 16266.85
883.9259, 16245.85
884.4080, 16216.66
884.8901, 16228.25
885.3723, 16263.39
885.8544, 16280.51
886.3365, 16250.10
886.8186, 16223.67
887.3007, 16232.99
887.7828, 16255.98
888.2650, 16260.57
888.7471, 16236.20
889.2292, 16221.61
889.7113, 16222.62
890.1934, 16228.07
890.6755, 16219.54
891.1577, 16203.33
891.6398, 16198.86
892.1219, 16210.14
892.6040, 16231.57
893.0861, 16281.02
893.5682, 16325.85
894.0504, 16330.89
894.5325, 16265.56
895.0146, 16226.05
895.4967, 16216.91
895.9788, 16225.12
896.4609, 16244.73
896.9431, 16273.58
897.4252, 16300.68
897.9073, 16325.48
898.3894, 16339.49
898.8715, 16329.86
899.3536, 16311.69
899.8358, 16294.00
900.3179, 16276.98
900.8000, 16275.01
901.2821, 16293.18
901.7642, 16320.53
902.2463, 16359.63
902.7285, 16405.27
903.2106, 16415.36
903.6927, 16391.25
904.1748, 16370.48
904.6569, 16376.38
905.1390, 16396.44
905.6212, 16427.03
906.1033, 16462.59
906.5854, 16482.53
907.0675, 16455.23
907.5496, 16443.08
908.0317, 16466.57
908.5139, 16512.76
908.9960, 16545.25
909.4781, 16563.84
909.9602, 16570.68
910.4423, 16565.56
910.9244, 16550.53
911.4066, 16504.90
911.8887, 16455.47
912.3708, 16451.29
912.8529, 16571.52
913.3350, 16658.31
913.8171, 16668.87
914.2993, 16643.60
914.7814, 16628.46
915.2635, 16622.38
915.7456, 16647.05
916.2277, 16712.33
916.7098, 16779.39
917.1920, 16788.44
917.6741, 16775.34
918.1562, 16798.49
918.6383, 16884.35
919.1204, 16952.44
919.6025, 16945.93
920.0847, 16940.34
920.5668, 16993.23
921.0489, 17118.40
921.5310, 17198.97
922.0131, 17229.72
922.4952, 17257.21
922.9774, 17317.07
923.4595, 17398.45
923.9416, 17491.32
924.4237, 17593.33
924.9058, 17688.37
925.3879, 17746.68
925.8701, 17822.72
926.3522, 17948.79
926.8343, 18116.43
927.3164, 18244.29
927.7985, 18326.34
928.2806, 18429.33
928.7628, 18582.78
929.2449, 18774.14
929.7270, 19009.98
930.2091, 19269.00
930.6912, 19500.38
931.1733, 19648.40
931.6555, 19803.09
932.1376, 19982.68
932.6197, 20187.94
933.1018, 20434.39
933.5839, 20735.64
934.0660, 20984.70
934.5482, 21154.89
935.0303, 21297.34
935.5124, 21486.01
935.9945, 21694.90
936.4766, 21875.34
936.9587, 22011.44
937.4409, 22139.55
937.9230, 22288.13
938.4051, 22421.21
938.8872, 22508.56
939.3693, 22543.20
939.8514, 22576.32
940.3336, 22607.95
940.8157, 22636.96
941.2978, 22676.59
941.7799, 22706.03
942.2620, 22685.42
942.7441, 22615.87
943.2263, 22551.75
943.7084, 22523.37
944.1905, 22496.31
944.6726, 22456.52
945.1547, 22406.13
945.6368, 22354.35
946.1190, 22299.65
946.6011, 22264.31
947.0832, 22275.60
947.5653, 22292.41
948.0474, 22246.36
948.5295, 22163.24
949.0117, 22102.99
949.4938, 22112.33
949.9759, 22112.96
950.4580, 22079.01
950.9401, 22036.90
951.4222, 22029.47
951.9044, 22057.24
952.3865, 22082.50
952.8686, 22097.81
953.3507, 22116.63
953.8328, 22151.42
954.3149, 22199.20
954.7971, 22258.31
955.2792, 22330.46
955.7613, 22401.37
956.2434, 22455.39
956.7255, 22523.63
957.2076, 22628.61
957.6898, 22769.79
958.1719, 22908.51
958.6540, 23045.94
959.1361, 23186.32
959.6182, 23326.19
960.1003, 23477.09
960.5825, 23650.01
961.0646, 23844.89
961.5467, 24059.75
962.0288, 24284.66
962.5109, 24541.84
962.9930, 24829.55
963.4752, 25152.19
963.9573, 25518.18
964.4394, 25923.72
964.9215, 26362.78
965.4036, 26827.99
965.8857, 27340.30
966.3679, 27893.27
966.8500, 28511.94
967.3321, 29241.09
967.8142, 30114.23
968.2963, 31036.17
968.7784, 31994.25
969.2606, 33011.45
969.7427, 34098.36
970.2248, 35253.57
970.7069, 36482.87
971.1890, 37781.02
971.6711, 39111.78
972.1533, 40417.93
972.6354, 41760.56
973.1175, 43179.22
973.5996, 44674.52
974.0817, 46184.70
974.5638, 47740.02
975.0460, 49204.22
975.5281, 50570.69
976.0102, 51782.83
976.4923, 52793.72
976.9744, 53563.66
977.4565, 53976.18
977.9387, 54123.40
978.4208, 53737.05
978.9029, 52610.38
979.3850, 50936.01
979.8671, 48886.66
980.3492, 46415.27
980.8314, 43860.11
981.3135, 41217.70
981.7956, 38642.46
982.2777, 36212.12
982.7598, 33959.52
983.2419, 31924.77
983.7241, 30111.13
984.2062, 28539.47
984.6883, 27314.52
985.1704, 26247.94
985.6525, 25261.12
986.1346, 24355.77
986.6168, 23552.51
987.0989, 22850.88
987.5810, 22236.09
988.0631, 21709.95
988.5452, 21256.45
989.0273, 20893.47
989.5095, 20593.43
989.9916, 20289.63
990.4737, 19911.09
990.9558, 19624.85
991.4379, 19478.36
991.9200, 19396.27
992.4022, 19267.62
992.8843, 19102.96
993.3664, 18935.03
993.8485, 18765.96
994.3306, 18629.36
994.8127, 18584.90
995.2949, 18558.53
995.7770, 18475.34
996.2591, 18317.31
996.7412, 18218.33
997.2233, 18190.59
997.7054, 18180.56
998.1876, 18166.30
998.6697, 18143.03
999.1518, 18092.28
999.6339, 18020.87
1000.116, 17955.52
1000.598, 17905.85
1001.080, 17866.63
1001.562, 17843.79
1002.044, 17826.20
1002.527, 17792.20
1003.009, 17740.92
1003.491, 17685.79
1003.973, 17626.15
1004.455, 17580.24
1004.937, 17587.45
1005.419, 17612.02
1005.901, 17608.61
1006.384, 17564.82
1006.866, 17510.04
1007.348, 17434.13
1007.830, 17370.49
1008.312, 17345.19
1008.794, 17349.46
1009.276, 17329.99
1009.758, 17288.87
1010.240, 17243.24
1010.723, 17201.86
1011.205, 17160.38
1011.687, 17115.83
1012.169, 17069.07
1012.651, 17020.60
1013.133, 16962.62
1013.615, 16929.62
1014.097, 16936.02
1014.580, 16944.02
1015.062, 16892.08
1015.544, 16806.70
1016.026, 16736.35
1016.508, 16690.79
1016.990, 16658.42
1017.472, 16644.62
1017.954, 16634.11
1018.436, 16622.92
1018.919, 16610.06
1019.401, 16557.53
1019.883, 16465.16
1020.365, 16397.49
1020.847, 16413.42
1021.329, 16453.79
1021.811, 16459.13
1022.293, 16442.60
1022.776, 16437.36
1023.258, 16463.27
1023.740, 16478.07
1024.222, 16476.16
1024.704, 16464.30
1025.186, 16446.64
1025.668, 16426.72
1026.150, 16420.65
1026.632, 16431.97
1027.115, 16437.91
1027.597, 16409.04
1028.079, 16383.62
1028.561, 16396.63
1029.043, 16445.27
1029.525, 16452.84
1030.007, 16413.16
1030.489, 16383.59
1030.972, 16400.13
1031.454, 16430.45
1031.936, 16423.00
1032.418, 16395.38
1032.900, 16385.35
1033.382, 16440.82
1033.864, 16460.43
1034.346, 16416.21
1034.828, 16358.17
1035.311, 16339.28
1035.793, 16356.72
1036.275, 16398.04
1036.757, 16462.63
1037.239, 16530.14
1037.721, 16611.21
1038.203, 16668.75
1038.685, 16657.61
1039.167, 16587.43
1039.650, 16560.63
1040.132, 16587.59
1040.614, 16610.48
1041.096, 16598.28
1041.578, 16591.38
1042.060, 16680.49
1042.542, 16815.94
1043.024, 16902.65
1043.507, 16877.24
1043.989, 16870.55
1044.471, 16917.22
1044.953, 16977.16
1045.435, 17018.75
1045.917, 17043.90
1046.399, 17083.73
1046.881, 17137.73
1047.364, 17186.88
1047.846, 17212.20
1048.328, 17233.92
1048.810, 17261.07
1049.292, 17296.49
1049.774, 17348.19
1050.256, 17422.06
1050.738, 17493.22
1051.220, 17559.80
1051.703, 17613.21
1052.185, 17630.71
1052.667, 17628.37
1053.149, 17633.32
1053.631, 17652.71
1054.113, 17670.78
1054.595, 17689.13
1055.077, 17698.50
1055.559, 17693.83
1056.042, 17675.86
1056.524, 17648.07
1057.006, 17610.79
1057.488, 17566.47
1057.970, 17506.60
1058.452, 17450.29
1058.934, 17412.17
1059.416, 17384.59
1059.899, 17356.09
1060.381, 17334.07
1060.863, 17278.26
1061.345, 17178.27
1061.827, 17073.80
1062.309, 17000.87
1062.791, 16950.85
1063.273, 16918.89
1063.755, 16903.20
1064.238, 16876.06
1064.720, 16803.47
1065.202, 16754.32
1065.684, 16759.25
1066.166, 16794.17
1066.648, 16793.52
1067.130, 16761.86
1067.612, 16716.30
1068.094, 16648.84
1068.577, 16601.21
1069.059, 16615.02
1069.541, 16649.62
1070.023, 16664.63
1070.505, 16655.36
1070.987, 16648.46
1071.469, 16643.22
1071.951, 16645.98
1072.434, 16660.30
1072.916, 16685.60
1073.398, 16716.84
1073.880, 16758.38
1074.362, 16824.57
1074.844, 16927.62
1075.326, 17041.53
1075.808, 17162.88
1076.291, 17296.96
1076.773, 17452.75
1077.255, 17628.21
1077.737, 17815.39
1078.219, 18011.18
1078.701, 18214.44
1079.183, 18407.16
1079.665, 18622.88
1080.147, 18884.67
1080.630, 19183.57
1081.112, 19466.35
1081.594, 19734.44
1082.076, 20032.36
1082.558, 20378.31
1083.040, 20757.53
1083.522, 21204.55
1084.004, 21655.51
1084.486, 22039.38
1084.969, 22455.93
1085.451, 22502.47
1085.933, 22123.23
1086.415, 21584.27
1086.897, 21014.15
1087.379, 20457.69
1087.861, 19983.91
1088.343, 19593.52
1088.826, 19279.97
1089.308, 19033.62
1089.790, 18892.20
1090.272, 18884.73
1090.754, 18952.17
1091.236, 19012.36
1091.718, 19067.44
1092.200, 19121.03
1092.682, 19171.13
1093.165, 19249.61
1093.647, 19381.73
1094.129, 19545.03
1094.611, 19737.77
1095.093, 19952.12
1095.575, 20130.57
1096.057, 20270.80
1096.539, 20437.82
1097.022, 20666.23
1097.504, 20902.13
1097.986, 21085.55
1098.468, 21242.89
1098.950, 21410.15
1099.432, 21611.09
1099.914, 21775.86
1100.396, 21898.20
1100.879, 21995.64
1101.361, 22087.45
1101.843, 22158.72
1102.325, 22179.50
1102.807, 22154.75
1103.289, 22104.26
1103.771, 22029.31
1104.253, 21936.75
1104.735, 21838.42
1105.218, 21710.24
1105.700, 21510.01
1106.182, 21248.77
1106.664, 20984.36
1107.146, 20719.82
1107.628, 20459.08
1108.110, 20205.15
1108.592, 19950.57
1109.074, 19687.02
1109.557, 19420.22
1110.039, 19184.34
1110.521, 18977.77
1111.003, 18786.32
1111.485, 18608.57
1111.967, 18442.83
1112.449, 18287.50
1112.931, 18147.28
1113.414, 18028.63
1113.896, 17936.55
1114.378, 17843.57
1114.860, 17747.84
1115.342, 17659.09
1115.824, 17581.29
1116.306, 17515.01
1116.788, 17464.26
1117.271, 17425.57
1117.753, 17390.44
1118.235, 17346.73
1118.717, 17324.42
1119.199, 17333.09
1119.681, 17347.73
1120.163, 17343.01
1120.645, 17324.46
1121.127, 17298.38
1121.609, 17268.98
1122.092, 17269.34
1122.574, 17376.83
1123.056, 17439.34
1123.538, 17380.38
1124.020, 17270.65
1124.502, 17259.44
1124.984, 17334.18
1125.466, 17389.44
1125.949, 17405.03
1126.431, 17405.01
1126.913, 17407.85
1127.395, 17399.12
1127.877, 17357.03
1128.359, 17289.30
1128.841, 17270.20
1129.323, 17304.46
1129.806, 17291.68
1130.288, 17166.01
1130.770, 17042.24
1131.252, 17066.05
1131.734, 17148.47
1132.216, 17169.70
1132.698, 17095.59
1133.180, 17036.26
1133.662, 16993.95
1134.145, 16958.60
1134.627, 16919.91
1135.109, 16886.37
1135.591, 16874.72
1136.073, 16879.19
1136.555, 16885.49
1137.037, 16888.30
1137.519, 16895.25
1138.001, 16907.44
1138.484, 16922.38
1138.966, 16939.91
1139.448, 16957.43
1139.930, 16967.52
1140.412, 16970.44
1140.894, 16971.31
1141.376, 16970.54
1141.858, 16972.06
1142.341, 16987.69
1142.823, 16994.99
1143.305, 16934.24
1143.787, 16825.45
1144.269, 16766.45
1144.751, 16778.91
1145.233, 16780.60
1145.715, 16700.99
1146.198, 16621.87
1146.680, 16597.80
1147.162, 16610.40
1147.644, 16567.70
1148.126, 16473.61
1148.608, 16383.57
1149.090, 16311.60
1149.572, 16254.34
1150.054, 16225.20
1150.536, 16198.25
1151.019, 16144.19
1151.501, 16059.65
1151.983, 15990.59
1152.465, 15936.33
1152.947, 15906.14
1153.429, 15928.81
1153.911, 15950.95
1154.393, 15908.13
1154.876, 15833.63
1155.358, 15787.37
1155.840, 15786.48
1156.322, 15772.44
1156.804, 15742.05
1157.286, 15710.25
1157.768, 15686.78
1158.250, 15670.41
1158.733, 15667.72
1159.215, 15671.85
1159.697, 15655.41
1160.179, 15597.25
1160.661, 15558.23
1161.143, 15549.35
1161.625, 15549.58
1162.107, 15528.08
1162.589, 15501.77
1163.072, 15509.51
1163.554, 15550.36
1164.036, 15562.07
1164.518, 15501.98
1165.000, 15458.73
1165.482, 15457.89
1165.964, 15476.56
1166.446, 15475.20
1166.928, 15460.70
1167.411, 15450.40
1167.893, 15449.63
1168.375, 15436.43
1168.857, 15388.29
1169.339, 15345.26
1169.821, 15322.96
1170.303, 15316.48
1170.785, 15315.66
1171.268, 15318.38
1171.750, 15316.17
1172.232, 15300.73
1172.714, 15294.99
1173.196, 15319.60
1173.678, 15346.17
1174.160, 15360.28
1174.642, 15361.72
1175.125, 15338.89
1175.607, 15297.47
1176.089, 15269.85
1176.571, 15280.45
1177.053, 15295.73
1177.535, 15301.21
1178.017, 15304.50
1178.499, 15315.84
1178.981, 15334.99
1179.464, 15336.93
1179.946, 15321.22
1180.428, 15288.05
1180.910, 15201.13
1181.392, 15136.61
1181.874, 15155.26
1182.356, 15212.01
1182.838, 15239.51
1183.320, 15237.12
1183.803, 15226.21
1184.285, 15208.00
1184.767, 15198.05
1185.249, 15225.52
1185.731, 15248.50
1186.213, 15229.15
1186.695, 15183.16
1187.177, 15154.67
1187.660, 15144.33
1188.142, 15142.41
1188.624, 15147.97
1189.106, 15156.84
1189.588, 15170.19
1190.070, 15181.31
1190.552, 15185.32
1191.034, 15181.91
1191.516, 15168.69
1191.999, 15143.61
1192.481, 15127.91
1192.963, 15127.46
1193.445, 15135.09
1193.927, 15156.59
1194.409, 15173.80
1194.891, 15161.01
1195.373, 15116.14
1195.855, 15097.68
1196.338, 15108.39
1196.820, 15121.03
1197.302, 15126.25
1197.784, 15126.29
1198.266, 15121.10
1198.748, 15113.39
1199.230, 15107.46
1199.712, 15105.44
1200.195, 15092.28
1200.677, 15065.45
1201.159, 15045.25
1201.641, 15042.89
1202.123, 15052.35
1202.605, 15070.41
1203.087, 15094.32
1203.569, 15123.72
1204.052, 15177.48
1204.534, 15169.75
1205.016, 15088.82
1205.498, 15016.24
1205.980, 15026.13
1206.462, 15059.67
1206.944, 15041.21
1207.426, 14994.72
1207.908, 14979.06
1208.391, 15015.11
1208.873, 15032.68
1209.355, 15025.62
1209.837, 15018.57
1210.319, 15045.39
1210.801, 15073.75
1211.283, 15058.11
1211.765, 15011.13
1212.247, 14982.75
1212.730, 14987.10
1213.212, 14973.76
1213.694, 14932.98
1214.176, 14896.62
1214.658, 14905.74
1215.140, 14928.33
1215.622, 14923.40
1216.104, 14895.58
1216.587, 14885.93
1217.069, 14903.50
1217.551, 14913.11
1218.033, 14905.72
1218.515, 14903.66
1218.997, 14953.97
1219.479, 15008.32
1219.961, 14999.76
1220.443, 14929.51
1220.926, 14894.97
1221.408, 14909.19
1221.890, 14924.93
1222.372, 14935.30
1222.854, 14929.45
1223.336, 14879.50
1223.818, 14815.53
1224.300, 14767.24
1224.782, 14739.71
1225.265, 14742.92
1225.747, 14784.49
1226.229, 14818.95
1226.711, 14831.73
1227.193, 14833.67
1227.675, 14831.88
1228.157, 14830.32
1228.639, 14838.44
1229.122, 14859.46
1229.604, 14847.19
1230.086, 14793.58
1230.568, 14762.24
1231.050, 14788.05
1231.532, 14824.63
1232.014, 14811.22
1232.496, 14781.45
1232.979, 14780.01
1233.461, 14814.08
1233.943, 14838.30
1234.425, 14852.29
1234.907, 14858.16
1235.389, 14855.90
1235.871, 14847.41
1236.353, 14823.67
1236.835, 14800.60
1237.318, 14803.22
1237.800, 14836.64
1238.282, 14858.24
1238.764, 14868.10
1239.246, 14860.07
1239.728, 14810.65
1240.210, 14767.39
1240.692, 14789.43
1241.175, 14832.18
1241.657, 14830.23
1242.139, 14770.59
1242.621, 14751.95
1243.103, 14774.53
1243.585, 14789.41
1244.067, 14755.40
1244.549, 14715.50
1245.031, 14690.78
1245.514, 14683.13
1245.996, 14696.38
1246.478, 14733.70
1246.960, 14754.50
1247.442, 14758.53
1247.924, 14753.44
1248.406, 14741.15
1248.888, 14724.36
1249.370, 14698.27
1249.853, 14672.29
1250.335, 14658.51
1250.817, 14656.79
1251.299, 14660.05
1251.781, 14667.89
1252.263, 14679.21
1252.745, 14713.40
1253.227, 14726.35
1253.710, 14676.59
1254.192, 14612.65
1254.674, 14601.07
1255.156, 14633.04
1255.638, 14645.25
1256.120, 14635.01
1256.602, 14619.82
1257.084, 14602.96
1257.567, 14590.68
1258.049, 14583.23
1258.531, 14582.64
1259.013, 14592.44
1259.495, 14611.66
1259.977, 14648.91
1260.459, 14699.90
1260.941, 14714.64
1261.423, 14621.08
1261.906, 14556.91
1262.388, 14560.79
1262.870, 14592.83
1263.352, 14596.32
1263.834, 14583.32
1264.316, 14585.27
1264.798, 14602.82
1265.280, 14606.52
1265.762, 14568.02
1266.245, 14547.27
1266.727, 14556.62
1267.209, 14583.34
1267.691, 14626.78
1268.173, 14667.56
1268.655, 14665.75
1269.137, 14621.21
1269.619, 14592.91
1270.102, 14598.04
1270.584, 14586.08
1271.066, 14538.77
1271.548, 14498.06
1272.030, 14533.11
1272.512, 14594.63
1272.994, 14629.84
1273.476, 14632.36
1273.958, 14610.43
1274.441, 14557.33
1274.923, 14516.04
1275.405, 14495.13
1275.887, 14493.48
1276.369, 14523.82
1276.851, 14561.99
1277.333, 14594.19
1277.815, 14614.07
1278.297, 14582.74
1278.780, 14496.65
1279.262, 14440.64
1279.744, 14435.65
1280.226, 14457.16
1280.708, 14516.16
1281.190, 14565.45
1281.672, 14560.66
1282.154, 14520.59
1282.637, 14514.38
1283.119, 14537.86
1283.601, 14551.90
1284.083, 14547.78
1284.565, 14537.43
1285.047, 14530.91
1285.529, 14515.25
1286.011, 14478.63
1286.494, 14433.53
1286.976, 14423.03
1287.458, 14435.30
1287.940, 14423.77
1288.422, 14372.98
1288.904, 14349.77
1289.386, 14409.84
1289.868, 14460.83
1290.350, 14472.79
1290.833, 14458.51
1291.315, 14427.33
1291.797, 14393.99
1292.279, 14396.44
1292.761, 14449.27
1293.243, 14461.49
1293.725, 14399.33
1294.207, 14365.07
1294.689, 14400.90
1295.172, 14458.98
1295.654, 14477.51
1296.136, 14470.88
1296.618, 14452.20
1297.100, 14421.58
1297.582, 14413.01
1298.064, 14430.77
1298.546, 14441.60
1299.029, 14432.63
1299.511, 14421.38
1299.993, 14430.28
1300.475, 14442.89
1300.957, 14445.29
1301.439, 14436.97
1301.921, 14403.87
1302.403, 14347.68
1302.885, 14326.21
1303.368, 14365.50
1303.850, 14397.20
1304.332, 14355.13
1304.814, 14308.33
1305.296, 14299.59
1305.778, 14319.55
1306.260, 14342.19
1306.742, 14364.27
1307.224, 14368.88
1307.707, 14346.01
1308.189, 14339.21
1308.671, 14382.48
1309.153, 14424.61
1309.635, 14450.97
1310.117, 14460.20
1310.599, 14439.98
1311.081, 14402.84
1311.564, 14371.20
1312.046, 14348.39
1312.528, 14347.86
1313.010, 14383.56
1313.492, 14397.58
1313.974, 14362.54
1314.456, 14316.53
1314.938, 14310.43
##END=



