##NAMES=Caledonite
##RRUFFID=R060506
##IDEAL CHEMISTRY=Cu^2+^_2_Pb^2+^_5_(S^6+^O_4_)_3_(CO_3_)(OH)_6_
##LOCALITY=Rowley mine, Maricopa County, Arizona, USA
##OWNER=RRUFF
##SOURCE=Jim Ricker
##DESCRIPTION=Blue prismatic crystals
##STATUS=The identification of this mineral has been confirmed by single-crystal X-ray diffraction.
##URL=rruff.info/R060506
90.59570, 1308.159
91.07782, 1296.181
91.55994, 1291.986
92.04205, 1300.803
92.52417, 1313.881
93.00629, 1328.668
93.48840, 1337.184
93.97052, 1330.640
94.45264, 1305.804
94.93475, 1279.435
95.41687, 1254.994
95.89898, 1233.120
96.38110, 1213.732
96.86321, 1197.033
97.34533, 1182.257
97.82745, 1166.557
98.30956, 1151.581
98.79168, 1136.105
99.27380, 1122.792
99.75591, 1112.374
100.2380, 1104.242
100.7201, 1097.346
101.2023, 1091.221
101.6844, 1085.797
102.1665, 1080.531
102.6486, 1074.290
103.1307, 1068.714
103.6128, 1065.297
104.0950, 1064.028
104.5771, 1064.365
105.0592, 1066.149
105.5413, 1068.877
106.0234, 1072.048
106.5055, 1075.193
106.9877, 1078.515
107.4698, 1083.206
107.9519, 1090.982
108.4340, 1097.878
108.9161, 1102.380
109.3982, 1104.748
109.8804, 1105.682
110.3625, 1105.274
110.8446, 1102.834
111.3267, 1102.681
111.8088, 1106.754
112.2909, 1111.306
112.7731, 1115.316
113.2552, 1118.264
113.7373, 1119.629
114.2194, 1118.611
114.7015, 1114.104
115.1836, 1108.665
115.6658, 1102.922
116.1479, 1096.032
116.6300, 1087.120
117.1121, 1075.833
117.5942, 1062.564
118.0763, 1047.979
118.5584, 1031.857
119.0406, 1015.275
119.5227, 997.8421
120.0048, 980.0883
120.4869, 963.4158
120.9690, 948.8251
121.4511, 935.5976
121.9333, 921.9300
122.4154, 907.6066
122.8975, 893.1983
123.3796, 879.6039
123.8617, 866.9469
124.3438, 853.7277
124.8260, 838.9326
125.3081, 823.3591
125.7902, 807.3594
126.2723, 790.8895
126.7544, 774.4651
127.2365, 759.5092
127.7187, 746.5255
128.2008, 734.2557
128.6829, 722.0830
129.1650, 710.2327
129.6471, 699.0710
130.1292, 688.8317
130.6114, 679.4879
131.0935, 670.6507
131.5756, 662.7771
132.0577, 654.9531
132.5398, 646.7708
133.0219, 638.4278
133.5041, 630.4579
133.9862, 623.2767
134.4683, 616.9044
134.9504, 611.2927
135.4325, 606.2100
135.9146, 601.8689
136.3968, 598.7436
136.8789, 596.7444
137.3610, 594.9944
137.8431, 592.4629
138.3252, 588.8849
138.8073, 585.8640
139.2895, 584.0203
139.7716, 582.5595
140.2537, 580.6283
140.7358, 578.0779
141.2179, 574.9341
141.7000, 571.0294
142.1821, 566.4532
142.6643, 561.8215
143.1464, 557.6183
143.6285, 553.6213
144.1106, 548.9843
144.5927, 543.4052
145.0748, 537.1872
145.5570, 530.5193
146.0391, 523.4296
146.5212, 516.3850
147.0033, 509.7848
147.4854, 503.6466
147.9675, 497.6877
148.4497, 492.2210
148.9318, 486.6268
149.4139, 480.3814
149.8960, 473.4376
150.3781, 466.3065
150.8602, 459.7905
151.3424, 453.9173
151.8245, 448.5675
152.3066, 443.6217
152.7887, 439.1020
153.2708, 435.0529
153.7529, 431.5044
154.2351, 428.3252
154.7172, 425.2116
155.1993, 422.4290
155.6814, 419.3915
156.1635, 416.1220
156.6456, 412.5721
157.1278, 408.5895
157.6099, 404.0595
158.0920, 399.2075
158.5741, 395.0307
159.0562, 391.9697
159.5383, 388.9683
160.0205, 385.6782
160.5026, 382.2589
160.9847, 379.1064
161.4668, 376.5161
161.9489, 374.3561
162.4310, 372.0298
162.9131, 369.4930
163.3953, 366.8625
163.8774, 364.1407
164.3595, 361.3423
164.8416, 358.6722
165.3237, 356.3225
165.8058, 354.1844
166.2880, 351.9818
166.7701, 349.6049
167.2522, 347.2043
167.7343, 344.9490
168.2164, 342.8496
168.6985, 340.8647
169.1807, 339.1553
169.6628, 337.5163
170.1449, 335.6445
170.6270, 333.3011
171.1091, 330.7375
171.5912, 328.5456
172.0734, 326.8584
172.5555, 325.3329
173.0376, 323.9623
173.5197, 322.6052
174.0018, 320.9969
174.4839, 318.8652
174.9661, 316.3755
175.4482, 314.5951
175.9303, 314.3394
176.4124, 313.9214
176.8945, 312.8007
177.3766, 311.2057
177.8588, 309.5799
178.3409, 308.2347
178.8230, 307.1695
179.3051, 306.1266
179.7872, 305.0660
180.2693, 304.0622
180.7515, 303.1745
181.2336, 302.3687
181.7157, 301.5824
182.1978, 300.7742
182.6799, 299.9567
183.1620, 298.9503
183.6441, 297.4612
184.1263, 296.0801
184.6084, 295.2096
185.0905, 294.7889
185.5726, 294.4072
186.0547, 293.7073
186.5368, 292.6410
187.0190, 291.4348
187.5011, 289.8412
187.9832, 288.2975
188.4653, 287.1833
188.9474, 286.5325
189.4296, 286.0237
189.9117, 285.4536
190.3938, 284.8024
190.8759, 283.7550
191.3580, 281.8576
191.8401, 279.7440
192.3223, 278.1657
192.8044, 277.2667
193.2865, 276.5797
193.7686, 275.6260
194.2507, 274.5022
194.7328, 273.5438
195.2150, 273.0785
195.6971, 272.8078
196.1792, 272.0239
196.6613, 270.3797
197.1434, 268.8704
197.6255, 268.4340
198.1077, 268.7200
198.5898, 268.8637
199.0719, 268.2863
199.5540, 267.1646
200.0361, 266.2740
200.5182, 265.7399
201.0004, 265.3017
201.4825, 264.7112
201.9646, 264.0783
202.4467, 263.6930
202.9288, 263.9391
203.4109, 264.7552
203.8930, 265.0350
204.3752, 264.1476
204.8573, 263.3541
205.3394, 263.2245
205.8215, 263.5913
206.3036, 263.9862
206.7857, 263.9926
207.2679, 263.5797
207.7500, 263.3918
208.2321, 263.9100
208.7142, 264.2208
209.1963, 263.6838
209.6784, 262.6187
210.1606, 261.9215
210.6427, 262.5248
211.1248, 264.6799
211.6069, 265.8370
212.0890, 265.1688
212.5711, 264.3760
213.0533, 264.0505
213.5354, 264.2037
214.0175, 264.5891
214.4996, 265.0027
214.9817, 265.4578
215.4638, 265.8453
215.9460, 266.2773
216.4281, 266.5666
216.9102, 266.5375
217.3923, 266.2438
217.8744, 265.9262
218.3565, 265.8043
218.8387, 265.9064
219.3208, 266.0029
219.8029, 265.9457
220.2850, 265.9996
220.7671, 266.3872
221.2492, 267.0856
221.7314, 267.8592
222.2135, 268.5497
222.6956, 269.1361
223.1777, 269.4845
223.6598, 269.4075
224.1419, 269.2337
224.6240, 269.2567
225.1062, 269.4796
225.5883, 269.6114
226.0704, 269.3388
226.5525, 268.7281
227.0346, 268.3429
227.5167, 268.2956
227.9989, 268.4408
228.4810, 268.7229
228.9631, 269.1456
229.4452, 269.5063
229.9273, 269.6751
230.4094, 269.6581
230.8916, 269.4754
231.3737, 269.0628
231.8558, 268.5208
232.3379, 267.8806
232.8200, 267.1035
233.3021, 266.5039
233.7843, 266.5765
234.2664, 266.9049
234.7485, 266.8268
235.2306, 266.0231
235.7127, 264.8705
236.1948, 263.8664
236.6770, 263.0402
237.1591, 262.2171
237.6412, 261.1602
238.1233, 260.0977
238.6054, 259.3183
239.0875, 258.9907
239.5697, 258.8686
240.0518, 258.6211
240.5339, 258.2936
241.0160, 257.6764
241.4981, 256.4197
241.9802, 254.9595
242.4624, 253.6988
242.9445, 252.7874
243.4266, 252.0992
243.9087, 251.4324
244.3908, 250.7859
244.8729, 250.1657
245.3550, 249.7631
245.8372, 249.2930
246.3193, 248.4335
246.8014, 247.0555
247.2835, 245.4761
247.7656, 244.3072
248.2477, 243.9149
248.7299, 243.0358
249.2120, 241.1198
249.6941, 238.8974
250.1762, 236.9363
250.6583, 235.4034
251.1404, 234.0501
251.6226, 232.4209
252.1047, 230.3408
252.5868, 228.4019
253.0689, 226.6620
253.5510, 225.0543
254.0331, 223.5668
254.5153, 222.1848
254.9974, 220.8268
255.4795, 219.3429
255.9616, 217.6337
256.4437, 216.0281
256.9258, 214.5561
257.4080, 213.1526
257.8901, 211.7878
258.3722, 210.4503
258.8543, 209.1117
259.3364, 207.6944
259.8185, 205.9990
260.3007, 204.7677
260.7828, 204.2716
261.2649, 203.9152
261.7470, 203.4089
262.2291, 202.6807
262.7112, 201.7476
263.1934, 200.5711
263.6755, 198.9578
264.1576, 197.8423
264.6397, 197.6650
265.1218, 197.5181
265.6039, 196.8215
266.0861, 195.6199
266.5682, 194.3858
267.0503, 193.5992
267.5324, 193.3607
268.0145, 192.9480
268.4966, 192.3531
268.9788, 191.6339
269.4609, 190.7965
269.9430, 189.8564
270.4251, 188.8101
270.9072, 187.5985
271.3893, 186.2068
271.8715, 185.3894
272.3536, 185.6121
272.8357, 185.8215
273.3178, 185.4847
273.7999, 184.7484
274.2820, 184.1103
274.7642, 183.9407
275.2463, 184.1766
275.7284, 184.0255
276.2105, 183.0880
276.6926, 182.2896
277.1747, 182.0257
277.6568, 182.1359
278.1389, 182.2852
278.6211, 182.3232
279.1032, 182.2191
279.5853, 181.8022
280.0674, 180.8389
280.5495, 179.9061
281.0316, 179.0951
281.5138, 178.4168
281.9959, 177.9285
282.4780, 177.6813
282.9601, 177.5556
283.4422, 177.2240
283.9243, 176.4673
284.4065, 175.9406
284.8886, 176.0278
285.3707, 176.3607
285.8528, 176.3293
286.3349, 175.6984
286.8170, 174.8699
287.2992, 174.5506
287.7813, 174.8819
288.2634, 175.1850
288.7455, 175.4232
289.2276, 175.5517
289.7097, 175.4193
290.1919, 174.9778
290.6740, 174.5687
291.1561, 174.6904
291.6382, 175.4420
292.1203, 175.9323
292.6024, 175.8359
293.0846, 175.5738
293.5667, 175.5661
294.0488, 175.8650
294.5309, 176.2541
295.0130, 176.5773
295.4951, 176.8211
295.9773, 176.9046
296.4594, 176.5847
296.9415, 176.2758
297.4236, 176.3637
297.9057, 176.8309
298.3878, 177.2952
298.8700, 177.4286
299.3521, 177.3286
299.8342, 177.5853
300.3163, 178.4190
300.7984, 179.3949
301.2805, 180.4736
301.7627, 181.5554
302.2448, 182.1613
302.7269, 181.8708
303.2090, 181.0534
303.6911, 180.8555
304.1732, 181.6629
304.6554, 182.3968
305.1375, 182.4794
305.6196, 182.1167
306.1017, 181.8309
306.5838, 181.8129
307.0659, 181.9738
307.5481, 182.1333
308.0302, 182.2462
308.5123, 182.5012
308.9944, 183.2226
309.4765, 184.0729
309.9586, 184.3886
310.4408, 183.9357
310.9229, 183.2043
311.4050, 182.8208
311.8871, 182.7780
312.3692, 182.8181
312.8513, 182.9818
313.3335, 183.1602
313.8156, 183.2341
314.2977, 183.1855
314.7798, 183.0373
315.2619, 182.8121
315.7440, 182.4992
316.2262, 182.0561
316.7083, 181.4444
317.1904, 180.7240
317.6725, 179.8705
318.1546, 178.9017
318.6367, 178.0402
319.1188, 177.4773
319.6010, 177.1462
320.0831, 176.6749
320.5652, 176.0485
321.0473, 175.3020
321.5294, 174.3306
322.0115, 173.2254
322.4937, 172.3228
322.9758, 171.8466
323.4579, 171.5981
323.9400, 171.0591
324.4221, 170.0723
324.9042, 169.1860
325.3864, 168.6813
325.8685, 168.3956
326.3506, 167.9798
326.8327, 167.2910
327.3148, 166.5694
327.7969, 166.2692
328.2791, 166.4931
328.7612, 166.4739
329.2433, 165.8281
329.7254, 164.9795
330.2075, 164.4515
330.6896, 164.3345
331.1718, 164.3192
331.6539, 164.1082
332.1360, 163.6817
332.6181, 163.2429
333.1002, 162.5755
333.5823, 162.0685
334.0645, 162.1487
334.5466, 162.7483
335.0287, 163.3091
335.5108, 163.4432
335.9929, 163.1944
336.4750, 162.9708
336.9572, 162.6857
337.4393, 162.5063
337.9214, 162.5457
338.4035, 162.7448
338.8856, 163.0063
339.3677, 163.3209
339.8499, 163.5865
340.3320, 163.4906
340.8141, 162.9117
341.2962, 162.2603
341.7783, 161.6753
342.2604, 161.0367
342.7426, 160.1121
343.2247, 158.8381
343.7068, 157.5108
344.1889, 156.5466
344.6710, 156.0859
345.1531, 155.6496
345.6353, 155.3112
346.1174, 154.9495
346.5995, 154.5109
347.0816, 153.9755
347.5637, 153.2752
348.0458, 152.3407
348.5280, 151.1550
349.0101, 149.9671
349.4922, 148.7543
349.9743, 147.5635
350.4564, 146.4115
350.9385, 145.3073
351.4207, 144.2640
351.9028, 143.2991
352.3849, 142.3961
352.8670, 141.4736
353.3491, 140.3835
353.8312, 139.4598
354.3134, 138.8696
354.7955, 138.4189
355.2776, 137.8967
355.7597, 137.2276
356.2418, 136.4399
356.7239, 135.5517
357.2061, 134.3559
357.6882, 133.5126
358.1703, 133.2432
358.6524, 133.1232
359.1345, 132.8956
359.6166, 132.5228
360.0987, 132.0918
360.5808, 131.6937
361.0630, 131.3451
361.5451, 130.8560
362.0272, 129.9480
362.5093, 129.1965
362.9914, 128.8694
363.4735, 128.8344
363.9557, 128.8554
364.4378, 128.8000
364.9199, 128.6554
365.4020, 128.3562
365.8841, 127.7270
366.3662, 127.1813
366.8484, 126.7955
367.3305, 126.4992
367.8126, 126.2524
368.2947, 126.0351
368.7768, 125.7918
369.2589, 125.4130
369.7411, 124.8161
370.2232, 124.3121
370.7053, 123.9880
371.1874, 123.6869
371.6695, 123.3286
372.1516, 122.9117
372.6338, 122.4656
373.1159, 121.9865
373.5980, 121.4805
374.0801, 121.1384
374.5622, 121.0286
375.0443, 121.0163
375.5265, 121.0276
376.0086, 121.1042
376.4907, 121.3699
376.9728, 121.9551
377.4549, 122.5977
377.9370, 122.6488
378.4192, 121.8760
378.9013, 121.1680
379.3834, 120.7594
379.8655, 120.5149
380.3476, 120.3689
380.8297, 120.3065
381.3119, 120.2748
381.7940, 120.2338
382.2761, 120.1834
382.7582, 120.1019
383.2403, 119.9746
383.7224, 119.8278
384.2046, 119.6012
384.6867, 119.3514
385.1688, 119.2746
385.6509, 119.6817
386.1330, 120.3003
386.6151, 120.4239
387.0973, 119.8941
387.5794, 119.4399
388.0615, 119.7028
388.5436, 120.2397
389.0257, 120.3783
389.5078, 119.8011
389.9900, 119.1503
390.4721, 119.0510
390.9542, 119.4321
391.4363, 119.7228
391.9184, 119.6632
392.4005, 119.5287
392.8827, 119.7021
393.3648, 120.1903
393.8469, 120.7637
394.3290, 121.4976
394.8111, 122.2090
395.2932, 122.5098
395.7754, 122.3114
396.2575, 122.1020
396.7396, 122.3614
397.2217, 123.0456
397.7038, 123.5345
398.1859, 123.5992
398.6681, 123.6445
399.1501, 123.9384
399.6323, 124.4419
400.1144, 124.9582
400.5965, 125.3478
401.0786, 125.7522
401.5607, 126.6367
402.0428, 128.4290
402.5250, 129.8767
403.0071, 130.5019
403.4892, 130.7899
403.9713, 131.2607
404.4534, 132.0373
404.9355, 132.9888
405.4177, 133.9693
405.8998, 134.9662
406.3819, 136.0391
406.8640, 137.2881
407.3461, 138.5037
407.8282, 139.3919
408.3104, 140.1564
408.7925, 141.3508
409.2746, 143.3833
409.7567, 146.0066
410.2388, 148.1035
410.7209, 149.0050
411.2031, 150.2265
411.6852, 152.1469
412.1673, 154.2976
412.6494, 156.1563
413.1315, 157.6209
413.6136, 159.0852
414.0958, 161.1257
414.5779, 163.9450
415.0600, 166.5682
415.5421, 168.7765
416.0242, 170.9765
416.5063, 173.2487
416.9885, 175.6473
417.4706, 178.2065
417.9527, 180.9642
418.4348, 183.9064
418.9169, 187.0754
419.3990, 190.5979
419.8812, 194.0305
420.3633, 196.9339
420.8454, 199.8311
421.3275, 203.2865
421.8096, 207.4436
422.2917, 211.7252
422.7739, 215.5825
423.2560, 219.0180
423.7381, 222.2579
424.2202, 225.2802
424.7023, 228.1658
425.1844, 231.0663
425.6666, 233.9253
426.1487, 236.5483
426.6308, 238.7791
427.1129, 240.7642
427.5950, 242.7064
428.0771, 244.6236
428.5593, 246.3920
429.0414, 247.7726
429.5235, 249.0509
430.0056, 250.8440
430.4877, 253.3828
430.9698, 255.9219
431.4520, 257.8842
431.9341, 259.6085
432.4162, 261.6270
432.8983, 263.9940
433.3804, 267.1603
433.8625, 271.8267
434.3447, 278.2169
434.8268, 284.5421
435.3089, 290.1364
435.7910, 296.1666
436.2731, 303.5787
436.7552, 312.1226
437.2374, 320.9447
437.7195, 329.6074
438.2016, 338.0455
438.6837, 345.8549
439.1658, 352.9144
439.6479, 359.4990
440.1301, 366.4785
440.6122, 372.4878
441.0943, 376.1948
441.5764, 377.3332
442.0585, 376.4564
442.5406, 373.9662
443.0227, 369.5875
443.5049, 365.5737
443.9870, 361.6741
444.4691, 358.4281
444.9512, 355.8608
445.4333, 354.1201
445.9154, 353.3551
446.3976, 353.6438
446.8797, 355.0331
447.3618, 357.6732
447.8439, 361.6880
448.3260, 366.5943
448.8081, 373.0742
449.2903, 379.8960
449.7724, 386.5363
450.2545, 392.8607
450.7366, 398.6531
451.2187, 404.2970
451.7008, 409.3812
452.1830, 411.9792
452.6651, 411.9111
453.1472, 409.6794
453.6293, 404.8684
454.1114, 398.2206
454.5935, 390.4985
455.0757, 381.7858
455.5578, 372.2311
456.0399, 361.5103
456.5220, 349.9291
457.0041, 338.6727
457.4862, 328.1591
457.9684, 317.8744
458.4505, 307.0499
458.9326, 295.7011
459.4147, 284.5624
459.8968, 273.7317
460.3789, 263.2339
460.8611, 252.9677
461.3432, 243.0053
461.8253, 233.7524
462.3074, 225.4712
462.7895, 218.0080
463.2716, 210.5311
463.7538, 202.3280
464.2359, 195.0334
464.7180, 188.9993
465.2001, 183.8031
465.6822, 179.1572
466.1643, 174.9220
466.6465, 170.9462
467.1286, 167.0380
467.6107, 163.1187
468.0928, 159.7409
468.5749, 157.3987
469.0570, 155.0757
469.5392, 152.4175
470.0213, 149.6370
470.5034, 146.9943
470.9855, 144.5844
471.4676, 142.6112
471.9497, 141.6904
472.4319, 142.2363
472.9140, 142.0121
473.3961, 140.0039
473.8782, 137.7126
474.3603, 135.9090
474.8424, 134.5837
475.3246, 133.4115
475.8067, 132.2417
476.2888, 131.0930
476.7709, 129.9901
477.2530, 128.9378
477.7351, 127.9315
478.2173, 126.9758
478.6994, 126.0648
479.1815, 125.1881
479.6636, 124.3454
480.1457, 123.5413
480.6278, 122.8074
481.1100, 122.1063
481.5920, 121.3542
482.0742, 120.5333
482.5563, 119.7173
483.0384, 118.9432
483.5205, 118.2228
484.0026, 117.6629
484.4847, 117.6298
484.9669, 117.3533
485.4490, 116.2586
485.9311, 114.7588
486.4132, 113.5697
486.8953, 112.9547
487.3774, 112.7150
487.8596, 112.5657
488.3417, 112.6533
488.8238, 112.4104
489.3059, 111.5326
489.7880, 110.6736
490.2701, 110.1885
490.7523, 109.9814
491.2344, 109.7781
491.7165, 109.4131
492.1986, 108.9503
492.6807, 108.5862
493.1628, 108.4021
493.6450, 108.0948
494.1271, 107.4373
494.6092, 106.7562
495.0913, 106.3254
495.5734, 106.1304
496.0555, 105.8662
496.5377, 105.2162
497.0198, 104.3483
497.5019, 103.7355
497.9840, 103.4179
498.4661, 103.2131
498.9482, 103.0895
499.4304, 102.9885
499.9125, 102.7842
500.3946, 102.4039
500.8767, 102.0823
501.3588, 102.0000
501.8409, 102.0363
502.3231, 102.0268
502.8052, 101.9405
503.2873, 101.6386
503.7694, 100.9129
504.2515, 99.73813
504.7336, 98.95558
505.2158, 98.77985
505.6979, 98.70787
506.1800, 98.61201
506.6621, 98.48930
507.1442, 98.34183
507.6263, 98.17216
508.1085, 98.00546
508.5906, 97.89129
509.0727, 97.86422
509.5548, 97.76266
510.0369, 97.47373
510.5190, 97.22265
511.0012, 97.15468
511.4833, 97.17867
511.9654, 97.10828
512.4475, 96.83784
512.9296, 96.47098
513.4117, 96.17837
513.8939, 95.95918
514.3760, 95.81748
514.8581, 95.79633
515.3402, 95.81406
515.8223, 95.84707
516.3044, 95.87668
516.7866, 95.78878
517.2687, 95.48375
517.7508, 95.06478
518.2329, 94.56322
518.7150, 94.00607
519.1971, 93.74590
519.6793, 94.05724
520.1614, 94.63675
520.6435, 94.75286
521.1256, 94.24471
521.6077, 93.85239
522.0898, 93.79641
522.5720, 93.83829
523.0541, 93.81020
523.5362, 93.68241
524.0183, 93.42640
524.5004, 92.99035
524.9825, 92.45387
525.4647, 92.23946
525.9468, 92.74915
526.4289, 93.01049
526.9110, 92.83553
527.3931, 92.46712
527.8752, 92.01550
528.3574, 91.54763
528.8395, 91.20237
529.3216, 91.13145
529.8037, 91.29397
530.2858, 91.46395
530.7679, 91.69353
531.2501, 91.80701
531.7322, 91.65737
532.2143, 91.38501
532.6964, 91.10251
533.1785, 90.81673
533.6606, 90.59014
534.1428, 90.47316
534.6249, 90.44145
535.1070, 90.44341
535.5891, 90.47214
536.0712, 90.54475
536.5533, 90.70401
537.0355, 90.92016
537.5176, 91.01412
537.9997, 90.98884
538.4818, 90.85158
538.9639, 90.47523
539.4460, 90.04679
539.9282, 89.83730
540.4103, 89.88325
540.8924, 89.95768
541.3745, 89.79719
541.8566, 89.38787
542.3387, 89.22995
542.8209, 89.70417
543.3029, 89.97778
543.7850, 89.64049
544.2672, 89.13520
544.7493, 89.04597
545.2314, 89.50645
545.7135, 90.00155
546.1956, 89.87640
546.6777, 89.19744
547.1599, 88.76646
547.6420, 88.68167
548.1241, 88.72697
548.6062, 88.82082
549.0883, 88.94645
549.5704, 89.09716
550.0526, 89.32793
550.5347, 89.46258
551.0168, 89.30289
551.4989, 88.98318
551.9810, 88.79745
552.4631, 88.80918
552.9453, 88.85659
553.4274, 88.76171
553.9095, 88.52385
554.3916, 88.52818
554.8737, 89.12826
555.3558, 89.51070
555.8380, 89.26255
556.3201, 88.76054
556.8022, 88.42365
557.2843, 88.37873
557.7664, 88.58450
558.2485, 89.09614
558.7307, 89.93904
559.2128, 90.27332
559.6949, 89.66479
560.1770, 89.15952
560.6591, 89.26113
561.1412, 89.58202
561.6234, 89.60605
562.1055, 89.17799
562.5876, 88.73991
563.0697, 88.75915
563.5518, 89.08471
564.0339, 89.19023
564.5161, 88.98499
564.9982, 88.71050
565.4803, 88.49943
565.9624, 88.36446
566.4445, 88.32915
566.9266, 88.49589
567.4088, 88.61591
567.8909, 88.50865
568.3730, 88.35320
568.8551, 88.42256
569.3372, 88.73719
569.8193, 89.05185
570.3015, 89.12614
570.7836, 88.97583
571.2657, 88.90490
571.7478, 89.03336
572.2299, 89.07809
572.7120, 88.89314
573.1942, 88.67234
573.6763, 88.59293
574.1584, 88.68175
574.6405, 88.85147
575.1226, 89.04941
575.6047, 89.26778
576.0869, 89.51838
576.5690, 89.85591
577.0511, 89.97769
577.5332, 89.53553
578.0153, 88.90890
578.4974, 88.70883
578.9796, 89.00887
579.4617, 89.44723
579.9438, 90.02299
580.4259, 90.58605
580.9080, 90.98246
581.3901, 91.19809
581.8723, 91.24150
582.3544, 91.08520
582.8365, 90.82400
583.3186, 90.78440
583.8007, 91.20377
584.2828, 91.48846
584.7650, 91.30430
585.2471, 91.26353
585.7292, 92.00768
586.2113, 93.28825
586.6934, 94.26624
587.1755, 94.37592
587.6577, 93.93421
588.1398, 93.55478
588.6219, 93.18954
589.1040, 93.24181
589.5861, 94.01523
590.0682, 95.02341
590.5504, 95.77537
591.0325, 96.32144
591.5146, 96.98840
591.9967, 97.93993
592.4788, 98.99376
592.9609, 100.0274
593.4431, 101.0281
593.9252, 101.9654
594.4073, 102.8219
594.8894, 103.6429
595.3715, 104.4908
595.8536, 105.3625
596.3358, 106.2861
596.8179, 107.2613
597.3000, 108.2796
597.7821, 109.3581
598.2642, 110.4747
598.7463, 111.5670
599.2285, 112.6222
599.7106, 113.7700
600.1927, 115.1611
600.6748, 116.7985
601.1569, 118.7035
601.6390, 121.0900
602.1212, 123.2730
602.6033, 124.4670
603.0854, 125.3229
603.5675, 126.9069
604.0496, 129.6502
604.5317, 132.2277
605.0139, 133.8456
605.4960, 134.9554
605.9781, 136.3358
606.4602, 138.0110
606.9423, 139.2810
607.4244, 139.6315
607.9066, 139.1766
608.3887, 138.4150
608.8708, 137.1162
609.3529, 135.8289
609.8350, 134.8374
610.3171, 133.6531
610.7993, 131.8510
611.2814, 129.5216
611.7635, 127.0503
612.2456, 124.6157
612.7277, 122.2917
613.2098, 120.2414
613.6920, 118.4708
614.1741, 116.7816
614.6562, 115.1620
615.1383, 113.5488
615.6204, 111.7453
616.1025, 109.8171
616.5847, 108.2594
617.0668, 107.3133
617.5489, 106.6277
618.0310, 106.0804
618.5131, 105.6141
618.9952, 105.1043
619.4774, 104.5172
619.9595, 103.9587
620.4416, 103.5674
620.9237, 103.3577
621.4058, 103.0756
621.8879, 102.6078
622.3701, 102.2079
622.8522, 102.0446
623.3343, 101.9096
623.8164, 101.5441
624.2985, 100.9189
624.7806, 100.3035
625.2628, 99.97400
625.7448, 99.81496
626.2269, 99.46482
626.7090, 98.88847
627.1912, 98.46390
627.6733, 98.40004
628.1554, 98.55032
628.6375, 98.67653
629.1196, 98.81248
629.6017, 98.79240
630.0839, 98.49255
630.5660, 98.11736
631.0481, 97.77424
631.5302, 97.47355
632.0123, 97.20567
632.4944, 96.96726
632.9766, 96.75968
633.4587, 96.57191
633.9408, 96.38245
634.4229, 96.33720
634.9050, 96.66262
635.3871, 96.83214
635.8693, 96.49597
636.3514, 95.91489
636.8335, 95.45444
637.3156, 95.18142
637.7977, 95.13093
638.2798, 95.37991
638.7620, 95.85299
639.2441, 96.42313
639.7262, 97.07331
640.2083, 97.86204
640.6904, 98.90010
641.1725, 100.0218
641.6547, 100.6746
642.1368, 100.4253
642.6189, 100.3222
643.1010, 100.5458
643.5831, 100.7541
644.0652, 100.7034
644.5474, 100.4541
645.0295, 100.3066
645.5116, 100.5015
645.9937, 100.4795
646.4758, 98.97814
646.9579, 96.01655
647.4401, 93.95923
647.9222, 93.34533
648.4043, 93.30695
648.8864, 93.57172
649.3685, 93.89520
649.8506, 93.46088
650.3328, 91.58337
650.8149, 89.91054
651.2970, 89.26505
651.7791, 89.07964
652.2612, 88.64842
652.7433, 87.93000
653.2255, 87.37428
653.7076, 87.34561
654.1897, 87.66926
654.6718, 87.65622
655.1539, 87.07816
655.6360, 86.71659
656.1182, 86.84726
656.6003, 87.08008
657.0824, 87.25385
657.5645, 87.35661
658.0466, 87.38853
658.5287, 87.32639
659.0109, 87.23037
659.4930, 87.19297
659.9751, 87.16611
660.4572, 86.95650
660.9393, 86.51543
661.4214, 86.13792
661.9036, 86.09170
662.3857, 86.34911
662.8678, 86.60595
663.3499, 87.04887
663.8320, 87.23942
664.3141, 86.90034
664.7963, 86.48025
665.2784, 86.31844
665.7605, 86.41821
666.2426, 86.61645
666.7247, 86.83997
667.2068, 87.06030
667.6890, 87.24452
668.1711, 87.39127
668.6532, 87.42698
669.1353, 87.29173
669.6174, 87.14375
670.0995, 87.11358
670.5817, 87.20399
671.0638, 87.38184
671.5459, 87.90023
672.0280, 88.19263
672.5101, 87.89966
672.9922, 87.39429
673.4744, 87.00157
673.9565, 86.81098
674.4386, 86.87741
674.9207, 87.29494
675.4028, 87.91336
675.8849, 88.22250
676.3671, 88.15319
676.8492, 88.07215
677.3313, 87.97920
677.8134, 87.97794
678.2955, 88.23689
678.7776, 88.66331
679.2598, 88.91688
679.7419, 88.83599
680.2240, 88.67280
680.7061, 88.42252
681.1882, 88.24447
681.6703, 88.51669
682.1525, 89.23438
682.6346, 89.87085
683.1167, 89.98631
683.5988, 89.67198
684.0809, 89.37124
684.5630, 89.08871
685.0452, 88.81142
685.5273, 88.50216
686.0094, 88.23137
686.4915, 88.04920
686.9736, 87.94084
687.4557, 87.84325
687.9379, 87.67036
688.4200, 87.61288
688.9021, 87.98813
689.3842, 88.58411
689.8663, 88.87321
690.3484, 88.76595
690.8306, 88.57375
691.3127, 88.55287
691.7948, 88.64199
692.2769, 88.51134
692.7590, 87.73173
693.2411, 87.43397
693.7233, 88.13686
694.2054, 88.87875
694.6875, 88.98503
695.1696, 88.65269
695.6517, 88.49941
696.1339, 88.84069
696.6160, 89.31198
697.0981, 89.52129
697.5802, 89.52283
698.0623, 89.49567
698.5444, 89.46319
699.0266, 89.42181
699.5087, 89.31422
699.9908, 89.22855
700.4729, 89.51154
700.9550, 90.63855
701.4371, 91.40168
701.9193, 91.54066
702.4014, 91.53838
702.8835, 91.54458
703.3656, 91.66601
703.8477, 92.06165
704.3298, 92.80608
704.8120, 93.76042
705.2941, 94.84033
705.7762, 95.99367
706.2583, 96.91676
706.7404, 97.53376
707.2225, 98.24753
707.7046, 99.32433
708.1867, 100.6364
708.6688, 101.8413
709.1509, 102.7761
709.6331, 104.0233
710.1152, 105.8848
710.5973, 107.8210
711.0794, 109.5481
711.5615, 111.1059
712.0436, 112.5472
712.5258, 113.9078
713.0079, 115.3573
713.4900, 117.1264
713.9721, 119.1698
714.4542, 121.2827
714.9363, 123.4433
715.4185, 125.6830
715.9006, 127.9128
716.3827, 130.3044
716.8648, 133.3058
717.3469, 137.0756
717.8290, 140.3938
718.3112, 142.8335
718.7933, 145.1343
719.2754, 147.8145
719.7575, 150.5212
720.2396, 152.7310
720.7217, 154.3130
721.2039, 155.5644
721.6860, 156.9346
722.1681, 158.1751
722.6502, 158.2670
723.1323, 157.1557
723.6144, 155.3758
724.0966, 153.1455
724.5787, 150.2457
725.0608, 146.2660
725.5429, 141.1951
726.0250, 136.1452
726.5071, 130.9026
726.9893, 125.9855
727.4714, 121.4808
727.9535, 117.4468
728.4356, 114.0250
728.9177, 111.2055
729.3998, 108.8780
729.8820, 107.0106
730.3641, 105.4953
730.8462, 104.1350
731.3283, 102.9401
731.8104, 101.5992
732.2925, 99.88064
732.7747, 98.41014
733.2568, 97.81958
733.7389, 97.94517
734.2210, 97.83631
734.7031, 97.25804
735.1852, 96.81007
735.6674, 96.77639
736.1495, 96.78605
736.6316, 96.47384
737.1137, 95.93053
737.5958, 95.48640
738.0779, 95.30476
738.5601, 95.25895
739.0422, 95.17570
739.5243, 95.05939
740.0064, 94.94649
740.4885, 94.83918
740.9706, 94.73486
741.4528, 94.59964
741.9349, 94.49090
742.4170, 94.56629
742.8991, 94.90968
743.3812, 95.13419
743.8633, 95.16491
744.3455, 95.11674
744.8276, 94.89697
745.3097, 94.69752
745.7918, 94.87691
746.2739, 95.49891
746.7560, 96.13486
747.2382, 96.34537
747.7203, 96.25033
748.2024, 96.20708
748.6845, 96.21751
749.1666, 96.19578
749.6487, 96.09106
750.1309, 95.99291
750.6130, 95.97340
751.0951, 96.02678
751.5772, 96.33716
752.0593, 97.33976
752.5414, 98.01052
753.0236, 97.91167
753.5057, 97.54000
753.9878, 97.16939
754.4699, 96.94727
754.9520, 97.18435
755.4341, 98.25745
755.9163, 99.44688
756.3984, 99.53698
756.8805, 98.82322
757.3626, 98.72292
757.8447, 99.51060
758.3268, 100.1480
758.8090, 99.79881
759.2911, 98.84900
759.7732, 98.61458
760.2553, 99.78696
760.7374, 100.4192
761.2195, 100.0015
761.7017, 99.62239
762.1838, 99.88708
762.6659, 100.4988
763.1480, 100.9641
763.6301, 101.1462
764.1122, 101.2168
764.5944, 101.2830
765.0765, 101.3282
765.5586, 101.2749
766.0407, 101.1574
766.5228, 101.1969
767.0049, 101.4889
767.4871, 101.8107
767.9692, 101.8087
768.4513, 101.4484
768.9334, 101.6858
769.4155, 103.1928
769.8976, 104.1940
770.3798, 103.8061
770.8619, 103.1808
771.3440, 103.2995
771.8261, 104.0458
772.3082, 104.5588
772.7903, 104.4054
773.2725, 104.1108
773.7546, 103.9768
774.2367, 103.9652
774.7188, 103.9757
775.2009, 104.0260
775.6830, 104.3292
776.1652, 105.0649
776.6473, 105.9650
777.1294, 106.3191
777.6115, 106.0062
778.0936, 105.9923
778.5757, 106.5050
779.0579, 107.0135
779.5400, 107.2070
780.0221, 107.2254
780.5042, 107.2905
780.9863, 107.4117
781.4684, 107.5674
781.9506, 107.7954
782.4327, 108.0131
782.9148, 108.1574
783.3969, 108.2587
783.8790, 108.3614
784.3611, 108.4814
784.8433, 108.6326
785.3254, 108.8779
785.8075, 109.1333
786.2896, 109.0403
786.7717, 108.5899
787.2538, 108.4582
787.7360, 108.8729
788.2181, 109.4752
788.7002, 109.9887
789.1823, 110.4068
789.6644, 110.6538
790.1465, 110.5043
790.6286, 110.5176
791.1107, 110.8386
791.5928, 111.2389
792.0750, 111.7267
792.5571, 112.1471
793.0392, 112.1446
793.5213, 111.5383
794.0034, 110.9645
794.4855, 111.0580
794.9677, 111.5322
795.4498, 111.8774
795.9319, 112.0785
796.4140, 112.2706
796.8961, 112.5138
797.3782, 112.7319
797.8604, 112.8101
798.3425, 112.7408
798.8246, 112.7204
799.3067, 112.8757
799.7888, 112.8485
800.2709, 112.1769
800.7531, 111.5864
801.2352, 111.8014
801.7173, 112.6421
802.1994, 113.1600
802.6815, 112.8536
803.1636, 112.5468
803.6458, 112.8215
804.1279, 113.2318
804.6100, 113.1425
805.0921, 112.6529
805.5742, 112.3729
806.0563, 112.6453
806.5385, 113.1242
807.0206, 113.2459
807.5027, 113.0391
807.9848, 112.8702
808.4669, 112.7453
808.9490, 112.7033
809.4312, 112.7644
809.9133, 112.9136
810.3954, 113.1367
810.8775, 113.4429
811.3596, 113.7721
811.8417, 114.2781
812.3239, 114.6112
812.8060, 114.6041
813.2881, 114.4332
813.7702, 114.2259
814.2523, 114.0138
814.7344, 113.7929
815.2166, 113.4895
815.6987, 113.3307
816.1808, 113.7606
816.6629, 114.4639
817.1450, 114.6495
817.6271, 114.2863
818.1093, 113.9906
818.5914, 114.1151
819.0735, 114.5010
819.5556, 114.8869
820.0377, 115.3135
820.5198, 115.4422
821.0020, 115.0533
821.4841, 114.7821
821.9662, 114.9615
822.4483, 115.3084
822.9304, 115.5151
823.4125, 115.5830
823.8947, 115.6627
824.3768, 115.8437
824.8589, 115.9713
825.3410, 115.9963
825.8231, 115.9232
826.3052, 115.6132
826.7874, 115.1928
827.2695, 115.1359
827.7516, 115.7736
828.2337, 116.5757
828.7158, 116.6966
829.1979, 116.3235
829.6801, 116.2475
830.1622, 116.5383
830.6443, 116.9692
831.1264, 117.4820
831.6085, 117.9049
832.0906, 117.9049
832.5728, 117.3762
833.0549, 117.1952
833.5370, 117.6412
834.0191, 118.0357
834.5012, 118.2739
834.9833, 118.3663
835.4655, 118.2182
835.9476, 117.9068
836.4297, 117.7843
836.9118, 118.0850
837.3939, 118.3912
837.8760, 118.4565
838.3582, 118.4198
838.8403, 118.4482
839.3224, 118.5309
839.8045, 118.5517
840.2866, 118.4551
840.7687, 118.3531
841.2509, 118.4691
841.7330, 118.7337
842.2151, 118.7152
842.6972, 118.3937
843.1793, 117.9668
843.6614, 117.4237
844.1436, 117.0466
844.6257, 117.2377
845.1078, 117.9766
845.5899, 118.4030
846.0720, 118.4581
846.5541, 118.2664
847.0363, 117.4978
847.5184, 116.8141
848.0005, 116.7104
848.4826, 116.9953
848.9647, 117.1975
849.4468, 117.1842
849.9290, 117.1452
850.4111, 117.2639
850.8932, 117.3432
851.3753, 117.1346
851.8574, 116.7302
852.3395, 116.3346
852.8217, 116.0250
853.3038, 115.8298
853.7859, 115.8433
854.2680, 115.9407
854.7501, 115.6539
855.2322, 114.9834
855.7144, 114.5095
856.1965, 114.3693
856.6786, 114.3587
857.1607, 114.3613
857.6428, 114.3535
858.1249, 114.2540
858.6071, 113.9857
859.0892, 113.7920
859.5713, 113.9158
860.0534, 113.8279
860.5355, 113.1605
861.0176, 112.2806
861.4998, 111.6033
861.9819, 111.1782
862.4640, 110.8806
862.9461, 110.8121
863.4282, 110.6866
863.9103, 110.2104
864.3925, 109.6087
864.8746, 109.2545
865.3567, 109.1241
865.8388, 108.8387
866.3209, 108.1420
866.8030, 107.4638
867.2852, 107.7191
867.7673, 108.6390
868.2494, 108.6178
868.7315, 107.5304
869.2136, 106.7045
869.6957, 106.7549
870.1779, 107.0652
870.6600, 106.7952
871.1421, 105.9378
871.6242, 105.2961
872.1063, 105.0328
872.5884, 104.6978
873.0705, 104.1014
873.5526, 103.5252
874.0347, 103.2192
874.5168, 103.0548
874.9990, 102.6584
875.4811, 101.8158
875.9632, 101.2263
876.4453, 101.1950
876.9274, 101.4473
877.4095, 102.1321
877.8917, 102.8221
878.3738, 102.7021
878.8559, 101.6875
879.3380, 100.6545
879.8201, 100.2644
880.3022, 100.2725
880.7844, 100.4383
881.2665, 100.6598
881.7486, 100.4851
882.2307, 99.86665
882.7128, 99.24757
883.1949, 98.89932
883.6771, 98.76651
884.1592, 98.79116
884.6413, 99.03107
885.1234, 98.96562
885.6055, 98.46654
886.0876, 97.97236
886.5698, 97.61486
887.0519, 97.34603
887.5340, 97.12922
888.0161, 96.96091
888.4982, 96.77788
888.9803, 96.51317
889.4625, 96.32596
889.9446, 96.31332
890.4267, 96.32055
890.9088, 96.26641
891.3909, 96.14488
891.8730, 95.91685
892.3552, 95.56052
892.8373, 95.34364
893.3194, 95.67525
893.8015, 96.03209
894.2836, 95.71811
894.7657, 95.03206
895.2479, 94.53939
895.7300, 94.40371
896.2121, 94.71372
896.6942, 95.62085
897.1763, 96.71349
897.6584, 97.14327
898.1406, 96.95838
898.6227, 96.64132
899.1048, 96.23092
899.5869, 95.69695
900.0690, 94.96182
900.5511, 94.27258
901.0333, 94.03576
901.5154, 94.28095
901.9975, 94.29890
902.4796, 93.93179
902.9617, 93.62938
903.4438, 93.45979
903.9260, 93.39706
904.4081, 93.52060
904.8902, 93.72582
905.3723, 93.72297
905.8544, 93.38601
906.3365, 93.11614
906.8187, 92.98597
907.3008, 92.97659
907.7829, 93.16444
908.2650, 93.42113
908.7471, 93.57944
909.2292, 93.61561
909.7114, 93.60551
910.1935, 93.51541
910.6756, 93.52124
911.1577, 93.97658
911.6398, 94.58452
912.1219, 94.77480
912.6041, 94.54294
913.0862, 94.14656
913.5683, 93.70704
914.0504, 93.39248
914.5325, 93.44762
915.0146, 93.82919
915.4968, 94.37444
915.9789, 95.10000
916.4610, 95.49110
916.9431, 95.36449
917.4252, 95.13085
917.9073, 95.10040
918.3895, 95.25657
918.8716, 95.56863
919.3537, 96.22758
919.8358, 96.53852
920.3179, 96.12762
920.8000, 95.90247
921.2822, 96.41843
921.7643, 97.16955
922.2464, 97.56613
922.7285, 97.61945
923.2106, 97.84383
923.6927, 98.27983
924.1749, 98.93362
924.6570, 100.1054
925.1391, 101.2291
925.6212, 101.7336
926.1033, 101.8696
926.5854, 102.2272
927.0676, 102.9846
927.5497, 103.7731
928.0318, 104.1047
928.5139, 104.5633
928.9960, 106.0628
929.4781, 108.0299
929.9603, 109.2384
930.4424, 109.6200
930.9245, 110.1086
931.4066, 111.3150
931.8887, 112.8337
932.3708, 113.9986
932.8530, 114.9157
933.3351, 116.0494
933.8172, 117.4093
934.2993, 118.7392
934.7814, 119.9281
935.2635, 121.1455
935.7457, 122.6336
936.2278, 124.2718
936.7099, 125.2527
937.1920, 125.3380
937.6741, 125.8091
938.1563, 126.8514
938.6384, 128.2344
939.1205, 130.0874
939.6026, 132.0162
940.0847, 133.3184
940.5668, 133.9156
941.0490, 134.3392
941.5311, 134.2507
942.0132, 134.4607
942.4953, 135.5326
942.9774, 136.5851
943.4595, 136.6978
943.9417, 136.3066
944.4238, 136.6247
944.9059, 138.0516
945.3880, 139.5568
945.8701, 140.9765
946.3522, 142.1533
946.8344, 142.8326
947.3165, 143.2753
947.7986, 143.6866
948.2807, 144.1982
948.7628, 145.1634
949.2449, 146.9749
949.7271, 148.7736
950.2092, 149.5068
950.6913, 149.8378
951.1734, 150.8106
951.6555, 152.3530
952.1376, 153.8596
952.6198, 155.1567
953.1019, 156.7824
953.5840, 159.4055
954.0661, 162.5498
954.5482, 164.8896
955.0303, 166.6167
955.5124, 169.0587
955.9945, 172.4159
956.4766, 175.9272
956.9587, 179.1514
957.4409, 182.5893
957.9230, 187.0944
958.4051, 192.6754
958.8872, 197.8682
959.3693, 202.4061
959.8514, 207.8092
960.3336, 214.4886
960.8157, 221.8643
961.2978, 229.3596
961.7799, 237.2351
962.2620, 246.2251
962.7441, 256.4064
963.2263, 267.4224
963.7084, 279.1180
964.1905, 291.8353
964.6726, 305.5975
965.1547, 320.3975
965.6368, 336.4005
966.1190, 353.5295
966.6011, 371.3473
967.0832, 389.6538
967.5653, 409.0457
968.0474, 429.7995
968.5295, 451.5480
969.0117, 474.2240
969.4938, 497.6236
969.9759, 521.1834
970.4580, 544.9904
970.9401, 569.8248
971.4222, 595.8470
971.9044, 623.1390
972.3865, 652.1528
972.8686, 682.1613
973.3507, 712.2363
973.8328, 742.5111
974.3149, 773.6508
974.7971, 805.7181
975.2792, 837.9418
975.7613, 870.4364
976.2434, 901.6923
976.7255, 930.2391
977.2076, 955.7849
977.6898, 979.0928
978.1719, 999.4052
978.6540, 1012.991
979.1361, 1018.166
979.6182, 1015.379
980.1003, 1005.311
980.5825, 987.7169
981.0646, 961.5002
981.5467, 927.0566
982.0288, 886.1479
982.5109, 839.3035
982.9930, 789.2207
983.4752, 737.4512
983.9573, 685.4081
984.4394, 635.4882
984.9215, 587.7657
985.4036, 542.7552
985.8857, 500.3781
986.3679, 461.3965
986.8500, 425.8192
987.3321, 393.8967
987.8142, 365.9946
988.2963, 341.7613
988.7784, 320.1609
989.2606, 301.5672
989.7427, 284.6004
990.2248, 269.3480
990.7069, 255.5377
991.1890, 243.0362
991.6711, 231.9149
992.1533, 222.5082
992.6354, 214.5896
993.1175, 206.9002
993.5996, 199.1107
994.0817, 192.1791
994.5638, 186.5748
995.0460, 181.2349
995.5281, 175.5975
996.0102, 170.1517
996.4923, 165.4420
996.9744, 161.4442
997.4565, 157.8705
997.9387, 154.7259
998.4208, 151.9271
998.9029, 149.7470
999.3850, 147.6143
999.8671, 145.0069
1000.349, 142.3298
1000.831, 140.2334
1001.313, 138.7606
1001.796, 137.4131
1002.278, 136.0666
1002.760, 134.6853
1003.242, 133.1724
1003.724, 131.6883
1004.206, 130.4322
1004.688, 129.2952
1005.170, 128.0215
1005.653, 126.5570
1006.135, 125.0537
1006.617, 123.4533
1007.099, 122.0478
1007.581, 121.2859
1008.063, 120.7857
1008.545, 120.0812
1009.027, 119.1285
1009.509, 117.9185
1009.992, 116.4824
1010.474, 115.1308
1010.956, 114.1965
1011.438, 113.4509
1011.920, 112.5264
1012.402, 111.5298
1012.884, 110.7641
1013.366, 110.1985
1013.849, 109.4624
1014.331, 108.3995
1014.813, 107.4248
1015.295, 107.1503
1015.777, 107.1910
1016.259, 106.4383
1016.741, 105.0975
1017.223, 104.1903
1017.705, 103.8365
1018.188, 103.4989
1018.670, 102.9037
1019.152, 102.1750
1019.634, 101.4466
1020.116, 100.7447
1020.598, 100.1848
1021.080, 99.76717
1021.562, 99.52441
1022.044, 99.48242
1022.527, 99.18750
1023.009, 98.34873
1023.491, 97.25070
1023.973, 96.29411
1024.455, 95.49022
1024.937, 95.04969
1025.419, 94.98573
1025.901, 95.28842
1026.384, 96.10258
1026.866, 96.60119
1027.348, 96.19526
1027.830, 95.31999
1028.312, 94.77613
1028.794, 94.57458
1029.276, 94.32911
1029.758, 93.96677
1030.240, 93.84771
1030.723, 94.16358
1031.205, 94.43884
1031.687, 94.34488
1032.169, 94.02447
1032.651, 93.74524
1033.133, 93.49339
1033.615, 93.39643
1034.097, 93.46918
1034.579, 93.68118
1035.062, 94.18658
1035.544, 94.58116
1036.026, 94.51339
1036.508, 94.20018
1036.990, 94.10008
1037.472, 94.25438
1037.954, 94.38980
1038.436, 94.55228
1038.919, 94.61715
1039.401, 94.43551
1039.883, 94.28963
1040.365, 94.34731
1040.847, 94.57338
1041.329, 94.92528
1041.811, 95.45364
1042.293, 95.84935
1042.776, 95.92149
1043.258, 96.12527
1043.740, 96.74172
1044.222, 97.31920
1044.704, 97.52021
1045.186, 97.49018
1045.668, 97.52164
1046.150, 97.65002
1046.632, 97.71512
1047.115, 97.48798
1047.597, 97.48798
1048.079, 98.05847
1048.561, 98.68448
1049.043, 98.98938
1049.525, 99.10388
1050.007, 99.25423
1050.489, 99.44552
1050.971, 99.90549
1051.454, 101.1263
1051.936, 102.0065
1052.418, 101.9514
1052.900, 101.7016
1053.382, 101.6598
1053.864, 101.8671
1054.346, 102.4126
1054.828, 103.3217
1055.311, 104.0415
1055.793, 104.5517
1056.275, 104.6815
1056.757, 104.0362
1057.239, 103.3159
1057.721, 103.1221
1058.203, 103.1952
1058.685, 102.9972
1059.167, 102.4519
1059.650, 101.9978
1060.132, 101.7057
1060.614, 101.6264
1061.096, 102.0667
1061.578, 102.4452
1062.060, 102.2028
1062.542, 101.6431
1063.024, 101.2840
1063.506, 101.2073
1063.989, 101.2275
1064.471, 101.4421
1064.953, 101.5064
1065.435, 101.1100
1065.917, 100.6762
1066.399, 100.4925
1066.881, 100.5086
1067.363, 100.7012
1067.846, 101.0140
1068.328, 101.1158
1068.810, 100.6769
1069.292, 100.3687
1069.774, 100.4762
1070.256, 100.8428
1070.738, 101.4814
1071.220, 102.2284
1071.703, 102.8592
1072.185, 103.3706
1072.667, 103.9589
1073.149, 104.6707
1073.631, 105.5241
1074.113, 106.6031
1074.595, 107.7488
1075.077, 108.9365
1075.559, 110.0638
1076.042, 110.8683
1076.524, 111.4695
1077.006, 112.4373
1077.488, 113.9695
1077.970, 115.8803
1078.452, 118.2548
1078.934, 120.8042
1079.416, 123.4266
1079.898, 126.0625
1080.380, 128.7140
1080.863, 131.3399
1081.345, 133.8356
1081.827, 136.1573
1082.309, 138.3695
1082.791, 140.7808
1083.273, 142.7799
1083.755, 144.3804
1084.237, 145.0633
1084.720, 144.1293
1085.202, 141.8397
1085.684, 138.9364
1086.166, 135.5997
1086.648, 131.8181
1087.130, 127.1519
1087.612, 122.5846
1088.094, 118.4905
1088.577, 114.7936
1089.059, 111.3419
1089.541, 108.2449
1090.023, 105.7641
1090.505, 103.9332
1090.987, 102.6819
1091.469, 102.3242
1091.951, 102.0741
1092.433, 101.5860
1092.916, 101.0848
1093.398, 100.6358
1093.880, 100.3600
1094.362, 100.5434
1094.844, 101.1735
1095.326, 101.5886
1095.808, 101.3672
1096.290, 101.2157
1096.772, 101.4619
1097.255, 101.7448
1097.737, 101.7522
1098.219, 101.7075
1098.701, 101.9929
1099.183, 102.5696
1099.665, 102.9584
1100.147, 102.9693
1100.629, 102.9519
1101.112, 102.9441
1101.594, 102.9881
1102.076, 103.2703
1102.558, 103.4884
1103.040, 103.2363
1103.522, 102.6311
1104.004, 102.1865
1104.486, 102.0301
1104.969, 101.8595
1105.451, 101.7221
1105.933, 101.4320
1106.415, 100.7166
1106.897, 100.0135
1107.379, 99.77522
1107.861, 99.79947
1108.343, 99.57950
1108.825, 99.05758
1109.307, 98.40822
1109.790, 97.43248
1110.272, 96.63441
1110.754, 96.28641
1111.236, 95.96657
1111.718, 95.36552
1112.200, 94.65401
1112.682, 94.12292
1113.164, 93.78526
1113.647, 93.45229
1114.129, 93.14845
1114.611, 92.80992
1115.093, 92.35751
1115.575, 91.97321
1116.057, 91.71667
1116.539, 91.58620
1117.021, 91.64806
1117.504, 91.85288
1117.986, 91.82108
1118.468, 91.38937
1118.950, 91.11154
1119.432, 91.03794
1119.914, 91.03049
1120.396, 91.07390
1120.878, 91.12389
1121.360, 91.14719
1121.843, 91.14388
1122.325, 91.10050
1122.807, 90.98838
1123.289, 91.02609
1123.771, 91.26645
1124.253, 91.49519
1124.735, 91.70747
1125.217, 91.75025
1125.699, 91.45258
1126.182, 91.09483
1126.664, 91.21096
1127.146, 91.75854
1127.628, 91.89884
1128.110, 91.56168
1128.592, 91.48586
1129.074, 91.81221
1129.556, 92.04267
1130.039, 91.94136
1130.521, 91.71724
1131.003, 91.62340
1131.485, 91.57460
1131.967, 91.17211
1132.449, 90.45631
1132.931, 90.16833
1133.413, 90.34399
1133.896, 90.79199
1134.378, 91.45224
1134.860, 91.84086
1135.342, 91.53748
1135.824, 90.97607
1136.306, 90.88860
1136.788, 91.22318
1137.270, 92.01864
1137.752, 93.08017
1138.234, 93.28962
1138.717, 92.60603
1139.199, 92.35170
1139.681, 93.20606
1140.163, 94.31523
1140.645, 94.72012
1141.127, 94.75507
1141.609, 95.17165
1142.091, 95.64806
1142.574, 95.23895
1143.056, 94.19759
1143.538, 93.64713
1144.020, 93.91698
1144.502, 94.50254
1144.984, 95.18538
1145.466, 95.70580
1145.948, 95.55953
1146.431, 95.28295
1146.913, 95.69398
1147.395, 96.43002
1147.877, 96.71229
1148.359, 96.52274
1148.841, 96.41264
1149.323, 96.60549
1149.805, 96.95684
1150.287, 97.51388
1150.770, 98.04024
1151.252, 98.27366
1151.734, 98.46043
1152.216, 98.91780
1152.698, 99.54113
1153.180, 100.0658
1153.662, 100.4356
1154.144, 100.6471
1154.626, 100.5354
1155.109, 100.5015
1155.591, 100.7615
1156.073, 101.0472
1156.555, 101.1774
1157.037, 101.2448
1157.519, 101.3866
1158.001, 101.5970
1158.483, 101.7769
1158.966, 101.9731
1159.448, 102.0207
1159.930, 101.9724
1160.412, 101.6822
1160.894, 100.9316
1161.376, 100.1259
1161.858, 99.54929
1162.340, 99.13872
1162.822, 98.78407
1163.305, 98.50449
1163.787, 98.04392
1164.269, 97.28386
1164.751, 96.72384
1165.233, 96.54574
1165.715, 96.22668
1166.197, 95.48649
1166.679, 94.56924
1167.161, 93.73269
1167.644, 92.99004
1168.126, 92.41233
1168.608, 92.00680
1169.090, 91.55678
1169.572, 91.05722
1170.054, 90.34455
1170.536, 89.36726
1171.018, 88.63827
1171.500, 88.54647
1171.983, 88.64622
1172.465, 88.20263
1172.947, 87.37352
1173.429, 86.59079
1173.911, 85.89390
1174.393, 85.51975
1174.875, 85.40807
1175.357, 85.10642
1175.840, 84.45704
1176.322, 83.78522
1176.804, 83.36206
1177.286, 83.03474
1177.768, 82.56448
1178.250, 82.10479
1178.732, 81.95101
1179.214, 81.95444
1179.697, 81.83701
1180.179, 81.54079
1180.661, 81.05491
1181.143, 80.33454
1181.625, 79.75901
1182.107, 79.67254
1182.589, 79.67311
1183.071, 79.47998
1183.553, 79.26641
1184.036, 79.27273
1184.518, 79.35986
1185.000, 79.21603
1185.482, 78.81266
1185.964, 78.48769
1186.446, 78.32680
1186.928, 78.23345
1187.410, 78.22321
1187.892, 78.23923
1188.375, 78.32087
1188.857, 78.36258
1189.339, 78.22217
1189.821, 77.98096
1190.303, 77.90273
1190.785, 78.05760
1191.267, 77.94456
1191.749, 77.43582
1192.232, 77.01328
1192.714, 76.74447
1193.196, 76.60742
1193.678, 76.62170
1194.160, 76.67046
1194.642, 76.60188
1195.124, 76.45981
1195.606, 76.44258
1196.089, 76.54176
1196.571, 76.53884
1197.053, 76.42546
1197.535, 76.20971
1198.017, 75.90610
1198.499, 75.72318
1198.981, 75.79526
1199.463, 75.98607
1199.945, 76.20129
1200.427, 76.34177
1200.910, 76.08968
1201.392, 75.65697
1201.874, 75.55811
1202.356, 75.71813
1202.838, 75.72768
1203.320, 75.49934
1203.802, 75.30785
1204.284, 75.30847
1204.767, 75.40636
1205.249, 75.66606
1205.731, 75.84721
1206.213, 75.66941
1206.695, 75.35493
1207.177, 75.14851
1207.659, 75.05331
1208.141, 74.99267
1208.624, 74.95173
1209.106, 74.95199
1209.588, 74.92812
1210.070, 75.05179
1210.552, 75.78843
1211.034, 76.17001
1211.516, 75.36918
1211.998, 74.27199
1212.480, 73.66774
1212.963, 73.52062
1213.445, 73.74466
1213.927, 74.44733
1214.409, 75.00694
1214.891, 75.47923
1215.373, 75.51747
1215.855, 74.95110
1216.337, 74.46642
1216.819, 74.43945
1217.302, 74.60607
1217.784, 74.66650
1218.266, 74.62791
1218.748, 74.47997
1219.230, 74.25112
1219.712, 74.08295
1220.194, 73.97204
1220.676, 73.89014
1221.159, 73.80667
1221.641, 73.51717
1222.123, 72.89354
1222.605, 72.46597
1223.087, 73.04863
1223.569, 73.82343
1224.051, 73.77961
1224.533, 73.41218
1225.016, 73.45650
1225.498, 73.66447
1225.980, 73.26698
1226.462, 72.30857
1226.944, 71.87957
1227.426, 72.60278
1227.908, 73.15589
1228.390, 72.94492
1228.872, 72.65679
1229.354, 72.57191
1229.837, 72.52808
1230.319, 72.40244
1230.801, 72.22206
1231.283, 72.06129
1231.765, 71.91573
1232.247, 71.59697
1232.729, 70.87295
1233.211, 70.76427
1233.694, 71.55589
1234.176, 72.07377
1234.658, 71.91094
1235.140, 71.63930
1235.622, 71.66723
1236.104, 71.85240
1236.586, 71.96513
1237.068, 72.01863
1237.551, 72.10337
1238.033, 72.18193
1238.515, 72.00443
1238.997, 71.63477
1239.479, 71.55375
1239.961, 71.83927
1240.443, 71.93584
1240.925, 71.44667
1241.407, 70.89151
1241.890, 70.79580
1242.372, 70.84872
1242.854, 70.76482
1243.336, 70.63010
1243.818, 70.55260
1244.300, 70.52471
1244.782, 70.46162
1245.264, 70.36790
1245.746, 70.48614
1246.229, 71.17738
1246.711, 71.53098
1247.193, 71.01808
1247.675, 70.65714
1248.157, 70.96265
1248.639, 71.32243
1249.121, 71.28748
1249.603, 71.05107
1250.085, 70.97485
1250.568, 71.04106
1251.050, 70.92711
1251.532, 70.61369
1252.014, 70.26759
1252.496, 69.88857
1252.978, 69.90517
1253.460, 70.44303
1253.942, 70.91180
1254.425, 70.90681
1254.907, 70.60293
1255.389, 70.01309
1255.871, 69.46465
1256.353, 69.73528
1256.835, 70.41995
1257.317, 70.82021
1257.799, 70.93949
1258.281, 70.99572
1258.764, 71.02965
1259.246, 70.94352
1259.728, 70.68197
1260.210, 70.35112
1260.692, 69.84691
1261.174, 69.48780
1261.656, 69.49239
1262.138, 69.62939
1262.620, 69.71551
1263.103, 69.82077
1263.585, 70.14353
1264.067, 70.62698
1264.549, 70.74934
1265.031, 70.32626
1265.513, 70.19701
1265.995, 70.45747
1266.477, 70.56807
1266.960, 70.37423
1267.442, 70.29122
1267.924, 70.57155
1268.406, 70.87288
1268.888, 70.76904
1269.370, 70.42845
1269.852, 70.16921
1270.334, 70.01575
1270.817, 70.08056
1271.299, 70.29141
1271.781, 70.50353
1272.263, 70.65121
1272.745, 70.59804
1273.227, 70.29117
1273.709, 70.04531
1274.191, 70.15008
1274.673, 70.22081
1275.156, 69.95375
1275.638, 69.71339
1276.120, 69.71706
1276.602, 69.89812
1277.084, 70.29321
1277.566, 70.77052
1278.048, 70.89039
1278.530, 70.58622
1279.012, 70.56509
1279.495, 70.94936
1279.977, 71.16472
1280.459, 71.15042
1280.941, 70.95995
1281.423, 70.59199
1281.905, 70.19883
1282.387, 69.86956
1282.869, 69.75094
1283.352, 70.27998
1283.834, 71.09654
1284.316, 71.42271
1284.798, 71.26192
##END=



