##NAMES=Calomel
##RRUFFID=R070370
##IDEAL CHEMISTRY=HgCl
##LOCALITY=Lake County, California, USA
##OWNER=RRUFF
##SOURCE=Michael Scott
##DESCRIPTION=Colorless rounded or poorly formed crystals
##STATUS=The identification of this mineral has been confirmed only by single crystal X-ray diffraction.
##URL=rruff.info/R070370
146.2870, 2067.027
146.7691, 2209.432
147.2512, 2431.772
147.7334, 2747.442
148.2155, 3169.596
148.6976, 3642.016
149.1797, 4234.303
149.6618, 4858.191
150.1439, 5392.049
150.6261, 5787.874
151.1082, 6130.589
151.5903, 6426.638
152.0724, 6640.186
152.5545, 6887.918
153.0366, 7184.926
153.5188, 7520.265
154.0009, 7870.892
154.4830, 8195.634
154.9651, 8566.761
155.4472, 9018.380
155.9293, 9559.807
156.4115, 10171.94
156.8936, 10810.98
157.3757, 11509.16
157.8578, 12383.99
158.3399, 13466.47
158.8221, 14736.83
159.3042, 16192.83
159.7863, 17981.71
160.2684, 19810.57
160.7505, 21522.16
161.2326, 23160.96
161.7148, 24951.21
162.1969, 26700.84
162.6790, 28769.69
163.1611, 31477.28
163.6432, 36293.12
164.1253, 40716.25
164.6075, 44046.46
165.0896, 46280.49
165.5717, 45903.37
166.0538, 40345.34
166.5359, 31926.24
167.0180, 23972.89
167.5002, 17224.37
167.9823, 11785.77
168.4644, 7927.664
168.9465, 5779.537
169.4286, 4449.672
169.9107, 3561.236
170.3929, 3029.117
170.8750, 2651.396
171.3571, 2398.563
171.8392, 2221.823
172.3213, 2074.802
172.8034, 1956.041
173.2856, 1857.840
173.7677, 1778.013
174.2498, 1714.329
174.7319, 1660.441
175.2140, 1614.957
175.6961, 1576.095
176.1783, 1541.551
176.6604, 1511.576
177.1425, 1485.331
177.6246, 1462.996
178.1067, 1444.365
178.5888, 1426.612
179.0710, 1408.866
179.5531, 1390.785
180.0352, 1371.441
180.5173, 1349.282
180.9994, 1327.338
181.4815, 1312.604
181.9637, 1304.728
182.4458, 1296.787
182.9279, 1279.746
183.4100, 1256.773
183.8921, 1239.590
184.3742, 1232.702
184.8564, 1233.206
185.3385, 1236.648
185.8206, 1243.474
186.3027, 1248.198
186.7848, 1242.814
187.2669, 1228.811
187.7491, 1217.420
188.2312, 1213.819
188.7133, 1215.935
189.1954, 1215.422
189.6775, 1211.589
190.1596, 1208.262
190.6418, 1211.118
191.1239, 1219.995
191.6060, 1228.491
192.0881, 1234.318
192.5702, 1237.591
193.0524, 1238.649
193.5345, 1236.769
194.0166, 1234.543
194.4987, 1235.501
194.9808, 1239.653
195.4629, 1246.858
195.9451, 1259.404
196.4272, 1277.246
196.9093, 1288.095
197.3914, 1290.066
197.8735, 1287.409
198.3556, 1288.271
198.8378, 1293.217
199.3199, 1298.062
199.8020, 1299.807
200.2841, 1298.075
200.7662, 1298.874
201.2483, 1303.127
201.7305, 1309.569
202.2126, 1316.066
202.6947, 1323.490
203.1768, 1327.711
203.6589, 1325.124
204.1410, 1314.675
204.6232, 1305.373
205.1053, 1298.989
205.5874, 1293.834
206.0695, 1282.968
206.5516, 1263.770
207.0337, 1245.748
207.5159, 1236.472
207.9980, 1238.348
208.4801, 1238.575
208.9622, 1236.342
209.4443, 1231.263
209.9264, 1220.336
210.4086, 1200.942
210.8907, 1180.890
211.3728, 1166.334
211.8549, 1158.051
212.3370, 1152.219
212.8191, 1148.343
213.3013, 1146.452
213.7834, 1147.044
214.2655, 1151.561
214.7476, 1156.253
215.2297, 1157.132
215.7118, 1151.810
216.1940, 1149.447
216.6761, 1152.382
217.1582, 1160.348
217.6403, 1167.445
218.1224, 1173.928
218.6045, 1179.100
219.0867, 1182.077
219.5688, 1182.123
220.0509, 1181.605
220.5330, 1180.757
221.0151, 1179.544
221.4972, 1179.235
221.9794, 1180.533
222.4615, 1181.945
222.9436, 1181.532
223.4257, 1177.607
223.9078, 1175.311
224.3899, 1175.722
224.8721, 1178.890
225.3542, 1184.411
225.8363, 1193.855
226.3184, 1204.208
226.8005, 1211.935
227.2827, 1215.801
227.7648, 1219.304
228.2469, 1223.532
228.7290, 1228.773
229.2111, 1232.245
229.6932, 1232.896
230.1754, 1232.590
230.6575, 1233.964
231.1396, 1238.371
231.6217, 1242.054
232.1038, 1243.981
232.5859, 1243.960
233.0681, 1242.946
233.5502, 1239.509
234.0323, 1236.104
234.5144, 1236.093
234.9965, 1239.222
235.4786, 1246.387
235.9608, 1259.949
236.4429, 1283.061
236.9250, 1296.604
237.4071, 1295.655
237.8892, 1288.075
238.3713, 1285.957
238.8535, 1289.967
239.3356, 1298.447
239.8177, 1312.464
240.2998, 1335.235
240.7819, 1350.996
241.2640, 1357.569
241.7462, 1358.657
242.2283, 1360.255
242.7104, 1361.248
243.1925, 1364.616
243.6746, 1371.879
244.1567, 1384.628
244.6389, 1395.976
245.1210, 1405.602
245.6031, 1414.001
246.0852, 1421.112
246.5673, 1423.178
247.0494, 1430.384
247.5316, 1446.949
248.0137, 1475.341
248.4958, 1505.394
248.9779, 1539.010
249.4600, 1573.064
249.9421, 1599.736
250.4243, 1612.921
250.9064, 1629.939
251.3885, 1657.244
251.8706, 1696.877
252.3527, 1740.744
252.8348, 1788.868
253.3170, 1841.046
253.7991, 1895.142
254.2812, 1944.696
254.7633, 2007.472
255.2454, 2093.767
255.7275, 2211.320
256.2097, 2319.206
256.6918, 2407.852
257.1739, 2492.161
257.6560, 2603.083
258.1381, 2751.798
258.6202, 2904.614
259.1024, 3047.656
259.5845, 3172.240
260.0666, 3318.231
260.5487, 3492.244
261.0308, 3682.399
261.5129, 3873.058
261.9951, 4056.678
262.4772, 4254.958
262.9593, 4473.607
263.4414, 4715.392
263.9235, 4972.845
264.4056, 5247.733
264.8878, 5539.906
265.3699, 5855.705
265.8520, 6200.167
266.3341, 6561.691
266.8162, 6943.863
267.2983, 7346.857
267.7805, 7750.055
268.2626, 8154.810
268.7447, 8554.561
269.2268, 8943.694
269.7089, 9329.071
270.1910, 9678.334
270.6732, 9993.796
271.1553, 10279.74
271.6374, 10472.70
272.1195, 10573.60
272.6016, 10580.16
273.0837, 10483.88
273.5659, 10280.94
274.0480, 9995.355
274.5301, 9610.187
275.0122, 9122.744
275.4943, 8656.655
275.9764, 8211.741
276.4586, 7788.526
276.9407, 7382.707
277.4228, 6997.467
277.9049, 6644.292
278.3870, 6331.720
278.8691, 6059.390
279.3513, 5821.336
279.8334, 5620.422
280.3155, 5446.437
280.7976, 5284.937
281.2798, 5136.949
281.7619, 5009.688
282.2440, 4909.505
282.7261, 4834.112
283.2082, 4769.995
283.6903, 4720.119
284.1725, 4670.597
284.6546, 4597.701
285.1367, 4503.306
285.6188, 4420.563
286.1009, 4365.169
286.5830, 4331.383
287.0652, 4299.250
287.5473, 4271.062
288.0294, 4232.673
288.5115, 4163.505
288.9936, 4066.348
289.4757, 3967.808
289.9579, 3877.141
290.4400, 3790.967
290.9221, 3698.177
291.4042, 3598.746
291.8863, 3492.995
292.3684, 3374.228
292.8506, 3247.234
293.3327, 3131.833
293.8148, 3041.069
294.2969, 2961.064
294.7790, 2857.699
295.2611, 2730.475
295.7433, 2606.683
296.2254, 2508.382
296.7075, 2430.444
297.1896, 2362.090
297.6717, 2300.071
298.1538, 2244.082
298.6360, 2196.758
299.1181, 2157.114
299.6002, 2118.626
300.0823, 2075.822
300.5644, 2030.242
301.0465, 1983.637
301.5287, 1932.922
302.0108, 1885.857
302.4929, 1854.654
302.9750, 1836.967
303.4571, 1821.111
303.9392, 1798.337
304.4214, 1772.724
304.9035, 1749.407
305.3856, 1731.060
305.8677, 1713.834
306.3498, 1693.526
306.8319, 1671.502
307.3141, 1652.165
307.7962, 1639.526
308.2783, 1630.460
308.7604, 1621.775
309.2425, 1612.837
309.7246, 1604.621
310.2068, 1597.898
310.6889, 1592.383
311.1710, 1587.251
311.6531, 1582.054
312.1352, 1577.109
312.6173, 1572.731
313.0995, 1569.128
313.5816, 1565.780
314.0637, 1561.204
314.5458, 1556.773
315.0279, 1555.017
315.5100, 1559.428
315.9922, 1564.869
316.4743, 1569.271
316.9564, 1572.946
317.4385, 1573.276
317.9206, 1565.476
318.4027, 1554.700
318.8849, 1548.151
319.3670, 1553.946
319.8491, 1558.856
320.3312, 1557.418
320.8133, 1548.201
321.2954, 1538.848
321.7776, 1530.959
322.2597, 1523.560
322.7418, 1515.615
323.2239, 1505.790
323.7060, 1496.587
324.1881, 1487.463
324.6703, 1478.043
325.1524, 1473.569
325.6345, 1483.367
326.1166, 1493.552
326.5987, 1492.976
327.0808, 1471.580
327.5630, 1451.186
328.0451, 1434.164
328.5272, 1420.410
329.0093, 1407.344
329.4914, 1392.004
329.9735, 1380.301
330.4557, 1376.921
330.9378, 1389.461
331.4199, 1397.155
331.9020, 1398.224
332.3841, 1393.216
332.8662, 1383.530
333.3484, 1363.844
333.8305, 1347.695
334.3126, 1343.722
334.7947, 1356.958
335.2768, 1367.406
335.7589, 1375.321
336.2411, 1379.203
336.7232, 1373.809
337.2053, 1356.014
337.6874, 1338.165
338.1695, 1325.378
338.6516, 1317.883
339.1338, 1315.409
339.6159, 1319.986
340.0980, 1326.398
340.5801, 1323.078
341.0622, 1308.304
341.5443, 1299.669
342.0265, 1308.538
342.5086, 1332.214
342.9907, 1345.261
343.4728, 1346.236
343.9549, 1341.803
344.4370, 1339.147
344.9192, 1338.139
345.4013, 1337.562
345.8834, 1338.013
346.3655, 1338.323
346.8476, 1333.521
347.3297, 1323.372
347.8119, 1315.192
348.2940, 1319.300
348.7761, 1331.437
349.2582, 1338.625
349.7403, 1335.782
350.2225, 1327.933
350.7046, 1320.203
351.1867, 1312.915
351.6688, 1309.122
352.1509, 1313.393
352.6331, 1321.933
353.1152, 1328.829
353.5973, 1331.799
354.0794, 1334.653
354.5615, 1343.721
355.0436, 1356.104
355.5258, 1362.975
356.0079, 1353.900
356.4900, 1340.288
356.9721, 1332.325
357.4542, 1332.787
357.9363, 1334.788
358.4185, 1334.251
358.9006, 1332.663
359.3827, 1332.593
359.8648, 1337.446
360.3469, 1342.170
360.8290, 1342.433
361.3112, 1336.599
361.7933, 1335.928
362.2754, 1351.100
362.7575, 1370.609
363.2396, 1381.996
363.7217, 1375.733
364.2039, 1367.641
364.6860, 1360.656
365.1681, 1354.883
365.6502, 1351.722
366.1323, 1353.441
366.6144, 1356.502
367.0966, 1358.475
367.5787, 1358.170
368.0608, 1358.075
368.5429, 1357.284
369.0250, 1356.498
369.5071, 1359.629
369.9893, 1371.055
370.4714, 1381.295
370.9535, 1385.362
371.4356, 1379.801
371.9177, 1375.769
372.3998, 1373.380
372.8820, 1372.603
373.3641, 1374.002
373.8462, 1378.998
374.3283, 1382.452
374.8104, 1381.683
375.2925, 1376.197
375.7747, 1371.924
376.2568, 1368.454
376.7389, 1366.935
377.2210, 1370.561
377.7031, 1379.901
378.1852, 1385.996
378.6674, 1384.775
379.1495, 1378.201
379.6316, 1374.795
380.1137, 1374.831
380.5958, 1375.804
381.0779, 1373.999
381.5601, 1370.599
382.0422, 1372.007
382.5243, 1381.456
383.0064, 1394.082
383.4885, 1401.928
383.9706, 1405.485
384.4528, 1407.844
384.9349, 1412.616
385.4170, 1417.218
385.8991, 1417.239
386.3812, 1411.473
386.8633, 1402.857
387.3455, 1391.604
387.8276, 1379.499
388.3097, 1370.465
388.7918, 1366.219
389.2739, 1366.147
389.7560, 1371.209
390.2382, 1381.964
390.7203, 1391.911
391.2024, 1397.738
391.6845, 1400.745
392.1666, 1402.489
392.6487, 1401.956
393.1309, 1401.634
393.6130, 1403.457
394.0951, 1407.077
394.5772, 1408.326
395.0593, 1400.830
395.5414, 1393.985
396.0236, 1393.765
396.5057, 1411.360
396.9878, 1423.318
397.4699, 1424.121
397.9520, 1417.233
398.4341, 1413.501
398.9163, 1413.489
399.3984, 1416.116
399.8805, 1422.356
400.3626, 1436.353
400.8447, 1440.852
401.3268, 1429.765
401.8090, 1413.673
402.2911, 1408.611
402.7732, 1420.090
403.2553, 1428.040
403.7374, 1425.044
404.2195, 1412.084
404.7017, 1408.165
405.1838, 1415.662
405.6659, 1425.820
406.1480, 1430.288
406.6301, 1428.992
407.1122, 1428.596
407.5944, 1430.015
408.0765, 1433.328
408.5586, 1440.862
409.0407, 1452.510
409.5228, 1460.332
410.0049, 1456.225
410.4871, 1444.136
410.9692, 1434.605
411.4513, 1428.515
411.9334, 1425.678
412.4155, 1426.685
412.8976, 1430.863
413.3798, 1436.144
413.8619, 1442.440
414.3440, 1448.934
414.8261, 1456.460
415.3082, 1464.969
415.7903, 1468.862
416.2725, 1460.252
416.7546, 1446.648
417.2367, 1436.333
417.7188, 1433.431
418.2009, 1432.934
418.6830, 1432.571
419.1652, 1432.766
419.6473, 1435.100
420.1294, 1443.429
420.6115, 1451.594
421.0937, 1456.656
421.5758, 1458.675
422.0579, 1456.339
422.5400, 1442.802
423.0221, 1426.177
423.5042, 1419.655
423.9864, 1434.076
424.4685, 1446.923
424.9506, 1452.524
425.4327, 1450.059
425.9148, 1449.760
426.3969, 1451.179
426.8791, 1455.262
427.3612, 1464.690
427.8433, 1484.065
428.3254, 1493.522
428.8075, 1487.022
429.2896, 1469.920
429.7718, 1459.935
430.2539, 1457.375
430.7360, 1459.858
431.2181, 1468.782
431.7002, 1483.389
432.1823, 1492.141
432.6645, 1493.816
433.1466, 1491.811
433.6287, 1488.554
434.1108, 1484.853
434.5929, 1485.027
435.0750, 1494.810
435.5572, 1507.883
436.0393, 1511.943
436.5214, 1507.368
437.0035, 1502.186
437.4856, 1503.708
437.9677, 1508.249
438.4499, 1510.421
438.9320, 1507.335
439.4141, 1504.161
439.8962, 1504.605
440.3783, 1507.833
440.8604, 1511.710
441.3426, 1517.195
441.8247, 1521.578
442.3068, 1523.711
442.7889, 1523.752
443.2710, 1520.134
443.7531, 1505.724
444.2353, 1490.074
444.7174, 1483.503
445.1995, 1498.878
445.6816, 1511.059
446.1637, 1515.619
446.6458, 1513.027
447.1280, 1507.725
447.6101, 1494.085
448.0922, 1483.938
448.5743, 1485.148
449.0564, 1504.355
449.5385, 1516.693
450.0207, 1518.663
450.5028, 1516.066
450.9849, 1521.883
451.4670, 1538.921
451.9491, 1549.722
452.4312, 1545.070
452.9134, 1527.308
453.3955, 1513.183
453.8776, 1502.323
454.3597, 1497.847
454.8418, 1509.386
455.3239, 1531.828
455.8061, 1542.308
456.2882, 1531.647
456.7703, 1513.228
457.2524, 1503.381
457.7345, 1501.644
458.2166, 1506.094
458.6988, 1523.474
459.1809, 1542.508
459.6630, 1549.395
460.1451, 1541.474
460.6272, 1531.334
461.1093, 1523.955
461.5915, 1519.937
462.0736, 1520.230
462.5557, 1532.604
463.0378, 1542.016
463.5199, 1539.645
464.0020, 1527.461
464.4842, 1520.515
464.9663, 1527.938
465.4484, 1537.003
465.9305, 1540.676
466.4126, 1532.773
466.8947, 1530.144
467.3769, 1536.521
467.8590, 1546.529
468.3411, 1551.230
468.8232, 1548.070
469.3053, 1544.702
469.7874, 1543.951
470.2696, 1545.443
470.7517, 1540.958
471.2338, 1528.457
471.7159, 1516.296
472.1980, 1512.542
472.6801, 1517.004
473.1623, 1521.690
473.6444, 1526.170
474.1265, 1529.080
474.6086, 1526.048
475.0907, 1518.212
475.5728, 1512.922
476.0550, 1517.153
476.5371, 1525.343
477.0192, 1527.477
477.5013, 1523.153
477.9834, 1519.216
478.4655, 1522.072
478.9477, 1528.146
479.4298, 1532.732
479.9119, 1533.968
480.3940, 1534.051
480.8761, 1532.347
481.3582, 1530.133
481.8404, 1531.131
482.3225, 1541.524
482.8046, 1551.305
483.2867, 1555.008
483.7688, 1549.443
484.2509, 1547.286
484.7331, 1554.086
485.2152, 1562.439
485.6973, 1565.234
486.1794, 1557.819
486.6615, 1552.900
487.1436, 1553.209
487.6258, 1557.396
488.1079, 1558.173
488.5900, 1553.380
489.0721, 1551.176
489.5542, 1558.604
490.0363, 1575.838
490.5185, 1584.880
491.0006, 1584.174
491.4827, 1578.685
491.9648, 1573.546
492.4470, 1568.842
492.9291, 1565.041
493.4112, 1561.604
493.8933, 1559.852
494.3754, 1563.336
494.8575, 1571.261
495.3397, 1578.414
495.8218, 1581.472
496.3039, 1581.995
496.7860, 1581.079
497.2681, 1578.182
497.7502, 1576.670
498.2324, 1579.845
498.7145, 1585.043
499.1966, 1588.702
499.6787, 1589.453
500.1608, 1588.790
500.6429, 1584.679
501.1251, 1577.765
501.6072, 1577.692
502.0893, 1594.723
502.5714, 1610.225
503.0535, 1614.733
503.5356, 1601.546
504.0178, 1593.877
504.4999, 1595.071
504.9820, 1598.797
505.4641, 1592.872
505.9462, 1573.796
506.4283, 1563.898
506.9105, 1573.060
507.3926, 1595.575
507.8747, 1609.198
508.3568, 1613.722
508.8389, 1613.561
509.3210, 1609.766
509.8032, 1603.879
510.2853, 1600.519
510.7674, 1600.755
511.2495, 1601.410
511.7316, 1597.197
512.2137, 1591.092
512.6959, 1589.181
513.1780, 1600.637
513.6601, 1611.577
514.1422, 1610.871
514.6243, 1600.233
515.1064, 1591.921
515.5886, 1594.006
516.0707, 1597.593
516.5528, 1596.594
517.0349, 1585.442
517.5170, 1579.732
517.9991, 1585.211
518.4813, 1595.296
518.9634, 1601.793
519.4455, 1603.073
519.9276, 1603.533
520.4097, 1603.965
520.8918, 1604.287
521.3740, 1603.675
521.8561, 1601.645
522.3382, 1600.287
522.8203, 1600.141
523.3024, 1601.363
523.7845, 1608.682
524.2667, 1624.385
524.7488, 1638.564
525.2309, 1636.099
525.7130, 1621.460
526.1951, 1610.248
526.6772, 1608.642
527.1594, 1612.245
527.6415, 1619.088
528.1236, 1627.731
528.6057, 1631.925
529.0878, 1622.139
529.5699, 1610.395
530.0521, 1606.635
530.5342, 1613.959
531.0163, 1620.727
531.4984, 1621.889
531.9805, 1621.234
532.4626, 1622.796
532.9448, 1631.390
533.4269, 1636.932
533.9090, 1635.244
534.3911, 1629.353
534.8732, 1632.463
535.3553, 1651.926
535.8375, 1666.578
536.3196, 1664.655
536.8017, 1644.991
537.2838, 1634.102
537.7659, 1633.643
538.2480, 1636.172
538.7302, 1632.088
539.2123, 1622.865
539.6944, 1619.379
540.1765, 1625.298
540.6586, 1635.542
541.1407, 1646.268
541.6229, 1656.092
542.1050, 1660.298
542.5871, 1651.655
543.0692, 1639.343
543.5513, 1630.271
544.0334, 1624.941
544.5156, 1624.391
544.9977, 1634.911
545.4798, 1647.085
545.9619, 1653.104
546.4440, 1645.263
546.9261, 1640.523
547.4083, 1644.751
547.8904, 1652.807
548.3725, 1655.027
548.8546, 1646.272
549.3367, 1640.418
549.8188, 1643.008
550.3010, 1652.698
550.7831, 1651.465
551.2652, 1635.399
551.7473, 1621.441
552.2294, 1625.643
552.7115, 1645.535
553.1937, 1655.039
553.6758, 1650.597
554.1579, 1641.965
554.6400, 1640.381
555.1221, 1644.333
555.6042, 1649.594
556.0864, 1656.003
556.5685, 1661.762
557.0506, 1663.215
557.5327, 1661.979
558.0148, 1664.077
558.4969, 1680.100
558.9791, 1694.613
559.4612, 1696.364
559.9433, 1681.297
560.4254, 1668.775
560.9075, 1660.950
561.3896, 1658.058
561.8718, 1660.417
562.3539, 1674.023
562.8360, 1682.356
563.3181, 1681.608
563.8002, 1676.031
564.2823, 1676.824
564.7645, 1685.831
565.2466, 1692.866
565.7287, 1693.379
566.2108, 1688.567
566.6929, 1683.456
567.1750, 1678.016
567.6572, 1673.871
568.1393, 1673.172
568.6214, 1674.685
569.1035, 1676.253
569.5856, 1677.784
570.0677, 1678.381
570.5499, 1675.768
571.0320, 1672.053
571.5141, 1670.548
571.9962, 1674.103
572.4783, 1678.461
572.9604, 1680.806
573.4426, 1682.027
573.9247, 1686.911
574.4068, 1703.705
574.8889, 1717.342
575.3710, 1721.307
575.8531, 1713.573
576.3353, 1706.324
576.8174, 1698.651
577.2995, 1692.916
577.7816, 1692.510
578.2637, 1698.161
578.7458, 1701.536
579.2280, 1701.702
579.7101, 1698.583
580.1922, 1687.544
580.6743, 1671.068
581.1564, 1663.158
581.6385, 1676.965
582.1207, 1699.432
582.6028, 1715.155
583.0849, 1724.216
583.5670, 1728.447
584.0491, 1723.876
584.5313, 1718.089
585.0134, 1717.918
585.4955, 1727.033
585.9776, 1733.049
586.4597, 1729.069
586.9418, 1721.927
587.4240, 1719.549
587.9061, 1726.586
588.3882, 1731.486
588.8703, 1732.883
589.3524, 1731.391
589.8345, 1727.976
590.3167, 1721.537
590.7988, 1717.509
591.2809, 1719.689
591.7630, 1726.458
592.2451, 1727.842
592.7272, 1723.527
593.2094, 1721.526
593.6915, 1732.843
594.1736, 1750.339
594.6557, 1759.434
595.1378, 1756.031
595.6199, 1750.948
596.1021, 1752.588
596.5842, 1757.548
597.0663, 1760.990
597.5485, 1761.371
598.0306, 1759.850
598.5127, 1757.243
598.9948, 1753.142
599.4769, 1745.436
599.9590, 1725.089
600.4412, 1711.866
600.9233, 1714.505
601.4054, 1734.383
601.8875, 1748.581
602.3696, 1756.591
602.8517, 1759.875
603.3339, 1757.283
603.8160, 1749.493
604.2981, 1746.041
604.7802, 1748.448
605.2623, 1753.856
605.7444, 1761.792
606.2266, 1770.012
606.7087, 1771.899
607.1908, 1758.374
607.6729, 1744.620
608.1550, 1745.048
608.6371, 1755.634
609.1193, 1763.309
609.6014, 1758.039
610.0835, 1752.721
610.5656, 1755.162
611.0477, 1767.579
611.5298, 1773.548
612.0120, 1767.914
612.4941, 1760.318
612.9762, 1757.442
613.4583, 1761.152
613.9404, 1762.094
614.4225, 1758.012
614.9047, 1754.445
615.3868, 1762.362
615.8689, 1780.585
616.3510, 1792.046
616.8331, 1788.869
617.3152, 1780.191
617.7974, 1779.952
618.2795, 1786.520
618.7616, 1793.480
619.2437, 1800.292
619.7258, 1803.911
620.2079, 1800.349
620.6901, 1789.530
621.1722, 1780.191
621.6543, 1775.305
622.1364, 1772.911
622.6185, 1771.899
623.1006, 1772.302
623.5828, 1773.668
624.0649, 1775.562
624.5470, 1778.819
625.0291, 1786.059
625.5112, 1799.264
625.9933, 1805.154
626.4755, 1799.526
626.9576, 1787.712
627.4397, 1778.043
627.9218, 1771.059
628.4039, 1770.883
628.8860, 1788.483
629.3682, 1809.402
629.8503, 1809.449
630.3324, 1791.634
630.8145, 1778.897
631.2966, 1788.286
631.7787, 1805.081
632.2609, 1820.639
632.7430, 1835.433
633.2251, 1842.548
633.7072, 1835.103
634.1893, 1822.643
634.6714, 1812.742
635.1536, 1805.616
635.6357, 1800.407
636.1178, 1796.539
636.5999, 1795.153
637.0820, 1800.250
637.5641, 1812.195
638.0463, 1821.012
638.5284, 1823.394
639.0105, 1820.812
639.4926, 1811.948
639.9747, 1798.845
640.4568, 1793.405
640.9390, 1813.437
641.4211, 1837.489
641.9032, 1842.950
642.3853, 1828.263
642.8674, 1816.247
643.3495, 1817.926
643.8317, 1824.190
644.3138, 1829.043
644.7959, 1832.687
645.2780, 1832.780
645.7601, 1826.304
646.2422, 1818.928
646.7244, 1818.411
647.2065, 1826.772
647.6886, 1830.906
648.1707, 1826.727
648.6528, 1819.695
649.1349, 1822.145
649.6171, 1832.719
650.0992, 1841.873
650.5813, 1846.127
651.0634, 1845.924
651.5455, 1837.924
652.0276, 1824.232
652.5098, 1816.568
652.9919, 1830.564
653.4740, 1845.236
653.9561, 1844.757
654.4382, 1823.718
654.9203, 1811.576
655.4025, 1816.935
655.8846, 1828.169
656.3667, 1838.204
656.8488, 1847.332
657.3309, 1854.251
657.8130, 1858.512
658.2952, 1861.388
658.7773, 1866.836
659.2594, 1874.082
659.7415, 1872.001
660.2236, 1853.455
660.7057, 1831.315
661.1879, 1824.426
661.6700, 1829.203
662.1521, 1835.809
662.6342, 1841.040
663.1163, 1845.222
663.5984, 1849.307
664.0806, 1852.941
664.5627, 1853.356
665.0448, 1846.816
665.5269, 1839.603
666.0090, 1832.980
666.4911, 1825.941
666.9733, 1829.154
667.4554, 1848.272
667.9375, 1866.436
668.4196, 1867.067
668.9017, 1850.873
669.3839, 1841.971
669.8660, 1844.017
670.3481, 1846.518
670.8302, 1830.665
671.3123, 1806.609
671.7944, 1797.549
672.2766, 1819.496
672.7587, 1844.021
673.2408, 1852.401
673.7229, 1850.098
674.2050, 1848.016
674.6871, 1851.886
675.1693, 1853.259
675.6514, 1845.577
676.1335, 1832.236
676.6156, 1832.906
677.0977, 1854.801
677.5798, 1874.291
678.0620, 1880.427
678.5441, 1874.456
679.0262, 1867.182
679.5083, 1858.459
679.9904, 1849.855
680.4725, 1837.805
680.9547, 1828.121
681.4368, 1835.189
681.9189, 1862.771
682.4010, 1886.209
682.8831, 1882.841
683.3652, 1869.716
683.8474, 1864.319
684.3295, 1878.700
684.8116, 1887.962
685.2937, 1884.807
685.7758, 1876.261
686.2579, 1871.928
686.7401, 1875.281
687.2222, 1872.265
687.7043, 1856.626
688.1864, 1836.772
688.6685, 1834.831
689.1506, 1849.835
689.6328, 1866.395
690.1149, 1881.471
690.5970, 1891.714
691.0791, 1887.669
691.5612, 1872.457
692.0433, 1862.060
692.5255, 1870.334
693.0076, 1881.747
693.4897, 1886.174
693.9718, 1882.195
694.4539, 1879.097
694.9360, 1878.162
695.4182, 1878.426
695.9003, 1880.229
696.3824, 1885.143
696.8645, 1883.354
697.3466, 1872.185
697.8287, 1861.338
698.3109, 1865.218
698.7930, 1880.019
699.2751, 1883.511
699.7572, 1868.999
700.2393, 1852.929
700.7214, 1853.664
701.2036, 1864.375
701.6857, 1873.706
702.1678, 1877.521
702.6499, 1879.383
703.1320, 1880.115
703.6141, 1879.867
704.0963, 1878.913
704.5784, 1875.800
705.0605, 1874.244
705.5426, 1875.155
706.0247, 1878.230
706.5068, 1883.186
706.9890, 1890.661
707.4711, 1894.871
707.9532, 1888.846
708.4353, 1878.217
708.9174, 1880.072
709.3995, 1893.108
709.8817, 1904.557
710.3638, 1905.078
710.8459, 1900.414
711.3280, 1894.387
711.8101, 1886.972
712.2922, 1882.179
712.7744, 1883.086
713.2565, 1885.557
713.7386, 1886.630
714.2207, 1885.080
714.7028, 1885.878
715.1849, 1890.844
715.6671, 1895.000
716.1492, 1889.316
716.6313, 1875.343
717.1134, 1873.764
717.5955, 1891.836
718.0776, 1911.167
718.5598, 1903.676
719.0419, 1881.648
719.5240, 1869.193
720.0061, 1884.600
720.4882, 1899.516
720.9703, 1897.813
721.4525, 1886.384
721.9346, 1880.986
722.4167, 1891.341
722.8988, 1897.485
723.3809, 1892.423
723.8630, 1880.721
724.3452, 1883.101
724.8273, 1901.892
725.3094, 1917.914
725.7915, 1920.604
726.2736, 1914.537
726.7557, 1908.341
727.2379, 1902.827
727.7200, 1904.386
728.2021, 1926.382
728.6842, 1950.609
729.1663, 1961.994
729.6484, 1958.939
730.1306, 1952.032
730.6127, 1938.654
731.0948, 1926.956
731.5769, 1921.732
732.0590, 1924.871
732.5411, 1926.420
733.0233, 1926.045
733.5054, 1924.825
733.9875, 1923.374
734.4696, 1921.813
734.9517, 1922.122
735.4338, 1925.261
735.9160, 1925.804
736.3981, 1913.345
736.8802, 1896.269
737.3623, 1887.425
737.8444, 1893.912
738.3266, 1901.894
738.8087, 1906.731
739.2908, 1909.743
739.7729, 1912.793
740.2551, 1916.361
740.7372, 1919.505
741.2193, 1922.789
741.7014, 1925.030
742.1835, 1922.976
742.6656, 1916.583
743.1478, 1910.005
743.6299, 1902.566
744.1120, 1898.117
744.5941, 1906.440
745.0762, 1923.431
745.5583, 1936.600
746.0405, 1938.472
746.5226, 1935.893
747.0047, 1932.003
747.4868, 1926.786
747.9689, 1919.278
748.4510, 1904.530
748.9332, 1893.818
749.4153, 1891.161
749.8974, 1896.050
750.3795, 1902.721
750.8616, 1911.355
751.3438, 1920.140
751.8259, 1930.283
752.3080, 1939.213
752.7901, 1938.503
753.2722, 1928.571
753.7543, 1920.734
754.2365, 1924.284
754.7186, 1931.840
755.2007, 1938.285
755.6828, 1943.347
756.1649, 1945.447
756.6470, 1940.105
757.1292, 1935.489
757.6113, 1938.034
758.0934, 1951.488
758.5755, 1953.985
759.0576, 1943.327
759.5397, 1929.082
760.0219, 1920.596
760.5040, 1916.651
760.9861, 1912.940
761.4682, 1908.147
761.9503, 1907.320
762.4324, 1918.247
762.9146, 1933.810
763.3967, 1945.836
763.8788, 1953.050
764.3609, 1955.393
764.8430, 1946.044
765.3251, 1935.639
765.8073, 1938.594
766.2894, 1961.130
766.7715, 1971.101
767.2536, 1960.531
767.7357, 1942.184
768.2178, 1938.048
768.7000, 1945.093
769.1821, 1950.614
769.6642, 1949.429
770.1463, 1947.030
770.6284, 1949.095
771.1105, 1953.236
771.5927, 1954.839
772.0748, 1947.227
772.5569, 1943.209
773.0390, 1950.789
773.5211, 1963.084
774.0032, 1959.733
774.4854, 1934.159
774.9675, 1918.215
775.4496, 1924.263
775.9317, 1943.539
776.4138, 1955.158
776.8959, 1960.078
777.3781, 1964.062
777.8602, 1974.095
778.3423, 1981.224
778.8244, 1973.148
779.3065, 1954.318
779.7886, 1943.677
780.2708, 1952.896
780.7529, 1965.421
781.2350, 1978.848
781.7171, 1991.996
782.1992, 1991.998
782.6813, 1975.895
783.1635, 1958.255
783.6456, 1942.261
784.1277, 1931.115
784.6098, 1941.064
785.0919, 1969.612
785.5740, 1992.366
786.0562, 1988.581
786.5383, 1976.121
787.0204, 1970.075
787.5025, 1971.344
787.9846, 1969.870
788.4667, 1957.281
788.9489, 1947.323
789.4310, 1946.681
789.9131, 1956.000
790.3952, 1962.439
790.8773, 1965.576
791.3594, 1967.559
791.8416, 1971.615
792.3237, 1975.501
792.8058, 1969.869
793.2879, 1954.498
793.7700, 1945.030
794.2521, 1960.333
794.7343, 1980.712
795.2164, 1988.075
795.6985, 1975.940
796.1806, 1971.626
796.6627, 1985.104
797.1448, 1999.176
797.6270, 2001.990
798.1091, 1991.798
798.5912, 1984.722
799.0733, 1981.295
799.5554, 1978.347
800.0375, 1969.654
800.5197, 1960.078
801.0018, 1960.143
801.4839, 1972.168
801.9660, 1986.293
802.4481, 2001.945
802.9302, 2013.738
803.4124, 2015.788
803.8945, 1997.890
804.3766, 1992.496
804.8587, 2007.386
805.3408, 2024.516
805.8229, 2024.785
806.3051, 2008.353
806.7872, 2001.667
807.2693, 2008.360
807.7514, 2016.262
808.2335, 2009.364
808.7156, 1996.678
809.1978, 1993.460
809.6799, 2006.934
810.1620, 2016.212
810.6441, 2009.167
811.1262, 1995.691
811.6083, 1984.937
812.0905, 1974.230
812.5726, 1974.254
813.0547, 1989.448
813.5368, 2007.205
814.0189, 2012.080
814.5010, 2005.919
814.9832, 1998.462
815.4653, 1990.427
815.9474, 1985.548
816.4295, 1990.861
816.9116, 1999.802
817.3937, 2003.432
817.8759, 1993.421
818.3580, 1990.207
818.8401, 2006.284
819.3222, 2025.475
819.8043, 2033.209
820.2864, 2028.502
820.7686, 2014.559
821.2507, 1988.705
821.7328, 1962.920
822.2149, 1953.587
822.6970, 1956.803
823.1791, 1963.418
823.6613, 1972.310
824.1434, 1981.071
824.6255, 1986.329
825.1076, 1991.320
825.5897, 1999.561
826.0718, 2024.235
826.5540, 2032.527
827.0361, 2015.154
827.5182, 1992.169
828.0003, 1989.712
828.4824, 2007.502
828.9645, 2019.585
829.4467, 2021.573
829.9288, 2019.399
830.4109, 2019.823
830.8930, 2020.569
831.3751, 2016.901
831.8572, 2002.543
832.3394, 1995.450
832.8215, 2011.377
833.3036, 2032.532
833.7857, 2038.601
834.2678, 2022.865
834.7499, 2011.479
835.2321, 2006.489
835.7142, 2005.098
836.1963, 2003.770
836.6784, 2003.050
837.1605, 2005.813
837.6426, 2013.553
838.1248, 2020.345
838.6069, 2021.613
839.0890, 2019.394
839.5711, 2015.888
840.0532, 2011.753
840.5353, 2005.344
841.0175, 1991.601
841.4996, 1980.717
841.9817, 1986.462
842.4638, 2009.883
842.9459, 2022.927
843.4280, 2021.908
843.9102, 2015.817
844.3923, 2011.056
844.8744, 2008.972
845.3565, 2013.265
845.8386, 2027.417
846.3207, 2037.498
846.8029, 2036.641
847.2850, 2029.900
847.7671, 2021.394
848.2492, 2009.432
848.7313, 1999.750
849.2134, 1990.974
849.6956, 1988.199
850.1777, 2002.717
850.6598, 2027.876
851.1419, 2038.178
851.6240, 2029.322
852.1061, 2019.099
852.5883, 2020.620
853.0704, 2027.324
853.5525, 2034.222
854.0346, 2042.522
854.5167, 2043.623
854.9988, 2031.447
855.4810, 2019.518
855.9631, 2018.433
856.4452, 2028.402
856.9273, 2036.817
857.4094, 2043.544
857.8915, 2046.285
858.3737, 2040.484
858.8558, 2030.731
859.3379, 2020.844
859.8200, 2010.885
860.3021, 2008.508
860.7842, 2027.517
861.2664, 2045.455
861.7485, 2048.609
862.2306, 2035.132
862.7127, 2024.868
863.1948, 2017.159
863.6769, 2015.206
864.1591, 2025.606
864.6412, 2042.425
865.1233, 2052.894
865.6054, 2056.649
866.0875, 2054.156
866.5696, 2037.399
867.0518, 2021.440
867.5339, 2016.047
868.0160, 2022.468
868.4981, 2032.009
868.9802, 2048.039
869.4623, 2059.990
869.9445, 2061.738
870.4266, 2055.325
870.9087, 2048.359
871.3908, 2041.151
871.8729, 2037.774
872.3550, 2045.275
872.8372, 2053.861
873.3193, 2054.234
873.8014, 2047.740
874.2835, 2043.121
874.7656, 2045.409
875.2477, 2045.885
875.7299, 2040.571
876.2120, 2032.192
876.6941, 2033.866
877.1762, 2045.557
877.6583, 2051.303
878.1404, 2037.808
878.6226, 2021.304
879.1047, 2026.629
879.5869, 2046.353
880.0690, 2061.461
880.5511, 2062.841
881.0332, 2060.761
881.5153, 2057.966
881.9974, 2053.774
882.4796, 2044.587
882.9617, 2028.097
883.4438, 2020.390
883.9259, 2027.103
884.4080, 2040.619
884.8901, 2051.518
885.3723, 2059.584
885.8544, 2064.182
886.3365, 2063.779
886.8186, 2061.930
887.3007, 2055.664
887.7828, 2050.857
888.2650, 2057.397
888.7471, 2085.529
889.2292, 2094.891
889.7113, 2076.073
890.1934, 2051.577
890.6755, 2052.703
891.1577, 2072.276
891.6398, 2089.351
892.1219, 2100.830
892.6040, 2104.523
893.0861, 2091.504
893.5682, 2074.215
894.0504, 2064.132
894.5325, 2063.703
895.0146, 2069.960
895.4967, 2086.780
895.9788, 2103.101
896.4609, 2108.719
896.9431, 2105.180
897.4252, 2102.125
897.9073, 2100.055
898.3894, 2095.410
898.8715, 2079.848
899.3536, 2064.475
899.8358, 2059.904
900.3179, 2068.102
900.8000, 2074.712
901.2821, 2077.984
901.7642, 2079.679
902.2463, 2079.729
902.7285, 2078.683
903.2106, 2080.672
903.6927, 2085.673
904.1748, 2092.925
904.6569, 2108.287
905.1390, 2121.026
905.6212, 2115.497
906.1033, 2096.491
906.5854, 2085.119
907.0675, 2097.711
907.5496, 2105.899
908.0317, 2100.609
908.5139, 2087.301
908.9960, 2084.295
909.4781, 2091.665
909.9602, 2093.791
910.4423, 2080.724
910.9244, 2067.096
911.4066, 2075.755
911.8887, 2095.752
912.3708, 2107.029
912.8529, 2089.722
913.3350, 2080.000
913.8171, 2089.168
914.2993, 2105.346
914.7814, 2114.780
915.2635, 2117.745
915.7456, 2106.641
916.2277, 2076.580
916.7098, 2048.857
917.1920, 2053.837
917.6741, 2075.118
918.1562, 2087.898
918.6383, 2083.766
919.1204, 2082.867
919.6025, 2092.765
920.0847, 2106.878
920.5668, 2123.838
921.0489, 2146.600
921.5310, 2147.103
922.0131, 2122.860
922.4952, 2097.302
922.9774, 2089.350
923.4595, 2092.188
923.9416, 2097.468
924.4237, 2104.378
924.9058, 2110.422
925.3879, 2119.561
925.8701, 2121.953
926.3522, 2108.145
926.8343, 2082.301
927.3164, 2083.090
927.7985, 2114.153
928.2806, 2137.857
928.7628, 2130.915
929.2449, 2112.168
929.7270, 2109.769
930.2091, 2119.962
930.6912, 2132.523
931.1733, 2151.193
931.6555, 2162.225
932.1376, 2158.630
932.6197, 2145.986
933.1018, 2130.359
933.5839, 2109.782
934.0660, 2101.347
934.5482, 2110.098
935.0303, 2125.524
935.5124, 2140.822
935.9945, 2151.420
936.4766, 2146.877
936.9587, 2116.384
937.4409, 2094.248
937.9230, 2098.366
938.4051, 2109.877
938.8872, 2114.056
939.3693, 2108.907
939.8514, 2108.877
940.3336, 2114.535
940.8157, 2121.313
941.2978, 2125.663
941.7799, 2128.662
942.2620, 2133.781
942.7441, 2140.661
943.2263, 2140.883
943.7084, 2120.399
944.1905, 2104.061
944.6726, 2103.018
945.1547, 2114.731
945.6368, 2125.199
946.1190, 2134.833
946.6011, 2136.725
947.0832, 2120.243
947.5653, 2102.678
948.0474, 2112.075
948.5295, 2138.190
949.0117, 2157.200
949.4938, 2156.049
949.9759, 2152.748
950.4580, 2148.968
950.9401, 2146.332
951.4222, 2148.096
951.9044, 2154.357
952.3865, 2159.308
952.8686, 2161.989
953.3507, 2163.372
953.8328, 2167.992
954.3149, 2170.267
954.7971, 2159.487
955.2792, 2125.979
955.7613, 2110.740
956.2434, 2134.418
956.7255, 2159.963
957.2076, 2161.336
957.6898, 2139.714
958.1719, 2142.019
958.6540, 2167.852
959.1361, 2188.922
959.6182, 2182.396
960.1003, 2165.026
960.5825, 2146.927
961.0646, 2130.317
961.5467, 2124.785
962.0288, 2141.809
962.5109, 2155.035
962.9930, 2157.283
963.4752, 2152.664
963.9573, 2150.656
964.4394, 2150.915
964.9215, 2151.127
965.4036, 2150.124
965.8857, 2149.668
966.3679, 2153.219
966.8500, 2157.315
967.3321, 2157.192
967.8142, 2147.422
968.2963, 2141.973
968.7784, 2140.850
969.2606, 2144.247
969.7427, 2155.619
970.2248, 2171.793
970.7069, 2181.021
971.1890, 2182.433
971.6711, 2180.716
972.1533, 2172.947
972.6354, 2168.041
973.1175, 2175.960
973.5996, 2196.213
974.0817, 2203.385
974.5638, 2194.409
975.0460, 2183.133
975.5281, 2174.999
976.0102, 2168.367
976.4923, 2158.019
976.9744, 2146.029
977.4565, 2138.492
977.9387, 2136.346
978.4208, 2141.123
978.9029, 2161.255
979.3850, 2184.827
979.8671, 2194.662
980.3492, 2187.754
980.8314, 2185.781
981.3135, 2192.795
981.7956, 2197.218
982.2777, 2180.132
982.7598, 2155.157
983.2419, 2141.415
983.7241, 2142.227
984.2062, 2150.104
984.6883, 2173.651
985.1704, 2192.695
985.6525, 2197.271
986.1346, 2188.722
986.6168, 2179.973
987.0989, 2171.100
987.5810, 2164.496
988.0631, 2162.419
988.5452, 2162.497
989.0273, 2160.482
989.5095, 2158.903
989.9916, 2164.703
990.4737, 2190.949
990.9558, 2204.968
991.4379, 2197.730
991.9200, 2184.042
992.4022, 2191.417
992.8843, 2213.392
993.3664, 2220.418
993.8485, 2205.042
994.3306, 2186.979
994.8127, 2175.470
995.2949, 2170.211
995.7770, 2172.945
996.2591, 2185.047
996.7412, 2192.444
997.2233, 2193.712
997.7054, 2195.243
998.1876, 2202.807
998.6697, 2212.560
999.1518, 2217.044
999.6339, 2216.346
1000.116, 2211.032
1000.598, 2195.329
1001.080, 2181.963
1001.562, 2175.338
1002.044, 2173.667
1002.527, 2173.699
1003.009, 2175.249
1003.491, 2182.996
1003.973, 2199.764
1004.455, 2213.972
1004.937, 2207.065
1005.419, 2192.555
1005.901, 2189.313
1006.384, 2205.418
1006.866, 2210.996
1007.348, 2190.785
1007.830, 2177.973
1008.312, 2199.222
1008.794, 2245.015
1009.276, 2254.307
1009.758, 2231.065
1010.240, 2208.988
1010.723, 2210.608
1011.205, 2216.770
1011.687, 2216.521
1012.169, 2211.403
1012.651, 2205.636
1013.133, 2196.523
1013.615, 2196.369
1014.097, 2209.743
1014.580, 2225.336
1015.062, 2226.239
1015.544, 2218.253
1016.026, 2210.970
1016.508, 2205.249
1016.990, 2206.156
1017.472, 2227.013
1017.954, 2244.280
1018.436, 2242.163
1018.919, 2221.941
1019.401, 2214.180
1019.883, 2218.926
1020.365, 2218.394
1020.847, 2190.620
1021.329, 2162.410
1021.811, 2164.284
1022.293, 2186.496
1022.776, 2205.182
1023.258, 2217.279
1023.740, 2221.996
1024.222, 2215.694
1024.704, 2207.928
1025.186, 2216.788
1025.668, 2235.409
1026.150, 2236.221
1026.632, 2213.761
1027.115, 2196.795
1027.597, 2210.427
1028.079, 2229.012
1028.561, 2233.797
1029.043, 2225.381
1029.525, 2224.215
1030.007, 2231.179
1030.489, 2238.367
1030.972, 2242.898
1031.454, 2244.797
1031.936, 2242.635
1032.418, 2238.113
1032.900, 2234.905
1033.382, 2238.579
1033.864, 2236.259
1034.346, 2220.521
1034.828, 2206.690
1035.311, 2216.670
1035.793, 2245.963
1036.275, 2264.464
1036.757, 2269.870
1037.239, 2268.700
1037.721, 2262.377
1038.203, 2253.950
1038.685, 2243.593
1039.167, 2232.292
1039.650, 2227.770
1040.132, 2231.098
1040.614, 2237.642
1041.096, 2248.774
1041.578, 2257.128
1042.060, 2243.452
1042.542, 2219.900
1043.024, 2209.979
1043.507, 2230.006
1043.989, 2245.808
1044.471, 2253.567
1044.953, 2252.827
1045.435, 2237.063
1045.917, 2208.769
1046.399, 2205.704
1046.881, 2227.309
1047.364, 2246.966
1047.846, 2242.376
1048.328, 2233.656
1048.810, 2235.329
1049.292, 2244.967
1049.774, 2249.778
1050.256, 2249.139
1050.738, 2244.675
1051.220, 2235.136
1051.703, 2226.166
1052.185, 2228.562
1052.667, 2236.442
1053.149, 2238.520
1053.631, 2230.061
1054.113, 2228.087
1054.595, 2244.372
1055.077, 2259.901
1055.559, 2264.672
1056.042, 2260.178
1056.524, 2258.645
1057.006, 2258.952
1057.488, 2251.959
1057.970, 2216.097
1058.452, 2188.518
1058.934, 2201.625
1059.416, 2236.360
1059.899, 2255.534
1060.381, 2253.865
1060.863, 2252.899
1061.345, 2254.611
1061.827, 2256.106
1062.309, 2252.068
1062.791, 2247.045
1063.273, 2248.881
1063.755, 2258.058
1064.238, 2266.064
1064.720, 2268.260
1065.202, 2272.601
1065.684, 2284.101
1066.166, 2297.314
1066.648, 2295.610
1067.130, 2281.255
1067.612, 2262.768
1068.094, 2236.667
1068.577, 2222.061
1069.059, 2241.337
1069.541, 2270.350
1070.023, 2286.083
1070.505, 2286.847
1070.987, 2279.959
1071.469, 2264.138
1071.951, 2252.277
1072.434, 2259.325
1072.916, 2270.725
1073.398, 2264.887
1073.880, 2248.037
1074.362, 2242.929
1074.844, 2265.457
1075.326, 2281.347
1075.808, 2285.993
1076.291, 2283.529
1076.773, 2276.459
1077.255, 2267.354
1077.737, 2264.710
1078.219, 2270.055
1078.701, 2275.268
1079.183, 2276.821
1079.665, 2276.262
1080.147, 2271.790
1080.630, 2265.781
1081.112, 2278.194
1081.594, 2307.960
1082.076, 2320.728
1082.558, 2295.763
1083.040, 2263.980
1083.522, 2248.108
1084.004, 2244.409
1084.486, 2249.501
1084.969, 2268.784
1085.451, 2278.351
1085.933, 2275.274
1086.415, 2273.195
1086.897, 2288.075
1087.379, 2308.121
1087.861, 2311.654
1088.343, 2301.174
1088.826, 2289.160
1089.308, 2275.434
1089.790, 2267.608
1090.272, 2269.776
1090.754, 2274.871
1091.236, 2268.921
1091.718, 2255.566
1092.200, 2252.937
1092.682, 2264.370
1093.165, 2277.132
1093.647, 2284.737
1094.129, 2289.687
1094.611, 2292.970
1095.093, 2295.005
1095.575, 2297.114
1096.057, 2299.086
1096.539, 2307.910
1097.022, 2331.577
1097.504, 2351.939
1097.986, 2345.644
1098.468, 2326.204
1098.950, 2311.862
1099.432, 2305.521
1099.914, 2304.726
1100.396, 2310.948
1100.879, 2317.969
1101.361, 2320.016
1101.843, 2320.357
1102.325, 2329.047
1102.807, 2342.437
1103.289, 2346.692
1103.771, 2328.207
1104.253, 2310.837
1104.735, 2296.166
1105.218, 2287.303
1105.700, 2292.821
1106.182, 2308.811
1106.664, 2315.035
1107.146, 2309.190
1107.628, 2303.705
1108.110, 2306.830
1108.592, 2311.934
1109.074, 2317.522
1109.557, 2321.912
1110.039, 2315.410
1110.521, 2297.751
1111.003, 2286.822
1111.485, 2289.321
1111.967, 2295.877
1112.449, 2298.670
1112.931, 2300.076
1113.414, 2302.064
1113.896, 2304.014
1114.378, 2312.877
1114.860, 2331.074
1115.342, 2345.542
1115.824, 2347.002
1116.306, 2341.915
1116.788, 2340.000
1117.271, 2339.697
1117.753, 2337.479
1118.235, 2329.564
1118.717, 2323.777
1119.199, 2321.077
1119.681, 2319.605
1120.163, 2316.043
1120.645, 2312.451
1121.127, 2316.069
1121.609, 2326.529
1122.092, 2337.173
1122.574, 2349.579
1123.056, 2355.097
1123.538, 2349.122
1124.020, 2336.737
1124.502, 2324.790
1124.984, 2314.387
1125.466, 2317.978
1125.949, 2339.632
1126.431, 2358.709
1126.913, 2360.407
1127.395, 2354.335
1127.877, 2346.084
1128.359, 2336.216
1128.841, 2323.105
1129.323, 2305.792
1129.806, 2304.490
1130.288, 2333.613
1130.770, 2366.286
1131.252, 2378.426
1131.734, 2376.080
1132.216, 2364.292
1132.698, 2337.211
1133.180, 2327.708
1133.662, 2339.782
1134.145, 2352.835
1134.627, 2350.441
1135.109, 2343.209
1135.591, 2351.026
1136.073, 2367.490
1136.555, 2376.182
1137.037, 2366.715
1137.519, 2356.681
1138.001, 2345.185
1138.484, 2337.473
1138.966, 2341.423
1139.448, 2352.851
1139.930, 2361.867
1140.412, 2368.202
1140.894, 2374.169
1141.376, 2386.175
1141.858, 2390.303
1142.341, 2379.854
1142.823, 2363.440
1143.305, 2357.770
1143.787, 2360.270
1144.269, 2357.272
1144.751, 2345.426
1145.233, 2340.219
1145.715, 2359.541
1146.198, 2378.842
1146.680, 2384.540
1147.162, 2379.183
1147.644, 2373.602
1148.126, 2367.817
1148.608, 2361.854
1149.090, 2353.961
1149.572, 2350.351
1150.054, 2361.339
1150.536, 2374.821
1151.019, 2377.690
1151.501, 2368.437
1151.983, 2369.244
1152.465, 2380.580
1152.947, 2390.231
1153.429, 2390.489
1153.911, 2387.375
1154.393, 2384.623
1154.876, 2383.070
1155.358, 2384.599
1155.840, 2390.435
1156.322, 2395.411
1156.804, 2399.414
1157.286, 2402.675
1157.768, 2407.341
1158.250, 2410.000
1158.733, 2403.174
1159.215, 2390.163
1159.697, 2383.651
1160.179, 2386.621
1160.661, 2395.014
1161.143, 2411.614
1161.625, 2424.315
1162.107, 2412.824
1162.589, 2390.939
1163.072, 2382.573
1163.554, 2388.858
1164.036, 2395.516
1164.518, 2400.767
1165.000, 2402.725
1165.482, 2399.409
1165.964, 2394.973
1166.446, 2398.313
1166.928, 2406.074
1167.411, 2411.031
1167.893, 2411.793
1168.375, 2410.028
1168.857, 2403.063
1169.339, 2397.899
1169.821, 2398.595
1170.303, 2401.990
1170.785, 2394.812
1171.268, 2382.143
1171.750, 2382.681
1172.232, 2411.029
1172.714, 2430.307
1173.196, 2420.479
1173.678, 2400.954
1174.160, 2377.054
1174.642, 2352.547
1175.125, 2363.388
1175.607, 2402.367
1176.089, 2429.254
1176.571, 2418.206
1177.053, 2400.288
1177.535, 2377.016
1178.017, 2362.679
1178.499, 2377.050
1178.981, 2419.655
1179.464, 2435.309
1179.946, 2425.121
1180.428, 2415.907
1180.910, 2430.646
1181.392, 2444.236
1181.874, 2437.898
1182.356, 2424.677
1182.838, 2427.898
1183.320, 2448.652
1183.803, 2449.421
1184.285, 2426.626
1184.767, 2406.325
1185.249, 2410.551
1185.731, 2421.509
1186.213, 2428.884
1186.695, 2433.020
1187.177, 2435.714
1187.660, 2436.828
1188.142, 2439.990
1188.624, 2446.627
1189.106, 2448.359
1189.588, 2424.315
1190.070, 2403.389
1190.552, 2419.233
1191.034, 2464.286
1191.516, 2476.512
1191.999, 2451.910
1192.481, 2433.060
1192.963, 2431.689
1193.445, 2435.162
1193.927, 2433.825
1194.409, 2428.934
1194.891, 2417.803
1195.373, 2400.182
1195.855, 2404.018
1196.338, 2432.356
1196.820, 2455.812
1197.302, 2462.003
1197.784, 2460.259
1198.266, 2456.941
1198.748, 2453.678
1199.230, 2452.763
1199.712, 2454.760
1200.195, 2457.679
1200.677, 2462.280
1201.159, 2462.206
1201.641, 2451.126
1202.123, 2437.370
1202.605, 2425.047
1203.087, 2418.649
1203.569, 2427.516
1204.052, 2462.489
1204.534, 2480.420
1205.016, 2479.573
1205.498, 2472.874
1205.980, 2467.509
1206.462, 2462.532
1206.944, 2454.871
1207.426, 2447.024
1207.908, 2446.016
1208.391, 2457.619
1208.873, 2458.696
1209.355, 2446.032
1209.837, 2435.057
1210.319, 2442.660
1210.801, 2456.197
1211.283, 2461.058
1211.765, 2459.298
1212.247, 2459.875
1212.730, 2465.389
1213.212, 2466.809
1213.694, 2462.347
1214.176, 2457.838
1214.658, 2457.830
1215.140, 2461.638
1215.622, 2471.830
1216.104, 2486.099
1216.587, 2490.068
1217.069, 2477.744
1217.551, 2475.173
1218.033, 2488.706
1218.515, 2503.641
1218.997, 2503.212
1219.479, 2495.418
1219.961, 2489.134
1220.443, 2484.772
1220.926, 2476.577
1221.408, 2462.772
1221.890, 2451.721
1222.372, 2445.066
1222.854, 2442.883
1223.336, 2449.754
1223.818, 2458.295
1224.300, 2455.693
1224.782, 2440.452
1225.265, 2450.757
1225.747, 2496.008
1226.229, 2519.688
1226.711, 2498.459
1227.193, 2465.401
1227.675, 2454.282
1228.157, 2457.959
1228.639, 2470.940
1229.122, 2493.736
1229.604, 2511.483
1230.086, 2524.896
1230.568, 2528.365
1231.050, 2516.327
1231.532, 2500.619
1232.014, 2498.525
1232.496, 2498.700
1232.979, 2481.875
1233.461, 2442.341
1233.943, 2435.652
1234.425, 2465.994
1234.907, 2486.620
1235.389, 2466.377
1235.871, 2441.897
1236.353, 2449.111
1236.835, 2474.158
1237.318, 2502.065
1237.800, 2534.509
1238.282, 2547.043
1238.764, 2538.864
1239.246, 2525.220
1239.728, 2511.007
1240.210, 2499.434
1240.692, 2495.093
1241.175, 2494.358
1241.657, 2492.309
1242.139, 2488.528
1242.621, 2483.983
1243.103, 2478.598
1243.585, 2477.690
1244.067, 2488.335
1244.549, 2500.368
1245.031, 2509.441
1245.514, 2514.117
1245.996, 2511.987
1246.478, 2502.057
1246.960, 2497.649
1247.442, 2498.782
1247.924, 2501.491
1248.406, 2506.467
1248.888, 2508.701
1249.370, 2501.751
1249.853, 2492.586
1250.335, 2490.053
1250.817, 2494.021
1251.299, 2501.713
1251.781, 2512.646
1252.263, 2522.095
1252.745, 2530.268
1253.227, 2532.359
1253.710, 2519.979
1254.192, 2505.427
1254.674, 2508.272
1255.156, 2524.518
1255.638, 2520.755
1256.120, 2497.273
1256.602, 2481.598
1257.084, 2496.085
1257.567, 2512.283
1258.049, 2522.744
1258.531, 2527.974
1259.013, 2524.659
1259.495, 2516.739
1259.977, 2521.912
1260.459, 2539.842
1260.941, 2551.690
1261.423, 2539.127
1261.906, 2533.433
1262.388, 2544.952
1262.870, 2560.546
1263.352, 2558.834
1263.834, 2547.253
1264.316, 2544.410
1264.798, 2550.982
1265.280, 2552.612
1265.762, 2540.836
1266.245, 2529.730
1266.727, 2520.124
1267.209, 2515.791
1267.691, 2528.219
1268.173, 2546.407
1268.655, 2550.093
1269.137, 2538.595
1269.619, 2532.235
1270.102, 2534.363
1270.584, 2539.203
1271.066, 2546.629
1271.548, 2552.717
1272.030, 2547.141
1272.512, 2540.829
1272.994, 2554.720
1273.476, 2586.320
1273.958, 2582.263
1274.441, 2530.053
1274.923, 2499.923
1275.405, 2510.076
1275.887, 2533.939
1276.369, 2553.717
1276.851, 2566.143
1277.333, 2563.551
1277.815, 2549.156
1278.297, 2542.635
1278.780, 2544.302
1279.262, 2548.260
1279.744, 2553.268
1280.226, 2559.650
1280.708, 2573.384
1281.190, 2583.109
1281.672, 2576.885
1282.154, 2560.774
1282.637, 2556.449
1283.119, 2562.934
1283.601, 2571.656
1284.083, 2581.350
1284.565, 2589.472
1285.047, 2601.175
1285.529, 2601.772
1286.011, 2578.043
1286.494, 2544.041
1286.976, 2543.454
1287.458, 2567.223
1287.940, 2586.329
1288.422, 2595.060
1288.904, 2597.057
1289.386, 2587.596
1289.868, 2579.478
1290.350, 2576.440
1290.833, 2577.743
1291.315, 2585.739
1291.797, 2595.798
1292.279, 2597.409
1292.761, 2587.295
1293.243, 2581.571
1293.725, 2583.590
1294.207, 2585.732
1294.689, 2585.343
1295.172, 2584.287
1295.654, 2587.815
1296.136, 2590.948
1296.618, 2584.559
1297.100, 2566.124
1297.582, 2561.423
1298.064, 2573.671
1298.546, 2577.718
1299.029, 2563.006
1299.511, 2546.237
1299.993, 2542.544
1300.475, 2547.244
1300.957, 2559.336
1301.439, 2576.456
1301.921, 2586.960
1302.403, 2590.978
1302.885, 2590.812
1303.368, 2585.713
1303.850, 2582.795
1304.332, 2593.323
1304.814, 2600.798
1305.296, 2593.124
1305.778, 2575.967
1306.260, 2568.734
1306.742, 2569.854
1307.224, 2572.937
1307.707, 2576.433
1308.189, 2581.907
1308.671, 2592.855
1309.153, 2601.923
1309.635, 2606.289
1310.117, 2607.270
1310.599, 2604.458
1311.081, 2601.271
1311.564, 2608.770
1312.046, 2632.595
1312.528, 2631.627
1313.010, 2591.149
1313.492, 2561.895
1313.974, 2563.273
1314.456, 2578.071
1314.938, 2588.736
##END=



