##NAMES=Calzirtite
##RRUFFID=R080084
##IDEAL CHEMISTRY=Ca_2_Zr^4+^_5_Ti^4+^_2_O_16_
##LOCALITY=Jacupiranga mine, Cajati, SÃ£o Paulo, Brazil
##OWNER=RRUFF
##SOURCE=Luiz Menezes
##DESCRIPTION=Black rounded crystals associated with dark brown phlogopite, green granular diopside and black magnetite octahedra
##STATUS=The identification of this mineral has been confirmed by single-crystal X-ray diffraction.
##URL=rruff.info/R080084
92.52344, 1066.063
93.00555, 1057.641
93.48767, 1059.292
93.96979, 1094.508
94.45190, 1130.184
94.93402, 1161.447
95.41614, 1174.650
95.89825, 1176.520
96.38037, 1177.187
96.86249, 1176.407
97.34460, 1174.078
97.82672, 1171.539
98.30884, 1168.651
98.79095, 1165.522
99.27307, 1160.674
99.75519, 1153.483
100.2373, 1147.060
100.7194, 1142.410
101.2015, 1139.407
101.6837, 1138.566
102.1658, 1138.231
102.6479, 1136.720
103.1300, 1133.743
103.6121, 1131.623
104.0942, 1132.911
104.5764, 1136.034
105.0585, 1138.812
105.5406, 1139.775
106.0227, 1139.699
106.5048, 1141.128
106.9869, 1144.909
107.4691, 1148.352
107.9512, 1150.061
108.4333, 1150.412
108.9154, 1150.391
109.3975, 1150.486
109.8796, 1150.449
110.3618, 1151.898
110.8439, 1156.461
111.3260, 1161.077
111.8081, 1164.527
112.2902, 1166.589
112.7723, 1167.718
113.2544, 1168.552
113.7366, 1169.356
114.2187, 1169.207
114.7008, 1167.481
115.1829, 1165.189
115.6650, 1163.170
116.1471, 1161.715
116.6293, 1160.684
117.1114, 1159.814
117.5935, 1159.119
118.0756, 1158.495
118.5577, 1157.717
119.0398, 1156.959
119.5220, 1156.569
120.0041, 1156.505
120.4862, 1157.186
120.9683, 1159.224
121.4504, 1163.125
121.9325, 1167.452
122.4147, 1171.024
122.8968, 1173.770
123.3789, 1176.535
123.8610, 1179.945
124.3431, 1183.510
124.8252, 1186.585
125.3074, 1188.582
125.7895, 1190.447
126.2716, 1194.313
126.7537, 1201.215
127.2358, 1208.359
127.7179, 1215.402
128.2001, 1221.988
128.6822, 1227.632
129.1643, 1231.845
129.6464, 1234.797
130.1285, 1238.420
130.6107, 1242.877
131.0928, 1247.966
131.5749, 1254.214
132.0570, 1261.127
132.5391, 1267.734
133.0212, 1273.077
133.5034, 1276.923
133.9855, 1281.222
134.4676, 1285.301
134.9497, 1290.240
135.4318, 1297.557
135.9139, 1307.020
136.3960, 1316.082
136.8782, 1321.301
137.3603, 1321.521
137.8424, 1324.311
138.3245, 1331.739
138.8066, 1341.308
139.2887, 1350.447
139.7709, 1358.757
140.2530, 1365.859
140.7351, 1370.651
141.2172, 1373.350
141.6993, 1376.168
142.1814, 1380.117
142.6636, 1384.930
143.1457, 1389.663
143.6278, 1394.051
144.1099, 1398.335
144.5920, 1402.733
145.0741, 1407.236
145.5563, 1411.862
146.0384, 1416.831
146.5205, 1422.249
147.0026, 1427.038
147.4847, 1430.389
147.9668, 1433.453
148.4490, 1436.948
148.9311, 1440.978
149.4132, 1445.044
149.8953, 1448.096
150.3774, 1448.696
150.8595, 1451.420
151.3417, 1457.973
151.8238, 1465.581
152.3059, 1471.913
152.7880, 1476.081
153.2701, 1479.079
153.7522, 1483.360
154.2344, 1491.652
154.7165, 1498.070
155.1986, 1501.896
155.6807, 1503.892
156.1628, 1504.954
156.6449, 1505.502
157.1271, 1505.495
157.6092, 1504.663
158.0913, 1502.989
158.5734, 1500.730
159.0555, 1497.905
159.5376, 1494.546
160.0198, 1490.644
160.5019, 1486.024
160.9840, 1480.938
161.4661, 1476.455
161.9482, 1473.909
162.4303, 1470.588
162.9125, 1463.837
163.3946, 1453.820
163.8767, 1444.507
164.3588, 1438.660
164.8409, 1435.032
165.3230, 1431.508
165.8052, 1428.090
166.2873, 1424.344
166.7694, 1419.041
167.2515, 1411.116
167.7336, 1405.313
168.2157, 1405.492
168.6979, 1408.559
169.1800, 1411.000
169.6621, 1411.013
170.1442, 1409.683
170.6263, 1410.254
171.1084, 1414.333
171.5906, 1417.797
172.0727, 1418.237
172.5548, 1417.526
173.0369, 1418.370
173.5190, 1422.620
174.0011, 1429.839
174.4833, 1436.331
174.9654, 1441.869
175.4475, 1446.809
175.9296, 1450.570
176.4117, 1453.778
176.8938, 1457.528
177.3760, 1462.670
177.8581, 1469.240
178.3402, 1475.842
178.8223, 1482.784
179.3044, 1489.452
179.7865, 1495.338
180.2687, 1500.678
180.7508, 1506.129
181.2329, 1512.203
181.7150, 1518.988
182.1971, 1526.022
182.6792, 1534.699
183.1614, 1542.472
183.6435, 1547.406
184.1256, 1549.605
184.6077, 1551.152
185.0898, 1553.999
185.5719, 1558.208
186.0541, 1561.164
186.5362, 1562.316
187.0183, 1562.457
187.5004, 1562.368
187.9825, 1562.152
188.4646, 1561.269
188.9468, 1559.073
189.4289, 1555.736
189.9110, 1551.678
190.3931, 1547.097
190.8752, 1541.818
191.3573, 1535.505
191.8395, 1528.063
192.3216, 1519.731
192.8037, 1510.001
193.2858, 1499.536
193.7679, 1489.846
194.2500, 1482.584
194.7322, 1476.756
195.2143, 1468.696
195.6964, 1456.687
196.1785, 1445.068
196.6606, 1436.203
197.1427, 1429.402
197.6249, 1423.252
198.1070, 1416.678
198.5891, 1409.826
199.0712, 1404.272
199.5533, 1400.823
200.0354, 1397.912
200.5176, 1394.923
200.9997, 1391.979
201.4818, 1389.458
201.9639, 1387.736
202.4460, 1386.828
202.9281, 1385.917
203.4103, 1384.638
203.8924, 1383.712
204.3745, 1383.364
204.8566, 1383.570
205.3387, 1384.223
205.8208, 1385.239
206.3030, 1386.638
206.7851, 1388.330
207.2672, 1390.721
207.7493, 1393.010
208.2314, 1394.685
208.7135, 1395.905
209.1957, 1397.302
209.6778, 1399.558
210.1599, 1402.922
210.6420, 1404.982
211.1241, 1404.580
211.6062, 1404.130
212.0884, 1404.543
212.5705, 1405.987
213.0526, 1408.570
213.5347, 1412.630
214.0168, 1418.407
214.4989, 1423.150
214.9811, 1426.777
215.4632, 1429.561
215.9453, 1431.418
216.4274, 1432.434
216.9095, 1433.260
217.3916, 1434.617
217.8737, 1436.452
218.3559, 1437.184
218.8380, 1434.899
219.3201, 1432.738
219.8022, 1433.963
220.2843, 1438.816
220.7664, 1444.010
221.2486, 1446.826
221.7307, 1447.748
222.2128, 1448.828
222.6949, 1450.103
223.1770, 1451.798
223.6591, 1454.186
224.1413, 1457.299
224.6234, 1460.897
225.1055, 1465.087
225.5876, 1469.612
226.0697, 1474.039
226.5518, 1478.407
227.0340, 1482.508
227.5161, 1485.878
227.9982, 1488.299
228.4803, 1490.723
228.9624, 1493.734
229.4445, 1497.052
229.9267, 1500.372
230.4088, 1503.471
230.8909, 1506.570
231.3730, 1510.244
231.8551, 1514.963
232.3372, 1519.028
232.8194, 1521.154
233.3015, 1522.510
233.7836, 1524.524
234.2657, 1527.944
234.7478, 1532.106
235.2299, 1535.434
235.7121, 1537.459
236.1942, 1539.625
236.6763, 1542.884
237.1584, 1546.292
237.6405, 1548.685
238.1227, 1549.445
238.6048, 1549.395
239.0869, 1550.883
239.5690, 1555.848
240.0511, 1558.852
240.5332, 1558.272
241.0154, 1555.847
241.4975, 1553.037
241.9796, 1550.456
242.4617, 1548.194
242.9438, 1546.613
243.4259, 1546.651
243.9081, 1545.845
244.3902, 1543.646
244.8723, 1540.721
245.3544, 1537.640
245.8365, 1534.617
246.3186, 1531.628
246.8008, 1528.590
247.2829, 1525.606
247.7650, 1522.400
248.2471, 1519.003
248.7292, 1515.372
249.2113, 1511.101
249.6935, 1506.133
250.1756, 1501.312
250.6577, 1498.348
251.1398, 1499.274
251.6219, 1499.205
252.1040, 1497.366
252.5862, 1494.989
253.0683, 1492.846
253.5504, 1491.248
254.0325, 1490.547
254.5146, 1491.406
254.9967, 1495.057
255.4789, 1498.115
255.9610, 1499.846
256.4431, 1501.411
256.9252, 1503.739
257.4073, 1507.078
257.8894, 1511.240
258.3716, 1516.036
258.8537, 1521.755
259.3358, 1527.477
259.8179, 1532.535
260.3000, 1538.016
260.7821, 1545.027
261.2643, 1553.737
261.7464, 1563.241
262.2285, 1572.618
262.7106, 1581.849
263.1927, 1591.377
263.6748, 1600.974
264.1570, 1610.984
264.6391, 1621.805
265.1212, 1633.431
265.6033, 1645.334
266.0854, 1657.211
266.5675, 1668.956
267.0497, 1679.146
267.5318, 1686.835
268.0139, 1693.535
268.4960, 1699.978
268.9781, 1706.282
269.4602, 1713.326
269.9424, 1722.089
270.4245, 1732.317
270.9066, 1741.797
271.3887, 1750.647
271.8708, 1758.649
272.3529, 1765.366
272.8351, 1770.895
273.3172, 1776.111
273.7993, 1781.595
274.2814, 1787.144
274.7635, 1792.207
275.2456, 1796.544
275.7278, 1800.633
276.2099, 1805.230
276.6920, 1810.148
277.1741, 1813.789
277.6562, 1815.102
278.1383, 1814.703
278.6205, 1814.231
279.1026, 1813.713
279.5847, 1813.040
280.0668, 1812.480
280.5489, 1811.854
281.0310, 1810.105
281.5132, 1806.724
281.9953, 1802.050
282.4774, 1797.045
282.9595, 1791.884
283.4416, 1785.450
283.9237, 1776.698
284.4059, 1766.021
284.8880, 1754.804
285.3701, 1742.950
285.8522, 1731.319
286.3343, 1721.236
286.8164, 1712.606
287.2986, 1703.099
287.7807, 1691.221
288.2628, 1677.436
288.7449, 1663.252
289.2270, 1648.522
289.7091, 1633.985
290.1913, 1619.723
290.6734, 1605.929
291.1555, 1593.115
291.6376, 1582.373
292.1197, 1572.797
292.6018, 1561.829
293.0840, 1548.796
293.5661, 1535.873
294.0482, 1524.476
294.5303, 1514.213
295.0124, 1504.371
295.4945, 1495.255
295.9767, 1486.194
296.4588, 1475.540
296.9409, 1462.542
297.4230, 1450.520
297.9051, 1441.310
298.3872, 1433.947
298.8694, 1427.737
299.3515, 1423.000
299.8336, 1418.443
300.3157, 1412.162
300.7978, 1403.843
301.2799, 1395.447
301.7621, 1387.106
302.2442, 1379.341
302.7263, 1372.922
303.2084, 1368.176
303.6905, 1363.594
304.1726, 1357.098
304.6548, 1348.564
305.1369, 1341.484
305.6190, 1338.126
306.1011, 1335.365
306.5832, 1330.400
307.0653, 1323.144
307.5475, 1316.289
308.0296, 1312.432
308.5117, 1311.305
308.9938, 1309.529
309.4759, 1306.479
309.9580, 1302.899
310.4402, 1299.385
310.9223, 1295.870
311.4044, 1292.041
311.8865, 1287.205
312.3686, 1281.791
312.8507, 1277.708
313.3329, 1275.534
313.8150, 1273.786
314.2971, 1271.595
314.7792, 1269.191
315.2613, 1267.020
315.7434, 1265.450
316.2256, 1264.111
316.7077, 1262.136
317.1898, 1259.280
317.6719, 1256.404
318.1540, 1253.760
318.6361, 1251.340
319.1183, 1249.313
319.6004, 1247.914
320.0825, 1246.370
320.5646, 1243.386
321.0467, 1238.687
321.5288, 1234.294
322.0110, 1230.773
322.4931, 1227.896
322.9752, 1225.686
323.4573, 1224.169
323.9394, 1222.848
324.4215, 1221.642
324.9037, 1220.539
325.3858, 1218.104
325.8679, 1213.144
326.3500, 1207.680
326.8321, 1202.540
327.3142, 1197.947
327.7964, 1194.923
328.2785, 1195.392
328.7606, 1198.385
329.2427, 1199.034
329.7248, 1196.245
330.2069, 1192.486
330.6891, 1188.583
331.1712, 1184.920
331.6533, 1182.406
332.1354, 1182.041
332.6175, 1182.781
333.0996, 1182.531
333.5818, 1181.127
334.0639, 1179.241
334.5460, 1176.508
335.0281, 1173.722
335.5102, 1171.889
335.9923, 1171.414
336.4745, 1171.584
336.9566, 1171.844
337.4387, 1172.239
337.9208, 1171.878
338.4029, 1169.706
338.8850, 1167.181
339.3671, 1165.858
339.8492, 1165.928
340.3314, 1166.130
340.8135, 1165.133
341.2956, 1163.254
341.7777, 1162.740
342.2598, 1164.930
342.7419, 1167.210
343.2241, 1167.221
343.7062, 1165.318
344.1883, 1163.173
344.6704, 1161.308
345.1525, 1159.794
345.6346, 1159.013
346.1168, 1159.291
346.5989, 1159.300
347.0810, 1157.334
347.5631, 1154.487
348.0452, 1152.743
348.5273, 1153.063
349.0095, 1154.285
349.4916, 1155.713
349.9737, 1157.385
350.4558, 1157.308
350.9379, 1153.202
351.4200, 1147.559
351.9022, 1144.468
352.3843, 1144.698
352.8664, 1145.877
353.3485, 1146.838
353.8306, 1147.545
354.3127, 1147.824
354.7949, 1147.561
355.2770, 1146.951
355.7591, 1145.911
356.2412, 1144.419
356.7233, 1143.809
357.2054, 1145.598
357.6876, 1148.235
358.1697, 1148.961
358.6518, 1147.197
359.1339, 1145.144
359.6160, 1144.777
360.0981, 1145.821
360.5803, 1146.756
361.0624, 1147.542
361.5445, 1148.053
362.0266, 1147.951
362.5087, 1147.341
362.9908, 1147.042
363.4730, 1147.637
363.9551, 1148.791
364.4372, 1149.441
364.9193, 1149.300
365.4014, 1149.174
365.8835, 1149.422
366.3657, 1149.910
366.8478, 1150.292
367.3299, 1150.390
367.8120, 1150.604
368.2941, 1151.830
368.7762, 1154.556
369.2584, 1156.097
369.7405, 1155.243
370.2226, 1153.525
370.7047, 1152.330
371.1868, 1151.850
371.6689, 1151.722
372.1511, 1151.681
372.6332, 1151.734
373.1153, 1151.573
373.5974, 1150.972
374.0795, 1150.411
374.5616, 1149.942
375.0438, 1149.690
375.5259, 1150.048
376.0080, 1151.337
376.4901, 1153.142
376.9722, 1153.967
377.4543, 1152.234
377.9365, 1151.554
378.4186, 1153.380
378.9007, 1155.941
379.3828, 1157.180
379.8649, 1156.563
380.3470, 1155.148
380.8292, 1154.421
381.3113, 1154.700
381.7934, 1154.720
382.2755, 1154.431
382.7576, 1153.969
383.2397, 1153.311
383.7219, 1152.536
384.2040, 1151.820
384.6861, 1151.287
385.1682, 1150.946
385.6503, 1150.942
386.1324, 1151.533
386.6146, 1152.210
387.0967, 1153.267
387.5788, 1154.237
388.0609, 1154.443
388.5430, 1153.598
389.0251, 1152.201
389.5073, 1151.227
389.9894, 1150.751
390.4715, 1150.563
390.9536, 1150.832
391.4357, 1151.182
391.9178, 1151.394
392.4000, 1151.435
392.8821, 1151.354
393.3642, 1151.039
393.8463, 1150.457
394.3284, 1150.769
394.8105, 1153.123
395.2927, 1155.054
395.7748, 1155.399
396.2569, 1154.834
396.7390, 1154.549
397.2211, 1155.201
397.7032, 1156.337
398.1854, 1156.734
398.6675, 1155.852
399.1496, 1155.905
399.6317, 1158.688
400.1138, 1161.939
400.5959, 1163.958
401.0781, 1164.459
401.5602, 1164.309
402.0423, 1164.190
402.5244, 1164.092
403.0065, 1163.813
403.4886, 1162.997
403.9708, 1162.511
404.4529, 1163.205
404.9350, 1164.697
405.4171, 1165.904
405.8992, 1165.837
406.3813, 1165.484
406.8635, 1166.781
407.3456, 1169.969
407.8277, 1172.558
408.3098, 1172.906
408.7919, 1172.088
409.2740, 1171.984
409.7562, 1172.900
410.2383, 1173.999
410.7204, 1174.795
411.2025, 1175.379
411.6846, 1175.922
412.1667, 1176.358
412.6489, 1177.102
413.1310, 1178.982
413.6131, 1181.973
414.0952, 1184.385
414.5773, 1185.665
415.0594, 1186.427
415.5416, 1186.862
416.0237, 1187.124
416.5058, 1188.122
416.9879, 1190.660
417.4700, 1194.365
417.9521, 1197.181
418.4343, 1198.027
418.9164, 1199.423
419.3985, 1202.257
419.8806, 1205.998
420.3627, 1210.043
420.8448, 1214.198
421.3270, 1218.100
421.8091, 1221.095
422.2912, 1222.439
422.7733, 1225.060
423.2554, 1229.945
423.7375, 1235.123
424.2197, 1239.382
424.7018, 1242.833
425.1839, 1246.299
425.6660, 1250.449
426.1481, 1255.050
426.6302, 1258.591
427.1124, 1259.676
427.5945, 1261.360
428.0766, 1264.174
428.5587, 1267.664
429.0408, 1271.461
429.5229, 1275.424
430.0051, 1279.522
430.4872, 1283.895
430.9693, 1288.815
431.4514, 1292.811
431.9335, 1295.750
432.4156, 1297.791
432.8978, 1298.235
433.3799, 1297.777
433.8620, 1298.057
434.3441, 1300.253
434.8262, 1303.750
435.3083, 1307.024
435.7905, 1310.451
436.2726, 1312.551
436.7547, 1312.046
437.2368, 1310.357
437.7189, 1308.540
438.2010, 1306.777
438.6832, 1305.018
439.1653, 1303.676
439.6474, 1302.468
440.1295, 1299.549
440.6116, 1293.861
441.0938, 1287.923
441.5759, 1284.149
442.0580, 1281.936
442.5401, 1279.538
443.0222, 1277.392
443.5043, 1274.227
443.9865, 1268.115
444.4686, 1259.386
444.9507, 1250.843
445.4328, 1243.963
445.9149, 1237.893
446.3970, 1230.668
446.8792, 1222.026
447.3613, 1213.309
447.8434, 1204.764
448.3255, 1196.393
448.8076, 1188.247
449.2897, 1180.289
449.7719, 1172.412
450.2540, 1164.594
450.7361, 1156.830
451.2182, 1148.397
451.7003, 1138.057
452.1824, 1128.505
452.6646, 1121.412
453.1467, 1115.579
453.6288, 1108.899
454.1109, 1100.426
454.5930, 1091.182
455.0751, 1083.182
455.5573, 1077.331
456.0394, 1070.981
456.5215, 1063.964
457.0036, 1056.677
457.4857, 1048.898
457.9678, 1040.976
458.4500, 1033.715
458.9321, 1027.782
459.4142, 1023.021
459.8963, 1018.484
460.3784, 1014.338
460.8605, 1010.141
461.3427, 1005.701
461.8248, 1001.162
462.3069, 996.7999
462.7890, 992.6818
463.2711, 988.1684
463.7532, 981.9586
464.2354, 974.2550
464.7175, 968.6720
465.1996, 966.6788
465.6817, 965.1954
466.1638, 961.6100
466.6459, 956.7851
467.1281, 952.9365
467.6102, 951.3964
468.0923, 950.6083
468.5744, 948.9200
469.0565, 946.3952
469.5386, 943.8336
470.0208, 941.5167
470.5029, 939.3520
470.9850, 936.9944
471.4671, 934.1607
471.9492, 932.4330
472.4313, 933.3282
472.9135, 934.8666
473.3956, 934.9788
473.8777, 933.4940
474.3598, 931.1498
474.8419, 928.3112
475.3240, 925.1098
475.8062, 922.9011
476.2883, 922.0121
476.7704, 921.5661
477.2525, 921.6401
477.7346, 921.9681
478.2167, 922.1486
478.6989, 922.1123
479.1810, 922.2853
479.6631, 923.3734
480.1452, 925.7517
480.6273, 927.0611
481.1094, 926.2322
481.5916, 925.4046
482.0737, 925.0132
482.5558, 925.1467
483.0379, 925.9553
483.5200, 927.5854
484.0021, 929.5455
484.4843, 930.7574
484.9664, 930.9355
485.4485, 931.7131
485.9306, 934.0245
486.4127, 936.5141
486.8948, 938.2440
487.3770, 939.2952
487.8591, 940.3261
488.3412, 941.5641
488.8233, 943.0756
489.3054, 945.2553
489.7875, 948.2182
490.2697, 950.5990
490.7518, 951.4442
491.2339, 951.3661
491.7160, 951.5670
492.1981, 951.8505
492.6802, 952.9791
493.1624, 956.0792
493.6445, 959.9227
494.1266, 962.3145
494.6087, 962.9402
495.0908, 963.8515
495.5729, 967.1415
496.0551, 972.7534
496.5372, 976.6156
497.0193, 976.9326
497.5014, 977.8571
497.9835, 981.7382
498.4656, 986.6265
498.9478, 989.5240
499.4299, 989.5195
499.9120, 988.3871
500.3941, 988.7394
500.8762, 991.0946
501.3583, 992.8738
501.8405, 993.4576
502.3226, 994.0856
502.8047, 995.3907
503.2868, 997.0291
503.7689, 998.1454
504.2510, 998.1866
504.7331, 998.1229
505.2152, 1000.006
505.6974, 1004.233
506.1795, 1008.020
506.6616, 1011.268
507.1437, 1013.371
507.6258, 1013.182
508.1079, 1011.215
508.5901, 1010.175
509.0722, 1011.772
509.5543, 1014.855
510.0364, 1018.114
510.5185, 1021.514
511.0006, 1024.230
511.4828, 1025.641
511.9649, 1026.317
512.4470, 1027.315
512.9291, 1028.425
513.4113, 1030.404
513.8934, 1034.302
514.3755, 1038.633
514.8576, 1041.658
515.3397, 1043.368
515.8218, 1045.083
516.3040, 1047.884
516.7861, 1051.517
517.2682, 1054.107
517.7503, 1054.080
518.2324, 1054.961
518.7145, 1057.574
519.1967, 1060.945
519.6788, 1064.405
520.1609, 1067.698
520.6430, 1070.534
521.1251, 1072.344
521.6072, 1073.203
522.0894, 1075.537
522.5715, 1080.727
523.0536, 1085.203
523.5357, 1086.976
524.0178, 1087.822
524.4999, 1089.964
524.9821, 1094.071
525.4642, 1098.384
525.9463, 1101.375
526.4284, 1103.215
526.9105, 1104.658
527.3926, 1105.670
527.8748, 1106.670
528.3569, 1107.975
528.8390, 1109.542
529.3211, 1111.248
529.8032, 1113.481
530.2853, 1115.390
530.7675, 1116.001
531.2496, 1116.039
531.7317, 1117.141
532.2138, 1119.803
532.6959, 1122.760
533.1780, 1124.423
533.6602, 1124.554
534.1423, 1124.834
534.6244, 1125.779
535.1065, 1126.285
535.5886, 1126.053
536.0707, 1125.077
536.5529, 1123.065
537.0350, 1119.959
537.5171, 1116.763
537.9992, 1115.343
538.4813, 1116.176
538.9634, 1116.383
539.4456, 1116.289
539.9277, 1114.991
540.4098, 1110.892
540.8919, 1105.500
541.3740, 1101.905
541.8561, 1101.770
542.3383, 1102.923
542.8204, 1103.289
543.3025, 1102.798
543.7846, 1100.400
544.2667, 1094.994
544.7488, 1089.266
545.2310, 1086.501
545.7131, 1086.349
546.1952, 1085.865
546.6773, 1084.871
547.1594, 1083.192
547.6415, 1079.992
548.1237, 1076.032
548.6058, 1073.311
549.0879, 1072.694
549.5700, 1072.837
550.0521, 1071.388
550.5342, 1067.261
551.0164, 1064.938
551.4985, 1066.441
551.9806, 1067.424
552.4627, 1065.615
552.9448, 1061.939
553.4269, 1058.219
553.9091, 1055.288
554.3912, 1053.008
554.8733, 1051.229
555.3554, 1050.003
555.8375, 1048.836
556.3196, 1047.478
556.8018, 1046.394
557.2839, 1046.643
557.7660, 1047.418
558.2481, 1046.378
558.7302, 1041.749
559.2123, 1036.096
559.6945, 1031.859
560.1766, 1028.850
560.6587, 1026.388
561.1408, 1024.401
561.6229, 1022.446
562.1050, 1019.931
562.5872, 1016.769
563.0693, 1013.632
563.5514, 1010.320
564.0335, 1007.259
564.5156, 1004.923
564.9977, 1002.953
565.4799, 1000.647
565.9620, 997.7377
566.4441, 994.5648
566.9262, 991.6946
567.4083, 989.2527
567.8904, 986.5894
568.3726, 983.7575
568.8547, 980.6149
569.3368, 977.0814
569.8189, 973.2015
570.3010, 968.9576
570.7831, 964.2032
571.2653, 959.5990
571.7474, 955.5891
572.2295, 952.2723
572.7116, 950.8035
573.1937, 952.3558
573.6758, 953.3233
574.1580, 949.9615
574.6401, 943.3606
575.1222, 937.7883
575.6043, 934.6251
576.0864, 931.4567
576.5685, 926.6356
577.0507, 921.1953
577.5328, 916.9448
578.0149, 914.3063
578.4970, 912.3461
578.9791, 910.1119
579.4612, 907.5969
579.9434, 905.0194
580.4255, 901.6691
580.9076, 899.1207
581.3897, 898.2800
581.8718, 898.0468
582.3539, 897.2726
582.8361, 895.6830
583.3182, 893.7162
583.8003, 891.4190
584.2824, 888.9642
584.7645, 887.8520
585.2466, 888.5423
585.7288, 889.2587
586.2108, 889.2153
586.6929, 888.6208
587.1750, 887.7183
587.6572, 886.4547
588.1393, 885.1700
588.6214, 883.7558
589.1035, 882.5357
589.5856, 882.2003
590.0677, 882.6807
590.5499, 882.9309
591.0320, 882.2418
591.5141, 880.8580
591.9962, 879.6854
592.4783, 878.4543
592.9604, 877.8805
593.4426, 878.8377
593.9247, 879.7425
594.4068, 879.2844
594.8889, 877.7327
595.3710, 876.2944
595.8531, 875.7841
596.3353, 875.8246
596.8174, 875.2897
597.2995, 873.8937
597.7816, 873.7285
598.2637, 876.4023
598.7458, 879.2194
599.2280, 879.6129
599.7101, 878.0123
600.1922, 876.7758
600.6743, 876.8696
601.1564, 877.4149
601.6385, 877.8563
602.1207, 878.1483
602.6028, 878.1390
603.0849, 877.7614
603.5670, 877.2404
604.0491, 876.9318
604.5313, 876.9847
605.0134, 876.2659
605.4955, 873.4128
605.9776, 871.4501
606.4597, 872.0859
606.9418, 873.8375
607.4240, 874.9397
607.9061, 874.8389
608.3882, 873.8524
608.8703, 871.8694
609.3524, 869.0428
609.8345, 867.5334
610.3167, 867.9431
610.7988, 868.2634
611.2809, 867.5439
611.7630, 866.1298
612.2451, 864.3467
612.7272, 862.0955
613.2094, 860.0803
613.6915, 858.6625
614.1736, 857.6306
614.6557, 857.0018
615.1378, 856.6190
615.6199, 855.5919
616.1021, 853.2534
616.5842, 850.2405
617.0663, 848.4760
617.5484, 849.6583
618.0305, 849.1348
618.5126, 845.1241
618.9948, 841.2132
619.4769, 840.0177
619.9590, 840.5482
620.4411, 840.2346
620.9232, 837.7488
621.4053, 833.9610
621.8875, 829.7034
622.3696, 825.0129
622.8517, 821.9764
623.3338, 821.6125
623.8159, 821.6988
624.2980, 820.3589
624.7802, 817.9777
625.2623, 815.7861
625.7444, 814.3635
626.2265, 812.5916
626.7086, 809.6098
627.1907, 806.1075
627.6729, 803.0401
628.1550, 800.5800
628.6371, 798.4379
629.1192, 796.4343
629.6013, 794.4825
630.0834, 791.8859
630.5656, 787.8859
631.0477, 784.4908
631.5298, 782.4384
632.0119, 780.6818
632.4940, 778.3651
632.9761, 775.5408
633.4583, 772.8804
633.9404, 770.8115
634.4225, 769.1116
634.9046, 767.8864
635.3867, 767.0009
635.8688, 764.3976
636.3510, 758.7913
636.8331, 752.8158
637.3152, 749.8762
637.7973, 750.3554
638.2794, 749.7100
638.7615, 746.7791
639.2437, 743.9476
639.7258, 742.3856
640.2079, 741.4404
640.6900, 740.2675
641.1721, 738.5970
641.6542, 736.4766
642.1364, 733.7495
642.6185, 730.5205
643.1006, 728.4172
643.5827, 728.1240
644.0648, 727.4459
644.5469, 725.3040
645.0291, 722.6149
645.5112, 719.9387
645.9933, 717.3410
646.4754, 715.3949
646.9575, 714.9217
647.4396, 714.8383
647.9218, 713.8839
648.4039, 712.2287
648.8860, 710.8366
649.3681, 710.1328
649.8502, 709.5032
650.3323, 707.9001
650.8145, 704.9078
651.2966, 702.8632
651.7787, 702.6234
652.2608, 702.3026
652.7429, 701.1990
653.2250, 699.7549
653.7072, 698.2947
654.1893, 696.9669
654.6714, 696.4942
655.1535, 698.6488
655.6356, 702.1970
656.1177, 702.5713
656.5999, 699.3111
657.0820, 695.6535
657.5641, 692.7490
658.0462, 690.6250
658.5283, 689.6065
659.0104, 690.0085
659.4926, 689.7175
659.9747, 687.9110
660.4568, 685.8344
660.9389, 684.1683
661.4210, 682.8541
661.9031, 681.5602
662.3853, 680.1650
662.8674, 679.0955
663.3495, 679.3030
663.8316, 680.9582
664.3137, 680.9766
664.7958, 678.4999
665.2780, 675.9387
665.7601, 674.2692
666.2422, 673.1283
666.7243, 672.1780
667.2064, 671.3900
667.6885, 670.7120
668.1707, 670.4703
668.6528, 670.0999
669.1349, 668.8184
669.6170, 666.7664
670.0991, 664.5244
670.5812, 662.3171
671.0634, 660.5610
671.5455, 660.1667
672.0276, 661.8376
672.5097, 662.2097
672.9918, 659.5979
673.4739, 657.5268
673.9561, 657.7793
674.4382, 658.8654
674.9203, 658.6739
675.4024, 656.6846
675.8845, 654.5187
676.3666, 653.8231
676.8488, 653.7979
677.3309, 652.2590
677.8130, 649.1600
678.2951, 647.1156
678.7772, 647.5564
679.2593, 649.3674
679.7415, 650.6287
680.2236, 651.3874
680.7057, 651.3016
681.1878, 649.7193
681.6699, 648.0063
682.1520, 646.3640
682.6342, 645.1364
683.1163, 645.0256
683.5984, 646.1535
684.0805, 647.3349
684.5626, 647.1501
685.0447, 645.8704
685.5269, 644.9626
686.0090, 644.4745
686.4911, 644.1689
686.9732, 643.9642
687.4553, 643.8769
687.9374, 643.8899
688.4196, 643.9637
688.9017, 644.4006
689.3838, 646.3835
689.8659, 647.6144
690.3480, 645.8773
690.8301, 642.6757
691.3123, 640.6521
691.7944, 640.6367
692.2765, 641.4982
692.7586, 641.9698
693.2407, 642.0994
693.7228, 642.7072
694.2050, 644.2654
694.6871, 645.0001
695.1692, 643.5684
695.6513, 641.5444
696.1334, 640.6700
696.6155, 640.9566
697.0977, 641.1872
697.5798, 641.2968
698.0619, 640.9454
698.5440, 639.2327
699.0261, 637.0070
699.5082, 636.1498
699.9904, 637.1349
700.4725, 638.7186
700.9546, 639.6390
701.4367, 639.9095
701.9188, 639.6817
702.4009, 638.8245
702.8831, 637.7297
703.3652, 635.9748
703.8473, 634.4070
704.3294, 633.7635
704.8115, 633.9614
705.2936, 634.2741
705.7758, 634.4520
706.2579, 634.5988
706.7400, 635.0163
707.2221, 635.4303
707.7042, 635.0309
708.1863, 633.6839
708.6685, 632.4021
709.1506, 632.1595
709.6327, 632.7874
710.1148, 633.0116
710.5969, 632.5612
711.0790, 632.2006
711.5612, 632.1848
712.0433, 632.1467
712.5254, 631.7112
713.0075, 631.0471
713.4896, 630.7152
713.9717, 631.0558
714.4539, 631.5650
714.9360, 631.8468
715.4181, 631.9510
715.9002, 632.0891
716.3823, 632.2701
716.8644, 631.9248
717.3466, 630.4325
717.8287, 628.3904
718.3108, 628.1066
718.7929, 631.1285
719.2750, 632.9686
719.7571, 632.8694
720.2393, 632.2598
720.7214, 631.5342
721.2035, 630.8789
721.6856, 630.5062
722.1677, 630.4753
722.6498, 630.8038
723.1320, 631.9438
723.6141, 633.3209
724.0962, 633.5321
724.5783, 632.5670
725.0604, 631.7475
725.5425, 631.7752
726.0247, 632.4079
726.5068, 633.1837
726.9889, 634.1854
727.4710, 635.0834
727.9531, 635.3583
728.4352, 636.1256
728.9174, 638.6292
729.3995, 641.4263
729.8816, 642.2926
730.3637, 640.8293
730.8458, 639.5816
731.3279, 640.6624
731.8101, 642.9163
732.2922, 644.6033
732.7743, 645.7189
733.2564, 646.5499
733.7385, 647.1874
734.2206, 647.6340
734.7028, 647.7806
735.1849, 647.5477
735.6670, 648.2139
736.1491, 650.6719
736.6312, 652.9011
737.1133, 654.3235
737.5955, 655.5909
738.0776, 657.4435
738.5597, 659.7752
739.0418, 661.6563
739.5239, 662.2441
740.0060, 662.6368
740.4882, 664.3223
740.9703, 666.8694
741.4524, 668.8341
741.9345, 669.9160
742.4166, 670.9836
742.8987, 672.7470
743.3809, 675.0875
743.8630, 677.4285
744.3451, 679.7870
744.8272, 682.1035
745.3093, 684.8710
745.7914, 687.1057
746.2736, 687.6759
746.7557, 687.4288
747.2378, 688.2882
747.7199, 691.1530
748.2020, 693.8942
748.6841, 694.6411
749.1663, 694.3070
749.6484, 694.2203
750.1305, 694.5565
750.6126, 695.4822
751.0947, 697.1000
751.5768, 699.2662
752.0590, 701.8787
752.5411, 705.2757
753.0232, 707.5222
753.5053, 707.8732
753.9874, 708.0456
754.4695, 709.0856
754.9517, 709.9110
755.4338, 708.8983
755.9159, 705.9895
756.3980, 703.8228
756.8801, 703.8227
757.3622, 704.9511
757.8444, 706.8907
758.3265, 709.0611
758.8086, 710.1233
759.2907, 709.7426
759.7728, 708.4622
760.2549, 706.6415
760.7371, 704.4886
761.2192, 703.4218
761.7013, 703.8571
762.1834, 704.2938
762.6655, 705.1169
763.1476, 705.1902
763.6298, 703.6016
764.1119, 700.7226
764.5940, 697.4854
765.0761, 693.6718
765.5582, 690.3806
766.0403, 688.3560
766.5225, 686.9950
767.0046, 685.9781
767.4867, 685.0012
767.9688, 683.2956
768.4509, 680.4476
768.9330, 677.0563
769.4152, 674.0608
769.8973, 671.4442
770.3794, 669.1452
770.8615, 667.2546
771.3436, 665.4752
771.8257, 664.0071
772.3079, 662.3441
772.7900, 659.6331
773.2721, 655.8011
773.7542, 652.0803
774.2363, 647.9835
774.7184, 644.7783
775.2006, 644.1759
775.6827, 644.3258
776.1648, 642.4486
776.6469, 638.3700
777.1290, 634.3792
777.6111, 632.3906
778.0933, 631.4982
778.5754, 629.7538
779.0575, 627.1714
779.5396, 624.1178
780.0217, 620.4886
780.5038, 616.9584
780.9860, 614.0111
781.4681, 611.5778
781.9502, 609.3285
782.4323, 607.4650
782.9144, 605.4373
783.3965, 602.9934
783.8787, 600.6184
784.3608, 598.1677
784.8429, 596.1010
785.3250, 595.8019
785.8071, 597.7271
786.2892, 598.4477
786.7714, 593.7175
787.2535, 586.3926
787.7356, 581.8339
788.2177, 579.9001
788.6998, 578.0935
789.1819, 575.4686
789.6641, 573.1145
790.1462, 572.6545
790.6283, 574.0716
791.1104, 573.0555
791.5925, 567.2959
792.0746, 563.0247
792.5568, 562.7568
793.0389, 563.0234
793.5210, 561.3804
794.0031, 558.1947
794.4852, 555.0490
794.9673, 551.9616
795.4495, 549.8743
795.9316, 550.3459
796.4137, 551.5999
796.8958, 551.4725
797.3779, 549.8246
797.8600, 547.0727
798.3422, 543.3867
798.8243, 539.6577
799.3064, 537.5859
799.7885, 537.2403
800.2706, 536.1066
800.7527, 533.9101
801.2349, 531.7408
801.7170, 530.0159
802.1991, 528.5450
802.6812, 527.1761
803.1633, 525.9268
803.6454, 524.3350
804.1276, 521.7011
804.6097, 519.5372
805.0918, 518.5840
805.5739, 518.2760
806.0560, 518.3791
806.5381, 518.5770
807.0203, 518.1046
807.5024, 516.4282
807.9845, 514.1663
808.4666, 511.8763
808.9487, 509.7120
809.4308, 508.4315
809.9130, 508.1290
810.3951, 507.9301
810.8772, 507.4046
811.3593, 506.4907
811.8414, 504.9525
812.3235, 502.3745
812.8057, 500.7065
813.2878, 501.0008
813.7699, 500.8832
814.2520, 499.6436
814.7341, 497.7441
815.2162, 495.3004
815.6984, 492.4888
816.1805, 490.4244
816.6626, 490.2741
817.1447, 490.2817
817.6268, 489.1528
818.1089, 487.3353
818.5911, 485.2538
819.0732, 483.1593
819.5553, 481.7036
820.0374, 481.3535
820.5195, 481.6384
821.0016, 481.8072
821.4838, 481.8835
821.9659, 480.7551
822.4480, 477.8953
822.9301, 475.3056
823.4122, 474.0055
823.8943, 473.5616
824.3765, 473.4161
824.8586, 473.8063
825.3407, 473.2145
825.8228, 470.3412
826.3049, 467.9972
826.7870, 467.6660
827.2692, 467.9839
827.7513, 467.5266
828.2334, 466.2159
828.7155, 464.7862
829.1976, 463.5506
829.6797, 462.5085
830.1619, 461.7083
830.6440, 461.0936
831.1261, 460.4340
831.6082, 459.7511
832.0903, 459.6729
832.5724, 460.6824
833.0546, 461.7924
833.5367, 460.8605
834.0188, 457.4610
834.5009, 455.0134
834.9830, 453.8990
835.4651, 452.9658
835.9473, 451.8275
836.4294, 450.6657
836.9115, 449.6154
837.3936, 448.6895
837.8757, 448.0204
838.3578, 448.0231
838.8400, 447.7938
839.3221, 446.9820
839.8042, 445.7888
840.2863, 444.0831
840.7684, 442.1871
841.2505, 441.0296
841.7327, 441.1497
842.2148, 441.4794
842.6969, 440.5325
843.1790, 438.8159
843.6611, 437.8891
844.1432, 437.7747
844.6254, 437.4359
845.1075, 436.4443
845.5896, 434.9784
846.0717, 433.1739
846.5538, 431.0346
847.0359, 429.4000
847.5181, 428.3910
848.0002, 427.6696
848.4823, 427.2601
848.9644, 427.0373
849.4465, 427.2456
849.9286, 427.5664
850.4108, 426.9942
850.8929, 424.9036
851.3750, 422.9742
851.8571, 421.9131
852.3392, 421.1388
852.8214, 420.3477
853.3035, 419.4185
853.7856, 418.1024
854.2677, 416.3648
854.7498, 414.7167
855.2319, 413.7672
855.7141, 413.1908
856.1962, 412.1550
856.6783, 410.7502
857.1604, 409.5956
857.6425, 408.8609
858.1246, 408.2583
858.6068, 407.5966
859.0889, 406.8300
859.5710, 405.6909
860.0531, 403.7428
860.5352, 402.6163
861.0173, 403.2009
861.4995, 403.5140
861.9816, 402.7695
862.4637, 401.2059
862.9458, 398.7101
863.4279, 395.1700
863.9100, 392.8506
864.3922, 393.2356
864.8743, 393.9237
865.3564, 393.6504
865.8385, 392.9684
866.3206, 392.6928
866.8027, 392.7656
867.2849, 392.4768
867.7670, 391.4092
868.2491, 389.8675
868.7312, 387.7689
869.2133, 385.5882
869.6954, 385.0858
870.1776, 386.2197
870.6597, 386.7747
871.1418, 385.7347
871.6239, 383.8295
872.1060, 381.9841
872.5881, 380.2043
873.0703, 378.6420
873.5524, 377.1780
874.0345, 376.2863
874.5166, 376.6292
874.9987, 376.9394
875.4808, 375.9225
875.9630, 374.0555
876.4451, 372.7548
876.9272, 372.3150
877.4093, 371.9810
877.8914, 371.7127
878.3735, 371.3926
878.8557, 370.8652
879.3378, 370.2700
879.8199, 369.8989
880.3020, 369.7730
880.7841, 369.4712
881.2662, 368.3725
881.7484, 367.2599
882.2305, 367.4153
882.7126, 368.2511
883.1947, 368.3441
883.6768, 367.5098
884.1589, 366.3974
884.6411, 365.4237
885.1232, 364.4289
885.6053, 362.8238
886.0874, 360.5550
886.5695, 359.9948
887.0516, 361.8089
887.5338, 362.6582
888.0159, 360.7484
888.4980, 358.1940
888.9801, 357.7197
889.4622, 359.3161
889.9443, 359.7332
890.4265, 357.7681
890.9086, 356.3709
891.3907, 356.2199
891.8728, 356.3112
892.3549, 355.9674
892.8370, 355.4238
893.3192, 355.2664
893.8013, 355.6790
894.2834, 355.9790
894.7655, 355.8176
895.2476, 355.4215
895.7297, 355.1424
896.2119, 354.6974
896.6940, 353.1869
897.1761, 350.7685
897.6582, 349.1942
898.1403, 349.8881
898.6224, 351.4266
899.1046, 351.3675
899.5867, 350.0868
900.0688, 349.2782
900.5509, 349.0916
901.0330, 348.9425
901.5151, 348.5710
901.9973, 347.9981
902.4794, 347.1960
902.9615, 346.1640
903.4436, 345.6349
903.9257, 346.0522
904.4078, 345.7268
904.8900, 343.4393
905.3721, 341.4456
905.8542, 342.0875
906.3363, 344.3526
906.8184, 345.0335
907.3005, 343.2528
907.7827, 341.9310
908.2648, 341.7238
908.7469, 341.7177
909.2290, 341.4490
909.7111, 341.1412
910.1932, 341.2265
910.6754, 341.6626
911.1575, 341.8014
911.6396, 341.1888
912.1217, 340.3680
912.6038, 339.5942
913.0859, 338.9903
913.5681, 338.8420
914.0502, 339.0398
914.5323, 339.1640
915.0144, 339.0297
915.4965, 338.7641
915.9786, 338.5017
916.4607, 338.2355
916.9428, 337.9296
917.4249, 337.5897
917.9070, 337.2780
918.3892, 337.0108
918.8713, 336.8099
919.3534, 336.7367
919.8355, 336.6726
920.3176, 336.1943
920.7997, 335.0939
921.2819, 334.3792
921.7640, 334.3018
922.2461, 334.1319
922.7282, 333.3596
923.2103, 332.5396
923.6924, 332.5915
924.1746, 333.4374
924.6567, 333.5199
925.1388, 331.6449
925.6209, 330.5895
926.1030, 331.6176
926.5851, 332.8781
927.0673, 333.1081
927.5494, 332.6588
928.0315, 332.3606
928.5136, 332.4210
928.9957, 332.2510
929.4778, 331.0047
929.9600, 329.9464
930.4421, 330.6053
930.9242, 331.8887
931.4063, 331.8769
931.8884, 330.6078
932.3705, 329.6801
932.8527, 330.0468
933.3348, 330.6846
933.8169, 329.9748
934.2990, 328.5545
934.7811, 328.3387
935.2632, 329.2298
935.7454, 329.9499
936.2275, 330.0803
936.7096, 329.8510
937.1917, 329.4172
937.6738, 328.9073
938.1559, 328.9842
938.6381, 329.8149
939.1202, 329.6570
939.6023, 327.8848
940.0844, 326.6712
940.5665, 327.3886
941.0486, 328.9178
941.5308, 329.4874
942.0129, 329.0016
942.4950, 328.6287
942.9771, 328.8513
943.4592, 328.4445
943.9413, 326.6166
944.4235, 324.7403
944.9056, 323.3867
945.3877, 322.6720
945.8698, 322.9388
946.3519, 324.4929
946.8340, 325.8190
947.3162, 326.5791
947.7983, 326.9653
948.2804, 327.0059
948.7625, 326.7712
949.2446, 326.1955
949.7267, 325.4014
950.2089, 324.8072
950.6910, 324.6691
951.1731, 324.5331
951.6552, 323.9406
952.1373, 323.2229
952.6194, 322.7426
953.1016, 322.5008
953.5837, 322.4584
954.0658, 322.5802
954.5479, 322.7232
955.0300, 322.7435
955.5121, 322.7677
955.9943, 323.1278
956.4764, 323.7011
956.9585, 324.1207
957.4406, 324.3102
957.9227, 323.7021
958.4048, 321.9627
958.8870, 320.2339
959.3691, 320.1615
959.8512, 321.4850
960.3333, 322.0809
960.8154, 321.8593
961.2975, 321.5121
961.7797, 321.0771
962.2618, 320.8388
962.7439, 321.0966
963.2260, 321.5338
963.7081, 321.4218
964.1902, 320.5804
964.6724, 320.1827
965.1545, 320.7872
965.6366, 320.8959
966.1187, 319.4210
966.6008, 318.0475
967.0829, 318.4246
967.5651, 319.9192
968.0472, 320.5585
968.5293, 319.9361
969.0114, 319.2543
969.4935, 318.4167
969.9756, 317.8545
970.4578, 317.8829
970.9399, 318.1942
971.4220, 318.8461
971.9041, 319.5285
972.3862, 318.9048
972.8683, 315.4803
973.3505, 313.0385
973.8326, 314.5905
974.3147, 316.9870
974.7968, 317.4738
975.2789, 316.6870
975.7610, 316.0712
976.2432, 315.9472
976.7253, 315.7841
977.2074, 315.1484
977.6895, 314.4896
978.1716, 314.2591
978.6537, 314.3636
979.1359, 314.8334
979.6180, 315.4929
980.1001, 315.7751
980.5822, 315.4855
981.0643, 314.9813
981.5464, 314.5480
982.0286, 314.2370
982.5107, 314.3151
982.9928, 314.6547
983.4749, 314.5382
983.9570, 313.9016
984.4391, 313.4005
984.9213, 313.3851
985.4034, 313.6135
985.8855, 313.7607
986.3676, 313.8289
986.8497, 313.8608
987.3318, 313.8683
987.8140, 313.6143
988.2961, 312.9510
988.7782, 312.4964
989.2603, 312.6590
989.7424, 313.2978
990.2245, 314.2358
990.7067, 315.6183
991.1888, 316.0527
991.6709, 315.1529
992.1530, 314.2386
992.6351, 313.5279
993.1172, 313.0163
993.5994, 312.7577
994.0815, 312.6755
994.5636, 312.5177
995.0457, 312.1509
995.5278, 312.0816
996.0099, 312.4955
996.4921, 312.9580
996.9742, 313.8209
997.4563, 314.3008
997.9384, 313.4253
998.4205, 311.5924
998.9026, 310.2031
999.3848, 309.3474
999.8669, 309.1512
1000.349, 310.2755
1000.831, 311.3237
1001.313, 311.7097
1001.795, 311.6155
1002.277, 311.1358
1002.760, 310.3922
1003.242, 309.7052
1003.724, 309.0968
1004.206, 308.7776
1004.688, 308.8436
1005.170, 309.2367
1005.652, 310.3112
1006.134, 311.4773
1006.617, 311.7559
1007.099, 311.1518
1007.581, 310.5892
1008.063, 310.4785
1008.545, 310.6661
1009.027, 311.3383
1009.509, 312.0008
1009.991, 312.0536
1010.473, 311.6232
1010.956, 310.8799
1011.438, 309.9898
1011.920, 309.5514
1012.402, 310.0919
1012.884, 310.9620
1013.366, 311.4893
1013.848, 311.7118
1014.330, 311.6431
1014.813, 311.3401
1015.295, 310.8279
1015.777, 310.1765
1016.259, 309.9750
1016.741, 310.9443
1017.223, 312.1864
1017.705, 311.3069
1018.187, 309.3299
1018.669, 310.6740
1019.152, 315.0678
1019.634, 317.6123
1020.116, 316.5146
1020.598, 314.0548
1021.080, 312.3477
1021.562, 311.4074
1022.044, 311.6773
1022.526, 312.9691
1023.008, 313.0384
1023.491, 311.6623
1023.973, 310.8103
1024.455, 311.3508
1024.937, 312.2945
1025.419, 312.4839
1025.901, 312.8716
1026.383, 313.2145
1026.865, 313.0661
1027.348, 313.4173
1027.830, 313.2056
1028.312, 312.9176
1028.794, 312.7448
1029.276, 312.6720
1029.758, 312.6566
1030.240, 312.7281
1030.722, 313.2358
1031.204, 314.4282
1031.687, 314.8662
1032.169, 314.1795
1032.651, 313.4261
1033.133, 313.1190
1033.615, 312.9370
1034.097, 312.3874
1034.579, 311.5276
1035.061, 311.2783
1035.544, 311.7632
1036.026, 312.5933
1036.508, 314.1107
1036.990, 315.2583
1037.472, 315.3322
1037.954, 314.9946
1038.436, 315.1137
1038.918, 315.6702
1039.401, 316.1332
1039.883, 316.7023
1040.365, 316.7719
1040.847, 315.5352
1041.329, 314.8316
1041.811, 316.1441
1042.293, 317.9705
1042.775, 318.1431
1043.257, 316.7234
1043.740, 316.1457
1044.222, 317.2373
1044.704, 317.8942
1045.186, 317.3795
1045.668, 317.1473
1046.150, 318.2771
1046.632, 319.7501
1047.114, 320.2358
1047.596, 319.7787
1048.079, 319.5464
1048.561, 319.8322
1049.043, 320.0528
1049.525, 319.9195
1050.007, 319.9588
1050.489, 321.0790
1050.971, 322.0819
1051.453, 320.9982
1051.936, 318.1239
1052.418, 316.6436
1052.900, 317.7721
1053.382, 319.1027
1053.864, 320.6571
1054.346, 321.7674
1054.828, 321.9259
1055.310, 321.5612
1055.792, 321.1498
1056.275, 320.7169
1056.757, 320.0481
1057.239, 318.5714
1057.721, 317.9541
1058.203, 319.9716
1058.685, 321.4612
1059.167, 319.6953
1059.649, 317.1150
1060.131, 316.8181
1060.614, 318.5676
1061.096, 319.8629
1061.578, 319.9018
1062.060, 319.8453
1062.542, 320.0124
1063.024, 320.2753
1063.506, 320.9864
1063.988, 321.4522
1064.471, 320.4644
1064.953, 318.4751
1065.435, 317.4281
1065.917, 318.0522
1066.399, 318.8794
1066.881, 319.9419
1067.363, 320.3351
1067.845, 318.7436
1068.328, 316.7911
1068.810, 316.4705
1069.292, 317.4192
1069.774, 317.8622
1070.256, 317.2016
1070.738, 316.6790
1071.220, 317.0105
1071.702, 317.4210
1072.184, 317.3890
1072.667, 317.2639
1073.149, 317.5863
1073.631, 318.1183
1074.113, 318.0434
1074.595, 317.0716
1075.077, 316.4414
1075.559, 317.0919
1076.041, 317.7722
1076.523, 317.7576
1077.006, 317.4557
1077.488, 317.2096
1077.970, 317.0335
1078.452, 316.8479
1078.934, 316.6338
1079.416, 316.4608
1079.898, 316.2636
1080.380, 316.2358
1080.862, 316.6376
1081.345, 317.1109
1081.827, 317.3379
1082.309, 317.3916
1082.791, 316.9771
1083.273, 316.2264
1083.755, 317.3189
1084.237, 323.3139
1084.719, 328.3368
1085.202, 329.8774
1085.684, 329.0477
1086.166, 325.1527
1086.648, 320.3258
1087.130, 317.6400
1087.612, 317.4028
1088.094, 317.7588
1088.576, 318.3659
1089.058, 318.7785
1089.541, 318.6241
1090.023, 318.3992
1090.505, 318.2686
1090.987, 318.3984
1091.469, 318.7152
1091.951, 319.4259
1092.433, 321.3886
1092.915, 325.1889
1093.397, 329.2867
1093.880, 334.8897
1094.362, 338.5104
1094.844, 337.0459
1095.326, 333.2459
1095.808, 329.2342
1096.290, 325.7571
1096.772, 323.9182
1097.254, 324.2196
1097.737, 325.0368
1098.219, 326.5370
1098.701, 327.5320
1099.183, 326.9344
1099.665, 326.0808
1100.147, 326.2835
1100.629, 327.1579
1101.111, 327.6004
1101.594, 327.3807
1102.076, 327.4602
1102.558, 328.5603
1103.040, 329.3577
1103.522, 328.9171
1104.004, 328.5423
1104.486, 329.3476
1104.968, 330.7434
1105.450, 331.9135
1105.932, 332.7386
1106.415, 332.7207
1106.897, 330.6561
1107.379, 329.3905
1107.861, 329.9761
1108.343, 330.9012
1108.825, 331.6587
1109.307, 332.1390
1109.789, 331.8817
1110.272, 331.1234
1110.754, 331.5560
1111.236, 334.5273
1111.718, 336.3472
1112.200, 335.9593
1112.682, 335.3153
1113.164, 334.9766
1113.646, 334.7670
1114.129, 334.6306
1114.611, 334.4808
1115.093, 333.9531
1115.575, 332.6683
1116.057, 332.1938
1116.539, 333.1630
1117.021, 333.9799
1117.503, 334.1071
1117.985, 334.2694
1118.468, 335.0069
1118.950, 336.0524
1119.432, 336.9581
1119.914, 337.7450
1120.396, 338.1234
1120.878, 338.1143
1121.360, 337.5674
1121.842, 335.8340
1122.324, 334.7527
1122.807, 335.4590
1123.289, 336.9657
1123.771, 338.0988
1124.253, 338.8820
1124.735, 339.5971
1125.217, 340.4970
1125.699, 340.3004
1126.181, 338.4283
1126.664, 337.1342
1127.146, 337.3588
1127.628, 337.9477
1128.110, 337.7822
1128.592, 337.2648
1129.074, 337.7710
1129.556, 337.5051
1130.038, 337.4127
1130.521, 338.1688
1131.003, 337.7367
1131.485, 339.3321
1131.967, 340.8140
1132.449, 340.7483
1132.931, 340.0371
1133.413, 340.1600
1133.895, 340.9968
1134.377, 341.7965
1134.859, 342.5531
1135.342, 342.9052
1135.824, 342.8086
1136.306, 342.5263
1136.788, 342.1734
1137.270, 341.6315
1137.752, 340.6572
1138.234, 339.6633
1138.716, 339.7438
1139.199, 340.7067
1139.681, 341.9738
1140.163, 343.3541
1140.645, 343.9803
1141.127, 343.6848
1141.609, 343.3185
1142.091, 343.4891
1142.573, 343.7093
1143.056, 342.8947
1143.538, 341.8664
1144.020, 342.5439
1144.502, 344.3450
1144.984, 345.9093
1145.466, 346.9408
1145.948, 347.2912
1146.430, 346.9190
1146.912, 346.5110
1147.395, 346.6051
1147.877, 347.0461
1148.359, 348.0293
1148.841, 348.9909
1149.323, 348.7057
1149.805, 347.8574
1150.287, 348.4288
1150.769, 350.5699
1151.251, 351.9604
1151.734, 351.0854
1152.216, 349.9268
1152.698, 349.3741
1153.180, 349.5095
1153.662, 350.7120
1154.144, 352.4440
1154.626, 354.4885
1155.108, 356.3880
1155.591, 356.8226
1156.073, 355.1347
1156.555, 353.9945
1157.037, 354.9093
1157.519, 355.8000
1158.001, 355.7113
1158.483, 355.3843
1158.965, 355.2490
1159.448, 355.3536
1159.930, 355.7605
1160.412, 356.4682
1160.894, 357.1889
1161.376, 358.1188
1161.858, 358.6965
1162.340, 358.3184
1162.822, 358.2916
1163.304, 359.2621
1163.786, 360.6313
1164.269, 362.1803
1164.751, 363.5958
1165.233, 363.6402
1165.715, 361.6925
1166.197, 361.2218
1166.679, 362.8498
1167.161, 364.2285
1167.643, 364.9047
1168.126, 365.1530
1168.608, 364.8943
1169.090, 364.8860
1169.572, 366.4366
1170.054, 369.2430
1170.536, 370.9263
1171.018, 371.4552
1171.500, 371.5379
1171.983, 371.2049
1172.465, 371.2910
1172.947, 372.0990
1173.429, 373.1110
1173.911, 373.9247
1174.393, 374.5278
1174.875, 374.7716
1175.357, 375.4119
1175.839, 375.3212
1176.322, 376.1788
1176.804, 376.6784
1177.286, 376.8159
1177.768, 377.3414
1178.250, 378.5876
1178.732, 379.9688
1179.214, 381.0266
1179.696, 381.7861
1180.178, 382.0983
1180.661, 382.2711
1181.143, 382.7000
1181.625, 383.4205
1182.107, 384.6847
1182.589, 386.2912
1183.071, 387.0424
1183.553, 386.1085
1184.035, 385.2934
1184.518, 385.7957
1185.000, 386.7465
1185.482, 387.5290
1185.964, 388.4429
1186.446, 390.2004
1186.928, 392.2594
1187.410, 393.3187
1187.892, 393.1401
1188.375, 392.8148
1188.857, 391.8959
1189.339, 391.9080
1189.821, 393.8471
1190.303, 395.9701
1190.785, 397.7423
1191.267, 399.0378
1191.749, 399.4440
1192.231, 399.3177
1192.714, 400.1367
1193.196, 402.3304
1193.678, 403.7809
1194.160, 404.1938
1194.642, 404.6924
1195.124, 405.5821
1195.606, 406.2794
1196.088, 406.3077
1196.570, 406.3525
1197.053, 407.4043
1197.535, 409.2806
1198.017, 411.2715
1198.499, 413.3543
1198.981, 414.4591
1199.463, 414.5697
1199.945, 414.9509
1200.427, 415.9536
1200.910, 416.7839
1201.392, 416.8395
1201.874, 416.9757
1202.356, 418.5995
1202.838, 421.0885
1203.320, 423.5429
1203.802, 425.6154
1204.284, 426.2031
1204.766, 425.6806
1205.249, 425.3356
1205.731, 425.6571
1206.213, 426.9600
1206.695, 430.0833
1207.177, 432.7014
1207.659, 432.3842
1208.141, 431.4424
1208.623, 431.6739
1209.105, 432.6695
1209.588, 434.0403
1210.070, 435.5321
1210.552, 436.6945
1211.034, 437.3998
1211.516, 438.0902
1211.998, 438.8736
1212.480, 439.6600
1212.962, 440.2108
1213.445, 441.0130
1213.927, 442.9271
1214.409, 444.7276
1214.891, 444.8963
1215.373, 443.8138
1215.855, 443.1752
1216.337, 443.0367
1216.819, 443.1051
1217.302, 443.3947
1217.784, 443.8840
1218.266, 444.6553
1218.748, 445.1555
1219.230, 445.0136
1219.712, 444.7991
1220.194, 445.2821
1220.676, 445.6129
1221.158, 446.8522
1221.641, 447.2635
1222.123, 448.4350
1222.605, 450.1252
1223.087, 450.6132
1223.569, 449.7003
1224.051, 449.0788
1224.533, 449.7064
1225.015, 450.6465
1225.497, 450.8569
1225.980, 450.9664
1226.462, 452.0169
1226.944, 453.1813
1227.426, 453.2294
1227.908, 452.5646
1228.390, 451.9168
1228.872, 451.5778
1229.354, 452.1861
1229.837, 454.3278
1230.319, 456.3430
1230.801, 457.9897
1231.283, 458.9717
1231.765, 458.4898
1232.247, 457.9628
1232.729, 458.9071
1233.211, 460.3576
1233.693, 460.4095
1234.176, 459.1290
1234.658, 458.3664
1235.140, 458.0125
1235.622, 458.5912
1236.104, 460.3680
1236.586, 462.3079
1237.068, 464.2431
1237.550, 465.6031
1238.032, 465.8746
1238.515, 465.7010
1238.997, 466.1411
1239.479, 467.0557
1239.961, 468.0420
1240.443, 469.0009
1240.925, 469.3016
1241.407, 469.0888
1241.889, 469.4518
1242.372, 470.5538
1242.854, 471.0360
1243.336, 469.8956
1243.818, 468.9213
1244.300, 469.9398
1244.782, 471.7733
1245.264, 473.7485
1245.746, 475.4867
1246.229, 476.4343
1246.711, 476.8753
1247.193, 477.4259
1247.675, 478.1629
1248.157, 478.6905
1248.639, 478.6299
1249.121, 478.9262
1249.603, 479.8277
1250.085, 480.9945
1250.568, 482.4792
1251.050, 483.9809
1251.532, 485.3611
1252.014, 486.5975
1252.496, 487.7091
1252.978, 488.6578
1253.460, 488.7419
1253.942, 487.7206
1254.424, 488.9641
1254.907, 492.7892
1255.389, 495.0280
1255.871, 494.5564
1256.353, 494.2330
1256.835, 495.9112
1257.317, 498.2257
1257.799, 499.4951
1258.281, 500.1784
1258.764, 500.9189
1259.246, 501.7892
1259.728, 502.9957
1260.210, 504.4297
1260.692, 505.9042
1261.174, 507.3159
1261.656, 508.3656
1262.138, 508.7609
1262.620, 509.7087
1263.103, 512.4842
1263.585, 514.9602
1264.067, 515.8452
1264.549, 516.4591
1265.031, 517.6994
1265.513, 519.2726
1265.995, 520.5156
1266.477, 521.6429
1266.959, 523.9681
1267.442, 528.0261
1267.924, 531.1339
1268.406, 533.2620
1268.888, 534.4839
1269.370, 534.6995
1269.852, 534.7781
1270.334, 535.0959
1270.816, 536.0488
1271.299, 538.1292
1271.781, 540.9327
1272.263, 543.8303
1272.745, 546.7335
1273.227, 549.8265
1273.709, 552.6078
1274.191, 553.3437
1274.673, 552.5861
1275.156, 552.9217
1275.638, 555.1772
1276.120, 558.0322
1276.602, 560.9784
1277.084, 563.9839
1277.566, 567.1249
1278.048, 570.1894
1278.530, 572.9526
1279.012, 575.6414
1279.495, 578.6154
1279.977, 581.6031
1280.459, 583.7657
1280.941, 586.8809
1281.423, 589.6387
1281.905, 591.9542
1282.387, 595.0853
1282.869, 596.3867
1283.351, 598.1690
1283.834, 601.1518
1284.316, 604.4720
1284.798, 607.5039
1285.280, 610.8772
1285.762, 615.3966
1286.244, 621.3983
##END=



