##NAMES=Cancrinite
##RRUFFID=R050352
##IDEAL CHEMISTRY=(Na,Ca,[box])_8_(Al_6_Si_6_)O_24_(CO_3_,S^6+^O_4_)_2_&#183;2H_2_O
##LOCALITY=York River, quarry #2, Dungannon Township, Ontario, Canada
##OWNER=RRUFF
##SOURCE=California Institute of Technology
##DESCRIPTION=Pink fragment
##STATUS=The identification of this mineral has been confirmed by X-ray diffraction and chemical analysis
##URL=rruff.info/R050352
##MEASURED CHEMISTRY=(Na_6.07_Ca_1.62_[box]_0.31_)_Σ=8_(Al_0.99_Si_1.01_O_4_)_6_((CO_3_)_0.84_[box]_0.16_)_Σ=2_·2H_2_O
109.2276, 775.6887
109.7097, 802.6361
110.1918, 831.5160
110.6740, 862.5756
111.1561, 894.9365
111.6382, 930.4725
112.1203, 968.4189
112.6024, 1009.442
113.0845, 1055.532
113.5667, 1110.172
114.0488, 1168.023
114.5309, 1226.131
115.0130, 1283.484
115.4951, 1340.789
115.9772, 1399.645
116.4594, 1460.430
116.9415, 1518.051
117.4236, 1569.169
117.9057, 1616.701
118.3878, 1663.570
118.8699, 1715.932
119.3521, 1764.661
119.8342, 1804.797
120.3163, 1835.695
120.7984, 1861.588
121.2805, 1885.098
121.7626, 1905.345
122.2448, 1920.824
122.7269, 1929.512
123.2090, 1933.728
123.6911, 1935.393
124.1732, 1934.512
124.6553, 1931.906
125.1375, 1927.103
125.6196, 1920.869
126.1017, 1915.627
126.5838, 1912.544
127.0659, 1911.464
127.5480, 1912.128
128.0302, 1914.600
128.5123, 1918.568
128.9944, 1923.727
129.4765, 1930.059
129.9586, 1937.402
130.4407, 1946.576
130.9229, 1956.943
131.4050, 1966.141
131.8871, 1973.966
132.3692, 1979.916
132.8513, 1982.571
133.3334, 1978.803
133.8156, 1963.470
134.2977, 1940.113
134.7798, 1915.614
135.2619, 1888.711
135.7440, 1858.542
136.2261, 1826.155
136.7083, 1793.390
137.1904, 1760.054
137.6725, 1726.765
138.1546, 1693.624
138.6367, 1660.437
139.1188, 1627.868
139.6010, 1596.161
140.0831, 1565.449
140.5652, 1532.301
141.0473, 1494.724
141.5294, 1456.861
142.0115, 1424.782
142.4937, 1399.614
142.9758, 1376.536
143.4579, 1353.881
143.9400, 1331.514
144.4221, 1310.361
144.9042, 1289.870
145.3864, 1270.721
145.8685, 1254.760
146.3506, 1243.720
146.8327, 1233.211
147.3148, 1221.716
147.7969, 1208.945
148.2791, 1195.939
148.7612, 1181.530
149.2433, 1167.036
149.7254, 1155.319
150.2075, 1148.832
150.6896, 1143.068
151.1718, 1136.438
151.6539, 1127.708
152.1360, 1119.938
152.6181, 1113.081
153.1002, 1107.195
153.5823, 1102.489
154.0645, 1099.731
154.5466, 1097.525
155.0287, 1095.241
155.5108, 1093.193
155.9929, 1090.525
156.4750, 1086.882
156.9572, 1082.432
157.4393, 1077.968
157.9214, 1072.937
158.4035, 1068.310
158.8856, 1064.675
159.3677, 1063.051
159.8499, 1061.524
160.3320, 1059.258
160.8141, 1056.476
161.2962, 1054.534
161.7783, 1054.833
162.2604, 1055.777
162.7426, 1056.049
163.2247, 1054.272
163.7068, 1052.615
164.1889, 1052.365
164.6710, 1053.410
165.1531, 1054.048
165.6353, 1053.288
166.1174, 1051.734
166.5995, 1050.040
167.0816, 1049.502
167.5637, 1048.099
168.0458, 1043.933
168.5280, 1037.027
169.0101, 1030.095
169.4922, 1025.279
169.9743, 1021.483
170.4564, 1017.205
170.9385, 1011.111
171.4207, 1004.704
171.9028, 999.0403
172.3849, 994.1713
172.8670, 990.4528
173.3491, 988.2648
173.8312, 987.3851
174.3134, 987.3922
174.7955, 988.9145
175.2776, 990.8641
175.7597, 991.7500
176.2418, 991.3874
176.7239, 991.0101
177.2061, 991.9444
177.6882, 993.8213
178.1703, 995.6094
178.6524, 996.6862
179.1345, 997.4070
179.6166, 998.2522
180.0988, 999.2122
180.5809, 1000.525
181.0630, 1002.749
181.5451, 1005.676
182.0272, 1008.382
182.5093, 1009.899
182.9915, 1010.886
183.4736, 1012.935
183.9557, 1016.237
184.4378, 1020.322
184.9199, 1025.031
185.4020, 1030.164
185.8842, 1034.964
186.3663, 1039.075
186.8484, 1042.509
187.3305, 1044.867
187.8126, 1045.828
188.2947, 1046.560
188.7769, 1049.182
189.2590, 1053.613
189.7411, 1058.050
190.2232, 1061.327
190.7053, 1063.649
191.1874, 1066.333
191.6696, 1069.443
192.1517, 1073.100
192.6338, 1077.979
193.1159, 1084.144
193.5980, 1089.851
194.0801, 1093.433
194.5623, 1095.102
195.0444, 1098.354
195.5265, 1103.797
196.0086, 1110.486
196.4907, 1116.690
196.9728, 1122.434
197.4550, 1127.435
197.9371, 1130.694
198.4192, 1132.144
198.9013, 1136.163
199.3834, 1143.820
199.8655, 1153.502
200.3477, 1161.290
200.8298, 1166.805
201.3119, 1172.069
201.7940, 1178.148
202.2761, 1185.026
202.7582, 1193.055
203.2404, 1202.541
203.7225, 1213.009
204.2046, 1223.133
204.6867, 1232.825
205.1688, 1242.555
205.6509, 1252.455
206.1331, 1262.555
206.6152, 1272.939
207.0973, 1283.483
207.5794, 1294.386
208.0615, 1306.367
208.5436, 1319.670
209.0258, 1333.463
209.5079, 1347.227
209.9900, 1360.938
210.4721, 1374.446
210.9542, 1387.748
211.4363, 1400.816
211.9185, 1413.453
212.4006, 1425.387
212.8827, 1437.555
213.3648, 1450.364
213.8469, 1464.213
214.3290, 1477.764
214.8112, 1491.207
215.2933, 1504.158
215.7754, 1515.711
216.2575, 1525.747
216.7396, 1534.623
217.2217, 1542.185
217.7038, 1547.701
218.1860, 1554.241
218.6681, 1562.781
219.1502, 1572.341
219.6323, 1579.080
220.1144, 1582.098
220.5965, 1583.769
221.0787, 1585.436
221.5608, 1587.481
222.0429, 1588.507
222.5250, 1588.227
223.0071, 1586.913
223.4892, 1585.654
223.9714, 1584.971
224.4535, 1583.558
224.9356, 1580.491
225.4177, 1574.841
225.8998, 1569.958
226.3819, 1566.724
226.8641, 1564.266
227.3462, 1559.533
227.8283, 1551.506
228.3104, 1542.758
228.7925, 1534.683
229.2746, 1527.479
229.7568, 1520.278
230.2389, 1513.269
230.7210, 1506.129
231.2031, 1498.168
231.6852, 1489.734
232.1673, 1479.973
232.6495, 1468.161
233.1316, 1452.450
233.6137, 1438.906
234.0958, 1428.555
234.5779, 1420.425
235.0600, 1411.984
235.5422, 1402.924
236.0243, 1393.874
236.5064, 1385.019
236.9885, 1376.096
237.4706, 1368.020
237.9527, 1361.309
238.4349, 1355.405
238.9170, 1348.923
239.3991, 1341.328
239.8812, 1333.951
240.3633, 1327.369
240.8454, 1321.859
241.3276, 1316.344
241.8097, 1310.109
242.2918, 1304.209
242.7739, 1301.167
243.2560, 1302.172
243.7381, 1304.208
244.2203, 1306.232
244.7024, 1308.242
245.1845, 1310.169
245.6666, 1311.460
246.1487, 1312.933
246.6308, 1316.160
247.1130, 1321.274
247.5951, 1327.962
248.0772, 1336.203
248.5593, 1346.368
249.0414, 1356.729
249.5235, 1366.523
250.0057, 1376.966
250.4878, 1390.459
250.9699, 1408.281
251.4520, 1426.926
251.9341, 1444.971
252.4162, 1462.091
252.8984, 1480.657
253.3805, 1500.844
253.8626, 1522.519
254.3447, 1544.768
254.8268, 1567.398
255.3089, 1591.636
255.7911, 1617.586
256.2732, 1645.379
256.7553, 1674.864
257.2374, 1706.814
257.7195, 1739.831
258.2017, 1772.168
258.6838, 1803.656
259.1659, 1835.459
259.6480, 1868.077
260.1301, 1901.213
260.6122, 1935.634
261.0944, 1972.024
261.5765, 2009.053
262.0586, 2045.332
262.5407, 2080.164
263.0228, 2115.942
263.5049, 2152.825
263.9871, 2191.117
264.4692, 2230.062
264.9513, 2270.241
265.4334, 2310.704
265.9155, 2351.519
266.3976, 2392.133
266.8798, 2432.439
267.3619, 2471.798
267.8440, 2510.687
268.3261, 2550.490
268.8082, 2591.945
269.2903, 2632.587
269.7725, 2670.155
270.2546, 2703.932
270.7367, 2735.931
271.2188, 2766.618
271.7009, 2795.345
272.1830, 2820.236
272.6652, 2841.238
273.1473, 2857.977
273.6294, 2871.253
274.1115, 2881.770
274.5936, 2883.731
275.0757, 2876.386
275.5579, 2860.325
276.0400, 2837.655
276.5221, 2808.646
277.0042, 2771.854
277.4863, 2725.992
277.9684, 2670.850
278.4506, 2608.806
278.9327, 2538.597
279.4148, 2463.406
279.8969, 2389.010
280.3790, 2315.229
280.8611, 2243.692
281.3433, 2175.197
281.8254, 2109.481
282.3075, 2046.337
282.7896, 1984.983
283.2717, 1926.992
283.7538, 1875.029
284.2360, 1829.167
284.7181, 1787.460
285.2002, 1748.703
285.6823, 1713.125
286.1644, 1682.957
286.6465, 1658.694
287.1287, 1639.001
287.6108, 1622.550
288.0929, 1609.330
288.5750, 1599.432
289.0571, 1593.067
289.5392, 1590.033
290.0214, 1590.038
290.5035, 1593.215
290.9856, 1598.194
291.4677, 1603.802
291.9498, 1610.079
292.4319, 1617.113
292.9141, 1625.559
293.3962, 1634.517
293.8783, 1641.828
294.3604, 1647.454
294.8425, 1652.341
295.3246, 1658.494
295.8068, 1664.863
296.2889, 1667.541
296.7710, 1664.612
297.2531, 1658.814
297.7352, 1654.831
298.2173, 1652.422
298.6995, 1649.322
299.1816, 1644.384
299.6637, 1637.527
300.1458, 1628.835
300.6279, 1618.459
301.1100, 1605.723
301.5922, 1588.953
302.0743, 1568.824
302.5564, 1548.215
303.0385, 1528.716
303.5206, 1509.690
304.0027, 1489.873
304.4849, 1469.289
304.9670, 1447.882
305.4491, 1425.746
305.9312, 1402.965
306.4133, 1379.732
306.8954, 1355.550
307.3776, 1331.277
307.8597, 1308.087
308.3418, 1285.863
308.8239, 1264.702
309.3060, 1244.748
309.7881, 1225.700
310.2703, 1207.715
310.7524, 1191.145
311.2345, 1175.188
311.7166, 1159.224
312.1987, 1143.280
312.6808, 1128.449
313.1630, 1115.283
313.6451, 1103.421
314.1272, 1092.356
314.6093, 1082.086
315.0914, 1072.539
315.5735, 1063.729
316.0557, 1055.676
316.5378, 1048.529
317.0199, 1042.497
317.5020, 1037.330
317.9841, 1032.730
318.4662, 1028.405
318.9484, 1025.159
319.4305, 1023.795
319.9126, 1023.775
320.3947, 1023.681
320.8768, 1022.586
321.3589, 1021.709
321.8411, 1021.575
322.3232, 1022.116
322.8053, 1023.737
323.2874, 1026.644
323.7695, 1030.650
324.2516, 1035.457
324.7338, 1041.382
325.2159, 1047.759
325.6980, 1054.309
326.1801, 1060.921
326.6622, 1068.246
327.1443, 1076.102
327.6265, 1084.830
328.1086, 1094.815
328.5907, 1106.108
329.0728, 1118.500
329.5549, 1132.470
330.0370, 1148.109
330.5192, 1162.777
331.0013, 1175.943
331.4834, 1188.709
331.9655, 1201.996
332.4476, 1216.288
332.9297, 1230.325
333.4119, 1243.829
333.8940, 1256.923
334.3761, 1270.021
334.8582, 1282.982
335.3403, 1295.692
335.8224, 1308.000
336.3046, 1319.829
336.7867, 1331.505
337.2688, 1343.051
337.7509, 1354.490
338.2330, 1366.206
338.7151, 1378.227
339.1973, 1390.170
339.6794, 1401.748
340.1615, 1412.795
340.6436, 1425.253
341.1257, 1439.168
341.6078, 1454.167
342.0899, 1470.277
342.5721, 1487.378
343.0542, 1503.767
343.5363, 1518.311
344.0184, 1531.635
344.5005, 1547.474
344.9826, 1566.107
345.4648, 1584.339
345.9469, 1599.757
346.4290, 1612.426
346.9111, 1621.206
347.3932, 1625.472
347.8753, 1626.429
348.3575, 1627.407
348.8396, 1628.013
349.3217, 1623.785
349.8038, 1610.309
350.2859, 1589.786
350.7680, 1567.227
351.2502, 1542.989
351.7323, 1517.610
352.2144, 1492.291
352.6965, 1466.349
353.1786, 1438.451
353.6607, 1406.482
354.1429, 1372.851
354.6250, 1340.307
355.1071, 1308.990
355.5892, 1278.723
356.0713, 1249.481
356.5534, 1221.197
357.0356, 1193.767
357.5177, 1167.427
357.9998, 1141.577
358.4819, 1115.811
358.9640, 1090.307
359.4461, 1066.752
359.9283, 1046.438
360.4104, 1028.211
360.8925, 1011.196
361.3746, 995.5443
361.8567, 980.4417
362.3388, 965.2067
362.8210, 950.3215
363.3031, 936.5324
363.7852, 923.5657
364.2673, 912.1653
364.7494, 903.1505
365.2315, 897.4437
365.7137, 890.9755
366.1958, 881.9291
366.6779, 872.1399
367.1600, 863.6827
367.6421, 857.3307
368.1242, 851.7773
368.6064, 846.6477
369.0885, 841.9042
369.5706, 838.4186
370.0527, 837.1663
370.5348, 836.4056
371.0169, 834.9362
371.4991, 831.8834
371.9812, 829.6688
372.4633, 828.7233
372.9454, 828.7229
373.4275, 828.5857
373.9096, 828.4021
374.3918, 827.9304
374.8739, 827.0472
375.3560, 825.6832
375.8381, 824.0530
376.3202, 821.8129
376.8023, 819.7677
377.2845, 819.2268
377.7666, 820.3427
378.2487, 822.1877
378.7308, 824.7945
379.2129, 827.9495
379.6950, 829.7699
380.1772, 830.0546
380.6593, 830.0906
381.1414, 830.8517
381.6235, 832.3433
382.1056, 834.8141
382.5877, 838.5712
383.0699, 842.9612
383.5520, 846.9167
384.0341, 850.4670
384.5162, 853.5266
384.9983, 855.3917
385.4804, 856.8459
385.9626, 859.8617
386.4447, 864.8651
386.9268, 870.1705
387.4089, 873.9573
387.8910, 876.7416
388.3731, 879.5988
388.8553, 883.0147
389.3374, 886.7246
389.8195, 890.4188
390.3016, 894.0591
390.7837, 897.9276
391.2658, 901.8599
391.7480, 906.2098
392.2301, 911.4395
392.7122, 918.5722
393.1943, 925.3802
393.6764, 930.1119
394.1585, 933.5899
394.6407, 938.0356
395.1228, 945.2551
395.6049, 952.8507
396.0870, 959.5463
396.5691, 964.6639
397.0512, 970.5161
397.5334, 977.4016
398.0155, 985.3367
398.4976, 994.2359
398.9797, 1005.895
399.4618, 1016.638
399.9439, 1025.169
400.4261, 1031.490
400.9082, 1039.294
401.3903, 1049.625
401.8724, 1060.415
402.3545, 1070.286
402.8366, 1078.244
403.3188, 1087.202
403.8009, 1097.411
404.2830, 1108.667
404.7651, 1120.430
405.2472, 1132.392
405.7293, 1145.427
406.2115, 1160.308
406.6936, 1176.985
407.1757, 1192.656
407.6578, 1206.930
408.1399, 1221.394
408.6220, 1238.250
409.1042, 1257.461
409.5863, 1277.276
410.0684, 1297.670
410.5505, 1318.002
411.0326, 1337.408
411.5147, 1356.014
411.9969, 1374.976
412.4790, 1395.349
412.9611, 1416.946
413.4432, 1439.337
413.9253, 1463.086
414.4074, 1486.139
414.8896, 1506.283
415.3717, 1524.117
415.8538, 1540.890
416.3359, 1557.671
416.8180, 1573.216
417.3001, 1586.531
417.7823, 1597.701
418.2644, 1605.752
418.7465, 1610.463
419.2286, 1611.869
419.7107, 1609.987
420.1928, 1604.850
420.6750, 1596.330
421.1571, 1583.995
421.6392, 1568.151
422.1213, 1549.892
422.6034, 1528.312
423.0855, 1505.492
423.5677, 1482.078
424.0498, 1458.396
424.5319, 1433.775
425.0140, 1406.891
425.4961, 1379.471
425.9782, 1353.085
426.4604, 1326.782
426.9425, 1302.988
427.4246, 1282.628
427.9067, 1265.167
428.3888, 1247.999
428.8709, 1230.588
429.3531, 1214.470
429.8352, 1200.438
430.3173, 1188.990
430.7994, 1177.984
431.2815, 1167.180
431.7636, 1157.080
432.2458, 1149.237
432.7279, 1143.813
433.2100, 1137.598
433.6921, 1128.570
434.1742, 1117.963
434.6563, 1110.909
435.1385, 1107.392
435.6206, 1104.818
436.1027, 1101.347
436.5848, 1097.081
437.0669, 1092.167
437.5490, 1086.406
438.0312, 1080.576
438.5133, 1075.084
438.9954, 1070.132
439.4775, 1066.255
439.9596, 1064.477
440.4417, 1063.447
440.9239, 1061.332
441.4060, 1058.035
441.8881, 1056.642
442.3702, 1060.292
442.8523, 1066.085
443.3344, 1071.260
443.8166, 1074.566
444.2987, 1077.742
444.7808, 1080.652
445.2629, 1083.735
445.7450, 1088.332
446.2271, 1094.639
446.7093, 1102.440
447.1914, 1111.788
447.6735, 1123.019
448.1556, 1134.736
448.6377, 1146.330
449.1198, 1158.693
449.6020, 1172.943
450.0841, 1189.718
450.5662, 1206.305
451.0483, 1221.585
451.5304, 1236.461
452.0125, 1254.682
452.4947, 1276.977
452.9768, 1300.828
453.4589, 1324.250
453.9410, 1347.350
454.4231, 1375.685
454.9052, 1410.639
455.3874, 1447.876
455.8695, 1482.378
456.3516, 1514.642
456.8337, 1546.883
457.3158, 1579.201
457.7979, 1612.912
458.2801, 1652.517
458.7622, 1696.900
459.2443, 1739.641
459.7264, 1776.134
460.2085, 1808.105
460.6906, 1837.703
461.1728, 1865.713
461.6549, 1889.097
462.1370, 1906.711
462.6191, 1917.725
463.1012, 1920.392
463.5833, 1911.262
464.0655, 1896.332
464.5476, 1878.745
465.0297, 1858.233
465.5118, 1831.042
465.9939, 1793.703
466.4760, 1751.649
466.9582, 1707.685
467.4403, 1659.163
467.9224, 1613.016
468.4045, 1569.290
468.8866, 1528.208
469.3687, 1489.247
469.8509, 1452.115
470.3330, 1418.863
470.8151, 1390.052
471.2972, 1365.609
471.7793, 1345.089
472.2614, 1328.858
472.7436, 1315.053
473.2257, 1302.198
473.7078, 1290.225
474.1899, 1280.908
474.6720, 1274.420
475.1541, 1270.274
475.6363, 1268.173
476.1184, 1267.958
476.6005, 1268.622
477.0826, 1269.379
477.5647, 1270.994
478.0468, 1274.636
478.5290, 1280.292
479.0111, 1287.871
479.4932, 1299.342
479.9753, 1311.829
480.4574, 1321.352
480.9395, 1326.047
481.4217, 1331.698
481.9038, 1341.515
482.3859, 1354.493
482.8680, 1369.086
483.3501, 1386.377
483.8322, 1403.629
484.3144, 1419.437
484.7965, 1433.816
485.2786, 1449.486
485.7607, 1467.145
486.2428, 1485.740
486.7249, 1504.817
487.2071, 1524.226
487.6892, 1543.899
488.1713, 1563.452
488.6534, 1583.528
489.1355, 1605.820
489.6176, 1631.739
490.0998, 1656.207
490.5819, 1678.371
491.0640, 1698.527
491.5461, 1717.235
492.0282, 1734.498
492.5103, 1751.289
492.9925, 1768.508
493.4746, 1786.004
493.9567, 1801.860
494.4388, 1816.303
494.9209, 1828.384
495.4030, 1836.805
495.8852, 1842.079
496.3673, 1845.770
496.8494, 1848.522
497.3315, 1849.715
497.8136, 1849.260
498.2957, 1846.870
498.7779, 1841.471
499.2600, 1831.749
499.7421, 1819.263
500.2242, 1804.777
500.7063, 1787.917
501.1884, 1770.640
501.6706, 1754.458
502.1527, 1737.884
502.6348, 1719.678
503.1169, 1698.177
503.5990, 1676.919
504.0811, 1657.208
504.5633, 1638.327
505.0454, 1616.712
505.5275, 1590.890
506.0096, 1565.526
506.4917, 1542.949
506.9738, 1523.291
507.4560, 1501.857
507.9381, 1477.807
508.4202, 1454.212
508.9023, 1435.124
509.3844, 1420.216
509.8665, 1403.490
510.3487, 1383.077
510.8308, 1361.761
511.3129, 1344.505
511.7950, 1330.649
512.2772, 1317.093
512.7593, 1301.902
513.2414, 1286.304
513.7235, 1271.385
514.2056, 1257.185
514.6877, 1243.812
515.1699, 1231.783
515.6520, 1220.366
516.1341, 1208.952
516.6162, 1197.602
517.0983, 1185.782
517.5804, 1172.656
518.0626, 1158.978
518.5447, 1145.992
519.0268, 1133.555
519.5089, 1122.173
519.9910, 1112.356
520.4731, 1103.957
520.9553, 1095.226
521.4374, 1085.884
521.9195, 1076.786
522.4016, 1068.521
522.8837, 1061.400
523.3658, 1053.807
523.8480, 1045.483
524.3301, 1037.218
524.8122, 1030.198
525.2943, 1024.407
525.7764, 1019.051
526.2585, 1014.032
526.7407, 1009.217
527.2228, 1003.994
527.7049, 998.5048
528.1870, 993.7288
528.6691, 990.7932
529.1512, 988.5461
529.6334, 985.6453
530.1155, 981.9481
530.5976, 978.0089
531.0797, 973.8085
531.5618, 969.6175
532.0439, 965.7419
532.5261, 962.0900
533.0082, 958.9061
533.4903, 956.4554
533.9724, 954.4550
534.4545, 952.2461
534.9366, 949.8211
535.4188, 947.1356
535.9009, 943.9550
536.3830, 940.3181
536.8651, 937.6511
537.3472, 936.2039
537.8293, 935.2775
538.3115, 934.8157
538.7936, 934.9694
539.2757, 933.3622
539.7578, 929.4098
540.2399, 925.0814
540.7220, 923.4561
541.2042, 924.0282
541.6863, 923.6466
542.1684, 920.5612
542.6505, 916.9496
543.1326, 916.4288
543.6147, 918.2493
544.0969, 919.5618
544.5790, 918.1616
545.0611, 915.8792
545.5432, 914.1113
546.0253, 912.9882
546.5074, 912.1692
546.9896, 911.5358
547.4717, 911.1459
547.9538, 911.0724
548.4359, 912.2870
548.9180, 912.5015
549.4001, 910.7966
549.8823, 908.2364
550.3644, 906.6627
550.8465, 906.6445
551.3286, 906.5020
551.8107, 905.6268
552.2928, 904.2256
552.7750, 903.9587
553.2571, 905.0167
553.7392, 906.2656
554.2213, 907.1730
554.7034, 907.6865
555.1855, 907.3533
555.6677, 906.0445
556.1498, 904.6584
556.6319, 904.3250
557.1140, 904.6037
557.5961, 904.5714
558.0782, 903.8014
558.5604, 902.9010
559.0425, 902.3920
559.5246, 902.1274
560.0067, 901.7871
560.4888, 900.5975
560.9709, 899.8905
561.4531, 900.9115
561.9352, 903.6700
562.4173, 904.8484
562.8994, 901.4915
563.3815, 898.5086
563.8636, 898.6967
564.3458, 904.1862
564.8279, 906.9847
565.3100, 906.2693
565.7921, 903.9537
566.2742, 902.3889
566.7563, 901.6298
567.2385, 901.0159
567.7206, 900.3675
568.2027, 899.8494
568.6848, 900.0477
569.1669, 900.8505
569.6490, 901.4031
570.1312, 900.7444
570.6133, 899.7912
571.0954, 900.1013
571.5775, 901.6224
572.0596, 903.0206
572.5417, 903.3171
573.0239, 903.1913
573.5060, 903.2684
573.9881, 903.8349
574.4702, 904.1285
574.9523, 903.4809
575.4344, 902.6060
575.9166, 902.4137
576.3987, 903.3998
576.8808, 904.5250
577.3629, 905.9893
577.8450, 907.4875
578.3271, 907.8798
578.8093, 906.7469
579.2914, 905.7244
579.7735, 905.4965
580.2556, 905.9693
580.7377, 906.4658
581.2198, 906.9623
581.7020, 907.5881
582.1841, 908.9276
582.6662, 910.4205
583.1483, 910.5190
583.6304, 908.8060
584.1125, 906.8437
584.5947, 905.8009
585.0768, 905.4654
585.5589, 905.5317
586.0410, 906.1383
586.5231, 906.8906
587.0052, 907.8055
587.4873, 908.7795
587.9694, 909.4921
588.4515, 909.9477
588.9337, 910.0956
589.4158, 909.7003
589.8979, 908.7574
590.3800, 908.6877
590.8621, 909.8679
591.3442, 911.2380
591.8264, 912.2285
592.3085, 912.8435
592.7906, 912.5599
593.2727, 911.0271
593.7548, 909.7224
594.2369, 910.9991
594.7191, 914.1025
595.2012, 916.0639
595.6833, 915.8544
596.1654, 914.8318
596.6475, 914.2598
597.1296, 914.0383
597.6118, 913.9222
598.0939, 913.8223
598.5760, 913.8060
599.0581, 913.7214
599.5402, 913.6668
600.0223, 914.3329
600.5045, 916.9169
600.9866, 919.3835
601.4687, 920.7782
601.9508, 920.8398
602.4329, 921.0098
602.9150, 921.3201
603.3972, 921.6952
603.8793, 922.0208
604.3614, 922.2646
604.8435, 922.8219
605.3256, 923.8725
605.8077, 924.8814
606.2899, 924.6560
606.7720, 923.4980
607.2541, 922.9120
607.7362, 923.8012
608.2183, 925.1519
608.7004, 925.5772
609.1826, 925.3964
609.6647, 925.7053
610.1468, 927.6820
610.6289, 929.8403
611.1110, 931.3610
611.5931, 932.2162
612.0753, 932.5626
612.5574, 931.9313
613.0395, 931.2113
613.5216, 930.9186
614.0037, 931.2274
614.4858, 931.5735
614.9680, 932.1550
615.4501, 932.4970
615.9322, 931.5420
616.4143, 929.1319
616.8964, 928.5898
617.3785, 931.2188
617.8607, 934.7079
618.3428, 934.3567
618.8249, 931.1083
619.3070, 928.9189
619.7891, 930.9004
620.2712, 933.9313
620.7534, 934.9580
621.2355, 934.2838
621.7176, 933.2240
622.1997, 931.8568
622.6818, 930.7726
623.1639, 930.4752
623.6461, 931.1807
624.1282, 931.4512
624.6103, 930.2382
625.0924, 929.3281
625.5745, 930.0482
626.0566, 933.4635
626.5388, 935.2386
627.0209, 934.6170
627.5030, 933.4084
627.9851, 934.5082
628.4672, 937.7414
628.9493, 939.8295
629.4315, 939.6937
629.9136, 938.5934
630.3957, 938.4178
630.8778, 938.8995
631.3599, 939.2474
631.8420, 938.8478
632.3242, 938.3703
632.8063, 938.3652
633.2884, 938.7697
633.7705, 939.1533
634.2526, 939.4750
634.7347, 939.6628
635.2169, 939.4808
635.6990, 938.7170
636.1811, 939.0021
636.6632, 941.0316
637.1453, 943.2299
637.6274, 944.2839
638.1096, 943.9199
638.5917, 944.4995
639.0738, 946.4166
639.5559, 948.4347
640.0380, 948.8497
640.5201, 947.9684
641.0023, 947.0840
641.4844, 946.3684
641.9665, 946.0823
642.4486, 946.6715
642.9307, 947.8909
643.4128, 949.1868
643.8950, 951.0920
644.3771, 952.3076
644.8592, 951.5947
645.3413, 949.4404
645.8234, 948.3982
646.3055, 949.4275
646.7877, 951.1324
647.2698, 953.3863
647.7519, 956.2613
648.2340, 957.8356
648.7161, 957.6425
649.1982, 957.4011
649.6804, 958.6559
650.1625, 961.1716
650.6446, 962.6440
651.1267, 962.8574
651.6088, 962.7347
652.0909, 963.3505
652.5731, 964.2618
653.0552, 964.6085
653.5373, 963.9129
654.0194, 963.2930
654.5015, 963.0684
654.9836, 963.4736
655.4658, 964.8393
655.9479, 968.2657
656.4300, 971.5124
656.9121, 974.5388
657.3942, 977.0899
657.8763, 978.2369
658.3585, 977.1886
658.8406, 976.5530
659.3227, 977.0509
659.8048, 978.6082
660.2869, 981.2600
660.7690, 985.0417
661.2512, 988.3857
661.7333, 989.8385
662.2154, 990.2344
662.6975, 991.0509
663.1796, 992.3349
663.6617, 993.9773
664.1439, 996.2006
664.6260, 998.5745
665.1081, 1000.831
665.5902, 1003.077
666.0723, 1004.670
666.5544, 1004.604
667.0366, 1004.357
667.5187, 1005.361
668.0008, 1008.636
668.4829, 1011.079
668.9650, 1012.224
669.4471, 1012.837
669.9293, 1014.039
670.4114, 1015.835
670.8935, 1018.175
671.3756, 1021.250
671.8577, 1024.540
672.3398, 1027.154
672.8220, 1029.273
673.3041, 1031.487
673.7862, 1034.092
674.2683, 1036.860
674.7504, 1039.802
675.2325, 1042.817
675.7147, 1045.399
676.1968, 1047.054
676.6789, 1048.579
677.1610, 1050.185
677.6431, 1051.870
678.1252, 1054.033
678.6074, 1056.956
679.0895, 1059.804
679.5716, 1061.961
680.0537, 1063.447
680.5358, 1064.982
681.0179, 1066.577
681.5001, 1068.232
681.9822, 1070.194
682.4643, 1072.162
682.9464, 1073.544
683.4285, 1074.311
683.9106, 1074.229
684.3928, 1072.422
684.8749, 1069.953
685.3570, 1068.086
685.8391, 1068.510
686.3212, 1067.861
686.8033, 1064.401
687.2855, 1059.950
687.7676, 1057.524
688.2497, 1058.093
688.7318, 1058.181
689.2139, 1056.956
689.6960, 1054.927
690.1782, 1053.251
690.6603, 1051.950
691.1424, 1051.407
691.6245, 1052.499
692.1066, 1053.999
692.5887, 1053.636
693.0709, 1051.845
693.5530, 1050.508
694.0351, 1050.862
694.5172, 1051.830
694.9993, 1052.906
695.4814, 1054.045
695.9636, 1054.928
696.4457, 1055.609
696.9278, 1055.878
697.4099, 1055.254
697.8920, 1053.277
698.3741, 1053.953
698.8563, 1058.163
699.3384, 1062.308
699.8205, 1062.275
700.3026, 1059.173
700.7847, 1058.718
701.2668, 1061.857
701.7490, 1064.974
702.2311, 1064.199
702.7132, 1061.411
703.1953, 1059.167
703.6774, 1058.175
704.1595, 1057.690
704.6417, 1057.749
705.1238, 1058.026
705.6059, 1058.032
706.0880, 1057.046
706.5701, 1056.997
707.0522, 1058.561
707.5344, 1060.800
708.0165, 1061.560
708.4986, 1060.722
708.9807, 1060.235
709.4628, 1060.803
709.9449, 1061.890
710.4271, 1062.304
710.9092, 1062.306
711.3913, 1062.872
711.8734, 1064.526
712.3555, 1066.904
712.8376, 1069.989
713.3198, 1073.676
713.8019, 1077.387
714.2840, 1082.859
714.7661, 1086.402
715.2482, 1085.885
715.7303, 1081.508
716.2125, 1079.160
716.6946, 1079.279
717.1767, 1080.185
717.6588, 1081.083
718.1409, 1081.974
718.6230, 1083.093
719.1052, 1084.479
719.5873, 1084.972
720.0694, 1082.645
720.5515, 1079.375
721.0336, 1077.843
721.5157, 1078.608
721.9979, 1078.932
722.4800, 1077.075
722.9621, 1074.534
723.4442, 1072.425
723.9263, 1070.589
724.4084, 1069.829
724.8906, 1070.381
725.3727, 1071.721
725.8548, 1073.590
726.3369, 1076.088
726.8190, 1077.751
727.3011, 1078.342
727.7833, 1078.251
728.2654, 1077.222
728.7475, 1075.932
729.2296, 1076.109
729.7117, 1078.753
730.1938, 1081.895
730.6760, 1085.037
731.1581, 1087.567
731.6402, 1088.600
732.1223, 1084.353
732.6044, 1083.190
733.0865, 1088.401
733.5687, 1096.550
734.0508, 1100.140
734.5329, 1098.105
735.0150, 1095.848
735.4971, 1094.359
735.9792, 1093.990
736.4614, 1096.567
736.9435, 1101.398
737.4256, 1104.915
737.9077, 1104.612
738.3898, 1102.755
738.8719, 1100.718
739.3541, 1098.745
739.8362, 1097.736
740.3183, 1098.535
740.8004, 1099.821
741.2825, 1100.979
741.7646, 1102.090
742.2468, 1104.231
742.7289, 1107.993
743.2110, 1111.264
743.6931, 1113.059
744.1752, 1113.529
744.6573, 1113.145
745.1395, 1111.951
745.6216, 1111.293
746.1037, 1112.406
746.5858, 1114.446
747.0679, 1116.589
747.5500, 1118.771
748.0322, 1120.607
748.5143, 1121.507
748.9964, 1122.341
749.4785, 1123.503
749.9606, 1124.910
750.4427, 1127.504
750.9249, 1132.080
751.4070, 1136.553
751.8891, 1139.129
752.3712, 1139.872
752.8533, 1141.587
753.3354, 1144.424
753.8176, 1147.678
754.2997, 1151.084
754.7818, 1154.331
755.2639, 1156.576
755.7460, 1157.339
756.2281, 1159.327
756.7103, 1164.850
757.1924, 1171.703
757.6745, 1177.914
758.1566, 1182.567
758.6387, 1187.913
759.1208, 1193.999
759.6030, 1200.793
760.0851, 1208.666
760.5672, 1217.747
761.0493, 1225.253
761.5314, 1230.515
762.0135, 1235.650
762.4957, 1243.313
762.9778, 1252.603
763.4599, 1261.939
763.9420, 1270.716
764.4241, 1279.809
764.9063, 1289.729
765.3884, 1300.228
765.8705, 1311.001
766.3526, 1321.777
766.8347, 1333.235
767.3168, 1345.923
767.7990, 1358.992
768.2811, 1371.174
768.7632, 1382.430
769.2453, 1393.776
769.7274, 1405.352
770.2095, 1416.952
770.6917, 1428.776
771.1738, 1440.262
771.6559, 1450.433
772.1380, 1459.632
772.6201, 1466.274
773.1022, 1469.493
773.5844, 1469.546
774.0665, 1466.758
774.5486, 1460.808
775.0307, 1452.509
775.5128, 1441.407
775.9949, 1428.349
776.4771, 1415.455
776.9592, 1402.670
777.4413, 1388.789
777.9234, 1372.731
778.4055, 1356.383
778.8876, 1343.041
779.3698, 1331.776
779.8519, 1320.150
780.3340, 1306.705
780.8161, 1293.187
781.2982, 1279.094
781.7803, 1265.451
782.2625, 1255.219
782.7446, 1250.608
783.2267, 1245.985
783.7088, 1240.243
784.1909, 1233.743
784.6730, 1227.087
785.1552, 1220.255
785.6373, 1214.810
786.1194, 1211.961
786.6015, 1210.228
787.0836, 1207.883
787.5657, 1204.936
788.0479, 1201.408
788.5300, 1196.436
789.0121, 1191.848
789.4942, 1188.258
789.9763, 1185.730
790.4584, 1184.442
790.9406, 1185.087
791.4227, 1185.644
791.9048, 1185.736
792.3869, 1185.260
792.8690, 1183.355
793.3511, 1180.153
793.8333, 1177.931
794.3154, 1178.587
794.7975, 1180.086
795.2796, 1179.669
795.7617, 1177.970
796.2438, 1177.012
796.7260, 1178.566
797.2081, 1180.042
797.6902, 1180.509
798.1723, 1180.100
798.6544, 1179.187
799.1365, 1177.400
799.6187, 1176.129
800.1008, 1175.879
800.5829, 1176.429
801.0650, 1177.378
801.5471, 1178.622
802.0292, 1179.534
802.5114, 1179.443
802.9935, 1179.106
803.4756, 1179.157
803.9577, 1179.523
804.4398, 1179.973
804.9219, 1179.945
805.4041, 1180.570
805.8862, 1182.622
806.3683, 1185.568
806.8504, 1186.991
807.3325, 1186.526
807.8146, 1186.372
808.2968, 1187.517
808.7789, 1189.371
809.2610, 1190.936
809.7431, 1192.114
810.2252, 1192.502
810.7073, 1191.528
811.1895, 1190.047
811.6716, 1188.130
812.1537, 1186.084
812.6358, 1184.981
813.1179, 1185.214
813.6000, 1186.135
814.0822, 1187.887
814.5643, 1190.161
815.0464, 1191.794
815.5285, 1192.777
816.0106, 1193.555
816.4927, 1194.513
816.9749, 1195.158
817.4570, 1193.844
817.9391, 1191.510
818.4212, 1190.828
818.9033, 1194.410
819.3854, 1198.416
819.8676, 1201.984
820.3497, 1204.694
820.8318, 1205.276
821.3139, 1202.602
821.7960, 1200.408
822.2781, 1199.649
822.7603, 1199.881
823.2424, 1200.023
823.7245, 1200.127
824.2066, 1200.539
824.6887, 1201.519
825.1708, 1202.730
825.6530, 1204.168
826.1351, 1205.611
826.6172, 1206.525
827.0993, 1205.247
827.5814, 1205.449
828.0635, 1209.186
828.5457, 1214.231
829.0278, 1215.656
829.5099, 1212.906
829.9920, 1210.160
830.4741, 1208.285
830.9562, 1207.201
831.4384, 1206.472
831.9205, 1206.420
832.4026, 1207.990
832.8847, 1213.505
833.3668, 1217.870
833.8489, 1217.451
834.3311, 1214.425
834.8132, 1212.452
835.2953, 1211.455
835.7774, 1212.161
836.2595, 1215.284
836.7416, 1219.285
837.2238, 1221.689
837.7059, 1222.643
838.1880, 1223.192
838.6701, 1223.396
839.1522, 1223.854
839.6343, 1225.899
840.1165, 1228.349
840.5986, 1229.365
841.0807, 1226.776
841.5628, 1225.554
842.0449, 1227.550
842.5270, 1230.767
843.0092, 1233.564
843.4913, 1236.165
843.9734, 1236.782
844.4555, 1234.871
844.9376, 1232.427
845.4197, 1231.703
845.9019, 1232.247
846.3840, 1233.152
846.8661, 1234.294
847.3482, 1235.588
847.8303, 1237.571
848.3124, 1239.340
848.7946, 1239.934
849.2767, 1238.564
849.7588, 1237.942
850.2409, 1238.060
850.7230, 1238.923
851.2051, 1240.854
851.6873, 1243.625
852.1694, 1245.886
852.6515, 1247.535
853.1336, 1248.894
853.6157, 1250.650
854.0978, 1251.976
854.5800, 1251.651
855.0621, 1249.228
855.5442, 1247.973
856.0263, 1249.287
856.5084, 1251.180
856.9905, 1252.732
857.4727, 1253.949
857.9548, 1255.781
858.4369, 1258.361
858.9190, 1260.356
859.4011, 1260.559
859.8832, 1259.757
860.3654, 1258.702
860.8475, 1257.602
861.3296, 1257.659
861.8117, 1260.650
862.2938, 1263.771
862.7759, 1265.440
863.2581, 1265.877
863.7402, 1267.159
864.2223, 1269.765
864.7044, 1271.445
865.1865, 1270.800
865.6686, 1268.882
866.1508, 1268.079
866.6329, 1268.359
867.1150, 1269.641
867.5971, 1273.370
868.0792, 1276.626
868.5613, 1276.904
869.0435, 1275.258
869.5256, 1275.071
870.0077, 1277.294
870.4898, 1279.758
870.9719, 1282.463
871.4540, 1284.834
871.9362, 1285.148
872.4183, 1283.713
872.9004, 1282.922
873.3825, 1283.600
873.8646, 1285.019
874.3467, 1287.133
874.8289, 1289.336
875.3110, 1290.676
875.7931, 1290.375
876.2752, 1289.791
876.7573, 1288.464
877.2394, 1287.452
877.7216, 1288.131
878.2037, 1290.583
878.6858, 1293.626
879.1679, 1297.389
879.6500, 1300.431
880.1321, 1300.984
880.6143, 1299.942
881.0964, 1298.234
881.5785, 1295.611
882.0606, 1294.381
882.5427, 1296.658
883.0248, 1299.624
883.5070, 1301.247
883.9891, 1301.224
884.4712, 1301.784
884.9533, 1302.984
885.4354, 1304.404
885.9175, 1306.260
886.3997, 1307.912
886.8818, 1307.422
887.3639, 1304.946
887.8460, 1303.296
888.3281, 1304.052
888.8102, 1306.011
889.2924, 1308.928
889.7745, 1312.673
890.2566, 1316.078
890.7387, 1319.412
891.2208, 1321.430
891.7029, 1320.947
892.1851, 1319.266
892.6672, 1320.181
893.1493, 1323.113
893.6314, 1325.517
894.1135, 1325.368
894.5956, 1325.102
895.0778, 1326.766
895.5599, 1329.327
896.0420, 1329.892
896.5241, 1326.646
897.0062, 1325.058
897.4883, 1326.421
897.9705, 1329.261
898.4526, 1330.942
898.9347, 1331.706
899.4168, 1332.606
899.8989, 1333.847
900.3810, 1335.511
900.8632, 1337.972
901.3453, 1340.756
901.8274, 1343.372
902.3095, 1345.630
902.7916, 1347.764
903.2737, 1349.817
903.7559, 1351.688
904.2380, 1353.187
904.7201, 1354.373
905.2022, 1355.431
905.6843, 1356.324
906.1664, 1358.338
906.6486, 1364.318
907.1307, 1370.630
907.6128, 1373.218
908.0949, 1371.416
908.5770, 1371.869
909.0591, 1376.967
909.5413, 1382.404
910.0234, 1386.573
910.5055, 1389.623
910.9876, 1392.221
911.4697, 1394.403
911.9518, 1396.719
912.4340, 1399.372
912.9161, 1402.403
913.3982, 1405.533
913.8803, 1409.010
914.3624, 1413.498
914.8445, 1419.357
915.3267, 1426.133
915.8088, 1434.187
916.2909, 1442.722
916.7730, 1450.103
917.2551, 1456.371
917.7372, 1462.499
918.2194, 1468.799
918.7015, 1474.883
919.1836, 1479.675
919.6657, 1484.251
920.1478, 1490.189
920.6299, 1498.721
921.1121, 1506.789
921.5942, 1513.421
922.0763, 1520.204
922.5584, 1528.658
923.0405, 1538.868
923.5226, 1548.433
924.0048, 1557.272
924.4869, 1565.088
924.9690, 1570.771
925.4511, 1575.935
925.9332, 1582.692
926.4153, 1591.066
926.8975, 1598.477
927.3796, 1603.145
927.8617, 1607.900
928.3438, 1614.055
928.8259, 1621.070
929.3080, 1626.142
929.7902, 1629.318
930.2723, 1632.203
930.7544, 1635.944
931.2365, 1639.197
931.7186, 1640.367
932.2007, 1639.849
932.6829, 1638.451
933.1650, 1636.063
933.6471, 1633.191
934.1292, 1629.364
934.6113, 1625.663
935.0934, 1624.340
935.5756, 1625.345
936.0577, 1623.746
936.5398, 1618.612
937.0219, 1612.727
937.5040, 1608.381
937.9861, 1605.125
938.4683, 1602.156
938.9504, 1598.878
939.4325, 1598.606
939.9146, 1604.666
940.3967, 1610.113
940.8788, 1610.565
941.3610, 1606.607
941.8431, 1606.023
942.3252, 1608.736
942.8073, 1612.706
943.2894, 1616.589
943.7715, 1621.096
944.2537, 1627.497
944.7358, 1635.208
945.2179, 1642.115
945.7000, 1645.508
946.1821, 1651.285
946.6642, 1660.953
947.1464, 1673.239
947.6285, 1686.255
948.1106, 1699.740
948.5927, 1710.801
949.0748, 1717.834
949.5569, 1725.167
950.0391, 1737.471
950.5212, 1751.848
951.0033, 1764.839
951.4854, 1775.347
951.9675, 1785.737
952.4496, 1796.127
952.9318, 1806.222
953.4139, 1816.142
953.8960, 1825.647
954.3781, 1833.513
954.8602, 1839.635
955.3423, 1843.924
955.8245, 1847.198
956.3066, 1847.818
956.7887, 1842.943
957.2708, 1833.499
957.7529, 1827.383
958.2350, 1826.440
958.7172, 1825.091
959.1993, 1822.082
959.6814, 1817.436
960.1635, 1809.732
960.6456, 1800.357
961.1277, 1794.172
961.6099, 1794.591
962.0920, 1794.785
962.5741, 1789.442
963.0562, 1782.587
963.5383, 1778.969
964.0204, 1779.809
964.5026, 1780.556
964.9847, 1781.107
965.4668, 1781.803
965.9489, 1783.560
966.4310, 1785.494
966.9131, 1785.334
967.3953, 1783.141
967.8774, 1781.527
968.3595, 1781.346
968.8416, 1782.580
969.3237, 1786.239
969.8058, 1791.385
970.2880, 1793.202
970.7701, 1791.127
971.2522, 1790.660
971.7343, 1794.220
972.2164, 1799.307
972.6985, 1803.226
973.1807, 1805.869
973.6628, 1806.929
974.1449, 1804.468
974.6270, 1803.526
975.1091, 1806.058
975.5912, 1809.520
976.0734, 1811.705
976.5555, 1812.598
977.0376, 1812.906
977.5197, 1812.614
978.0018, 1812.953
978.4839, 1815.358
978.9661, 1818.638
979.4482, 1821.310
979.9303, 1823.416
980.4124, 1827.122
980.8945, 1833.952
981.3766, 1840.544
981.8588, 1845.792
982.3409, 1850.313
982.8230, 1855.537
983.3051, 1861.520
983.7872, 1868.615
984.2693, 1876.923
984.7515, 1886.373
985.2336, 1898.092
985.7157, 1910.382
986.1978, 1921.100
986.6799, 1931.042
987.1620, 1937.783
987.6442, 1941.908
988.1263, 1941.115
988.6084, 1931.370
989.0905, 1915.561
989.5726, 1900.289
990.0547, 1885.923
990.5369, 1872.674
991.0190, 1860.460
991.5011, 1849.641
991.9832, 1840.527
992.4653, 1832.958
992.9474, 1826.485
993.4296, 1821.279
993.9117, 1816.117
994.3938, 1810.538
994.8759, 1805.103
995.3580, 1800.839
995.8401, 1797.169
996.3223, 1792.773
996.8044, 1785.730
997.2865, 1781.656
997.7686, 1783.023
998.2507, 1785.333
998.7328, 1785.393
999.2150, 1783.266
999.6971, 1779.723
1000.179, 1774.926
1000.661, 1771.401
1001.143, 1772.960
1001.626, 1774.729
1002.108, 1772.181
1002.590, 1766.259
1003.072, 1762.175
1003.554, 1760.775
1004.036, 1760.132
1004.518, 1760.125
1005.000, 1760.233
1005.482, 1759.611
1005.965, 1758.381
1006.447, 1756.782
1006.929, 1754.703
1007.411, 1752.914
1007.893, 1752.760
1008.375, 1752.173
1008.857, 1749.288
1009.339, 1743.777
1009.822, 1740.476
1010.304, 1739.549
1010.786, 1739.104
1011.268, 1738.465
1011.750, 1737.310
1012.232, 1735.010
1012.714, 1731.823
1013.196, 1728.489
1013.678, 1725.764
1014.161, 1722.016
1014.643, 1716.566
1015.125, 1710.635
1015.607, 1706.084
1016.089, 1702.739
1016.571, 1699.318
1017.053, 1695.612
1017.535, 1692.430
1018.018, 1691.016
1018.500, 1689.924
1018.982, 1688.008
1019.464, 1685.191
1019.946, 1682.248
1020.428, 1679.250
1020.910, 1675.765
1021.392, 1670.650
1021.874, 1665.980
1022.357, 1667.083
1022.839, 1671.758
1023.321, 1674.848
1023.803, 1672.881
1024.285, 1671.355
1024.767, 1672.215
1025.249, 1673.506
1025.731, 1673.072
1026.214, 1670.872
1026.696, 1670.142
1027.178, 1671.044
1027.660, 1673.109
1028.142, 1676.756
1028.624, 1680.813
1029.106, 1684.401
1029.588, 1687.473
1030.070, 1690.059
1030.553, 1691.402
1031.035, 1694.293
1031.517, 1699.925
1031.999, 1706.574
1032.481, 1710.682
1032.963, 1713.426
1033.445, 1717.948
1033.927, 1725.357
1034.410, 1733.348
1034.892, 1739.529
1035.374, 1747.127
1035.856, 1758.413
1036.338, 1773.500
1036.820, 1787.843
1037.302, 1801.149
1037.784, 1817.168
1038.266, 1838.867
1038.749, 1863.577
1039.231, 1888.507
1039.713, 1914.217
1040.195, 1941.638
1040.677, 1973.317
1041.159, 2002.681
1041.641, 2029.933
1042.123, 2053.790
1042.605, 2073.556
1043.088, 2088.785
1043.570, 2096.508
1044.052, 2096.442
1044.534, 2094.716
1045.016, 2090.514
1045.498, 2089.657
1045.980, 2094.232
1046.462, 2104.438
1046.945, 2121.053
1047.427, 2144.124
1047.909, 2177.295
1048.391, 2222.560
1048.873, 2275.521
1049.355, 2333.377
1049.837, 2395.673
1050.319, 2462.661
1050.802, 2538.316
1051.284, 2610.056
1051.766, 2677.884
1052.248, 2739.593
1052.730, 2791.968
1053.212, 2836.373
1053.694, 2878.280
1054.176, 2916.541
1054.658, 2945.893
1055.141, 2964.667
1055.623, 2972.691
1056.105, 2967.723
1056.587, 2953.420
1057.069, 2934.708
1057.551, 2911.689
1058.033, 2881.432
1058.515, 2843.988
1058.997, 2794.206
1059.480, 2723.354
1059.962, 2640.367
1060.444, 2551.299
1060.926, 2457.450
1061.408, 2362.769
1061.890, 2265.473
1062.372, 2171.886
1062.854, 2083.162
1063.337, 2002.186
1063.819, 1937.006
1064.301, 1885.025
1064.783, 1841.544
1065.265, 1805.955
1065.747, 1776.802
1066.229, 1755.928
1066.711, 1738.958
1067.193, 1722.859
1067.676, 1707.901
1068.158, 1698.311
1068.640, 1693.689
1069.122, 1688.703
1069.604, 1677.406
1070.086, 1667.237
1070.568, 1664.061
1071.050, 1665.354
1071.532, 1665.332
1072.015, 1663.578
1072.497, 1661.287
1072.979, 1658.419
1073.461, 1655.666
1073.943, 1653.771
1074.425, 1652.459
1074.907, 1651.270
1075.389, 1650.200
1075.872, 1649.675
1076.354, 1650.188
1076.836, 1650.672
1077.318, 1650.637
1077.800, 1650.586
1078.282, 1651.996
1078.764, 1654.423
1079.246, 1656.286
1079.729, 1657.128
1080.211, 1657.527
1080.693, 1657.344
1081.175, 1657.199
1081.657, 1657.422
1082.139, 1658.010
1082.621, 1659.543
1083.103, 1662.044
1083.585, 1665.166
1084.068, 1668.616
1084.550, 1672.752
1085.032, 1678.633
1085.514, 1685.242
1085.996, 1690.633
1086.478, 1695.094
1086.960, 1697.426
1087.442, 1697.749
1087.924, 1695.464
1088.406, 1688.171
1088.889, 1678.699
1089.371, 1671.751
1089.853, 1667.475
1090.335, 1665.098
1090.817, 1665.847
1091.299, 1666.655
1091.781, 1666.915
1092.263, 1666.736
1092.746, 1665.958
1093.228, 1664.839
1093.710, 1664.639
1094.192, 1665.592
1094.674, 1667.235
1095.156, 1669.792
1095.638, 1672.460
1096.120, 1674.801
1096.603, 1676.756
1097.085, 1677.882
1097.567, 1678.128
1098.049, 1678.449
1098.531, 1679.166
1099.013, 1680.137
1099.495, 1681.903
1099.977, 1683.513
1100.459, 1683.568
1100.942, 1681.002
1101.424, 1679.753
1101.906, 1680.215
1102.388, 1680.750
1102.870, 1680.148
1103.352, 1678.992
1103.834, 1677.893
1104.316, 1677.184
1104.798, 1677.806
1105.281, 1682.545
1105.763, 1685.042
1106.245, 1683.758
1106.727, 1681.151
1107.209, 1679.484
1107.691, 1678.824
1108.173, 1680.688
1108.655, 1684.813
1109.138, 1686.435
1109.620, 1679.081
1110.102, 1672.761
1110.584, 1672.548
1111.066, 1676.344
1111.548, 1680.306
1112.030, 1684.442
1112.512, 1687.950
1112.995, 1690.820
1113.477, 1692.271
1113.959, 1689.841
1114.441, 1687.053
1114.923, 1687.893
1115.405, 1692.250
1115.887, 1692.086
1116.369, 1686.151
1116.851, 1682.951
1117.333, 1686.422
1117.816, 1692.056
1118.298, 1694.475
1118.780, 1694.909
1119.262, 1695.080
1119.744, 1695.322
1120.226, 1695.269
1120.708, 1694.649
1121.190, 1694.453
1121.673, 1695.644
1122.155, 1697.461
1122.637, 1697.858
1123.119, 1697.361
1123.601, 1697.420
1124.083, 1699.932
1124.565, 1701.062
1125.047, 1699.433
1125.530, 1697.368
1126.012, 1696.747
1126.494, 1697.531
1126.976, 1700.126
1127.458, 1704.264
1127.940, 1707.718
1128.422, 1707.853
1128.904, 1708.593
1129.386, 1713.177
1129.869, 1718.537
1130.351, 1719.002
1130.833, 1714.690
1131.315, 1713.700
1131.797, 1717.164
1132.279, 1720.267
1132.761, 1717.316
1133.243, 1714.221
1133.725, 1716.385
1134.208, 1722.529
1134.690, 1725.507
1135.172, 1724.865
1135.654, 1724.533
1136.136, 1725.542
1136.618, 1726.777
1137.100, 1726.957
1137.582, 1726.735
1138.065, 1726.800
1138.547, 1727.287
1139.029, 1727.671
1139.511, 1727.507
1139.993, 1729.076
1140.475, 1734.567
1140.957, 1740.200
1141.439, 1738.784
1141.922, 1733.628
1142.404, 1730.345
1142.886, 1730.663
1143.368, 1732.328
1143.850, 1736.020
1144.332, 1738.886
1144.814, 1738.422
1145.296, 1736.201
1145.778, 1736.430
1146.260, 1738.416
1146.743, 1740.143
1147.225, 1741.367
1147.707, 1741.319
1148.189, 1739.206
1148.671, 1736.901
1149.153, 1735.802
1149.635, 1735.923
1150.117, 1737.980
1150.600, 1741.640
1151.082, 1744.515
1151.564, 1745.267
1152.046, 1745.138
1152.528, 1743.639
1153.010, 1742.268
1153.492, 1743.657
1153.974, 1747.438
1154.457, 1749.130
1154.939, 1748.350
1155.421, 1747.530
1155.903, 1747.633
1156.385, 1748.837
1156.867, 1752.213
1157.349, 1756.510
1157.831, 1758.905
1158.313, 1759.363
1158.796, 1759.392
1159.278, 1759.108
1159.760, 1759.498
1160.242, 1762.280
1160.724, 1765.359
1161.206, 1767.226
1161.688, 1767.832
1162.170, 1766.559
1162.652, 1762.943
1163.135, 1762.808
1163.617, 1768.705
1164.099, 1775.510
1164.581, 1778.919
1165.063, 1779.778
1165.545, 1778.194
1166.027, 1773.874
1166.509, 1771.756
1166.992, 1771.891
1167.474, 1774.068
1167.956, 1779.326
1168.438, 1784.551
1168.920, 1785.405
1169.402, 1783.785
1169.884, 1782.256
1170.366, 1781.031
1170.849, 1780.912
1171.331, 1781.984
1171.813, 1784.034
1172.295, 1787.960
1172.777, 1791.875
1173.259, 1792.061
1173.741, 1790.068
1174.223, 1788.924
1174.705, 1789.400
1175.188, 1791.281
1175.670, 1795.559
1176.152, 1798.614
1176.634, 1795.919
1177.116, 1790.994
1177.598, 1791.396
1178.080, 1795.585
1178.562, 1798.741
1179.044, 1798.299
1179.527, 1798.278
1180.009, 1799.254
1180.491, 1800.185
1180.973, 1799.688
1181.455, 1798.552
1181.937, 1798.559
1182.419, 1799.671
1182.901, 1801.284
1183.384, 1803.739
1183.866, 1805.957
1184.348, 1807.801
1184.830, 1809.359
1185.312, 1810.522
1185.794, 1811.533
1186.276, 1813.355
1186.758, 1815.907
1187.240, 1817.487
1187.723, 1815.751
1188.205, 1815.059
1188.687, 1816.699
1189.169, 1819.430
1189.651, 1821.796
1190.133, 1823.507
1190.615, 1823.014
1191.097, 1820.097
1191.579, 1818.414
1192.062, 1819.488
1192.544, 1822.499
1193.026, 1828.234
1193.508, 1834.557
1193.990, 1836.521
1194.472, 1835.065
1194.954, 1833.177
1195.436, 1831.336
1195.919, 1830.006
1196.401, 1829.770
1196.883, 1829.729
1197.365, 1829.475
1197.847, 1829.201
1198.329, 1829.230
1198.811, 1829.693
1199.293, 1831.252
1199.776, 1834.335
1200.258, 1837.217
1200.740, 1839.217
1201.222, 1840.582
1201.704, 1841.239
1202.186, 1841.412
1202.668, 1842.023
1203.150, 1842.972
1203.632, 1843.888
1204.115, 1844.583
1204.597, 1845.455
1205.079, 1846.737
1205.561, 1848.249
1206.043, 1849.986
1206.525, 1851.847
1207.007, 1853.124
1207.489, 1853.935
1207.971, 1854.903
1208.454, 1856.632
1208.936, 1857.782
1209.418, 1856.917
1209.900, 1856.048
1210.382, 1856.511
1210.864, 1858.122
1211.346, 1859.841
1211.828, 1861.608
1212.311, 1863.055
1212.793, 1863.411
1213.275, 1864.384
1213.757, 1866.813
1214.239, 1869.956
1214.721, 1874.038
1215.203, 1878.584
1215.685, 1879.349
1216.167, 1876.903
1216.650, 1874.332
1217.132, 1872.291
1217.614, 1871.564
1218.096, 1873.089
1218.578, 1875.277
1219.060, 1876.945
1219.542, 1878.100
1220.024, 1878.724
1220.506, 1878.877
1220.989, 1878.887
1221.471, 1878.075
1221.953, 1878.375
1222.435, 1881.333
1222.917, 1884.422
1223.399, 1884.595
1223.881, 1882.573
1224.363, 1881.836
1224.846, 1882.389
1225.328, 1883.503
1225.810, 1885.171
1226.292, 1886.895
1226.774, 1888.548
1227.256, 1890.186
1227.738, 1891.884
1228.220, 1893.611
1228.703, 1895.447
1229.185, 1897.318
1229.667, 1898.770
1230.149, 1899.346
1230.631, 1899.754
1231.113, 1900.072
1231.595, 1900.412
1232.077, 1900.582
1232.559, 1900.942
1233.042, 1903.252
1233.524, 1907.205
1234.006, 1909.559
1234.488, 1907.083
1234.970, 1905.458
1235.452, 1905.952
1235.934, 1907.369
1236.416, 1908.367
1236.898, 1909.003
1237.381, 1909.239
1237.863, 1909.149
1238.345, 1909.289
1238.827, 1910.109
1239.309, 1910.826
1239.791, 1911.265
1240.273, 1911.752
1240.755, 1913.155
1241.238, 1914.753
1241.720, 1914.826
1242.202, 1913.420
1242.684, 1912.857
1243.166, 1913.472
1243.648, 1915.374
1244.130, 1919.127
1244.612, 1922.677
1245.094, 1922.359
1245.577, 1920.615
1246.059, 1921.109
1246.541, 1924.051
1247.023, 1927.696
1247.505, 1932.851
1247.987, 1935.270
1248.469, 1933.296
1248.951, 1930.996
1249.433, 1934.658
1249.916, 1940.104
1250.398, 1942.098
1250.880, 1940.392
1251.362, 1939.853
1251.844, 1940.955
1252.326, 1941.903
1252.808, 1942.231
1253.290, 1942.692
1253.773, 1945.219
1254.255, 1947.462
1254.737, 1946.095
1255.219, 1941.614
1255.701, 1940.546
1256.183, 1943.245
1256.665, 1946.708
1257.147, 1950.613
1257.630, 1953.052
1258.112, 1949.916
1258.594, 1946.479
1259.076, 1948.337
1259.558, 1953.994
1260.040, 1956.615
1260.522, 1956.214
1261.004, 1955.535
1261.486, 1955.117
1261.969, 1954.862
1262.451, 1953.866
1262.933, 1953.876
1263.415, 1956.674
1263.897, 1961.143
1264.379, 1963.551
1264.861, 1964.137
1265.343, 1964.584
1265.825, 1965.257
1266.308, 1965.729
1266.790, 1965.234
1267.272, 1965.091
1267.754, 1965.997
1268.236, 1967.617
1268.718, 1968.950
1269.200, 1970.246
1269.682, 1972.783
1270.165, 1977.080
1270.647, 1979.918
1271.129, 1977.801
1271.611, 1976.804
1272.093, 1979.421
1272.575, 1983.527
1273.057, 1984.927
1273.539, 1984.516
1274.021, 1984.080
1274.504, 1983.872
1274.986, 1984.291
1275.468, 1985.465
1275.950, 1987.073
1276.432, 1989.096
1276.914, 1991.397
1277.396, 1994.709
1277.878, 1997.738
##END=



