##NAMES=Cancrinite
##RRUFFID=R050352
##IDEAL CHEMISTRY=(Na,Ca,[box])_8_(Al_6_Si_6_)O_24_(CO_3_,S^6+^O_4_)_2_&#183;2H_2_O
##LOCALITY=York River, quarry #2, Dungannon Township, Ontario, Canada
##OWNER=RRUFF
##SOURCE=California Institute of Technology
##DESCRIPTION=Pink fragment
##STATUS=The identification of this mineral has been confirmed by X-ray diffraction and chemical analysis
##URL=rruff.info/R050352
##MEASURED CHEMISTRY=(Na_6.07_Ca_1.62_[box]_0.31_)_Σ=8_(Al_0.99_Si_1.01_O_4_)_6_((CO_3_)_0.84_[box]_0.16_)_Σ=2_·2H_2_O
106.0227, 825.9990
106.5048, 825.8297
106.9869, 824.8185
107.4691, 823.9659
107.9512, 823.4041
108.4333, 823.2747
108.9154, 823.9284
109.3975, 825.8636
109.8796, 829.3004
110.3617, 832.3898
110.8439, 835.2181
111.3260, 837.6134
111.8081, 839.5534
112.2902, 840.9793
112.7723, 841.7837
113.2544, 841.8293
113.7366, 841.1381
114.2187, 839.3981
114.7008, 836.0246
115.1829, 831.9831
115.6650, 828.1736
116.1471, 824.9061
116.6293, 821.8536
117.1114, 818.2379
117.5935, 814.0397
118.0756, 809.4574
118.5577, 804.7198
119.0398, 799.6396
119.5220, 793.5272
120.0041, 785.6234
120.4862, 776.8933
120.9683, 769.5866
121.4504, 764.3069
121.9325, 759.3888
122.4147, 753.8921
122.8968, 747.8571
123.3789, 740.6951
123.8610, 731.2371
124.3431, 720.7181
124.8252, 709.9679
125.3074, 698.7748
125.7895, 688.0496
126.2716, 679.9713
126.7537, 676.1925
127.2358, 672.3391
127.7179, 666.9971
128.2001, 660.7548
128.6822, 654.2816
129.1643, 647.9827
129.6464, 641.8363
130.1285, 635.9028
130.6106, 631.7342
131.0928, 626.2250
131.5749, 618.0488
132.0570, 607.8503
132.5391, 596.9974
133.0212, 586.6550
133.5033, 576.7453
133.9855, 567.9328
134.4676, 560.8029
134.9497, 554.0569
135.4318, 547.2255
135.9139, 540.1832
136.3960, 532.6583
136.8782, 524.1842
137.3603, 514.4332
137.8424, 505.5905
138.3245, 498.2809
138.8066, 491.7672
139.2887, 485.2638
139.7709, 478.6105
140.2530, 472.0465
140.7351, 465.6561
141.2172, 459.4281
141.6993, 454.0259
142.1814, 450.3509
142.6636, 447.9222
143.1457, 444.8853
143.6278, 440.5661
144.1099, 435.8401
144.5920, 431.1599
145.0741, 426.5878
145.5563, 422.6628
146.0384, 420.2150
146.5205, 419.4869
147.0026, 418.2055
147.4847, 415.2800
147.9668, 412.1253
148.4490, 409.4204
148.9311, 407.3367
149.4132, 405.6912
149.8953, 404.2669
150.3774, 403.2018
150.8595, 402.0652
151.3417, 400.4367
151.8238, 398.9388
152.3059, 398.1585
152.7880, 398.3007
153.2701, 399.0218
153.7522, 399.4590
154.2344, 399.4045
154.7165, 399.2514
155.1986, 398.8993
155.6807, 398.4841
156.1628, 398.1103
156.6449, 397.8082
157.1271, 397.6634
157.6092, 398.0846
158.0913, 399.3672
158.5734, 400.7591
159.0555, 401.8429
159.5376, 402.8411
160.0198, 404.3907
160.5019, 406.9665
160.9840, 410.3273
161.4661, 413.3831
161.9482, 415.8761
162.4303, 418.3513
162.9125, 421.0970
163.3946, 424.1103
163.8767, 427.4174
164.3588, 431.4758
164.8409, 435.6785
165.3230, 439.0926
165.8052, 441.6754
166.2873, 443.2816
166.7694, 443.6974
167.2515, 442.9189
167.7336, 440.8949
168.2157, 436.6246
168.6979, 431.4323
169.1800, 426.7813
169.6621, 423.2877
170.1442, 420.7381
170.6263, 418.4996
171.1084, 416.4373
171.5906, 415.0014
172.0727, 414.5720
172.5548, 414.6981
173.0369, 414.6908
173.5190, 414.0263
174.0011, 412.8733
174.4833, 412.6699
174.9654, 414.6715
175.4475, 416.4454
175.9296, 417.2184
176.4117, 417.3868
176.8938, 417.7605
177.3760, 418.9757
177.8581, 421.0610
178.3402, 422.8743
178.8223, 424.0996
179.3044, 425.3905
179.7865, 427.1535
180.2687, 429.2258
180.7508, 431.0694
181.2329, 432.1655
181.7150, 432.4238
182.1971, 433.1051
182.6792, 434.3014
183.1614, 435.7669
183.6435, 437.5768
184.1256, 439.6474
184.6077, 441.4974
185.0898, 442.6063
185.5719, 442.9106
186.0540, 443.5258
186.5362, 444.5991
187.0183, 445.9160
187.5004, 447.2868
187.9825, 448.6928
188.4646, 450.1740
188.9467, 451.8536
189.4289, 453.6657
189.9110, 455.3734
190.3931, 456.9641
190.8752, 458.4047
191.3573, 459.5790
191.8394, 460.3610
192.3216, 461.2158
192.8037, 462.4440
193.2858, 463.9915
193.7679, 465.8209
194.2500, 468.4637
194.7321, 471.4337
195.2143, 473.1161
195.6964, 472.9863
196.1785, 472.2186
196.6606, 471.2897
197.1427, 470.3083
197.6248, 469.5372
198.1070, 469.3141
198.5891, 469.5449
199.0712, 469.2685
199.5533, 468.1284
200.0354, 466.8127
200.5175, 465.3919
200.9997, 463.9989
201.4818, 462.8828
201.9639, 462.2975
202.4460, 462.2569
202.9281, 462.1397
203.4102, 461.5318
203.8924, 461.2353
204.3745, 461.5949
204.8566, 462.4999
205.3387, 463.6219
205.8208, 464.6734
206.3029, 465.6334
206.7851, 466.7892
207.2672, 468.0478
207.7493, 469.5624
208.2314, 471.5661
208.7135, 473.9264
209.1956, 476.2319
209.6778, 478.0684
210.1599, 479.3143
210.6420, 481.0439
211.1241, 483.4668
211.6062, 486.0713
212.0883, 488.5646
212.5705, 490.9564
213.0526, 493.5248
213.5347, 496.6378
214.0168, 500.3963
214.4989, 503.2804
214.9810, 504.7377
215.4632, 505.8427
215.9453, 507.1604
216.4274, 508.7668
216.9095, 510.6794
217.3916, 513.0707
217.8737, 515.9312
218.3559, 518.1742
218.8380, 519.4127
219.3201, 520.2914
219.8022, 521.4642
220.2843, 522.9811
220.7664, 524.2123
221.2486, 524.2921
221.7307, 523.5903
222.2128, 523.6876
222.6949, 525.6349
223.1770, 528.0591
223.6591, 529.3464
224.1413, 529.3407
224.6234, 528.9950
225.1055, 529.0603
225.5876, 529.2538
226.0697, 529.0035
226.5518, 527.7756
227.0340, 526.2184
227.5161, 525.5003
227.9982, 525.9805
228.4803, 526.0286
228.9624, 524.2012
229.4445, 521.4842
229.9267, 519.0837
230.4088, 517.4665
230.8909, 516.4003
231.3730, 515.5591
231.8551, 515.1105
232.3372, 514.4605
232.8194, 513.1956
233.3015, 511.6591
233.7836, 510.1576
234.2657, 508.7079
234.7478, 507.5413
235.2299, 507.4601
235.7121, 509.5963
236.1942, 510.4638
236.6763, 508.0685
237.1584, 504.4829
237.6405, 501.8550
238.1227, 501.1282
238.6048, 501.7462
239.0869, 502.2937
239.5690, 502.5438
240.0511, 503.1596
240.5332, 504.3368
241.0154, 505.8389
241.4975, 507.4094
241.9796, 508.9348
242.4617, 510.5234
242.9438, 512.4095
243.4259, 514.5624
243.9081, 517.1455
244.3902, 520.4720
244.8723, 524.0323
245.3544, 527.1915
245.8365, 529.7377
246.3186, 532.1544
246.8007, 535.6108
247.2829, 540.8643
247.7650, 546.1474
248.2471, 551.0582
248.7292, 556.1073
249.2113, 561.7480
249.6934, 568.1374
250.1756, 575.1442
250.6577, 582.5550
251.1398, 590.7772
251.6219, 598.7677
252.1040, 605.7743
252.5861, 612.8910
253.0683, 621.2602
253.5504, 631.1282
254.0325, 641.7297
254.5146, 651.7937
254.9967, 660.6720
255.4788, 670.1543
255.9610, 680.4184
256.4431, 691.1202
256.9252, 702.0843
257.4073, 713.2693
257.8894, 724.5496
258.3716, 735.7652
258.8537, 746.7965
259.3358, 758.1328
259.8179, 769.6388
260.3000, 781.5724
260.7821, 794.5211
261.2643, 808.5326
261.7464, 822.4703
262.2285, 835.1171
262.7106, 846.2117
263.1927, 857.2282
263.6748, 867.8826
264.1570, 878.6240
264.6391, 890.0081
265.1212, 902.0334
265.6033, 913.8229
266.0854, 924.3844
266.5675, 933.6009
267.0497, 942.8282
267.5318, 951.8146
268.0139, 960.9652
268.4960, 970.9144
268.9781, 981.6028
269.4602, 991.9609
269.9424, 1001.388
270.4245, 1009.679
270.9066, 1016.691
271.3887, 1022.783
271.8708, 1027.337
272.3529, 1029.671
272.8351, 1029.871
273.3172, 1028.931
273.7993, 1027.804
274.2814, 1025.649
274.7635, 1020.743
275.2456, 1012.589
275.7278, 1002.235
276.2099, 990.4069
276.6920, 977.0581
277.1741, 961.6229
277.6562, 943.3445
278.1383, 922.9772
278.6204, 902.8301
279.1025, 882.9025
279.5847, 862.7687
280.0668, 841.9152
280.5489, 820.4103
281.0310, 799.0009
281.5131, 777.2096
281.9952, 756.5290
282.4774, 738.9556
282.9595, 724.8181
283.4416, 711.7123
283.9237, 697.5941
284.4058, 683.1469
284.8879, 671.1855
285.3701, 662.7718
285.8522, 656.8264
286.3343, 652.1342
286.8164, 648.6425
287.2985, 645.8624
287.7806, 643.7061
288.2628, 642.0771
288.7449, 640.5898
289.2270, 638.9315
289.7091, 637.9250
290.1912, 638.1187
290.6733, 639.3990
291.1555, 641.5728
291.6376, 644.9965
292.1197, 649.1935
292.6018, 653.1715
293.0839, 656.9513
293.5660, 660.2857
294.0482, 663.4108
294.5303, 665.9999
295.0124, 667.2933
295.4945, 666.7314
295.9766, 664.8212
296.4587, 662.4327
296.9409, 659.5909
297.4230, 656.1691
297.9051, 651.8169
298.3872, 646.9006
298.8693, 641.8760
299.3514, 637.1295
299.8336, 631.8682
300.3157, 624.7117
300.7978, 615.2870
301.2799, 605.9490
301.7620, 597.4886
302.2441, 589.5574
302.7263, 582.0065
303.2084, 574.8854
303.6905, 567.6243
304.1726, 559.4701
304.6547, 550.4000
305.1368, 541.3478
305.6190, 532.2072
306.1011, 523.4116
306.5832, 515.3820
307.0653, 508.1309
307.5474, 501.2197
308.0295, 494.3908
308.5117, 487.6494
308.9938, 480.8089
309.4759, 473.4822
309.9580, 466.5542
310.4401, 460.6034
310.9222, 455.5285
311.4044, 450.9040
311.8865, 446.5630
312.3686, 442.5016
312.8507, 438.6194
313.3328, 434.8857
313.8149, 431.4058
314.2971, 428.2087
314.7792, 425.2428
315.2613, 422.3902
315.7434, 419.5055
316.2255, 416.7436
316.7076, 414.4821
317.1898, 412.8348
317.6719, 411.3232
318.1540, 409.4216
318.6361, 407.6481
319.1182, 406.6968
319.6003, 406.9149
320.0825, 407.6046
320.5646, 407.9126
321.0467, 407.8304
321.5288, 407.4056
322.0109, 405.9984
322.4930, 404.6611
322.9752, 404.2302
323.4573, 404.8427
323.9394, 406.0833
324.4215, 407.7349
324.9036, 409.7791
325.3857, 411.7826
325.8679, 413.5457
326.3500, 415.3817
326.8321, 417.4796
327.3142, 419.8373
327.7963, 422.3763
328.2784, 424.9759
328.7606, 427.6923
329.2427, 430.9076
329.7248, 434.9883
330.2069, 438.9590
330.6890, 442.2587
331.1711, 445.0348
331.6533, 447.5967
332.1354, 450.1765
332.6175, 452.5834
333.0996, 454.2898
333.5817, 455.0528
334.0638, 455.9258
334.5460, 457.8090
335.0281, 459.9674
335.5102, 461.5975
335.9923, 462.5198
336.4744, 462.8165
336.9565, 462.4678
337.4387, 461.4456
337.9208, 460.2528
338.4029, 458.7768
338.8850, 457.4058
339.3671, 456.5278
339.8492, 456.1857
340.3314, 456.1081
340.8135, 456.0434
341.2956, 456.0400
341.7777, 456.4586
342.2598, 457.5807
342.7419, 458.8350
343.2241, 459.6989
343.7062, 460.2442
344.1883, 460.8048
344.6704, 461.6904
345.1525, 462.6781
345.6346, 463.3272
346.1168, 463.6444
346.5989, 463.5278
347.0810, 462.7509
347.5631, 461.4973
348.0452, 460.0195
348.5273, 458.6408
349.0095, 456.8338
349.4916, 453.6824
349.9737, 449.1651
350.4558, 444.9037
350.9379, 441.9176
351.4200, 439.5005
351.9022, 436.5321
352.3843, 432.9223
352.8664, 428.9086
353.3485, 424.3888
353.8306, 419.5387
354.3127, 415.0766
354.7949, 411.2310
355.2770, 407.7690
355.7591, 404.4288
356.2412, 401.2159
356.7233, 397.9380
357.2054, 394.6137
357.6876, 391.1534
358.1697, 387.2018
358.6518, 382.6003
359.1339, 378.3148
359.6160, 375.3700
360.0981, 373.5506
360.5803, 371.7540
361.0624, 369.8330
361.5445, 367.9111
362.0266, 365.9650
362.5087, 364.0434
362.9908, 362.5831
363.4730, 362.0360
363.9551, 362.0002
364.4372, 361.1905
364.9193, 359.1019
365.4014, 357.1548
365.8835, 355.8130
366.3657, 355.0401
366.8478, 354.9101
367.3299, 355.5534
367.8120, 356.4111
368.2941, 356.4760
368.7762, 355.4469
369.2584, 355.0023
369.7405, 355.8533
370.2226, 357.1094
370.7047, 357.9471
371.1868, 358.2579
371.6689, 358.2974
372.1511, 358.2410
372.6332, 358.0857
373.1153, 358.1327
373.5974, 358.6282
374.0795, 359.0674
374.5616, 359.0672
375.0438, 358.8063
375.5259, 358.7649
376.0080, 359.2189
376.4901, 360.0432
376.9722, 360.8026
377.4543, 361.2739
377.9365, 361.9614
378.4186, 363.1371
378.9007, 364.4534
379.3828, 365.3681
379.8649, 365.7755
380.3470, 366.2692
380.8292, 367.7553
381.3113, 370.8236
381.7934, 373.1288
382.2755, 374.1518
382.7576, 374.9738
383.2397, 376.2064
383.7219, 377.8121
384.2040, 379.3954
384.6861, 380.6167
385.1682, 381.5172
385.6503, 382.7029
386.1324, 384.5730
386.6146, 386.2965
387.0967, 387.4458
387.5788, 388.4536
388.0609, 389.9658
388.5430, 392.2484
389.0251, 394.8755
389.5073, 396.9230
389.9894, 397.8108
390.4715, 399.3602
390.9536, 402.0175
391.4357, 404.9852
391.9178, 407.8541
392.4000, 410.5366
392.8821, 413.0928
393.3642, 415.4625
393.8463, 417.6268
394.3284, 420.3775
394.8105, 424.0295
395.2927, 427.9896
395.7748, 432.0858
396.2569, 436.3236
396.7390, 440.7982
397.2211, 445.6025
397.7032, 450.5727
398.1854, 455.3342
398.6675, 459.9232
399.1496, 464.2475
399.6317, 467.9924
400.1138, 471.6718
400.5959, 475.6663
401.0780, 480.0334
401.5602, 484.5808
402.0423, 489.2814
402.5244, 494.0775
403.0065, 498.3036
403.4886, 501.2743
403.9707, 504.5490
404.4529, 509.4686
404.9350, 515.5382
405.4171, 521.4313
405.8992, 526.4159
406.3813, 530.9523
406.8634, 535.6074
407.3456, 540.3282
407.8277, 545.7407
408.3098, 552.3966
408.7919, 559.9470
409.2740, 567.7565
409.7561, 575.9542
410.2383, 584.0424
410.7204, 591.7687
411.2025, 599.1967
411.6846, 606.5695
412.1667, 613.9646
412.6488, 621.3792
413.1310, 628.8094
413.6131, 636.2879
414.0952, 643.8065
414.5773, 651.3130
415.0594, 658.9025
415.5415, 666.7821
416.0237, 674.8876
416.5058, 682.8700
416.9879, 690.8608
417.4700, 698.4066
417.9521, 703.0940
418.4342, 704.8079
418.9164, 704.3912
419.3985, 701.0112
419.8806, 695.9421
420.3627, 691.2128
420.8448, 687.4520
421.3269, 683.5909
421.8091, 678.0349
422.2912, 670.3893
422.7733, 661.9636
423.2554, 652.5298
423.7375, 642.6190
424.2196, 632.4686
424.7018, 622.1752
425.1839, 611.8104
425.6660, 601.3781
426.1481, 591.0028
426.6302, 581.1987
427.1123, 571.7391
427.5945, 563.3496
428.0766, 556.7445
428.5587, 550.9413
429.0408, 544.7784
429.5229, 537.9694
430.0050, 531.2125
430.4872, 525.4685
430.9693, 520.8757
431.4514, 516.8275
431.9335, 513.8746
432.4156, 510.9706
432.8977, 507.5258
433.3799, 503.7740
433.8620, 500.2907
434.3441, 497.4040
434.8262, 495.0807
435.3083, 493.4516
435.7904, 492.9823
436.2726, 491.9213
436.7547, 488.7582
437.2368, 485.1729
437.7189, 482.7575
438.2010, 481.8578
438.6831, 481.3210
439.1653, 480.0421
439.6474, 478.2240
440.1295, 476.9773
440.6116, 476.5563
441.0937, 476.5822
441.5758, 476.7581
442.0580, 477.1000
442.5401, 477.7379
443.0222, 478.7283
443.5043, 480.0148
443.9864, 481.5697
444.4685, 483.3814
444.9507, 485.4146
445.4328, 487.6599
445.9149, 490.1169
446.3970, 492.7446
446.8791, 495.4418
447.3612, 498.5051
447.8434, 502.3099
448.3255, 506.3918
448.8076, 510.0311
449.2897, 513.1636
449.7718, 516.5255
450.2539, 520.8781
450.7361, 526.3023
451.2182, 531.4084
451.7003, 535.1660
452.1824, 539.7659
452.6645, 546.0244
453.1466, 553.6823
453.6288, 562.3970
454.1109, 572.0448
454.5930, 582.1539
455.0751, 591.6795
455.5572, 598.9251
456.0393, 609.0717
456.5215, 623.2791
457.0036, 638.8687
457.4857, 654.2850
457.9678, 669.6024
458.4499, 685.9633
458.9320, 704.3494
459.4142, 724.4653
459.8963, 744.9158
460.3784, 766.4072
460.8605, 786.8356
461.3426, 806.8395
461.8247, 825.2372
462.3069, 841.1984
462.7890, 854.5117
463.2711, 864.7306
463.7532, 872.0838
464.2353, 876.4206
464.7174, 874.5880
465.1996, 865.1743
465.6817, 850.9287
466.1638, 832.8192
466.6459, 811.7330
467.1280, 789.5721
467.6101, 766.2100
468.0923, 742.8008
468.5744, 720.3650
469.0565, 698.8235
469.5386, 679.1357
470.0207, 661.5483
470.5028, 646.1646
470.9850, 633.5320
471.4671, 623.6073
471.9492, 615.1495
472.4313, 608.1865
472.9134, 602.2937
473.3955, 597.0177
473.8777, 592.3257
474.3598, 588.3709
474.8419, 585.2954
475.3240, 583.0842
475.8061, 581.6700
476.2882, 580.8171
476.7704, 580.9235
477.2525, 582.8727
477.7346, 585.4857
478.2167, 587.0643
478.6988, 587.2792
479.1809, 587.5640
479.6631, 589.8622
480.1452, 594.5695
480.6273, 599.2076
481.1094, 603.4647
481.5915, 607.9489
482.0736, 612.9498
482.5558, 618.2982
483.0379, 623.7145
483.5200, 629.0975
484.0021, 634.4435
484.4842, 639.4440
484.9663, 643.7015
485.4485, 649.5992
485.9306, 659.4632
486.4127, 669.5427
486.8948, 677.0937
487.3769, 682.4304
487.8590, 687.7854
488.3412, 694.4724
488.8233, 701.9961
489.3054, 709.4810
489.7875, 716.8914
490.2696, 724.1540
490.7517, 731.2592
491.2339, 738.1010
491.7160, 744.7354
492.1981, 751.3389
492.6802, 757.1229
493.1623, 761.4205
493.6444, 764.7623
494.1266, 768.0598
494.6087, 771.4623
495.0908, 774.2304
495.5729, 775.7805
496.0550, 776.0852
496.5371, 775.2039
497.0193, 773.1552
497.5014, 770.1200
497.9835, 765.8563
498.4656, 760.7314
498.9477, 755.2613
499.4298, 749.6066
499.9120, 743.4728
500.3941, 736.3383
500.8762, 727.6918
501.3583, 719.8847
501.8404, 714.3674
502.3225, 708.2318
502.8047, 700.1048
503.2868, 690.6497
503.7689, 681.2562
504.2510, 672.5224
504.7331, 664.2514
505.2152, 656.1282
505.6974, 648.1671
506.1795, 640.1293
506.6616, 631.7632
507.1437, 623.5513
507.6258, 615.9304
508.1079, 608.7770
508.5901, 601.7202
509.0722, 594.3963
509.5543, 587.1504
510.0364, 580.5125
510.5185, 574.4894
511.0006, 568.5131
511.4828, 562.2239
511.9649, 555.9443
512.4470, 550.4310
512.9291, 545.8190
513.4112, 541.3007
513.8933, 536.4613
514.3754, 531.7750
514.8575, 528.1378
515.3397, 525.3920
515.8218, 522.1494
516.3039, 517.2455
516.7860, 510.9737
517.2681, 505.5412
517.7502, 501.0470
518.2324, 497.3341
518.7145, 494.8951
519.1966, 492.8987
519.6787, 490.6072
520.1608, 487.8748
520.6429, 484.9717
521.1251, 482.2341
521.6072, 479.6270
522.0893, 476.3804
522.5714, 471.5091
523.0535, 467.5915
523.5356, 466.1496
524.0178, 465.7110
524.4999, 464.5067
524.9820, 462.0297
525.4641, 459.4045
525.9462, 457.8289
526.4283, 457.0316
526.9105, 455.6118
527.3926, 453.1685
527.8747, 450.7630
528.3568, 449.2835
528.8389, 448.5304
529.3210, 447.7841
529.8032, 446.9920
530.2853, 446.1825
530.7674, 445.5151
531.2495, 444.8207
531.7316, 443.6352
532.2137, 441.8097
532.6959, 439.9225
533.1780, 438.6531
533.6601, 438.0195
534.1422, 437.9371
534.6243, 439.4579
535.1064, 440.2983
535.5886, 438.9622
536.0707, 436.5726
536.5528, 434.9035
537.0349, 434.6607
537.5170, 435.1186
537.9991, 435.1445
538.4813, 434.6335
538.9634, 434.2372
539.4455, 434.0296
539.9276, 433.8980
540.4097, 433.7969
540.8918, 433.7330
541.3740, 433.7581
541.8561, 433.9803
542.3382, 434.1134
542.8203, 433.6622
543.3024, 432.7061
543.7845, 432.0348
544.2667, 431.8983
544.7488, 431.9881
545.2309, 432.0262
545.7130, 432.0129
546.1951, 431.9132
546.6772, 431.5745
547.1594, 431.2842
547.6415, 431.3136
548.1236, 431.5397
548.6057, 431.6107
549.0878, 431.3775
549.5699, 431.0663
550.0521, 431.0478
550.5342, 431.3882
551.0163, 431.8422
551.4984, 432.5275
551.9805, 433.1873
552.4626, 433.7096
552.9448, 434.1263
553.4269, 434.5648
553.9090, 435.0997
554.3911, 435.5259
554.8732, 435.4612
555.3553, 434.8547
555.8375, 434.0411
556.3196, 432.5683
556.8017, 431.4889
557.2838, 431.6102
557.7659, 432.6151
558.2480, 433.6033
558.7302, 434.1130
559.2123, 434.6414
559.6944, 435.9945
560.1765, 437.8964
560.6586, 439.0347
561.1407, 438.9328
561.6229, 438.1993
562.1050, 437.4903
562.5871, 436.7961
563.0692, 436.3120
563.5513, 436.0672
564.0334, 436.0105
564.5156, 436.1244
564.9977, 436.4063
565.4798, 436.9181
565.9619, 437.6759
566.4440, 438.4844
566.9261, 439.0328
567.4083, 439.2760
567.8904, 439.4361
568.3725, 439.5450
568.8546, 439.5235
569.3367, 438.7304
569.8188, 437.9442
570.3010, 438.7158
570.7831, 441.9064
571.2652, 445.3024
571.7473, 445.9912
572.2294, 444.3267
572.7115, 443.2424
573.1937, 443.3400
573.6758, 443.7489
574.1579, 443.7375
574.6400, 443.4366
575.1221, 443.3615
575.6042, 443.6942
576.0864, 444.1112
576.5685, 444.6059
577.0506, 445.0354
577.5327, 445.0532
578.0148, 444.6020
578.4969, 444.1124
578.9791, 443.9958
579.4612, 444.2443
579.9433, 445.0901
580.4254, 447.6527
580.9075, 449.4922
581.3896, 449.7947
581.8718, 449.3525
582.3539, 448.9249
582.8360, 448.7276
583.3181, 448.7218
583.8002, 448.7730
584.2823, 448.9396
584.7645, 449.7966
585.2466, 451.6863
585.7287, 453.3022
586.2108, 454.0305
586.6929, 454.0652
587.1750, 453.4428
587.6572, 451.8595
588.1393, 450.9553
588.6214, 452.1263
589.1035, 454.0728
589.5856, 455.0130
590.0677, 454.8533
590.5499, 454.5260
591.0320, 454.5984
591.5141, 455.0142
591.9962, 455.5674
592.4783, 456.3846
592.9604, 457.1664
593.4426, 458.1295
593.9247, 458.8827
594.4068, 459.0870
594.8889, 458.8236
595.3710, 458.3897
595.8531, 457.9204
596.3353, 457.5259
596.8174, 457.3864
597.2995, 457.4449
597.7816, 458.1947
598.2637, 460.5103
598.7458, 462.7166
599.2280, 463.1268
599.7101, 462.0795
600.1922, 461.4392
600.6743, 462.0170
601.1564, 463.0304
601.6385, 463.9122
602.1207, 464.6939
602.6028, 465.5666
603.0849, 466.6108
603.5670, 467.4793
604.0491, 467.6438
604.5313, 466.9081
605.0134, 466.6881
605.4955, 467.2113
605.9776, 467.9128
606.4597, 468.9088
606.9418, 469.8560
607.4240, 470.2376
607.9061, 469.9440
608.3882, 469.4745
608.8703, 469.3774
609.3524, 469.6304
609.8345, 469.9114
610.3167, 470.1973
610.7988, 470.5707
611.2809, 471.1454
611.7630, 471.8042
612.2451, 472.4314
612.7272, 473.0583
613.2094, 473.4609
613.6915, 473.2319
614.1736, 472.8922
614.6557, 473.2459
615.1378, 474.2360
615.6199, 475.0322
616.1021, 475.0832
616.5842, 474.7134
617.0663, 474.8556
617.5484, 475.9269
618.0305, 476.8141
618.5126, 477.4828
618.9948, 478.0125
619.4769, 478.3686
619.9590, 478.6243
620.4411, 478.9033
620.9232, 479.2549
621.4053, 479.7131
621.8875, 480.4695
622.3696, 481.5123
622.8517, 482.0837
623.3338, 481.8706
623.8159, 481.5217
624.2980, 481.5186
624.7802, 481.8122
625.2623, 482.2708
625.7444, 483.0875
626.2265, 483.8050
626.7086, 484.1148
627.1907, 484.2438
627.6729, 484.4946
628.1550, 484.9298
628.6371, 485.5120
629.1192, 486.2684
629.6013, 487.1208
630.0834, 487.3356
630.5656, 486.0451
631.0477, 485.5805
631.5298, 486.7864
632.0119, 488.4326
632.4940, 489.7601
632.9761, 490.6698
633.4583, 491.2626
633.9404, 491.3669
634.4225, 491.3839
634.9046, 492.1707
635.3867, 493.6403
635.8688, 494.5463
636.3510, 494.3645
636.8331, 493.8113
637.3152, 493.7045
637.7973, 494.0912
638.2794, 494.5946
638.7615, 495.1881
639.2437, 495.9257
639.7258, 497.0571
640.2079, 498.2564
640.6900, 498.9864
641.1721, 499.1578
641.6542, 499.2381
642.1364, 499.7547
642.6185, 500.6634
643.1006, 501.3656
643.5827, 501.7255
644.0648, 502.1724
644.5469, 503.1090
645.0291, 504.0363
645.5112, 504.3251
645.9933, 503.9466
646.4754, 503.9438
646.9575, 505.4365
647.4396, 507.0696
647.9218, 507.0033
648.4039, 505.6551
648.8860, 505.0068
649.3681, 505.9029
649.8502, 507.4717
650.3323, 508.3870
650.8145, 508.4593
651.2966, 508.7477
651.7787, 509.5703
652.2608, 510.2304
652.7429, 510.3729
653.2250, 510.2956
653.7072, 510.3552
654.1893, 510.6480
654.6714, 511.0743
655.1535, 511.5098
655.6356, 512.0031
656.1177, 512.7823
656.5999, 513.8905
657.0820, 514.9882
657.5641, 516.0289
658.0462, 516.8689
658.5283, 517.1014
659.0104, 516.5541
659.4926, 516.3960
659.9747, 516.6787
660.4568, 517.4984
660.9389, 519.5204
661.4210, 522.0180
661.9031, 523.4146
662.3853, 523.1290
662.8674, 522.2893
663.3495, 522.3658
663.8316, 523.3744
664.3137, 525.2168
664.7958, 528.7004
665.2780, 531.5336
665.7601, 532.0739
666.2422, 531.7227
666.7243, 532.1204
667.2064, 533.5382
667.6885, 534.8597
668.1707, 535.4671
668.6528, 535.7762
669.1349, 536.1894
669.6170, 536.7408
670.0991, 537.3980
670.5812, 538.1382
671.0634, 539.0313
671.5455, 540.2158
672.0276, 541.7402
672.5097, 543.3579
672.9918, 545.0124
673.4739, 546.8278
673.9561, 549.2313
674.4382, 551.6307
674.9203, 553.2426
675.4024, 553.8648
675.8845, 554.0643
676.3666, 553.7875
676.8488, 553.5481
677.3309, 554.8054
677.8130, 557.5844
678.2951, 559.8829
678.7772, 560.4886
679.2593, 560.6288
679.7415, 562.7571
680.2236, 568.0938
680.7057, 571.5874
681.1878, 572.0772
681.6699, 572.0278
682.1520, 572.2991
682.6342, 572.8549
683.1163, 573.5749
683.5984, 574.4064
684.0805, 575.1732
684.5626, 575.7509
685.0447, 576.1176
685.5269, 576.1326
686.0090, 575.7587
686.4911, 575.2194
686.9732, 574.5165
687.4553, 573.7906
687.9374, 573.3525
688.4196, 573.2708
688.9017, 572.8765
689.3838, 571.4977
689.8659, 570.3553
690.3480, 570.2645
690.8301, 570.8995
691.3123, 571.6636
691.7944, 572.3616
692.2765, 573.1777
692.7586, 574.4276
693.2407, 576.0541
693.7228, 577.1830
694.2050, 577.6516
694.6871, 578.0770
695.1692, 578.6979
695.6513, 579.3547
696.1334, 579.8625
696.6155, 580.2201
697.0977, 580.6053
697.5798, 581.2597
698.0619, 581.7843
698.5440, 581.7573
699.0261, 581.4089
699.5082, 581.1964
699.9904, 581.2562
700.4725, 581.4792
700.9546, 581.7850
701.4367, 582.1565
701.9188, 582.2212
702.4009, 581.4163
702.8831, 581.4373
703.3652, 583.6303
703.8473, 586.1194
704.3294, 587.5128
704.8115, 587.8688
705.2936, 588.0638
705.7758, 588.3320
706.2579, 588.6713
706.7400, 589.1257
707.2221, 589.6422
707.7042, 590.0749
708.1863, 590.3973
708.6685, 590.7632
709.1505, 591.2833
709.6326, 591.9818
710.1147, 593.0013
710.5969, 593.9737
711.0790, 595.9719
711.5611, 600.4021
712.0432, 604.7455
712.5253, 607.6643
713.0074, 609.1208
713.4896, 609.2167
713.9717, 607.3427
714.4538, 605.3464
714.9359, 604.9246
715.4180, 605.6104
715.9001, 606.4515
716.3823, 607.2748
716.8644, 608.0811
717.3465, 608.9220
717.8286, 609.6727
718.3107, 609.8691
718.7928, 609.3199
719.2750, 608.5601
719.7571, 607.1182
720.2392, 605.9675
720.7213, 606.1565
721.2034, 606.8667
721.6855, 606.4064
722.1677, 604.0524
722.6498, 601.3947
723.1319, 599.5338
723.6140, 598.3843
724.0961, 597.9507
724.5782, 598.1702
725.0604, 598.4537
725.5425, 598.4777
726.0246, 598.4052
726.5067, 598.6351
726.9888, 599.5342
727.4709, 599.6090
727.9531, 597.4648
728.4352, 596.1088
728.9173, 597.2012
729.3994, 599.3453
729.8815, 600.6063
730.3636, 600.5968
730.8458, 600.7585
731.3279, 602.5721
731.8100, 604.9594
732.2921, 605.8439
732.7742, 605.4872
733.2563, 605.9897
733.7385, 608.2374
734.2206, 610.7319
734.7027, 611.4147
735.1848, 610.0888
735.6669, 609.9309
736.1490, 612.1586
736.6312, 614.0135
737.1133, 615.2955
737.5954, 615.8693
738.0775, 615.0594
738.5596, 613.2548
739.0417, 612.3190
739.5239, 613.4572
740.0060, 615.6078
740.4881, 617.9189
740.9702, 620.2314
741.4523, 622.1212
741.9344, 623.4956
742.4166, 624.0393
742.8987, 623.3198
743.3808, 621.6743
743.8629, 620.8002
744.3450, 621.0371
744.8271, 621.4397
745.3093, 622.0999
745.7914, 622.7551
746.2735, 623.0991
746.7556, 623.3614
747.2377, 624.0356
747.7198, 625.3163
748.2020, 626.8541
748.6841, 628.6808
749.1662, 630.4719
749.6483, 631.6162
750.1304, 632.1243
750.6125, 632.3243
751.0947, 632.3430
751.5768, 632.3939
752.0589, 632.8853
752.5410, 633.9208
753.0231, 634.9290
753.5052, 635.8715
753.9874, 636.8436
754.4695, 637.8020
754.9516, 638.8452
755.4337, 640.1674
755.9158, 641.7647
756.3979, 643.1713
756.8801, 643.6899
757.3622, 644.3287
757.8443, 646.1316
758.3264, 648.8083
758.8085, 651.9566
759.2906, 655.3514
759.7728, 658.0781
760.2549, 659.1288
760.7370, 658.7719
761.2191, 658.6019
761.7012, 658.5784
762.1833, 658.8572
762.6655, 659.4903
763.1476, 660.4283
763.6297, 661.6164
764.1118, 663.0685
764.5939, 664.8646
765.0760, 667.1776
765.5582, 669.5123
766.0403, 671.4990
766.5224, 673.4659
767.0045, 676.0097
767.4866, 678.9300
767.9688, 681.2883
768.4509, 682.5948
768.9330, 683.5903
769.4151, 685.5605
769.8972, 688.5551
770.3793, 691.4020
770.8615, 694.1281
771.3436, 696.5645
771.8257, 698.8777
772.3078, 700.6500
772.7899, 701.0410
773.2720, 699.9145
773.7542, 699.2756
774.2363, 700.5421
774.7184, 701.1519
775.2005, 699.0879
775.6826, 695.9633
776.1647, 693.9916
776.6469, 693.4803
777.1290, 693.2340
777.6111, 692.3436
778.0932, 691.0862
778.5753, 690.1100
779.0574, 689.3995
779.5396, 688.5070
780.0217, 687.1962
780.5038, 686.2582
780.9859, 686.5163
781.4680, 687.6009
781.9501, 687.9017
782.4323, 687.1656
782.9144, 686.0729
783.3965, 684.0387
783.8786, 682.2643
784.3607, 681.5027
784.8428, 681.4614
785.3250, 681.5763
785.8071, 681.6702
786.2892, 681.8946
786.7713, 682.5154
787.2534, 683.2957
787.7355, 683.7365
788.2177, 683.8807
788.6998, 684.1245
789.1819, 684.6116
789.6640, 685.2655
790.1461, 686.0159
790.6282, 686.8624
791.1104, 687.6526
791.5925, 688.6732
792.0746, 689.1378
792.5567, 687.8386
793.0388, 686.8824
793.5209, 688.2343
794.0031, 691.2376
794.4852, 693.4924
794.9673, 694.1057
795.4494, 694.2004
795.9315, 693.9664
796.4136, 693.9067
796.8958, 695.0412
797.3779, 697.0782
797.8600, 698.5451
798.3421, 698.6655
798.8242, 698.1538
799.3063, 698.2892
799.7885, 699.1140
800.2706, 698.9423
800.7527, 697.0695
801.2348, 696.3762
801.7169, 698.4882
802.1990, 701.9103
802.6812, 704.9890
803.1633, 707.7599
803.6454, 709.2823
804.1275, 708.0692
804.6096, 707.3046
805.0917, 708.7391
805.5739, 710.8119
806.0560, 712.0646
806.5381, 712.3097
807.0202, 711.7631
807.5023, 710.2330
807.9844, 708.9475
808.4666, 710.2438
808.9487, 713.3072
809.4308, 714.7577
809.9129, 714.1812
810.3950, 713.3124
810.8771, 713.0050
811.3593, 713.3471
811.8414, 714.6335
812.3235, 717.3123
812.8056, 719.2584
813.2877, 720.0121
813.7698, 720.5862
814.2520, 721.0507
814.7341, 721.5981
815.2162, 722.3365
815.6983, 723.3080
816.1804, 724.7156
816.6625, 727.7128
817.1447, 730.0773
817.6268, 729.4294
818.1089, 727.3891
818.5910, 726.4811
819.0731, 726.9987
819.5552, 727.8625
820.0374, 728.3595
820.5195, 728.8420
821.0016, 730.3737
821.4837, 733.0194
821.9658, 733.9846
822.4479, 732.3394
822.9301, 731.5176
823.4122, 733.7949
823.8943, 737.4425
824.3764, 739.4580
824.8585, 739.5765
825.3406, 739.4412
825.8228, 738.1486
826.3049, 737.7640
826.7870, 739.6582
827.2691, 742.3693
827.7512, 744.4114
828.2333, 745.6788
828.7155, 746.9143
829.1976, 748.6927
829.6797, 750.2934
830.1618, 750.7583
830.6439, 750.4481
831.1260, 750.0521
831.6082, 749.7195
832.0903, 749.7590
832.5724, 750.3520
833.0545, 751.4025
833.5366, 752.8239
834.0187, 754.7413
834.5009, 756.1387
834.9830, 756.8677
835.4651, 757.3663
835.9472, 757.7494
836.4293, 757.9984
836.9114, 757.8583
837.3936, 757.3910
837.8757, 757.7540
838.3578, 760.1639
838.8399, 762.1451
839.3220, 762.2245
839.8041, 761.8478
840.2863, 762.5499
840.7684, 764.1854
841.2505, 765.6740
841.7326, 766.4689
842.2147, 767.1533
842.6968, 768.5994
843.1790, 770.4592
843.6611, 771.6996
844.1432, 772.2963
844.6253, 772.8918
845.1074, 773.7923
845.5895, 774.5424
846.0717, 774.4189
846.5538, 773.4119
847.0359, 773.2350
847.5180, 774.0360
848.0001, 775.3953
848.4822, 778.2133
848.9644, 780.6390
849.4465, 780.9579
849.9286, 779.8716
850.4107, 779.4977
850.8928, 780.2332
851.3749, 781.5688
851.8571, 783.9455
852.3392, 786.3124
852.8213, 787.5911
853.3034, 788.2379
853.7855, 789.5439
854.2676, 791.8104
854.7498, 793.5079
855.2319, 792.3075
855.7140, 789.9528
856.1961, 791.1989
856.6782, 795.3821
857.1603, 797.5352
857.6425, 796.3287
858.1246, 794.5094
858.6067, 794.2634
859.0888, 795.3177
859.5709, 796.7308
860.0530, 798.7936
860.5352, 800.4677
861.0173, 801.8660
861.4994, 802.6606
861.9815, 801.8932
862.4636, 800.8727
862.9457, 801.6674
863.4279, 804.5612
863.9100, 806.5772
864.3921, 805.8060
864.8742, 805.3048
865.3563, 807.2504
865.8384, 810.0127
866.3206, 811.5370
866.8027, 811.7870
867.2848, 811.9740
867.7669, 812.7188
868.2490, 813.9467
868.7311, 815.8594
869.2133, 818.1291
869.6954, 819.8656
870.1775, 821.0021
870.6596, 821.6112
871.1417, 821.6779
871.6238, 821.6442
872.1060, 822.1898
872.5881, 823.3084
873.0702, 823.8483
873.5523, 823.3691
874.0344, 823.4826
874.5165, 825.0918
874.9987, 826.7776
875.4808, 827.0921
875.9629, 826.5742
876.4450, 826.8826
876.9271, 828.6473
877.4092, 830.0853
877.8914, 830.6171
878.3735, 830.9562
878.8556, 831.6556
879.3377, 832.4116
879.8198, 832.4659
880.3019, 831.7855
880.7841, 831.6417
881.2662, 833.3851
881.7483, 835.6626
882.2304, 836.9137
882.7125, 837.3608
883.1946, 837.1237
883.6768, 836.4490
884.1589, 836.7673
884.6410, 839.0874
885.1231, 842.3638
885.6052, 844.5436
886.0873, 845.6080
886.5695, 846.4365
887.0516, 847.0286
887.5337, 847.3934
888.0158, 847.3771
888.4979, 847.3892
888.9800, 848.0045
889.4622, 849.2219
889.9443, 850.0797
890.4264, 849.7346
890.9085, 850.2511
891.3906, 852.7624
891.8727, 855.2743
892.3549, 856.5443
892.8370, 856.9169
893.3191, 857.1149
893.8012, 857.2632
894.2833, 857.5345
894.7654, 857.8151
895.2476, 858.4409
895.7297, 860.0306
896.2118, 862.0286
896.6939, 863.4365
897.1760, 864.1416
897.6581, 864.7877
898.1403, 865.8187
898.6224, 867.0515
899.1045, 868.3741
899.5866, 869.6641
900.0687, 870.0900
900.5508, 869.6248
901.0330, 870.0252
901.5151, 872.1946
901.9972, 875.2850
902.4793, 878.2903
902.9614, 881.2131
903.4435, 881.9250
903.9257, 879.1755
904.4078, 877.5314
904.8899, 878.4487
905.3720, 880.0637
905.8541, 880.8424
906.3362, 881.2134
906.8184, 882.5817
907.3005, 885.7584
907.7826, 887.9838
908.2647, 887.9202
908.7468, 887.9604
909.2289, 889.3280
909.7111, 891.4219
910.1932, 893.6581
910.6753, 895.8262
911.1574, 897.5033
911.6395, 897.8881
912.1216, 898.5936
912.6038, 901.4664
913.0859, 905.1491
913.5680, 907.9341
914.0501, 909.6570
914.5322, 910.3823
915.0143, 910.1698
915.4965, 910.1854
915.9786, 911.9487
916.4607, 915.0737
916.9428, 918.4845
917.4249, 922.1139
917.9070, 924.7469
918.3892, 926.0278
918.8713, 926.9930
919.3534, 928.4007
919.8355, 930.2131
920.3176, 932.3250
920.7997, 934.8797
921.2819, 937.3048
921.7640, 939.6902
922.2461, 941.7211
922.7282, 942.7152
923.2103, 943.7390
923.6924, 946.5010
924.1746, 950.8581
924.6567, 954.0541
925.1388, 955.2806
925.6209, 956.2923
926.1030, 957.0490
926.5851, 958.0024
927.0673, 959.3716
927.5494, 961.1704
928.0315, 963.5931
928.5136, 966.7015
928.9957, 969.3845
929.4778, 970.8788
929.9600, 971.8971
930.4421, 972.9348
930.9242, 973.9513
931.4063, 974.8024
931.8884, 975.5328
932.3705, 976.4130
932.8527, 977.6333
933.3348, 978.8394
933.8169, 979.7072
934.2990, 980.1737
934.7811, 979.7113
935.2632, 978.5181
935.7454, 978.0500
936.2275, 978.7867
936.7096, 980.1493
937.1917, 981.6879
937.6738, 983.2192
938.1559, 983.9664
938.6381, 983.8212
939.1202, 983.6304
939.6023, 983.3082
940.0844, 983.5233
940.5665, 984.7919
941.0486, 986.5382
941.5308, 987.7780
942.0129, 988.4066
942.4950, 989.7295
942.9771, 993.1824
943.4592, 995.1458
943.9413, 993.2874
944.4235, 991.6302
944.9056, 993.2794
945.3877, 996.8397
945.8698, 998.9579
946.3519, 998.6576
946.8340, 999.4836
947.3162, 1003.139
947.7983, 1007.226
948.2804, 1010.767
948.7625, 1013.870
949.2446, 1016.709
949.7267, 1019.326
950.2089, 1021.738
950.6910, 1023.948
951.1731, 1025.977
951.6552, 1027.452
952.1373, 1029.033
952.6194, 1032.094
953.1016, 1035.853
953.5837, 1038.096
954.0658, 1038.380
954.5479, 1038.651
955.0300, 1040.661
955.5121, 1043.300
955.9943, 1044.354
956.4763, 1044.236
956.9584, 1044.552
957.4406, 1045.470
957.9227, 1046.667
958.4048, 1048.018
958.8869, 1049.307
959.3690, 1050.227
959.8511, 1050.821
960.3333, 1051.492
960.8154, 1052.279
961.2975, 1052.682
961.7796, 1052.269
962.2617, 1052.732
962.7438, 1055.708
963.2260, 1059.608
963.7081, 1060.863
964.1902, 1058.795
964.6723, 1057.697
965.1544, 1057.460
965.6365, 1058.412
966.1187, 1061.680
966.6008, 1065.174
967.0829, 1067.245
967.5650, 1068.275
968.0471, 1069.475
968.5292, 1071.253
969.0114, 1072.324
969.4935, 1071.456
969.9756, 1071.103
970.4577, 1072.737
970.9398, 1075.176
971.4219, 1076.819
971.9041, 1077.893
972.3862, 1080.365
972.8683, 1086.092
973.3504, 1090.594
973.8325, 1090.475
974.3146, 1089.143
974.7968, 1089.431
975.2789, 1090.846
975.7610, 1092.080
976.2431, 1092.884
976.7252, 1093.915
977.2073, 1095.557
977.6895, 1097.688
978.1716, 1100.262
978.6537, 1103.185
979.1358, 1106.417
979.6179, 1109.886
980.1000, 1113.281
980.5822, 1116.533
981.0643, 1120.214
981.5464, 1124.906
982.0285, 1130.400
982.5106, 1135.927
982.9927, 1141.679
983.4749, 1149.131
983.9570, 1158.306
984.4391, 1166.719
984.9212, 1172.993
985.4033, 1178.424
985.8854, 1185.469
986.3676, 1193.489
986.8497, 1196.221
987.3318, 1193.258
987.8139, 1189.752
988.2960, 1186.758
988.7781, 1182.947
989.2603, 1177.281
989.7424, 1170.458
990.2245, 1163.716
990.7066, 1156.926
991.1887, 1151.181
991.6708, 1146.260
992.1530, 1142.881
992.6351, 1141.581
993.1172, 1141.301
993.5993, 1141.301
994.0814, 1141.672
994.5635, 1142.853
995.0457, 1145.733
995.5278, 1146.891
996.0099, 1144.526
996.4920, 1142.795
996.9741, 1143.061
997.4562, 1144.090
997.9384, 1144.457
998.4205, 1144.674
998.9026, 1146.963
999.3847, 1153.448
999.8668, 1157.178
1000.349, 1154.557
1000.831, 1151.540
1001.313, 1150.653
1001.795, 1151.099
1002.277, 1152.434
1002.760, 1154.178
1003.242, 1154.830
1003.724, 1153.229
1004.206, 1152.246
1004.688, 1153.883
1005.170, 1155.976
1005.652, 1156.964
1006.134, 1157.243
1006.616, 1157.287
1007.099, 1157.372
1007.581, 1158.197
1008.063, 1160.492
1008.545, 1162.670
1009.027, 1163.071
1009.509, 1162.955
1009.991, 1163.746
1010.473, 1165.273
1010.956, 1167.135
1011.438, 1169.091
1011.920, 1170.531
1012.402, 1170.938
1012.884, 1170.899
1013.366, 1171.119
1013.848, 1171.416
1014.330, 1171.390
1014.812, 1171.111
1015.295, 1170.888
1015.777, 1170.828
1016.259, 1170.859
1016.741, 1170.770
1017.223, 1171.066
1017.705, 1173.084
1018.187, 1176.261
1018.669, 1178.852
1019.151, 1180.627
1019.634, 1180.881
1020.116, 1179.403
1020.598, 1178.061
1021.080, 1178.788
1021.562, 1181.044
1022.044, 1183.596
1022.526, 1186.357
1023.008, 1188.323
1023.491, 1189.398
1023.973, 1189.687
1024.455, 1189.086
1024.937, 1189.132
1025.419, 1191.790
1025.901, 1196.410
1026.383, 1200.070
1026.865, 1202.715
1027.348, 1204.967
1027.830, 1206.721
1028.312, 1209.143
1028.794, 1212.793
1029.276, 1217.281
1029.758, 1222.226
1030.240, 1227.529
1030.722, 1232.221
1031.204, 1236.310
1031.687, 1239.475
1032.169, 1241.074
1032.651, 1243.588
1033.133, 1248.339
1033.615, 1254.240
1034.097, 1259.761
1034.579, 1265.008
1035.061, 1271.423
1035.543, 1278.545
1036.026, 1288.206
1036.508, 1302.111
1036.990, 1315.539
1037.472, 1325.019
1037.954, 1334.145
1038.436, 1347.806
1038.918, 1365.831
1039.400, 1384.181
1039.883, 1402.883
1040.365, 1421.700
1040.847, 1442.985
1041.329, 1461.210
1041.811, 1473.407
1042.293, 1481.774
1042.775, 1488.926
1043.257, 1494.839
1043.740, 1499.018
1044.222, 1499.642
1044.704, 1501.371
1045.186, 1501.756
1045.668, 1506.427
1046.150, 1518.985
1046.632, 1536.426
1047.114, 1554.950
1047.596, 1574.624
1048.078, 1598.087
1048.561, 1625.694
1049.043, 1656.867
1049.525, 1694.094
1050.007, 1731.840
1050.489, 1768.922
1050.971, 1804.277
1051.453, 1836.757
1051.935, 1866.434
1052.418, 1894.047
1052.900, 1920.544
1053.382, 1943.722
1053.864, 1965.828
1054.346, 1981.784
1054.828, 1987.770
1055.310, 1987.017
1055.792, 1982.954
1056.275, 1975.862
1056.757, 1965.146
1057.239, 1951.145
1057.721, 1932.541
1058.203, 1911.020
1058.685, 1882.500
1059.167, 1842.955
1059.649, 1796.506
1060.131, 1746.239
1060.614, 1693.424
1061.096, 1639.938
1061.578, 1584.976
1062.060, 1533.841
1062.542, 1486.601
1063.024, 1446.024
1063.506, 1414.560
1063.988, 1390.015
1064.470, 1371.072
1064.953, 1356.773
1065.435, 1345.317
1065.917, 1336.637
1066.399, 1328.824
1066.881, 1320.854
1067.363, 1313.830
1067.845, 1308.584
1068.327, 1304.483
1068.810, 1300.816
1069.292, 1297.671
1069.774, 1295.548
1070.256, 1294.636
1070.738, 1294.470
1071.220, 1295.774
1071.702, 1296.696
1072.184, 1295.877
1072.667, 1294.350
1073.149, 1292.818
1073.631, 1291.623
1074.113, 1291.139
1074.595, 1291.421
1075.077, 1292.910
1075.559, 1297.285
1076.041, 1301.109
1076.523, 1302.239
1077.005, 1302.072
1077.488, 1301.273
1077.970, 1300.536
1078.452, 1301.361
1078.934, 1304.091
1079.416, 1305.683
1079.898, 1302.268
1080.380, 1300.581
1080.862, 1306.556
1081.344, 1313.630
1081.827, 1315.132
1082.309, 1313.527
1082.791, 1314.259
1083.273, 1318.266
1083.755, 1322.231
1084.237, 1323.979
1084.719, 1326.508
1085.201, 1331.766
1085.684, 1337.854
1086.166, 1345.264
1086.648, 1351.416
1087.130, 1351.780
1087.612, 1346.438
1088.094, 1340.975
1088.576, 1336.565
1089.058, 1334.168
1089.541, 1335.931
1090.023, 1338.015
1090.505, 1337.144
1090.987, 1335.306
1091.469, 1335.533
1091.951, 1337.652
1092.433, 1338.985
1092.915, 1338.176
1093.397, 1338.094
1093.880, 1340.584
1094.362, 1343.278
1094.844, 1344.551
1095.326, 1345.445
1095.808, 1347.391
1096.290, 1350.025
1096.772, 1351.912
1097.254, 1352.638
1097.736, 1352.906
1098.219, 1352.438
1098.701, 1352.203
1099.183, 1352.281
1099.665, 1353.106
1100.147, 1355.938
1100.629, 1359.561
1101.111, 1361.113
1101.593, 1359.947
1102.076, 1359.372
1102.558, 1361.060
1103.040, 1362.385
1103.522, 1361.690
1104.004, 1361.168
1104.486, 1362.750
1104.968, 1365.367
1105.450, 1367.098
1105.932, 1367.783
1106.415, 1368.879
1106.897, 1371.483
1107.379, 1373.257
1107.861, 1372.454
1108.343, 1372.178
1108.825, 1374.881
1109.307, 1378.418
1109.789, 1379.907
1110.271, 1379.574
1110.754, 1380.138
1111.236, 1382.993
1111.718, 1384.510
1112.200, 1382.922
1112.682, 1381.814
1113.164, 1382.866
1113.646, 1384.559
1114.128, 1385.399
1114.611, 1385.752
1115.093, 1386.955
1115.575, 1389.437
1116.057, 1391.517
1116.539, 1393.429
1117.021, 1394.559
1117.503, 1393.823
1117.985, 1393.414
1118.468, 1395.027
1118.950, 1397.751
1119.432, 1399.822
1119.914, 1401.143
1120.396, 1402.957
1120.878, 1405.508
1121.360, 1408.012
1121.842, 1410.332
1122.324, 1412.684
1122.807, 1415.385
1123.289, 1417.894
1123.771, 1419.547
1124.253, 1420.386
1124.735, 1420.611
1125.217, 1419.716
1125.699, 1420.134
1126.181, 1422.412
1126.663, 1424.614
1127.146, 1425.943
1127.628, 1427.427
1128.110, 1430.258
1128.592, 1433.612
1129.074, 1434.773
1129.556, 1433.391
1130.038, 1433.551
1130.520, 1435.410
1131.003, 1437.843
1131.485, 1440.714
1131.967, 1443.420
1132.449, 1445.654
1132.931, 1447.089
1133.413, 1446.693
1133.895, 1445.072
1134.377, 1447.247
1134.859, 1453.041
1135.342, 1456.372
1135.824, 1456.465
1136.306, 1456.290
1136.788, 1457.126
1137.270, 1458.424
1137.752, 1459.575
1138.234, 1460.825
1138.716, 1463.045
1139.198, 1465.905
1139.681, 1467.871
1140.163, 1469.012
1140.645, 1470.366
1141.127, 1472.173
1141.609, 1473.670
1142.091, 1474.234
1142.573, 1474.935
1143.055, 1477.983
1143.538, 1481.834
1144.020, 1482.624
1144.502, 1481.760
1144.984, 1483.375
1145.466, 1487.427
1145.948, 1490.650
1146.430, 1491.679
1146.912, 1492.420
1147.395, 1494.970
1147.877, 1497.611
1148.359, 1497.409
1148.841, 1496.761
1149.323, 1499.909
1149.805, 1505.247
1150.287, 1508.449
1150.769, 1508.734
1151.251, 1508.599
1151.734, 1508.907
1152.216, 1510.225
1152.698, 1514.115
1153.180, 1517.931
1153.662, 1518.927
1154.144, 1518.851
1154.626, 1520.217
1155.108, 1522.792
1155.590, 1524.671
1156.073, 1525.151
1156.555, 1526.234
1157.037, 1528.932
1157.519, 1531.965
1158.001, 1535.275
1158.483, 1538.288
1158.965, 1540.389
1159.447, 1542.012
1159.930, 1544.368
1160.412, 1547.493
1160.894, 1548.435
1161.376, 1543.284
1161.858, 1541.594
1162.340, 1547.820
1162.822, 1552.929
1163.304, 1552.280
1163.786, 1550.429
1164.269, 1551.726
1164.751, 1555.250
1165.233, 1557.776
1165.715, 1558.865
1166.197, 1561.036
1166.679, 1565.060
1167.161, 1567.851
1167.643, 1568.202
1168.125, 1568.881
1168.608, 1571.556
1169.090, 1575.484
1169.572, 1579.914
1170.054, 1584.517
1170.536, 1586.214
1171.018, 1584.836
1171.500, 1584.310
1171.982, 1584.928
1172.465, 1587.889
1172.947, 1593.780
1173.429, 1598.020
1173.911, 1596.347
1174.393, 1592.583
1174.875, 1594.754
1175.357, 1600.930
1175.839, 1603.280
1176.322, 1602.742
1176.804, 1604.076
1177.286, 1607.723
1177.768, 1610.772
1178.250, 1611.918
1178.732, 1612.586
1179.214, 1614.170
1179.696, 1615.983
1180.178, 1617.107
1180.661, 1617.853
1181.143, 1618.142
1181.625, 1618.645
1182.107, 1621.078
1182.589, 1625.352
1183.071, 1629.156
1183.553, 1631.207
1184.035, 1633.324
1184.517, 1637.106
1185.000, 1640.822
1185.482, 1642.883
1185.964, 1644.548
1186.446, 1647.225
1186.928, 1650.624
1187.410, 1654.179
1187.892, 1657.823
1188.374, 1659.629
1188.857, 1656.931
1189.339, 1655.673
1189.821, 1658.067
1190.303, 1660.990
1190.785, 1663.140
1191.267, 1664.909
1191.749, 1666.705
1192.231, 1668.525
1192.714, 1670.366
1193.196, 1672.159
1193.678, 1674.273
1194.160, 1676.764
1194.642, 1679.552
1195.124, 1682.989
1195.606, 1685.525
1196.088, 1685.929
1196.570, 1685.900
1197.052, 1687.953
1197.535, 1691.526
1198.017, 1693.706
1198.499, 1694.531
1198.981, 1696.005
1199.463, 1698.209
1199.945, 1699.517
1200.427, 1699.541
1200.909, 1700.457
1201.392, 1703.841
1201.874, 1708.248
1202.356, 1712.434
1202.838, 1715.691
1203.320, 1715.392
1203.802, 1713.359
1204.284, 1713.879
1204.766, 1716.750
1205.249, 1719.387
1205.731, 1721.076
1206.213, 1723.374
1206.695, 1727.704
1207.177, 1731.870
1207.659, 1734.053
1208.141, 1735.465
1208.623, 1736.398
1209.105, 1737.747
1209.588, 1741.313
1210.070, 1746.119
1210.552, 1748.863
1211.034, 1748.557
1211.516, 1749.165
1211.998, 1752.494
1212.480, 1755.569
1212.962, 1757.872
1213.444, 1759.514
1213.927, 1759.612
1214.409, 1759.871
1214.891, 1762.670
1215.373, 1767.165
1215.855, 1769.346
1216.337, 1768.131
1216.819, 1769.600
1217.301, 1774.876
1217.784, 1778.099
1218.266, 1777.516
1218.748, 1777.543
1219.230, 1780.808
1219.712, 1784.990
1220.194, 1786.989
1220.676, 1787.710
1221.158, 1790.645
1221.641, 1795.073
1222.123, 1796.736
1222.605, 1795.955
1223.087, 1795.287
1223.569, 1795.594
1224.051, 1798.065
1224.533, 1803.491
1225.015, 1808.695
1225.497, 1809.260
1225.979, 1809.087
1226.462, 1813.538
1226.944, 1819.421
1227.426, 1822.255
1227.908, 1823.201
1228.390, 1825.650
1228.872, 1829.796
1229.354, 1832.377
1229.836, 1831.222
1230.319, 1831.515
1230.801, 1836.441
1231.283, 1841.317
1231.765, 1844.273
1232.247, 1846.294
1232.729, 1847.413
1233.211, 1848.564
1233.693, 1851.920
1234.176, 1857.327
1234.658, 1859.706
1235.140, 1857.537
1235.622, 1857.032
1236.104, 1858.697
1236.586, 1861.135
1237.068, 1863.930
1237.550, 1867.636
1238.032, 1872.853
1238.515, 1878.209
1238.997, 1881.499
1239.479, 1882.902
1239.961, 1882.458
1240.443, 1880.824
1240.925, 1881.300
1241.407, 1883.689
1241.889, 1885.234
1242.371, 1885.421
1242.854, 1887.089
1243.336, 1892.455
1243.818, 1896.966
1244.300, 1894.378
1244.782, 1891.002
1245.264, 1893.712
1245.746, 1898.688
1246.228, 1901.312
1246.711, 1902.328
1247.193, 1904.384
1247.675, 1907.717
1248.157, 1909.795
1248.639, 1908.502
1249.121, 1908.956
1249.603, 1913.854
1250.085, 1918.096
1250.568, 1919.696
1251.050, 1920.591
1251.532, 1921.910
1252.014, 1923.463
1252.496, 1925.000
1252.978, 1926.483
1253.460, 1927.417
1253.942, 1927.660
1254.424, 1929.053
1254.906, 1931.748
1255.389, 1934.253
1255.871, 1936.151
1256.353, 1938.297
1256.835, 1941.249
1257.317, 1944.539
1257.799, 1948.050
1258.281, 1951.056
1258.763, 1951.522
1259.246, 1950.971
1259.728, 1951.987
1260.210, 1954.434
1260.692, 1957.795
1261.174, 1961.603
1261.656, 1964.457
1262.138, 1965.471
1262.620, 1967.269
1263.103, 1971.958
1263.585, 1976.470
1264.067, 1979.688
1264.549, 1981.956
1265.031, 1982.271
1265.513, 1982.658
1265.995, 1986.646
1266.477, 1993.242
1266.959, 1997.204
1267.442, 1997.823
1267.924, 1998.599
1268.406, 1999.373
1268.888, 2001.259
1269.370, 2004.674
1269.852, 2007.354
1270.334, 2008.057
1270.816, 2008.739
1271.298, 2011.645
1271.781, 2015.504
1272.263, 2017.129
1272.745, 2017.971
1273.227, 2022.212
1273.709, 2028.466
##END=



