##NAMES=Carminite
##RRUFFID=R050528
##IDEAL CHEMISTRY=Pb^2+^Fe^3+^_2_(As^5+^O_4_)_2_(OH)_2_
##LOCALITY=Las Animas mine, Benjamin Hill, Sonora, Mexico
##OWNER=RRUFF
##SOURCE=University of Arizona Mineral Museum
##DESCRIPTION=Red prismatic crystals
##STATUS=The identification of this mineral is confirmed by single-crystal X-ray diffraction and chemical analysis.
##URL=rruff.info/R050528
##MEASURED CHEMISTRY=(Pb_0.99_Cu_0.01_)_Σ=1_(Fe^3+^_1.99_Al_0.01_)_Σ=2_(As_1.00_O_4_)_2_(OH)_2_ ; (core) :  (Pb_0.70_Ca_0.30_)_Σ=1_(Fe^3+^_1.99_Al_0.01_)_Σ=2_(As_1.00_O_4_)_2_(OH)_2_ (rim)
90.92609, 0.0000000E+00
91.40820, 6.512940
91.89032, 6.735817
92.37244, 6.622231
92.85455, 6.225840
93.33667, 5.867499
93.81879, 5.830620
94.30090, 6.022296
94.78302, 6.153752
95.26514, 6.133352
95.74725, 6.039920
96.22937, 6.066821
96.71149, 6.223927
97.19360, 6.386633
97.67572, 6.435721
98.15784, 6.371782
98.63995, 6.272175
99.12207, 6.121632
99.60419, 5.939185
100.0863, 5.908448
100.5684, 6.076445
101.0505, 6.302474
101.5327, 6.397356
102.0148, 6.320518
102.4969, 6.247406
102.9790, 6.252021
103.4611, 6.364878
103.9432, 6.374209
104.4253, 6.215171
104.9075, 5.987551
105.3896, 5.901737
105.8717, 6.049301
106.3538, 6.213393
106.8359, 6.309403
107.3180, 6.260342
107.8002, 6.273860
108.2823, 6.331664
108.7644, 6.447813
109.2465, 6.679075
109.7286, 7.131136
110.2107, 7.619562
110.6929, 8.073048
111.1750, 8.420034
111.6571, 8.803793
112.1392, 9.175220
112.6213, 9.559599
113.1034, 10.14938
113.5856, 11.20453
114.0677, 12.36349
114.5498, 13.35940
115.0319, 13.75977
115.5140, 14.35775
115.9961, 15.45152
116.4783, 17.04037
116.9604, 18.68792
117.4425, 20.26530
117.9246, 21.82790
118.4067, 23.42336
118.8888, 25.03445
119.3710, 26.72448
119.8531, 28.57187
120.3352, 30.59062
120.8173, 32.59424
121.2994, 34.45943
121.7815, 36.21421
122.2637, 37.91450
122.7458, 39.64429
123.2279, 41.28701
123.7100, 42.64012
124.1921, 43.60300
124.6742, 44.60860
125.1564, 46.02349
125.6385, 47.80422
126.1206, 49.82232
126.6027, 51.95068
127.0848, 54.25791
127.5669, 56.82498
128.0491, 59.62640
128.5312, 62.76929
129.0133, 66.50609
129.4954, 70.77084
129.9775, 75.26641
130.4596, 80.01637
130.9418, 84.85412
131.4239, 89.31824
131.9060, 93.33582
132.3881, 96.92838
132.8702, 100.1209
133.3523, 102.9402
133.8345, 105.2431
134.3166, 106.7739
134.7987, 107.5466
135.2808, 108.1704
135.7629, 108.7786
136.2450, 109.3552
136.7272, 109.7527
137.2093, 109.9093
137.6914, 110.0836
138.1735, 110.6125
138.6556, 111.5850
139.1377, 112.4313
139.6199, 112.9990
140.1020, 113.2847
140.5841, 113.5146
141.0662, 113.6064
141.5483, 113.7490
142.0304, 114.1347
142.5126, 114.6634
142.9947, 115.6089
143.4768, 116.6926
143.9589, 117.6623
144.4410, 119.0351
144.9231, 120.9166
145.4053, 123.1189
145.8874, 125.3846
146.3695, 127.5124
146.8516, 129.9680
147.3337, 132.9193
147.8158, 136.7813
148.2980, 140.2111
148.7801, 143.3497
149.2622, 146.0741
149.7443, 148.0457
150.2264, 148.7559
150.7085, 149.2242
151.1907, 149.7719
151.6728, 150.4595
152.1549, 151.1362
152.6370, 151.7288
153.1191, 152.3033
153.6012, 153.0123
154.0834, 154.0052
154.5655, 155.0172
155.0476, 156.0093
155.5297, 157.9119
156.0118, 158.5032
156.4939, 156.9736
156.9761, 153.7969
157.4582, 150.5717
157.9403, 147.4280
158.4224, 144.4792
158.9045, 141.7665
159.3866, 139.0009
159.8688, 136.8452
160.3509, 135.5459
160.8330, 135.0375
161.3151, 135.0390
161.7972, 135.7879
162.2793, 136.8271
162.7615, 137.8100
163.2436, 138.7418
163.7257, 139.5050
164.2078, 140.2292
164.6899, 140.8497
165.1720, 140.8849
165.6541, 139.8882
166.1363, 138.2793
166.6184, 136.4716
167.1005, 134.1471
167.5826, 132.0219
168.0647, 130.5189
168.5468, 129.6160
169.0290, 129.0516
169.5111, 128.6559
169.9932, 128.4997
170.4753, 128.6787
170.9574, 129.2899
171.4395, 130.2069
171.9217, 131.3874
172.4038, 132.8289
172.8859, 134.3790
173.3680, 135.8637
173.8501, 137.3761
174.3322, 139.1082
174.8144, 141.4573
175.2965, 143.9394
175.7786, 145.9147
176.2607, 147.3897
176.7428, 148.5709
177.2249, 149.7730
177.7071, 150.8342
178.1892, 151.3872
178.6713, 151.2474
179.1534, 150.4970
179.6355, 149.1265
180.1176, 147.0686
180.5998, 144.8750
181.0819, 142.8428
181.5640, 141.0756
182.0461, 139.8773
182.5282, 139.7332
183.0103, 140.2381
183.4925, 140.4112
183.9746, 140.1504
184.4567, 139.8994
184.9388, 140.1507
185.4209, 140.8812
185.9030, 141.9361
186.3852, 143.3164
186.8673, 144.9702
187.3494, 146.7012
187.8315, 148.4393
188.3136, 150.4600
188.7957, 153.4388
189.2779, 157.2802
189.7600, 161.0263
190.2421, 163.7091
190.7242, 165.6547
191.2063, 168.9936
191.6884, 174.0447
192.1706, 179.8886
192.6527, 185.3804
193.1348, 190.4907
193.6169, 195.3982
194.0990, 200.2177
194.5811, 204.9271
195.0633, 209.5831
195.5454, 214.2106
196.0275, 218.7370
196.5096, 222.7412
196.9917, 226.1860
197.4738, 229.7312
197.9560, 233.8822
198.4381, 238.6261
198.9202, 242.9517
199.4023, 246.8359
199.8844, 250.2349
200.3665, 252.9572
200.8487, 254.9828
201.3308, 256.5978
201.8129, 257.9132
202.2950, 258.9258
202.7771, 259.7007
203.2592, 260.1967
203.7414, 260.5149
204.2235, 260.8527
204.7056, 261.1916
205.1877, 261.5947
205.6698, 262.0472
206.1519, 262.5099
206.6341, 263.2684
207.1162, 264.3666
207.5983, 265.7160
208.0804, 267.1181
208.5625, 268.5380
209.0446, 270.0674
209.5268, 271.8702
210.0089, 274.1184
210.4910, 275.7708
210.9731, 276.5946
211.4552, 276.9594
211.9373, 277.9394
212.4195, 280.0583
212.9016, 281.4807
213.3837, 281.3502
213.8658, 279.5293
214.3479, 276.5882
214.8300, 272.3464
215.3121, 267.0892
215.7943, 261.4045
216.2764, 255.1667
216.7585, 248.8554
217.2406, 242.5898
217.7227, 236.3957
218.2048, 230.3327
218.6870, 224.3214
219.1691, 218.4893
219.6512, 212.9914
220.1333, 207.8009
220.6154, 202.9585
221.0975, 198.4931
221.5797, 194.7642
222.0618, 190.4508
222.5439, 185.2226
223.0260, 179.5826
223.5081, 174.4902
223.9902, 170.0367
224.4724, 166.0406
224.9545, 162.5779
225.4366, 159.7886
225.9187, 156.9466
226.4008, 153.7751
226.8829, 150.6588
227.3651, 148.4070
227.8472, 147.1908
228.3293, 146.5159
228.8114, 146.2384
229.2935, 146.4524
229.7757, 146.7666
230.2578, 147.1699
230.7399, 147.6713
231.2220, 148.2650
231.7041, 148.7738
232.1862, 149.6536
232.6684, 151.1481
233.1505, 153.5160
233.6326, 155.6404
234.1147, 157.3707
234.5968, 158.9409
235.0789, 160.7433
235.5611, 162.8581
236.0432, 165.0675
236.5253, 167.3538
237.0074, 169.7202
237.4895, 172.0483
237.9716, 174.4341
238.4538, 176.7253
238.9359, 178.6334
239.4180, 179.9289
239.9001, 181.2535
240.3822, 182.8606
240.8643, 184.8542
241.3465, 186.5849
241.8286, 188.0457
242.3107, 189.2485
242.7928, 190.2241
243.2749, 191.0490
243.7570, 191.5098
244.2392, 191.5131
244.7213, 191.0064
245.2034, 190.3447
245.6855, 189.5205
246.1676, 188.5460
246.6497, 187.3997
247.1319, 185.9042
247.6140, 184.5602
248.0961, 183.4548
248.5782, 182.5750
249.0603, 182.1037
249.5424, 182.3298
250.0246, 182.6887
250.5067, 182.4949
250.9888, 181.3255
251.4709, 180.4351
251.9530, 180.1090
252.4351, 180.3669
252.9173, 180.7953
253.3994, 181.4057
253.8815, 182.1694
254.3636, 183.0970
254.8457, 184.3004
255.3278, 185.4000
255.8100, 186.4012
256.2921, 187.2944
256.7742, 187.6689
257.2563, 187.3722
257.7384, 186.7623
258.2205, 186.2077
258.7026, 185.9557
259.1848, 185.1264
259.6669, 183.5330
260.1490, 181.2202
260.6311, 178.6342
261.1132, 175.6586
261.5953, 172.6149
262.0775, 169.7869
262.5596, 167.2090
263.0417, 164.6984
263.5238, 162.2990
264.0059, 159.9500
264.4880, 157.2185
264.9702, 154.0358
265.4523, 150.6296
265.9344, 147.1480
266.4165, 143.5624
266.8986, 139.8831
267.3807, 136.0409
267.8629, 132.1015
268.3450, 128.2687
268.8271, 124.5631
269.3092, 120.8136
269.7913, 116.7405
270.2734, 112.2119
270.7556, 108.1528
271.2377, 104.6335
271.7198, 101.5422
272.2019, 98.60453
272.6840, 95.83190
273.1661, 93.17678
273.6483, 90.58669
274.1304, 88.04749
274.6125, 85.75574
275.0946, 83.74129
275.5767, 81.95914
276.0588, 80.34204
276.5410, 78.89822
277.0231, 77.58454
277.5052, 76.45045
277.9873, 75.49300
278.4694, 74.44585
278.9515, 73.26096
279.4337, 72.08401
279.9158, 71.16325
280.3979, 70.52969
280.8800, 69.85194
281.3621, 68.97995
281.8442, 67.94519
282.3264, 67.06416
282.8085, 66.33730
283.2906, 65.76793
283.7727, 65.42361
284.2548, 65.30798
284.7369, 65.14452
285.2191, 64.83679
285.7012, 64.42342
286.1833, 64.03654
286.6654, 63.67441
287.1475, 63.35035
287.6296, 63.12373
288.1118, 62.97735
288.5939, 62.73486
289.0760, 62.31637
289.5581, 61.80487
290.0402, 61.38570
290.5223, 61.05780
291.0045, 60.80127
291.4866, 60.61602
291.9687, 60.49163
292.4508, 60.39223
292.9329, 60.33705
293.4150, 60.26402
293.8972, 60.01717
294.3793, 59.61330
294.8614, 59.24159
295.3435, 59.08433
295.8256, 59.06190
296.3077, 58.94419
296.7899, 58.68710
297.2720, 58.38200
297.7541, 58.15878
298.2362, 58.00206
298.7183, 57.83769
299.2004, 57.63136
299.6826, 57.38874
300.1647, 57.08950
300.6468, 56.71849
301.1289, 56.38292
301.6110, 56.17367
302.0931, 56.08337
302.5753, 56.08783
303.0574, 56.24163
303.5395, 56.45585
304.0216, 56.60300
304.5037, 56.68015
304.9858, 56.76225
305.4680, 56.93150
305.9501, 57.14714
306.4322, 57.33864
306.9143, 57.47964
307.3964, 57.58873
307.8785, 57.64759
308.3607, 57.66796
308.8428, 57.75758
309.3249, 58.02476
309.8070, 58.38818
310.2891, 58.74566
310.7712, 59.02245
311.2534, 59.34984
311.7355, 59.88681
312.2176, 60.57504
312.6997, 61.18208
313.1818, 61.57580
313.6639, 61.83386
314.1461, 61.97193
314.6282, 61.85198
315.1103, 61.91867
315.5924, 62.67806
316.0745, 63.78173
316.5566, 64.51406
317.0388, 64.28292
317.5209, 63.81100
318.0030, 63.49923
318.4851, 63.42915
318.9672, 63.38500
319.4493, 63.32436
319.9315, 63.23989
320.4136, 63.12049
320.8957, 62.90202
321.3778, 62.70465
321.8599, 62.57714
322.3420, 62.52715
322.8242, 62.48411
323.3063, 62.41449
323.7884, 62.35421
324.2705, 62.33455
324.7526, 62.28075
325.2347, 62.35271
325.7169, 62.59552
326.1990, 63.00279
326.6811, 63.48985
327.1632, 64.11439
327.6453, 64.77371
328.1274, 65.41085
328.6096, 66.05097
329.0917, 66.63771
329.5738, 67.08251
330.0559, 67.45924
330.5380, 68.01377
331.0201, 68.76374
331.5023, 69.67329
331.9844, 70.75515
332.4665, 72.09156
332.9486, 73.37467
333.4307, 74.56564
333.9128, 75.71748
334.3950, 76.86800
334.8771, 77.92106
335.3592, 79.17752
335.8413, 80.78327
336.3234, 82.79897
336.8055, 84.59581
337.2877, 86.04601
337.7698, 87.42809
338.2519, 89.09678
338.7340, 91.11821
339.2161, 93.09334
339.6982, 94.82632
340.1803, 96.42717
340.6624, 98.56704
341.1446, 101.4304
341.6267, 104.3053
342.1088, 106.6430
342.5909, 108.4020
343.0730, 110.3058
343.5551, 112.4904
344.0373, 114.8022
344.5194, 116.7670
345.0015, 118.3826
345.4836, 120.0463
345.9657, 122.1330
346.4478, 124.5246
346.9300, 126.5949
347.4121, 128.3347
347.8942, 129.7202
348.3763, 130.6971
348.8584, 131.2894
349.3405, 131.6658
349.8227, 131.9619
350.3048, 132.0850
350.7869, 131.8454
351.2690, 131.2471
351.7511, 130.3161
352.2332, 128.9781
352.7154, 127.3335
353.1975, 125.5931
353.6796, 123.8035
354.1617, 121.9641
354.6438, 119.9915
355.1259, 117.9265
355.6081, 116.0042
356.0902, 114.4507
356.5723, 113.0696
357.0544, 111.6167
357.5365, 110.0278
358.0186, 108.4291
358.5008, 106.7047
358.9829, 105.0336
359.4650, 103.8014
359.9471, 103.5597
360.4292, 103.5420
360.9113, 103.1848
361.3935, 102.3609
361.8756, 101.7788
362.3577, 101.8276
362.8398, 102.2399
363.3219, 102.7118
363.8040, 103.1076
364.2862, 103.6039
364.7683, 104.3653
365.2504, 105.3719
365.7325, 106.1638
366.2146, 106.3604
366.6967, 106.5088
367.1789, 106.9487
367.6610, 108.0180
368.1431, 109.0230
368.6252, 109.9602
369.1073, 110.8110
369.5894, 111.5021
370.0716, 111.8290
370.5537, 112.2123
371.0358, 112.8321
371.5179, 113.8176
372.0000, 114.6551
372.4821, 115.3614
372.9643, 115.8994
373.4464, 116.1726
373.9285, 116.0003
374.4106, 115.9390
374.8927, 116.1358
375.3748, 116.5824
375.8570, 117.0078
376.3391, 117.3529
376.8212, 117.8033
377.3033, 118.6339
377.7854, 119.9369
378.2675, 120.8488
378.7497, 121.1245
379.2318, 121.0714
379.7139, 121.6003
380.1960, 122.7699
380.6781, 123.7857
381.1602, 124.0911
381.6424, 123.7934
382.1245, 123.5226
382.6066, 123.2826
383.0887, 123.1743
383.5708, 123.4625
384.0529, 124.0477
384.5351, 124.4559
385.0172, 124.3931
385.4993, 124.0795
385.9814, 123.9577
386.4635, 124.0129
386.9456, 123.9146
387.4278, 123.2812
387.9099, 122.3440
388.3920, 121.5001
388.8741, 120.9928
389.3562, 120.3598
389.8383, 119.1852
390.3205, 117.5442
390.8026, 115.6799
391.2847, 113.5267
391.7668, 111.3309
392.2489, 109.2535
392.7310, 107.3359
393.2132, 105.4843
393.6953, 103.6315
394.1774, 101.8495
394.6595, 100.2119
395.1416, 98.70568
395.6237, 97.40343
396.1059, 96.42826
396.5880, 95.75569
397.0701, 94.99389
397.5522, 93.83891
398.0343, 92.73048
398.5164, 91.93117
398.9986, 91.60899
399.4807, 91.41216
399.9628, 91.47541
400.4449, 91.64663
400.9270, 91.55689
401.4091, 90.95248
401.8913, 90.41875
402.3734, 90.15820
402.8555, 90.22107
403.3376, 90.27135
403.8197, 90.28889
404.3018, 90.31631
404.7840, 90.43874
405.2661, 90.73697
405.7482, 90.82597
406.2303, 90.55019
406.7124, 90.02659
407.1945, 89.74245
407.6767, 89.71825
408.1588, 89.82659
408.6409, 90.02480
409.1230, 90.30323
409.6051, 90.51738
410.0872, 90.63132
410.5694, 90.75288
411.0515, 91.01046
411.5336, 91.40658
412.0157, 91.95644
412.4978, 92.82008
412.9799, 93.80030
413.4621, 94.43410
413.9442, 94.73607
414.4263, 95.06950
414.9084, 95.77509
415.3905, 96.70360
415.8727, 97.64104
416.3548, 98.58263
416.8369, 99.43781
417.3190, 100.0133
417.8011, 100.4270
418.2832, 101.0042
418.7654, 102.0099
419.2475, 103.1577
419.7296, 104.2464
420.2117, 105.2562
420.6938, 106.2536
421.1759, 107.1630
421.6581, 108.1096
422.1402, 109.2390
422.6223, 110.7912
423.1044, 112.3002
423.5865, 113.7244
424.0686, 115.0323
424.5508, 116.0560
425.0329, 116.5079
425.5150, 116.8802
425.9971, 117.3764
426.4792, 117.9614
426.9613, 118.7656
427.4435, 120.0091
427.9256, 121.3467
428.4077, 122.1795
428.8898, 122.2534
429.3719, 122.4074
429.8540, 122.8635
430.3362, 123.6041
430.8183, 124.4629
431.3004, 125.4847
431.7825, 126.4826
432.2646, 127.3004
432.7467, 127.9350
433.2289, 128.5615
433.7110, 129.2957
434.1931, 129.8456
434.6752, 129.4740
435.1573, 128.2630
435.6394, 127.1192
436.1216, 126.6242
436.6036, 126.5082
437.0858, 126.1836
437.5679, 125.6350
438.0500, 125.0119
438.5321, 124.3478
439.0142, 123.7170
439.4963, 123.2525
439.9785, 123.0473
440.4606, 122.9475
440.9427, 122.8662
441.4248, 122.7983
441.9069, 122.7270
442.3890, 122.3820
442.8712, 122.2214
443.3533, 122.5975
443.8354, 123.6352
444.3175, 124.7790
444.7996, 125.9117
445.2817, 127.0183
445.7639, 128.0924
446.2460, 128.8509
446.7281, 129.8865
447.2102, 131.4887
447.6923, 133.5539
448.1744, 135.2782
448.6566, 136.2822
449.1387, 137.3454
449.6208, 138.8509
450.1029, 141.0350
450.5850, 142.9310
451.0671, 144.2976
451.5493, 145.5987
452.0314, 147.6712
452.5135, 150.8011
452.9956, 153.3558
453.4777, 154.7163
453.9598, 155.1801
454.4420, 156.0160
454.9241, 157.2271
455.4062, 158.7178
455.8883, 160.4841
456.3704, 162.4810
456.8525, 164.4892
457.3347, 166.4465
457.8168, 168.4215
458.2989, 170.5045
458.7810, 172.6591
459.2631, 174.7095
459.7452, 176.6105
460.2274, 178.3844
460.7095, 180.0175
461.1916, 181.5378
461.6737, 182.9797
462.1558, 184.4472
462.6379, 185.8218
463.1201, 186.9984
463.6022, 187.9596
464.0843, 188.7413
464.5664, 189.5897
465.0485, 190.2234
465.5306, 190.1941
466.0128, 188.5567
466.4949, 187.0747
466.9770, 186.5590
467.4591, 187.0749
467.9412, 186.7258
468.4233, 184.9897
468.9055, 182.8007
469.3876, 180.6302
469.8697, 178.3610
470.3518, 176.3754
470.8339, 174.6633
471.3160, 173.2378
471.7982, 172.1972
472.2803, 171.6727
472.7624, 170.9960
473.2445, 169.8749
473.7266, 168.4056
474.2087, 167.2048
474.6909, 166.2958
475.1730, 165.4730
475.6551, 164.5586
476.1372, 163.5859
476.6193, 162.7037
477.1014, 161.9520
477.5836, 161.2594
478.0657, 160.5836
478.5478, 159.9006
479.0299, 159.1586
479.5120, 158.2265
479.9941, 157.2844
480.4763, 156.5829
480.9584, 156.0893
481.4405, 155.4851
481.9226, 154.3654
482.4047, 153.1985
482.8868, 152.4065
483.3690, 152.3392
483.8511, 152.1126
484.3332, 151.2867
484.8153, 150.1867
485.2974, 149.3244
485.7795, 148.9548
486.2617, 148.6529
486.7438, 148.4259
487.2259, 148.2647
487.7080, 147.7173
488.1901, 146.3954
488.6722, 145.1864
489.1544, 144.6825
489.6365, 145.1199
490.1186, 145.3401
490.6007, 145.2288
491.0828, 145.0081
491.5649, 144.9877
492.0471, 145.1665
492.5292, 145.5667
493.0113, 146.2485
493.4934, 147.1221
493.9755, 148.0247
494.4576, 148.9410
494.9398, 149.7416
495.4219, 150.0804
495.9040, 150.2890
496.3861, 150.9869
496.8682, 152.3005
497.3503, 153.8455
497.8325, 155.5040
498.3146, 157.1504
498.7967, 158.6243
499.2788, 159.7073
499.7609, 160.7345
500.2430, 161.9353
500.7252, 163.2424
501.2073, 164.3766
501.6894, 165.2691
502.1715, 165.9480
502.6536, 166.4315
503.1357, 166.7082
503.6179, 166.8130
504.1000, 166.8166
504.5821, 166.6092
505.0642, 166.0974
505.5463, 165.3376
506.0284, 164.1290
506.5106, 162.3437
506.9927, 160.1247
507.4748, 157.9854
507.9569, 155.9871
508.4390, 153.7583
508.9211, 151.0633
509.4033, 147.9447
509.8854, 144.7041
510.3675, 141.3208
510.8496, 137.9909
511.3317, 134.8345
511.8138, 131.8720
512.2960, 129.2623
512.7781, 127.1009
513.2602, 125.0643
513.7423, 122.6997
514.2244, 120.1802
514.7065, 117.9267
515.1887, 116.1662
515.6708, 114.7143
516.1529, 113.5273
516.6350, 112.5878
517.1171, 111.7278
517.5992, 110.8498
518.0814, 110.0674
518.5635, 109.4575
519.0456, 109.0530
519.5277, 108.7859
520.0098, 108.6712
520.4919, 108.6810
520.9741, 108.7739
521.4562, 108.9244
521.9383, 109.1995
522.4204, 109.5864
522.9025, 110.1045
523.3846, 110.9082
523.8668, 112.0237
524.3489, 113.2909
524.8310, 114.6891
525.3131, 116.1971
525.7952, 117.4905
526.2773, 118.5033
526.7595, 119.6505
527.2416, 121.5396
527.7237, 123.9232
528.2058, 126.1854
528.6879, 127.9947
529.1700, 129.7809
529.6522, 131.9043
530.1343, 134.3264
530.6164, 137.0027
531.0985, 140.0926
531.5806, 143.2639
532.0627, 146.2215
532.5449, 148.9114
533.0270, 151.8320
533.5091, 155.3336
533.9912, 158.9606
534.4733, 162.3395
534.9554, 165.2635
535.4376, 168.2596
535.9197, 171.3216
536.4018, 174.4373
536.8839, 177.4988
537.3660, 180.5280
537.8481, 183.5075
538.3303, 186.4704
538.8124, 189.3953
539.2945, 192.3004
539.7766, 195.2141
540.2587, 197.8667
540.7408, 200.0839
541.2230, 201.9021
541.7051, 203.3750
542.1872, 204.5094
542.6693, 205.2952
543.1514, 205.6408
543.6335, 205.6501
544.1157, 205.5539
544.5978, 205.6438
545.0799, 205.3394
545.5620, 204.1676
546.0441, 202.2866
546.5262, 200.0871
547.0084, 197.7450
547.4905, 195.0973
547.9726, 191.9194
548.4547, 188.1707
548.9368, 184.5188
549.4189, 181.2411
549.9011, 177.8885
550.3832, 174.1842
550.8653, 169.9463
551.3474, 165.7602
551.8295, 161.6965
552.3116, 157.6665
552.7938, 153.5344
553.2759, 149.2788
553.7580, 145.1270
554.2401, 141.1303
554.7222, 137.2842
555.2043, 133.5809
555.6865, 130.0463
556.1686, 126.6056
556.6507, 123.1371
557.1328, 119.7843
557.6149, 116.7795
558.0970, 114.1393
558.5792, 111.4944
559.0613, 108.4445
559.5434, 105.3566
560.0255, 102.6141
560.5076, 100.4474
560.9897, 98.43516
561.4719, 96.51569
561.9540, 94.64433
562.4361, 92.77558
562.9182, 90.73295
563.4003, 88.86658
563.8824, 87.23215
564.3646, 85.82682
564.8467, 84.56367
565.3288, 83.51675
565.8109, 82.44936
566.2930, 81.16514
566.7751, 79.65264
567.2573, 78.41326
567.7394, 77.46769
568.2215, 76.65032
568.7036, 75.80241
569.1857, 74.93478
569.6678, 74.04520
570.1500, 73.12422
570.6321, 72.22717
571.1142, 71.38379
571.5963, 70.62395
572.0784, 70.01687
572.5605, 69.76085
573.0427, 69.51529
573.5248, 69.01748
574.0069, 68.31589
574.4890, 67.71399
574.9711, 67.38120
575.4532, 67.12315
575.9354, 66.84875
576.4175, 66.53453
576.8996, 66.26638
577.3817, 66.00106
577.8638, 65.82681
578.3459, 65.89825
578.8281, 66.36120
579.3102, 66.42357
579.7923, 65.88653
580.2744, 65.07890
580.7565, 64.61832
581.2386, 64.49121
581.7208, 64.47512
582.2029, 64.55461
582.6850, 64.64240
583.1671, 64.58151
583.6492, 64.38337
584.1313, 64.11631
584.6134, 63.74168
585.0955, 63.36603
585.5776, 63.10460
586.0598, 62.97888
586.5419, 62.85397
587.0240, 62.68715
587.5061, 62.48764
587.9882, 62.26250
588.4703, 61.99537
588.9525, 61.72732
589.4346, 61.48587
589.9167, 61.23306
590.3988, 60.88392
590.8809, 60.36018
591.3630, 59.96568
591.8452, 59.84597
592.3273, 59.88084
592.8094, 59.55354
593.2915, 58.83990
593.7736, 58.13952
594.2557, 57.73374
594.7379, 57.51307
595.2200, 57.19321
595.7021, 56.77120
596.1842, 56.25491
596.6663, 55.49180
597.1484, 54.70693
597.6306, 54.23397
598.1127, 54.30078
598.5948, 54.22340
599.0769, 53.46196
599.5590, 52.45210
600.0411, 51.73844
600.5233, 51.72305
601.0054, 51.68438
601.4875, 51.52283
601.9696, 51.25631
602.4517, 50.92278
602.9338, 50.46735
603.4160, 50.05700
603.8981, 49.74907
604.3802, 49.53606
604.8623, 49.36946
605.3444, 49.25493
605.8265, 49.12872
606.3087, 48.93029
606.7908, 48.68278
607.2729, 48.45977
607.7550, 48.27246
608.2371, 48.05417
608.7192, 47.71107
609.2014, 47.30855
609.6835, 46.92074
610.1656, 46.52770
610.6477, 46.23726
611.1298, 46.17973
611.6119, 46.24188
612.0941, 46.21924
612.5762, 46.01712
613.0583, 45.78668
613.5404, 45.52686
614.0225, 45.25840
614.5046, 45.07779
614.9868, 45.01831
615.4689, 44.97510
615.9510, 44.91212
616.4331, 44.82800
616.9152, 44.70745
617.3973, 44.55738
617.8795, 44.31678
618.3616, 43.79403
618.8437, 43.15573
619.3258, 42.85976
619.8079, 43.01829
620.2900, 43.24415
620.7722, 43.29205
621.2543, 43.17051
621.7364, 42.88507
622.2185, 42.19986
622.7006, 41.64602
623.1827, 41.40543
623.6649, 41.41953
624.1470, 41.55051
624.6291, 42.05956
625.1112, 42.33784
625.5933, 42.18368
626.0754, 41.66098
626.5576, 41.21747
627.0397, 40.83514
627.5218, 40.58897
628.0039, 40.58067
628.4860, 40.77553
628.9681, 40.87417
629.4503, 40.87295
629.9324, 40.81797
630.4145, 40.78698
630.8966, 40.72163
631.3787, 40.45514
631.8608, 39.88094
632.3430, 39.45127
632.8251, 39.65609
633.3072, 40.11604
633.7893, 40.36654
634.2714, 39.95110
634.7535, 39.69936
635.2357, 39.97359
635.7178, 40.50331
636.1999, 40.66706
636.6820, 40.29394
637.1641, 39.85389
637.6462, 39.41214
638.1284, 38.99950
638.6105, 38.84259
639.0926, 38.96527
639.5747, 39.10468
640.0568, 39.10904
640.5389, 39.01026
641.0211, 38.87739
641.5032, 38.71383
641.9853, 38.58198
642.4674, 38.54839
642.9495, 38.56588
643.4316, 38.60019
643.9138, 38.66520
644.3959, 38.66235
644.8780, 38.42828
645.3601, 38.16463
645.8422, 38.07506
646.3243, 38.51332
646.8065, 38.67937
647.2886, 38.40232
647.7707, 37.92285
648.2528, 37.67040
648.7349, 37.69399
649.2170, 37.74637
649.6992, 37.76562
650.1813, 37.77333
650.6634, 37.84853
651.1455, 37.98117
651.6276, 38.07404
652.1097, 38.04731
652.5919, 37.96529
653.0740, 37.94013
653.5561, 37.95713
654.0382, 37.88779
654.5203, 37.50791
655.0024, 37.13134
655.4846, 36.97996
655.9667, 37.12380
656.4488, 37.27948
656.9309, 37.50903
657.4130, 37.65495
657.8951, 37.57567
658.3773, 37.12754
658.8594, 36.89477
659.3415, 36.95319
659.8236, 37.12603
660.3057, 37.16130
660.7878, 37.07549
661.2700, 37.07393
661.7521, 37.25039
662.2342, 37.42684
662.7163, 37.31695
663.1984, 37.01695
663.6805, 36.76731
664.1627, 36.67854
664.6448, 36.67408
665.1269, 36.72696
665.6090, 36.83183
666.0911, 36.96754
666.5732, 37.28072
667.0554, 37.46596
667.5375, 37.37078
668.0196, 36.99974
668.5017, 36.78729
668.9838, 36.78231
669.4659, 36.81580
669.9481, 36.80385
670.4302, 36.74603
670.9123, 36.62004
671.3944, 36.41858
671.8765, 36.21996
672.3586, 36.07265
672.8408, 35.98713
673.3229, 35.99928
673.8050, 36.13463
674.2871, 36.27179
674.7692, 36.31120
675.2513, 36.31667
675.7335, 36.35929
676.2156, 36.51456
676.6977, 36.63330
677.1798, 36.71866
677.6619, 36.75008
678.1440, 36.66925
678.6262, 36.38740
679.1083, 36.23693
679.5904, 36.31128
680.0725, 36.53184
680.5546, 36.73286
681.0367, 36.91285
681.5189, 37.03424
682.0010, 37.03886
682.4831, 37.00199
682.9652, 37.06309
683.4473, 37.19556
683.9294, 37.28062
684.4116, 37.18746
684.8937, 37.07708
685.3758, 37.07494
685.8579, 37.19506
686.3400, 37.24033
686.8221, 37.05700
687.3043, 36.89753
687.7864, 36.87901
688.2685, 37.01815
688.7506, 37.23689
689.2327, 37.58846
689.7148, 37.88483
690.1970, 37.90658
690.6791, 37.69843
691.1612, 37.52967
691.6433, 37.42698
692.1254, 37.39936
692.6075, 37.54753
693.0897, 37.75238
693.5718, 37.80646
694.0539, 37.52657
694.5360, 37.32421
695.0181, 37.47850
695.5002, 37.79939
695.9824, 37.99148
696.4645, 37.90535
696.9466, 37.83036
697.4287, 37.75487
697.9108, 37.72875
698.3929, 37.92448
698.8751, 38.39891
699.3572, 38.76977
699.8393, 38.87685
700.3214, 38.83043
700.8035, 38.91693
701.2856, 39.10686
701.7678, 39.22950
702.2499, 39.04133
702.7320, 38.84410
703.2141, 38.98587
703.6962, 39.42125
704.1783, 39.75537
704.6605, 39.70166
705.1426, 39.63116
705.6247, 39.74205
706.1068, 40.05873
706.5889, 40.34541
707.0710, 40.58391
707.5532, 40.81865
708.0353, 41.10484
708.5174, 41.44262
708.9995, 41.65008
709.4816, 41.71215
709.9637, 41.73378
710.4459, 41.77456
710.9280, 41.85839
711.4101, 42.04693
711.8922, 42.37187
712.3743, 42.69688
712.8564, 42.94541
713.3386, 43.14363
713.8207, 43.32010
714.3028, 43.39992
714.7849, 43.57558
715.2670, 43.85812
715.7491, 44.24031
716.2313, 44.77555
716.7134, 45.55470
717.1955, 46.03563
717.6776, 46.01086
718.1597, 45.83931
718.6418, 46.26398
719.1240, 47.16569
719.6061, 47.99212
720.0882, 48.48702
720.5703, 48.86731
721.0524, 49.28416
721.5345, 49.75273
722.0167, 50.30967
722.4988, 51.09670
722.9809, 51.84282
723.4630, 52.44011
723.9451, 52.90371
724.4272, 53.31956
724.9094, 53.60104
725.3915, 53.99270
725.8736, 54.54728
726.3557, 55.27862
726.8378, 56.38176
727.3199, 57.87229
727.8021, 59.31416
728.2842, 60.44703
728.7663, 61.35518
729.2484, 62.03785
729.7305, 62.52736
730.2126, 63.20254
730.6948, 64.45613
731.1769, 65.82932
731.6590, 66.99330
732.1411, 67.87528
732.6232, 68.81280
733.1053, 69.82230
733.5875, 70.90339
734.0696, 72.06506
734.5517, 73.33116
735.0338, 74.53708
735.5159, 75.69675
735.9980, 76.78545
736.4802, 77.80122
736.9623, 78.73516
737.4444, 79.49342
737.9265, 80.04153
738.4086, 80.65427
738.8907, 81.64867
739.3729, 82.77251
739.8550, 83.74654
740.3371, 84.50090
740.8192, 85.14487
741.3013, 85.65516
741.7834, 86.08083
742.2656, 86.46311
742.7477, 86.80702
743.2298, 87.09406
743.7119, 87.33510
744.1940, 87.48328
744.6761, 87.39150
745.1583, 87.11866
745.6404, 86.99362
746.1225, 87.20901
746.6046, 87.35390
747.0867, 86.95842
747.5688, 86.22911
748.0510, 85.52550
748.5331, 85.01476
749.0152, 84.48409
749.4973, 83.79374
749.9794, 83.06464
750.4615, 82.56480
750.9437, 82.42957
751.4258, 82.19679
751.9079, 81.75076
752.3900, 81.16338
752.8721, 80.60072
753.3542, 80.06326
753.8364, 79.45850
754.3185, 78.67185
754.8006, 77.88265
755.2827, 77.33435
755.7648, 76.96664
756.2469, 76.62224
756.7291, 76.43368
757.2112, 76.05310
757.6933, 75.13583
758.1754, 73.83440
758.6575, 72.99998
759.1396, 72.83534
759.6218, 72.75555
760.1039, 72.61145
760.5860, 72.38653
761.0681, 71.89614
761.5502, 71.15394
762.0323, 70.55795
762.5145, 70.44215
762.9966, 70.54597
763.4787, 70.52428
763.9608, 70.39265
764.4429, 70.28355
764.9250, 70.30260
765.4072, 70.32337
765.8893, 70.21423
766.3714, 69.96337
766.8535, 70.00588
767.3356, 70.45227
767.8177, 71.00119
768.2999, 71.56918
768.7820, 72.13196
769.2641, 72.32160
769.7462, 72.12254
770.2283, 72.06018
770.7104, 72.65010
771.1926, 73.54966
771.6747, 74.28342
772.1568, 74.82105
772.6389, 75.38194
773.1210, 76.17695
773.6031, 76.94412
774.0853, 77.46721
774.5674, 77.66070
775.0495, 78.10716
775.5316, 78.93327
776.0137, 79.79740
776.4958, 80.43983
776.9780, 80.87999
777.4601, 81.55612
777.9422, 82.48730
778.4243, 83.48691
778.9064, 84.43156
779.3885, 85.34248
779.8707, 86.25136
780.3528, 87.15894
780.8349, 88.10502
781.3170, 89.19766
781.7991, 90.25940
782.2812, 91.10046
782.7633, 91.55582
783.2454, 92.43654
783.7275, 93.92278
784.2097, 95.45162
784.6918, 96.40482
785.1739, 96.87381
785.6560, 97.93045
786.1381, 99.68745
786.6202, 101.5267
787.1024, 102.7340
787.5845, 103.7668
788.0666, 105.1902
788.5487, 107.1548
789.0308, 109.2658
789.5129, 111.4963
789.9951, 113.7660
790.4772, 115.9700
790.9593, 118.0394
791.4414, 120.3112
791.9235, 122.8396
792.4056, 125.5122
792.8878, 128.3039
793.3699, 131.1813
793.8520, 134.0153
794.3341, 136.8230
794.8162, 139.6115
795.2983, 142.3211
795.7805, 145.1176
796.2626, 148.3237
796.7447, 152.2096
797.2268, 155.7447
797.7089, 158.3648
798.1910, 160.8115
798.6732, 163.6470
799.1553, 167.1060
799.6374, 170.2339
800.1195, 172.9966
800.6016, 175.4722
801.0837, 177.7077
801.5659, 179.7421
802.0480, 181.7658
802.5301, 183.8107
803.0122, 185.6505
803.4943, 187.2469
803.9764, 188.4940
804.4586, 189.2558
804.9407, 189.3208
805.4228, 189.3677
805.9049, 189.6967
806.3870, 189.7945
806.8691, 189.2187
807.3513, 187.9189
807.8334, 186.3795
808.3155, 184.6314
808.7976, 182.6013
809.2797, 180.0306
809.7618, 177.1554
810.2440, 174.5178
810.7261, 172.2318
811.2082, 169.8706
811.6903, 167.0614
812.1724, 164.1443
812.6545, 161.4714
813.1367, 159.2395
813.6188, 156.7640
814.1009, 154.0004
814.5830, 151.1106
815.0651, 148.0930
815.5472, 144.9925
816.0294, 142.5430
816.5115, 140.8555
816.9936, 139.3624
817.4757, 137.5244
817.9578, 135.6080
818.4399, 133.9833
818.9221, 132.7815
819.4042, 131.5352
819.8863, 129.9026
820.3684, 128.3223
820.8505, 127.1512
821.3326, 126.6124
821.8148, 125.4590
822.2969, 123.5479
822.7790, 121.4939
823.2611, 119.8612
823.7432, 118.5330
824.2253, 117.1864
824.7075, 115.8018
825.1896, 114.3665
825.6717, 112.6929
826.1538, 111.0884
826.6359, 109.7974
827.1180, 108.8724
827.6002, 108.2148
828.0823, 107.7532
828.5644, 107.6172
829.0465, 108.0646
829.5286, 109.1215
830.0107, 109.3490
830.4929, 108.6732
830.9750, 108.1050
831.4571, 108.5488
831.9392, 109.5722
832.4213, 110.4491
832.9034, 111.1450
833.3856, 112.2419
833.8677, 114.1338
834.3498, 116.3877
834.8319, 118.7212
835.3140, 121.0872
835.7961, 124.1747
836.2783, 128.2276
836.7604, 132.3334
837.2425, 135.7095
837.7246, 138.7253
838.2067, 142.9953
838.6888, 148.4696
839.1710, 154.3021
839.6531, 159.9876
840.1352, 165.7981
840.6173, 171.7486
841.0994, 177.9113
841.5815, 184.6740
842.0637, 192.2820
842.5458, 200.4166
843.0279, 209.0169
843.5100, 218.0754
843.9921, 227.6784
844.4742, 237.7635
844.9564, 247.9765
845.4385, 257.9846
845.9206, 268.1033
846.4027, 278.7384
846.8848, 289.8895
847.3669, 301.5446
847.8491, 314.0842
848.3312, 326.7437
848.8133, 339.5662
849.2954, 352.4182
849.7775, 364.5294
850.2596, 375.7783
850.7418, 386.9813
851.2239, 398.6516
851.7060, 410.1062
852.1881, 420.1721
852.6702, 428.6949
853.1523, 434.7012
853.6345, 437.5570
854.1166, 438.1502
854.5987, 437.1075
855.0808, 434.2051
855.5629, 428.9667
856.0450, 420.9969
856.5272, 411.0628
857.0093, 399.1344
857.4914, 385.5240
857.9735, 370.3232
858.4556, 353.7543
858.9377, 337.3761
859.4199, 321.8304
859.9020, 306.7572
860.3841, 291.5614
860.8662, 276.8358
861.3483, 263.1730
861.8304, 251.0952
862.3126, 239.6803
862.7947, 228.7755
863.2768, 218.5265
863.7589, 209.1413
864.2410, 200.5487
864.7231, 192.8552
865.2053, 186.0919
865.6874, 179.8182
866.1695, 173.2696
866.6516, 166.8313
867.1337, 161.3144
867.6158, 156.9114
868.0980, 152.8244
868.5801, 148.5737
869.0622, 144.4676
869.5443, 140.7777
870.0264, 137.5184
870.5085, 134.3978
870.9907, 131.4506
871.4728, 128.6563
871.9549, 126.1557
872.4370, 123.8403
872.9191, 121.2337
873.4012, 118.3219
873.8834, 115.3903
874.3655, 112.5568
874.8476, 109.8347
875.3297, 107.2615
875.8118, 104.8406
876.2939, 102.2708
876.7761, 99.39429
877.2582, 96.60433
877.7403, 94.04223
878.2224, 91.67236
878.7045, 89.37500
879.1866, 87.14661
879.6688, 85.07218
880.1509, 83.30760
880.6330, 81.62850
881.1151, 79.78802
881.5972, 77.84058
882.0793, 75.97686
882.5615, 74.10117
883.0436, 72.50400
883.5257, 71.36067
884.0078, 70.45833
884.4899, 69.26740
884.9720, 67.76304
885.4542, 66.48075
885.9363, 65.62144
886.4184, 64.87776
886.9005, 63.79992
887.3826, 62.55247
887.8647, 61.43487
888.3469, 60.62214
888.8290, 59.79937
889.3111, 58.87823
889.7932, 57.90696
890.2753, 56.89477
890.7574, 55.78222
891.2396, 54.91761
891.7217, 54.35753
892.2038, 53.87384
892.6859, 53.16772
893.1680, 52.36927
893.6501, 51.78434
894.1323, 51.47518
894.6144, 51.07315
895.0965, 50.22600
895.5786, 49.34270
896.0607, 48.72979
896.5428, 48.42606
897.0250, 48.06380
897.5071, 47.64830
897.9892, 47.16109
898.4713, 46.48853
898.9534, 45.75005
899.4355, 45.31186
899.9177, 45.14309
900.3998, 45.00093
900.8819, 44.82069
901.3640, 44.55788
901.8461, 44.12214
902.3282, 43.55880
902.8104, 43.13531
903.2925, 42.89815
903.7746, 42.70679
904.2567, 42.54534
904.7388, 42.38140
905.2209, 42.11573
905.7031, 41.77517
906.1852, 41.46864
906.6673, 41.24303
907.1494, 41.05189
907.6315, 40.86880
908.1136, 40.69891
908.5958, 40.55260
909.0779, 40.45902
909.5600, 40.34443
910.0421, 40.22466
910.5242, 40.05100
911.0063, 39.69197
911.4885, 39.20492
911.9706, 38.87972
912.4527, 38.76537
912.9348, 38.76171
913.4169, 38.99408
913.8990, 39.16895
914.3812, 38.96175
914.8633, 38.19770
915.3454, 37.65035
915.8275, 37.39912
916.3096, 37.27116
916.7917, 37.20375
917.2739, 37.17810
917.7560, 36.98635
918.2381, 36.65675
918.7202, 36.53811
919.2023, 36.66483
919.6844, 36.68614
920.1666, 36.60770
920.6487, 36.13092
921.1308, 36.16856
921.6129, 36.00004
922.0950, 35.82308
922.5771, 35.93313
923.0593, 35.51424
923.5414, 35.61976
924.0235, 35.51595
924.5056, 35.50793
924.9877, 35.29249
925.4698, 35.14111
925.9520, 35.19720
926.4341, 35.13844
926.9162, 34.46085
927.3983, 34.43565
927.8804, 34.39972
928.3625, 34.35503
928.8447, 34.29301
929.3268, 34.18244
929.8089, 34.03688
930.2910, 33.96645
930.7731, 33.98230
931.2552, 34.01917
931.7374, 34.08416
932.2195, 34.10398
932.7016, 33.99776
933.1837, 33.74884
933.6658, 33.50063
934.1479, 33.21513
934.6301, 33.01711
935.1122, 32.99254
935.5943, 33.09110
936.0764, 33.09895
936.5585, 33.02413
937.0406, 32.92562
937.5228, 32.77365
938.0049, 32.66642
938.4870, 32.71449
938.9691, 32.86024
939.4512, 32.96764
939.9333, 33.04482
940.4155, 33.02818
940.8976, 32.86804
941.3797, 32.67295
941.8618, 32.63668
942.3439, 32.72475
942.8260, 32.77030
943.3082, 32.73962
943.7903, 32.67976
944.2724, 32.61118
944.7545, 32.54066
945.2366, 32.46727
945.7188, 32.37639
946.2009, 32.34340
946.6830, 32.37787
947.1651, 32.44830
947.6472, 32.60342
948.1293, 32.78141
948.6115, 32.63425
949.0936, 32.21192
949.5757, 31.90234
950.0578, 32.10350
950.5399, 32.33709
951.0220, 32.23982
951.5042, 31.91684
951.9863, 31.85999
952.4684, 32.19380
952.9505, 32.48812
953.4326, 32.67117
953.9147, 32.72665
954.3969, 32.54128
954.8790, 32.20849
955.3611, 31.99426
955.8432, 32.01452
956.3253, 32.05754
956.8074, 31.98423
957.2896, 31.89980
957.7717, 31.90933
958.2538, 32.04270
958.7359, 32.17327
959.2180, 32.30981
959.7001, 32.39914
960.1823, 32.36339
960.6644, 32.25954
961.1465, 32.20635
961.6286, 32.20225
962.1107, 32.19957
962.5928, 32.18081
963.0750, 32.15329
963.5571, 32.13464
964.0392, 32.11049
964.5213, 31.99822
965.0034, 31.78023
965.4855, 31.65751
965.9677, 31.73023
966.4498, 31.84507
966.9319, 31.75721
967.4140, 31.56516
967.8961, 31.43953
968.3782, 31.41951
968.8604, 31.49262
969.3425, 31.77701
969.8246, 32.03754
970.3067, 32.04703
970.7888, 31.79378
971.2709, 31.65252
971.7531, 31.63951
972.2352, 31.63940
972.7173, 31.46789
973.1994, 31.32568
973.6815, 31.51808
974.1636, 32.01023
974.6458, 32.26133
975.1279, 32.00707
975.6100, 31.73948
976.0921, 31.57721
976.5742, 31.50062
977.0563, 31.48908
977.5385, 31.52585
978.0206, 31.50348
978.5027, 31.35651
978.9848, 31.19795
979.4669, 31.08593
979.9490, 31.02619
980.4311, 31.03366
980.9132, 31.16498
981.3953, 31.24173
981.8774, 31.26223
982.3596, 31.23358
982.8417, 31.15806
983.3238, 31.03812
983.8059, 30.84515
984.2880, 30.58978
984.7701, 30.41784
985.2523, 30.49595
985.7344, 30.59879
986.2165, 30.59098
986.6986, 30.50237
987.1807, 30.49030
987.6628, 30.59012
988.1450, 30.53719
988.6271, 30.19412
989.1092, 29.78268
989.5913, 29.65790
990.0734, 29.69794
990.5555, 29.66806
991.0377, 29.41630
991.5198, 29.27522
992.0019, 29.40919
992.4840, 29.60157
992.9661, 29.70668
993.4482, 29.72376
993.9304, 29.65329
994.4125, 29.49177
994.8946, 29.36910
995.3767, 29.40708
995.8588, 29.50297
996.3409, 29.57354
996.8231, 29.61594
997.3052, 29.64698
997.7873, 29.69744
998.2694, 29.68567
998.7515, 29.58610
999.2336, 29.42448
999.7158, 29.22626
1000.198, 29.00930
1000.680, 28.84690
1001.162, 28.76991
1001.644, 28.71480
1002.126, 28.60888
1002.608, 28.53134
1003.091, 28.58032
1003.573, 28.79879
1004.055, 28.88658
1004.537, 28.83131
1005.019, 28.70894
1005.501, 28.50430
1005.983, 28.30008
1006.465, 28.27780
1006.948, 28.38858
1007.430, 28.44297
1007.912, 28.32432
1008.394, 28.18586
1008.876, 28.04976
1009.358, 27.93170
1009.840, 27.88515
1010.322, 27.90586
1010.804, 27.80374
1011.287, 27.51007
1011.769, 27.30663
1012.251, 27.64295
1012.733, 28.08813
1013.215, 28.15233
1013.697, 27.67694
1014.179, 27.47589
1014.661, 27.72354
1015.143, 27.91282
1015.626, 27.73150
1016.108, 27.34306
1016.590, 27.26583
1017.072, 27.42773
1017.554, 27.55770
1018.036, 27.47771
1018.518, 27.39973
1019.000, 27.47607
1019.483, 27.57086
1019.965, 27.46167
1020.447, 27.07133
1020.929, 26.95493
1021.411, 27.18822
1021.893, 27.44255
1022.375, 27.30254
1022.857, 27.05526
1023.339, 27.14869
1023.822, 27.59507
1024.304, 27.79363
1024.786, 27.37545
1025.268, 27.00057
1025.750, 26.86485
1026.232, 26.89725
1026.714, 26.92631
1027.196, 26.95286
1027.679, 26.98833
1028.161, 27.06509
1028.643, 27.08261
1029.125, 26.88683
1029.607, 26.64878
1030.089, 26.58002
1030.571, 26.77626
1031.053, 26.73903
1031.536, 26.40718
1032.018, 26.12937
1032.500, 26.25357
1032.982, 26.54540
1033.464, 26.59558
1033.946, 26.45767
1034.428, 26.38980
1034.910, 26.62001
1035.392, 26.75213
1035.875, 26.65182
1036.357, 26.45982
1036.839, 26.44461
1037.321, 26.58080
1037.803, 26.63720
1038.285, 26.57245
1038.767, 26.45342
1039.249, 26.29610
1039.731, 26.13616
1040.214, 25.97932
1040.696, 25.82415
1041.178, 25.82958
1041.660, 26.06210
1042.142, 26.19685
1042.624, 26.02817
1043.106, 25.74961
1043.588, 25.72096
1044.071, 25.85435
1044.553, 25.94968
1045.035, 25.91705
1045.517, 25.87250
1045.999, 25.84500
1046.481, 25.80810
1046.963, 25.71173
1047.445, 25.56527
1047.927, 25.56606
1048.410, 25.71525
1048.892, 25.82290
1049.374, 25.71098
1049.856, 25.54692
1050.338, 25.42510
1050.820, 25.35474
1051.302, 25.35137
1051.784, 25.43703
1052.266, 25.51563
1052.749, 25.57369
1053.231, 25.60190
1053.713, 25.55198
1054.195, 25.47661
1054.677, 25.47170
1055.159, 25.57013
1055.641, 25.64919
1056.123, 25.67525
1056.606, 25.67461
1057.088, 25.66082
1057.570, 25.62922
1058.052, 25.52275
1058.534, 25.36130
1059.016, 25.27219
1059.498, 25.34207
1059.980, 25.46556
1060.463, 25.65594
1060.945, 25.82265
1061.427, 25.82397
1061.909, 25.58701
1062.391, 25.45418
1062.873, 25.44421
1063.355, 25.49185
1063.837, 25.58442
1064.319, 25.67478
1064.802, 25.70238
1065.284, 25.66633
1065.766, 25.58029
1066.248, 25.33165
1066.730, 25.20359
1067.212, 25.28182
1067.694, 25.46104
1068.176, 25.55337
1068.658, 25.57893
1069.141, 25.62658
1069.623, 25.72750
1070.105, 25.74459
1070.587, 25.48429
1071.069, 25.21418
1071.551, 25.11900
1072.033, 25.18682
1072.515, 25.25137
1072.998, 25.31307
1073.480, 25.31915
1073.962, 25.17151
1074.444, 25.06869
1074.926, 25.36729
1075.408, 25.80662
1075.890, 25.96257
1076.372, 25.47048
1076.854, 25.27472
1077.337, 25.45347
1077.819, 25.71855
1078.301, 25.86304
1078.783, 25.90755
1079.265, 25.87274
1079.747, 25.77267
1080.229, 25.67122
1080.711, 25.56655
1081.193, 25.50444
1081.676, 25.50482
1082.158, 25.54105
1082.640, 25.61423
1083.122, 25.70502
1083.604, 25.55824
1084.086, 25.11186
1084.568, 24.77786
1085.050, 24.97737
1085.532, 25.31571
1086.015, 25.52789
1086.497, 25.60916
1086.979, 25.62083
1087.461, 25.55943
1087.943, 25.44406
1088.425, 25.25448
1088.907, 25.07390
1089.389, 25.00685
1089.872, 25.02090
1090.354, 25.07517
1090.836, 25.18162
1091.318, 25.27935
1091.800, 25.39405
1092.282, 25.44074
1092.764, 25.36070
1093.246, 25.17448
1093.729, 24.85138
1094.211, 24.45947
1094.693, 24.26084
1095.175, 24.61222
1095.657, 24.85242
1096.139, 24.76691
1096.621, 24.51789
1097.103, 24.23294
1097.585, 23.91662
1098.068, 23.69424
1098.550, 23.57335
1099.032, 23.54342
1099.514, 23.68525
1099.996, 23.83437
1100.478, 23.87231
1100.960, 23.82350
1101.442, 23.78795
1101.924, 23.76129
1102.407, 23.77960
1102.889, 23.85848
1103.371, 23.94611
1103.853, 23.99930
1104.335, 24.01938
1104.817, 23.99652
1105.299, 23.92308
1105.781, 23.88502
1106.264, 23.90704
1106.746, 23.92019
1107.228, 23.90797
1107.710, 23.85857
1108.192, 23.68623
1108.674, 23.46679
1109.156, 23.38201
1109.638, 23.55937
1110.120, 23.69557
1110.603, 23.71064
1111.085, 23.66767
1111.567, 23.58908
1112.049, 23.48264
1112.531, 23.39086
1113.013, 23.31667
1113.495, 23.27023
1113.977, 23.29973
1114.459, 23.30911
1114.942, 23.24158
1115.424, 23.13289
1115.906, 23.01106
1116.388, 22.86483
1116.870, 22.85438
1117.352, 22.99284
1117.834, 23.13991
1118.316, 23.25351
1118.799, 23.27023
1119.281, 23.02365
1119.763, 22.61917
1120.245, 22.52107
1120.727, 22.86088
1121.209, 23.05031
1121.691, 22.96965
1122.173, 22.80474
1122.656, 22.74210
1123.138, 22.74865
1123.620, 22.81072
1124.102, 22.92922
1124.584, 22.93612
1125.066, 22.71056
1125.548, 22.60553
1126.030, 22.78953
1126.512, 23.07136
1126.995, 23.02379
1127.477, 22.77839
1127.959, 22.65425
1128.441, 22.76959
1128.923, 22.85171
1129.405, 22.78802
1129.887, 22.70627
1130.369, 22.67993
1130.851, 22.68569
1131.334, 22.56418
1131.816, 22.35831
1132.298, 22.27692
1132.780, 22.55090
1133.262, 22.74233
1133.744, 22.49704
1134.226, 22.18730
1134.708, 22.18953
1135.191, 22.53127
1135.673, 22.71593
1136.155, 22.74747
1136.637, 22.72707
1137.119, 22.73406
1137.601, 22.69882
1138.083, 22.50656
1138.565, 22.25740
1139.047, 22.17389
1139.530, 22.30047
1140.012, 22.34518
1140.494, 22.27783
1140.976, 22.20343
1141.458, 22.21368
1141.940, 22.26617
1142.422, 22.33405
1142.904, 22.40820
1143.386, 22.45609
1143.869, 22.48160
1144.351, 22.45652
1144.833, 22.35735
1145.315, 22.26759
1145.797, 22.34382
1146.279, 22.47286
1146.761, 22.48722
1147.243, 22.36507
1147.726, 22.22183
1148.208, 22.00989
1148.690, 21.92835
1149.172, 22.09487
1149.654, 22.33278
1150.136, 22.26836
1150.618, 22.02756
1151.100, 21.86572
1151.583, 21.85378
1152.065, 21.86453
1152.547, 21.90134
1153.029, 21.89833
1153.511, 21.78633
1153.993, 21.63256
1154.475, 21.67929
1154.957, 21.87765
1155.439, 22.07705
1155.922, 22.29376
1156.404, 22.36036
1156.886, 22.06676
1157.368, 21.73657
1157.850, 21.57280
1158.332, 21.56167
1158.814, 21.57038
1159.296, 21.60417
1159.778, 21.69665
1160.261, 21.95996
1160.743, 22.17643
1161.225, 22.23797
1161.707, 22.19611
1162.189, 22.05211
1162.671, 21.79888
1163.153, 21.82254
1163.635, 22.12014
1164.118, 22.33204
1164.600, 22.11750
1165.082, 21.83804
1165.564, 21.70999
1166.046, 21.67975
1166.528, 21.61917
1167.010, 21.51064
1167.492, 21.59078
1167.974, 21.89544
1168.457, 22.15732
1168.939, 22.12431
1169.421, 21.98881
1169.903, 21.91109
1170.385, 21.86392
1170.867, 21.67363
1171.349, 21.27464
1171.831, 21.16946
1172.313, 21.49328
1172.796, 21.82711
1173.278, 21.63293
1173.760, 21.31512
1174.242, 21.31893
1174.724, 21.65556
1175.206, 21.77119
1175.688, 21.60621
1176.170, 21.45101
1176.653, 21.37908
1177.135, 21.35034
1177.617, 21.29013
1178.099, 21.25877
1178.581, 21.36893
1179.063, 21.65924
1179.545, 21.78615
1180.027, 21.69728
1180.510, 21.60025
1180.992, 21.56895
1181.474, 21.57112
1181.956, 21.60621
1182.438, 21.62218
1182.920, 21.51313
1183.402, 21.19194
1183.884, 21.02352
1184.366, 21.03628
1184.849, 21.16885
1185.331, 21.48031
1185.813, 21.79417
1186.295, 21.72023
1186.777, 21.42274
1187.259, 21.19760
1187.741, 21.08294
1188.223, 21.18095
1188.705, 21.60869
1189.188, 21.96177
1189.670, 21.92972
1190.152, 21.67402
1190.634, 21.49539
1191.116, 21.37967
1191.598, 21.29290
1192.080, 21.19121
1192.562, 21.18707
1193.045, 21.33044
1193.527, 21.47099
1194.009, 21.42971
1194.491, 21.31596
1194.973, 21.43369
1195.455, 21.71188
1195.937, 21.90330
1196.419, 21.96052
1196.901, 21.82001
1197.384, 21.35523
1197.866, 20.93512
1198.348, 21.00533
1198.830, 21.35619
1199.312, 21.48717
1199.794, 21.41116
1200.276, 21.29809
1200.758, 21.13964
1201.240, 21.06403
1201.723, 21.11567
1202.205, 21.20558
1202.687, 21.22040
1203.169, 21.19132
1203.651, 21.19519
1204.133, 21.23380
1204.615, 21.27188
1205.097, 21.27750
1205.580, 21.31372
1206.062, 21.41188
1206.544, 21.51239
1207.026, 21.48829
1207.508, 21.40700
1207.990, 21.48268
1208.472, 21.72288
1208.954, 21.84333
1209.437, 21.56302
1209.919, 21.39894
1210.401, 21.52118
1210.883, 21.73211
1211.365, 21.68483
1211.847, 21.46820
1212.329, 21.26811
1212.811, 21.11109
1213.293, 21.03437
1213.776, 21.10377
1214.258, 21.19204
1214.740, 21.28913
1215.222, 21.35557
1215.704, 21.24644
1216.186, 21.06308
1216.668, 21.09001
1217.150, 21.40659
1217.632, 21.55679
1218.115, 21.25565
1218.597, 21.01509
1219.079, 21.02558
1219.561, 21.15828
1220.043, 21.13207
1220.525, 21.02767
1221.007, 21.04846
1221.489, 21.27135
1221.972, 21.39039
1222.454, 21.28275
1222.936, 21.16867
1223.418, 21.13258
1223.900, 21.13797
1224.382, 21.11234
1224.864, 21.06583
1225.346, 21.00996
1225.828, 20.92972
1226.311, 20.92149
1226.793, 21.00842
1227.275, 21.14577
1227.757, 21.36096
1228.239, 21.55730
1228.721, 21.45057
1229.203, 21.19131
1229.685, 21.09988
1230.167, 21.32931
1230.650, 21.48757
1231.132, 21.54667
1231.614, 21.51610
1232.096, 21.33738
1232.578, 21.14273
1233.060, 21.22357
1233.542, 21.47136
1234.024, 21.69373
1234.507, 21.89647
1234.989, 21.88942
1235.471, 21.59299
1235.953, 21.32311
1236.435, 21.27499
1236.917, 21.34424
1237.399, 21.38939
1237.881, 21.41222
1238.364, 21.40887
1238.846, 21.33386
1239.328, 21.37853
1239.810, 21.59661
1240.292, 21.71393
1240.774, 21.45319
1241.256, 21.10425
1241.738, 21.08191
1242.220, 21.24982
1242.703, 21.36228
1243.185, 21.35498
1243.667, 21.37952
1244.149, 21.44394
1244.631, 21.48840
1245.113, 21.45340
1245.595, 21.39664
1246.077, 21.35022
1246.559, 21.33796
1247.042, 21.43239
1247.524, 21.73671
1248.006, 21.70536
1248.488, 21.30803
1248.970, 20.95976
1249.452, 20.94549
1249.934, 21.08780
1250.416, 21.36651
1250.899, 21.64050
1251.381, 21.66021
1251.863, 21.34100
1252.345, 21.29121
1252.827, 21.51476
1253.309, 21.73363
1253.791, 21.79748
1254.273, 21.75709
1254.755, 21.54617
1255.238, 21.30715
1255.720, 21.24804
1256.202, 21.37643
1256.684, 21.43807
1257.166, 21.43686
1257.648, 21.52752
1258.130, 22.00987
1258.612, 22.37243
1259.094, 22.21536
1259.577, 21.89272
1260.059, 21.76859
1260.541, 21.82724
1261.023, 21.86379
1261.505, 21.87531
1261.987, 21.88340
1262.469, 21.91189
1262.951, 21.92386
1263.434, 21.92046
1263.916, 21.88153
1264.398, 21.72275
1264.880, 21.50655
1265.362, 21.57257
1265.844, 21.87382
1266.326, 22.11348
1266.808, 22.14286
1267.291, 22.09833
1267.773, 21.93671
1268.255, 21.83722
1268.737, 22.09396
1269.219, 22.51107
1269.701, 22.53464
1270.183, 22.25709
1270.665, 22.10010
1271.147, 22.26479
1271.630, 22.49289
1272.112, 22.81193
1272.594, 23.05969
1273.076, 23.05754
1273.558, 22.90176
1274.040, 22.66783
1274.522, 22.41209
1275.004, 22.30603
1275.486, 22.46942
1275.969, 22.51121
1276.451, 22.38503
1276.933, 22.26587
1277.415, 22.35707
1277.897, 22.48765
1278.379, 22.42763
1278.861, 22.27454
1279.343, 22.29413
1279.825, 22.55721
1280.308, 22.67058
1280.790, 22.61011
1281.272, 22.50161
1281.754, 22.41404
1282.236, 22.33831
1282.718, 22.21735
1283.200, 22.13234
1283.682, 22.24964
1284.165, 22.58263
1284.647, 22.67819
1285.129, 22.53269
1285.611, 22.37870
1286.093, 22.35783
1286.575, 22.36189
1287.057, 22.32534
1287.539, 22.30350
1288.021, 22.40454
1288.504, 22.58359
1288.986, 22.52060
1289.468, 22.25810
1289.950, 22.10614
1290.432, 22.38933
1290.914, 22.53591
1291.396, 22.37590
1291.878, 22.16498
1292.360, 22.15908
1292.843, 22.28453
1293.325, 22.37346
1293.807, 22.42968
1294.289, 22.48398
1294.771, 22.56338
1295.253, 22.62549
1295.735, 22.69393
1296.217, 22.66035
1296.700, 22.24899
1297.182, 21.81368
1297.664, 21.96017
1298.146, 22.46129
1298.628, 22.72284
1299.110, 22.61718
1299.592, 22.57843
1300.074, 22.62851
1300.557, 22.63225
1301.039, 22.40833
1301.521, 22.18477
1302.003, 22.18027
1302.485, 22.28761
1302.967, 22.34414
1303.449, 22.36288
##END=



