##NAMES=Carminite
##RRUFFID=R061061
##IDEAL CHEMISTRY=Pb^2+^Fe^3+^_2_(As^5+^O_4_)_2_(OH)_2_
##LOCALITY=San Nicolas mine, Badajoz Province, Spain
##OWNER=RRUFF
##SOURCE=Bob Jenkins
##DESCRIPTION=Red prismatic
##STATUS=The identification of this mineral is confirmed by single-crystal X-ray diffraction and chemical analysis.
##URL=rruff.info/R061061
##MEASURED CHEMISTRY=Pb_1.00_(Fe^3+^_1.98_[box]_0.02_)_Σ=2_((As_0.97_S_0.03_)_Σ=1_O_4_)_2_(OH)_2_; (lighter phase) : (Pb_0.98_Cu_0.02_)_Σ=1_(Fe^3+^_1.99_[box]_0.01_)_Σ=2_((As_0.99_S_0.01_)_Σ=1_O_4_)_2_(OH)_2_ (darker phase); OH estimated by difference and charge balance
138.8843, 4337.572
139.3664, 4435.229
139.8486, 4586.222
140.3307, 4780.200
140.8128, 5000.393
141.2949, 5254.041
141.7770, 5529.375
142.2591, 5832.128
142.7413, 6152.781
143.2234, 6488.874
143.7055, 6839.147
144.1876, 7191.373
144.6697, 7524.101
145.1518, 7827.101
145.6340, 8130.991
146.1161, 8435.835
146.5982, 8633.936
147.0803, 8709.329
147.5624, 8771.306
148.0445, 8811.659
148.5267, 8802.444
149.0088, 8726.968
149.4909, 8661.708
149.9730, 8636.677
150.4551, 8631.394
150.9372, 8607.840
151.4194, 8550.364
151.9015, 8468.132
152.3836, 8376.261
152.8657, 8260.565
153.3478, 8158.432
153.8299, 8095.473
154.3121, 8056.180
154.7942, 7997.744
155.2763, 7894.568
155.7584, 7769.756
156.2405, 7676.224
156.7226, 7623.044
157.2048, 7574.452
157.6869, 7508.165
158.1690, 7429.352
158.6511, 7360.440
159.1332, 7315.564
159.6153, 7282.806
160.0975, 7236.286
160.5796, 7165.738
161.0617, 7102.692
161.5438, 7070.158
162.0259, 7065.276
162.5080, 7067.492
162.9902, 7076.524
163.4723, 7083.538
163.9544, 7075.160
164.4365, 7048.721
164.9186, 7014.536
165.4007, 6980.027
165.8829, 6945.543
166.3650, 6909.257
166.8471, 6870.621
167.3292, 6830.556
167.8113, 6788.973
168.2934, 6743.162
168.7756, 6701.376
169.2577, 6671.760
169.7398, 6654.280
170.2219, 6641.441
170.7040, 6627.292
171.1861, 6617.752
171.6683, 6622.238
172.1504, 6648.664
172.6325, 6676.376
173.1146, 6682.023
173.5967, 6663.541
174.0788, 6643.538
174.5610, 6629.153
175.0431, 6618.397
175.5252, 6611.345
176.0073, 6611.792
176.4894, 6607.480
176.9715, 6580.937
177.4537, 6528.819
177.9358, 6477.430
178.4179, 6449.200
178.9000, 6421.894
179.3821, 6368.130
179.8642, 6271.671
180.3464, 6169.088
180.8285, 6110.126
181.3106, 6102.548
181.7927, 6093.402
182.2748, 6057.922
182.7569, 6012.310
183.2391, 5969.002
183.7212, 5930.315
184.2033, 5897.479
184.6854, 5869.653
185.1675, 5844.676
185.6496, 5835.800
186.1318, 5857.900
186.6139, 5894.705
187.0960, 5935.704
187.5781, 5979.727
188.0602, 6022.739
188.5423, 6059.983
189.0245, 6090.616
189.5066, 6118.418
189.9887, 6084.258
190.4708, 6181.007
190.9529, 6265.747
191.4350, 6339.121
191.9172, 6367.108
192.3993, 6453.708
192.8814, 6516.810
193.3635, 6578.950
193.8456, 6673.801
194.3277, 6708.375
194.8099, 6802.723
195.2920, 6873.201
195.7741, 6954.594
196.2562, 7012.349
196.7383, 7055.419
197.2204, 7112.420
197.7026, 7181.556
198.1847, 7254.685
198.6668, 7328.531
199.1489, 7403.576
199.6310, 7473.526
200.1131, 7529.439
200.5953, 7568.701
201.0774, 7607.919
201.5595, 7648.457
202.0416, 7692.369
202.5237, 7742.985
203.0058, 7801.697
203.4880, 7860.107
203.9701, 7909.551
204.4522, 7949.874
204.9343, 7982.238
205.4164, 7988.166
205.8985, 7997.542
206.3807, 8037.529
206.8628, 8113.373
207.3449, 8191.363
207.8270, 8229.794
208.3091, 8223.549
208.7912, 8230.802
209.2734, 8275.662
209.7555, 8329.726
210.2376, 8376.709
210.7197, 8414.521
211.2018, 8443.937
211.6839, 8468.543
212.1660, 8488.987
212.6482, 8487.379
213.1303, 8387.533
213.6124, 8346.679
214.0945, 8293.813
214.5766, 8229.583
215.0587, 8119.950
215.5409, 8068.932
216.0230, 7994.432
216.5051, 7918.967
216.9872, 7876.214
217.4693, 7773.184
217.9514, 7729.911
218.4336, 7648.044
218.9157, 7580.771
219.3978, 7493.950
219.8799, 7391.668
220.3620, 7314.465
220.8441, 7282.150
221.3263, 7257.492
221.8084, 7218.142
222.2905, 7164.700
222.7726, 7102.935
223.2547, 7029.996
223.7368, 6949.267
224.2190, 6878.813
224.7011, 6822.673
225.1832, 6772.630
225.6653, 6721.687
226.1474, 6670.983
226.6295, 6624.425
227.1117, 6584.483
227.5938, 6550.397
228.0759, 6519.623
228.5580, 6491.828
229.0401, 6468.219
229.5222, 6449.441
230.0044, 6434.910
230.4865, 6424.265
230.9686, 6412.619
231.4507, 6405.635
231.9328, 6417.666
232.4149, 6454.132
232.8971, 6493.975
233.3792, 6521.271
233.8613, 6543.185
234.3434, 6572.217
234.8255, 6611.834
235.3076, 6660.820
235.7898, 6722.987
236.2719, 6802.198
236.7540, 6872.755
237.2361, 6909.211
237.7182, 6930.305
238.2003, 6966.924
238.6825, 7032.207
239.1646, 7107.250
239.6467, 7171.120
240.1288, 7223.818
240.6109, 7280.964
241.0930, 7359.017
241.5752, 7442.192
242.0573, 7503.245
242.5394, 7533.849
243.0215, 7553.030
243.5036, 7569.833
243.9857, 7585.404
244.4679, 7610.043
244.9500, 7653.972
245.4321, 7704.103
245.9142, 7738.078
246.3963, 7754.435
246.8784, 7758.973
247.3606, 7746.439
247.8427, 7723.176
248.3248, 7709.751
248.8069, 7715.484
249.2890, 7729.803
249.7711, 7734.188
250.2533, 7725.671
250.7354, 7721.990
251.2175, 7733.514
251.6996, 7753.245
252.1817, 7768.505
252.6638, 7775.609
253.1460, 7779.376
253.6281, 7787.655
254.1102, 7801.966
254.5923, 7809.014
255.0744, 7805.781
255.5565, 7794.407
256.0387, 7776.586
256.5208, 7752.729
257.0029, 7724.656
257.4850, 7694.931
257.9671, 7663.980
258.4492, 7624.688
258.9314, 7574.231
259.4135, 7517.542
259.8956, 7458.154
260.3777, 7396.191
260.8598, 7329.857
261.3419, 7255.480
261.8241, 7173.226
262.3062, 7097.543
262.7883, 7044.155
263.2704, 6982.683
263.7525, 6892.598
264.2346, 6780.130
264.7168, 6664.407
265.1989, 6556.665
265.6810, 6456.583
266.1631, 6366.609
266.6452, 6295.654
267.1273, 6222.366
267.6095, 6138.916
268.0916, 6049.664
268.5737, 5960.530
269.0558, 5874.105
269.5379, 5791.955
270.0201, 5721.088
270.5022, 5677.560
270.9843, 5626.275
271.4664, 5557.973
271.9485, 5484.540
272.4306, 5417.507
272.9128, 5361.180
273.3949, 5312.750
273.8770, 5268.549
274.3591, 5233.260
274.8412, 5193.325
275.3233, 5141.438
275.8055, 5090.588
276.2876, 5050.363
276.7697, 5021.677
277.2518, 4998.922
277.7339, 4975.927
278.2160, 4953.022
278.6982, 4928.931
279.1803, 4908.915
279.6624, 4883.254
280.1445, 4844.310
280.6266, 4795.134
281.1087, 4745.177
281.5909, 4701.097
282.0730, 4662.891
282.5551, 4631.548
283.0372, 4613.146
283.5193, 4594.465
284.0014, 4570.505
284.4836, 4543.459
284.9657, 4517.583
285.4478, 4496.130
285.9299, 4476.632
286.4120, 4451.086
286.8941, 4414.155
287.3763, 4383.321
287.8584, 4365.106
288.3405, 4355.330
288.8226, 4352.295
289.3047, 4357.668
289.7868, 4362.066
290.2690, 4347.656
290.7511, 4310.780
291.2332, 4288.164
291.7153, 4309.703
292.1974, 4337.368
292.6795, 4333.642
293.1617, 4292.438
293.6438, 4245.179
294.1259, 4212.712
294.6080, 4193.872
295.0901, 4183.441
295.5722, 4185.185
296.0544, 4187.858
296.5365, 4177.876
297.0186, 4156.354
297.5007, 4138.079
297.9828, 4130.664
298.4649, 4129.524
298.9471, 4129.200
299.4292, 4130.042
299.9113, 4125.254
300.3934, 4104.867
300.8755, 4071.682
301.3576, 4046.878
301.8398, 4034.086
302.3219, 4029.508
302.8040, 4035.499
303.2861, 4049.654
303.7682, 4056.663
304.2503, 4043.814
304.7325, 4017.332
305.2146, 4009.472
305.6967, 4037.056
306.1788, 4061.525
306.6609, 4061.337
307.1430, 4035.418
307.6252, 4073.948
308.1073, 4100.466
308.5894, 4115.619
309.0715, 4085.370
309.5536, 4113.749
310.0357, 4118.633
310.5179, 4122.556
311.0000, 4159.187
311.4821, 4135.541
311.9642, 4164.789
312.4463, 4182.485
312.9284, 4197.040
313.4106, 4207.233
313.8927, 4218.414
314.3748, 4239.829
314.8569, 4253.767
315.3390, 4247.735
315.8211, 4225.751
316.3033, 4201.476
316.7854, 4185.685
317.2675, 4177.297
317.7496, 4163.167
318.2317, 4145.895
318.7138, 4118.390
319.1960, 4072.758
319.6781, 4018.430
320.1602, 3966.518
320.6423, 3921.356
321.1244, 3883.898
321.6065, 3857.499
322.0887, 3844.950
322.5708, 3834.991
323.0529, 3830.717
323.5350, 3824.449
324.0171, 3805.454
324.4992, 3771.770
324.9814, 3744.356
325.4635, 3749.776
325.9456, 3784.670
326.4277, 3804.652
326.9098, 3795.927
327.3919, 3780.019
327.8741, 3772.670
328.3562, 3773.334
328.8383, 3779.771
329.3204, 3793.052
329.8025, 3810.866
330.2846, 3830.405
330.7668, 3851.780
331.2489, 3871.766
331.7310, 3886.365
332.2131, 3897.491
332.6952, 3912.760
333.1773, 3930.910
333.6595, 3954.863
334.1415, 3986.010
334.6237, 4024.362
335.1058, 4072.281
335.5879, 4134.289
336.0700, 4200.650
336.5521, 4242.435
337.0342, 4234.402
337.5164, 4249.548
337.9985, 4308.257
338.4806, 4392.696
338.9627, 4489.815
339.4448, 4594.582
339.9269, 4695.663
340.4091, 4776.455
340.8912, 4825.297
341.3733, 4896.906
341.8554, 4997.195
342.3375, 5110.739
342.8196, 5233.709
343.3018, 5363.160
343.7839, 5496.999
344.2660, 5634.813
344.7481, 5775.013
345.2302, 5903.796
345.7123, 5996.298
346.1945, 6110.180
346.6766, 6274.865
347.1587, 6458.806
347.6408, 6628.267
348.1229, 6771.609
348.6050, 6894.063
349.0872, 7002.973
349.5693, 7098.194
350.0514, 7183.465
350.5335, 7269.688
351.0156, 7336.880
351.4977, 7372.986
351.9799, 7377.483
352.4620, 7354.801
352.9441, 7300.271
353.4262, 7219.993
353.9083, 7136.799
354.3904, 7053.550
354.8726, 6963.585
355.3547, 6857.086
355.8368, 6740.114
356.3189, 6627.115
356.8010, 6518.043
357.2831, 6416.092
357.7653, 6321.375
358.2474, 6235.014
358.7295, 6165.014
359.2116, 6117.704
359.6937, 6086.414
360.1758, 6052.531
360.6580, 6008.766
361.1401, 5976.596
361.6222, 5971.359
362.1043, 5976.988
362.5864, 5970.111
363.0685, 5945.699
363.5507, 5920.472
364.0328, 5914.887
364.5149, 5933.476
364.9970, 5953.952
365.4791, 5977.082
365.9612, 6001.267
366.4434, 6027.932
366.9255, 6055.142
367.4076, 6078.011
367.8897, 6093.045
368.3718, 6102.104
368.8539, 6114.671
369.3361, 6139.746
369.8182, 6153.870
370.3003, 6142.841
370.7824, 6125.914
371.2645, 6122.928
371.7466, 6139.272
372.2288, 6160.965
372.7109, 6172.427
373.1930, 6173.476
373.6751, 6167.079
374.1572, 6144.846
374.6393, 6125.031
375.1215, 6121.765
375.6036, 6131.586
376.0857, 6140.121
376.5678, 6140.102
377.0499, 6134.351
377.5320, 6128.297
378.0142, 6122.317
378.4963, 6112.673
378.9784, 6098.505
379.4605, 6078.044
379.9426, 6048.379
380.4247, 6000.423
380.9069, 5956.970
381.3890, 5933.390
381.8711, 5921.231
382.3532, 5903.230
382.8353, 5873.903
383.3174, 5838.580
383.7996, 5805.731
384.2817, 5780.425
384.7638, 5739.626
385.2459, 5664.381
385.7280, 5589.711
386.2101, 5545.974
386.6923, 5525.032
387.1744, 5493.565
387.6565, 5425.402
388.1386, 5327.420
388.6207, 5248.942
389.1028, 5214.626
389.5850, 5167.627
390.0671, 5082.603
390.5492, 4989.799
391.0313, 4923.884
391.5134, 4894.770
391.9955, 4875.071
392.4777, 4826.481
392.9598, 4745.356
393.4419, 4678.470
393.9240, 4642.725
394.4061, 4608.658
394.8882, 4554.437
395.3704, 4485.720
395.8525, 4423.577
396.3346, 4378.955
396.8167, 4346.368
397.2988, 4320.941
397.7809, 4303.213
398.2631, 4280.977
398.7452, 4244.695
399.2273, 4201.618
399.7094, 4168.874
400.1915, 4149.659
400.6736, 4134.076
401.1558, 4117.414
401.6379, 4102.129
402.1200, 4095.149
402.6021, 4097.856
403.0842, 4098.252
403.5663, 4080.609
404.0485, 4038.693
404.5306, 4010.856
405.0127, 4006.642
405.4948, 4004.743
405.9769, 4000.028
406.4590, 3989.802
406.9412, 3968.054
407.4233, 3930.291
407.9054, 3885.468
408.3875, 3860.692
408.8696, 3863.480
409.3517, 3871.244
409.8339, 3887.940
410.3160, 3903.109
410.7981, 3908.361
411.2802, 3903.264
411.7623, 3894.500
412.2444, 3885.717
412.7266, 3877.576
413.2087, 3873.088
413.6908, 3872.848
414.1729, 3875.309
414.6550, 3879.828
415.1371, 3886.379
415.6193, 3895.904
416.1014, 3913.314
416.5835, 3927.554
417.0656, 3926.203
417.5477, 3914.430
418.0298, 3907.673
418.5120, 3910.548
418.9941, 3922.229
419.4762, 3943.085
419.9583, 3978.211
420.4404, 4006.510
420.9225, 4027.982
421.4047, 4041.994
421.8868, 4040.662
422.3689, 4029.993
422.8510, 4030.423
423.3331, 4058.283
423.8152, 4105.692
424.2974, 4129.297
424.7795, 4107.675
425.2616, 4093.773
425.7437, 4098.867
426.2258, 4111.858
426.7079, 4123.867
427.1901, 4132.667
427.6722, 4139.850
428.1543, 4146.599
428.6364, 4152.941
429.1185, 4160.379
429.6006, 4171.440
430.0828, 4179.114
430.5649, 4174.051
431.0470, 4162.705
431.5291, 4159.160
432.0112, 4172.922
432.4933, 4188.898
432.9755, 4193.380
433.4576, 4188.801
433.9397, 4184.335
434.4218, 4182.747
434.9039, 4183.958
435.3860, 4188.559
435.8682, 4198.682
436.3503, 4205.370
436.8324, 4201.943
437.3145, 4199.928
437.7966, 4210.216
438.2787, 4230.187
438.7609, 4248.715
439.2430, 4258.477
439.7251, 4260.774
440.2072, 4261.635
440.6893, 4257.861
441.1714, 4258.128
441.6536, 4261.242
442.1357, 4269.872
442.6178, 4289.654
443.0999, 4320.165
443.5820, 4349.462
444.0641, 4362.885
444.5463, 4364.021
445.0284, 4377.158
445.5105, 4408.974
445.9926, 4439.149
446.4747, 4447.312
446.9568, 4445.690
447.4390, 4457.958
447.9211, 4492.609
448.4032, 4535.198
448.8853, 4581.523
449.3674, 4628.354
449.8495, 4668.178
450.3317, 4698.087
450.8138, 4722.902
451.2959, 4747.295
451.7780, 4768.861
452.2601, 4801.263
452.7422, 4852.487
453.2244, 4905.752
453.7065, 4954.375
454.1886, 4998.322
454.6707, 5037.221
455.1528, 5069.823
455.6349, 5103.226
456.1171, 5156.771
456.5992, 5240.150
457.0813, 5315.861
457.5634, 5370.658
458.0455, 5422.887
458.5276, 5483.242
459.0098, 5551.416
459.4919, 5620.113
459.9740, 5687.935
460.4561, 5752.614
460.9382, 5806.008
461.4203, 5847.303
461.9025, 5894.188
462.3846, 5960.841
462.8667, 6035.589
463.3488, 6090.548
463.8309, 6120.349
464.3130, 6145.608
464.7952, 6174.388
465.2773, 6200.206
465.7594, 6210.959
466.2415, 6207.660
466.7236, 6208.387
467.2057, 6230.741
467.6879, 6273.040
468.1700, 6299.916
468.6521, 6294.555
469.1342, 6293.250
469.6163, 6312.764
470.0984, 6333.387
470.5806, 6330.156
471.0627, 6297.611
471.5448, 6260.422
472.0269, 6247.590
472.5090, 6256.618
472.9911, 6259.063
473.4733, 6252.506
473.9554, 6240.383
474.4375, 6225.682
474.9196, 6206.905
475.4017, 6179.081
475.8839, 6130.591
476.3660, 6087.059
476.8481, 6069.325
477.3302, 6068.303
477.8123, 6064.707
478.2944, 6053.107
478.7766, 6036.755
479.2587, 6019.767
479.7408, 6002.465
480.2229, 5982.554
480.7050, 5951.987
481.1871, 5927.687
481.6693, 5919.525
482.1514, 5921.667
482.6335, 5925.387
483.1156, 5927.020
483.5977, 5925.585
484.0798, 5917.579
484.5620, 5901.322
485.0441, 5890.607
485.5262, 5888.549
486.0083, 5891.086
486.4904, 5897.432
486.9725, 5906.122
487.4547, 5912.081
487.9368, 5911.316
488.4189, 5908.878
488.9010, 5907.381
489.3831, 5907.922
489.8652, 5915.538
490.3474, 5932.299
490.8295, 5956.373
491.3116, 5985.286
491.7937, 6019.296
492.2758, 6058.503
492.7579, 6110.196
493.2401, 6160.158
493.7222, 6197.097
494.2043, 6226.031
494.6864, 6259.734
495.1685, 6305.200
495.6506, 6359.716
496.1328, 6418.510
496.6149, 6484.069
497.0970, 6546.221
497.5791, 6600.577
498.0612, 6653.401
498.5433, 6707.903
499.0254, 6764.239
499.5075, 6821.359
499.9897, 6883.507
500.4718, 6943.217
500.9539, 6991.509
501.4360, 7028.854
501.9181, 7061.508
502.4002, 7094.953
502.8824, 7118.407
503.3645, 7111.248
503.8466, 7063.437
504.3287, 7007.518
504.8108, 6942.461
505.2929, 6871.164
505.7751, 6799.512
506.2572, 6723.344
506.7393, 6629.309
507.2214, 6509.200
507.7035, 6372.020
508.1856, 6239.578
508.6678, 6111.462
509.1499, 5990.850
509.6320, 5889.656
510.1141, 5785.864
510.5962, 5658.688
511.0783, 5512.882
511.5605, 5376.667
512.0426, 5270.020
512.5247, 5173.072
513.0068, 5062.031
513.4890, 4939.063
513.9711, 4815.028
514.4532, 4691.841
514.9353, 4577.186
515.4174, 4487.517
515.8995, 4434.313
516.3817, 4378.729
516.8638, 4318.363
517.3459, 4258.132
517.8280, 4200.365
518.3101, 4145.360
518.7922, 4094.454
519.2744, 4048.525
519.7565, 4004.421
520.2386, 3950.774
520.7207, 3882.847
521.2028, 3837.312
521.6849, 3831.399
522.1671, 3837.682
522.6492, 3836.745
523.1313, 3829.641
523.6134, 3821.078
524.0955, 3812.029
524.5776, 3802.482
525.0598, 3789.490
525.5419, 3775.654
526.0240, 3769.262
526.5061, 3773.350
526.9882, 3784.413
527.4703, 3798.089
527.9525, 3816.256
528.4346, 3829.859
528.9167, 3826.823
529.3988, 3832.552
529.8809, 3864.691
530.3630, 3909.977
530.8452, 3946.054
531.3273, 3963.402
531.8094, 3975.190
532.2915, 4001.314
532.7736, 4040.807
533.2557, 4068.889
533.7379, 4075.955
534.2200, 4085.336
534.7021, 4115.303
535.1842, 4162.285
535.6663, 4214.985
536.1484, 4287.798
536.6306, 4348.260
537.1127, 4367.437
537.5948, 4369.365
538.0769, 4392.542
538.5590, 4445.004
539.0411, 4504.658
539.5233, 4549.141
540.0054, 4578.121
540.4875, 4605.622
540.9696, 4638.466
541.4517, 4659.301
541.9338, 4653.953
542.4160, 4640.887
542.8981, 4642.104
543.3802, 4661.987
543.8623, 4678.469
544.3444, 4673.282
544.8265, 4652.565
545.3087, 4628.081
545.7908, 4600.223
546.2729, 4577.010
546.7550, 4566.417
547.2371, 4561.633
547.7192, 4540.782
548.2014, 4499.036
548.6835, 4451.204
549.1656, 4396.018
549.6477, 4337.697
550.1298, 4276.836
550.6119, 4215.632
551.0941, 4159.738
551.5762, 4114.285
552.0583, 4074.517
552.5404, 4027.750
553.0225, 3972.976
553.5046, 3916.884
553.9868, 3862.206
554.4689, 3805.953
554.9510, 3742.696
555.4331, 3674.205
555.9152, 3612.268
556.3973, 3567.782
556.8795, 3525.239
557.3616, 3468.099
557.8437, 3402.813
558.3258, 3346.930
558.8079, 3306.563
559.2900, 3276.389
559.7722, 3249.987
560.2543, 3230.087
560.7364, 3200.248
561.2185, 3144.816
561.7006, 3096.082
562.1827, 3066.615
562.6649, 3048.361
563.1470, 3032.065
563.6291, 3015.348
564.1112, 2993.562
564.5933, 2957.966
565.0754, 2913.660
565.5576, 2878.051
566.0397, 2853.618
566.5218, 2831.489
567.0039, 2805.666
567.4860, 2777.422
567.9681, 2752.314
568.4503, 2726.291
568.9324, 2708.497
569.4145, 2705.826
569.8966, 2707.856
570.3787, 2706.024
570.8608, 2700.205
571.3430, 2695.559
571.8251, 2697.011
572.3072, 2700.160
572.7893, 2689.029
573.2714, 2659.036
573.7535, 2644.799
574.2357, 2668.372
574.7178, 2695.700
575.1999, 2689.479
575.6820, 2653.743
576.1641, 2623.177
576.6462, 2606.141
577.1284, 2596.355
577.6105, 2591.859
578.0926, 2591.187
578.5747, 2591.911
579.0568, 2593.232
579.5389, 2595.904
580.0211, 2602.533
580.5032, 2614.367
580.9852, 2613.237
581.4673, 2588.284
581.9495, 2565.679
582.4316, 2552.561
582.9137, 2546.740
583.3958, 2546.636
583.8779, 2552.277
584.3600, 2559.323
584.8422, 2567.323
585.3243, 2573.985
585.8064, 2575.609
586.2885, 2572.105
586.7706, 2565.009
587.2527, 2554.813
587.7349, 2542.481
588.2170, 2530.426
588.6991, 2516.753
589.1812, 2507.099
589.6633, 2504.455
590.1454, 2502.604
590.6276, 2498.238
591.1097, 2492.079
591.5918, 2485.410
592.0739, 2477.689
592.5560, 2473.432
593.0381, 2484.249
593.5203, 2505.262
594.0024, 2508.472
594.4845, 2485.877
594.9666, 2460.825
595.4487, 2452.568
595.9308, 2459.272
596.4130, 2462.342
596.8951, 2462.603
597.3772, 2458.654
597.8593, 2443.793
598.3414, 2428.970
598.8235, 2426.719
599.3057, 2435.830
599.7878, 2443.669
600.2699, 2441.244
600.7520, 2430.720
601.2341, 2391.857
601.7162, 2413.220
602.1984, 2422.572
602.6805, 2420.561
603.1626, 2373.147
603.6447, 2384.361
604.1268, 2372.081
604.6089, 2358.836
605.0911, 2378.300
605.5732, 2337.490
606.0553, 2356.437
606.5374, 2351.530
607.0195, 2357.542
607.5016, 2339.911
607.9838, 2329.581
608.4659, 2342.902
608.9480, 2343.127
609.4301, 2322.776
609.9122, 2329.481
610.3943, 2287.844
610.8765, 2288.626
611.3586, 2307.712
611.8407, 2288.549
612.3228, 2295.686
612.8049, 2277.816
613.2870, 2278.634
613.7692, 2278.232
614.2513, 2277.720
614.7334, 2276.474
615.2155, 2272.177
615.6976, 2263.935
616.1797, 2255.176
616.6619, 2251.721
617.1440, 2254.405
617.6261, 2254.476
618.1082, 2252.079
618.5903, 2246.778
619.0724, 2235.885
619.5546, 2223.145
620.0367, 2214.031
620.5188, 2210.324
621.0009, 2204.486
621.4830, 2186.744
621.9651, 2169.399
622.4473, 2172.125
622.9294, 2189.638
623.4115, 2196.759
623.8936, 2179.995
624.3757, 2150.691
624.8578, 2130.385
625.3400, 2120.008
625.8221, 2116.139
626.3042, 2126.034
626.7863, 2133.380
627.2684, 2130.803
627.7505, 2121.007
628.2327, 2106.664
628.7148, 2085.170
629.1969, 2070.417
629.6790, 2077.092
630.1611, 2091.997
630.6432, 2096.311
631.1254, 2089.429
631.6075, 2080.534
632.0896, 2074.930
632.5717, 2071.661
633.0538, 2068.941
633.5359, 2068.914
634.0181, 2063.113
634.5002, 2041.931
634.9823, 2024.626
635.4644, 2023.821
635.9465, 2033.002
636.4286, 2038.826
636.9108, 2037.747
637.3929, 2032.848
637.8750, 2024.482
638.3571, 1983.139
638.8392, 2006.976
639.3214, 2018.802
639.8035, 2019.265
640.2856, 1974.325
640.7677, 1988.013
641.2498, 1978.206
641.7319, 1967.435
642.2141, 1989.374
642.6962, 1951.037
643.1783, 1972.459
643.6604, 1970.026
644.1425, 1978.510
644.6246, 1967.786
645.1068, 1971.984
645.5889, 1973.433
646.0710, 1960.856
646.5531, 1942.799
647.0352, 1931.598
647.5173, 1929.143
647.9995, 1935.388
648.4816, 1952.067
648.9637, 1973.083
649.4458, 1977.596
649.9279, 1957.441
650.4100, 1943.347
650.8922, 1943.770
651.3743, 1945.043
651.8564, 1939.430
652.3385, 1928.987
652.8206, 1918.513
653.3027, 1907.607
653.7849, 1900.153
654.2670, 1898.708
654.7491, 1902.052
655.2312, 1911.847
655.7133, 1926.112
656.1954, 1934.198
656.6776, 1928.237
657.1597, 1913.634
657.6418, 1905.433
658.1239, 1904.751
658.6060, 1906.874
659.0881, 1916.728
659.5703, 1922.725
660.0524, 1914.912
660.5345, 1898.696
661.0166, 1886.696
661.4987, 1883.044
661.9808, 1879.900
662.4630, 1871.438
662.9451, 1862.646
663.4272, 1860.015
663.9093, 1863.198
664.3914, 1867.482
664.8735, 1870.040
665.3557, 1871.744
665.8378, 1875.277
666.3199, 1881.495
666.8020, 1883.074
667.2841, 1876.952
667.7662, 1870.119
668.2484, 1867.692
668.7305, 1867.653
669.2126, 1865.557
669.6947, 1859.756
670.1768, 1854.921
670.6589, 1852.138
671.1411, 1851.288
671.6232, 1852.130
672.1053, 1854.806
672.5874, 1861.313
673.0695, 1873.207
673.5516, 1883.488
674.0338, 1878.968
674.5159, 1860.096
674.9980, 1842.263
675.4801, 1824.035
675.9622, 1815.322
676.4443, 1825.397
676.9265, 1847.471
677.4086, 1865.582
677.8907, 1882.743
678.3728, 1889.112
678.8549, 1874.245
679.3370, 1856.944
679.8192, 1844.463
680.3013, 1839.464
680.7834, 1849.106
681.2655, 1876.108
681.7476, 1900.386
682.2297, 1894.142
682.7119, 1866.297
683.1940, 1849.113
683.6761, 1844.560
684.1582, 1846.621
684.6403, 1854.724
685.1224, 1863.855
685.6046, 1864.346
686.0867, 1851.833
686.5688, 1844.723
687.0509, 1849.296
687.5330, 1851.645
688.0151, 1840.765
688.4973, 1827.732
688.9794, 1829.791
689.4615, 1849.910
689.9436, 1867.977
690.4257, 1866.464
690.9078, 1855.848
691.3900, 1850.497
691.8721, 1850.605
692.3542, 1855.959
692.8363, 1866.789
693.3184, 1878.910
693.8005, 1887.627
694.2827, 1893.141
694.7648, 1890.095
695.2469, 1868.493
695.7290, 1854.498
696.2111, 1857.323
696.6932, 1867.934
697.1754, 1882.152
697.6575, 1898.437
698.1396, 1908.749
698.6217, 1905.349
699.1038, 1899.689
699.5859, 1900.496
700.0681, 1904.719
700.5502, 1906.042
701.0323, 1903.735
701.5144, 1903.977
701.9965, 1913.654
702.4786, 1927.926
702.9608, 1926.393
703.4429, 1905.065
703.9250, 1889.924
704.4071, 1886.049
704.8892, 1889.356
705.3713, 1899.154
705.8535, 1913.913
706.3356, 1926.362
706.8177, 1937.273
707.2998, 1944.430
707.7819, 1945.660
708.2640, 1944.233
708.7462, 1940.197
709.2283, 1936.060
709.7104, 1938.522
710.1925, 1952.168
710.6746, 1967.783
711.1567, 1972.290
711.6389, 1967.896
712.1210, 1962.511
712.6031, 1956.601
713.0852, 1957.211
713.5673, 1969.696
714.0494, 1989.633
714.5316, 2006.906
715.0137, 2024.359
715.4958, 2032.094
715.9779, 2014.567
716.4600, 2004.899
716.9421, 2021.593
717.4243, 2050.969
717.9064, 2075.864
718.3885, 2092.702
718.8706, 2101.332
719.3527, 2093.003
719.8348, 2082.746
720.3170, 2088.454
720.7991, 2106.999
721.2812, 2128.905
721.7633, 2150.593
722.2454, 2168.432
722.7275, 2177.058
723.2097, 2177.443
723.6918, 2180.743
724.1739, 2186.043
724.6560, 2197.625
725.1381, 2219.045
725.6202, 2244.647
726.1024, 2270.773
726.5845, 2296.949
727.0666, 2315.734
727.5487, 2321.498
728.0308, 2326.177
728.5129, 2334.862
728.9951, 2343.533
729.4772, 2345.329
729.9593, 2342.548
730.4414, 2345.020
730.9235, 2358.183
731.4056, 2380.204
731.8878, 2415.123
732.3699, 2457.490
732.8520, 2482.141
733.3341, 2485.198
733.8162, 2486.899
734.2983, 2500.054
734.7805, 2521.488
735.2626, 2543.147
735.7447, 2567.657
736.2268, 2586.002
736.7089, 2594.211
737.1910, 2600.477
737.6732, 2605.597
738.1553, 2611.753
738.6374, 2622.551
739.1195, 2639.094
739.6016, 2655.762
740.0837, 2672.863
740.5659, 2686.786
741.0480, 2695.354
741.5301, 2697.951
742.0122, 2691.738
742.4943, 2676.721
742.9764, 2660.574
743.4586, 2651.555
743.9407, 2647.623
744.4228, 2638.771
744.9049, 2624.281
745.3870, 2617.926
745.8691, 2626.433
746.3513, 2636.294
746.8334, 2633.763
747.3155, 2619.629
747.7976, 2607.343
748.2797, 2596.473
748.7618, 2587.862
749.2440, 2582.414
749.7261, 2578.471
750.2082, 2575.656
750.6903, 2573.312
751.1724, 2570.230
751.6545, 2566.069
752.1367, 2560.846
752.6188, 2552.427
753.1009, 2544.101
753.5830, 2544.907
754.0651, 2551.424
754.5472, 2544.873
755.0294, 2515.880
755.5115, 2482.948
755.9936, 2477.970
756.4757, 2501.096
756.9578, 2513.788
757.4399, 2512.829
757.9221, 2513.295
758.4042, 2521.986
758.8863, 2533.562
759.3684, 2541.339
759.8505, 2544.950
760.3326, 2547.068
760.8148, 2548.012
761.2969, 2547.061
761.7790, 2540.745
762.2611, 2534.843
762.7432, 2535.105
763.2253, 2541.187
763.7075, 2548.872
764.1896, 2557.845
764.6717, 2564.454
765.1538, 2562.591
765.6359, 2556.698
766.1180, 2554.081
766.6002, 2556.196
767.0823, 2564.441
767.5644, 2579.810
768.0465, 2600.264
768.5286, 2623.647
769.0107, 2650.892
769.4929, 2667.363
769.9750, 2667.537
770.4571, 2671.063
770.9392, 2689.831
771.4213, 2714.707
771.9034, 2730.474
772.3856, 2735.440
772.8677, 2741.712
773.3498, 2744.869
773.8319, 2755.228
774.3140, 2781.911
774.7961, 2813.890
775.2783, 2841.717
775.7604, 2863.429
776.2425, 2878.803
776.7246, 2882.850
777.2067, 2887.227
777.6888, 2904.229
778.1710, 2929.757
778.6531, 2956.568
779.1352, 2983.278
779.6173, 3009.294
780.0994, 3033.785
780.5815, 3059.082
781.0637, 3090.786
781.5458, 3129.107
782.0279, 3167.206
782.5100, 3205.542
782.9921, 3239.928
783.4742, 3266.210
783.9564, 3289.149
784.4385, 3315.941
784.9206, 3345.575
785.4027, 3383.897
785.8848, 3440.088
786.3669, 3493.177
786.8491, 3533.911
787.3312, 3570.771
787.8133, 3614.376
788.2954, 3663.682
788.7775, 3706.896
789.2596, 3727.983
789.7418, 3755.573
790.2239, 3819.984
790.7060, 3901.101
791.1881, 3967.635
791.6702, 4018.798
792.1523, 4073.510
792.6345, 4142.756
793.1166, 4220.814
793.5987, 4300.796
794.0808, 4381.877
794.5629, 4456.899
795.0450, 4525.010
795.5272, 4591.708
796.0093, 4657.788
796.4914, 4727.731
796.9735, 4809.838
797.4556, 4906.456
797.9377, 4994.708
798.4199, 5066.124
798.9020, 5141.525
799.3841, 5232.857
799.8662, 5322.808
800.3483, 5392.979
800.8304, 5447.476
801.3126, 5510.389
801.7947, 5598.330
802.2768, 5678.356
802.7589, 5728.997
803.2410, 5770.509
803.7231, 5829.971
804.2053, 5897.233
804.6874, 5937.779
805.1695, 5935.522
805.6516, 5928.589
806.1337, 5968.619
806.6158, 6031.106
807.0980, 6052.792
807.5801, 6037.965
808.0622, 6034.111
808.5443, 6058.146
809.0264, 6084.293
809.5085, 6083.274
809.9907, 6058.151
810.4728, 6035.162
810.9549, 6017.454
811.4370, 5989.156
811.9191, 5938.892
812.4012, 5890.949
812.8834, 5866.732
813.3655, 5859.565
813.8476, 5843.827
814.3297, 5814.034
814.8118, 5787.065
815.2939, 5763.917
815.7761, 5744.251
816.2582, 5725.331
816.7403, 5710.934
817.2224, 5712.064
817.7045, 5729.848
818.1866, 5734.447
818.6688, 5697.278
819.1509, 5651.451
819.6330, 5618.123
820.1151, 5599.729
820.5972, 5608.747
821.0793, 5640.250
821.5615, 5659.324
822.0436, 5638.876
822.5257, 5602.302
823.0078, 5597.250
823.4899, 5616.742
823.9720, 5615.506
824.4542, 5588.574
824.9363, 5553.319
825.4184, 5516.719
825.9005, 5483.859
826.3826, 5465.420
826.8647, 5464.293
827.3469, 5450.265
827.8290, 5415.713
828.3111, 5383.787
828.7932, 5356.311
829.2753, 5338.429
829.7574, 5336.790
830.2396, 5349.801
830.7217, 5367.421
831.2038, 5393.200
831.6859, 5417.627
832.1680, 5434.637
832.6501, 5453.932
833.1323, 5483.269
833.6144, 5519.867
834.0965, 5556.143
834.5786, 5588.945
835.0607, 5630.981
835.5428, 5699.670
836.0250, 5773.850
836.5071, 5820.925
836.9892, 5858.255
837.4713, 5928.792
837.9534, 6039.366
838.4355, 6155.215
838.9177, 6243.655
839.3998, 6328.084
839.8819, 6466.852
840.3640, 6649.912
840.8461, 6804.699
841.3282, 6919.741
841.8104, 7053.013
842.2925, 7241.638
842.7746, 7456.306
843.2567, 7634.680
843.7388, 7766.611
844.2209, 7946.518
844.7031, 8189.452
845.1852, 8446.771
845.6673, 8708.418
846.1494, 8971.462
846.6315, 9232.524
847.1136, 9491.628
847.5958, 9766.702
848.0779, 10062.37
848.5600, 10366.58
849.0421, 10689.81
849.5242, 11011.10
850.0063, 11332.19
850.4885, 11638.92
850.9706, 11908.75
851.4527, 12136.91
851.9348, 12324.73
852.4169, 12467.40
852.8990, 12575.00
853.3812, 12668.29
853.8633, 12727.18
854.3454, 12718.23
854.8275, 12637.51
855.3096, 12506.89
855.7917, 12340.25
856.2739, 12131.34
856.7560, 11861.74
857.2381, 11545.89
857.7202, 11218.57
858.2023, 10883.78
858.6844, 10532.73
859.1666, 10158.45
859.6487, 9782.794
860.1308, 9436.858
860.6129, 9118.541
861.0950, 8810.465
861.5771, 8510.096
862.0593, 8225.374
862.5414, 7957.407
863.0235, 7713.077
863.5056, 7500.963
863.9877, 7317.300
864.4698, 7145.466
864.9520, 6989.273
865.4341, 6834.132
865.9162, 6674.096
866.3983, 6522.173
866.8804, 6385.419
867.3625, 6261.433
867.8447, 6147.080
868.3268, 6042.157
868.8089, 5949.710
869.2910, 5891.569
869.7731, 5819.152
870.2552, 5702.297
870.7374, 5575.848
871.2195, 5468.718
871.7016, 5380.511
872.1837, 5297.658
872.6658, 5217.592
873.1479, 5135.995
873.6301, 5052.241
874.1122, 4963.249
874.5943, 4863.004
875.0764, 4755.314
875.5585, 4644.574
876.0406, 4532.842
876.5228, 4431.009
877.0049, 4353.796
877.4870, 4283.761
877.9691, 4194.677
878.4512, 4090.955
878.9333, 3978.869
879.4155, 3862.819
879.8976, 3764.088
880.3797, 3696.093
880.8618, 3641.054
881.3439, 3569.679
881.8260, 3484.495
882.3082, 3410.031
882.7903, 3347.161
883.2724, 3288.410
883.7545, 3232.958
884.2366, 3175.810
884.7188, 3111.615
885.2009, 3042.510
885.6830, 2978.451
886.1651, 2915.745
886.6472, 2872.175
887.1293, 2858.823
887.6115, 2845.918
888.0936, 2819.239
888.5757, 2783.618
889.0578, 2745.486
889.5399, 2703.660
890.0220, 2667.102
890.5042, 2640.047
890.9863, 2611.998
891.4684, 2578.682
891.9505, 2545.788
892.4326, 2515.052
892.9147, 2488.330
893.3969, 2472.183
893.8790, 2475.652
894.3611, 2466.646
894.8432, 2429.083
895.3253, 2383.575
895.8074, 2333.433
896.2896, 2288.215
896.7717, 2263.727
897.2538, 2258.997
897.7359, 2252.197
898.2180, 2234.383
898.7001, 2208.147
899.1823, 2164.365
899.6644, 2120.916
900.1465, 2106.031
900.6286, 2111.217
901.1107, 2106.687
901.5928, 2081.417
902.0750, 2049.864
902.5571, 2022.129
903.0392, 1999.018
903.5213, 1982.239
904.0034, 1970.873
904.4855, 1964.719
904.9677, 1962.362
905.4498, 1955.432
905.9319, 1938.058
906.4140, 1915.578
906.8961, 1896.368
907.3782, 1880.164
907.8604, 1865.860
908.3425, 1853.418
908.8246, 1842.964
909.3067, 1834.836
909.7888, 1825.301
910.2709, 1809.855
910.7530, 1790.464
911.2351, 1774.650
911.7172, 1761.671
912.1993, 1761.214
912.6815, 1780.579
913.1636, 1788.038
913.6457, 1761.761
914.1278, 1723.987
914.6099, 1712.047
915.0920, 1728.828
915.5742, 1728.692
916.0563, 1700.981
916.5384, 1679.181
917.0205, 1673.355
917.5026, 1670.140
917.9847, 1659.819
918.4669, 1644.943
918.9490, 1633.023
919.4311, 1624.564
919.9132, 1617.523
920.3953, 1614.520
920.8774, 1609.597
921.3596, 1596.794
921.8417, 1584.311
922.3238, 1581.796
922.8059, 1587.490
923.2880, 1589.805
923.7701, 1580.992
924.2523, 1578.835
924.7344, 1597.257
925.2165, 1613.814
925.6986, 1611.320
926.1807, 1599.531
926.6628, 1593.358
927.1450, 1595.058
927.6271, 1598.002
928.1092, 1603.749
928.5913, 1604.620
929.0734, 1592.443
929.5555, 1576.449
930.0377, 1565.349
930.5198, 1558.810
931.0019, 1553.461
931.4840, 1548.174
931.9661, 1544.266
932.4482, 1544.013
932.9304, 1544.299
933.4125, 1540.106
933.8946, 1535.177
934.3767, 1538.627
934.8588, 1548.492
935.3409, 1550.670
935.8231, 1536.825
936.3052, 1522.636
936.7873, 1528.710
937.2694, 1543.932
937.7515, 1549.831
938.2336, 1547.689
938.7158, 1543.501
939.1979, 1538.752
939.6800, 1531.613
940.1621, 1519.922
940.6442, 1507.862
941.1263, 1503.095
941.6085, 1503.832
942.0906, 1505.351
942.5727, 1506.758
943.0548, 1504.059
943.5369, 1495.903
944.0190, 1487.865
944.5012, 1485.674
944.9833, 1487.813
945.4654, 1491.072
945.9475, 1495.028
946.4296, 1493.494
946.9117, 1485.701
947.3939, 1479.994
947.8760, 1480.716
948.3581, 1483.183
948.8402, 1480.022
949.3223, 1472.730
949.8044, 1475.885
950.2866, 1491.001
950.7687, 1497.146
951.2508, 1488.812
951.7329, 1482.545
952.2150, 1490.216
952.6971, 1502.208
953.1793, 1499.209
953.6614, 1479.975
954.1435, 1465.417
954.6256, 1455.301
955.1077, 1451.038
955.5898, 1454.337
956.0720, 1460.314
956.5541, 1465.886
957.0362, 1470.763
957.5183, 1474.200
958.0004, 1476.179
958.4825, 1476.565
958.9647, 1474.589
959.4468, 1472.469
959.9289, 1469.146
960.4110, 1468.437
960.8931, 1475.007
961.3752, 1487.174
961.8574, 1497.462
962.3395, 1512.084
962.8216, 1510.252
963.3037, 1472.659
963.7858, 1447.762
964.2679, 1462.950
964.7501, 1490.056
965.2322, 1499.385
965.7143, 1492.369
966.1964, 1486.410
966.6785, 1481.134
967.1606, 1477.541
967.6428, 1476.744
968.1249, 1476.289
968.6070, 1476.632
969.0891, 1475.826
969.5712, 1469.879
970.0533, 1458.916
970.5355, 1452.884
971.0176, 1452.461
971.4997, 1457.028
971.9818, 1476.627
972.4639, 1490.344
972.9460, 1480.969
973.4282, 1461.370
973.9103, 1451.126
974.3924, 1452.072
974.8745, 1454.154
975.3566, 1455.968
975.8387, 1458.632
976.3209, 1465.872
976.8030, 1470.651
977.2851, 1466.372
977.7672, 1457.022
978.2493, 1450.079
978.7314, 1446.706
979.2136, 1443.266
979.6957, 1436.304
980.1778, 1432.542
980.6599, 1438.392
981.1420, 1444.622
981.6241, 1442.668
982.1063, 1435.664
982.5884, 1432.122
983.0705, 1434.393
983.5526, 1432.891
984.0347, 1423.502
984.5168, 1411.283
984.9990, 1392.883
985.4811, 1377.316
985.9632, 1373.102
986.4453, 1378.348
986.9274, 1388.526
987.4095, 1404.445
987.8917, 1413.163
988.3738, 1406.461
988.8559, 1395.706
989.3380, 1384.825
989.8201, 1374.242
990.3022, 1363.340
990.7844, 1352.937
991.2665, 1343.982
991.7486, 1335.135
992.2307, 1335.904
992.7128, 1363.915
993.1949, 1386.824
993.6771, 1378.260
994.1592, 1360.070
994.6413, 1358.346
995.1234, 1370.013
995.6055, 1374.596
996.0876, 1363.808
996.5698, 1355.601
997.0519, 1360.057
997.5340, 1367.314
998.0161, 1374.303
998.4982, 1378.417
998.9803, 1374.776
999.4625, 1365.714
999.9446, 1360.288
1000.427, 1361.969
1000.909, 1365.193
1001.391, 1368.434
1001.873, 1371.278
1002.355, 1376.325
1002.837, 1378.891
1003.319, 1371.542
1003.802, 1356.168
1004.284, 1340.691
1004.766, 1324.456
1005.248, 1320.176
1005.730, 1350.091
1006.212, 1376.126
1006.694, 1365.723
1007.176, 1341.261
1007.658, 1329.854
1008.141, 1332.428
1008.623, 1337.569
1009.105, 1343.326
1009.587, 1345.289
1010.069, 1336.660
1010.551, 1328.891
1011.033, 1330.433
1011.515, 1336.461
1011.997, 1342.632
1012.480, 1347.359
1012.962, 1348.162
1013.444, 1343.830
1013.926, 1336.864
1014.408, 1320.979
1014.890, 1310.988
1015.372, 1322.354
1015.854, 1340.344
1016.337, 1347.966
1016.819, 1345.283
1017.301, 1340.757
1017.783, 1336.290
1018.265, 1331.658
1018.747, 1330.116
1019.229, 1324.488
1019.711, 1302.117
1020.193, 1279.783
1020.676, 1279.001
1021.158, 1295.717
1021.640, 1309.603
1022.122, 1317.568
1022.604, 1316.464
1023.086, 1295.451
1023.568, 1276.876
1024.050, 1274.281
1024.533, 1277.597
1025.015, 1273.860
1025.497, 1266.504
1025.979, 1271.593
1026.461, 1298.286
1026.943, 1316.406
1027.425, 1311.580
1027.907, 1305.937
1028.390, 1311.291
1028.872, 1317.973
1029.354, 1316.094
1029.836, 1307.739
1030.318, 1301.744
1030.800, 1301.672
1031.282, 1295.286
1031.764, 1265.416
1032.246, 1248.686
1032.729, 1271.466
1033.211, 1299.801
1033.693, 1305.137
1034.175, 1293.824
1034.657, 1285.406
1035.139, 1281.806
1035.621, 1279.015
1036.103, 1270.809
1036.585, 1271.471
1037.068, 1297.722
1037.550, 1321.144
1038.032, 1315.798
1038.514, 1294.070
1038.996, 1284.871
1039.478, 1290.633
1039.960, 1298.116
1040.442, 1314.879
1040.925, 1321.158
1041.407, 1306.182
1041.889, 1289.288
1042.371, 1282.076
1042.853, 1280.951
1043.335, 1279.039
1043.817, 1275.861
1044.299, 1276.731
1044.781, 1284.344
1045.264, 1290.003
1045.746, 1291.844
1046.228, 1292.759
1046.710, 1294.662
1047.192, 1296.027
1047.674, 1293.766
1048.156, 1288.006
1048.638, 1287.347
1049.120, 1294.120
1049.603, 1297.691
1050.085, 1296.161
1050.567, 1293.638
1051.049, 1292.590
1051.531, 1289.956
1052.013, 1280.569
1052.495, 1266.327
1052.977, 1261.500
1053.460, 1267.525
1053.942, 1272.258
1054.424, 1275.451
1054.906, 1270.141
1055.388, 1251.515
1055.870, 1235.068
1056.352, 1238.804
1056.834, 1255.792
1057.317, 1263.141
1057.799, 1261.120
1058.281, 1255.656
1058.763, 1247.196
1059.245, 1245.355
1059.727, 1253.386
1060.209, 1260.785
1060.691, 1258.417
1061.173, 1250.732
1061.656, 1246.190
1062.138, 1244.530
1062.620, 1244.199
1063.102, 1245.490
1063.584, 1252.564
1064.066, 1265.343
1064.548, 1272.879
1065.030, 1267.282
1065.512, 1258.448
1065.995, 1262.219
1066.477, 1272.066
1066.959, 1274.089
1067.441, 1269.961
1067.923, 1264.293
1068.405, 1258.347
1068.887, 1252.150
1069.369, 1245.615
1069.852, 1242.268
1070.334, 1250.785
1070.816, 1259.819
1071.298, 1251.360
1071.780, 1235.758
1072.262, 1230.199
1072.744, 1233.526
1073.226, 1234.352
1073.708, 1229.150
1074.191, 1227.982
1074.673, 1246.943
1075.155, 1261.301
1075.637, 1240.851
1076.119, 1216.658
1076.601, 1227.325
1077.083, 1256.691
1077.565, 1268.907
1078.047, 1258.347
1078.530, 1248.677
1079.012, 1251.255
1079.494, 1252.978
1079.976, 1245.545
1080.458, 1239.087
1080.940, 1240.308
1081.422, 1246.338
1081.904, 1256.337
1082.386, 1268.097
1082.869, 1270.525
1083.351, 1254.896
1083.833, 1244.809
1084.315, 1247.633
1084.797, 1251.049
1085.279, 1255.904
1085.761, 1254.842
1086.243, 1231.606
1086.726, 1198.816
1087.208, 1197.197
1087.690, 1238.681
1088.172, 1262.979
1088.654, 1265.456
1089.136, 1259.395
1089.618, 1239.777
1090.100, 1228.136
1090.583, 1243.322
1091.065, 1267.127
1091.547, 1265.058
1092.029, 1238.119
1092.511, 1226.165
1092.993, 1231.572
1093.475, 1235.107
1093.957, 1233.817
1094.439, 1236.484
1094.922, 1248.685
1095.404, 1255.572
1095.886, 1237.388
1096.368, 1205.024
1096.850, 1194.014
1097.332, 1201.840
1097.814, 1211.728
1098.296, 1221.869
1098.778, 1228.135
1099.261, 1229.390
1099.743, 1227.733
1100.225, 1224.522
1100.707, 1220.244
1101.189, 1213.042
1101.671, 1206.761
1102.153, 1213.601
1102.635, 1226.653
1103.118, 1224.658
1103.600, 1209.027
1104.082, 1203.449
1104.564, 1219.222
1105.046, 1236.699
1105.528, 1240.807
1106.010, 1238.272
1106.492, 1231.304
1106.974, 1224.382
1107.457, 1221.472
1107.939, 1223.455
1108.421, 1235.273
1108.903, 1256.740
1109.385, 1264.021
1109.867, 1232.923
1110.349, 1206.371
1110.831, 1202.787
1111.313, 1206.016
1111.796, 1208.595
1112.278, 1210.057
1112.760, 1211.126
1113.242, 1211.447
1113.724, 1207.800
1114.206, 1189.301
1114.688, 1189.978
1115.170, 1238.033
1115.653, 1261.319
1116.135, 1221.062
1116.617, 1178.510
1117.099, 1184.559
1117.581, 1215.441
1118.063, 1214.430
1118.545, 1178.242
1119.027, 1167.935
1119.510, 1188.895
1119.992, 1207.894
1120.474, 1220.967
1120.956, 1223.757
1121.438, 1212.882
1121.920, 1198.159
1122.402, 1191.081
1122.884, 1190.359
1123.366, 1192.781
1123.849, 1197.866
1124.331, 1204.445
1124.813, 1211.436
1125.295, 1212.194
1125.777, 1205.592
1126.259, 1198.874
1126.741, 1196.854
1127.223, 1198.211
1127.705, 1204.642
1128.188, 1210.853
1128.670, 1205.459
1129.152, 1195.866
1129.634, 1199.088
1130.116, 1211.396
1130.598, 1213.411
1131.080, 1198.305
1131.562, 1181.997
1132.045, 1170.222
1132.527, 1163.966
1133.009, 1167.164
1133.491, 1172.776
1133.973, 1175.790
1134.455, 1176.910
1134.937, 1177.483
1135.419, 1177.770
1135.901, 1178.401
1136.384, 1176.958
1136.866, 1180.472
1137.348, 1198.401
1137.830, 1208.514
1138.312, 1199.746
1138.794, 1187.047
1139.276, 1181.695
1139.758, 1181.200
1140.240, 1179.764
1140.723, 1177.285
1141.205, 1175.891
1141.687, 1176.064
1142.169, 1172.891
1142.651, 1164.867
1143.133, 1161.310
1143.615, 1166.959
1144.097, 1175.769
1144.580, 1181.812
1145.062, 1184.487
1145.544, 1180.302
1146.026, 1171.702
1146.508, 1165.666
1146.990, 1163.214
1147.472, 1166.642
1147.954, 1175.772
1148.437, 1188.037
1148.919, 1203.006
1149.401, 1211.992
1149.883, 1200.958
1150.365, 1186.355
1150.847, 1182.993
1151.329, 1186.731
1151.811, 1196.007
1152.293, 1206.331
1152.776, 1210.530
1153.258, 1207.046
1153.740, 1196.107
1154.222, 1165.411
1154.704, 1145.921
1155.186, 1155.395
1155.668, 1165.489
1156.150, 1158.594
1156.632, 1148.941
1157.115, 1151.052
1157.597, 1162.293
1158.079, 1174.571
1158.561, 1188.990
1159.043, 1199.804
1159.525, 1210.244
1160.007, 1199.863
1160.489, 1158.333
1160.972, 1130.935
1161.454, 1143.424
1161.936, 1168.534
1162.418, 1171.121
1162.900, 1160.703
1163.382, 1168.973
1163.864, 1189.218
1164.346, 1190.844
1164.828, 1177.008
1165.311, 1172.940
1165.793, 1181.999
1166.275, 1180.198
1166.757, 1151.261
1167.239, 1128.452
1167.721, 1155.360
1168.203, 1189.153
1168.685, 1183.971
1169.167, 1164.575
1169.650, 1161.498
1170.132, 1169.409
1170.614, 1169.465
1171.096, 1158.780
1171.578, 1151.316
1172.060, 1153.284
1172.542, 1154.865
1173.024, 1154.994
1173.507, 1153.595
1173.989, 1148.889
1174.471, 1144.538
1174.953, 1142.958
1175.435, 1144.424
1175.917, 1150.634
1176.399, 1162.178
1176.881, 1167.076
1177.364, 1165.107
1177.846, 1156.103
1178.328, 1139.352
1178.810, 1131.476
1179.292, 1139.805
1179.774, 1151.311
1180.256, 1154.061
1180.738, 1149.993
1181.220, 1136.156
1181.703, 1121.513
1182.185, 1128.612
1182.667, 1149.950
1183.149, 1170.492
1183.631, 1184.996
1184.113, 1186.096
1184.595, 1170.628
1185.077, 1155.363
1185.559, 1148.430
1186.042, 1146.411
1186.524, 1150.374
1187.006, 1155.564
1187.488, 1161.426
1187.970, 1164.497
1188.452, 1157.538
1188.934, 1142.816
1189.416, 1137.030
1189.899, 1145.971
1190.381, 1144.286
1190.863, 1123.292
1191.345, 1117.600
1191.827, 1138.276
1192.309, 1161.187
1192.791, 1173.863
1193.273, 1178.364
1193.755, 1176.535
1194.238, 1169.857
1194.720, 1161.690
1195.202, 1152.898
1195.684, 1147.767
1196.166, 1145.372
1196.648, 1139.459
1197.130, 1130.470
1197.612, 1129.014
1198.094, 1140.912
1198.577, 1153.824
1199.059, 1159.223
1199.541, 1160.463
1200.023, 1158.384
1200.505, 1154.975
1200.987, 1150.832
1201.469, 1147.337
1201.951, 1148.873
1202.434, 1154.149
1202.916, 1149.736
1203.398, 1123.540
1203.880, 1112.404
1204.362, 1125.541
1204.844, 1134.739
1205.326, 1134.780
1205.808, 1125.438
1206.291, 1101.879
1206.773, 1084.000
1207.255, 1103.813
1207.737, 1147.334
1208.219, 1160.662
1208.701, 1149.319
1209.183, 1138.077
1209.665, 1129.501
1210.147, 1125.720
1210.630, 1127.215
1211.112, 1135.662
1211.594, 1152.784
1212.076, 1163.371
1212.558, 1147.248
1213.040, 1129.518
1213.522, 1129.958
1214.004, 1137.228
1214.486, 1144.220
1214.969, 1148.751
1215.451, 1147.495
1215.933, 1141.403
1216.415, 1138.171
1216.897, 1139.635
1217.379, 1140.603
1217.861, 1140.710
1218.343, 1141.000
1218.826, 1141.072
1219.308, 1143.803
1219.790, 1151.533
1220.272, 1159.433
1220.754, 1162.603
1221.236, 1159.602
1221.718, 1139.699
1222.200, 1111.703
1222.682, 1110.260
1223.165, 1127.936
1223.647, 1138.042
1224.129, 1136.577
1224.611, 1132.111
1225.093, 1128.061
1225.575, 1121.294
1226.057, 1100.743
1226.539, 1089.372
1227.021, 1111.990
1227.504, 1134.115
1227.986, 1128.366
1228.468, 1111.798
1228.950, 1102.494
1229.432, 1101.326
1229.914, 1110.026
1230.396, 1131.698
1230.878, 1137.730
1231.361, 1124.068
1231.843, 1115.201
1232.325, 1114.618
1232.807, 1114.436
1233.289, 1111.621
1233.771, 1107.466
1234.253, 1102.910
1234.735, 1098.363
1235.218, 1094.783
1235.700, 1091.371
1236.182, 1087.854
1236.664, 1082.776
1237.146, 1065.960
1237.628, 1047.596
1238.110, 1060.326
1238.592, 1106.396
1239.074, 1130.754
1239.557, 1095.002
1240.039, 1077.401
1240.521, 1115.931
1241.003, 1145.707
1241.485, 1140.883
1241.967, 1131.248
1242.449, 1137.688
1242.931, 1146.607
1243.413, 1135.418
1243.896, 1109.977
1244.378, 1099.906
1244.860, 1103.923
1245.342, 1110.507
1245.824, 1117.895
1246.306, 1119.207
1246.788, 1114.332
1247.270, 1112.287
1247.753, 1117.363
1248.235, 1121.619
1248.717, 1113.808
1249.199, 1109.262
1249.681, 1126.831
1250.163, 1143.675
1250.645, 1138.583
1251.127, 1124.253
1251.609, 1114.248
1252.092, 1110.441
1252.574, 1117.285
1253.056, 1137.940
1253.538, 1138.999
1254.020, 1113.160
1254.502, 1100.822
1254.984, 1107.685
1255.466, 1114.660
1255.948, 1115.054
1256.431, 1116.959
1256.913, 1127.627
1257.395, 1134.163
1257.877, 1109.280
1258.359, 1077.045
1258.841, 1078.126
1259.323, 1094.020
1259.805, 1098.593
1260.288, 1095.355
1260.770, 1096.656
1261.252, 1103.846
1261.734, 1111.726
1262.216, 1121.801
1262.698, 1124.290
1263.180, 1111.083
1263.662, 1102.532
1264.145, 1103.307
1264.627, 1105.164
1265.109, 1103.289
1265.591, 1105.095
1266.073, 1120.377
1266.555, 1138.905
1267.037, 1133.208
1267.519, 1112.156
1268.001, 1106.654
1268.484, 1110.581
##END=



