##NAMES=Carminite
##RRUFFID=R050528
##IDEAL CHEMISTRY=Pb^2+^Fe^3+^_2_(As^5+^O_4_)_2_(OH)_2_
##LOCALITY=Las Animas mine, Benjamin Hill, Sonora, Mexico
##OWNER=RRUFF
##SOURCE=University of Arizona Mineral Museum
##DESCRIPTION=Red prismatic crystals
##STATUS=The identification of this mineral is confirmed by single-crystal X-ray diffraction and chemical analysis.
##URL=rruff.info/R050528
##MEASURED CHEMISTRY=(Pb_0.99_Cu_0.01_)_Σ=1_(Fe^3+^_1.99_Al_0.01_)_Σ=2_(As_1.00_O_4_)_2_(OH)_2_ ; (core) :  (Pb_0.70_Ca_0.30_)_Σ=1_(Fe^3+^_1.99_Al_0.01_)_Σ=2_(As_1.00_O_4_)_2_(OH)_2_ (rim)
92.37695, 290.0108
92.85907, 290.7690
93.34119, 291.0170
93.82330, 288.2047
94.30542, 283.6862
94.78754, 278.7817
95.26965, 273.9209
95.75177, 268.5378
96.23389, 262.2806
96.71600, 255.7836
97.19812, 249.7111
97.68024, 244.1469
98.16235, 239.1425
98.64447, 234.7221
99.12659, 230.7845
99.60870, 227.1198
100.0908, 225.0495
100.5729, 223.4379
101.0551, 220.9984
101.5372, 216.9493
102.0193, 211.6964
102.5014, 207.5666
102.9835, 204.7469
103.4656, 202.8755
103.9478, 202.4119
104.4299, 202.8420
104.9120, 203.2646
105.3941, 202.9157
105.8762, 201.6548
106.3583, 201.1400
106.8405, 201.9069
107.3226, 202.7572
107.8047, 202.9368
108.2868, 202.3987
108.7689, 201.6995
109.2510, 201.4400
109.7332, 201.6418
110.2153, 201.9544
110.6974, 202.3357
111.1795, 202.7981
111.6616, 203.3799
112.1437, 204.1079
112.6259, 204.9085
113.1080, 205.6882
113.5901, 206.4448
114.0722, 207.2536
114.5543, 208.3423
115.0364, 209.6792
115.5185, 210.4939
116.0007, 210.2637
116.4828, 209.6847
116.9649, 209.2734
117.4470, 209.0875
117.9291, 208.6889
118.4112, 207.3157
118.8934, 204.3037
119.3755, 201.9537
119.8576, 200.4331
120.3397, 199.5871
120.8218, 199.4687
121.3039, 200.0835
121.7861, 201.1473
122.2682, 201.8430
122.7503, 201.3939
123.2324, 201.4043
123.7145, 202.0019
124.1966, 203.1250
124.6788, 204.6828
125.1609, 206.6510
125.6430, 209.0111
126.1251, 211.6077
126.6072, 214.4678
127.0893, 217.4700
127.5715, 220.5514
128.0536, 223.7291
128.5357, 227.0618
129.0178, 230.6569
129.4999, 234.4856
129.9821, 238.2717
130.4642, 242.3713
130.9463, 246.2629
131.4284, 249.4649
131.9105, 251.9543
132.3926, 253.7735
132.8748, 254.8938
133.3569, 255.4115
133.8390, 255.2787
134.3211, 253.9589
134.8032, 251.8961
135.2853, 250.5955
135.7674, 250.2146
136.2496, 250.5259
136.7317, 251.4953
137.2138, 252.9854
137.6959, 254.6659
138.1780, 256.2700
138.6601, 257.7701
139.1423, 259.4993
139.6244, 261.5893
140.1065, 263.8141
140.5886, 266.1142
141.0707, 268.4754
141.5528, 270.9265
142.0350, 273.4697
142.5171, 275.9959
142.9992, 278.9804
143.4813, 282.2166
143.9634, 285.9193
144.4455, 290.4420
144.9277, 295.7926
145.4098, 301.5254
145.8919, 306.9160
146.3740, 311.6908
146.8561, 316.6059
147.3382, 322.1793
147.8204, 327.7702
148.3025, 332.7422
148.7846, 336.9457
149.2667, 340.1788
149.7488, 341.8019
150.2309, 341.7899
150.7131, 341.1226
151.1952, 339.8599
151.6773, 338.1620
152.1594, 336.4585
152.6415, 334.5836
153.1236, 333.1752
153.6058, 332.9789
154.0879, 334.1718
154.5700, 336.0313
155.0521, 338.3026
155.5342, 341.0197
156.0163, 343.2420
156.4985, 344.8487
156.9806, 345.5882
157.4627, 345.1348
157.9448, 343.3686
158.4269, 340.5605
158.9090, 336.9135
159.3912, 332.0517
159.8733, 327.2980
160.3554, 322.3577
160.8375, 317.9237
161.3196, 314.6537
161.8017, 312.8705
162.2839, 312.3052
162.7660, 312.2259
163.2481, 313.2158
163.7302, 313.9268
164.2123, 314.3970
164.6944, 314.4398
165.1766, 313.8866
165.6587, 312.6498
166.1408, 310.7157
166.6229, 307.8874
167.1050, 303.2343
167.5871, 298.7039
168.0693, 294.1366
168.5514, 289.9714
169.0335, 287.0039
169.5156, 285.8459
169.9977, 286.4014
170.4798, 286.9625
170.9620, 287.2451
171.4441, 287.7904
171.9262, 288.8932
172.4083, 290.4990
172.8904, 292.3810
173.3725, 294.5089
173.8547, 296.7803
174.3368, 298.5748
174.8189, 299.6889
175.3010, 300.4842
175.7831, 301.5394
176.2652, 302.9116
176.7474, 303.4328
177.2295, 302.0253
177.7116, 299.0476
178.1937, 295.3177
178.6758, 290.9470
179.1579, 285.9255
179.6401, 280.0511
180.1222, 273.1295
180.6043, 265.9736
181.0864, 258.7042
181.5685, 251.5853
182.0506, 245.2014
182.5328, 239.8861
183.0149, 235.4941
183.4970, 231.4948
183.9791, 227.6819
184.4612, 224.7329
184.9433, 222.9489
185.4255, 222.0675
185.9076, 221.6171
186.3897, 221.2503
186.8718, 221.0238
187.3539, 221.5572
187.8360, 223.2836
188.3182, 225.4216
188.8003, 227.7057
189.2824, 230.2114
189.7645, 233.1481
190.2466, 236.7082
190.7287, 240.9322
191.2109, 245.1460
191.6930, 249.2568
192.1751, 253.4740
192.6572, 257.9403
193.1393, 262.5701
193.6214, 267.1788
194.1036, 271.5643
194.5857, 275.7105
195.0678, 279.9057
195.5499, 284.4854
196.0320, 288.8166
196.5141, 292.3387
196.9963, 295.2123
197.4784, 298.2100
197.9605, 302.0632
198.4426, 306.9231
198.9247, 311.5927
199.4068, 316.1754
199.8890, 320.5114
200.3711, 324.4629
200.8532, 328.0367
201.3353, 331.3641
201.8174, 334.5820
202.2995, 337.6721
202.7817, 340.5213
203.2638, 343.3384
203.7459, 345.7911
204.2280, 347.3692
204.7101, 347.9881
205.1922, 348.5063
205.6744, 349.8643
206.1565, 351.8596
206.6386, 353.4792
207.1207, 354.4021
207.6028, 354.8903
208.0849, 355.3831
208.5671, 356.0217
209.0492, 356.2496
209.5313, 355.3640
210.0134, 353.7321
210.4955, 352.0417
210.9776, 350.6320
211.4598, 349.3200
211.9419, 347.7479
212.4240, 346.0223
212.9061, 343.7715
213.3882, 340.6226
213.8703, 336.8672
214.3525, 333.0167
214.8346, 329.5782
215.3167, 326.2446
215.7988, 321.8253
216.2809, 315.4696
216.7630, 309.2939
217.2451, 304.1426
217.7273, 299.7688
218.2094, 295.7128
218.6915, 291.6874
219.1736, 287.7460
219.6557, 284.3016
220.1378, 281.9299
220.6200, 279.3791
221.1021, 276.1894
221.5842, 272.5915
222.0663, 268.9672
222.5484, 265.6065
223.0305, 262.4586
223.5127, 259.0064
223.9948, 254.4072
224.4769, 250.4475
224.9590, 247.6470
225.4411, 245.7212
225.9232, 244.1628
226.4054, 242.6222
226.8875, 241.1367
227.3696, 240.0606
227.8517, 239.4592
228.3338, 239.2314
228.8159, 239.3086
229.2981, 239.7583
229.7802, 240.7466
230.2623, 242.4185
230.7444, 244.7124
231.2265, 246.8857
231.7086, 249.0756
232.1908, 251.0114
232.6729, 252.3070
233.1550, 253.3081
233.6371, 254.6565
234.1192, 256.7421
234.6013, 259.5065
235.0835, 262.5668
235.5656, 266.4995
236.0477, 270.0690
236.5298, 272.6099
237.0119, 274.4965
237.4940, 276.5923
237.9762, 279.3954
238.4583, 282.7545
238.9404, 285.9681
239.4225, 289.1279
239.9046, 292.0681
240.3867, 294.5635
240.8689, 296.7719
241.3510, 299.1157
241.8331, 301.8895
242.3152, 304.8382
242.7973, 307.2412
243.2794, 309.0324
243.7616, 310.5069
244.2437, 311.7718
244.7258, 312.8060
245.2079, 313.5338
245.6900, 313.8989
246.1721, 313.9483
246.6543, 313.8860
247.1364, 313.8834
247.6185, 313.3866
248.1006, 312.0334
248.5827, 309.9407
249.0648, 307.4326
249.5470, 304.3868
250.0291, 301.2177
250.5112, 298.5357
250.9933, 296.3678
251.4754, 294.3715
251.9576, 292.2278
252.4397, 290.0492
252.9218, 288.3317
253.4039, 287.4589
253.8860, 286.7910
254.3681, 285.5000
254.8503, 283.5836
255.3324, 281.9057
255.8145, 281.2651
256.2966, 281.4203
256.7787, 281.1266
257.2608, 280.0480
257.7430, 278.5963
258.2251, 277.2413
258.7072, 275.9338
259.1893, 274.3332
259.6714, 272.2526
260.1535, 269.7122
260.6357, 266.7647
261.1178, 263.3524
261.5999, 259.5729
262.0820, 255.3953
262.5641, 250.9265
263.0462, 246.4896
263.5284, 242.4093
264.0105, 238.5969
264.4926, 234.3960
264.9747, 229.6731
265.4568, 224.7466
265.9389, 219.7578
266.4211, 214.7081
266.9032, 209.6245
267.3853, 204.5102
267.8674, 199.3798
268.3495, 194.2263
268.8316, 188.9250
269.3138, 183.7928
269.7959, 178.7812
270.2780, 174.0122
270.7601, 169.6895
271.2422, 165.9767
271.7243, 162.7258
272.2065, 159.4491
272.6886, 155.8378
273.1707, 152.8094
273.6528, 150.8180
274.1349, 149.3563
274.6170, 147.8428
275.0992, 145.9858
275.5813, 144.0265
276.0634, 142.6071
276.5455, 142.0028
277.0276, 141.4467
277.5097, 140.8827
277.9919, 140.2480
278.4740, 139.4386
278.9561, 138.4163
279.4382, 137.3320
279.9203, 136.5026
280.4024, 136.1824
280.8846, 135.5709
281.3667, 134.4047
281.8488, 133.0877
282.3309, 131.9582
282.8130, 131.0844
283.2951, 130.2440
283.7773, 129.0488
284.2594, 127.2080
284.7415, 125.7495
285.2236, 124.8989
285.7057, 124.2233
286.1878, 123.4568
286.6700, 122.5803
287.1521, 121.7571
287.6342, 121.2087
288.1163, 121.0599
288.5984, 120.7043
289.0805, 119.9751
289.5627, 119.2078
290.0448, 118.4997
290.5269, 117.8823
291.0090, 117.3918
291.4911, 117.0925
291.9732, 117.0152
292.4554, 116.7364
292.9375, 116.0192
293.4196, 115.3385
293.9017, 114.8945
294.3838, 114.6110
294.8659, 114.3049
295.3481, 113.8480
295.8302, 113.2469
296.3123, 112.6134
296.7944, 111.8853
297.2765, 111.1892
297.7586, 110.5339
298.2408, 109.9305
298.7229, 109.4343
299.2050, 109.0884
299.6871, 108.8107
300.1692, 108.2830
300.6513, 107.2952
301.1335, 106.2900
301.6156, 105.2046
302.0977, 104.1688
302.5798, 103.3174
303.0619, 102.7064
303.5440, 102.2815
304.0262, 101.9316
304.5083, 101.7706
304.9904, 101.5145
305.4725, 101.0483
305.9546, 100.5618
306.4367, 100.1830
306.9189, 99.95229
307.4010, 99.85918
307.8831, 99.90273
308.3652, 100.1546
308.8473, 100.3598
309.3294, 100.3997
309.8116, 100.4940
310.2937, 100.8459
310.7758, 101.4185
311.2579, 101.9746
311.7400, 102.2640
312.2221, 102.2401
312.7043, 102.2928
313.1864, 102.5455
313.6685, 102.7439
314.1506, 102.7442
314.6327, 102.6026
315.1148, 102.4726
315.5970, 102.4708
316.0791, 102.5848
316.5612, 102.6411
317.0433, 102.8804
317.5254, 102.7943
318.0075, 102.0859
318.4897, 101.0203
318.9718, 99.96481
319.4539, 99.10439
319.9360, 98.41728
320.4181, 97.82887
320.9002, 97.43122
321.3824, 97.03226
321.8645, 96.45527
322.3466, 95.95177
322.8287, 95.81379
323.3108, 96.12589
323.7929, 96.67871
324.2751, 97.08958
324.7572, 97.08967
325.2393, 97.49600
325.7214, 98.42326
326.2035, 99.60941
326.6856, 100.9156
327.1678, 102.3051
327.6499, 103.7786
328.1320, 105.3102
328.6141, 106.8237
329.0962, 108.8273
329.5783, 111.5357
330.0605, 114.4562
330.5426, 117.3370
331.0247, 120.2539
331.5068, 123.4209
331.9889, 127.0126
332.4710, 131.0112
332.9532, 135.1265
333.4353, 139.5965
333.9174, 143.9666
334.3995, 148.2363
334.8816, 152.3191
335.3637, 156.0688
335.8459, 159.3814
336.3280, 162.3986
336.8101, 165.4390
337.2922, 168.5004
337.7743, 171.6142
338.2564, 174.7439
338.7386, 177.9570
339.2206, 181.2949
339.7028, 184.7851
340.1849, 188.3993
340.6670, 192.0880
341.1491, 195.7652
341.6312, 199.7273
342.1133, 204.3286
342.5955, 208.8625
343.0776, 212.8155
343.5597, 216.2680
344.0418, 219.7330
344.5239, 223.7211
345.0060, 228.2701
345.4882, 232.6736
345.9703, 236.7660
346.4524, 240.8709
346.9345, 245.0424
347.4166, 249.2927
347.8987, 253.7275
348.3809, 258.4772
348.8630, 263.3065
349.3451, 267.1486
349.8272, 269.7308
350.3093, 271.6829
350.7914, 273.6390
351.2736, 274.8911
351.7557, 274.6852
352.2378, 272.7668
352.7199, 269.5023
353.2020, 265.4818
353.6841, 260.7231
354.1663, 255.1087
354.6484, 247.7208
355.1305, 240.1820
355.6126, 233.2599
356.0947, 227.1122
356.5768, 221.6979
357.0590, 217.0300
357.5411, 213.1446
358.0232, 209.7014
358.5053, 206.5272
358.9874, 204.0965
359.4695, 202.6685
359.9517, 202.0901
360.4338, 202.0754
360.9159, 202.5325
361.3980, 203.3875
361.8801, 204.4060
362.3622, 205.5090
362.8444, 206.9600
363.3265, 209.0114
363.8086, 211.3549
364.2907, 213.6583
364.7728, 215.8092
365.2549, 218.0308
365.7371, 220.7180
366.2192, 223.9567
366.7013, 226.9630
367.1834, 229.4721
367.6655, 231.7380
368.1476, 233.9356
368.6298, 236.0827
369.1119, 238.1208
369.5940, 240.0841
370.0761, 241.9251
370.5582, 243.3657
371.0403, 244.2882
371.5225, 244.9664
372.0046, 245.5133
372.4867, 245.9749
372.9688, 246.4702
373.4509, 247.1987
373.9330, 247.8881
374.4152, 248.0597
374.8973, 247.6573
375.3794, 247.1968
375.8615, 246.8702
376.3436, 246.6710
376.8257, 246.5903
377.3079, 246.6544
377.7900, 246.7674
378.2721, 247.0050
378.7542, 247.2753
379.2363, 247.1443
379.7184, 246.3942
380.2006, 245.3502
380.6827, 244.5033
381.1648, 243.8672
381.6469, 242.8777
382.1290, 241.1779
382.6111, 239.0842
383.0933, 237.1155
383.5754, 235.3400
384.0575, 233.3306
384.5396, 230.6713
385.0217, 227.4078
385.5038, 224.0825
385.9860, 220.7296
386.4681, 217.3196
386.9502, 213.9468
387.4323, 210.5373
387.9144, 206.7654
388.3965, 202.4580
388.8787, 197.7541
389.3608, 192.9761
389.8429, 187.9809
390.3250, 183.1597
390.8071, 178.5379
391.2892, 174.1531
391.7714, 170.1813
392.2535, 166.6456
392.7356, 163.1039
393.2177, 159.0101
393.6998, 154.1620
394.1819, 149.7577
394.6641, 145.7847
395.1462, 142.1982
395.6283, 139.0182
396.1104, 136.2252
396.5925, 133.8501
397.0746, 131.9248
397.5568, 130.3915
398.0389, 128.8584
398.5210, 127.1853
399.0031, 125.7012
399.4852, 124.4961
399.9673, 123.4711
400.4495, 122.4938
400.9316, 121.5310
401.4137, 120.6641
401.8958, 120.0254
402.3779, 119.6737
402.8600, 119.4047
403.3422, 119.3459
403.8243, 119.2429
404.3064, 118.9420
404.7885, 118.4750
405.2706, 117.9718
405.7527, 117.5338
406.2349, 117.1478
406.7170, 116.7156
407.1991, 116.0578
407.6812, 115.6307
408.1633, 115.6557
408.6454, 115.8928
409.1276, 116.0649
409.6097, 116.0702
410.0918, 116.0481
410.5739, 116.2681
411.0560, 116.8186
411.5381, 117.1290
412.0203, 116.7697
412.5024, 116.4326
412.9845, 116.5065
413.4666, 116.9750
413.9487, 117.6187
414.4308, 118.3992
414.9130, 119.2460
415.3951, 119.8393
415.8772, 120.0400
416.3593, 120.3293
416.8414, 121.1175
417.3235, 122.1145
417.8057, 122.9203
418.2878, 123.3779
418.7699, 123.7434
419.2520, 124.1823
419.7341, 124.7111
420.2162, 125.5663
420.6984, 127.0535
421.1805, 128.5794
421.6626, 129.2719
422.1447, 129.1381
422.6268, 129.1399
423.1089, 129.8321
423.5911, 130.7678
424.0732, 131.3167
424.5553, 131.4071
425.0374, 131.3737
425.5195, 131.4568
426.0016, 131.6314
426.4838, 131.7196
426.9659, 131.7372
427.4480, 131.6563
427.9301, 131.4314
428.4122, 131.1013
428.8943, 130.7279
429.3765, 130.3265
429.8586, 129.9417
430.3407, 129.6339
430.8228, 129.3138
431.3049, 129.3241
431.7870, 130.0674
432.2692, 130.8437
432.7513, 131.0860
433.2334, 130.8258
433.7155, 130.4787
434.1976, 130.3698
434.6797, 130.4857
435.1619, 130.6349
435.6440, 131.0531
436.1261, 131.2243
436.6082, 130.8191
437.0903, 130.2230
437.5724, 129.8696
438.0546, 129.9127
438.5367, 130.2105
439.0188, 130.5567
439.5009, 130.9543
439.9830, 131.3876
440.4651, 131.6690
440.9473, 132.1596
441.4294, 133.0538
441.9115, 134.3075
442.3936, 135.7603
442.8757, 137.2901
443.3578, 138.9463
443.8400, 140.8477
444.3221, 143.0190
444.8042, 145.4036
445.2863, 148.1380
445.7684, 150.9999
446.2505, 153.7417
446.7327, 156.3017
447.2148, 158.8897
447.6969, 161.6565
448.1790, 164.5876
448.6611, 167.6884
449.1432, 171.0633
449.6254, 174.3829
450.1075, 177.1891
450.5896, 179.6703
451.0717, 182.4700
451.5538, 185.9634
452.0359, 189.6941
452.5181, 193.2087
453.0002, 196.5414
453.4823, 199.9113
453.9644, 203.4418
454.4465, 207.0373
454.9286, 210.4641
455.4108, 213.6186
455.8929, 216.8934
456.3750, 220.5543
456.8571, 224.2798
457.3392, 227.7134
457.8214, 230.8127
458.3035, 233.7856
458.7856, 236.7483
459.2677, 239.7003
459.7498, 243.3736
460.2319, 248.7800
460.7141, 253.6335
461.1962, 257.1779
461.6783, 259.8187
462.1604, 262.1069
462.6425, 264.2607
463.1246, 266.1750
463.6068, 267.7141
464.0889, 268.9980
464.5710, 269.5324
465.0531, 269.3207
465.5352, 268.4166
466.0173, 266.5702
466.4995, 264.0272
466.9816, 261.3223
467.4637, 258.7536
467.9458, 256.3234
468.4279, 254.0678
468.9100, 252.0916
469.3922, 249.9957
469.8743, 247.5702
470.3564, 245.0176
470.8385, 242.5610
471.3206, 240.2257
471.8027, 237.7021
472.2849, 234.5877
472.7670, 231.0556
473.2491, 227.8341
473.7312, 225.0427
474.2133, 222.3979
474.6954, 219.6836
475.1776, 216.9605
475.6597, 214.4125
476.1418, 212.0957
476.6239, 209.9443
477.1060, 207.8598
477.5881, 205.9088
478.0703, 204.2930
478.5524, 203.1384
479.0345, 202.1782
479.5166, 201.0326
479.9987, 199.6330
480.4808, 198.3602
480.9630, 197.1952
481.4451, 196.2010
481.9272, 195.4391
482.4093, 194.8943
482.8914, 194.5374
483.3735, 194.3665
483.8557, 194.3184
484.3378, 194.1541
484.8199, 193.5180
485.3020, 193.2941
485.7841, 193.7270
486.2662, 194.4120
486.7484, 195.0802
487.2305, 195.6775
487.7126, 196.2250
488.1947, 196.6515
488.6768, 197.0024
489.1589, 198.0473
489.6411, 200.3642
490.1232, 202.4688
490.6053, 203.5908
491.0874, 204.4227
491.5695, 205.8227
492.0516, 208.0595
492.5338, 210.4589
493.0159, 212.2012
493.4980, 213.3935
493.9801, 215.0005
494.4622, 217.3858
494.9443, 219.7768
495.4265, 221.4582
495.9086, 222.6336
496.3907, 223.7991
496.8728, 224.9599
497.3549, 226.2591
497.8370, 227.9062
498.3192, 229.8078
498.8013, 231.6464
499.2834, 233.3212
499.7655, 234.8083
500.2476, 236.0988
500.7297, 237.2430
501.2119, 237.9756
501.6940, 238.0495
502.1761, 237.8923
502.6582, 237.9934
503.1403, 238.1665
503.6224, 237.7330
504.1045, 236.2324
504.5866, 233.9223
505.0688, 231.7542
505.5509, 230.2767
506.0330, 228.0193
506.5151, 224.8029
506.9972, 220.9221
507.4793, 216.4775
507.9615, 211.5526
508.4436, 206.3260
508.9257, 200.9867
509.4078, 195.4549
509.8899, 189.3361
510.3720, 182.1460
510.8542, 175.3965
511.3363, 169.9370
511.8184, 165.0337
512.3005, 159.9944
512.7827, 154.6722
513.2648, 149.3813
513.7469, 144.1149
514.2290, 139.0522
514.7111, 134.7058
515.1932, 131.1971
515.6754, 128.1039
516.1575, 125.0798
516.6396, 122.2224
517.1217, 119.8895
517.6038, 118.3772
518.0859, 117.0744
518.5681, 115.6518
519.0502, 114.2698
519.5323, 113.2653
520.0144, 112.7231
520.4965, 112.3254
520.9786, 111.6379
521.4608, 110.5241
521.9429, 109.9754
522.4250, 110.0979
522.9071, 110.5651
523.3892, 111.4016
523.8713, 112.4660
524.3535, 113.5974
524.8356, 114.7210
525.3177, 115.8225
525.7998, 116.7880
526.2819, 117.5117
526.7640, 118.6251
527.2462, 120.4387
527.7283, 122.3721
528.2104, 124.1525
528.6925, 125.8315
529.1746, 127.5389
529.6567, 129.2674
530.1389, 131.1475
530.6210, 133.4241
531.1031, 136.0726
531.5852, 138.6467
532.0673, 140.9690
532.5494, 143.2414
533.0316, 145.7561
533.5137, 148.4802
533.9958, 151.2041
534.4779, 154.0691
534.9600, 156.7611
535.4421, 158.9395
535.9243, 160.7256
536.4064, 162.6116
536.8885, 164.8340
537.3706, 167.2156
537.8527, 169.3498
538.3348, 171.1020
538.8170, 172.9021
539.2991, 174.9104
539.7812, 176.8126
540.2633, 178.4271
540.7454, 179.7872
541.2275, 181.0776
541.7097, 182.4397
542.1918, 183.7094
542.6739, 184.4215
543.1560, 184.4532
543.6381, 184.3315
544.1202, 184.3320
544.6024, 184.0468
545.0845, 183.1888
545.5666, 181.7832
546.0487, 180.0737
546.5308, 178.2111
547.0129, 176.1002
547.4951, 173.4629
547.9772, 170.3115
548.4593, 167.3658
548.9414, 165.1519
549.4235, 163.0496
549.9056, 159.8086
550.3878, 155.2893
550.8699, 150.8922
551.3520, 147.1257
551.8341, 143.4195
552.3162, 139.1865
552.7983, 134.5517
553.2805, 130.0770
553.7626, 126.0659
554.2447, 122.4364
554.7268, 118.9415
555.2089, 115.6788
555.6910, 112.3876
556.1732, 108.8163
556.6553, 105.4124
557.1374, 102.4926
557.6195, 99.97388
558.1016, 97.54110
558.5837, 94.94749
559.0659, 92.35779
559.5480, 90.22032
560.0301, 88.62692
560.5122, 86.97839
560.9943, 85.02706
561.4764, 83.05041
561.9586, 81.30511
562.4407, 79.78881
562.9228, 78.38232
563.4049, 77.02646
563.8870, 75.76895
564.3691, 74.70470
564.8513, 73.80759
565.3334, 72.94530
565.8155, 72.06606
566.2976, 71.16531
566.7797, 70.20207
567.2618, 69.00941
567.7440, 68.18813
568.2261, 68.11729
568.7082, 68.07200
569.1903, 67.56825
569.6724, 66.74823
570.1545, 66.00657
570.6367, 65.55802
571.1188, 65.29581
571.6009, 65.00448
572.0830, 64.66550
572.5651, 64.35655
573.0472, 64.06665
573.5294, 63.83129
574.0115, 63.67648
574.4936, 63.58953
574.9757, 63.54115
575.4578, 63.54699
575.9399, 63.54817
576.4221, 63.43103
576.9042, 63.23006
577.3863, 63.17183
577.8684, 63.36423
578.3505, 63.59127
578.8326, 63.61102
579.3148, 63.40783
579.7969, 63.12550
580.2790, 62.52626
580.7611, 62.10095
581.2432, 62.20033
581.7253, 62.60119
582.2075, 62.95998
582.6896, 63.14843
583.1717, 63.19128
583.6538, 63.06717
584.1359, 62.70831
584.6180, 62.68054
585.1002, 63.44019
585.5823, 63.98673
586.0643, 63.91489
586.5464, 63.49237
587.0286, 63.03388
587.5107, 62.61731
587.9928, 62.30320
588.4749, 62.22736
588.9570, 62.31246
589.4391, 62.23919
589.9213, 61.94702
590.4034, 61.62230
590.8855, 61.43034
591.3676, 61.29456
591.8497, 60.94477
592.3318, 60.23971
592.8140, 59.56080
593.2961, 58.97024
593.7782, 58.50088
594.2603, 58.28194
594.7424, 58.27096
595.2245, 58.17673
595.7067, 57.74176
596.1888, 57.05265
596.6709, 56.61244
597.1530, 56.56597
597.6351, 56.52311
598.1172, 56.53319
598.5994, 56.45200
599.0815, 56.09001
599.5636, 55.50503
600.0457, 55.00206
600.5278, 54.83850
601.0099, 54.84206
601.4921, 54.65944
601.9742, 54.28738
602.4563, 53.96796
602.9384, 53.82198
603.4205, 53.71325
603.9026, 53.41774
604.3848, 52.92673
604.8669, 52.52764
605.3490, 52.39176
605.8311, 52.23212
606.3132, 51.79867
606.7953, 51.20477
607.2775, 50.71959
607.7596, 50.44877
608.2417, 50.26136
608.7238, 49.94098
609.2059, 49.42743
609.6880, 49.08502
610.1702, 49.11749
610.6523, 49.09147
611.1344, 48.82490
611.6165, 48.43385
612.0986, 48.06792
612.5807, 47.76549
613.0629, 47.53531
613.5450, 47.42627
614.0271, 47.39874
614.5092, 47.32007
614.9913, 47.17273
615.4734, 47.00306
615.9556, 46.82767
616.4377, 46.65522
616.9198, 46.51985
617.4019, 46.48671
617.8840, 46.36501
618.3661, 46.00049
618.8483, 45.61364
619.3304, 45.43597
619.8125, 45.44043
620.2946, 45.43563
620.7767, 45.29618
621.2589, 45.06149
621.7410, 44.83033
622.2231, 44.56357
622.7052, 44.41864
623.1873, 44.55107
623.6694, 44.68952
624.1516, 44.67570
624.6337, 44.54019
625.1158, 44.39245
625.5979, 44.29137
626.0800, 44.17120
626.5621, 43.89678
627.0443, 43.53990
627.5264, 43.39127
628.0085, 43.54095
628.4906, 43.74419
628.9727, 43.77550
629.4548, 43.63377
629.9370, 43.40391
630.4191, 42.95619
630.9012, 42.59823
631.3833, 42.41637
631.8654, 42.34393
632.3475, 42.31451
632.8297, 42.31498
633.3118, 42.37289
633.7939, 42.54845
634.2760, 42.78468
634.7581, 42.82955
635.2402, 42.64861
635.7224, 42.40313
636.2045, 42.04916
636.6866, 41.73750
637.1687, 41.68521
637.6508, 41.87360
638.1329, 41.92624
638.6151, 41.52017
639.0972, 41.11032
639.5793, 41.16524
640.0614, 41.52278
640.5435, 41.75422
641.0256, 41.70764
641.5078, 41.47528
641.9899, 41.15071
642.4720, 40.70219
642.9541, 40.42251
643.4362, 40.49225
643.9183, 40.52587
644.4005, 40.37725
644.8826, 40.18250
645.3647, 40.10010
645.8468, 40.15877
646.3289, 40.25890
646.8110, 40.34475
647.2932, 40.40670
647.7753, 40.42929
648.2574, 40.41346
648.7395, 40.30195
649.2216, 40.00994
649.7037, 39.68481
650.1859, 39.61742
650.6680, 39.87656
651.1501, 40.06232
651.6322, 40.18722
652.1143, 40.18943
652.5964, 39.92375
653.0786, 39.53445
653.5607, 39.28485
654.0428, 39.27191
654.5249, 39.37113
655.0070, 39.45375
655.4891, 39.52471
655.9713, 39.40514
656.4534, 38.93174
656.9355, 38.58500
657.4176, 38.73075
657.8997, 39.06888
658.3818, 39.24013
658.8640, 39.18356
659.3461, 39.15754
659.8282, 39.39071
660.3103, 39.63976
660.7924, 39.59541
661.2745, 39.29635
661.7567, 38.97129
662.2388, 38.72605
662.7209, 38.55359
663.2030, 38.44808
663.6851, 38.44013
664.1672, 38.39756
664.6494, 38.20086
665.1315, 38.09986
665.6136, 38.27003
666.0957, 38.55213
666.5778, 38.72383
667.0599, 38.72297
667.5421, 38.64199
668.0242, 38.51675
668.5063, 38.37951
668.9884, 38.33264
669.4705, 38.38410
669.9526, 38.38874
670.4348, 38.24911
670.9169, 38.04269
671.3990, 37.93414
671.8811, 37.93079
672.3632, 38.01806
672.8453, 38.38869
673.3275, 38.65907
673.8096, 38.51387
674.2917, 38.14803
674.7738, 37.91394
675.2559, 37.94865
675.7380, 38.10333
676.2202, 38.24114
676.7023, 38.35173
677.1844, 38.29915
677.6665, 38.02127
678.1486, 37.77633
678.6307, 37.71785
679.1129, 37.76176
679.5950, 37.72603
680.0771, 37.56673
680.5592, 37.52043
681.0413, 37.82500
681.5234, 38.10695
682.0056, 37.97547
682.4877, 37.59326
682.9698, 37.39497
683.4519, 37.56459
683.9340, 37.89533
684.4161, 38.08095
684.8983, 38.10473
685.3804, 38.17759
685.8625, 38.33746
686.3446, 38.47920
686.8267, 38.56691
687.3088, 38.60704
687.7910, 38.59169
688.2731, 38.51506
688.7552, 38.44548
689.2373, 38.38711
689.7194, 38.36934
690.2015, 38.48609
690.6837, 38.67834
691.1658, 38.71434
691.6479, 38.49195
692.1300, 38.22310
692.6121, 38.24264
693.0942, 38.60878
693.5764, 38.85028
694.0585, 38.95882
694.5406, 38.94355
695.0227, 38.63000
695.5048, 38.30505
695.9869, 38.32821
696.4691, 38.73692
696.9512, 39.12441
697.4333, 39.22035
697.9154, 39.17938
698.3975, 39.17863
698.8796, 39.22566
699.3618, 39.34750
699.8439, 39.56199
700.3260, 39.78288
700.8081, 39.89285
701.2902, 39.88140
701.7723, 39.85854
702.2545, 39.84397
702.7366, 39.79282
703.2187, 39.59808
703.7008, 39.42596
704.1829, 39.45471
704.6650, 39.68888
705.1472, 39.98171
705.6293, 40.30690
706.1114, 40.58059
706.5935, 40.55012
707.0756, 40.29065
707.5577, 40.36000
708.0399, 40.97733
708.5220, 41.67852
709.0041, 41.93824
709.4862, 41.75464
709.9683, 41.78447
710.4504, 42.23262
710.9326, 42.61349
711.4147, 42.78356
711.8968, 42.90261
712.3789, 43.11924
712.8610, 43.42719
713.3431, 43.71614
713.8253, 43.91290
714.3074, 44.06657
714.7895, 44.20762
715.2716, 44.35597
715.7537, 44.70353
716.2358, 45.32433
716.7180, 45.96287
717.2001, 46.38348
717.6822, 46.62997
718.1643, 47.01002
718.6464, 47.60571
719.1285, 48.20577
719.6107, 48.80869
720.0928, 49.39247
720.5749, 49.90641
721.0570, 50.39063
721.5391, 50.96191
722.0212, 51.69128
722.5034, 52.45574
722.9855, 53.03114
723.4676, 53.47528
723.9497, 54.13231
724.4318, 55.06358
724.9139, 56.08043
725.3961, 57.10875
725.8782, 58.10973
726.3603, 58.93799
726.8424, 59.51305
727.3245, 60.11515
727.8066, 60.58581
728.2888, 61.26244
728.7709, 62.42334
729.2530, 63.89998
729.7351, 65.43633
730.2172, 66.93438
730.6993, 68.30112
731.1815, 69.37727
731.6636, 70.23021
732.1457, 71.09093
732.6278, 71.96217
733.1099, 72.91248
733.5920, 74.02316
734.0742, 75.15268
734.5563, 76.06493
735.0384, 76.70379
735.5205, 77.40721
736.0026, 78.16251
736.4847, 78.99526
736.9669, 80.04135
737.4490, 81.09668
737.9311, 81.97086
738.4132, 82.61233
738.8953, 83.03745
739.3774, 83.18188
739.8596, 83.18633
740.3417, 83.35104
740.8238, 83.66679
741.3059, 84.01126
741.7880, 84.38536
742.2701, 84.64954
742.7523, 84.61774
743.2344, 84.32019
743.7165, 84.22816
744.1986, 84.73894
744.6807, 84.89061
745.1628, 84.31902
745.6450, 83.54985
746.1271, 83.04350
746.6092, 82.70158
747.0913, 82.06991
747.5734, 80.86060
748.0555, 79.57298
748.5377, 78.95867
749.0198, 78.80643
749.5019, 78.26917
749.9840, 77.22655
750.4661, 76.23574
750.9482, 75.65102
751.4304, 75.30659
751.9125, 74.78957
752.3946, 74.04024
752.8767, 73.25705
753.3588, 72.37737
753.8409, 71.53161
754.3231, 70.76496
754.8052, 70.06827
755.2873, 69.41662
755.7694, 68.80535
756.2515, 68.27377
756.7336, 67.93302
757.2158, 67.64870
757.6979, 67.11458
758.1800, 66.39301
758.6621, 65.92201
759.1442, 65.87412
759.6263, 65.91853
760.1085, 65.64827
760.5906, 65.06320
761.0727, 64.61658
761.5548, 64.27896
762.0369, 64.13529
762.5190, 64.38285
763.0012, 64.66286
763.4833, 64.65196
763.9654, 64.42279
764.4475, 64.33006
764.9296, 64.60252
765.4117, 64.89610
765.8939, 64.87119
766.3760, 64.68847
766.8581, 64.62353
767.3402, 64.71917
767.8223, 64.96500
768.3044, 65.37722
768.7866, 65.84109
769.2687, 66.01579
769.7508, 65.74541
770.2329, 65.76226
770.7150, 66.15263
771.1971, 66.74412
771.6793, 67.63629
772.1614, 68.59162
772.6435, 69.24306
773.1256, 69.51541
773.6077, 69.83650
774.0898, 70.41505
774.5720, 71.06345
775.0541, 71.58855
775.5362, 72.07307
776.0183, 72.71154
776.5004, 73.55253
776.9825, 74.47962
777.4647, 75.37321
777.9468, 76.25459
778.4289, 77.20631
778.9110, 78.22601
779.3931, 79.38082
779.8752, 80.77684
780.3574, 82.16770
780.8395, 83.21597
781.3216, 84.03985
781.8037, 85.19518
782.2858, 86.82088
782.7679, 88.62086
783.2501, 90.53257
783.7322, 92.58106
784.2143, 94.89738
784.6964, 97.35872
785.1785, 99.61213
785.6606, 101.4887
786.1428, 103.4166
786.6249, 105.9615
787.1070, 109.0191
787.5891, 112.2215
788.0712, 115.5388
788.5533, 118.7787
789.0355, 121.7983
789.5176, 124.7852
789.9997, 127.9979
790.4818, 131.4516
790.9639, 135.0783
791.4460, 139.1489
791.9282, 143.0468
792.4103, 146.5825
792.8924, 149.9316
793.3745, 153.1277
793.8566, 156.2844
794.3387, 159.8938
794.8209, 164.5700
795.3030, 169.2157
795.7851, 172.5957
796.2672, 175.2019
796.7493, 178.0033
797.2314, 181.1739
797.7136, 184.6533
798.1957, 188.4491
798.6778, 192.3763
799.1599, 195.9846
799.6420, 199.3147
800.1241, 202.1376
800.6063, 204.2189
801.0884, 206.1621
801.5705, 208.2323
802.0526, 210.3094
802.5347, 212.3675
803.0168, 214.4588
803.4990, 215.8472
803.9811, 216.1012
804.4632, 215.8201
804.9453, 215.1601
805.4274, 214.3083
805.9095, 213.6387
806.3917, 213.1259
806.8738, 212.1889
807.3559, 210.3027
807.8380, 207.8265
808.3201, 205.6499
808.8022, 203.7338
809.2844, 201.3490
809.7665, 198.2989
810.2486, 195.0925
810.7307, 192.0477
811.2128, 189.1459
811.6949, 186.4009
812.1771, 184.0396
812.6592, 181.3839
813.1413, 177.9254
813.6234, 174.7514
814.1055, 172.5578
814.5876, 170.8502
815.0698, 168.8945
815.5519, 166.5737
816.0340, 164.4924
816.5161, 163.1397
816.9982, 162.1465
817.4803, 161.0694
817.9625, 160.0079
818.4446, 159.3401
818.9267, 159.1138
819.4088, 158.8211
819.8909, 158.0014
820.3730, 156.8367
820.8552, 155.9939
821.3373, 155.5376
821.8194, 155.1263
822.3015, 154.8724
822.7836, 154.4097
823.2657, 153.4252
823.7479, 152.1083
824.2300, 150.8183
824.7121, 149.5295
825.1942, 148.4151
825.6763, 147.5747
826.1584, 146.8587
826.6406, 146.0710
827.1227, 145.4068
827.6048, 145.1672
828.0869, 145.3945
828.5690, 145.8619
829.0511, 146.3110
829.5333, 146.9910
830.0154, 148.4124
830.4975, 150.4747
830.9796, 152.6120
831.4617, 154.7031
831.9438, 157.2394
832.4260, 160.5876
832.9081, 164.6344
833.3902, 169.0725
833.8723, 173.8159
834.3544, 179.1844
834.8365, 185.2342
835.3187, 191.8239
835.8008, 198.6974
836.2829, 206.1301
836.7650, 214.4656
837.2471, 223.7210
837.7292, 233.9504
838.2114, 245.2290
838.6935, 257.4879
839.1756, 270.8396
839.6577, 285.0764
840.1398, 300.0061
840.6219, 315.5728
841.1041, 331.5041
841.5862, 347.6031
842.0683, 364.1256
842.5504, 381.6807
843.0325, 400.0655
843.5146, 417.8867
843.9968, 434.8372
844.4789, 451.9780
844.9610, 469.9246
845.4431, 488.0338
845.9252, 505.0395
846.4073, 520.7534
846.8895, 536.4539
847.3716, 551.7220
847.8537, 567.4877
848.3358, 585.1824
848.8179, 602.6491
849.3000, 618.0651
849.7822, 631.5032
850.2643, 644.0541
850.7464, 656.3541
851.2285, 667.4796
851.7106, 677.4520
852.1927, 685.6077
852.6749, 691.2708
853.1570, 694.4554
853.6391, 695.4489
854.1212, 694.3852
854.6033, 691.0346
855.0854, 685.4119
855.5676, 677.2960
856.0497, 665.5405
856.5318, 650.0805
857.0139, 631.4744
857.4960, 609.5794
857.9781, 585.8536
858.4603, 561.6564
858.9424, 537.0472
859.4245, 512.2370
859.9066, 487.0609
860.3887, 462.0156
860.8708, 436.0570
861.3530, 411.1708
861.8351, 388.2655
862.3172, 367.1730
862.7993, 347.6440
863.2814, 329.6052
863.7635, 312.6258
864.2457, 296.2758
864.7278, 281.0052
865.2099, 267.2367
865.6920, 254.8087
866.1741, 243.7882
866.6563, 234.0433
867.1384, 225.2179
867.6205, 217.0997
868.1026, 209.5991
868.5847, 202.6241
869.0668, 196.1592
869.5490, 189.9958
870.0311, 184.0993
870.5132, 178.6592
870.9953, 173.7465
871.4774, 169.3136
871.9595, 165.3146
872.4417, 161.8619
872.9238, 158.1831
873.4059, 154.0601
873.8880, 150.0250
874.3701, 146.4651
874.8522, 142.8941
875.3344, 138.8658
875.8165, 134.4380
876.2986, 129.9998
876.7807, 125.5755
877.2628, 121.2498
877.7449, 117.1178
878.2271, 113.0608
878.7092, 108.9070
879.1913, 104.8003
879.6734, 101.0471
880.1555, 97.76694
880.6376, 94.83435
881.1198, 92.34856
881.6019, 90.06751
882.0840, 87.41915
882.5661, 84.54401
883.0482, 82.09240
883.5303, 80.22601
884.0125, 78.63620
884.4946, 77.09332
884.9767, 75.56209
885.4588, 73.87269
885.9409, 71.93836
886.4230, 70.35069
886.9052, 69.29565
887.3873, 68.24422
887.8694, 66.87905
888.3515, 65.39399
888.8336, 64.06501
889.3157, 62.88862
889.7979, 61.90993
890.2800, 61.37648
890.7621, 60.71403
891.2442, 59.61343
891.7263, 58.44768
892.2084, 57.56816
892.6906, 56.91253
893.1727, 56.20727
893.6548, 55.32707
894.1369, 54.47934
894.6190, 53.84315
895.1011, 53.28492
895.5833, 52.67178
896.0654, 52.00438
896.5475, 51.31136
897.0296, 50.60633
897.5117, 49.88490
897.9938, 49.11514
898.4760, 48.35912
898.9581, 47.81501
899.4402, 47.46621
899.9223, 47.09822
900.4044, 46.67202
900.8865, 46.25755
901.3687, 45.90086
901.8508, 45.57817
902.3329, 45.23377
902.8150, 44.84927
903.2971, 44.53694
903.7792, 44.38807
904.2614, 44.15348
904.7435, 43.69175
905.2256, 43.16861
905.7077, 42.72304
906.1898, 42.34994
906.6719, 42.01729
907.1541, 41.72454
907.6362, 41.46943
908.1183, 41.35313
908.6004, 41.18002
909.0825, 40.75017
909.5646, 40.18828
910.0468, 39.68858
910.5289, 39.30962
911.0110, 39.05362
911.4931, 39.01678
911.9752, 39.02158
912.4573, 38.87618
912.9395, 38.62375
913.4216, 38.34173
913.9037, 38.04968
914.3858, 37.73651
914.8679, 37.38948
915.3500, 37.07873
915.8321, 36.97488
916.3142, 37.03853
916.7963, 36.94216
917.2784, 36.66895
917.7606, 36.37724
918.2427, 36.11908
918.7248, 35.87235
919.2069, 35.61127
919.6890, 35.33960
920.1711, 35.07140
920.6533, 34.77037
921.1354, 34.56623
921.6175, 34.57460
922.0996, 34.54267
922.5817, 34.28727
923.0638, 33.93272
923.5460, 33.63429
924.0281, 33.38699
924.5102, 33.28539
924.9923, 33.51143
925.4744, 33.67044
925.9565, 33.61610
926.4387, 33.43763
926.9208, 33.14971
927.4029, 32.81873
927.8850, 32.60584
928.3671, 32.58438
928.8492, 32.59912
929.3314, 32.55402
929.8135, 32.48093
930.2956, 32.43944
930.7777, 32.39262
931.2598, 32.23507
931.7419, 31.95671
932.2241, 31.68075
932.7062, 31.50509
933.1883, 31.38358
933.6704, 31.20869
934.1525, 31.01051
934.6346, 30.94009
935.1168, 31.00853
935.5989, 31.11089
936.0810, 31.20832
936.5631, 31.23321
937.0452, 31.05704
937.5273, 30.70416
938.0095, 30.61355
938.4916, 30.88751
938.9737, 30.98395
939.4558, 30.70966
939.9379, 30.43189
940.4200, 30.41977
940.9022, 30.57780
941.3843, 30.67617
941.8664, 30.74289
942.3485, 30.66214
942.8306, 30.24560
943.3127, 29.93004
943.7949, 29.86493
944.2770, 29.92131
944.7591, 30.05841
945.2412, 30.22173
945.7233, 30.22164
946.2054, 29.91025
946.6876, 29.66665
947.1697, 29.69310
947.6518, 29.77282
948.1339, 29.75737
948.6160, 29.67879
949.0981, 29.59426
949.5803, 29.52137
950.0624, 29.46531
950.5445, 29.40790
951.0266, 29.40047
951.5087, 29.54245
951.9908, 29.74591
952.4730, 29.87957
952.9551, 29.92915
953.4372, 29.90541
953.9193, 29.81482
954.4014, 29.68982
954.8835, 29.56198
955.3657, 29.43123
955.8478, 29.28734
956.3299, 29.13636
956.8120, 29.01240
957.2941, 28.92212
957.7762, 28.91282
958.2584, 29.02853
958.7405, 29.18742
959.2226, 29.21289
959.7047, 29.09302
960.1868, 29.03749
960.6689, 29.05927
961.1511, 29.10299
961.6332, 29.18683
962.1153, 29.20888
962.5974, 29.01988
963.0795, 28.70706
963.5616, 28.67121
964.0438, 29.19189
964.5259, 29.38386
965.0080, 28.84113
965.4901, 28.49446
965.9722, 28.90264
966.4543, 29.48392
966.9365, 29.61049
967.4186, 29.31598
967.9007, 29.08557
968.3828, 29.01942
968.8649, 28.97060
969.3470, 28.91113
969.8292, 28.85662
970.3113, 28.77456
970.7934, 28.72391
971.2755, 28.82585
971.7576, 29.08750
972.2397, 29.30727
972.7219, 29.43132
973.2040, 29.43378
973.6861, 29.20330
974.1682, 28.91007
974.6503, 28.75265
975.1324, 28.71002
975.6146, 28.65551
976.0967, 28.54550
976.5788, 28.48206
977.0609, 28.61411
977.5430, 28.79904
978.0251, 28.84655
978.5073, 28.78564
978.9894, 28.66371
979.4715, 28.50305
979.9536, 28.35954
980.4357, 28.26410
980.9178, 28.18268
981.4000, 28.08429
981.8821, 27.95872
982.3642, 27.70322
982.8463, 27.35159
983.3284, 27.26803
983.8105, 27.54597
984.2927, 27.76351
984.7748, 27.59240
985.2569, 27.20382
985.7390, 26.98635
986.2211, 26.95004
986.7032, 26.88918
987.1854, 26.79273
987.6675, 26.71729
988.1496, 26.67446
988.6317, 26.67566
989.1138, 26.73699
989.5959, 26.84768
990.0781, 26.97676
990.5602, 27.19349
991.0423, 27.21188
991.5244, 26.89994
992.0065, 26.63072
992.4886, 26.61364
992.9708, 26.62694
993.4529, 26.33834
993.9350, 25.79870
994.4171, 25.61789
994.8992, 26.17443
995.3813, 26.50048
995.8635, 26.37022
996.3456, 26.22797
996.8277, 26.33046
997.3098, 26.49265
997.7919, 26.47599
998.2740, 26.27518
998.7562, 26.05709
999.2383, 25.80831
999.7204, 25.61178
1000.203, 25.49924
1000.685, 25.43629
1001.167, 25.46439
1001.649, 25.49696
1002.131, 25.36270
1002.613, 25.04853
1003.095, 24.82350
1003.577, 24.89195
1004.059, 24.97251
1004.542, 24.85698
1005.024, 24.72140
1005.506, 24.73957
1005.988, 24.88437
1006.470, 25.13201
1006.952, 25.45176
1007.434, 25.54592
1007.916, 24.95031
1008.398, 24.30344
1008.881, 24.27306
1009.363, 24.55561
1009.845, 24.79467
1010.327, 24.91154
1010.809, 24.83095
1011.291, 24.53404
1011.773, 24.24912
1012.255, 24.23815
1012.738, 24.33274
1013.220, 24.20955
1013.702, 23.99439
1014.184, 24.05798
1014.666, 24.37775
1015.148, 24.57692
1015.630, 24.47134
1016.112, 24.23815
1016.594, 24.05521
1017.077, 23.92756
1017.559, 23.86832
1018.041, 23.87647
1018.523, 23.99969
1019.005, 24.22432
1019.487, 24.28765
1019.969, 24.02920
1020.451, 23.67445
1020.934, 23.58578
1021.416, 23.70213
1021.898, 23.63403
1022.380, 23.38894
1022.862, 23.23907
1023.344, 23.23828
1023.826, 23.33813
1024.308, 23.52835
1024.791, 23.71578
1025.273, 23.70544
1025.755, 23.50657
1026.237, 23.48721
1026.719, 23.68375
1027.201, 23.76863
1027.683, 23.66155
1028.165, 23.47100
1028.647, 23.24260
1029.130, 23.03345
1029.612, 22.98597
1030.094, 23.12209
1030.576, 23.09870
1031.058, 22.81975
1031.540, 22.74254
1032.022, 23.09169
1032.504, 23.36371
1032.986, 23.14081
1033.469, 22.66689
1033.951, 22.50155
1034.433, 22.70230
1034.915, 22.87461
1035.397, 23.08988
1035.879, 23.10383
1036.361, 22.66187
1036.843, 22.31178
1037.326, 22.56666
1037.808, 23.12107
1038.290, 23.22947
1038.772, 22.74393
1039.254, 22.48065
1039.736, 22.58755
1040.218, 22.68430
1040.700, 22.70719
1041.182, 22.68878
1041.665, 22.60890
1042.147, 22.51422
1042.629, 22.53483
1043.111, 22.72446
1043.593, 22.79267
1044.075, 22.59562
1044.557, 22.46661
1045.039, 22.54377
1045.521, 22.64068
1046.004, 22.62788
1046.486, 22.54251
1046.968, 22.47464
1047.450, 22.44065
1047.932, 22.36440
1048.414, 22.16622
1048.896, 22.02225
1049.378, 21.96543
1049.861, 21.99097
1050.343, 22.15778
1050.825, 22.38308
1051.307, 22.51679
1051.789, 22.54151
1052.271, 22.47280
1052.753, 22.18981
1053.235, 21.98059
1053.718, 21.99587
1054.200, 22.06138
1054.682, 22.07458
1055.164, 22.03137
1055.646, 21.90547
1056.128, 21.68387
1056.610, 21.59686
1057.092, 21.83325
1057.574, 22.04140
1058.057, 22.05378
1058.539, 22.03459
1059.021, 22.15671
1059.503, 22.32200
1059.985, 22.31513
1060.467, 22.10367
1060.949, 21.94381
1061.431, 21.94145
1061.913, 21.97500
1062.396, 22.03089
1062.878, 22.07250
1063.360, 21.94208
1063.842, 21.83546
1064.324, 22.22860
1064.806, 23.13279
1065.288, 23.62871
1065.770, 23.03375
1066.253, 22.43099
1066.735, 22.27155
1067.217, 22.26730
1067.699, 22.25415
1068.181, 22.21537
1068.663, 22.13809
1069.145, 22.03109
1069.627, 21.97055
1070.109, 22.02769
1070.592, 22.06331
1071.074, 21.94678
1071.556, 21.85383
1072.038, 22.00193
1072.520, 22.21279
1073.002, 22.18465
1073.484, 21.91933
1073.966, 21.70783
1074.448, 21.65262
1074.931, 21.67443
1075.413, 21.71979
1075.895, 21.84575
1076.377, 22.24982
1076.859, 22.66373
1077.341, 22.67226
1077.823, 22.31813
1078.305, 22.02244
1078.788, 21.93573
1079.270, 21.89659
1079.752, 21.76705
1080.234, 21.72878
1080.716, 22.07221
1081.198, 22.45929
1081.680, 22.44286
1082.162, 22.08530
1082.644, 21.75494
1083.127, 21.54969
1083.609, 21.45609
1084.091, 21.51410
1084.573, 21.62717
1085.055, 21.78290
1085.537, 21.92677
1086.019, 22.03420
1086.501, 22.07703
1086.984, 21.96258
1087.466, 21.64387
1087.948, 21.43445
1088.430, 21.54967
1088.912, 21.70339
1089.394, 21.73987
1089.876, 21.75321
1090.358, 21.88393
1090.840, 22.04637
1091.323, 22.03329
1091.805, 21.80253
1092.287, 21.58473
1092.769, 21.46154
1093.251, 21.37330
1093.733, 21.30255
1094.215, 21.24884
1094.697, 21.22326
1095.179, 21.20966
1095.662, 21.16031
1096.144, 21.07937
1096.626, 21.08856
1097.108, 21.34265
1097.590, 21.50916
1098.072, 21.44002
1098.554, 21.29321
1099.036, 21.12871
1099.519, 20.97095
1100.001, 20.85350
1100.483, 20.76911
1100.965, 20.64446
1101.447, 20.36052
1101.929, 20.26644
1102.411, 20.65509
1102.893, 21.00889
1103.375, 21.08889
1103.858, 21.00898
1104.340, 20.82504
1104.822, 20.59631
1105.304, 20.49886
1105.786, 20.62301
1106.268, 20.64379
1106.750, 20.42267
1107.232, 20.19661
1107.714, 19.94131
1108.197, 19.80538
1108.679, 20.02560
1109.161, 20.42006
1109.643, 20.56519
1110.125, 20.39429
1110.607, 20.23291
1111.089, 20.07110
1111.571, 19.97766
1112.054, 20.01822
1112.536, 20.07402
1113.018, 20.08055
1113.500, 20.05875
1113.982, 20.01503
1114.464, 19.94783
1114.946, 20.00884
1115.428, 20.37527
1115.911, 20.57361
1116.393, 20.50053
1116.875, 20.36683
1117.357, 20.24225
1117.839, 20.10906
1118.321, 19.93622
1118.803, 19.73532
1119.285, 19.56946
1119.767, 19.40578
1120.250, 19.36716
1120.732, 19.52114
1121.214, 19.66120
1121.696, 19.71398
1122.178, 19.76079
1122.660, 19.88207
1123.142, 20.03282
1123.624, 20.08677
1124.106, 20.02492
1124.589, 20.01348
1125.071, 20.06495
1125.553, 20.13012
1126.035, 20.21562
1126.517, 20.26532
1126.999, 20.24940
1127.481, 20.16594
1127.963, 19.98726
1128.446, 19.73406
1128.928, 19.67921
1129.410, 19.85642
1129.892, 19.90514
1130.374, 19.76346
1130.856, 19.67472
1131.338, 19.74620
1131.820, 19.87712
1132.302, 19.96400
1132.785, 20.01938
1133.267, 20.08152
1133.749, 20.14921
1134.231, 20.21922
1134.713, 20.28856
1135.195, 20.24177
1135.677, 20.04827
1136.159, 19.90502
1136.641, 19.96283
1137.124, 20.09118
1137.606, 20.04236
1138.088, 19.88017
1138.570, 19.86004
1139.052, 19.95092
1139.534, 19.99808
1140.016, 19.98532
1140.498, 20.00266
1140.981, 20.09170
1141.463, 20.18345
1141.945, 20.19618
1142.427, 20.17630
1142.909, 20.23283
1143.391, 20.30739
1143.873, 20.25137
1144.355, 20.09454
1144.838, 19.97432
1145.320, 19.92350
1145.802, 19.85263
1146.284, 19.67805
1146.766, 19.53919
1147.248, 19.61420
1147.730, 19.77319
1148.212, 19.86877
1148.694, 19.92659
1149.177, 20.02839
1149.659, 20.15740
1150.141, 20.20033
1150.623, 20.10544
1151.105, 20.00919
1151.587, 19.98276
1152.069, 19.99906
1152.551, 20.08741
1153.033, 20.16809
1153.516, 20.11748
1153.998, 20.01074
1154.480, 20.04548
1154.962, 20.24296
1155.444, 20.31858
1155.926, 20.05948
1156.408, 19.84055
1156.890, 19.76274
1157.373, 19.77010
1157.855, 19.92411
1158.337, 20.07863
1158.819, 20.03146
1159.301, 19.82621
1159.783, 19.71178
1160.265, 19.73324
1160.747, 19.78035
1161.229, 19.86748
1161.712, 19.95041
1162.194, 20.04429
1162.676, 20.10275
1163.158, 20.08523
1163.640, 20.01989
1164.122, 19.95490
1164.604, 19.88985
1165.086, 19.82051
1165.568, 19.72676
1166.051, 19.69554
1166.533, 19.75525
1167.015, 19.78168
1167.497, 19.64234
1167.979, 19.86118
1168.461, 19.97882
1168.943, 20.00069
1169.425, 19.63996
1169.908, 19.77326
1170.390, 19.70859
1170.872, 19.73187
1171.354, 19.91921
1171.836, 19.90632
1172.318, 19.82849
1172.800, 19.76159
1173.282, 19.73835
1173.765, 19.83243
1174.247, 19.98359
1174.729, 20.01908
1175.211, 19.95443
1175.693, 19.80146
1176.175, 19.59858
1176.657, 19.51232
1177.139, 19.58288
1177.621, 19.63024
1178.104, 19.49922
1178.586, 19.36626
1179.068, 19.47699
1179.550, 19.68654
1180.032, 19.85620
1180.514, 19.94268
1180.996, 19.83644
1181.478, 19.59164
1181.960, 19.42120
1182.443, 19.40350
1182.925, 19.43514
1183.407, 19.42271
1183.889, 19.48284
1184.371, 19.82081
1184.853, 20.13326
1185.335, 20.10318
1185.817, 19.89118
1186.300, 19.75341
1186.782, 19.72295
1187.264, 19.75735
1187.746, 19.91838
1188.228, 19.99389
1188.710, 19.90244
1189.192, 19.77801
1189.674, 19.61267
1190.156, 19.48647
1190.639, 19.45662
1191.121, 19.51205
1191.603, 19.65443
1192.085, 19.90071
1192.567, 19.99257
1193.049, 19.84851
1193.531, 19.79345
1194.013, 19.89604
1194.495, 19.98511
1194.978, 19.98509
1195.460, 19.94998
1195.942, 19.92305
1196.424, 19.92561
1196.906, 20.06084
1197.388, 20.31540
1197.870, 20.35691
1198.352, 20.19552
1198.835, 20.13181
1199.317, 20.21777
1199.799, 20.25936
1200.281, 20.15372
1200.763, 20.00240
1201.245, 19.89860
1201.727, 19.85692
1202.209, 19.94681
1202.692, 20.09752
1203.174, 20.16659
1203.656, 20.16282
1204.138, 20.13770
1204.620, 20.10776
1205.102, 20.07599
1205.584, 20.04038
1206.066, 20.02231
1206.548, 20.06207
1207.031, 20.09738
1207.513, 20.05209
1207.995, 20.00109
1208.477, 20.05620
1208.959, 20.15887
1209.441, 20.15209
1209.923, 20.01851
1210.405, 19.96764
1210.887, 20.12720
1211.370, 20.24965
1211.852, 20.27936
1212.334, 20.28582
1212.816, 20.26288
1213.298, 20.26233
1213.780, 20.34701
1214.262, 20.47680
1214.744, 20.55322
1215.227, 20.57462
1215.709, 20.54449
1216.191, 20.42492
1216.673, 20.43576
1217.155, 20.64605
1217.637, 20.76002
1218.119, 20.62993
1218.601, 20.48456
1219.083, 20.57195
1219.566, 20.76727
1220.048, 20.70990
1220.530, 20.49138
1221.012, 20.64018
1221.494, 21.04501
1221.976, 21.08105
1222.458, 20.70684
1222.940, 20.34680
1223.422, 20.19649
1223.905, 20.20608
1224.387, 20.40671
1224.869, 20.62969
1225.351, 20.67041
1225.833, 20.64955
1226.315, 20.75186
1226.797, 20.87786
1227.279, 20.80370
1227.762, 20.56501
1228.244, 20.43344
1228.726, 20.51470
1229.208, 20.56366
1229.690, 20.36052
1230.172, 20.30255
1230.654, 20.70932
1231.136, 21.11054
1231.619, 21.21109
1232.101, 21.11425
1232.583, 20.93661
1233.065, 20.69567
1233.547, 20.49618
1234.029, 20.31074
1234.511, 20.26969
1234.993, 20.40450
1235.475, 20.58070
1235.958, 20.78863
1236.440, 20.92492
1236.922, 20.91882
1237.404, 20.87457
1237.886, 20.94610
1238.368, 21.07028
1238.850, 21.03345
1239.332, 20.87735
1239.814, 20.76373
1240.297, 20.69601
1240.779, 20.60687
1241.261, 20.50292
1241.743, 20.53903
1242.225, 20.80765
1242.707, 21.01355
1243.189, 20.75574
1243.671, 20.47568
1244.154, 20.65020
1244.636, 20.94525
1245.118, 20.97892
1245.600, 20.87447
1246.082, 20.92234
1246.564, 21.11274
1247.046, 21.16062
1247.528, 20.97555
1248.010, 20.72424
1248.493, 20.23391
1248.975, 19.97248
1249.457, 20.18518
1249.939, 20.48611
1250.421, 20.72621
1250.903, 20.85510
1251.385, 20.76232
1251.867, 20.51246
1252.349, 20.49703
1252.832, 20.74246
1253.314, 20.87092
1253.796, 20.86829
1254.278, 20.86469
1254.760, 20.88904
1255.242, 20.89600
1255.724, 20.86089
1256.206, 20.80005
1256.689, 20.71791
1257.171, 20.64454
1257.653, 20.62075
1258.135, 20.64661
1258.617, 20.76203
1259.099, 20.90953
1259.581, 20.98431
1260.063, 20.97285
1260.546, 20.89676
1261.028, 20.75494
1261.510, 20.64433
1261.992, 20.62117
1262.474, 20.61928
1262.956, 20.59658
1263.438, 20.60517
1263.920, 20.76618
1264.402, 20.90787
1264.885, 20.76492
1265.367, 20.44116
1265.849, 20.31860
1266.331, 20.43592
1266.813, 20.49896
1267.295, 20.49007
1267.777, 20.52360
1268.259, 20.62821
1268.741, 20.66776
1269.224, 20.57646
1269.706, 20.51529
1270.188, 20.65277
1270.670, 20.84818
1271.152, 20.82428
1271.634, 20.66755
1272.116, 20.53405
1272.598, 20.45246
1273.081, 20.49748
1273.563, 20.64106
1274.045, 20.82376
1274.527, 21.00564
1275.009, 21.00468
1275.491, 20.58373
1275.973, 20.29395
1276.455, 20.46722
1276.938, 20.76124
1277.420, 21.15769
1277.902, 21.43056
1278.384, 21.32114
1278.866, 20.97256
1279.348, 20.63900
1279.830, 20.32827
1280.312, 20.24658
1280.794, 20.47719
1281.276, 20.61353
1281.759, 20.63305
1282.241, 20.56542
1282.723, 20.40579
1283.205, 20.30721
1283.687, 20.36439
1284.169, 20.50073
1284.651, 20.64208
1285.133, 20.75979
1285.616, 20.80123
1286.098, 20.76456
##END=



