##NAMES=Carnotite
##RRUFFID=R070345
##IDEAL CHEMISTRY=K_2_(U^6+^O_2_)_2_(V^5+^O_4_)_2_&#183;3H_2_O
##LOCALITY=Pick's Delta Mine (Delta Mine; Pick's Mine), Delta, San Rafael District (San Rafael Swell), Emery County, Utah, USA
##OWNER=RRUFF
##SOURCE=Michael Scott
##DESCRIPTION=Lemon-yellow fine-grained massive
##STATUS=The identification of this mineral has been made only by X-ray diffraction.
##URL=rruff.info/R070345
150.1439, 4642.519
150.6261, 4716.465
151.1082, 4787.544
151.5903, 4853.503
152.0724, 4909.603
152.5545, 4970.870
153.0366, 5043.190
153.5188, 5120.926
154.0009, 5192.697
154.4830, 5257.596
154.9651, 5316.409
155.4472, 5369.864
155.9293, 5415.311
156.4115, 5459.235
156.8936, 5503.068
157.3757, 5546.526
157.8578, 5589.293
158.3399, 5635.997
158.8221, 5679.183
159.3042, 5714.442
159.7863, 5734.157
160.2684, 5752.164
160.7505, 5770.003
161.2326, 5788.568
161.7148, 5813.600
162.1969, 5862.413
162.6790, 5913.321
163.1611, 5944.875
163.6432, 5922.359
164.1253, 5901.096
164.6075, 5914.512
165.0896, 5963.948
165.5717, 6015.665
166.0538, 6055.214
166.5359, 6084.425
167.0180, 6106.166
167.5002, 6119.461
167.9823, 6127.345
168.4644, 6131.036
168.9465, 6130.138
169.4286, 6128.415
169.9107, 6124.250
170.3929, 6121.099
170.8750, 6126.159
171.3571, 6153.199
171.8392, 6185.913
172.3213, 6204.939
172.8034, 6204.471
173.2856, 6200.859
173.7677, 6207.329
174.2498, 6222.864
174.7319, 6243.743
175.2140, 6279.768
175.6961, 6317.023
176.1783, 6331.328
176.6604, 6311.167
177.1425, 6279.394
177.6246, 6257.821
178.1067, 6247.046
178.5888, 6249.689
179.0710, 6275.870
179.5531, 6316.854
180.0352, 6353.615
180.5173, 6382.269
180.9994, 6403.515
181.4815, 6414.223
181.9637, 6414.840
182.4458, 6416.423
182.9279, 6428.194
183.4100, 6448.811
183.8921, 6473.919
184.3742, 6506.128
184.8564, 6540.398
185.3385, 6562.819
185.8206, 6572.960
186.3027, 6578.844
186.7848, 6590.514
187.2669, 6606.542
187.7491, 6616.057
188.2312, 6607.221
188.7133, 6588.564
189.1954, 6595.126
189.6775, 6630.365
190.1596, 6675.339
190.6418, 6711.238
191.1239, 6737.837
191.6060, 6754.629
192.0881, 6756.874
192.5702, 6746.644
193.0524, 6741.626
193.5345, 6741.787
194.0166, 6747.207
194.4987, 6763.486
194.9808, 6792.041
195.4629, 6810.075
195.9451, 6799.924
196.4272, 6762.244
196.9093, 6738.776
197.3914, 6732.401
197.8735, 6737.766
198.3556, 6746.817
198.8378, 6760.189
199.3199, 6772.996
199.8020, 6782.925
200.2841, 6789.890
200.7662, 6794.124
201.2483, 6795.691
201.7305, 6794.483
202.2126, 6788.426
202.6947, 6775.456
203.1768, 6765.347
203.6589, 6765.355
204.1410, 6777.088
204.6232, 6787.330
205.1053, 6794.135
205.5874, 6799.049
206.0695, 6807.914
206.5516, 6822.278
207.0337, 6836.521
207.5159, 6844.750
207.9980, 6843.707
208.4801, 6851.744
208.9622, 6872.903
209.4443, 6904.815
209.9264, 6937.341
210.4086, 6972.959
210.8907, 7004.313
211.3728, 7024.199
211.8549, 7029.523
212.3370, 7034.009
212.8191, 7037.533
213.3013, 7041.152
213.7834, 7054.694
214.2655, 7080.245
214.7476, 7112.515
215.2297, 7147.431
215.7118, 7186.589
216.1940, 7225.107
216.6761, 7262.824
217.1582, 7299.741
217.6403, 7330.984
218.1224, 7352.295
218.6045, 7373.128
219.0867, 7403.667
219.5688, 7448.702
220.0509, 7491.816
220.5330, 7529.650
221.0151, 7562.720
221.4972, 7587.610
221.9794, 7596.461
222.4615, 7606.125
222.9436, 7637.313
223.4257, 7703.472
223.9078, 7764.119
224.3899, 7809.205
224.8721, 7838.459
225.3542, 7862.769
225.8363, 7878.255
226.3184, 7892.663
226.8005, 7915.841
227.2827, 7950.867
227.7648, 7988.864
228.2469, 8030.125
228.7290, 8076.411
229.2111, 8110.554
229.6932, 8126.858
230.1754, 8135.240
230.6575, 8150.170
231.1396, 8180.371
231.6217, 8201.071
232.1038, 8201.227
232.5859, 8173.895
233.0681, 8164.749
233.5502, 8183.872
234.0323, 8213.894
234.5144, 8228.628
234.9965, 8216.728
235.4786, 8208.594
235.9608, 8214.882
236.4429, 8239.699
236.9250, 8258.838
237.4071, 8267.934
237.8892, 8273.932
238.3713, 8288.968
238.8535, 8320.879
239.3356, 8348.535
239.8177, 8362.414
240.2998, 8355.216
240.7819, 8363.476
241.2640, 8395.218
241.7462, 8437.871
242.2283, 8468.311
242.7104, 8474.137
243.1925, 8488.249
243.6746, 8523.563
244.1567, 8588.059
244.6389, 8647.025
245.1210, 8697.385
245.6031, 8743.919
246.0852, 8794.206
246.5673, 8847.571
247.0494, 8905.946
247.5316, 8971.754
248.0137, 9049.464
248.4958, 9120.016
248.9779, 9183.193
249.4600, 9238.941
249.9421, 9284.747
250.4243, 9316.472
250.9064, 9346.277
251.3885, 9379.388
251.8706, 9418.966
252.3527, 9452.774
252.8348, 9485.233
253.3170, 9509.255
253.7991, 9507.828
254.2812, 9467.700
254.7633, 9427.721
255.2454, 9406.179
255.7275, 9414.615
256.2097, 9397.257
256.6918, 9342.925
257.1739, 9270.703
257.6560, 9215.586
258.1381, 9183.243
258.6202, 9156.225
259.1024, 9128.437
259.5845, 9100.386
260.0666, 9071.644
260.5487, 9045.922
261.0308, 9016.705
261.5129, 8967.162
261.9951, 8887.566
262.4772, 8811.949
262.9593, 8756.923
263.4414, 8728.222
263.9235, 8688.132
264.4056, 8627.071
264.8878, 8563.127
265.3699, 8530.687
265.8520, 8540.873
266.3341, 8550.054
266.8162, 8540.580
267.2983, 8509.608
267.7805, 8477.922
268.2626, 8444.180
268.7447, 8411.523
269.2268, 8387.761
269.7089, 8376.853
270.1910, 8360.700
270.6732, 8330.117
271.1553, 8283.375
271.6374, 8239.729
272.1195, 8198.699
272.6016, 8161.380
273.0837, 8134.307
273.5659, 8120.844
274.0480, 8099.768
274.5301, 8057.367
275.0122, 7992.564
275.4943, 7944.231
275.9764, 7915.059
276.4586, 7897.298
276.9407, 7882.718
277.4228, 7872.635
277.9049, 7855.961
278.3870, 7822.114
278.8691, 7772.667
279.3513, 7747.221
279.8334, 7751.057
280.3155, 7765.305
280.7976, 7763.404
281.2798, 7744.607
281.7619, 7727.671
282.2440, 7721.657
282.7261, 7724.576
283.2082, 7718.552
283.6903, 7700.711
284.1725, 7684.516
284.6546, 7689.609
285.1367, 7715.165
285.6188, 7740.306
286.1009, 7753.797
286.5830, 7760.521
287.0652, 7785.311
287.5473, 7830.594
288.0294, 7878.073
288.5115, 7903.082
288.9936, 7908.914
289.4757, 7921.694
289.9579, 7951.854
290.4400, 7994.836
290.9221, 8036.935
291.4042, 8077.411
291.8863, 8126.221
292.3684, 8201.700
292.8506, 8296.854
293.3327, 8381.845
293.8148, 8441.894
294.2969, 8489.648
294.7790, 8552.425
295.2611, 8630.542
295.7433, 8710.527
296.2254, 8775.517
296.7075, 8833.739
297.1896, 8905.935
297.6717, 9004.146
298.1538, 9115.961
298.6360, 9223.297
299.1181, 9327.202
299.6002, 9428.446
300.0823, 9529.250
300.5644, 9628.704
301.0465, 9725.004
301.5287, 9812.979
302.0108, 9903.398
302.4929, 10012.84
302.9750, 10138.28
303.4571, 10256.22
303.9392, 10348.71
304.4214, 10425.71
304.9035, 10502.14
305.3856, 10578.54
305.8677, 10657.23
306.3498, 10748.83
306.8319, 10846.00
307.3141, 10924.66
307.7962, 10964.10
308.2783, 10980.00
308.7604, 10987.51
309.2425, 10989.26
309.7246, 10983.33
310.2068, 10966.08
310.6889, 10939.82
311.1710, 10910.54
311.6531, 10895.85
312.1352, 10870.23
312.6173, 10811.42
313.0995, 10707.87
313.5816, 10596.68
314.0637, 10487.81
314.5458, 10383.28
315.0279, 10285.96
315.5100, 10225.62
315.9922, 10151.17
316.4743, 10024.69
316.9564, 9824.811
317.4385, 9643.734
317.9206, 9524.681
318.4027, 9439.727
318.8849, 9349.851
319.3670, 9228.415
319.8491, 9114.512
320.3312, 9026.670
320.8133, 8970.876
321.2954, 8910.854
321.7776, 8833.372
322.2597, 8750.128
322.7418, 8673.591
323.2239, 8600.297
323.7060, 8539.111
324.1881, 8495.631
324.6703, 8471.433
325.1524, 8445.994
325.6345, 8405.313
326.1166, 8369.887
326.5987, 8356.125
327.0808, 8394.918
327.5630, 8418.726
328.0451, 8404.396
328.5272, 8355.440
329.0093, 8350.871
329.4914, 8429.505
329.9735, 8517.262
330.4557, 8563.519
330.9378, 8532.052
331.4199, 8522.108
331.9020, 8543.531
332.3841, 8592.701
332.8662, 8653.827
333.3484, 8732.122
333.8305, 8813.563
334.3126, 8893.372
334.7947, 8974.641
335.2768, 9040.089
335.7589, 9079.764
336.2411, 9108.035
336.7232, 9166.278
337.2053, 9264.245
337.6874, 9362.509
338.1695, 9439.207
338.6516, 9489.324
339.1338, 9557.952
339.6159, 9649.884
340.0980, 9753.151
340.5801, 9844.226
341.0622, 9922.630
341.5443, 10003.59
342.0265, 10097.04
342.5086, 10200.62
342.9907, 10301.13
343.4728, 10397.82
343.9549, 10491.04
344.4370, 10576.76
344.9192, 10655.72
345.4013, 10740.19
345.8834, 10835.15
346.3655, 10937.38
346.8476, 11034.59
347.3297, 11126.25
347.8119, 11217.51
348.2940, 11312.94
348.7761, 11411.40
349.2582, 11506.42
349.7403, 11594.00
350.2225, 11682.06
350.7046, 11779.63
351.1867, 11887.75
351.6688, 12007.64
352.1509, 12142.65
352.6331, 12289.62
353.1152, 12446.00
353.5973, 12617.26
354.0794, 12786.36
354.5615, 12935.06
355.0436, 13068.41
355.5258, 13201.83
356.0079, 13340.24
356.4900, 13484.39
356.9721, 13631.68
357.4542, 13776.75
357.9363, 13941.81
358.4185, 14163.52
358.9006, 14411.09
359.3827, 14631.28
359.8648, 14766.81
360.3469, 14898.54
360.8290, 15073.65
361.3112, 15303.46
361.7933, 15527.92
362.2754, 15725.23
362.7575, 15910.11
363.2396, 16099.33
363.7217, 16321.05
364.2039, 16520.51
364.6860, 16672.39
365.1681, 16776.53
365.6502, 16892.55
366.1323, 17056.70
366.6144, 17218.00
367.0966, 17341.52
367.5787, 17392.40
368.0608, 17445.82
368.5429, 17521.70
369.0250, 17608.77
369.5071, 17647.42
369.9893, 17619.77
370.4714, 17564.85
370.9535, 17501.96
371.4356, 17441.87
371.9177, 17350.49
372.3998, 17223.68
372.8820, 17066.54
373.3641, 16891.56
373.8462, 16699.12
374.3283, 16489.20
374.8104, 16261.22
375.2925, 16011.67
375.7747, 15765.50
376.2568, 15527.15
376.7389, 15279.31
377.2210, 14992.13
377.7031, 14662.01
378.1852, 14346.38
378.6674, 14064.42
379.1495, 13810.41
379.6316, 13544.71
380.1137, 13267.74
380.5958, 12995.45
381.0779, 12752.43
381.5601, 12529.96
382.0422, 12302.12
382.5243, 12052.29
383.0064, 11800.99
383.4885, 11581.95
383.9706, 11391.22
384.4528, 11215.04
384.9349, 11049.26
385.4170, 10888.99
385.8991, 10715.97
386.3812, 10516.62
386.8633, 10334.54
387.3455, 10226.64
387.8276, 10167.88
388.3097, 10099.15
388.7918, 9971.303
389.2739, 9834.864
389.7560, 9731.769
390.2382, 9667.094
390.7203, 9613.193
391.2024, 9554.296
391.6845, 9498.462
392.1666, 9454.294
392.6487, 9435.818
393.1309, 9419.552
393.6130, 9396.762
394.0951, 9367.688
394.5772, 9338.313
395.0593, 9300.831
395.5414, 9269.372
396.0236, 9253.195
396.5057, 9265.452
396.9878, 9278.930
397.4699, 9291.590
397.9520, 9303.766
398.4341, 9316.198
398.9163, 9324.064
399.3984, 9337.223
399.8805, 9360.359
400.3626, 9398.090
400.8447, 9431.602
401.3268, 9456.783
401.8090, 9480.755
402.2911, 9516.218
402.7732, 9569.906
403.2553, 9616.377
403.7374, 9647.084
404.2195, 9662.979
404.7017, 9681.019
405.1838, 9701.290
405.6659, 9723.727
406.1480, 9750.842
406.6301, 9782.949
407.1122, 9806.988
407.5944, 9819.007
408.0765, 9823.313
408.5586, 9833.253
409.0407, 9848.614
409.5228, 9853.813
410.0049, 9834.031
410.4871, 9796.078
410.9692, 9758.918
411.4513, 9724.988
411.9334, 9689.247
412.4155, 9645.371
412.8976, 9594.136
413.3798, 9539.799
413.8619, 9485.048
414.3440, 9426.799
414.8261, 9361.124
415.3082, 9287.631
415.7903, 9208.585
416.2725, 9116.407
416.7546, 9022.300
417.2367, 8937.297
417.7188, 8877.232
418.2009, 8815.694
418.6830, 8735.291
419.1652, 8642.043
419.6473, 8561.193
420.1294, 8505.100
420.6115, 8459.960
421.0937, 8419.192
421.5758, 8388.577
422.0579, 8349.720
422.5400, 8295.663
423.0221, 8232.863
423.5042, 8170.437
423.9864, 8096.582
424.4685, 8037.630
424.9506, 8005.179
425.4327, 8002.969
425.9148, 7983.533
426.3969, 7937.884
426.8791, 7885.294
427.3612, 7842.107
427.8433, 7809.477
428.3254, 7783.310
428.8075, 7764.759
429.2896, 7751.803
429.7718, 7739.585
430.2539, 7729.203
430.7360, 7713.898
431.2181, 7685.148
431.7002, 7644.552
432.1823, 7616.576
432.6645, 7603.962
433.1466, 7598.825
433.6287, 7591.523
434.1108, 7582.577
434.5929, 7574.650
435.0750, 7571.630
435.5572, 7569.171
436.0393, 7557.355
436.5214, 7536.671
437.0035, 7517.436
437.4856, 7509.858
437.9677, 7508.275
438.4499, 7504.692
438.9320, 7495.643
439.4141, 7486.577
439.8962, 7478.747
440.3783, 7473.705
440.8604, 7475.222
441.3426, 7489.332
441.8247, 7507.171
442.3068, 7524.804
442.7889, 7542.480
443.2710, 7556.573
443.7531, 7564.849
444.2353, 7569.506
444.7174, 7573.117
445.1995, 7569.265
445.6816, 7571.747
446.1637, 7584.913
446.6458, 7607.658
447.1280, 7630.180
447.6101, 7653.304
448.0922, 7675.376
448.5743, 7694.881
449.0564, 7710.295
449.5385, 7727.150
450.0207, 7743.759
450.5028, 7763.428
450.9849, 7794.600
451.4670, 7839.617
451.9491, 7883.091
452.4312, 7922.035
452.9134, 7955.179
453.3955, 7968.455
453.8776, 7958.643
454.3597, 7951.561
454.8418, 7976.509
455.3239, 8027.014
455.8061, 8074.665
456.2882, 8111.490
456.7703, 8145.993
457.2524, 8191.219
457.7345, 8245.050
458.2166, 8300.084
458.6988, 8350.912
459.1809, 8400.672
459.6630, 8453.680
460.1451, 8512.046
460.6272, 8565.153
461.1093, 8600.676
461.5915, 8628.580
462.0736, 8660.534
462.5557, 8703.263
463.0378, 8747.946
463.5199, 8789.779
464.0020, 8829.455
464.4842, 8874.219
464.9663, 8937.576
465.4484, 8997.070
465.9305, 9040.885
466.4126, 9062.623
466.8947, 9079.888
467.3769, 9089.713
467.8590, 9096.313
468.3411, 9108.010
468.8232, 9131.712
469.3053, 9146.156
469.7874, 9142.844
470.2696, 9123.049
470.7517, 9111.653
471.2338, 9111.363
471.7159, 9111.229
472.1980, 9097.685
472.6801, 9071.285
473.1623, 9060.355
473.6444, 9073.847
474.1265, 9094.533
474.6086, 9093.270
475.0907, 9072.066
475.5728, 9043.940
476.0550, 9008.985
476.5371, 8973.726
477.0192, 8952.924
477.5013, 8947.187
477.9834, 8938.359
478.4655, 8909.154
478.9477, 8869.344
479.4298, 8831.984
479.9119, 8800.412
480.3940, 8772.260
480.8761, 8750.809
481.3582, 8732.580
481.8404, 8707.789
482.3225, 8671.485
482.8046, 8629.351
483.2867, 8581.192
483.7688, 8522.418
484.2509, 8473.655
484.7331, 8441.595
485.2152, 8417.990
485.6973, 8394.279
486.1794, 8365.582
486.6615, 8345.738
487.1436, 8340.990
487.6258, 8346.688
488.1079, 8340.154
488.5900, 8318.722
489.0721, 8292.432
489.5542, 8264.569
490.0363, 8234.937
490.5185, 8212.478
491.0006, 8198.670
491.4827, 8188.518
491.9648, 8173.150
492.4470, 8154.670
492.9291, 8145.523
493.4112, 8153.824
493.8933, 8170.587
494.3754, 8183.871
494.8575, 8193.786
495.3397, 8200.248
495.8218, 8195.186
496.3039, 8190.655
496.7860, 8202.080
497.2681, 8236.017
497.7502, 8269.305
498.2324, 8290.504
498.7145, 8303.563
499.1966, 8314.256
499.6787, 8314.099
500.1608, 8321.906
500.6429, 8350.806
501.1251, 8398.666
501.6072, 8430.550
502.0893, 8421.948
502.5714, 8416.838
503.0535, 8436.700
503.5356, 8492.546
504.0178, 8547.256
504.4999, 8601.216
504.9820, 8653.211
505.4641, 8703.367
505.9462, 8752.588
506.4283, 8792.896
506.9105, 8813.448
507.3926, 8824.952
507.8747, 8873.958
508.3568, 8962.193
508.8389, 9060.944
509.3210, 9157.006
509.8032, 9248.371
510.2853, 9329.770
510.7674, 9399.535
511.2495, 9463.652
511.7316, 9526.398
512.2137, 9588.371
512.6959, 9649.759
513.1780, 9700.716
513.6601, 9760.061
514.1422, 9845.008
514.6243, 9952.208
515.1064, 10058.21
515.5886, 10148.99
516.0707, 10239.54
516.5528, 10339.84
517.0349, 10463.67
517.5170, 10572.90
517.9991, 10651.51
518.4813, 10717.67
518.9634, 10793.36
519.4455, 10881.39
519.9276, 10974.59
520.4097, 11075.25
520.8918, 11179.80
521.3740, 11272.54
521.8561, 11347.51
522.3382, 11430.36
522.8203, 11549.88
523.3024, 11701.28
523.7845, 11815.38
524.2667, 11884.09
524.7488, 11933.85
525.2309, 11994.66
525.7130, 12065.20
526.1951, 12140.24
526.6772, 12226.83
527.1594, 12309.68
527.6415, 12368.32
528.1236, 12405.81
528.6057, 12436.94
529.0878, 12476.32
529.5699, 12508.01
530.0521, 12517.96
530.5342, 12501.41
531.0163, 12477.47
531.4984, 12444.12
531.9805, 12409.78
532.4626, 12383.30
532.9448, 12393.72
533.4269, 12378.30
533.9090, 12326.14
534.3911, 12242.67
534.8732, 12147.96
535.3553, 12028.98
535.8375, 11921.48
536.3196, 11851.23
536.8017, 11820.80
537.2838, 11749.63
537.7659, 11629.30
538.2480, 11493.71
538.7302, 11378.13
539.2123, 11279.20
539.6944, 11182.49
540.1765, 11088.25
540.6586, 10988.54
541.1407, 10854.96
541.6229, 10700.31
542.1050, 10568.34
542.5871, 10509.11
543.0692, 10465.52
543.5513, 10381.77
544.0334, 10255.97
544.5156, 10135.81
544.9977, 10045.23
545.4798, 9968.544
545.9619, 9894.719
546.4440, 9822.805
546.9261, 9751.883
547.4083, 9676.051
547.8904, 9602.104
548.3725, 9544.129
548.8546, 9511.789
549.3367, 9478.269
549.8188, 9432.321
550.3010, 9376.806
550.7831, 9351.509
551.2652, 9366.833
551.7473, 9377.618
552.2294, 9337.452
552.7115, 9254.395
553.1937, 9216.667
553.6758, 9237.474
554.1579, 9277.788
554.6400, 9290.898
555.1221, 9284.485
555.6042, 9280.354
556.0864, 9287.738
556.5685, 9299.290
557.0506, 9303.564
557.5327, 9304.696
558.0148, 9318.190
558.4969, 9362.929
558.9791, 9413.974
559.4612, 9456.899
559.9433, 9489.600
560.4254, 9516.493
560.9075, 9533.104
561.3896, 9547.063
561.8718, 9565.363
562.3539, 9590.539
562.8360, 9615.983
563.3181, 9641.784
563.8002, 9667.036
564.2823, 9686.920
564.7645, 9697.450
565.2466, 9720.620
565.7287, 9773.176
566.2108, 9845.959
566.6929, 9889.594
567.1750, 9902.733
567.6572, 9909.292
568.1393, 9927.252
568.6214, 9953.076
569.1035, 9980.892
569.5856, 10011.75
570.0677, 10037.42
570.5499, 10047.51
571.0320, 10048.93
571.5141, 10052.72
571.9962, 10063.93
572.4783, 10077.30
572.9604, 10093.23
573.4426, 10110.35
573.9247, 10122.26
574.4068, 10128.19
574.8889, 10128.17
575.3710, 10122.00
575.8531, 10109.51
576.3353, 10092.36
576.8174, 10070.14
577.2995, 10044.12
577.7816, 10012.40
578.2637, 9973.792
578.7458, 9946.066
579.2280, 9935.497
579.7101, 9930.114
580.1922, 9907.479
580.6743, 9870.015
581.1564, 9831.403
581.6385, 9798.227
582.1207, 9767.283
582.6028, 9734.305
583.0849, 9699.961
583.5670, 9667.231
584.0491, 9643.626
584.5313, 9618.742
585.0134, 9584.098
585.4955, 9536.776
585.9776, 9485.491
586.4597, 9421.872
586.9418, 9360.095
587.4240, 9317.257
587.9061, 9302.493
588.3882, 9293.449
588.8703, 9297.484
589.3524, 9303.078
589.8345, 9269.614
590.3167, 9184.956
590.7988, 9107.559
591.2809, 9066.630
591.7630, 9054.988
592.2451, 9039.184
592.7272, 9019.079
593.2094, 8998.163
593.6915, 8979.283
594.1736, 8961.670
594.6557, 8945.104
595.1378, 8931.339
595.6199, 8912.316
596.1021, 8869.699
596.5842, 8821.334
597.0663, 8792.567
597.5485, 8826.593
598.0306, 8845.255
598.5127, 8811.308
598.9948, 8738.008
599.4769, 8683.691
599.9590, 8665.277
600.4412, 8649.261
600.9233, 8624.663
601.4054, 8590.568
601.8875, 8561.183
602.3696, 8538.281
602.8517, 8516.211
603.3339, 8489.425
603.8160, 8458.384
604.2981, 8432.314
604.7802, 8412.749
605.2623, 8397.347
605.7444, 8385.063
606.2266, 8374.778
606.7087, 8364.358
607.1908, 8356.970
607.6729, 8344.765
608.1550, 8314.364
608.6371, 8272.701
609.1193, 8241.258
609.6014, 8240.227
610.0835, 8241.752
610.5656, 8229.154
611.0477, 8197.630
611.5298, 8183.249
612.0120, 8203.989
612.4941, 8225.374
612.9762, 8221.856
613.4583, 8182.959
613.9404, 8157.911
614.4225, 8151.534
614.9047, 8154.601
615.3868, 8152.195
615.8689, 8145.288
616.3510, 8148.328
616.8331, 8171.347
617.3152, 8198.805
617.7974, 8206.334
618.2795, 8197.193
618.7616, 8184.623
619.2437, 8166.831
619.7258, 8155.149
620.2079, 8160.131
620.6901, 8182.201
621.1722, 8207.098
621.6543, 8241.942
622.1364, 8269.621
622.6185, 8275.088
623.1006, 8234.113
623.5828, 8225.275
624.0649, 8265.660
624.5470, 8322.512
625.0291, 8355.634
625.5112, 8360.313
625.9933, 8365.994
626.4755, 8376.828
626.9576, 8392.889
627.4397, 8414.919
627.9218, 8442.646
628.4039, 8473.978
628.8860, 8510.349
629.3682, 8548.579
629.8503, 8580.448
630.3324, 8607.808
630.8145, 8643.870
631.2966, 8705.299
631.7787, 8771.483
632.2609, 8828.082
632.7430, 8872.112
633.2251, 8911.172
633.7072, 8943.173
634.1893, 8972.395
634.6714, 9002.046
635.1536, 9029.877
635.6357, 9063.094
636.1178, 9101.550
636.5999, 9145.850
637.0820, 9198.640
637.5641, 9260.031
638.0463, 9321.998
638.5284, 9383.360
639.0105, 9443.009
639.4926, 9501.973
639.9747, 9559.495
640.4568, 9609.574
640.9390, 9638.328
641.4211, 9665.401
641.9032, 9714.249
642.3853, 9786.234
642.8674, 9849.336
643.3495, 9885.718
643.8317, 9911.948
644.3138, 9938.991
644.7959, 9962.505
645.2780, 9998.001
645.7601, 10050.75
646.2422, 10110.64
646.7244, 10168.99
647.2065, 10227.28
647.6886, 10272.81
648.1707, 10300.37
648.6528, 10317.49
649.1349, 10340.41
649.6171, 10367.68
650.0992, 10389.82
650.5813, 10399.34
651.0634, 10403.21
651.5455, 10410.59
652.0276, 10420.45
652.5098, 10426.81
652.9919, 10436.32
653.4740, 10433.75
653.9561, 10402.08
654.4382, 10331.70
654.9203, 10282.32
655.4025, 10282.31
655.8846, 10288.26
656.3667, 10271.20
656.8488, 10223.68
657.3309, 10174.72
657.8130, 10124.67
658.2952, 10074.08
658.7773, 10022.00
659.2594, 9968.633
659.7415, 9922.606
660.2236, 9889.194
660.7057, 9858.840
661.1879, 9813.956
661.6700, 9760.709
662.1521, 9716.873
662.6342, 9712.906
663.1163, 9702.215
663.5984, 9642.495
664.0806, 9541.471
664.5627, 9465.787
665.0448, 9457.802
665.5269, 9455.969
666.0090, 9432.986
666.4911, 9385.275
666.9733, 9344.521
667.4554, 9311.840
667.9375, 9283.905
668.4196, 9258.426
668.9017, 9235.299
669.3839, 9212.498
669.8660, 9188.376
670.3481, 9171.665
670.8302, 9181.534
671.3123, 9205.863
671.7944, 9218.188
672.2766, 9206.806
672.7587, 9186.842
673.2408, 9157.446
673.7229, 9127.774
674.2050, 9115.108
674.6871, 9135.772
675.1693, 9161.741
675.6514, 9185.863
676.1335, 9209.138
676.6156, 9238.019
677.0977, 9276.938
677.5798, 9311.410
678.0620, 9336.147
678.5441, 9351.139
679.0262, 9348.907
679.5083, 9328.085
679.9904, 9312.208
680.4725, 9322.318
680.9547, 9349.435
681.4368, 9381.479
681.9189, 9418.035
682.4010, 9447.570
682.8831, 9453.070
683.3652, 9451.815
683.8474, 9460.995
684.3295, 9486.810
684.8116, 9519.525
685.2937, 9566.311
685.7758, 9615.506
686.2579, 9649.980
686.7401, 9662.845
687.2222, 9678.959
687.7043, 9700.551
688.1864, 9729.798
688.6685, 9776.690
689.1506, 9839.959
689.6328, 9898.788
690.1149, 9939.361
690.5970, 9973.629
691.0791, 10020.48
691.5612, 10078.14
692.0433, 10135.97
692.5255, 10187.07
693.0076, 10238.78
693.4897, 10294.88
693.9718, 10355.53
694.4539, 10422.82
694.9360, 10506.21
695.4182, 10587.54
695.9003, 10658.30
696.3824, 10716.24
696.8645, 10765.11
697.3466, 10798.67
697.8287, 10839.59
698.3109, 10917.83
698.7930, 11026.99
699.2751, 11132.74
699.7572, 11226.86
700.2393, 11321.19
700.7214, 11432.23
701.2036, 11550.71
701.6857, 11660.87
702.1678, 11739.92
702.6499, 11829.75
703.1320, 11952.89
703.6141, 12098.18
704.0963, 12238.02
704.5784, 12364.24
705.0605, 12496.40
705.5426, 12640.34
706.0247, 12793.88
706.5068, 12944.00
706.9890, 13091.23
707.4711, 13236.84
707.9532, 13374.08
708.4353, 13511.25
708.9174, 13660.34
709.3995, 13823.05
709.8817, 14012.36
710.3638, 14256.07
710.8459, 14516.62
711.3280, 14751.12
711.8101, 14951.90
712.2922, 15175.57
712.7744, 15460.43
713.2565, 15759.13
713.7386, 16038.72
714.2207, 16275.90
714.7028, 16559.81
715.1849, 16909.09
715.6671, 17277.63
716.1492, 17617.76
716.6313, 17931.11
717.1134, 18271.12
717.5955, 18642.02
718.0776, 19047.25
718.5598, 19495.21
719.0419, 19975.24
719.5240, 20464.82
720.0061, 20961.59
720.4882, 21464.93
720.9703, 21965.03
721.4525, 22475.87
721.9346, 23031.87
722.4167, 23689.00
722.8988, 24332.85
723.3809, 24929.91
723.8630, 25499.59
724.3452, 26121.99
724.8273, 26798.73
725.3094, 27500.09
725.7915, 28209.60
726.2736, 28928.32
726.7557, 29654.53
727.2379, 30389.95
727.7200, 31148.28
728.2021, 31964.99
728.6842, 32786.26
729.1663, 33568.73
729.6484, 34303.61
730.1306, 35056.51
730.6127, 35884.89
731.0948, 36703.48
731.5769, 37473.51
732.0590, 38202.50
732.5411, 38874.70
733.0233, 39478.15
733.5054, 40051.60
733.9875, 40634.59
734.4696, 41224.43
734.9517, 41782.13
735.4338, 42307.39
735.9160, 42795.77
736.3981, 43259.80
736.8802, 43678.66
737.3623, 44020.89
737.8444, 44272.07
738.3266, 44458.01
738.8087, 44544.61
739.2908, 44588.80
739.7729, 44678.33
740.2551, 44899.05
740.7372, 45019.21
741.2193, 45009.85
741.7014, 44888.30
742.1835, 44670.68
742.6656, 44356.88
743.1478, 44027.01
743.6299, 43719.06
744.1120, 43390.27
744.5941, 42959.02
745.0762, 42449.63
745.5583, 41923.29
746.0405, 41461.93
746.5226, 40949.60
747.0047, 40293.04
747.4868, 39518.11
747.9689, 38791.71
748.4510, 38201.34
748.9332, 37583.77
749.4153, 36878.94
749.8974, 36097.32
750.3795, 35321.35
750.8616, 34550.53
751.3438, 33811.81
751.8259, 33150.32
752.3080, 32531.85
752.7901, 31846.97
753.2722, 31099.43
753.7543, 30355.91
754.2365, 29649.81
754.7186, 28972.82
755.2007, 28330.61
755.6828, 27719.91
756.1649, 27132.29
756.6470, 26573.84
757.1292, 26023.23
757.6113, 25463.51
758.0934, 24886.96
758.5755, 24339.16
759.0576, 23818.01
759.5397, 23315.80
760.0219, 22819.63
760.5040, 22331.67
760.9861, 21877.72
761.4682, 21470.95
761.9503, 21070.92
762.4324, 20625.85
762.9146, 20174.87
763.3967, 19762.06
763.8788, 19409.90
764.3609, 19078.50
764.8430, 18772.37
765.3251, 18480.75
765.8073, 18188.00
766.2894, 17894.05
766.7715, 17600.17
767.2536, 17302.88
767.7357, 17016.84
768.2178, 16772.66
768.7000, 16561.96
769.1821, 16357.65
769.6642, 16158.67
770.1463, 15946.90
770.6284, 15685.17
771.1105, 15402.21
771.5927, 15153.52
772.0748, 14979.38
772.5569, 14814.54
773.0390, 14651.54
773.5211, 14486.54
774.0032, 14307.75
774.4854, 14107.94
774.9675, 13923.19
775.4496, 13771.81
775.9317, 13635.79
776.4138, 13453.67
776.8959, 13239.38
777.3781, 13059.79
777.8602, 12982.69
778.3423, 12929.47
778.8244, 12838.15
779.3065, 12713.26
779.7886, 12577.90
780.2708, 12415.48
780.7529, 12269.12
781.2350, 12157.07
781.7171, 12074.45
782.1992, 11969.67
782.6813, 11834.14
783.1635, 11714.70
783.6456, 11648.32
784.1277, 11615.01
784.6098, 11545.19
785.0919, 11441.70
785.5740, 11331.10
786.0562, 11218.27
786.5383, 11113.22
787.0204, 11028.38
787.5025, 10963.53
787.9846, 10900.17
788.4667, 10830.85
788.9489, 10765.33
789.4310, 10706.72
789.9131, 10655.50
790.3952, 10613.34
790.8773, 10583.23
791.3594, 10549.71
791.8416, 10493.16
792.3237, 10425.73
792.8058, 10386.06
793.2879, 10375.14
793.7700, 10357.92
794.2521, 10293.51
794.7343, 10223.53
795.2164, 10186.54
795.6985, 10195.88
796.1806, 10195.73
796.6627, 10175.52
797.1448, 10149.36
797.6270, 10123.14
798.1091, 10094.86
798.5912, 10087.68
799.0733, 10105.91
799.5554, 10122.42
800.0375, 10101.34
800.5197, 10062.26
801.0018, 10043.69
801.4839, 10052.48
801.9660, 10068.78
802.4481, 10081.88
802.9302, 10096.40
803.4124, 10115.14
803.8945, 10133.27
804.3766, 10169.71
804.8587, 10231.67
805.3408, 10302.40
805.8229, 10365.79
806.3051, 10421.93
806.7872, 10486.65
807.2693, 10562.86
807.7514, 10639.50
808.2335, 10700.07
808.7156, 10756.34
809.1978, 10827.53
809.6799, 10921.64
810.1620, 11017.28
810.6441, 11096.94
811.1262, 11179.33
811.6083, 11282.43
812.0905, 11415.85
812.5726, 11548.92
813.0547, 11677.74
813.5368, 11809.97
814.0189, 11958.87
814.5010, 12120.50
814.9832, 12274.19
815.4653, 12417.46
815.9474, 12543.74
816.4295, 12628.69
816.9116, 12702.06
817.3937, 12805.18
817.8759, 12977.24
818.3580, 13119.79
818.8401, 13197.38
819.3222, 13245.17
819.8043, 13292.88
820.2864, 13339.72
820.7686, 13392.59
821.2507, 13455.11
821.7328, 13513.33
822.2149, 13552.42
822.6970, 13571.94
823.1791, 13565.80
823.6613, 13523.46
824.1434, 13486.31
824.6255, 13503.20
825.1076, 13530.81
825.5897, 13520.76
826.0718, 13430.35
826.5540, 13350.31
827.0361, 13287.25
827.5182, 13226.18
828.0003, 13147.00
828.4824, 13050.50
828.9645, 12952.98
829.4467, 12858.91
829.9288, 12757.65
830.4109, 12619.11
830.8930, 12471.55
831.3751, 12361.54
831.8572, 12324.26
832.3394, 12274.53
832.8215, 12173.47
833.3036, 12049.01
833.7857, 11934.50
834.2678, 11844.02
834.7499, 11720.80
835.2321, 11548.96
835.7142, 11374.71
836.1963, 11261.89
836.6784, 11196.12
837.1605, 11129.34
837.6426, 11053.10
838.1248, 10974.54
838.6069, 10899.79
839.0890, 10825.52
839.5711, 10748.28
840.0532, 10658.83
840.5353, 10583.42
841.0175, 10534.78
841.4996, 10488.42
841.9817, 10412.08
842.4638, 10302.99
842.9459, 10230.78
843.4280, 10206.78
843.9102, 10195.15
844.3923, 10164.35
844.8744, 10116.79
845.3565, 10051.82
845.8386, 9960.353
846.3207, 9884.286
846.8029, 9859.664
847.2850, 9845.645
847.7671, 9804.108
848.2492, 9715.613
848.7313, 9653.452
849.2134, 9624.982
849.6956, 9605.253
850.1777, 9569.938
850.6598, 9522.378
851.1419, 9473.249
851.6240, 9423.348
852.1061, 9374.947
852.5883, 9329.199
853.0704, 9285.545
853.5525, 9242.005
854.0346, 9196.468
854.5167, 9159.218
854.9988, 9135.342
855.4810, 9113.644
855.9631, 9085.587
856.4452, 9050.931
856.9273, 9018.282
857.4094, 8988.201
857.8915, 8956.921
858.3737, 8919.667
858.8558, 8880.503
859.3379, 8844.247
859.8200, 8811.781
860.3021, 8782.039
860.7842, 8764.292
861.2664, 8741.089
861.7485, 8700.480
862.2306, 8639.094
862.7127, 8590.848
863.1948, 8555.731
863.6769, 8532.108
864.1591, 8529.594
864.6412, 8534.958
865.1233, 8509.556
865.6054, 8454.877
866.0875, 8408.565
866.5696, 8410.279
867.0518, 8412.616
867.5339, 8380.482
868.0160, 8309.180
868.4981, 8254.867
868.9802, 8223.769
869.4623, 8196.611
869.9445, 8165.372
870.4266, 8130.897
870.9087, 8094.446
871.3908, 8056.464
871.8729, 8026.342
872.3550, 8019.149
872.8372, 8014.102
873.3193, 7986.889
873.8014, 7943.062
874.2835, 7917.152
874.7656, 7947.824
875.2477, 7959.031
875.7299, 7922.183
876.2120, 7853.557
876.6941, 7817.688
877.1762, 7814.583
877.6583, 7814.444
878.1404, 7804.669
878.6226, 7790.862
879.1047, 7782.445
879.5869, 7776.054
880.0690, 7762.833
880.5511, 7735.582
881.0332, 7705.255
881.5153, 7666.289
881.9974, 7629.109
882.4796, 7619.795
882.9617, 7645.693
883.4438, 7656.397
883.9259, 7636.102
884.4080, 7603.317
884.8901, 7588.438
885.3723, 7584.025
885.8544, 7571.899
886.3365, 7538.234
886.8186, 7508.313
887.3007, 7496.021
887.7828, 7493.277
888.2650, 7488.841
888.7471, 7482.311
889.2292, 7475.673
889.7113, 7471.102
890.1934, 7461.816
890.6755, 7430.700
891.1577, 7387.371
891.6398, 7363.017
892.1219, 7366.368
892.6040, 7374.963
893.0861, 7372.542
893.5682, 7368.412
894.0504, 7374.305
894.5325, 7407.859
895.0146, 7404.690
895.4967, 7345.933
895.9788, 7285.368
896.4609, 7275.137
896.9431, 7305.931
897.4252, 7320.479
897.9073, 7315.669
898.3894, 7305.880
898.8715, 7301.565
899.3536, 7297.323
899.8358, 7285.081
900.3179, 7262.724
900.8000, 7254.981
901.2821, 7275.241
901.7642, 7293.786
902.2463, 7297.068
902.7285, 7286.780
903.2106, 7273.846
903.6927, 7258.530
904.1748, 7246.270
904.6569, 7242.750
905.1390, 7242.012
905.6212, 7238.227
906.1033, 7231.923
906.5854, 7225.709
907.0675, 7216.419
907.5496, 7212.355
908.0317, 7216.573
908.5139, 7226.827
908.9960, 7238.613
909.4781, 7251.896
909.9602, 7258.152
910.4423, 7252.155
910.9244, 7241.282
911.4066, 7236.019
911.8887, 7232.096
912.3708, 7221.510
912.8529, 7186.199
913.3350, 7164.126
913.8171, 7167.212
914.2993, 7182.676
914.7814, 7197.524
915.2635, 7212.788
915.7456, 7208.200
916.2277, 7175.049
916.7098, 7147.048
917.1920, 7179.050
917.6741, 7235.532
918.1562, 7262.494
918.6383, 7241.515
919.1204, 7216.907
919.6025, 7188.701
920.0847, 7172.555
920.5668, 7185.323
921.0489, 7235.379
921.5310, 7250.694
922.0131, 7228.122
922.4952, 7197.206
922.9774, 7179.669
923.4595, 7170.037
923.9416, 7157.076
924.4237, 7141.356
924.9058, 7138.895
925.3879, 7170.204
925.8701, 7201.772
926.3522, 7219.272
926.8343, 7224.462
927.3164, 7231.841
927.7985, 7242.092
928.2806, 7248.338
928.7628, 7244.208
929.2449, 7237.235
929.7270, 7237.951
930.2091, 7245.546
930.6912, 7257.865
931.1733, 7287.186
931.6555, 7305.445
932.1376, 7294.310
932.6197, 7271.091
933.1018, 7262.646
933.5839, 7269.181
934.0660, 7291.827
934.5482, 7335.858
935.0303, 7380.735
935.5124, 7397.036
935.9945, 7396.877
936.4766, 7402.536
936.9587, 7424.332
937.4409, 7438.299
937.9230, 7419.407
938.4051, 7403.299
938.8872, 7422.707
939.3693, 7489.243
939.8514, 7520.354
940.3336, 7512.127
940.8157, 7494.354
941.2978, 7486.980
941.7799, 7487.975
942.2620, 7493.905
942.7441, 7504.667
943.2263, 7523.402
943.7084, 7555.133
944.1905, 7591.165
944.6726, 7628.474
945.1547, 7666.908
945.6368, 7707.377
946.1190, 7750.775
946.6011, 7785.190
947.0832, 7793.431
947.5653, 7803.003
948.0474, 7864.711
948.5295, 7956.146
949.0117, 8025.188
949.4938, 8027.974
949.9759, 8039.147
950.4580, 8071.341
950.9401, 8120.060
951.4222, 8181.085
951.9044, 8254.864
952.3865, 8329.169
952.8686, 8403.548
953.3507, 8470.872
953.8328, 8510.196
954.3149, 8544.278
954.7971, 8606.600
955.2792, 8713.450
955.7613, 8805.067
956.2434, 8863.799
956.7255, 8915.571
957.2076, 8976.131
957.6898, 9045.322
958.1719, 9103.060
958.6540, 9150.167
959.1361, 9210.729
959.6182, 9314.729
960.1003, 9430.006
960.5825, 9531.139
961.0646, 9618.186
961.5467, 9698.043
962.0288, 9765.112
962.5109, 9836.014
962.9930, 9917.851
963.4752, 10001.37
963.9573, 10055.75
964.4394, 10086.03
964.9215, 10126.38
965.4036, 10189.99
965.8857, 10263.66
966.3679, 10355.48
966.8500, 10443.07
967.3321, 10496.50
967.8142, 10487.28
968.2963, 10488.03
968.7784, 10502.31
969.2606, 10519.93
969.7427, 10531.08
970.2248, 10536.85
970.7069, 10544.72
971.1890, 10555.07
971.6711, 10551.02
972.1533, 10516.60
972.6354, 10468.06
973.1175, 10413.32
973.5996, 10353.18
974.0817, 10295.67
974.5638, 10242.34
975.0460, 10187.21
975.5281, 10132.14
976.0102, 10068.78
976.4923, 9971.621
976.9744, 9850.228
977.4565, 9732.707
977.9387, 9630.646
978.4208, 9535.325
978.9029, 9451.959
979.3850, 9369.982
979.8671, 9271.433
980.3492, 9152.099
980.8314, 9045.165
981.3135, 8955.898
981.7956, 8870.493
982.2777, 8778.908
982.7598, 8677.764
983.2419, 8557.103
983.7241, 8411.982
984.2062, 8277.899
984.6883, 8172.607
985.1704, 8073.646
985.6525, 7968.141
986.1346, 7858.295
986.6168, 7768.769
987.0989, 7699.216
987.5810, 7638.814
988.0631, 7586.558
988.5452, 7536.027
989.0273, 7474.772
989.5095, 7410.989
989.9916, 7367.115
990.4737, 7368.008
990.9558, 7356.235
991.4379, 7322.557
991.9200, 7277.530
992.4022, 7235.871
992.8843, 7197.271
993.3664, 7155.518
993.8485, 7107.270
994.3306, 7072.618
994.8127, 7081.780
995.2949, 7099.632
995.7770, 7095.423
996.2591, 7065.896
996.7412, 7023.854
997.2233, 6961.146
997.7054, 6917.095
998.1876, 6934.190
998.6697, 6979.355
999.1518, 6974.839
999.6339, 6931.220
1000.116, 6891.126
1000.598, 6881.250
1001.080, 6868.737
1001.562, 6830.241
1002.044, 6787.248
1002.527, 6785.552
1003.009, 6829.365
1003.491, 6852.523
1003.973, 6840.574
1004.455, 6814.634
1004.937, 6789.831
1005.419, 6768.878
1005.901, 6756.735
1006.384, 6756.735
1006.866, 6754.786
1007.348, 6746.062
1007.830, 6739.980
1008.312, 6745.217
1008.794, 6758.124
1009.276, 6752.629
1009.758, 6731.395
1010.240, 6716.377
1010.723, 6726.764
1011.205, 6741.128
1011.687, 6750.249
1012.169, 6752.334
1012.651, 6743.147
1013.133, 6716.716
1013.615, 6696.583
1014.097, 6686.378
1014.580, 6683.130
1015.062, 6689.955
1015.544, 6698.819
1016.026, 6690.332
1016.508, 6656.543
1016.990, 6632.114
1017.472, 6639.666
1017.954, 6653.035
1018.436, 6660.098
1018.919, 6660.501
1019.401, 6638.847
1019.883, 6595.034
1020.365, 6567.788
1020.847, 6592.469
1021.329, 6633.535
1021.811, 6663.089
1022.293, 6680.625
1022.776, 6685.432
1023.258, 6675.016
1023.740, 6652.848
1024.222, 6610.255
1024.704, 6571.048
1025.186, 6577.042
1025.668, 6614.417
1026.150, 6636.759
1026.632, 6637.436
1027.115, 6626.764
1027.597, 6591.252
1028.079, 6563.518
1028.561, 6573.764
1029.043, 6619.281
1029.525, 6632.788
1030.007, 6609.197
1030.489, 6594.752
1030.972, 6619.999
1031.454, 6655.551
1031.936, 6665.375
1032.418, 6653.399
1032.900, 6628.148
1033.382, 6556.536
1033.864, 6525.511
1034.346, 6561.248
1034.828, 6614.678
1035.311, 6628.753
1035.793, 6609.583
1036.275, 6595.673
1036.757, 6590.042
1037.239, 6588.095
1037.721, 6589.563
1038.203, 6590.924
1038.685, 6589.333
1039.167, 6585.037
1039.650, 6579.530
1040.132, 6570.002
1040.614, 6573.799
1041.096, 6603.725
1041.578, 6637.875
1042.060, 6634.250
1042.542, 6610.321
1043.024, 6599.905
1043.507, 6625.397
1043.989, 6640.016
1044.471, 6631.322
1044.953, 6614.248
1045.435, 6598.099
1045.917, 6583.153
1046.399, 6571.373
1046.881, 6563.057
1047.364, 6561.863
1047.846, 6576.701
1048.328, 6593.564
1048.810, 6603.311
1049.292, 6606.646
1049.774, 6607.957
1050.256, 6604.174
1050.738, 6612.406
1051.220, 6641.683
1051.703, 6668.985
1052.185, 6653.143
1052.667, 6614.584
1053.149, 6588.359
1053.631, 6584.161
1054.113, 6578.633
1054.595, 6551.386
1055.077, 6538.437
1055.559, 6565.938
1056.042, 6625.241
1056.524, 6661.272
1057.006, 6674.625
1057.488, 6670.181
1057.970, 6629.300
1058.452, 6593.451
1058.934, 6592.362
1059.416, 6613.186
1059.899, 6632.407
1060.381, 6653.613
1060.863, 6656.454
1061.345, 6636.588
1061.827, 6609.588
1062.309, 6584.614
1062.791, 6566.012
1063.273, 6562.982
1063.755, 6575.829
1064.238, 6589.238
1064.720, 6598.190
1065.202, 6608.438
1065.684, 6621.730
1066.166, 6637.276
1066.648, 6660.386
1067.130, 6685.350
1067.612, 6683.396
1068.094, 6629.797
1068.577, 6584.737
1069.059, 6599.611
1069.541, 6629.994
1070.023, 6627.661
1070.505, 6580.148
1070.987, 6576.830
1071.469, 6622.519
1071.951, 6664.697
1072.434, 6655.935
1072.916, 6632.060
1073.398, 6643.653
1073.880, 6677.733
1074.362, 6686.481
1074.844, 6638.138
1075.326, 6599.215
1075.808, 6575.236
1076.291, 6567.512
1076.773, 6586.052
1077.255, 6621.442
1077.737, 6648.796
1078.219, 6664.619
1078.701, 6666.658
1079.183, 6638.128
1079.665, 6610.847
1080.147, 6599.842
1080.630, 6603.536
1081.112, 6615.279
1081.594, 6634.668
1082.076, 6649.134
1082.558, 6652.448
1083.040, 6651.947
1083.522, 6655.172
1084.004, 6658.133
1084.486, 6654.548
1084.969, 6638.931
1085.451, 6631.419
1085.933, 6633.797
1086.415, 6637.793
1086.897, 6639.730
1087.379, 6637.754
1087.861, 6619.010
1088.343, 6591.109
1088.826, 6585.910
1089.308, 6646.123
1089.790, 6687.884
1090.272, 6691.960
1090.754, 6676.471
1091.236, 6672.118
1091.718, 6673.760
1092.200, 6648.009
1092.682, 6586.593
1093.165, 6549.355
1093.647, 6606.633
1094.129, 6670.241
1094.611, 6680.785
1095.093, 6646.317
1095.575, 6624.694
1096.057, 6616.333
1096.539, 6610.161
1097.022, 6601.155
1097.504, 6594.869
1097.986, 6599.042
1098.468, 6608.738
1098.950, 6617.415
1099.432, 6624.805
1099.914, 6629.358
1100.396, 6631.133
1100.879, 6629.687
1101.361, 6622.662
1101.843, 6613.100
1102.325, 6601.058
1102.807, 6590.680
1103.289, 6597.030
1103.771, 6663.154
1104.253, 6692.100
1104.735, 6650.078
1105.218, 6588.662
1105.700, 6586.098
1106.182, 6629.098
1106.664, 6654.721
1107.146, 6656.133
1107.628, 6650.538
1108.110, 6643.931
1108.592, 6637.894
1109.074, 6632.185
1109.557, 6627.791
1110.039, 6632.723
1110.521, 6647.272
1111.003, 6648.495
1111.485, 6625.599
1111.967, 6600.000
1112.449, 6587.799
1112.931, 6586.748
1113.414, 6598.628
1113.896, 6629.464
1114.378, 6636.769
1114.860, 6615.305
1115.342, 6592.906
1115.824, 6581.696
1116.306, 6582.022
1116.788, 6604.998
1117.271, 6638.634
1117.753, 6656.448
1118.235, 6629.854
1118.717, 6618.591
1119.199, 6634.484
1119.681, 6650.959
1120.163, 6634.359
1120.645, 6598.275
1121.127, 6582.237
1121.609, 6587.002
1122.092, 6600.897
1122.574, 6632.016
1123.056, 6654.151
1123.538, 6658.302
1124.020, 6649.700
1124.502, 6634.111
1124.984, 6613.327
1125.466, 6603.790
1125.949, 6609.517
1126.431, 6618.553
1126.913, 6627.576
1127.395, 6632.537
1127.877, 6630.360
1128.359, 6621.540
1128.841, 6603.901
1129.323, 6576.280
1129.806, 6560.990
1130.288, 6569.542
1130.770, 6586.208
1131.252, 6604.282
1131.734, 6616.468
1132.216, 6610.660
1132.698, 6578.654
1133.180, 6553.645
1133.662, 6534.610
1134.145, 6527.770
1134.627, 6548.778
1135.109, 6576.593
1135.591, 6572.253
1136.073, 6547.860
1136.555, 6534.171
1137.037, 6550.879
1137.519, 6562.879
1138.001, 6568.402
1138.484, 6568.183
1138.966, 6557.958
1139.448, 6543.821
1139.930, 6544.076
1140.412, 6557.631
1140.894, 6565.860
1141.376, 6551.743
1141.858, 6543.948
1142.341, 6553.364
1142.823, 6569.264
1143.305, 6570.946
1143.787, 6561.476
1144.269, 6553.601
1144.751, 6549.107
1145.233, 6550.184
1145.715, 6568.300
1146.198, 6581.385
1146.680, 6572.243
1147.162, 6548.918
1147.644, 6556.305
1148.126, 6591.218
1148.608, 6608.766
1149.090, 6589.073
1149.572, 6564.021
1150.054, 6560.685
1150.536, 6561.193
1151.019, 6543.861
1151.501, 6505.272
1151.983, 6500.115
1152.465, 6530.003
1152.947, 6552.132
1153.429, 6532.194
1153.911, 6506.801
1154.393, 6515.862
1154.876, 6542.188
1155.358, 6554.556
1155.840, 6542.407
1156.322, 6544.717
1156.804, 6565.529
1157.286, 6582.473
1157.768, 6567.496
1158.250, 6545.322
1158.733, 6555.491
1159.215, 6587.013
1159.697, 6593.514
1160.179, 6547.503
1160.661, 6523.363
1161.143, 6533.316
1161.625, 6556.510
1162.107, 6573.534
1162.589, 6585.253
1163.072, 6593.577
1163.554, 6598.491
1164.036, 6596.198
1164.518, 6584.156
1165.000, 6565.875
1165.482, 6536.380
1165.964, 6510.210
1166.446, 6525.336
1166.928, 6561.812
1167.411, 6570.589
1167.893, 6537.401
1168.375, 6515.639
1168.857, 6531.634
1169.339, 6551.961
1169.821, 6568.160
1170.303, 6576.928
1170.785, 6557.441
1171.268, 6521.668
1171.750, 6511.423
1172.232, 6552.857
1172.714, 6587.394
1173.196, 6585.959
1173.678, 6575.112
1174.160, 6567.137
1174.642, 6562.903
1175.125, 6573.887
1175.607, 6596.600
1176.089, 6611.353
1176.571, 6607.000
1177.053, 6595.283
1177.535, 6570.685
1178.017, 6549.283
1178.499, 6549.306
1178.981, 6570.396
1179.464, 6579.967
1179.946, 6578.259
1180.428, 6575.428
1180.910, 6584.688
1181.392, 6587.126
1181.874, 6562.169
1182.356, 6529.107
1182.838, 6519.132
1183.320, 6533.104
1183.803, 6542.568
1184.285, 6545.259
1184.767, 6544.858
1185.249, 6538.397
1185.731, 6535.310
1186.213, 6548.202
1186.695, 6568.801
1187.177, 6570.350
1187.660, 6550.623
1188.142, 6550.328
1188.624, 6578.991
1189.106, 6603.798
1189.588, 6587.494
1190.070, 6562.157
1190.552, 6553.123
1191.034, 6559.989
1191.516, 6570.486
1191.999, 6585.230
1192.481, 6597.905
1192.963, 6606.167
1193.445, 6615.345
1193.927, 6641.873
1194.409, 6664.477
1194.891, 6654.428
1195.373, 6609.432
1195.855, 6588.213
1196.338, 6593.112
1196.820, 6600.270
1197.302, 6599.408
1197.784, 6599.038
1198.266, 6617.396
1198.748, 6637.060
1199.230, 6630.792
1199.712, 6588.714
1200.195, 6573.708
1200.677, 6589.477
1201.159, 6606.663
1201.641, 6611.614
1202.123, 6607.519
1202.605, 6589.852
1203.087, 6568.536
1203.569, 6560.678
1204.052, 6574.182
1204.534, 6580.637
1205.016, 6578.720
1205.498, 6577.990
1205.980, 6588.810
1206.462, 6601.384
1206.944, 6604.139
1207.426, 6599.952
1207.908, 6594.550
1208.391, 6584.534
1208.873, 6587.656
1209.355, 6607.944
1209.837, 6623.759
1210.319, 6610.208
1210.801, 6587.179
1211.283, 6574.303
1211.765, 6571.563
1212.247, 6578.175
1212.730, 6599.302
1213.212, 6611.481
1213.694, 6612.248
1214.176, 6603.725
1214.658, 6573.319
1215.140, 6545.206
1215.622, 6554.274
1216.104, 6594.402
1216.587, 6619.125
1217.069, 6621.042
1217.551, 6623.794
1218.033, 6631.521
1218.515, 6639.559
1218.997, 6645.176
1219.479, 6646.564
1219.961, 6638.022
1220.443, 6620.745
1220.926, 6615.154
1221.408, 6625.896
1221.890, 6632.273
1222.372, 6628.830
1222.854, 6621.791
1223.336, 6616.517
1223.818, 6613.149
1224.300, 6611.707
1224.782, 6612.389
1225.265, 6618.162
1225.747, 6632.804
1226.229, 6632.158
1226.711, 6603.596
1227.193, 6571.238
1227.675, 6560.422
1228.157, 6564.804
1228.639, 6582.107
1229.122, 6614.189
1229.604, 6623.444
1230.086, 6605.473
1230.568, 6594.173
1231.050, 6602.975
1231.532, 6623.215
1232.014, 6659.680
1232.496, 6693.433
1232.979, 6696.676
1233.461, 6663.435
1233.943, 6645.282
1234.425, 6643.811
1234.907, 6642.667
1235.389, 6632.346
1235.871, 6622.049
1236.353, 6621.467
1236.835, 6625.931
1237.318, 6629.824
1237.800, 6633.049
1238.282, 6635.396
1238.764, 6637.198
1239.246, 6629.954
1239.728, 6591.119
1240.210, 6564.033
1240.692, 6606.677
1241.175, 6672.256
1241.657, 6694.962
1242.139, 6666.170
1242.621, 6642.023
1243.103, 6622.245
1243.585, 6615.211
1244.067, 6633.578
1244.549, 6657.853
1245.031, 6685.996
1245.514, 6705.197
1245.996, 6694.913
1246.478, 6650.639
1246.960, 6634.066
1247.442, 6645.036
1247.924, 6660.125
1248.406, 6670.434
1248.888, 6673.717
1249.370, 6658.409
1249.853, 6641.686
1250.335, 6652.792
1250.817, 6689.865
1251.299, 6684.810
1251.781, 6638.919
1252.263, 6614.445
1252.745, 6679.790
1253.227, 6739.725
1253.710, 6748.901
1254.192, 6732.142
1254.674, 6712.791
1255.156, 6692.862
1255.638, 6688.959
1256.120, 6701.005
1256.602, 6716.030
1257.084, 6735.881
1257.567, 6745.357
1258.049, 6737.481
1258.531, 6721.095
1259.013, 6702.318
1259.495, 6685.552
1259.977, 6694.722
1260.459, 6728.056
1260.941, 6747.113
1261.423, 6711.883
1261.906, 6691.607
1262.388, 6705.202
1262.870, 6733.976
1263.352, 6759.474
1263.834, 6776.685
1264.316, 6766.259
1264.798, 6729.677
1265.280, 6705.098
1265.762, 6713.513
1266.245, 6718.925
1266.727, 6713.156
1267.209, 6706.443
1267.691, 6714.416
1268.173, 6730.269
1268.655, 6746.135
1269.137, 6760.550
1269.619, 6760.052
1270.102, 6732.533
1270.584, 6723.061
1271.066, 6744.741
1271.548, 6774.573
1272.030, 6787.850
1272.512, 6789.510
1272.994, 6780.010
1273.476, 6761.423
1273.958, 6756.343
1274.441, 6767.915
1274.923, 6782.428
1275.405, 6799.715
1275.887, 6805.767
1276.369, 6774.543
1276.851, 6733.959
1277.333, 6704.075
1277.815, 6688.999
1278.297, 6711.183
1278.780, 6773.429
1279.262, 6805.417
1279.744, 6786.410
1280.226, 6762.144
1280.708, 6775.365
1281.190, 6791.628
1281.672, 6781.385
1282.154, 6754.385
1282.637, 6746.172
1283.119, 6755.473
1283.601, 6773.174
1284.083, 6799.783
1284.565, 6817.225
1285.047, 6803.180
1285.529, 6790.173
1286.011, 6797.092
1286.494, 6814.179
1286.976, 6815.111
1287.458, 6802.437
1287.940, 6781.022
1288.422, 6749.513
1288.904, 6729.495
1289.386, 6728.531
1289.868, 6744.080
1290.350, 6782.904
1290.833, 6827.449
1291.315, 6845.706
1291.797, 6842.076
1292.279, 6818.811
1292.761, 6771.820
1293.243, 6748.245
1293.725, 6760.309
1294.207, 6774.639
1294.689, 6781.500
1295.172, 6782.832
1295.654, 6774.998
1296.136, 6766.960
1296.618, 6771.443
1297.100, 6791.704
1297.582, 6814.895
1298.064, 6843.574
1298.546, 6859.041
1299.029, 6853.595
1299.511, 6838.982
1299.993, 6824.950
1300.475, 6809.807
1300.957, 6786.866
1301.439, 6759.776
1301.921, 6756.602
1302.403, 6776.493
1302.885, 6793.813
1303.368, 6801.276
1303.850, 6806.110
1304.332, 6814.034
1304.814, 6819.988
1305.296, 6821.506
1305.778, 6818.780
1306.260, 6809.276
1306.742, 6795.835
1307.224, 6791.071
1307.707, 6800.229
1308.189, 6805.932
1308.671, 6798.850
1309.153, 6789.341
1309.635, 6778.746
1310.117, 6770.951
1310.599, 6777.420
1311.081, 6792.129
1311.564, 6803.233
1312.046, 6808.110
1312.528, 6812.365
1313.010, 6821.014
1313.492, 6813.817
1313.974, 6775.839
1314.456, 6739.202
1314.938, 6756.813
##END=



