##NAMES=Carnotite
##RRUFFID=R070647
##IDEAL CHEMISTRY=K_2_(U^6+^O_2_)_2_(V^5+^O_4_)_2_&#183;3H_2_O
##LOCALITY=Anderson mine, Yavapai County, Arizona, USA
##OWNER=RRUFF
##SOURCE=Lloyd Twaites
##DESCRIPTION=Orange blocky crystals associated with yellow platy weeksite, R050330
##STATUS=The identification of this mineral has been confirmed by single-crystal X-ray diffraction.
##URL=rruff.info/R070647
111.8096, 17472.92
112.2917, 17440.89
112.7738, 17400.13
113.2559, 17417.94
113.7380, 17547.43
114.2202, 17670.25
114.7023, 17749.09
115.1844, 17800.94
115.6665, 17878.14
116.1486, 18033.62
116.6307, 18241.35
117.1129, 18320.59
117.5950, 18209.34
118.0771, 18023.56
118.5592, 17865.63
119.0413, 17746.27
119.5234, 17564.50
120.0056, 17181.14
120.4877, 16656.00
120.9698, 16144.38
121.4519, 15664.56
121.9340, 15231.65
122.4161, 14887.69
122.8982, 14662.41
123.3804, 14497.46
123.8625, 14355.83
124.3446, 14232.51
124.8267, 14102.79
125.3088, 13935.80
125.7909, 13726.69
126.2731, 13548.01
126.7552, 13429.82
127.2373, 13331.49
127.7194, 13243.26
128.2015, 13160.59
128.6837, 13075.26
129.1658, 12970.52
129.6479, 12824.26
130.1300, 12703.07
130.6121, 12607.30
131.0942, 12536.20
131.5764, 12495.33
132.0585, 12487.40
132.5406, 12500.62
133.0227, 12493.84
133.5048, 12459.63
133.9869, 12411.41
134.4691, 12323.57
134.9512, 12224.07
135.4333, 12164.05
135.9154, 12182.19
136.3975, 12272.05
136.8796, 12311.08
137.3618, 12259.58
137.8439, 12204.65
138.3260, 12190.24
138.8081, 12214.81
139.2902, 12248.71
139.7723, 12269.95
140.2545, 12277.62
140.7366, 12279.79
141.2187, 12270.93
141.7008, 12259.40
142.1829, 12252.07
142.6650, 12248.58
143.1472, 12254.55
143.6293, 12287.17
144.1114, 12339.74
144.5935, 12377.93
145.0756, 12369.66
145.5577, 12332.54
146.0399, 12330.34
146.5220, 12401.08
147.0041, 12476.18
147.4862, 12498.15
147.9683, 12468.71
148.4504, 12428.86
148.9326, 12411.19
149.4147, 12417.12
149.8968, 12428.64
150.3789, 12460.61
150.8610, 12485.87
151.3431, 12482.20
151.8252, 12445.64
152.3074, 12400.15
152.7895, 12384.45
153.2716, 12414.26
153.7537, 12441.36
154.2358, 12460.04
154.7179, 12473.88
155.2001, 12483.62
155.6822, 12489.54
156.1643, 12495.52
156.6464, 12513.47
157.1285, 12554.43
157.6106, 12596.65
158.0928, 12622.95
158.5749, 12651.86
159.0570, 12713.71
159.5391, 12829.63
160.0212, 12992.49
160.5033, 13116.56
160.9855, 13174.42
161.4676, 13228.00
161.9497, 13288.01
162.4318, 13358.07
162.9139, 13444.98
163.3960, 13557.82
163.8782, 13697.69
164.3603, 13816.70
164.8424, 13884.00
165.3245, 13956.54
165.8066, 14084.18
166.2887, 14267.75
166.7709, 14446.85
167.2530, 14551.73
167.7351, 14584.67
168.2172, 14664.07
168.6993, 14836.00
169.1814, 15047.84
169.6636, 15239.31
170.1457, 15402.29
170.6278, 15543.81
171.1099, 15666.75
171.5920, 15774.35
172.0741, 15873.09
172.5563, 15962.77
173.0384, 16045.50
173.5205, 16127.13
174.0026, 16212.25
174.4847, 16291.56
174.9668, 16357.51
175.4490, 16410.98
175.9311, 16460.23
176.4132, 16522.57
176.8953, 16596.93
177.3774, 16630.33
177.8595, 16573.94
178.3417, 16503.29
178.8238, 16464.38
179.3059, 16461.70
179.7880, 16475.73
180.2701, 16488.52
180.7522, 16501.67
181.2344, 16506.57
181.7165, 16491.63
182.1986, 16474.80
182.6807, 16464.93
183.1628, 16464.84
183.6449, 16475.11
184.1271, 16497.96
184.6092, 16539.50
185.0913, 16582.46
185.5734, 16621.44
186.0555, 16662.23
186.5376, 16709.22
187.0198, 16764.34
187.5019, 16826.84
187.9840, 16895.57
188.4661, 16961.58
188.9482, 17047.73
189.4303, 17175.65
189.9125, 17318.19
190.3946, 17436.88
190.8767, 17511.53
191.3588, 17557.85
191.8409, 17653.55
192.3230, 17827.11
192.8052, 18017.88
193.2873, 18238.33
193.7694, 18467.07
194.2515, 18670.85
194.7336, 18831.32
195.2157, 18949.36
195.6979, 19033.77
196.1800, 19083.68
196.6621, 19110.46
197.1442, 19120.51
197.6263, 19111.42
198.1084, 19075.18
198.5906, 19004.94
199.0727, 18899.47
199.5548, 18774.42
200.0369, 18632.62
200.5190, 18472.71
201.0011, 18283.56
201.4833, 18068.47
201.9654, 17854.38
202.4475, 17655.43
202.9296, 17475.68
203.4117, 17318.04
203.8938, 17209.63
204.3760, 17106.57
204.8581, 16958.41
205.3402, 16759.07
205.8223, 16571.93
206.3044, 16456.33
206.7865, 16396.50
207.2687, 16338.92
207.7508, 16256.66
208.2329, 16178.11
208.7150, 16142.35
209.1971, 16154.89
209.6792, 16196.92
210.1614, 16264.88
210.6435, 16351.33
211.1256, 16442.58
211.6077, 16527.84
212.0898, 16615.03
212.5719, 16720.53
213.0541, 16844.23
213.5362, 16989.95
214.0183, 17174.23
214.5004, 17381.78
214.9825, 17574.97
215.4646, 17714.53
215.9468, 17818.11
216.4289, 17961.72
216.9110, 18179.94
217.3931, 18393.98
217.8752, 18558.46
218.3573, 18684.13
218.8395, 18801.07
219.3216, 18920.73
219.8037, 19044.43
220.2858, 19196.53
220.7679, 19426.96
221.2500, 19631.41
221.7322, 19749.70
222.2143, 19798.97
222.6964, 19837.28
223.1785, 19915.26
223.6606, 20035.53
224.1427, 20136.41
224.6249, 20207.79
225.1070, 20266.15
225.5891, 20305.24
226.0712, 20333.01
226.5533, 20372.06
227.0354, 20456.68
227.5176, 20601.15
227.9997, 20687.28
228.4818, 20702.33
228.9639, 20666.55
229.4460, 20584.01
229.9281, 20455.34
230.4103, 20278.69
230.8924, 20055.51
231.3745, 19788.48
231.8566, 19453.30
232.3387, 18993.57
232.8208, 18516.77
233.3030, 18061.97
233.7851, 17634.94
234.2672, 17230.15
234.7493, 16838.65
235.2314, 16453.34
235.7135, 16111.89
236.1957, 15834.30
236.6778, 15574.94
237.1599, 15303.50
237.6420, 15022.51
238.1241, 14763.88
238.6062, 14568.08
239.0884, 14453.52
239.5705, 14345.40
240.0526, 14222.71
240.5347, 14121.22
241.0168, 14064.84
241.4989, 14054.39
241.9811, 14074.76
242.4632, 14110.95
242.9453, 14171.10
243.4274, 14222.31
243.9095, 14254.91
244.3916, 14286.79
244.8738, 14321.95
245.3559, 14364.37
245.8380, 14427.31
246.3201, 14529.88
246.8022, 14692.31
247.2843, 14829.79
247.7665, 14918.70
248.2486, 15002.46
248.7307, 15111.27
249.2128, 15249.11
249.6949, 15401.92
250.1770, 15557.08
250.6592, 15721.33
251.1413, 15857.18
251.6234, 15954.85
252.1055, 16032.61
252.5876, 16099.81
253.0697, 16158.94
253.5519, 16217.51
254.0340, 16288.35
254.5161, 16383.72
254.9982, 16425.58
255.4803, 16385.57
255.9624, 16312.32
256.4445, 16242.54
256.9267, 16181.23
257.4088, 16111.13
257.8909, 16011.32
258.3730, 15872.79
258.8551, 15748.78
259.3372, 15642.73
259.8194, 15549.36
260.3015, 15468.89
260.7836, 15400.28
261.2657, 15333.29
261.7478, 15259.22
262.2299, 15177.00
262.7121, 15086.51
263.1942, 14974.60
263.6763, 14863.40
264.1584, 14766.18
264.6405, 14685.20
265.1227, 14627.05
265.6048, 14606.28
266.0869, 14626.06
266.5690, 14620.60
267.0511, 14568.85
267.5332, 14504.60
268.0154, 14453.16
268.4975, 14416.67
268.9796, 14389.45
269.4617, 14372.48
269.9438, 14363.99
270.4259, 14334.48
270.9081, 14264.72
271.3902, 14186.57
271.8723, 14135.71
272.3544, 14110.77
272.8365, 14064.36
273.3186, 13950.56
273.8008, 13775.08
274.2829, 13629.79
274.7650, 13550.41
275.2471, 13476.04
275.7292, 13363.48
276.2113, 13212.95
276.6935, 13039.62
277.1756, 12846.42
277.6577, 12637.12
278.1398, 12447.33
278.6219, 12295.30
279.1040, 12147.19
279.5862, 11974.19
280.0683, 11779.49
280.5504, 11592.81
281.0325, 11432.88
281.5146, 11297.56
281.9967, 11167.46
282.4789, 11048.35
282.9610, 10928.35
283.4431, 10793.19
283.9252, 10647.02
284.4073, 10517.02
284.8894, 10422.45
285.3716, 10352.02
285.8537, 10266.62
286.3358, 10157.74
286.8179, 10045.61
287.3000, 9933.019
287.7821, 9823.797
288.2643, 9737.337
288.7464, 9686.562
289.2285, 9660.654
289.7106, 9629.077
290.1927, 9584.383
290.6748, 9547.619
291.1570, 9530.294
291.6391, 9529.134
292.1212, 9533.895
292.6033, 9539.968
293.0854, 9551.215
293.5675, 9576.354
294.0497, 9619.702
294.5318, 9663.116
295.0139, 9696.361
295.4960, 9724.446
295.9781, 9759.717
296.4602, 9807.535
296.9424, 9861.231
297.4245, 9904.569
297.9066, 9931.103
298.3887, 9975.722
298.8708, 10058.27
299.3529, 10164.34
299.8351, 10265.03
300.3172, 10349.37
300.7993, 10439.84
301.2814, 10578.81
301.7635, 10769.71
302.2456, 10949.65
302.7278, 11094.24
303.2099, 11222.51
303.6920, 11354.04
304.1741, 11491.35
304.6562, 11643.01
305.1383, 11829.01
305.6205, 12051.36
306.1026, 12258.34
306.5847, 12421.80
307.0668, 12578.25
307.5489, 12771.58
308.0310, 13008.01
308.5132, 13247.18
308.9953, 13448.62
309.4774, 13610.73
309.9595, 13790.76
310.4416, 14005.24
310.9237, 14228.28
311.4059, 14441.23
311.8880, 14642.39
312.3701, 14838.35
312.8522, 15033.05
313.3343, 15226.20
313.8164, 15427.56
314.2986, 15680.62
314.7807, 15902.24
315.2628, 16027.95
315.7449, 16073.12
316.2270, 16114.51
316.7091, 16209.73
317.1913, 16335.41
317.6734, 16360.25
318.1555, 16245.56
318.6376, 16090.40
319.1197, 15921.28
319.6018, 15739.22
320.0840, 15546.65
320.5661, 15348.75
321.0482, 15136.67
321.5303, 14881.17
322.0124, 14563.37
322.4945, 14236.35
322.9767, 13907.99
323.4588, 13577.86
323.9409, 13237.18
324.4230, 12879.69
324.9051, 12530.31
325.3872, 12238.16
325.8694, 12039.19
326.3515, 11836.94
326.8336, 11610.06
327.3157, 11385.67
327.7978, 11187.76
328.2799, 11023.53
328.7621, 10890.03
329.2442, 10783.02
329.7263, 10712.39
330.2084, 10650.41
330.6905, 10592.11
331.1726, 10545.42
331.6548, 10519.51
332.1369, 10513.47
332.6190, 10514.72
333.1011, 10508.79
333.5832, 10490.39
334.0653, 10497.18
334.5475, 10532.54
335.0296, 10584.42
335.5117, 10653.06
335.9938, 10733.98
336.4759, 10818.25
336.9580, 10898.75
337.4402, 10975.61
337.9223, 11057.81
338.4044, 11133.61
338.8865, 11226.62
339.3686, 11341.87
339.8507, 11479.38
340.3329, 11641.04
340.8150, 11830.66
341.2971, 12039.87
341.7792, 12233.47
342.2613, 12384.22
342.7434, 12553.84
343.2256, 12753.25
343.7077, 12971.88
344.1898, 13197.59
344.6719, 13425.63
345.1540, 13660.41
345.6361, 13913.70
346.1183, 14193.12
346.6004, 14476.62
347.0825, 14770.64
347.5646, 15060.22
348.0467, 15330.03
348.5288, 15577.83
349.0110, 15825.46
349.4931, 16098.01
349.9752, 16400.52
350.4573, 16711.68
350.9394, 17036.75
351.4215, 17369.40
351.9037, 17706.06
352.3858, 18048.11
352.8679, 18400.50
353.3500, 18776.25
353.8321, 19172.95
354.3142, 19528.93
354.7964, 19799.91
355.2785, 20080.64
355.7606, 20419.95
356.2427, 20795.78
356.7248, 21164.80
357.2069, 21498.44
357.6891, 21809.13
358.1712, 22131.89
358.6533, 22478.00
359.1354, 22814.12
359.6175, 23117.57
360.0996, 23407.16
360.5818, 23705.17
361.0639, 24022.51
361.5460, 24341.44
362.0281, 24633.43
362.5102, 24896.65
362.9923, 25158.15
363.4745, 25403.36
363.9566, 25668.43
364.4387, 25991.37
364.9208, 26381.69
365.4029, 26787.14
365.8850, 27169.10
366.3672, 27531.95
366.8493, 27909.72
367.3314, 28312.68
367.8135, 28726.35
368.2956, 29147.65
368.7777, 29574.39
369.2599, 29971.07
369.7420, 30313.24
370.2241, 30616.07
370.7062, 30902.28
371.1883, 31174.64
371.6704, 31431.03
372.1526, 31676.85
372.6347, 31908.59
373.1168, 32104.34
373.5989, 32291.81
374.0810, 32420.34
374.5631, 32448.28
375.0453, 32377.17
375.5274, 32232.34
376.0095, 32027.71
376.4916, 31756.22
376.9737, 31403.42
377.4558, 30965.38
377.9380, 30461.01
378.4201, 29894.66
378.9022, 29265.97
379.3843, 28575.12
379.8664, 27821.29
380.3485, 27012.16
380.8307, 26174.46
381.3128, 25291.11
381.7949, 24404.07
382.2770, 23468.47
382.7591, 22554.08
383.2412, 21753.36
383.7234, 21074.25
384.2055, 20439.54
384.6876, 19759.18
385.1697, 19004.47
385.6518, 18326.13
386.1339, 17735.79
386.6161, 17195.03
387.0982, 16688.15
387.5803, 16212.97
388.0624, 15777.97
388.5445, 15388.03
389.0266, 15040.97
389.5088, 14720.98
389.9909, 14438.00
390.4730, 14174.29
390.9551, 13906.58
391.4372, 13664.11
391.9193, 13490.23
392.4015, 13404.90
392.8836, 13374.33
393.3657, 13326.52
393.8478, 13241.43
394.3299, 13190.43
394.8120, 13192.96
395.2942, 13223.11
395.7763, 13263.02
396.2584, 13310.78
396.7405, 13379.00
397.2226, 13477.12
397.7047, 13604.64
398.1869, 13775.76
398.6690, 14039.13
399.1511, 14289.52
399.6332, 14455.78
400.1153, 14559.75
400.5974, 14666.79
401.0796, 14799.10
401.5617, 14961.21
402.0438, 15172.48
402.5259, 15444.48
403.0080, 15720.48
403.4901, 15966.90
403.9723, 16199.27
404.4544, 16439.25
404.9365, 16697.19
405.4186, 16952.99
405.9007, 17188.90
406.3828, 17406.72
406.8650, 17619.39
407.3471, 17837.74
407.8292, 18042.26
408.3113, 18205.43
408.7934, 18329.68
409.2755, 18416.14
409.7577, 18476.81
410.2398, 18494.17
410.7219, 18446.09
411.2040, 18328.88
411.6861, 18143.25
412.1682, 17883.58
412.6504, 17540.52
413.1325, 17171.64
413.6146, 16768.21
414.0967, 16347.60
414.5788, 15917.58
415.0609, 15477.48
415.5431, 15016.29
416.0252, 14522.48
416.5073, 14009.78
416.9894, 13534.32
417.4715, 13102.52
417.9536, 12699.35
418.4358, 12338.93
418.9179, 11999.91
419.4000, 11653.92
419.8821, 11293.76
420.3642, 10938.82
420.8463, 10619.26
421.3285, 10346.30
421.8106, 10082.25
422.2927, 9814.881
422.7748, 9567.344
423.2569, 9354.735
423.7390, 9173.912
424.2212, 9009.532
424.7033, 8850.186
425.1854, 8697.701
425.6675, 8558.195
426.1496, 8427.073
426.6317, 8320.320
427.1139, 8240.915
427.5960, 8186.723
428.0781, 8164.759
428.5602, 8191.339
429.0423, 8212.637
429.5244, 8147.958
430.0066, 7995.141
430.4887, 7855.553
430.9708, 7757.137
431.4529, 7685.424
431.9350, 7621.468
432.4171, 7564.954
432.8993, 7518.538
433.3814, 7488.734
433.8635, 7468.657
434.3456, 7443.746
434.8277, 7411.161
435.3098, 7382.808
435.7920, 7371.696
436.2741, 7376.201
436.7562, 7371.822
437.2383, 7349.982
437.7204, 7326.221
438.2025, 7306.704
438.6847, 7292.404
439.1668, 7286.066
439.6489, 7289.980
440.1310, 7300.032
440.6131, 7304.938
441.0952, 7291.947
441.5774, 7292.042
442.0595, 7320.454
442.5416, 7354.479
443.0237, 7373.792
443.5058, 7374.882
443.9879, 7365.608
444.4701, 7352.271
444.9522, 7332.264
445.4343, 7327.276
445.9164, 7350.578
446.3985, 7375.751
446.8806, 7396.826
447.3628, 7413.407
447.8449, 7426.607
448.3270, 7437.425
448.8091, 7444.390
449.2912, 7442.156
449.7733, 7425.878
450.2555, 7413.932
450.7376, 7407.290
451.2197, 7409.236
451.7018, 7428.223
452.1839, 7465.200
452.6660, 7498.554
453.1482, 7505.974
453.6303, 7493.622
454.1124, 7489.302
454.5945, 7495.752
455.0766, 7511.551
455.5587, 7538.593
456.0409, 7574.463
456.5230, 7613.256
457.0051, 7665.304
457.4872, 7711.383
457.9693, 7726.098
458.4514, 7715.702
458.9336, 7716.253
459.4156, 7747.020
459.8978, 7796.926
460.3799, 7835.654
460.8620, 7851.144
461.3441, 7879.704
461.8262, 7938.403
462.3083, 8007.503
462.7905, 8065.726
463.2726, 8109.528
463.7547, 8148.265
464.2368, 8191.278
464.7189, 8238.371
465.2010, 8290.792
465.6832, 8347.971
466.1653, 8410.166
466.6474, 8481.861
467.1295, 8557.538
467.6116, 8629.460
468.0938, 8692.894
468.5759, 8751.470
469.0580, 8813.070
469.5401, 8880.348
470.0222, 8943.625
470.5043, 8990.132
470.9865, 9039.985
471.4686, 9108.683
471.9507, 9195.994
472.4328, 9287.846
472.9149, 9374.959
473.3970, 9458.013
473.8792, 9540.288
474.3613, 9623.404
474.8434, 9701.069
475.3255, 9764.530
475.8076, 9820.169
476.2897, 9881.922
476.7719, 9953.099
477.2540, 10029.27
477.7361, 10112.37
478.2182, 10198.61
478.7003, 10276.22
479.1824, 10340.37
479.6646, 10396.07
480.1467, 10449.37
480.6288, 10498.72
481.1109, 10551.64
481.5930, 10629.45
482.0751, 10694.41
482.5573, 10712.01
483.0394, 10688.76
483.5215, 10659.28
484.0036, 10649.33
484.4857, 10653.87
484.9678, 10639.47
485.4500, 10593.39
485.9321, 10543.75
486.4142, 10487.49
486.8963, 10433.23
487.3784, 10393.99
487.8605, 10371.51
488.3427, 10346.54
488.8248, 10294.75
489.3069, 10215.01
489.7890, 10132.57
490.2711, 10033.96
490.7532, 9953.581
491.2354, 9913.343
491.7175, 9902.896
492.1996, 9898.156
492.6817, 9896.818
493.1638, 9890.435
493.6459, 9858.051
494.1281, 9802.964
494.6102, 9774.413
495.0923, 9799.245
495.5744, 9850.320
496.0565, 9878.494
496.5386, 9878.000
497.0208, 9885.842
497.5029, 9915.833
497.9850, 9954.902
498.4671, 9995.672
498.9492, 10034.59
499.4313, 10058.40
499.9135, 10051.21
500.3956, 10017.82
500.8777, 10023.76
501.3598, 10106.09
501.8419, 10183.29
502.3240, 10246.82
502.8062, 10296.36
503.2883, 10329.09
503.7704, 10345.30
504.2525, 10356.33
504.7346, 10379.93
505.2167, 10419.72
505.6989, 10445.78
506.1810, 10457.93
506.6631, 10454.18
507.1452, 10432.17
507.6273, 10394.87
508.1094, 10348.25
508.5916, 10292.97
509.0737, 10231.95
509.5558, 10169.66
510.0379, 10106.20
510.5200, 10035.71
511.0021, 9948.048
511.4843, 9862.188
511.9664, 9815.550
512.4485, 9816.120
512.9306, 9792.070
513.4127, 9694.337
513.8948, 9583.619
514.3770, 9520.615
514.8591, 9506.711
515.3412, 9511.500
515.8233, 9516.150
516.3054, 9519.738
516.7875, 9516.129
517.2697, 9490.336
517.7518, 9475.967
518.2339, 9478.491
518.7160, 9492.579
519.1981, 9514.217
519.6802, 9542.022
520.1624, 9574.695
520.6445, 9610.587
521.1266, 9649.632
521.6087, 9695.084
522.0908, 9750.120
522.5729, 9806.669
523.0551, 9851.439
523.5372, 9897.470
524.0193, 9966.162
524.5014, 10067.74
524.9835, 10185.21
525.4656, 10303.56
525.9478, 10423.23
526.4299, 10551.06
526.9120, 10690.69
527.3941, 10832.29
527.8762, 10962.85
528.3583, 11081.68
528.8405, 11204.15
529.3226, 11325.75
529.8047, 11457.04
530.2868, 11609.99
530.7689, 11779.12
531.2510, 11951.39
531.7332, 12120.63
532.2153, 12286.15
532.6974, 12445.54
533.1795, 12591.74
533.6616, 12744.80
534.1437, 12915.47
534.6259, 13083.82
535.1080, 13246.27
535.5901, 13396.68
536.0722, 13517.83
536.5543, 13592.51
537.0364, 13631.59
537.5186, 13666.54
538.0007, 13697.95
538.4828, 13724.42
538.9649, 13760.50
539.4470, 13780.79
539.9291, 13754.46
540.4113, 13676.16
540.8934, 13576.03
541.3755, 13468.77
541.8576, 13349.13
542.3397, 13210.40
542.8218, 13051.70
543.3040, 12873.16
543.7861, 12673.05
544.2682, 12452.97
544.7503, 12225.71
545.2324, 11980.80
545.7145, 11742.15
546.1967, 11516.00
546.6788, 11299.35
547.1609, 11089.68
547.6430, 10886.98
548.1251, 10690.37
548.6072, 10500.80
549.0894, 10318.31
549.5715, 10130.48
550.0536, 9914.796
550.5357, 9726.876
551.0178, 9601.217
551.4999, 9506.338
551.9821, 9395.277
552.4642, 9250.192
552.9463, 9106.898
553.4284, 9004.876
553.9105, 8884.586
554.3926, 8816.832
554.8748, 8741.444
555.3569, 8659.390
555.8390, 8523.430
556.3211, 8477.805
556.8032, 8408.659
557.2853, 8347.236
557.7675, 8340.201
558.2496, 8258.666
558.7317, 8269.028
559.2138, 8259.419
559.6959, 8249.247
560.1780, 8242.450
560.6602, 8221.172
561.1423, 8174.936
561.6244, 8156.395
562.1065, 8190.823
562.5886, 8229.503
563.0707, 8252.288
563.5529, 8268.193
564.0350, 8296.755
564.5171, 8348.828
564.9992, 8408.979
565.4813, 8454.284
565.9634, 8486.084
566.4456, 8526.286
566.9277, 8581.147
567.4098, 8643.746
567.8919, 8712.090
568.3740, 8784.786
568.8561, 8845.340
569.3383, 8871.454
569.8204, 8903.230
570.3025, 8971.795
570.7846, 9066.910
571.2667, 9161.764
571.7488, 9244.885
572.2310, 9324.771
572.7131, 9415.970
573.1952, 9526.383
573.6773, 9627.731
574.1594, 9711.621
574.6415, 9795.254
575.1237, 9889.507
575.6058, 9988.817
576.0879, 10079.33
576.5700, 10151.16
577.0521, 10219.50
577.5342, 10316.82
578.0164, 10443.24
578.4985, 10544.06
578.9806, 10599.75
579.4627, 10635.43
579.9448, 10672.58
580.4269, 10711.33
580.9091, 10755.58
581.3912, 10827.99
581.8733, 10886.54
582.3554, 10895.11
582.8375, 10866.84
583.3196, 10837.01
583.8018, 10820.51
584.2839, 10806.75
584.7660, 10778.35
585.2481, 10736.45
585.7302, 10676.06
586.2123, 10578.58
586.6945, 10482.03
587.1766, 10411.86
587.6587, 10352.79
588.1408, 10270.38
588.6229, 10144.18
589.1050, 10003.47
589.5872, 9891.204
590.0693, 9805.793
590.5514, 9721.468
591.0335, 9635.074
591.5156, 9543.781
591.9977, 9438.887
592.4799, 9323.191
592.9620, 9220.872
593.4441, 9154.822
593.9262, 9083.963
594.4083, 8964.147
594.8904, 8825.340
595.3726, 8736.052
595.8547, 8719.660
596.3368, 8732.365
596.8189, 8713.285
597.3010, 8659.614
597.7831, 8587.892
598.2653, 8469.233
598.7474, 8362.937
599.2295, 8291.125
599.7116, 8243.241
600.1937, 8203.919
600.6758, 8169.799
601.1580, 8134.573
601.6401, 8087.721
602.1222, 8032.870
602.6043, 7992.085
603.0864, 7974.328
603.5685, 7949.115
604.0507, 7882.113
604.5328, 7780.216
605.0149, 7711.480
605.4970, 7717.711
605.9791, 7707.747
606.4612, 7631.008
606.9434, 7528.964
607.4255, 7453.357
607.9076, 7416.299
608.3897, 7398.491
608.8718, 7383.146
609.3539, 7369.956
609.8361, 7344.316
610.3182, 7300.102
610.8003, 7253.075
611.2824, 7200.864
611.7645, 7152.646
612.2466, 7121.608
612.7288, 7111.332
613.2109, 7099.209
613.6930, 7066.803
614.1751, 7023.879
614.6572, 6988.323
615.1393, 6961.519
615.6215, 6934.657
616.1036, 6899.396
616.5857, 6861.796
617.0678, 6843.453
617.5499, 6868.313
618.0320, 6879.161
618.5142, 6857.798
618.9963, 6833.781
619.4784, 6832.021
619.9605, 6849.853
620.4426, 6868.404
620.9247, 6875.195
621.4069, 6872.979
621.8890, 6867.568
622.3711, 6857.940
622.8532, 6850.365
623.3353, 6840.604
623.8174, 6839.955
624.2996, 6862.218
624.7817, 6905.932
625.2638, 6950.334
625.7459, 6999.750
626.2280, 7039.358
626.7101, 7044.780
627.1923, 7031.081
627.6744, 7040.842
628.1565, 7091.149
628.6386, 7157.564
629.1207, 7199.179
629.6028, 7206.792
630.0850, 7226.755
630.5671, 7261.006
631.0492, 7306.566
631.5313, 7369.594
632.0134, 7441.319
632.4955, 7512.327
632.9777, 7581.796
633.4598, 7636.081
633.9419, 7648.680
634.4240, 7634.205
634.9061, 7643.573
635.3882, 7685.430
635.8704, 7737.923
636.3525, 7790.278
636.8346, 7839.768
637.3167, 7868.404
637.7988, 7860.097
638.2809, 7855.202
638.7631, 7864.192
639.2452, 7876.956
639.7273, 7890.413
640.2094, 7899.824
640.6915, 7891.370
641.1736, 7850.126
641.6558, 7786.632
642.1379, 7740.269
642.6200, 7715.577
643.1021, 7688.775
643.5842, 7657.958
644.0663, 7617.456
644.5485, 7559.142
645.0306, 7483.594
645.5127, 7410.565
645.9948, 7347.110
646.4769, 7286.701
646.9590, 7227.803
647.4412, 7168.073
647.9233, 7099.355
648.4054, 7018.699
648.8875, 6939.281
649.3696, 6883.352
649.8517, 6858.749
650.3339, 6818.998
650.8160, 6751.103
651.2981, 6683.346
651.7802, 6625.438
652.2623, 6572.778
652.7444, 6517.167
653.2266, 6455.271
653.7087, 6397.475
654.1908, 6357.747
654.6729, 6326.364
655.1550, 6275.431
655.6371, 6202.534
656.1193, 6142.898
656.6014, 6121.206
657.0835, 6128.869
657.5656, 6133.804
658.0477, 6143.400
658.5298, 6139.412
659.0120, 6111.535
659.4941, 6078.577
659.9762, 6049.006
660.4583, 6025.558
660.9404, 6012.411
661.4225, 6014.863
661.9047, 6022.142
662.3868, 6012.197
662.8689, 5985.811
663.3510, 5969.329
663.8331, 5970.110
664.3152, 5978.341
664.7974, 5984.997
665.2795, 5990.442
665.7616, 6000.381
666.2437, 6024.801
666.7258, 6042.270
667.2079, 6034.893
667.6901, 6021.021
668.1722, 6026.694
668.6543, 6054.870
669.1364, 6084.929
669.6185, 6096.880
670.1006, 6093.972
670.5828, 6094.829
671.0649, 6098.142
671.5470, 6109.875
672.0291, 6138.533
672.5112, 6171.725
672.9933, 6193.951
673.4755, 6204.525
673.9576, 6219.458
674.4397, 6248.021
674.9218, 6278.549
675.4039, 6299.306
675.8860, 6314.798
676.3682, 6336.999
676.8503, 6370.398
677.3324, 6410.089
677.8145, 6450.869
678.2966, 6494.554
678.7787, 6524.415
679.2609, 6532.679
679.7430, 6538.247
680.2251, 6537.566
680.7072, 6543.319
681.1893, 6578.451
681.6714, 6652.071
682.1536, 6715.659
682.6357, 6734.644
683.1178, 6731.647
683.5999, 6732.451
684.0820, 6739.852
684.5641, 6754.474
685.0463, 6777.394
685.5284, 6804.797
686.0105, 6828.156
686.4926, 6848.396
686.9747, 6862.188
687.4568, 6856.358
687.9390, 6857.353
688.4211, 6879.726
688.9032, 6915.976
689.3853, 6952.971
689.8674, 6988.839
690.3495, 7017.140
690.8317, 7027.180
691.3138, 7026.802
691.7959, 7017.496
692.2780, 7002.106
692.7601, 7048.636
693.2422, 7223.755
693.7244, 7476.179
694.2065, 7601.893
694.6886, 7489.725
695.1707, 7428.231
695.6528, 7450.256
696.1349, 7499.840
696.6171, 7552.485
697.0992, 7604.056
697.5813, 7650.350
698.0634, 7684.093
698.5455, 7724.444
699.0276, 7796.914
699.5098, 7894.814
699.9919, 7995.630
700.4740, 8095.068
700.9561, 8196.809
701.4382, 8306.084
701.9203, 8420.527
702.4025, 8521.052
702.8846, 8581.971
703.3667, 8663.517
703.8488, 8771.939
704.3309, 8900.532
704.8130, 9050.744
705.2952, 9217.615
705.7773, 9391.945
706.2594, 9573.140
706.7415, 9750.008
707.2236, 9894.427
707.7057, 10015.91
708.1879, 10173.06
708.6700, 10381.30
709.1521, 10613.08
709.6342, 10842.49
710.1163, 11070.86
710.5984, 11310.49
711.0806, 11567.50
711.5627, 11827.27
712.0448, 12084.36
712.5269, 12345.78
713.0090, 12608.67
713.4911, 12879.56
713.9733, 13181.13
714.4554, 13529.09
714.9375, 13911.62
715.4196, 14308.17
715.9017, 14720.22
716.3839, 15158.94
716.8660, 15624.82
717.3481, 16122.74
717.8302, 16669.04
718.3123, 17261.65
718.7944, 17846.91
719.2766, 18379.46
719.7587, 18967.41
720.2408, 19640.85
720.7229, 20372.90
721.2050, 21141.26
721.6871, 21943.82
722.1693, 22788.73
722.6514, 23688.70
723.1335, 24632.65
723.6156, 25606.26
724.0977, 26607.20
724.5798, 27646.42
725.0620, 28726.87
725.5441, 29843.97
726.0262, 30994.41
726.5083, 32180.38
726.9904, 33390.32
727.4725, 34602.43
727.9547, 35874.95
728.4368, 37256.36
728.9189, 38670.77
729.4010, 40065.95
729.8831, 41423.29
730.3652, 42724.90
730.8474, 43956.00
731.3295, 45129.22
731.8116, 46281.56
732.2937, 47400.41
732.7758, 48435.23
733.2579, 49384.46
733.7401, 50190.66
734.2222, 50793.61
734.7043, 51194.82
735.1864, 51496.17
735.6685, 51727.84
736.1506, 51808.58
736.6328, 51763.97
737.1149, 51539.89
737.5970, 51064.07
738.0791, 50357.86
738.5612, 49535.41
739.0433, 48644.84
739.5255, 47672.74
740.0076, 46574.34
740.4897, 45373.75
740.9718, 44154.44
741.4539, 42934.90
741.9360, 41692.32
742.4182, 40400.20
742.9003, 39064.93
743.3824, 37785.93
743.8645, 36580.30
744.3466, 35403.84
744.8287, 34237.13
745.3109, 33106.38
745.7930, 32040.12
746.2751, 31029.29
746.7572, 30044.31
747.2393, 29048.72
747.7214, 28105.15
748.2036, 27305.30
748.6857, 26590.86
749.1678, 25851.13
749.6499, 25068.40
750.1320, 24308.14
750.6141, 23614.99
751.0963, 22983.59
751.5784, 22403.65
752.0605, 21891.10
752.5426, 21385.39
753.0247, 20869.50
753.5068, 20367.56
753.9890, 19898.21
754.4711, 19451.14
754.9532, 18997.38
755.4353, 18504.43
755.9174, 18045.52
756.3995, 17673.25
756.8817, 17346.00
757.3638, 17019.91
757.8459, 16688.49
758.3280, 16352.18
758.8101, 16009.93
759.2922, 15679.54
759.7744, 15407.12
760.2565, 15200.10
760.7386, 14988.08
761.2207, 14764.25
761.7028, 14534.54
762.1849, 14298.14
762.6671, 14059.27
763.1492, 13828.75
763.6313, 13605.14
764.1134, 13394.92
764.5955, 13202.93
765.0776, 13022.16
765.5598, 12852.62
766.0419, 12688.56
766.5240, 12517.84
767.0061, 12335.08
767.4882, 12148.04
767.9703, 11961.58
768.4525, 11778.28
768.9346, 11625.15
769.4167, 11508.73
769.8988, 11383.25
770.3809, 11222.42
770.8630, 11043.41
771.3452, 10879.54
771.8273, 10731.50
772.3094, 10596.83
772.7915, 10497.98
773.2736, 10386.37
773.7557, 10222.60
774.2379, 10043.83
774.7200, 9901.709
775.2021, 9807.010
775.6842, 9728.330
776.1663, 9652.453
776.6484, 9572.304
777.1306, 9468.464
777.6127, 9347.330
778.0948, 9245.935
778.5769, 9179.802
779.0590, 9116.138
779.5411, 9009.114
780.0233, 8857.349
780.5054, 8744.799
780.9875, 8692.712
781.4696, 8645.614
781.9517, 8597.780
782.4338, 8544.123
782.9160, 8474.027
783.3981, 8390.586
783.8802, 8320.350
784.3623, 8285.750
784.8444, 8253.043
785.3265, 8191.582
785.8087, 8121.333
786.2908, 8077.072
786.7729, 8061.564
787.2550, 8046.830
787.7371, 8010.420
788.2192, 7960.407
788.7014, 7918.581
789.1835, 7884.656
789.6656, 7863.401
790.1477, 7861.847
790.6298, 7859.820
791.1119, 7839.179
791.5941, 7804.959
792.0762, 7780.644
792.5583, 7771.295
793.0404, 7763.560
793.5225, 7755.791
794.0046, 7748.890
794.4868, 7743.115
794.9689, 7738.798
795.4510, 7732.295
795.9331, 7719.698
796.4152, 7723.669
796.8973, 7785.823
797.3795, 7879.447
797.8616, 7926.633
798.3437, 7925.583
798.8258, 7943.517
799.3079, 8016.914
799.7900, 8115.809
800.2722, 8183.057
800.7543, 8207.342
801.2364, 8254.966
801.7185, 8339.190
802.2006, 8428.887
802.6827, 8498.568
803.1649, 8577.059
803.6470, 8701.995
804.1291, 8877.229
804.6112, 9049.302
805.0933, 9184.733
805.5754, 9323.078
806.0576, 9488.577
806.5397, 9678.095
807.0218, 9890.671
807.5039, 10123.31
807.9860, 10355.10
808.4681, 10563.13
808.9503, 10760.89
809.4324, 10991.36
809.9145, 11254.93
810.3966, 11540.16
810.8787, 11850.34
811.3608, 12160.28
811.8430, 12444.33
812.3251, 12706.33
812.8072, 12988.10
813.2893, 13305.53
813.7714, 13618.81
814.2535, 13924.27
814.7357, 14224.66
815.2178, 14531.57
815.6999, 14833.67
816.1820, 15106.07
816.6641, 15340.59
817.1462, 15540.88
817.6284, 15701.56
818.1105, 15834.96
818.5926, 15978.77
819.0747, 16121.48
819.5568, 16193.82
820.0389, 16162.39
820.5211, 16065.80
821.0032, 15969.82
821.4853, 15878.45
821.9674, 15708.46
822.4495, 15434.99
822.9316, 15146.05
823.4138, 14885.79
823.8959, 14618.06
824.3780, 14297.69
824.8601, 13924.65
825.3422, 13530.28
825.8243, 13105.67
826.3065, 12674.10
826.7886, 12226.38
827.2707, 11788.36
827.7528, 11384.96
828.2349, 11017.51
828.7170, 10674.72
829.1992, 10352.82
829.6813, 10045.66
830.1633, 9741.263
830.6454, 9443.675
831.1276, 9176.482
831.6097, 8941.832
832.0918, 8717.192
832.5739, 8486.229
833.0560, 8257.132
833.5381, 8054.038
834.0203, 7883.559
834.5024, 7715.077
834.9845, 7539.907
835.4666, 7376.985
835.9487, 7240.023
836.4308, 7119.172
836.9130, 7000.568
837.3951, 6883.157
837.8772, 6771.218
838.3593, 6660.541
838.8414, 6562.169
839.3235, 6489.974
839.8057, 6431.442
840.2878, 6369.120
840.7699, 6298.632
841.2520, 6223.402
841.7341, 6142.646
842.2162, 6061.650
842.6984, 5987.256
843.1805, 5920.718
843.6626, 5876.613
844.1447, 5859.313
844.6268, 5837.970
845.1089, 5784.229
845.5911, 5706.818
846.0732, 5645.146
846.5553, 5606.487
847.0374, 5563.846
847.5195, 5503.664
848.0016, 5452.240
848.4838, 5430.423
848.9659, 5426.022
849.4480, 5417.203
849.9301, 5403.828
850.4122, 5380.279
850.8943, 5335.564
851.3765, 5289.297
851.8586, 5256.820
852.3407, 5231.798
852.8228, 5201.183
853.3049, 5161.925
853.7870, 5124.797
854.2692, 5100.484
854.7513, 5084.097
855.2334, 5071.467
855.7155, 5059.782
856.1976, 5032.415
856.6797, 4984.764
857.1619, 4933.993
857.6440, 4895.464
858.1261, 4867.044
858.6082, 4835.521
859.0903, 4796.849
859.5724, 4768.458
860.0546, 4759.724
860.5367, 4751.619
861.0188, 4731.573
861.5009, 4702.825
861.9830, 4672.002
862.4651, 4634.536
862.9473, 4606.710
863.4294, 4606.900
863.9115, 4602.122
864.3936, 4565.997
864.8757, 4514.049
865.3578, 4470.958
865.8400, 4443.193
866.3221, 4425.545
866.8042, 4421.449
867.2863, 4420.059
867.7684, 4404.030
868.2505, 4378.089
868.7327, 4358.422
869.2148, 4348.307
869.6969, 4335.318
870.1790, 4306.948
870.6611, 4269.745
871.1432, 4248.687
871.6254, 4246.574
872.1075, 4238.214
872.5896, 4219.982
873.0717, 4194.775
873.5538, 4157.995
874.0359, 4118.470
874.5181, 4101.851
875.0002, 4123.971
875.4823, 4133.790
875.9644, 4125.372
876.4465, 4111.129
876.9286, 4093.685
877.4108, 4074.572
877.8929, 4052.872
878.3750, 4029.087
878.8571, 4013.712
879.3392, 4020.495
879.8214, 4028.795
880.3035, 4018.824
880.7856, 4000.462
881.2677, 3991.492
881.7498, 3992.993
882.2319, 3992.483
882.7141, 3981.338
883.1962, 3963.754
883.6783, 3946.392
884.1604, 3929.249
884.6425, 3909.521
885.1246, 3886.271
885.6068, 3875.828
886.0889, 3890.743
886.5710, 3913.051
887.0531, 3906.497
887.5352, 3862.809
888.0173, 3838.138
888.4995, 3844.356
888.9816, 3849.203
889.4637, 3841.943
889.9458, 3829.490
890.4279, 3817.616
890.9100, 3806.469
891.3922, 3796.626
891.8743, 3797.503
892.3564, 3787.479
892.8385, 3743.586
893.3206, 3699.092
893.8027, 3690.012
894.2849, 3705.563
894.7670, 3708.245
895.2491, 3680.641
895.7312, 3649.946
896.2133, 3641.102
896.6954, 3642.489
897.1776, 3636.504
897.6597, 3624.297
898.1418, 3613.858
898.6239, 3608.070
899.1060, 3606.040
899.5881, 3608.208
900.0703, 3612.695
900.5524, 3611.675
901.0345, 3605.229
901.5166, 3589.513
901.9987, 3560.049
902.4808, 3535.230
902.9630, 3531.951
903.4451, 3544.352
903.9272, 3547.863
904.4093, 3536.173
904.8914, 3528.917
905.3735, 3532.225
905.8557, 3533.370
906.3378, 3520.519
906.8199, 3505.437
907.3020, 3507.293
907.7841, 3529.637
908.2662, 3547.255
908.7484, 3555.596
909.2305, 3556.322
909.7126, 3547.825
910.1947, 3533.626
910.6768, 3512.646
911.1589, 3488.881
911.6411, 3476.379
912.1232, 3484.919
912.6053, 3502.397
913.0874, 3521.355
913.5695, 3538.810
914.0516, 3548.566
914.5338, 3551.308
915.0159, 3552.051
915.4980, 3553.081
915.9801, 3556.030
916.4622, 3565.853
916.9443, 3580.289
917.4265, 3531.412
917.9086, 3577.539
918.3907, 3607.014
918.8728, 3620.734
919.3549, 3571.507
919.8370, 3603.562
920.3192, 3603.046
920.8013, 3601.191
921.2834, 3644.687
921.7655, 3604.616
922.2476, 3647.393
922.7297, 3657.097
923.2119, 3681.941
923.6940, 3674.006
924.1761, 3676.195
924.6582, 3711.171
925.1403, 3727.992
925.6224, 3716.284
926.1046, 3742.090
926.5867, 3700.873
927.0688, 3718.468
927.5509, 3757.824
928.0330, 3775.859
928.5151, 3806.219
928.9973, 3864.796
929.4794, 3917.280
929.9615, 3933.821
930.4436, 3933.050
930.9257, 3931.784
931.4078, 3936.024
931.8900, 3956.480
932.3721, 3997.694
932.8542, 4043.526
933.3363, 4074.738
933.8184, 4097.200
934.3005, 4125.270
934.7827, 4158.786
935.2648, 4195.497
935.7469, 4234.777
936.2290, 4277.136
936.7111, 4324.359
937.1932, 4372.806
937.6754, 4407.728
938.1575, 4426.800
938.6396, 4449.877
939.1217, 4477.767
939.6038, 4513.409
940.0859, 4560.098
940.5681, 4613.223
941.0502, 4664.625
941.5323, 4714.389
942.0144, 4762.458
942.4965, 4804.967
942.9786, 4851.239
943.4608, 4911.689
943.9429, 4970.216
944.4250, 5008.604
944.9071, 5032.621
945.3892, 5069.048
945.8713, 5126.941
946.3535, 5188.990
946.8356, 5257.254
947.3177, 5322.048
947.7998, 5372.718
948.2819, 5416.760
948.7640, 5463.692
949.2462, 5516.457
949.7283, 5584.588
950.2104, 5679.439
950.6925, 5786.778
951.1746, 5899.272
951.6567, 6013.216
952.1389, 6120.025
952.6210, 6222.212
953.1031, 6333.730
953.5852, 6465.023
954.0673, 6597.936
954.5494, 6703.307
955.0316, 6792.354
955.5137, 6891.093
955.9958, 7002.339
956.4779, 7133.193
956.9600, 7286.304
957.4421, 7452.872
957.9243, 7624.571
958.4064, 7800.426
958.8885, 7976.648
959.3706, 8152.648
959.8527, 8327.178
960.3348, 8499.219
960.8170, 8672.702
961.2991, 8847.487
961.7812, 9028.345
962.2633, 9227.145
962.7454, 9452.839
963.2275, 9656.070
963.7097, 9817.914
964.1918, 9992.528
964.6739, 10195.37
965.1560, 10419.47
965.6381, 10661.84
966.1202, 10921.15
966.6024, 11176.37
967.0845, 11422.10
967.5666, 11672.01
968.0487, 11909.57
968.5308, 12167.79
969.0129, 12472.03
969.4951, 12805.19
969.9772, 13138.15
970.4593, 13461.99
970.9414, 13823.71
971.4235, 14250.96
971.9056, 14702.83
972.3878, 15156.69
972.8699, 15624.28
973.3520, 16139.58
973.8341, 16685.73
974.3162, 17199.65
974.7983, 17650.19
975.2805, 18089.25
975.7626, 18559.29
976.2447, 19038.22
976.7268, 19520.34
977.2089, 19985.65
977.6910, 20399.69
978.1732, 20749.59
978.6553, 21020.13
979.1374, 21201.10
979.6195, 21295.94
980.1016, 21336.88
980.5837, 21292.19
981.0659, 21070.86
981.5480, 20664.45
982.0301, 20106.54
982.5122, 19411.22
982.9943, 18602.05
983.4764, 17701.47
983.9586, 16718.53
984.4407, 15691.12
984.9228, 14613.49
985.4049, 13568.36
985.8870, 12572.98
986.3691, 11642.70
986.8513, 10785.45
987.3334, 9999.536
987.8155, 9261.841
988.2976, 8568.234
988.7797, 7953.188
989.2618, 7419.841
989.7440, 6951.954
990.2261, 6548.659
990.7082, 6192.649
991.1903, 5860.078
991.6724, 5551.277
992.1545, 5281.667
992.6367, 5060.645
993.1188, 4861.477
993.6009, 4679.146
994.0830, 4519.525
994.5651, 4394.148
995.0472, 4291.782
995.5294, 4190.137
996.0115, 4089.394
996.4936, 3989.382
996.9757, 3881.321
997.4578, 3785.869
997.9399, 3712.541
998.4221, 3650.866
998.9042, 3594.052
999.3863, 3499.389
999.8684, 3500.385
1000.351, 3484.692
1000.833, 3453.290
1001.315, 3358.941
1001.797, 3345.875
1002.279, 3300.234
1002.761, 3253.257
1003.243, 3251.631
1003.725, 3166.436
1004.207, 3164.090
1004.690, 3128.592
1005.172, 3108.310
1005.654, 3055.252
1006.136, 3012.317
1006.618, 3002.168
1007.100, 2973.865
1007.582, 2904.578
1008.064, 2882.444
1008.547, 2870.319
1009.029, 2865.874
1009.511, 2861.634
1009.993, 2846.684
1010.475, 2828.137
1010.957, 2821.172
1011.439, 2823.542
1011.921, 2817.261
1012.403, 2792.778
1012.886, 2763.088
1013.368, 2741.945
1013.850, 2725.706
1014.332, 2705.503
1014.814, 2684.248
1015.296, 2673.611
1015.778, 2675.005
1016.260, 2676.495
1016.742, 2669.297
1017.225, 2656.834
1017.707, 2642.970
1018.189, 2629.049
1018.671, 2618.703
1019.153, 2612.739
1019.635, 2617.237
1020.117, 2634.432
1020.599, 2649.618
1021.082, 2648.056
1021.564, 2631.903
1022.046, 2600.550
1022.528, 2556.675
1023.010, 2544.241
1023.492, 2570.043
1023.974, 2593.795
1024.456, 2595.101
1024.938, 2583.995
1025.421, 2574.177
1025.903, 2565.725
1026.385, 2560.205
1026.867, 2558.315
1027.349, 2551.884
1027.831, 2537.902
1028.313, 2525.659
1028.795, 2521.517
1029.278, 2523.066
1029.760, 2525.219
1030.242, 2528.047
1030.724, 2532.394
1031.206, 2541.891
1031.688, 2538.572
1032.170, 2511.532
1032.652, 2483.583
1033.135, 2475.083
1033.617, 2481.608
1034.099, 2487.073
1034.581, 2493.432
1035.063, 2492.348
1035.545, 2479.167
1036.027, 2467.920
1036.509, 2464.638
1036.991, 2464.103
1037.474, 2459.200
1037.956, 2451.126
1038.438, 2452.810
1038.920, 2473.590
1039.402, 2485.949
1039.884, 2484.222
1040.366, 2479.836
1040.848, 2475.522
1041.330, 2472.909
1041.813, 2476.159
1042.295, 2485.902
1042.777, 2487.701
1043.259, 2475.410
1043.741, 2464.311
1044.223, 2456.830
1044.705, 2449.805
1045.187, 2440.577
1045.670, 2431.073
1046.152, 2424.632
1046.634, 2421.590
1047.116, 2420.105
1047.598, 2418.346
1048.080, 2420.473
1048.562, 2434.194
1049.044, 2445.699
1049.526, 2443.891
1050.009, 2432.724
1050.491, 2420.917
1050.973, 2407.836
1051.455, 2401.069
1051.937, 2405.222
1052.419, 2411.455
1052.901, 2420.752
1053.383, 2427.380
1053.865, 2422.045
1054.348, 2410.043
1054.830, 2409.147
1055.312, 2427.477
1055.794, 2441.019
1056.276, 2442.741
1056.758, 2439.792
1057.240, 2433.159
1057.722, 2425.286
1058.205, 2417.046
1058.687, 2409.582
1059.169, 2407.139
1059.651, 2414.508
1060.133, 2417.901
1060.615, 2411.906
1061.097, 2401.895
1061.579, 2386.179
1062.062, 2371.321
1062.544, 2364.963
1063.026, 2367.350
1063.508, 2374.229
1063.990, 2389.683
1064.472, 2399.195
1064.954, 2394.287
1065.436, 2384.649
1065.918, 2373.899
1066.401, 2364.293
1066.883, 2356.117
1067.365, 2350.557
1067.847, 2355.263
1068.329, 2382.044
1068.811, 2405.754
1069.293, 2417.425
1069.775, 2419.872
1070.257, 2410.781
1070.740, 2396.017
1071.222, 2382.238
1071.704, 2371.347
1072.186, 2368.284
1072.668, 2387.180
1073.150, 2398.585
1073.632, 2376.880
1074.114, 2352.549
1074.597, 2357.022
1075.079, 2376.375
1075.561, 2380.053
1076.043, 2362.393
1076.525, 2348.947
1077.007, 2352.431
1077.489, 2360.800
1077.971, 2374.192
1078.453, 2384.390
1078.936, 2379.421
1079.418, 2366.958
1079.900, 2363.967
1080.382, 2374.321
1080.864, 2384.165
1081.346, 2387.623
1081.828, 2388.594
1082.310, 2386.446
1082.792, 2385.035
1083.275, 2385.535
1083.757, 2390.372
1084.239, 2407.818
1084.721, 2440.602
1085.203, 2461.179
1085.685, 2450.687
1086.167, 2433.340
1086.649, 2416.534
1087.131, 2403.631
1087.614, 2396.880
1088.096, 2396.511
1088.578, 2406.735
1089.060, 2430.422
1089.542, 2437.776
1090.024, 2402.298
1090.506, 2365.113
1090.988, 2345.035
1091.471, 2335.031
1091.953, 2331.747
1092.435, 2331.632
1092.917, 2328.172
1093.399, 2319.321
1093.881, 2312.352
1094.363, 2309.159
1094.845, 2309.445
1095.328, 2317.123
1095.810, 2324.760
1096.292, 2325.732
1096.774, 2320.928
1097.256, 2311.979
1097.738, 2297.470
1098.220, 2291.899
1098.702, 2315.034
1099.184, 2328.900
1099.667, 2304.322
1100.149, 2274.314
1100.631, 2269.546
1101.113, 2283.475
1101.595, 2296.414
1102.077, 2306.054
1102.559, 2307.825
1103.041, 2291.831
1103.523, 2279.179
1104.006, 2282.941
1104.488, 2288.465
1104.970, 2280.431
1105.452, 2264.921
1105.934, 2259.567
1106.416, 2269.781
1106.898, 2273.305
1107.380, 2259.576
1107.863, 2247.613
1108.345, 2241.854
1108.827, 2241.172
1109.309, 2246.673
1109.791, 2256.058
1110.273, 2264.788
1110.755, 2273.069
1111.237, 2278.006
1111.719, 2279.716
1112.202, 2277.541
1112.684, 2267.739
1113.166, 2257.499
1113.648, 2250.405
1114.130, 2246.816
1114.612, 2248.469
1115.094, 2257.500
1115.576, 2261.941
1116.058, 2264.675
1116.541, 2258.060
1117.023, 2227.978
1117.505, 2203.810
1117.987, 2211.469
1118.469, 2233.347
1118.951, 2231.803
1119.433, 2201.054
1119.915, 2190.323
1120.398, 2211.942
1120.880, 2227.572
1121.362, 2227.754
1121.844, 2226.478
1122.326, 2233.434
1122.808, 2242.613
1123.290, 2242.751
1123.772, 2233.281
1124.255, 2227.202
1124.737, 2226.950
1125.219, 2221.381
1125.701, 2205.257
1126.183, 2193.818
1126.665, 2196.958
1127.147, 2206.509
1127.629, 2210.123
1128.111, 2208.083
1128.594, 2204.986
1129.076, 2199.862
1129.558, 2201.822
1130.040, 2214.298
1130.522, 2220.678
1131.004, 2211.733
1131.486, 2196.785
1131.968, 2187.457
1132.450, 2183.437
1132.933, 2185.262
1133.415, 2192.848
1133.897, 2193.509
1134.379, 2185.734
1134.861, 2178.076
1135.343, 2174.102
1135.825, 2173.181
1136.307, 2175.215
1136.790, 2178.844
1137.272, 2179.456
1137.754, 2177.929
1138.236, 2180.055
1138.718, 2185.707
1139.200, 2189.884
1139.682, 2190.807
1140.164, 2189.449
1140.646, 2186.212
1141.129, 2182.376
1141.611, 2179.199
1142.093, 2177.568
1142.575, 2182.382
1143.057, 2190.954
1143.539, 2191.402
1144.021, 2181.892
1144.503, 2174.417
1144.985, 2177.615
1145.468, 2185.877
1145.950, 2198.118
1146.432, 2207.253
1146.914, 2199.782
1147.396, 2181.365
1147.878, 2162.423
1148.360, 2146.645
1148.842, 2137.288
1149.325, 2136.023
1149.807, 2141.617
1150.289, 2161.139
1150.771, 2179.160
1151.253, 2178.431
1151.735, 2168.535
1152.217, 2162.687
1152.699, 2161.906
1153.182, 2161.799
1153.664, 2161.026
1154.146, 2160.057
1154.628, 2158.584
1155.110, 2157.603
1155.592, 2160.139
1156.074, 2161.377
1156.556, 2151.809
1157.038, 2137.941
1157.521, 2138.943
1158.003, 2161.481
1158.485, 2174.702
1158.967, 2164.031
1159.449, 2154.294
1159.931, 2154.731
1160.413, 2156.204
1160.895, 2154.033
1161.377, 2148.006
1161.860, 2134.920
1162.342, 2112.891
1162.824, 2106.740
1163.306, 2131.865
1163.788, 2144.375
1164.270, 2129.715
1164.752, 2119.346
1165.234, 2132.610
1165.717, 2152.053
1166.199, 2154.371
1166.681, 2141.785
1167.163, 2135.038
1167.645, 2136.277
1168.127, 2133.193
1168.609, 2123.789
1169.091, 2115.236
1169.573, 2109.813
1170.056, 2108.030
1170.538, 2111.221
1171.020, 2116.842
1171.502, 2114.704
1171.984, 2105.918
1172.466, 2113.606
1172.948, 2137.535
1173.430, 2153.683
1173.912, 2155.917
1174.395, 2156.155
1174.877, 2163.133
1175.359, 2170.249
1175.841, 2164.585
1176.323, 2151.870
1176.805, 2148.292
1177.287, 2150.687
1177.769, 2147.680
1178.252, 2138.770
1178.734, 2132.497
1179.216, 2132.960
1179.698, 2132.926
1180.180, 2118.635
1180.662, 2107.024
1181.144, 2123.145
1181.626, 2150.372
1182.109, 2168.401
1182.591, 2175.385
1183.073, 2173.593
1183.555, 2163.909
1184.037, 2148.891
1184.519, 2119.977
1185.001, 2099.250
1185.483, 2102.412
1185.965, 2113.576
1186.448, 2126.207
1186.930, 2135.533
1187.412, 2133.762
1187.894, 2121.897
1188.376, 2114.370
1188.858, 2115.958
1189.340, 2118.033
1189.822, 2119.091
1190.304, 2120.910
1190.787, 2125.571
1191.269, 2130.022
1191.751, 2131.511
1192.233, 2130.710
1192.715, 2129.928
1193.197, 2129.781
1193.679, 2126.778
1194.161, 2120.091
1194.644, 2112.545
1195.126, 2103.553
1195.608, 2097.790
1196.090, 2098.721
1196.572, 2103.270
1197.054, 2106.957
1197.536, 2109.486
1198.018, 2107.353
1198.500, 2100.888
1198.983, 2096.691
1199.465, 2095.776
1199.947, 2103.018
1200.429, 2120.405
1200.911, 2132.565
1201.393, 2122.272
1201.875, 2101.711
1202.357, 2090.193
1202.839, 2086.681
1203.322, 2092.265
1203.804, 2103.318
1204.286, 2111.635
1204.768, 2114.861
1205.250, 2111.654
1205.732, 2098.723
1206.214, 2090.204
1206.696, 2104.621
1207.179, 2120.730
1207.661, 2111.545
1208.143, 2098.544
1208.625, 2099.522
1209.107, 2123.420
1209.589, 2199.283
1210.071, 2347.166
1210.553, 2434.354
1211.036, 2398.214
1211.518, 2331.377
1212.000, 2225.443
1212.482, 2136.298
1212.964, 2106.158
1213.446, 2111.113
1213.928, 2116.856
1214.410, 2123.100
1214.892, 2122.640
1215.375, 2113.315
1215.857, 2101.489
1216.339, 2081.823
1216.821, 2078.927
1217.303, 2107.594
1217.785, 2135.792
1218.267, 2133.519
1218.749, 2112.960
1219.231, 2102.068
1219.714, 2100.901
1220.196, 2116.072
1220.678, 2144.839
1221.160, 2152.726
1221.642, 2135.388
1222.124, 2122.783
1222.606, 2130.958
1223.088, 2142.114
1223.571, 2132.603
1224.053, 2117.162
1224.535, 2122.541
1225.017, 2136.702
1225.499, 2140.629
1225.981, 2134.327
1226.463, 2121.029
1226.945, 2103.182
1227.427, 2090.209
1227.910, 2087.327
1228.392, 2089.487
1228.874, 2099.717
1229.356, 2107.722
1229.838, 2104.405
1230.320, 2096.852
1230.802, 2093.243
1231.284, 2092.980
1231.766, 2090.819
1232.249, 2083.714
1232.731, 2084.180
1233.213, 2099.644
1233.695, 2109.895
1234.177, 2109.264
1234.659, 2107.059
1235.141, 2108.351
1235.623, 2111.075
1236.106, 2112.733
1236.588, 2112.990
1237.070, 2107.346
1237.552, 2095.398
1238.034, 2097.824
1238.516, 2115.724
1238.998, 2125.098
1239.480, 2118.713
1239.963, 2109.197
1240.445, 2105.662
1240.927, 2106.492
1241.409, 2113.508
1241.891, 2120.532
1242.373, 2111.904
1242.855, 2096.056
1243.337, 2091.004
1243.819, 2096.436
1244.302, 2102.696
1244.784, 2106.449
1245.266, 2108.134
1245.748, 2107.750
1246.230, 2105.742
1246.712, 2102.443
1247.194, 2097.499
1247.676, 2085.777
1248.158, 2075.314
1248.641, 2079.218
1249.123, 2096.071
1249.605, 2109.058
1250.087, 2115.746
1250.569, 2122.519
1251.051, 2131.695
1251.533, 2135.121
1252.015, 2127.671
1252.498, 2122.558
1252.980, 2130.565
1253.462, 2140.536
1253.944, 2131.350
1254.426, 2107.905
1254.908, 2104.510
1255.390, 2118.083
1255.872, 2117.119
1256.354, 2101.065
1256.837, 2091.939
1257.319, 2096.720
1257.801, 2106.834
1258.283, 2117.691
1258.765, 2124.538
1259.247, 2114.235
1259.729, 2103.803
1260.211, 2123.229
1260.693, 2150.776
1261.176, 2149.080
1261.658, 2123.975
1262.140, 2105.922
1262.622, 2102.945
1263.104, 2103.510
1263.586, 2106.422
1264.068, 2108.952
1264.550, 2114.422
1265.033, 2114.308
1265.515, 2094.309
1265.997, 2075.902
1266.479, 2086.802
1266.961, 2118.573
1267.443, 2133.060
1267.925, 2127.090
1268.407, 2121.873
1268.890, 2117.384
1269.372, 2114.903
1269.854, 2114.734
1270.336, 2116.620
1270.818, 2120.703
1271.300, 2122.088
1271.782, 2110.706
1272.264, 2097.443
1272.746, 2109.479
1273.229, 2132.475
1273.711, 2137.550
1274.193, 2129.047
1274.675, 2122.601
1275.157, 2121.756
1275.639, 2122.740
1276.121, 2124.020
1276.603, 2126.614
1277.085, 2133.507
1277.568, 2138.675
1278.050, 2137.474
1278.532, 2134.849
1279.014, 2135.778
1279.496, 2137.849
1279.978, 2135.582
1280.460, 2129.047
##END=



