##NAMES=Carnallite
##RRUFFID=R050353
##IDEAL CHEMISTRY=KMgCl_3_&#183;6H_2_O
##LOCALITY=Strassfurt, Germany
##OWNER=RRUFF
##SOURCE=California Institute of Technology
##DESCRIPTION=Colorless single crystals and grains associated with halite, sylvite, and anhydrite.
##STATUS=The identification of this mineral has been confirmed by X-ray diffraction.
##URL=rruff.info/R050353
174.5224, 61777.95
175.0045, 61783.29
175.4866, 61810.00
175.9687, 61859.32
176.4508, 61938.71
176.9330, 62049.50
177.4151, 62169.88
177.8972, 62276.86
178.3793, 62378.12
178.8614, 62492.76
179.3435, 62618.51
179.8257, 62766.36
180.3078, 62968.67
180.7899, 63241.03
181.2720, 63519.52
181.7541, 63698.27
182.2362, 63801.17
182.7184, 63955.25
183.2005, 64305.84
183.6826, 64770.20
184.1647, 65112.93
184.6468, 65245.02
185.1289, 65322.83
185.6111, 65627.01
186.0932, 66152.73
186.5753, 66693.83
187.0574, 67094.68
187.5395, 67376.65
188.0216, 67654.66
188.5037, 67930.41
188.9859, 68225.20
189.4680, 68608.46
189.9501, 69082.02
190.4322, 69586.23
190.9143, 70072.02
191.3964, 70535.43
191.8786, 70965.24
192.3607, 71350.08
192.8428, 71691.05
193.3249, 71981.00
193.8070, 72205.80
194.2891, 72422.38
194.7713, 72739.58
195.2534, 73167.25
195.7355, 73519.49
196.2176, 73686.35
196.6997, 73678.05
197.1818, 73718.98
197.6640, 73825.74
198.1461, 73961.18
198.6282, 74064.20
199.1103, 74134.48
199.5924, 74175.30
200.0745, 74184.66
200.5567, 74160.16
201.0388, 74109.59
201.5209, 74016.98
202.0030, 73906.13
202.4851, 73874.26
202.9672, 73956.38
203.4494, 73978.36
203.9315, 73774.67
204.4136, 73296.30
204.8957, 72926.67
205.3778, 72762.88
205.8599, 72743.82
206.3421, 72552.86
206.8242, 72150.24
207.3063, 71677.90
207.7884, 71253.66
208.2705, 70885.14
208.7526, 70537.27
209.2348, 70200.45
209.7169, 69876.27
210.1990, 69588.13
210.6811, 69353.73
211.1632, 69126.87
211.6453, 68857.98
212.1275, 68547.81
212.6096, 68185.27
213.0917, 67744.39
213.5738, 67217.75
214.0559, 66736.55
214.5380, 66308.27
215.0202, 65916.23
215.5023, 65537.74
215.9844, 65183.39
216.4665, 64825.58
216.9486, 64460.00
217.4307, 64091.30
217.9129, 63703.59
218.3950, 63284.45
218.8771, 62856.14
219.3592, 62459.18
219.8413, 62109.87
220.3234, 61759.85
220.8056, 61380.30
221.2877, 60937.45
221.7698, 60556.65
222.2519, 60288.84
222.7340, 60074.00
223.2161, 59675.86
223.6983, 58959.30
224.1804, 58271.46
224.6625, 57837.28
225.1446, 57792.25
225.6267, 57676.52
226.1088, 57455.80
226.5910, 57137.39
227.0731, 56738.73
227.5552, 56207.73
228.0373, 55667.96
228.5194, 55223.97
229.0015, 54957.65
229.4836, 54619.14
229.9658, 54148.52
230.4479, 53553.18
230.9300, 53050.97
231.4121, 52681.00
231.8942, 52362.70
232.3763, 52031.97
232.8585, 51693.84
233.3406, 51340.88
233.8227, 50955.01
234.3048, 50530.05
234.7869, 50199.52
235.2690, 50014.74
235.7512, 49876.59
236.2333, 49672.05
236.7154, 49366.59
237.1975, 49056.46
237.6796, 48759.60
238.1617, 48480.82
238.6439, 48190.25
239.1260, 47861.35
239.6081, 47540.01
240.0902, 47296.19
240.5723, 47176.00
241.0544, 47053.56
241.5366, 46879.42
242.0187, 46620.47
242.5008, 46445.57
242.9829, 46414.43
243.4650, 46435.05
243.9471, 46335.00
244.4293, 46033.50
244.9114, 45734.78
245.3935, 45513.83
245.8756, 45393.34
246.3577, 45276.58
246.8398, 45145.06
247.3220, 45022.89
247.8041, 44973.69
248.2862, 45054.11
248.7683, 45121.22
249.2504, 45106.11
249.7325, 44956.90
250.2147, 44851.11
250.6968, 44805.49
251.1789, 44801.22
251.6610, 44785.21
252.1431, 44759.43
252.6252, 44720.18
253.1074, 44673.41
253.5895, 44646.28
254.0716, 44536.77
254.5537, 44280.50
255.0358, 43944.15
255.5179, 43795.27
256.0001, 43928.29
256.4822, 44107.50
256.9643, 44199.87
257.4464, 44177.45
257.9285, 44135.31
258.4106, 44066.25
258.8928, 43981.01
259.3749, 43944.39
259.8570, 43984.85
260.3391, 44026.74
260.8212, 44011.37
261.3033, 43909.96
261.7855, 43829.52
262.2676, 43784.11
262.7497, 43769.20
263.2318, 43753.03
263.7139, 43724.38
264.1960, 43711.61
264.6782, 43742.16
265.1603, 43832.72
265.6424, 43916.19
266.1245, 43986.47
266.6066, 44043.04
267.0887, 44087.65
267.5709, 44127.89
268.0530, 44142.80
268.5351, 44101.87
269.0172, 43983.36
269.4993, 43893.75
269.9814, 43865.14
270.4636, 43888.95
270.9457, 43864.77
271.4278, 43768.35
271.9099, 43674.48
272.3920, 43666.99
272.8741, 43765.99
273.3563, 43858.31
273.8384, 43920.02
274.3205, 43953.07
274.8026, 43972.42
275.2847, 43968.42
275.7668, 43972.42
276.2490, 44030.59
276.7311, 44155.27
277.2132, 44251.34
277.6953, 44289.09
278.1774, 44274.27
278.6595, 44242.79
279.1417, 44179.58
279.6238, 44140.97
280.1059, 44205.37
280.5880, 44382.00
281.0701, 44555.66
281.5522, 44694.40
282.0344, 44802.02
282.5165, 44897.09
282.9986, 44980.80
283.4807, 45050.22
283.9628, 45093.58
284.4449, 45110.61
284.9271, 45137.30
285.4092, 45178.71
285.8913, 45237.89
286.3734, 45345.23
286.8555, 45510.09
287.3376, 45680.71
287.8198, 45788.09
288.3019, 45835.55
288.7840, 45888.42
289.2661, 45976.95
289.7482, 46088.85
290.2303, 46169.26
290.7124, 46209.71
291.1945, 46260.28
291.6767, 46404.05
292.1588, 46624.70
292.6409, 46806.55
293.1230, 46872.33
293.6051, 46867.36
294.0872, 46932.09
294.5694, 47075.02
295.0515, 47223.99
295.5336, 47286.25
296.0157, 47283.09
296.4978, 47304.02
296.9799, 47429.28
297.4621, 47597.68
297.9442, 47644.88
298.4263, 47562.65
298.9084, 47487.51
299.3905, 47607.78
299.8727, 47856.84
300.3548, 48042.00
300.8369, 48025.07
301.3190, 47914.00
301.8011, 47885.89
302.2832, 47947.26
302.7654, 48000.63
303.2475, 47913.91
303.7296, 47752.17
304.2117, 47654.89
304.6938, 47750.27
305.1759, 47906.73
305.6581, 47945.00
306.1402, 47857.71
306.6223, 47792.72
307.1044, 47933.34
307.5865, 48167.93
308.0686, 48305.37
308.5508, 48178.73
309.0329, 47978.09
309.5150, 47878.30
309.9971, 47883.45
310.4792, 47888.09
310.9613, 47804.50
311.4435, 47683.04
311.9256, 47593.11
312.4077, 47604.10
312.8898, 47624.64
313.3719, 47593.80
313.8540, 47510.10
314.3362, 47416.19
314.8183, 47315.09
315.3004, 47220.54
315.7825, 47147.57
316.2646, 47169.46
316.7467, 47154.48
317.2289, 46988.34
317.7110, 46670.08
318.1931, 46447.30
318.6752, 46516.41
319.1573, 46682.44
319.6394, 46760.20
320.1216, 46586.42
320.6037, 46425.88
321.0858, 46394.36
321.5679, 46491.30
322.0500, 46526.68
322.5321, 46411.27
323.0143, 46239.96
323.4964, 46088.39
323.9785, 45951.82
324.4606, 45854.50
324.9427, 45817.68
325.4248, 45838.91
325.9070, 45846.67
326.3891, 45847.74
326.8712, 45823.52
327.3533, 45761.12
327.8354, 45582.67
328.3175, 45451.01
328.7997, 45399.70
329.2818, 45422.33
329.7639, 45429.46
330.2460, 45404.13
330.7281, 45377.07
331.2102, 45369.02
331.6924, 45402.89
332.1745, 45421.40
332.6566, 45416.84
333.1387, 45392.97
333.6208, 45371.04
334.1029, 45354.56
334.5851, 45337.80
335.0672, 45318.17
335.5493, 45298.27
336.0314, 45265.61
336.5135, 45193.52
336.9956, 45111.04
337.4778, 45151.42
337.9599, 45383.18
338.4420, 45587.31
338.9241, 45602.36
339.4062, 45371.18
339.8883, 45264.08
340.3705, 45349.25
340.8526, 45542.57
341.3347, 45619.27
341.8168, 45553.12
342.2989, 45491.11
342.7810, 45541.71
343.2632, 45705.53
343.7453, 45783.50
344.2274, 45735.56
344.7095, 45645.37
345.1916, 45665.91
345.6737, 45799.27
346.1559, 45971.80
346.6380, 46168.04
347.1201, 46376.42
347.6022, 46560.12
348.0843, 46720.98
348.5664, 46835.49
349.0486, 46824.29
349.5307, 46712.96
350.0128, 46661.38
350.4949, 46809.82
350.9770, 47061.39
351.4591, 47205.07
351.9413, 47220.23
352.4234, 47209.86
352.9055, 47285.92
353.3876, 47421.50
353.8697, 47543.88
354.3518, 47587.12
354.8340, 47621.01
355.3161, 47759.81
355.7982, 48014.05
356.2803, 48220.65
356.7624, 48200.20
357.2445, 48062.73
357.7267, 47978.23
358.2088, 47997.05
358.6909, 48102.35
359.1730, 48325.22
359.6551, 48660.52
360.1372, 48959.31
360.6194, 49119.53
361.1015, 49212.55
361.5836, 49311.19
362.0657, 49472.86
362.5478, 49607.85
363.0299, 49663.67
363.5121, 49648.93
363.9942, 49648.25
364.4763, 49692.27
364.9584, 49756.02
365.4405, 49822.54
365.9226, 49889.72
366.4048, 49958.18
366.8869, 50048.46
367.3690, 50148.70
367.8511, 50195.80
368.3332, 50134.08
368.8153, 50057.11
369.2975, 50009.04
369.7796, 49975.75
370.2617, 49996.44
370.7438, 50118.48
371.2259, 50294.72
371.7080, 50390.09
372.1902, 50360.58
372.6722, 50307.77
373.1544, 50272.13
373.6365, 50265.98
374.1186, 50237.39
374.6007, 50162.28
375.0828, 50080.61
375.5649, 50081.76
376.0471, 50204.00
376.5292, 50296.89
377.0113, 50275.92
377.4934, 50126.67
377.9755, 50103.07
378.4576, 50242.14
378.9398, 50424.44
379.4219, 50478.86
379.9040, 50396.02
380.3861, 50328.34
380.8682, 50344.99
381.3503, 50419.49
381.8325, 50425.45
382.3146, 50358.00
382.7967, 50256.22
383.2788, 50134.60
383.7609, 50005.39
384.2430, 49923.01
384.7252, 49916.58
385.2073, 49958.01
385.6894, 50015.89
386.1715, 50088.63
386.6536, 50136.02
387.1357, 50120.80
387.6179, 50062.20
388.1000, 49988.29
388.5821, 49892.36
389.0642, 49807.47
389.5463, 49767.75
390.0284, 49768.44
390.5106, 49791.88
390.9927, 49860.09
391.4748, 49930.09
391.9569, 49956.82
392.4390, 49912.95
392.9211, 49873.73
393.4033, 49858.50
393.8854, 49875.14
394.3675, 49939.60
394.8496, 50158.39
395.3317, 50342.89
395.8138, 50383.52
396.2960, 50225.02
396.7781, 50088.38
397.2602, 50037.73
397.7423, 50030.87
398.2244, 50013.17
398.7065, 49940.92
399.1887, 49894.08
399.6708, 49901.36
400.1529, 49970.11
400.6350, 50024.28
401.1171, 50067.19
401.5992, 50094.18
402.0814, 50098.96
402.5635, 50065.68
403.0456, 50042.01
403.5277, 50047.91
404.0098, 50073.41
404.4919, 50031.47
404.9741, 49871.63
405.4562, 49740.91
405.9383, 49779.25
406.4204, 50031.93
406.9025, 50154.39
407.3846, 50083.70
407.8668, 49897.00
408.3489, 49765.03
408.8310, 49691.04
409.3131, 49650.78
409.7952, 49638.08
410.2773, 49650.31
410.7595, 49676.91
411.2416, 49721.00
411.7237, 49764.41
412.2058, 49776.43
412.6879, 49763.16
413.1700, 49755.21
413.6522, 49788.43
414.1343, 49826.58
414.6164, 49792.14
415.0985, 49680.25
415.5806, 49588.96
416.0627, 49635.00
416.5449, 49747.71
417.0270, 49817.07
417.5091, 49795.32
417.9912, 49724.70
418.4733, 49595.20
418.9554, 49424.96
419.4376, 49314.70
419.9197, 49385.65
420.4018, 49499.62
420.8839, 49543.44
421.3660, 49424.25
421.8481, 49334.57
422.3303, 49345.55
422.8124, 49428.11
423.2945, 49501.43
423.7766, 49549.95
424.2587, 49584.98
424.7408, 49613.98
425.2230, 49650.65
425.7051, 49643.76
426.1872, 49552.93
426.6693, 49433.45
427.1514, 49364.36
427.6335, 49378.88
428.1157, 49390.55
428.5978, 49376.46
429.0799, 49336.23
429.5620, 49309.09
430.0441, 49305.68
430.5262, 49301.11
431.0084, 49269.52
431.4905, 49206.88
431.9726, 49150.71
432.4547, 49117.50
432.9368, 49091.02
433.4189, 48997.79
433.9011, 48831.75
434.3832, 48694.70
434.8653, 48667.24
435.3474, 48730.97
435.8295, 48812.52
436.3116, 48912.33
436.7938, 48999.99
437.2759, 49021.83
437.7580, 48992.06
438.2401, 48962.28
438.7222, 48952.14
439.2043, 48960.42
439.6865, 49008.82
440.1686, 49105.05
440.6507, 49151.32
441.1328, 49015.92
441.6149, 48803.91
442.0970, 48655.56
442.5792, 48644.48
443.0613, 48687.95
443.5434, 48778.51
444.0255, 48905.13
444.5076, 48984.41
444.9897, 48957.81
445.4719, 48893.91
445.9540, 48836.77
446.4361, 48792.69
446.9182, 48755.27
447.4003, 48724.66
447.8824, 48700.52
448.3646, 48682.78
448.8467, 48694.45
449.3288, 48688.00
449.8109, 48646.58
450.2930, 48564.13
450.7751, 48464.75
451.2573, 48309.61
451.7394, 48180.82
452.2215, 48213.56
452.7036, 48457.17
453.1857, 48646.40
453.6678, 48689.14
454.1500, 48618.90
454.6321, 48619.21
455.1142, 48702.59
455.5963, 48764.19
456.0784, 48683.21
456.5605, 48489.40
457.0426, 48338.18
457.5247, 48249.17
458.0069, 48226.22
458.4890, 48322.93
458.9711, 48508.51
459.4532, 48651.52
459.9353, 48640.40
460.4174, 48558.30
460.8996, 48501.27
461.3817, 48479.16
461.8638, 48474.83
462.3459, 48494.80
462.8280, 48520.30
463.3102, 48525.05
463.7923, 48478.95
464.2744, 48428.61
464.7565, 48393.29
465.2386, 48373.30
465.7207, 48358.32
466.2029, 48361.51
466.6850, 48359.93
467.1671, 48339.51
467.6492, 48277.80
468.1313, 48225.14
468.6134, 48182.75
469.0956, 48150.99
469.5777, 48131.58
470.0598, 48125.80
470.5419, 48130.55
471.0240, 48142.81
471.5061, 48160.35
471.9883, 48203.12
472.4704, 48282.41
472.9525, 48364.46
473.4346, 48410.11
473.9167, 48418.52
474.3988, 48396.19
474.8810, 48330.99
475.3631, 48243.62
475.8452, 48195.21
476.3273, 48185.73
476.8094, 48185.20
477.2915, 48149.21
477.7737, 48109.27
478.2558, 48150.84
478.7379, 48316.10
479.2200, 48478.40
479.7021, 48496.83
480.1842, 48416.49
480.6664, 48340.29
481.1485, 48313.38
481.6306, 48311.59
482.1127, 48320.29
482.5948, 48337.74
483.0769, 48363.73
483.5591, 48431.73
484.0412, 48489.37
484.5233, 48489.92
485.0054, 48325.78
485.4875, 48211.50
485.9696, 48195.52
486.4518, 48261.95
486.9339, 48330.04
487.4160, 48405.21
487.8981, 48475.93
488.3802, 48543.77
488.8623, 48624.79
489.3445, 48644.05
489.8266, 48572.97
490.3087, 48477.71
490.7908, 48474.74
491.2729, 48587.77
491.7550, 48632.48
492.2372, 48520.56
492.7193, 48306.12
493.2014, 48221.89
493.6835, 48270.47
494.1656, 48349.68
494.6477, 48383.41
495.1299, 48384.23
495.6120, 48386.72
496.0941, 48398.08
496.5762, 48409.67
497.0583, 48408.76
497.5404, 48400.73
498.0226, 48399.09
498.5047, 48414.78
498.9868, 48436.52
499.4689, 48466.82
499.9510, 48507.70
500.4331, 48516.35
500.9153, 48456.90
501.3974, 48367.39
501.8795, 48280.56
502.3616, 48144.61
502.8437, 48080.26
503.3258, 48150.85
503.8080, 48318.55
504.2901, 48429.40
504.7722, 48459.05
505.2543, 48462.49
505.7364, 48459.09
506.2185, 48449.32
506.7007, 48429.77
507.1828, 48395.34
507.6649, 48357.88
508.1470, 48324.19
508.6291, 48291.05
509.1112, 48292.17
509.5934, 48337.60
510.0755, 48420.28
510.5576, 48551.74
511.0397, 48728.25
511.5218, 48851.13
512.0039, 48805.77
512.4860, 48664.56
512.9681, 48560.08
513.4503, 48509.97
513.9324, 48499.03
514.4145, 48527.43
514.8966, 48584.79
515.3787, 48652.32
515.8608, 48743.80
516.3430, 48826.79
516.8251, 48887.98
517.3072, 48927.85
517.7893, 48943.09
518.2714, 48903.84
518.7535, 48860.57
519.2357, 48845.98
519.7178, 48915.09
520.1999, 48940.86
520.6820, 48891.85
521.1641, 48809.93
521.6462, 48779.41
522.1284, 48823.98
522.6105, 48868.73
523.0926, 48887.65
523.5747, 48881.86
524.0568, 48893.74
524.5389, 48929.07
525.0211, 48957.75
525.5032, 48939.62
525.9853, 48883.29
526.4674, 48843.86
526.9495, 48824.39
527.4316, 48839.60
527.9138, 48949.11
528.3959, 49121.79
528.8780, 49249.64
529.3601, 49230.02
529.8422, 49162.56
530.3243, 49144.32
530.8065, 49182.65
531.2886, 49227.96
531.7707, 49261.90
532.2528, 49286.23
532.7349, 49303.73
533.2170, 49325.80
533.6992, 49329.51
534.1813, 49300.10
534.6634, 49247.89
535.1455, 49206.02
535.6276, 49156.85
536.1097, 49141.96
536.5919, 49190.98
537.0740, 49321.57
537.5561, 49385.14
538.0382, 49355.15
538.5203, 49307.64
539.0024, 49336.54
539.4846, 49448.66
539.9667, 49508.83
540.4488, 49470.06
540.9309, 49391.54
541.4130, 49410.89
541.8951, 49516.05
542.3773, 49603.49
542.8594, 49575.38
543.3415, 49504.69
543.8236, 49510.82
544.3057, 49606.04
544.7878, 49700.78
545.2700, 49725.83
545.7521, 49716.29
546.2342, 49713.38
546.7163, 49754.60
547.1984, 49776.98
547.6805, 49756.54
548.1627, 49699.73
548.6448, 49629.04
549.1269, 49505.70
549.6090, 49408.72
550.0911, 49375.89
550.5732, 49428.89
551.0554, 49440.47
551.5375, 49376.50
552.0196, 49314.69
552.5017, 49357.93
552.9838, 49535.24
553.4659, 49625.96
553.9481, 49572.31
554.4302, 49432.73
554.9123, 49324.48
555.3944, 49248.02
555.8765, 49215.68
556.3586, 49268.17
556.8408, 49358.59
557.3229, 49398.42
557.8050, 49381.76
558.2871, 49357.82
558.7692, 49378.29
559.2513, 49409.30
559.7335, 49405.15
560.2156, 49303.80
560.6977, 49229.88
561.1798, 49256.29
561.6619, 49349.53
562.1440, 49418.26
562.6262, 49448.89
563.1083, 49448.10
563.5904, 49401.12
564.0725, 49292.49
564.5546, 49252.97
565.0367, 49308.00
565.5189, 49397.15
566.0010, 49470.00
566.4831, 49522.06
566.9652, 49587.49
567.4473, 49691.80
567.9294, 49779.52
568.4116, 49718.45
568.8937, 49520.63
569.3758, 49336.08
569.8579, 49238.52
570.3400, 49200.93
570.8221, 49182.08
571.3043, 49182.41
571.7864, 49192.76
572.2685, 49222.94
572.7506, 49254.07
573.2327, 49262.48
573.7148, 49225.70
574.1970, 49201.70
574.6791, 49223.51
575.1612, 49270.11
575.6433, 49303.82
576.1254, 49303.29
576.6075, 49304.48
577.0897, 49315.51
577.5718, 49335.32
578.0539, 49348.38
578.5360, 49346.47
579.0181, 49351.35
579.5002, 49382.62
579.9824, 49443.08
580.4645, 49490.03
580.9466, 49523.43
581.4287, 49538.80
581.9108, 49513.28
582.3929, 49458.77
582.8751, 49433.46
583.3572, 49491.55
583.8393, 49557.98
584.3214, 49503.86
584.8035, 49360.21
585.2856, 49272.84
585.7678, 49366.88
586.2499, 49516.65
586.7320, 49641.10
587.2141, 49734.01
587.6962, 49776.02
588.1783, 49714.69
588.6605, 49622.52
589.1426, 49573.33
589.6247, 49566.24
590.1068, 49612.59
590.5889, 49757.63
591.0710, 49946.98
591.5532, 50000.52
592.0353, 49879.97
592.5174, 49768.71
592.9995, 49756.50
593.4816, 49828.52
593.9637, 49882.83
594.4459, 49920.08
594.9280, 49932.63
595.4101, 49869.94
595.8922, 49783.65
596.3743, 49794.77
596.8564, 49969.39
597.3386, 50144.89
597.8207, 50158.48
598.3028, 50082.87
598.7849, 50052.18
599.2670, 50198.44
599.7491, 50319.68
600.2313, 50315.69
600.7134, 50189.88
601.1955, 50102.79
601.6776, 50048.02
602.1597, 50052.04
602.6418, 50145.84
603.1240, 50375.20
603.6061, 50521.31
604.0882, 50564.21
604.5703, 50555.16
605.0524, 50533.23
605.5345, 50499.91
606.0167, 50552.31
606.4988, 50761.96
606.9809, 51012.51
607.4630, 51088.11
607.9451, 51019.75
608.4272, 50952.84
608.9094, 50947.00
609.3915, 50999.88
609.8736, 51145.46
610.3557, 51390.00
610.8378, 51573.16
611.3199, 51525.54
611.8021, 51447.12
612.2842, 51498.95
612.7663, 51883.28
613.2484, 52144.20
613.7305, 52218.29
614.2126, 52177.04
614.6948, 52130.58
615.1769, 52051.62
615.6590, 52037.29
616.1411, 52126.13
616.6232, 52297.02
617.1053, 52462.43
617.5875, 52623.09
618.0696, 52758.04
618.5517, 52830.79
619.0338, 52871.91
619.5159, 52964.31
619.9980, 53122.91
620.4802, 53257.31
620.9623, 53247.80
621.4444, 53190.00
621.9265, 53210.77
622.4086, 53440.12
622.8907, 53637.07
623.3729, 53720.26
623.8550, 53714.46
624.3371, 53678.51
624.8192, 53534.07
625.3013, 53459.38
625.7834, 53510.72
626.2656, 53683.98
626.7477, 53877.59
627.2298, 54104.05
627.7119, 54312.74
628.1940, 54448.20
628.6761, 54518.77
629.1583, 54638.07
629.6404, 54824.27
630.1225, 55016.21
630.6046, 55153.79
631.0867, 55248.30
631.5688, 55325.30
632.0510, 55400.58
632.5331, 55453.38
633.0152, 55437.04
633.4973, 55383.88
633.9794, 55386.43
634.4615, 55494.43
634.9437, 55646.59
635.4258, 55850.79
635.9079, 56122.08
636.3900, 56278.37
636.8721, 56239.16
637.3542, 56190.88
637.8364, 56276.36
638.3185, 56521.91
638.8006, 56699.55
639.2827, 56784.63
639.7648, 56829.39
640.2469, 56904.67
640.7291, 57004.00
641.2112, 57096.61
641.6933, 57176.36
642.1754, 57239.66
642.6575, 57262.84
643.1396, 57261.77
643.6218, 57286.76
644.1039, 57374.67
644.5860, 57485.77
645.0681, 57612.89
645.5502, 57756.46
646.0323, 57863.55
646.5145, 57899.68
646.9966, 57917.71
647.4787, 57938.32
647.9608, 57937.36
648.4429, 58019.32
648.9250, 58229.61
649.4072, 58455.97
649.8893, 58526.03
650.3714, 58447.20
650.8535, 58389.03
651.3356, 58412.87
651.8177, 58457.09
652.2999, 58393.18
652.7820, 58254.61
653.2641, 58170.87
653.7462, 58262.13
654.2283, 58393.75
654.7104, 58476.26
655.1926, 58504.77
655.6747, 58509.73
656.1568, 58498.61
656.6389, 58468.54
657.1210, 58413.87
657.6031, 58315.15
658.0853, 58245.04
658.5674, 58220.66
659.0495, 58204.46
659.5316, 58136.32
660.0137, 58007.04
660.4958, 57941.31
660.9779, 57988.13
661.4600, 58071.22
661.9421, 58027.76
662.4243, 57890.52
662.9064, 57799.91
663.3885, 57916.40
663.8706, 58047.43
664.3527, 57987.88
664.8348, 57756.46
665.3170, 57544.79
665.7991, 57438.73
666.2812, 57370.18
666.7633, 57306.68
667.2454, 57256.57
667.7275, 57176.69
668.2097, 57062.22
668.6918, 56922.76
669.1739, 56771.32
669.6560, 56612.79
670.1381, 56409.26
670.6202, 56136.97
671.1024, 55857.65
671.5845, 55695.17
672.0666, 55626.11
672.5487, 55536.21
673.0308, 55361.32
673.5129, 55159.78
673.9951, 54994.29
674.4772, 54856.79
674.9593, 54709.79
675.4414, 54525.32
675.9235, 54334.92
676.4056, 54158.32
676.8878, 53998.65
677.3699, 53824.95
677.8520, 53625.89
678.3341, 53421.63
678.8162, 53234.53
679.2983, 53077.04
679.7805, 52857.80
680.2626, 52548.87
680.7447, 52243.74
681.2268, 52086.36
681.7089, 52046.73
682.1910, 51991.70
682.6732, 51886.14
683.1553, 51748.19
683.6374, 51555.28
684.1195, 51344.22
684.6016, 51195.07
685.0837, 51230.42
685.5659, 51253.51
686.0480, 51160.53
686.5301, 50957.50
687.0122, 50778.55
687.4943, 50654.51
687.9764, 50529.38
688.4586, 50378.52
688.9407, 50199.87
689.4228, 50014.76
689.9049, 49813.89
690.3870, 49637.16
690.8691, 49543.84
691.3513, 49509.71
691.8334, 49438.82
692.3155, 49310.21
692.7976, 49170.36
693.2797, 49038.10
693.7618, 48928.23
694.2440, 48863.14
694.7261, 48930.01
695.2082, 48954.69
695.6903, 48840.38
696.1724, 48635.56
696.6545, 48485.92
697.1367, 48420.41
697.6188, 48375.86
698.1009, 48351.20
698.5830, 48337.52
699.0651, 48240.53
699.5472, 48041.36
700.0294, 47888.02
700.5115, 47912.17
700.9936, 48049.17
701.4757, 48140.56
701.9578, 48181.14
702.4399, 48152.04
702.9221, 47984.27
703.4042, 47767.36
703.8863, 47594.93
704.3684, 47504.09
704.8505, 47413.74
705.3326, 47275.59
705.8148, 47137.48
706.2969, 47059.16
706.7790, 47075.67
707.2611, 47084.56
707.7432, 47079.43
708.2253, 47055.82
708.7075, 47005.50
709.1896, 46929.14
709.6717, 46818.29
710.1538, 46639.59
710.6359, 46446.62
711.1180, 46325.86
711.6002, 46274.77
712.0823, 46288.93
712.5644, 46438.82
713.0465, 46596.33
713.5286, 46688.64
714.0107, 46709.89
714.4929, 46651.32
714.9750, 46374.93
715.4571, 46131.42
715.9392, 46059.02
716.4213, 46210.82
716.9034, 46341.83
717.3856, 46459.06
717.8677, 46539.23
718.3498, 46559.02
718.8319, 46520.01
719.3140, 46413.66
719.7961, 46207.54
720.2783, 46030.74
720.7604, 46086.52
721.2425, 46263.91
721.7246, 46361.80
722.2067, 46245.32
722.6888, 46102.16
723.1710, 45967.97
723.6531, 45858.16
724.1352, 45828.29
724.6173, 45955.63
725.0994, 46039.81
725.5815, 45999.54
726.0637, 45863.34
726.5458, 45858.85
727.0279, 46000.81
727.5100, 46116.44
727.9921, 46059.68
728.4742, 45907.48
728.9564, 45835.61
729.4385, 45848.28
729.9206, 45877.16
730.4027, 45880.04
730.8848, 45874.35
731.3669, 45875.27
731.8491, 45887.76
732.3312, 45899.77
732.8133, 45924.08
733.2954, 45937.63
733.7775, 45911.95
734.2596, 45820.14
734.7418, 45789.38
735.2239, 45850.60
735.7060, 45938.93
736.1881, 45943.96
736.6702, 45880.22
737.1523, 45830.96
737.6345, 45833.18
738.1166, 45843.55
738.5987, 45794.38
739.0808, 45717.17
739.5629, 45686.34
740.0450, 45812.94
740.5272, 45909.25
741.0093, 45879.55
741.4914, 45738.61
741.9735, 45640.26
742.4556, 45600.90
742.9377, 45571.61
743.4199, 45527.86
743.9020, 45473.68
744.3841, 45457.55
744.8662, 45480.67
745.3483, 45518.69
745.8304, 45578.42
746.3126, 45631.36
746.7947, 45617.93
747.2768, 45529.68
747.7589, 45445.63
748.2410, 45408.61
748.7231, 45397.73
749.2053, 45398.46
749.6874, 45422.96
750.1695, 45429.45
750.6516, 45397.35
751.1337, 45366.14
751.6158, 45382.81
752.0980, 45453.74
752.5801, 45520.42
753.0622, 45576.01
753.5443, 45618.25
754.0264, 45613.70
754.5085, 45588.98
754.9907, 45628.64
755.4728, 45833.16
755.9549, 46020.21
756.4370, 46036.59
756.9191, 45936.55
757.4012, 45849.70
757.8834, 45837.66
758.3655, 45806.57
758.8476, 45716.42
759.3297, 45588.36
759.8118, 45528.87
760.2939, 45551.30
760.7761, 45592.96
761.2582, 45647.66
761.7403, 45696.88
762.2224, 45659.73
762.7045, 45544.40
763.1866, 45426.31
763.6688, 45319.79
764.1509, 45259.98
764.6330, 45307.60
765.1151, 45474.70
765.5972, 45593.91
766.0793, 45591.10
766.5615, 45544.30
767.0436, 45492.88
767.5257, 45426.54
768.0078, 45398.77
768.4899, 45419.55
768.9720, 45453.90
769.4542, 45459.34
769.9363, 45446.33
770.4184, 45473.14
770.9005, 45555.80
771.3826, 45639.95
771.8647, 45675.73
772.3469, 45680.53
772.8290, 45674.15
773.3111, 45620.41
773.7932, 45620.19
774.2753, 45762.28
774.7574, 45949.50
775.2396, 46037.08
775.7217, 45992.74
776.2038, 45927.71
776.6859, 45854.50
777.1680, 45776.54
777.6501, 45687.85
778.1323, 45595.34
778.6144, 45550.29
779.0965, 45595.95
779.5786, 45675.48
780.0607, 45749.74
780.5428, 45811.12
781.0250, 45834.26
781.5071, 45796.09
781.9892, 45734.16
782.4713, 45625.39
782.9534, 45492.74
783.4355, 45479.30
783.9177, 45640.91
784.3998, 45781.34
784.8819, 45809.05
785.3640, 45746.05
785.8461, 45667.25
786.3282, 45576.18
786.8104, 45538.34
787.2925, 45652.45
787.7746, 45810.02
788.2567, 45908.71
788.7388, 45939.61
789.2209, 45926.91
789.7031, 45822.69
790.1852, 45724.20
790.6673, 45696.17
791.1494, 45762.03
791.6315, 45781.49
792.1136, 45742.74
792.5958, 45688.84
793.0779, 45642.17
793.5600, 45608.93
794.0421, 45630.71
794.5242, 45715.61
795.0063, 45815.10
795.4885, 45912.28
795.9706, 45985.82
796.4527, 45998.04
796.9348, 45892.98
797.4169, 45837.82
797.8990, 45938.93
798.3812, 46068.93
798.8633, 46094.07
799.3454, 45973.64
799.8275, 45893.23
800.3096, 45876.58
800.7917, 45889.09
801.2739, 45881.80
801.7560, 45861.22
802.2381, 45850.46
802.7202, 45863.00
803.2023, 45875.08
803.6844, 45882.59
804.1666, 45873.73
804.6487, 45829.03
805.1308, 45651.45
805.6129, 45554.57
806.0950, 45595.61
806.5771, 45723.51
807.0593, 45845.19
807.5414, 45967.74
808.0235, 46034.55
808.5056, 46009.00
808.9877, 45944.70
809.4698, 45945.21
809.9520, 45996.07
810.4341, 46048.89
810.9162, 46088.70
811.3983, 46113.71
811.8804, 46099.38
812.3625, 46063.95
812.8447, 46080.00
813.3268, 46225.64
813.8089, 46333.56
814.2910, 46349.11
814.7731, 46294.17
815.2552, 46269.34
815.7374, 46275.53
816.2195, 46305.38
816.7016, 46375.33
817.1837, 46457.66
817.6658, 46509.74
818.1479, 46532.50
818.6301, 46533.79
819.1122, 46507.71
819.5943, 46470.43
820.0764, 46416.59
820.5585, 46346.80
821.0406, 46333.84
821.5228, 46404.61
822.0049, 46483.48
822.4870, 46543.48
822.9691, 46582.16
823.4512, 46558.64
823.9333, 46473.15
824.4155, 46413.60
824.8976, 46459.01
825.3796, 46554.67
825.8618, 46646.62
826.3439, 46731.64
826.8260, 46796.43
827.3081, 46870.54
827.7902, 46891.58
828.2723, 46805.98
828.7545, 46588.93
829.2366, 46480.00
829.7187, 46499.13
830.2008, 46564.59
830.6829, 46649.94
831.1650, 46730.00
831.6472, 46690.90
832.1293, 46523.76
832.6114, 46401.20
833.0935, 46505.92
833.5756, 46675.89
834.0577, 46780.75
834.5399, 46795.54
835.0220, 46764.29
835.5041, 46666.87
835.9862, 46557.70
836.4683, 46466.77
836.9504, 46393.07
837.4326, 46372.02
837.9147, 46411.55
838.3968, 46465.69
838.8789, 46499.80
839.3610, 46515.19
839.8431, 46494.19
840.3253, 46415.61
840.8074, 46406.91
841.2895, 46626.59
841.7716, 46878.23
842.2537, 46987.30
842.7358, 46880.80
843.2180, 46813.54
843.7001, 46794.45
844.1822, 46793.12
844.6643, 46789.60
845.1464, 46779.17
845.6285, 46723.70
846.1107, 46609.54
846.5928, 46517.35
847.0749, 46549.54
847.5570, 46627.58
848.0391, 46657.83
848.5212, 46585.75
849.0034, 46550.65
849.4855, 46570.92
849.9676, 46633.26
850.4497, 46746.57
850.9318, 46926.04
851.4139, 47013.19
851.8961, 46978.91
852.3782, 46917.75
852.8603, 46953.69
853.3424, 47035.07
853.8245, 47056.47
854.3066, 46966.52
854.7888, 46905.80
855.2709, 46992.56
855.7530, 47113.75
856.2351, 47146.64
856.7172, 47043.13
857.1993, 46952.86
857.6815, 46872.39
858.1636, 46820.23
858.6457, 46823.41
859.1278, 46875.73
859.6099, 46953.57
860.0920, 47061.52
860.5742, 47155.22
861.0563, 47212.34
861.5384, 47228.56
862.0205, 47193.27
862.5026, 47041.23
862.9847, 46956.63
863.4669, 46977.83
863.9490, 47044.11
864.4311, 47116.23
864.9132, 47198.64
865.3953, 47169.38
865.8774, 46990.17
866.3596, 46810.34
866.8417, 46830.45
867.3238, 46953.15
867.8059, 47014.22
868.2880, 46955.31
868.7701, 46898.08
869.2523, 46891.72
869.7344, 46907.91
870.2165, 46918.47
870.6986, 46923.96
871.1807, 46926.05
871.6628, 46927.77
872.1450, 46920.59
872.6271, 46890.27
873.1092, 46843.14
873.5913, 46796.15
874.0734, 46751.31
874.5555, 46710.16
875.0377, 46636.05
875.5198, 46586.54
876.0019, 46624.89
876.4840, 46851.88
876.9661, 46977.14
877.4482, 46966.17
877.9304, 46902.27
878.4125, 46850.94
878.8946, 46813.59
879.3767, 46817.19
879.8588, 46867.73
880.3409, 46929.76
880.8231, 46976.40
881.3052, 47014.63
881.7873, 47055.36
882.2694, 47108.44
882.7515, 47140.98
883.2336, 47158.35
883.7158, 47144.65
884.1979, 47076.11
884.6800, 46941.05
885.1621, 46836.69
885.6442, 46759.19
886.1263, 46743.85
886.6085, 46870.73
887.0906, 47060.52
887.5727, 47192.58
888.0548, 47248.86
888.5369, 47272.34
889.0190, 47265.91
889.5012, 47243.30
889.9833, 47210.24
890.4654, 47162.83
890.9475, 47131.25
891.4296, 47117.32
891.9117, 47112.53
892.3939, 47106.36
892.8760, 47105.39
893.3581, 47134.25
893.8402, 47194.27
894.3223, 47245.34
894.8044, 47271.43
895.2866, 47274.95
895.7687, 47242.96
896.2508, 47164.66
896.7329, 47149.18
897.2150, 47216.84
897.6971, 47304.92
898.1793, 47387.94
898.6614, 47462.55
899.1435, 47519.32
899.6256, 47556.48
900.1077, 47553.98
900.5898, 47435.37
901.0720, 47320.16
901.5541, 47326.75
902.0362, 47453.44
902.5183, 47526.06
903.0004, 47498.62
903.4825, 47458.97
903.9647, 47429.80
904.4468, 47414.27
904.9289, 47435.26
905.4110, 47491.30
905.8931, 47566.71
906.3752, 47683.45
906.8574, 47790.07
907.3395, 47830.06
907.8216, 47814.26
908.3037, 47788.49
908.7858, 47770.63
909.2679, 47737.04
909.7501, 47671.91
910.2322, 47590.39
910.7143, 47544.91
911.1964, 47536.41
911.6785, 47544.09
912.1606, 47569.39
912.6428, 47597.71
913.1249, 47623.84
913.6070, 47638.00
914.0891, 47615.64
914.5712, 47474.30
915.0533, 47387.10
915.5355, 47410.68
916.0176, 47503.88
916.4997, 47608.07
916.9818, 47729.30
917.4639, 47775.23
917.9460, 47696.63
918.4282, 47600.27
918.9103, 47643.65
919.3924, 47773.76
919.8745, 47893.60
920.3566, 47988.72
920.8387, 48041.12
921.3209, 48005.96
921.8030, 47946.43
922.2851, 47939.48
922.7672, 48002.63
923.2493, 48028.43
923.7314, 47999.59
924.2136, 47960.30
924.6957, 47949.17
925.1778, 47970.75
925.6599, 48048.74
926.1420, 48209.70
926.6241, 48333.56
927.1063, 48354.16
927.5884, 48324.86
928.0705, 48285.48
928.5526, 48225.54
929.0347, 48208.69
929.5168, 48247.07
929.9990, 48276.57
930.4811, 48221.60
930.9632, 48123.65
931.4453, 48056.76
931.9274, 48028.10
932.4095, 48050.35
932.8917, 48172.11
933.3738, 48312.42
933.8559, 48436.09
934.3380, 48543.08
934.8201, 48586.86
935.3022, 48552.34
935.7844, 48513.74
936.2665, 48520.15
936.7486, 48549.28
937.2307, 48543.79
937.7128, 48510.07
938.1949, 48482.88
938.6771, 48464.62
939.1592, 48471.24
939.6413, 48536.11
940.1234, 48635.17
940.6055, 48673.65
941.0876, 48637.71
941.5698, 48588.29
942.0519, 48532.16
942.5340, 48489.23
943.0161, 48530.52
943.4982, 48618.78
943.9803, 48652.10
944.4625, 48523.25
944.9446, 48405.45
945.4267, 48350.16
945.9088, 48359.54
946.3909, 48447.38
946.8730, 48658.85
947.3552, 48779.67
947.8373, 48768.98
948.3194, 48694.77
948.8015, 48627.45
949.2836, 48571.29
949.7657, 48527.45
950.2479, 48479.91
950.7300, 48501.07
951.2121, 48745.39
951.6942, 48990.94
952.1763, 49024.79
952.6584, 48752.38
953.1406, 48608.75
953.6227, 48611.23
954.1048, 48674.76
954.5869, 48767.58
955.0690, 48853.11
955.5511, 48834.03
956.0333, 48705.71
956.5154, 48617.28
956.9975, 48675.93
957.4796, 48761.99
957.9617, 48812.00
958.4438, 48826.36
958.9260, 48854.25
959.4081, 48904.38
959.8902, 48911.67
960.3723, 48795.67
960.8544, 48644.64
961.3365, 48615.76
961.8187, 48685.73
962.3008, 48770.77
962.7829, 48842.67
963.2650, 48916.29
963.7471, 49027.69
964.2292, 49134.74
964.7114, 49114.19
965.1935, 48944.49
965.6756, 48841.86
966.1577, 48872.21
966.6398, 48958.05
967.1219, 48998.89
967.6041, 49022.16
968.0862, 49081.64
968.5683, 49266.79
969.0504, 49361.44
969.5325, 49240.10
970.0146, 49081.82
970.4968, 49069.49
970.9789, 49212.91
971.4610, 49303.30
971.9431, 49322.88
972.4252, 49317.54
972.9073, 49327.97
973.3895, 49338.09
973.8716, 49319.19
974.3537, 49260.41
974.8358, 49241.69
975.3179, 49315.82
975.8000, 49380.62
976.2822, 49371.73
976.7643, 49304.69
977.2464, 49356.95
977.7285, 49518.13
978.2106, 49620.30
978.6927, 49504.13
979.1749, 49335.53
979.6570, 49240.95
980.1391, 49214.38
980.6212, 49221.14
981.1033, 49271.60
981.5854, 49329.57
982.0676, 49393.08
982.5497, 49455.88
983.0318, 49500.38
983.5139, 49530.69
983.9960, 49570.39
984.4781, 49639.81
984.9603, 49686.47
985.4424, 49631.56
985.9245, 49551.22
986.4066, 49550.79
986.8887, 49714.62
987.3708, 49766.42
987.8530, 49669.50
988.3351, 49547.21
988.8172, 49513.71
989.2993, 49549.82
989.7814, 49627.66
990.2635, 49745.41
990.7456, 49820.13
991.2277, 49784.98
991.7098, 49712.29
992.1920, 49620.90
992.6741, 49516.14
993.1562, 49521.39
993.6383, 49658.49
994.1204, 49779.27
994.6025, 49806.56
995.0847, 49776.97
995.5668, 49710.20
996.0489, 49636.00
996.5310, 49638.70
997.0131, 49873.54
997.4952, 50036.30
997.9774, 50012.05
998.4595, 49902.06
998.9416, 49881.69
999.4237, 49952.40
999.9058, 50018.83
1000.388, 50068.82
1000.870, 50089.52
1001.352, 50019.37
1001.834, 49936.09
1002.316, 49940.32
1002.799, 50090.48
1003.281, 50215.93
1003.763, 50304.75
1004.245, 50364.58
1004.727, 50402.52
1005.209, 50415.85
1005.691, 50381.42
1006.173, 50301.26
1006.655, 50222.99
1007.138, 50164.10
1007.620, 50129.95
1008.102, 50131.68
1008.584, 50165.88
1009.066, 50194.90
1009.548, 50205.05
1010.030, 50265.37
1010.512, 50437.99
1010.995, 50610.55
1011.477, 50507.55
1011.959, 50238.60
1012.441, 50085.14
1012.923, 50230.64
1013.405, 50359.17
1013.887, 50350.14
1014.369, 50271.36
1014.851, 50175.76
1015.334, 50051.59
1015.816, 49993.92
1016.298, 50006.30
1016.780, 50082.45
1017.262, 50282.31
1017.744, 50501.57
1018.226, 50613.14
1018.708, 50604.04
1019.190, 50567.64
1019.673, 50504.32
1020.155, 50439.11
1020.637, 50369.72
1021.119, 50308.22
1021.601, 50321.07
1022.083, 50398.01
1022.565, 50468.76
1023.047, 50509.13
1023.530, 50524.04
1024.012, 50505.57
1024.494, 50468.20
1024.976, 50438.83
1025.458, 50425.55
1025.940, 50398.53
1026.422, 50342.55
1026.904, 50309.50
1027.386, 50391.40
1027.869, 50535.88
1028.351, 50641.86
1028.833, 50696.75
1029.315, 50690.92
1029.797, 50520.59
1030.279, 50385.15
1030.761, 50403.91
1031.243, 50564.54
1031.726, 50669.88
1032.208, 50718.76
1032.690, 50724.82
1033.172, 50665.80
1033.654, 50592.54
1034.136, 50536.66
1034.618, 50507.22
1035.100, 50529.37
1035.583, 50651.61
1036.065, 50758.46
1036.547, 50840.56
1037.029, 50895.18
1037.511, 50918.89
1037.993, 50910.60
1038.475, 50850.88
1038.957, 50724.80
1039.439, 50627.46
1039.922, 50609.12
1040.404, 50647.70
1040.886, 50737.98
1041.368, 50880.48
1041.850, 51004.17
1042.332, 51111.08
1042.814, 51174.92
1043.296, 51127.63
1043.778, 51062.07
1044.261, 51158.24
1044.743, 51347.19
1045.225, 51423.79
1045.707, 51188.20
1046.189, 51019.63
1046.671, 51001.87
1047.153, 51048.86
1047.635, 51012.98
1048.118, 50913.47
1048.600, 50863.34
1049.082, 50889.57
1049.564, 50919.28
1050.046, 50885.02
1050.528, 50841.11
1051.010, 50836.75
1051.492, 50875.85
1051.974, 50923.85
1052.457, 50988.82
1052.939, 51019.47
1053.421, 50940.38
1053.903, 50834.91
1054.385, 50867.54
1054.867, 50998.55
1055.349, 51104.93
1055.831, 51164.87
1056.313, 51161.89
1056.796, 51084.73
1057.278, 50960.04
1057.760, 50780.85
1058.242, 50570.23
1058.724, 50554.90
1059.206, 50798.75
1059.688, 51039.32
1060.170, 51041.02
1060.653, 50974.21
1061.135, 50983.42
1061.617, 51084.39
1062.099, 51203.27
1062.581, 51355.87
1063.063, 51450.19
1063.545, 51404.04
1064.027, 51292.80
1064.510, 51239.93
1064.992, 51235.32
1065.474, 51253.09
1065.956, 51323.23
1066.438, 51362.73
1066.920, 51360.50
1067.402, 51324.13
1067.884, 51249.27
1068.366, 51143.85
1068.849, 51057.23
1069.331, 50992.58
1069.813, 50998.92
1070.295, 51210.61
1070.777, 51431.43
1071.259, 51493.80
1071.741, 51393.63
1072.223, 51314.44
1072.705, 51254.78
1073.188, 51226.68
1073.670, 51243.30
1074.152, 51285.80
1074.634, 51326.58
1075.116, 51369.81
1075.598, 51423.83
1076.080, 51507.17
1076.562, 51577.87
1077.044, 51639.08
1077.527, 51675.11
1078.009, 51653.80
1078.491, 51588.56
1078.973, 51554.61
1079.455, 51557.16
1079.937, 51584.23
1080.419, 51656.40
1080.901, 51725.48
1081.384, 51770.48
1081.866, 51790.26
1082.348, 51762.88
1082.830, 51682.68
1083.312, 51613.77
1083.794, 51576.58
1084.276, 51563.99
1084.758, 51557.78
1085.240, 51574.07
1085.723, 51643.32
1086.205, 51846.66
1086.687, 51942.94
1087.169, 51881.81
1087.651, 51798.64
1088.133, 51802.80
1088.615, 51870.24
1089.097, 51941.45
1089.579, 52010.30
1090.062, 52047.10
1090.544, 52003.99
1091.026, 51961.06
1091.508, 51963.71
1091.990, 51981.87
1092.472, 51923.92
1092.954, 51793.32
1093.436, 51760.52
1093.919, 51884.42
1094.401, 52019.77
1094.883, 52019.05
1095.365, 51972.10
1095.847, 51979.52
1096.329, 52070.47
1096.811, 52094.13
1097.293, 52031.20
1097.776, 51974.09
1098.258, 51975.34
1098.740, 52015.69
1099.222, 52078.20
1099.704, 52149.50
1100.186, 52194.09
1100.668, 52193.47
1101.150, 52163.70
1101.632, 52077.12
1102.115, 52001.04
1102.597, 52050.32
1103.079, 52192.20
1103.561, 52250.39
1104.043, 52205.17
1104.525, 52171.90
1105.007, 52277.41
1105.489, 52364.62
1105.971, 52302.52
1106.454, 52134.26
1106.936, 52108.68
1107.418, 52231.63
1107.900, 52327.23
1108.382, 52311.11
1108.864, 52291.63
1109.346, 52441.91
1109.828, 52635.25
1110.311, 52679.69
1110.793, 52436.91
1111.275, 52344.83
1111.757, 52445.82
1112.239, 52565.54
1112.721, 52564.77
1113.203, 52492.51
1113.685, 52427.97
1114.167, 52376.70
1114.650, 52349.65
1115.132, 52372.89
1115.614, 52391.90
1116.096, 52391.84
1116.578, 52384.25
1117.060, 52387.58
1117.542, 52400.50
1118.024, 52413.09
1118.506, 52420.08
1118.989, 52455.69
1119.471, 52615.97
1119.953, 52741.40
1120.435, 52716.16
1120.917, 52554.57
1121.399, 52417.28
1121.881, 52305.55
1122.363, 52244.64
1122.846, 52275.25
1123.328, 52320.66
1123.810, 52315.80
1124.292, 52277.38
1124.774, 52226.93
1125.256, 52146.77
1125.738, 52116.22
1126.220, 52144.45
1126.703, 52190.57
1127.185, 52238.36
1127.667, 52271.10
1128.149, 52243.46
1128.631, 52168.00
1129.113, 52128.81
1129.595, 52143.80
1130.077, 52217.81
1130.559, 52395.94
1131.042, 52568.27
1131.524, 52481.77
1132.006, 52233.25
1132.488, 52122.28
1132.970, 52224.77
1133.452, 52325.90
1133.934, 52332.37
1134.416, 52306.64
1134.898, 52265.32
1135.381, 52219.63
1135.863, 52268.64
1136.345, 52398.34
1136.827, 52495.04
1137.309, 52486.84
1137.791, 52459.03
1138.273, 52467.02
1138.755, 52485.00
1139.238, 52473.95
1139.720, 52421.37
1140.202, 52414.86
1140.684, 52460.29
1141.166, 52507.72
1141.648, 52490.91
1142.130, 52478.92
1142.612, 52567.13
1143.094, 52727.79
1143.577, 52800.77
1144.059, 52741.36
1144.541, 52710.70
1145.023, 52746.39
1145.505, 52795.82
1145.987, 52784.16
1146.469, 52740.38
1146.951, 52707.52
1147.433, 52694.11
1147.916, 52678.14
1148.398, 52637.80
1148.880, 52631.34
1149.362, 52701.82
1149.844, 52807.57
1150.326, 52829.70
1150.808, 52794.36
1151.290, 52773.56
1151.773, 52787.57
1152.255, 52831.19
1152.737, 52948.35
1153.219, 53045.39
1153.701, 53026.16
1154.183, 52907.31
1154.665, 52867.68
1155.147, 52898.44
1155.630, 52898.46
1156.112, 52749.60
1156.594, 52618.65
1157.076, 52615.43
1157.558, 52550.81
1158.040, 52543.02
1158.522, 52589.93
1159.004, 52598.29
1159.486, 52715.22
1159.969, 52820.82
1160.451, 52800.45
1160.933, 52743.26
1161.415, 52710.86
1161.897, 52706.86
1162.379, 52733.06
1162.861, 52793.07
1163.343, 52850.18
1163.825, 52891.43
1164.308, 52925.30
1164.790, 52958.28
1165.272, 52989.49
1165.754, 53017.15
1166.236, 53039.48
1166.718, 53060.98
1167.200, 53082.73
1167.682, 53095.40
1168.165, 53095.69
1168.647, 53081.46
1169.129, 53036.12
1169.611, 52975.93
1170.093, 52939.43
1170.575, 52938.16
1171.057, 52972.60
1171.539, 53065.04
1172.021, 53144.49
1172.504, 53132.88
1172.986, 53059.92
1173.468, 52958.95
1173.950, 52842.17
1174.432, 52789.14
1174.914, 52876.59
1175.396, 52965.89
1175.878, 53025.94
1176.360, 53077.91
1176.843, 53177.50
1177.325, 53297.47
1177.807, 53362.34
1178.289, 53353.76
1178.771, 53323.76
1179.253, 53269.37
1179.735, 53224.43
1180.217, 53194.08
1180.700, 53188.62
1181.182, 53287.43
1181.664, 53454.27
1182.146, 53517.61
1182.628, 53353.60
1183.110, 53216.68
1183.592, 53267.39
1184.074, 53360.18
1184.557, 53386.08
1185.039, 53348.02
1185.521, 53313.83
1186.003, 53286.70
1186.485, 53296.04
1186.967, 53414.20
1187.449, 53512.69
1187.931, 53498.06
1188.413, 53436.63
1188.896, 53422.34
1189.378, 53457.44
1189.860, 53475.68
1190.342, 53471.57
1190.824, 53464.00
1191.306, 53459.33
1191.788, 53462.10
1192.270, 53475.60
1192.752, 53498.80
1193.235, 53540.12
1193.717, 53605.29
1194.199, 53612.78
1194.681, 53541.46
1195.163, 53444.72
1195.645, 53318.65
1196.127, 53231.61
1196.609, 53278.80
1197.092, 53454.88
1197.574, 53551.96
1198.056, 53560.82
1198.538, 53580.07
1199.020, 53659.95
1199.502, 53729.98
1199.984, 53701.27
1200.466, 53621.65
1200.948, 53543.77
1201.431, 53466.29
1201.913, 53423.09
1202.395, 53415.53
1202.877, 53432.93
1203.359, 53473.74
1203.841, 53531.71
1204.323, 53624.55
1204.805, 53724.39
1205.287, 53769.30
1205.770, 53727.13
1206.252, 53704.76
1206.734, 53711.39
1207.216, 53712.71
1207.698, 53654.46
1208.180, 53592.43
1208.662, 53585.71
1209.144, 53637.34
1209.627, 53768.77
1210.109, 54082.45
1210.591, 54180.15
1211.073, 53962.63
1211.555, 53691.36
1212.037, 53674.66
1212.519, 53780.10
1213.001, 53839.54
1213.484, 53837.92
1213.966, 53805.09
1214.448, 53698.05
1214.930, 53699.46
1215.412, 53896.61
1215.894, 54126.20
1216.376, 54129.70
1216.858, 54010.84
1217.340, 53904.08
1217.823, 53826.58
1218.305, 53828.31
1218.787, 53944.67
1219.269, 54050.65
1219.751, 54104.55
1220.233, 54104.46
1220.715, 53991.43
1221.197, 53838.16
1221.679, 53783.92
1222.162, 53919.36
1222.644, 54000.21
1223.126, 53982.99
1223.608, 53996.51
1224.090, 54185.15
1224.572, 54411.32
1225.054, 54366.69
1225.536, 54155.36
1226.019, 54022.82
1226.501, 54165.55
1226.983, 54172.68
1227.465, 53971.96
1227.947, 53797.94
1228.429, 53922.63
1228.911, 54172.60
1229.393, 54235.55
1229.875, 54141.90
1230.358, 54054.33
1230.840, 53999.14
1231.322, 53981.59
1231.804, 54006.93
1232.286, 54058.00
1232.768, 54076.18
1233.250, 54247.48
1233.732, 54179.09
1234.214, 54273.15
1234.697, 54373.33
1235.179, 54305.39
1235.661, 54361.01
1236.143, 54337.14
1236.625, 54345.77
1237.107, 54289.50
1237.589, 54288.87
1238.071, 54287.77
1238.553, 54276.57
1239.036, 54299.38
1239.518, 54372.52
1240.000, 54433.15
1240.482, 54444.95
1240.964, 54461.63
1241.446, 54634.09
1241.928, 54843.12
1242.410, 54884.96
1242.893, 54660.47
1243.375, 54556.27
1243.857, 54624.70
1244.339, 54704.22
1244.821, 54714.64
1245.303, 54702.42
1245.785, 54745.50
1246.267, 54817.75
1246.750, 54876.70
1247.232, 54922.55
1247.714, 54913.60
1248.196, 54824.37
1248.678, 54777.10
1249.160, 54900.56
1249.642, 55069.84
1250.124, 55112.47
1250.606, 55068.83
1251.089, 55017.60
1251.571, 54939.12
1252.053, 54949.88
1252.535, 55075.22
1253.017, 55176.29
1253.499, 55115.12
1253.981, 54996.80
1254.463, 54948.97
1254.945, 54940.58
1255.428, 54858.71
1255.910, 54648.41
1256.392, 54566.73
1256.874, 54653.03
1257.356, 54747.72
1257.838, 54672.32
1258.320, 54566.45
1258.802, 54576.33
1259.285, 54677.17
1259.767, 54723.18
1260.249, 54698.61
1260.731, 54700.07
1261.213, 54744.77
1261.695, 54787.84
1262.177, 54766.44
1262.659, 54740.46
1263.141, 54765.37
1263.624, 54832.62
1264.106, 54894.85
1264.588, 54951.86
1265.070, 54998.52
1265.552, 55035.64
1266.034, 55048.95
1266.516, 54988.81
1266.998, 54933.29
1267.480, 54975.18
1267.963, 54918.76
1268.445, 54888.79
1268.927, 54913.89
1269.409, 54834.41
1269.891, 54897.42
1270.373, 54946.61
1270.855, 54844.29
1271.337, 54714.71
1271.820, 54643.60
1272.302, 54626.40
1272.784, 54635.03
1273.266, 54668.76
1273.748, 54720.91
1274.230, 54786.81
1274.712, 54873.83
1275.194, 55007.67
1275.677, 55141.80
1276.159, 55258.35
1276.641, 55347.63
1277.123, 55342.01
1277.605, 55263.52
1278.087, 55210.50
1278.569, 55219.17
1279.051, 55264.70
1279.533, 55366.45
1280.016, 55465.96
1280.498, 55520.39
1280.980, 55540.36
1281.462, 55568.01
1281.944, 55598.35
1282.426, 55613.14
1282.908, 55595.43
1283.390, 55579.33
1283.872, 55574.80
1284.355, 55562.99
1284.837, 55498.88
1285.319, 55429.20
1285.801, 55478.29
1286.283, 55610.33
1286.765, 55698.83
1287.247, 55666.72
1287.729, 55666.25
1288.212, 55710.36
1288.694, 55771.95
1289.176, 55868.38
1289.658, 55936.38
1290.140, 55841.96
1290.622, 55636.86
1291.104, 55549.43
1291.586, 55637.33
1292.068, 55703.01
1292.551, 55728.00
1293.033, 55721.41
1293.515, 55674.31
1293.997, 55615.53
1294.479, 55549.60
1294.961, 55498.48
1295.443, 55533.39
1295.925, 55667.61
1296.407, 55788.62
1296.890, 55883.62
1297.372, 55939.90
1297.854, 55934.59
1298.336, 55898.07
1298.818, 55810.44
1299.300, 55715.89
1299.782, 55756.28
1300.264, 55920.67
1300.747, 56021.07
1301.229, 56018.10
1301.711, 56027.71
1302.193, 56157.05
##END=



