##NAMES=Carnallite
##RRUFFID=R070291
##IDEAL CHEMISTRY=KMgCl_3_&#183;6H_2_O
##LOCALITY=Leopoldshall, Stassfurt, Stassfurt Deposit, Saxony-Anhalt, Germany
##OWNER=RRUFF
##SOURCE=Michael Scott
##DESCRIPTION=Pink to grey coarse grained, poorly consolidated, melted surface, associated with kainite R100021 and pentahydrite R100022.
##STATUS=The identification of this mineral has been confirmed by single-crystal X-ray diffraction.
##URL=rruff.info/R070291
167.7847, 1787.940
168.2668, 1803.329
168.7490, 1818.270
169.2311, 1834.226
169.7132, 1846.259
170.1953, 1849.397
170.6774, 1847.639
171.1595, 1847.227
171.6417, 1852.233
172.1238, 1859.904
172.6059, 1862.791
173.0880, 1858.326
173.5701, 1854.149
174.0522, 1853.220
174.5344, 1854.747
175.0165, 1857.953
175.4986, 1863.185
175.9807, 1869.418
176.4628, 1874.067
176.9449, 1877.415
177.4271, 1878.362
177.9092, 1873.755
178.3913, 1867.508
178.8734, 1865.226
179.3555, 1870.419
179.8376, 1880.610
180.3197, 1888.760
180.8019, 1894.930
181.2840, 1898.607
181.7661, 1896.192
182.2482, 1892.634
182.7303, 1895.008
183.2124, 1908.093
183.6946, 1927.097
184.1767, 1937.888
184.6588, 1935.791
185.1409, 1933.086
185.6230, 1934.483
186.1051, 1936.764
186.5873, 1934.986
187.0694, 1925.827
187.5515, 1914.233
188.0336, 1914.367
188.5157, 1935.157
188.9978, 1952.592
189.4800, 1959.854
189.9621, 1962.275
190.4442, 1965.669
190.9263, 1972.691
191.4084, 1981.086
191.8905, 1985.195
192.3727, 1982.660
192.8548, 1979.766
193.3369, 1977.733
193.8190, 1975.871
194.3011, 1973.143
194.7832, 1969.108
195.2654, 1964.952
195.7475, 1962.873
196.2296, 1961.471
196.7117, 1965.375
197.1938, 1981.909
197.6759, 1999.461
198.1581, 2005.979
198.6402, 1997.726
199.1223, 1983.498
199.6044, 1980.125
200.0865, 1994.054
200.5686, 2006.472
201.0508, 2014.152
201.5329, 2020.911
202.0150, 2031.249
202.4971, 2045.945
202.9792, 2059.622
203.4613, 2063.312
203.9435, 2053.383
204.4256, 2040.989
204.9077, 2018.467
205.3898, 1999.552
205.8719, 1996.769
206.3540, 2011.135
206.8362, 2030.628
207.3183, 2039.040
207.8004, 2033.021
208.2825, 2023.583
208.7646, 1998.970
209.2467, 1980.268
209.7289, 1986.641
210.2110, 2016.350
210.6931, 2047.460
211.1752, 2051.685
211.6573, 2017.856
212.1395, 1998.219
212.6216, 2005.949
213.1037, 2015.642
213.5858, 2011.598
214.0679, 1996.113
214.5500, 1984.193
215.0322, 1992.785
215.5143, 2026.473
215.9964, 2049.982
216.4785, 2058.972
216.9606, 2062.114
217.4427, 2059.852
217.9249, 2054.025
218.4070, 2047.910
218.8891, 2044.116
219.3712, 2042.679
219.8533, 2042.313
220.3354, 2043.682
220.8176, 2045.555
221.2997, 2047.179
221.7818, 2049.071
222.2639, 2052.430
222.7460, 2058.292
223.2281, 2066.386
223.7103, 2073.325
224.1924, 2080.767
224.6745, 2084.904
225.1566, 2084.587
225.6387, 2080.591
226.1208, 2073.103
226.6030, 2061.593
227.0851, 2048.181
227.5672, 2041.943
228.0493, 2047.473
228.5314, 2054.685
229.0135, 2063.664
229.4957, 2072.592
229.9778, 2079.390
230.4599, 2083.087
230.9420, 2084.634
231.4241, 2086.371
231.9062, 2088.676
232.3884, 2090.478
232.8705, 2092.858
233.3526, 2094.135
233.8347, 2092.131
234.3168, 2086.260
234.7989, 2079.005
235.2811, 2074.391
235.7632, 2072.343
236.2453, 2073.387
236.7274, 2079.784
237.2095, 2087.321
237.6916, 2094.279
238.1738, 2099.881
238.6559, 2102.889
239.1380, 2100.809
239.6201, 2091.603
240.1022, 2084.861
240.5843, 2082.041
241.0665, 2080.831
241.5486, 2081.448
242.0307, 2083.139
242.5128, 2083.575
242.9949, 2079.562
243.4770, 2070.455
243.9592, 2064.610
244.4413, 2064.225
244.9234, 2065.287
245.4055, 2067.149
245.8876, 2069.325
246.3697, 2070.895
246.8519, 2070.639
247.3340, 2069.002
247.8161, 2070.304
248.2982, 2078.195
248.7803, 2084.111
249.2624, 2083.482
249.7446, 2079.384
250.2267, 2077.172
250.7088, 2080.543
251.1909, 2086.737
251.6730, 2086.689
252.1551, 2075.161
252.6373, 2068.218
253.1194, 2076.160
253.6015, 2088.724
254.0836, 2094.141
254.5657, 2087.278
255.0478, 2075.254
255.5300, 2069.283
256.0121, 2070.624
256.4942, 2073.370
256.9763, 2076.793
257.4584, 2080.481
257.9406, 2083.913
258.4227, 2086.941
258.9048, 2090.693
259.3869, 2098.106
259.8690, 2109.567
260.3511, 2115.566
260.8333, 2111.039
261.3154, 2103.055
261.7975, 2095.028
262.2796, 2087.526
262.7617, 2083.500
263.2438, 2083.946
263.7260, 2071.726
264.2081, 2092.833
264.6902, 2104.680
265.1723, 2107.764
265.6544, 2075.843
266.1365, 2089.124
266.6187, 2084.290
267.1008, 2078.713
267.5829, 2098.357
268.0650, 2071.527
268.5471, 2090.771
269.0292, 2091.623
269.5114, 2100.892
269.9935, 2091.934
270.4756, 2088.606
270.9577, 2103.511
271.4398, 2088.299
271.9219, 2093.206
272.4041, 2103.623
272.8862, 2110.365
273.3683, 2105.455
273.8504, 2095.570
274.3325, 2094.602
274.8146, 2109.565
275.2968, 2121.833
275.7789, 2111.944
276.2610, 2086.729
276.7431, 2076.504
277.2252, 2097.658
277.7073, 2130.923
278.1895, 2143.607
278.6716, 2133.204
279.1537, 2120.163
279.6358, 2109.706
280.1179, 2101.821
280.6000, 2095.817
281.0822, 2091.139
281.5643, 2090.797
282.0464, 2101.443
282.5285, 2124.522
283.0106, 2139.299
283.4927, 2137.066
283.9749, 2129.576
284.4570, 2127.662
284.9391, 2131.999
285.4212, 2136.654
285.9033, 2136.626
286.3854, 2131.969
286.8676, 2129.198
287.3497, 2130.621
287.8318, 2131.516
288.3139, 2128.561
288.7960, 2123.104
289.2781, 2118.693
289.7603, 2117.156
290.2424, 2118.356
290.7245, 2121.923
291.2066, 2134.002
291.6887, 2140.763
292.1708, 2138.527
292.6530, 2130.401
293.1351, 2117.551
293.6172, 2100.663
294.0993, 2085.877
294.5814, 2085.144
295.0635, 2113.293
295.5457, 2127.213
296.0278, 2116.281
296.5099, 2099.868
296.9920, 2091.121
297.4741, 2091.583
297.9562, 2095.477
298.4384, 2096.853
298.9205, 2095.143
299.4026, 2094.896
299.8847, 2100.044
300.3668, 2102.706
300.8489, 2096.342
301.3311, 2085.370
301.8131, 2079.827
302.2953, 2087.386
302.7774, 2104.528
303.2595, 2112.665
303.7416, 2103.263
304.2237, 2097.230
304.7058, 2102.150
305.1880, 2110.856
305.6701, 2115.317
306.1522, 2112.484
306.6343, 2106.198
307.1164, 2102.695
307.5985, 2102.721
308.0807, 2102.810
308.5628, 2103.057
309.0449, 2102.684
309.5270, 2099.835
310.0091, 2094.862
310.4912, 2092.032
310.9734, 2096.236
311.4555, 2106.770
311.9376, 2116.072
312.4197, 2124.357
312.9018, 2130.053
313.3839, 2134.337
313.8661, 2135.904
314.3482, 2130.724
314.8303, 2109.165
315.3124, 2083.172
315.7945, 2076.543
316.2766, 2092.542
316.7588, 2108.815
317.2409, 2113.101
317.7230, 2109.973
318.2051, 2106.610
318.6872, 2102.740
319.1693, 2100.685
319.6515, 2104.307
320.1336, 2111.946
320.6157, 2116.111
321.0978, 2113.908
321.5799, 2107.655
322.0620, 2098.651
322.5442, 2084.881
323.0263, 2079.358
323.5084, 2092.672
323.9905, 2113.340
324.4726, 2127.985
324.9547, 2134.373
325.4369, 2132.683
325.9190, 2120.077
326.4011, 2095.021
326.8832, 2083.825
327.3653, 2100.477
327.8474, 2117.553
328.3296, 2118.290
328.8117, 2106.187
329.2938, 2093.511
329.7759, 2087.097
330.2580, 2086.165
330.7401, 2087.424
331.2223, 2094.374
331.7044, 2099.185
332.1865, 2098.433
332.6686, 2096.355
333.1507, 2098.547
333.6328, 2106.372
334.1150, 2115.288
334.5971, 2118.336
335.0792, 2113.161
335.5613, 2108.287
336.0434, 2103.626
336.5255, 2099.309
337.0077, 2094.820
337.4898, 2090.650
337.9719, 2087.862
338.4540, 2086.776
338.9361, 2087.761
339.4182, 2094.883
339.9004, 2114.437
340.3825, 2130.721
340.8646, 2138.900
341.3467, 2141.750
341.8288, 2143.099
342.3109, 2144.669
342.7931, 2143.950
343.2752, 2134.953
343.7573, 2115.747
344.2394, 2102.263
344.7215, 2104.643
345.2036, 2109.032
345.6858, 2102.159
346.1679, 2083.800
346.6500, 2068.515
347.1321, 2067.854
347.6142, 2077.227
348.0963, 2083.828
348.5785, 2085.757
349.0606, 2087.007
349.5427, 2090.891
350.0248, 2096.644
350.5069, 2102.066
350.9890, 2108.440
351.4712, 2113.048
351.9533, 2112.910
352.4354, 2108.712
352.9175, 2104.353
353.3996, 2102.216
353.8817, 2100.409
354.3639, 2093.008
354.8460, 2076.217
355.3281, 2063.030
355.8102, 2059.833
356.2923, 2060.188
356.7744, 2053.929
357.2566, 2039.599
357.7387, 2028.743
358.2208, 2035.970
358.7029, 2066.847
359.1850, 2084.538
359.6671, 2086.194
360.1493, 2079.734
360.6314, 2062.815
361.1135, 2040.773
361.5956, 2023.770
362.0777, 2018.029
362.5598, 2020.644
363.0420, 2020.633
363.5241, 2013.282
364.0062, 2011.161
364.4883, 2023.339
364.9704, 2036.063
365.4525, 2036.258
365.9347, 2021.848
366.4168, 2002.891
366.8989, 1989.904
367.3810, 1982.990
367.8631, 1978.862
368.3452, 1978.765
368.8274, 1980.001
369.3095, 1983.354
369.7916, 1986.913
370.2737, 1986.083
370.7558, 1977.098
371.2379, 1963.831
371.7201, 1950.484
372.2022, 1936.207
372.6843, 1930.790
373.1664, 1945.258
373.6485, 1966.995
374.1306, 1975.945
374.6128, 1968.147
375.0949, 1959.724
375.5770, 1960.521
376.0591, 1966.346
376.5412, 1968.367
377.0233, 1964.453
377.5055, 1959.427
377.9876, 1958.834
378.4697, 1963.311
378.9518, 1963.660
379.4339, 1956.890
379.9160, 1948.561
380.3982, 1940.923
380.8803, 1934.406
381.3624, 1929.843
381.8445, 1927.843
382.3266, 1927.525
382.8087, 1926.062
383.2909, 1915.275
383.7730, 1914.790
384.2551, 1939.977
384.7372, 1965.760
385.2193, 1967.348
385.7014, 1943.593
386.1836, 1916.126
386.6657, 1909.090
387.1478, 1924.035
387.6299, 1929.851
388.1120, 1917.315
388.5941, 1905.991
389.0763, 1903.537
389.5584, 1906.133
390.0405, 1907.589
390.5226, 1905.188
391.0047, 1900.762
391.4868, 1896.820
391.9690, 1893.327
392.4511, 1890.773
392.9332, 1889.336
393.4153, 1888.959
393.8974, 1891.088
394.3795, 1895.601
394.8617, 1896.003
395.3438, 1885.210
395.8259, 1869.625
396.3080, 1859.017
396.7901, 1854.209
397.2722, 1855.513
397.7544, 1866.484
398.2365, 1883.926
398.7186, 1891.533
399.2007, 1880.704
399.6828, 1869.867
400.1649, 1867.653
400.6471, 1869.761
401.1292, 1867.014
401.6113, 1856.331
402.0934, 1846.790
402.5755, 1853.412
403.0576, 1886.855
403.5398, 1903.316
404.0219, 1892.591
404.5040, 1877.030
404.9861, 1865.763
405.4682, 1859.336
405.9503, 1856.184
406.4325, 1855.645
406.9146, 1856.862
407.3967, 1856.759
407.8788, 1854.655
408.3609, 1852.606
408.8430, 1850.113
409.3252, 1848.392
409.8073, 1848.886
410.2894, 1851.663
410.7715, 1854.680
411.2536, 1857.257
411.7357, 1858.892
412.2179, 1856.118
412.7000, 1846.962
413.1821, 1837.617
413.6642, 1830.696
414.1463, 1826.765
414.6284, 1828.126
415.1106, 1837.701
415.5927, 1849.630
416.0748, 1861.577
416.5569, 1872.632
417.0390, 1880.051
417.5211, 1882.987
418.0033, 1881.396
418.4854, 1874.103
418.9675, 1858.050
419.4496, 1846.992
419.9317, 1843.833
420.4138, 1843.892
420.8960, 1845.662
421.3781, 1848.010
421.8602, 1848.717
422.3423, 1846.223
422.8244, 1841.244
423.3065, 1836.742
423.7887, 1831.201
424.2708, 1828.720
424.7529, 1833.105
425.2350, 1838.152
425.7171, 1836.761
426.1992, 1829.035
426.6814, 1823.524
427.1635, 1833.805
427.6456, 1857.355
428.1277, 1860.175
428.6098, 1829.768
429.0919, 1802.637
429.5741, 1803.304
430.0562, 1817.554
430.5383, 1824.075
431.0204, 1814.736
431.5025, 1803.506
431.9846, 1803.002
432.4668, 1810.396
432.9489, 1815.777
433.4310, 1816.698
433.9131, 1814.641
434.3952, 1810.521
434.8773, 1804.020
435.3595, 1799.312
435.8416, 1796.701
436.3237, 1795.895
436.8058, 1798.474
437.2879, 1802.729
437.7701, 1804.577
438.2522, 1801.858
438.7343, 1786.338
439.2164, 1796.678
439.6985, 1802.001
440.1806, 1802.578
440.6628, 1784.193
441.1449, 1790.294
441.6270, 1786.582
442.1091, 1782.468
442.5912, 1792.015
443.0733, 1776.388
443.5555, 1785.718
444.0376, 1785.086
444.5197, 1789.013
445.0018, 1783.067
445.4839, 1780.171
445.9660, 1787.151
446.4482, 1788.662
446.9303, 1781.580
447.4124, 1785.797
447.8945, 1769.825
448.3766, 1771.570
448.8587, 1780.957
449.3409, 1774.371
449.8230, 1778.769
450.3051, 1778.983
450.7872, 1760.187
451.2693, 1775.898
451.7514, 1789.952
452.2336, 1796.007
452.7157, 1781.287
453.1978, 1758.679
453.6799, 1746.750
454.1620, 1750.607
454.6441, 1761.552
455.1263, 1769.118
455.6084, 1773.428
456.0905, 1773.624
456.5726, 1765.449
457.0547, 1757.353
457.5368, 1751.587
458.0190, 1747.647
458.5011, 1744.232
458.9832, 1740.609
459.4653, 1738.222
459.9474, 1741.097
460.4295, 1749.385
460.9117, 1751.531
461.3938, 1742.590
461.8759, 1730.537
462.3580, 1718.887
462.8401, 1708.877
463.3222, 1708.756
463.8044, 1731.989
464.2865, 1757.239
464.7686, 1763.436
465.2507, 1754.383
465.7328, 1746.494
466.2149, 1747.097
466.6971, 1751.794
467.1792, 1751.835
467.6613, 1742.848
468.1434, 1738.512
468.6255, 1745.535
469.1076, 1751.315
469.5898, 1744.814
470.0719, 1729.869
470.5540, 1718.986
471.0361, 1720.495
471.5182, 1730.054
472.0003, 1735.276
472.4825, 1735.429
472.9646, 1733.115
473.4467, 1726.799
473.9288, 1719.598
474.4109, 1712.323
474.8930, 1705.517
475.3752, 1701.759
475.8573, 1704.542
476.3394, 1710.510
476.8215, 1714.700
477.3036, 1716.982
477.7857, 1716.058
478.2679, 1710.243
478.7500, 1701.653
479.2321, 1695.186
479.7142, 1690.653
480.1963, 1688.241
480.6784, 1689.625
481.1606, 1692.052
481.6427, 1692.278
482.1248, 1690.682
482.6069, 1690.978
483.0890, 1696.497
483.5711, 1705.635
484.0533, 1709.262
484.5354, 1702.930
485.0175, 1698.289
485.4996, 1699.105
485.9817, 1700.593
486.4638, 1697.580
486.9460, 1690.270
487.4281, 1684.989
487.9102, 1689.677
488.3923, 1700.057
488.8744, 1701.419
489.3565, 1691.716
489.8387, 1684.611
490.3208, 1690.091
490.8029, 1700.855
491.2850, 1700.906
491.7671, 1685.583
492.2492, 1673.213
492.7314, 1672.004
493.2135, 1675.893
493.6956, 1678.733
494.1777, 1679.651
494.6598, 1679.750
495.1419, 1679.748
495.6241, 1679.719
496.1062, 1680.188
496.5883, 1681.975
497.0704, 1683.089
497.5525, 1682.152
498.0346, 1681.310
498.5168, 1683.571
498.9989, 1688.489
499.4810, 1691.513
499.9631, 1688.410
500.4452, 1680.426
500.9273, 1671.168
501.4095, 1659.380
501.8916, 1651.956
502.3737, 1655.800
502.8558, 1663.459
503.3379, 1660.993
503.8200, 1643.764
504.3022, 1635.210
504.7843, 1655.935
505.2664, 1683.185
505.7485, 1687.228
506.2306, 1668.518
506.7127, 1649.390
507.1949, 1644.690
507.6770, 1651.479
508.1591, 1657.123
508.6412, 1664.399
509.1233, 1666.091
509.6054, 1654.149
510.0876, 1642.658
510.5697, 1645.420
511.0518, 1660.047
511.5339, 1671.030
512.0161, 1665.899
512.4982, 1649.997
512.9803, 1636.475
513.4624, 1624.934
513.9445, 1619.128
514.4266, 1623.374
514.9088, 1631.588
515.3909, 1635.349
515.8730, 1634.238
516.3551, 1634.383
516.8372, 1640.012
517.3193, 1645.964
517.8015, 1647.978
518.2836, 1645.965
518.7657, 1640.027
519.2478, 1629.608
519.7299, 1618.139
520.2120, 1614.172
520.6942, 1623.022
521.1763, 1629.333
521.6584, 1632.481
522.1405, 1633.997
522.6226, 1633.574
523.1047, 1632.217
523.5869, 1632.501
524.0690, 1636.795
524.5511, 1641.145
525.0332, 1637.771
525.5153, 1626.734
525.9974, 1617.820
526.4796, 1613.654
526.9617, 1611.787
527.4438, 1610.011
527.9259, 1608.338
528.4080, 1607.107
528.8901, 1606.350
529.3723, 1606.067
529.8544, 1607.630
530.3365, 1609.411
530.8186, 1606.571
531.3007, 1597.708
531.7828, 1590.101
532.2650, 1595.697
532.7471, 1618.688
533.2292, 1628.717
533.7113, 1613.977
534.1934, 1599.376
534.6755, 1591.512
535.1577, 1588.641
535.6398, 1588.047
536.1219, 1588.958
536.6040, 1592.070
537.0861, 1601.977
537.5682, 1614.748
538.0504, 1615.534
538.5325, 1601.227
539.0146, 1585.431
539.4967, 1577.071
539.9788, 1575.284
540.4609, 1575.550
540.9431, 1579.781
541.4252, 1583.209
541.9073, 1586.277
542.3894, 1587.220
542.8715, 1581.971
543.3536, 1571.885
543.8358, 1564.726
544.3179, 1567.499
544.8000, 1577.368
545.2821, 1581.492
545.7642, 1577.606
546.2463, 1574.208
546.7285, 1575.443
547.2106, 1576.386
547.6927, 1570.095
548.1748, 1557.740
548.6569, 1553.135
549.1390, 1569.219
549.6211, 1591.219
550.1032, 1605.538
550.5853, 1611.843
551.0674, 1608.842
551.5496, 1595.014
552.0317, 1576.638
552.5138, 1563.654
552.9959, 1557.123
553.4780, 1552.512
553.9601, 1549.846
554.4423, 1548.746
554.9244, 1550.425
555.4065, 1553.144
555.8886, 1553.828
556.3707, 1551.275
556.8528, 1548.681
557.3350, 1551.181
557.8171, 1557.814
558.2992, 1560.251
558.7813, 1556.717
559.2634, 1552.148
559.7455, 1549.252
560.2277, 1547.898
560.7098, 1547.364
561.1919, 1547.714
561.6740, 1548.752
562.1561, 1553.157
562.6382, 1556.550
563.1204, 1552.128
563.6025, 1540.948
564.0846, 1531.680
564.5667, 1530.984
565.0488, 1536.385
565.5309, 1537.481
566.0131, 1530.984
566.4952, 1528.504
566.9773, 1536.569
567.4594, 1545.659
567.9415, 1550.451
568.4236, 1551.011
568.9058, 1549.194
569.3879, 1544.076
569.8700, 1538.441
570.3521, 1535.012
570.8342, 1533.416
571.3163, 1532.036
571.7985, 1530.244
572.2806, 1530.118
572.7627, 1534.963
573.2448, 1545.921
573.7269, 1551.090
574.2090, 1545.944
574.6912, 1540.780
575.1733, 1538.693
575.6554, 1537.638
576.1375, 1534.675
576.6196, 1529.372
577.1017, 1524.692
577.5839, 1524.271
578.0660, 1526.609
578.5481, 1525.999
579.0302, 1521.877
579.5123, 1519.387
579.9944, 1521.996
580.4766, 1526.617
580.9587, 1526.677
581.4408, 1520.766
581.9229, 1517.082
582.4050, 1518.261
582.8871, 1520.642
583.3693, 1521.190
583.8514, 1521.072
584.3335, 1524.131
584.8156, 1532.158
585.2977, 1540.634
585.7798, 1542.016
586.2620, 1535.740
586.7441, 1528.859
587.2262, 1521.923
587.7083, 1513.922
588.1904, 1500.325
588.6725, 1486.299
589.1547, 1481.909
589.6368, 1492.862
590.1189, 1501.761
590.6010, 1495.041
591.0831, 1484.377
591.5652, 1487.738
592.0474, 1504.018
592.5295, 1516.444
593.0116, 1513.428
593.4937, 1499.989
593.9758, 1492.107
594.4579, 1494.369
594.9401, 1491.360
595.4222, 1474.332
595.9043, 1458.622
596.3864, 1451.593
596.8685, 1452.074
597.3506, 1456.582
597.8328, 1465.360
598.3149, 1474.763
598.7970, 1480.362
599.2791, 1484.139
599.7612, 1493.706
600.2433, 1510.604
600.7255, 1522.128
601.2076, 1515.819
601.6897, 1494.657
602.1718, 1483.039
602.6539, 1490.421
603.1360, 1494.715
603.6182, 1493.790
604.1003, 1489.638
604.5824, 1480.773
605.0645, 1469.536
605.5466, 1463.801
606.0287, 1470.931
606.5109, 1482.076
606.9930, 1481.309
607.4751, 1470.747
607.9572, 1469.533
608.4393, 1485.214
608.9214, 1499.972
609.4036, 1493.649
609.8857, 1466.125
610.3678, 1450.648
610.8499, 1454.255
611.3320, 1459.780
611.8141, 1466.547
612.2963, 1471.304
612.7784, 1469.750
613.2605, 1462.319
613.7426, 1453.963
614.2247, 1447.467
614.7068, 1443.482
615.1890, 1444.210
615.6711, 1449.818
616.1532, 1457.041
616.6353, 1466.468
617.1174, 1474.404
617.5995, 1475.940
618.0817, 1470.914
618.5638, 1466.557
619.0459, 1462.659
619.5280, 1460.031
620.0101, 1460.767
620.4922, 1462.068
620.9744, 1458.797
621.4565, 1451.044
621.9386, 1445.920
622.4207, 1451.108
622.9028, 1463.494
623.3849, 1471.821
623.8671, 1476.549
624.3492, 1473.162
624.8313, 1452.787
625.3134, 1432.247
625.7955, 1437.049
626.2776, 1465.458
626.7598, 1482.135
627.2419, 1472.250
627.7240, 1460.323
628.2061, 1460.457
628.6882, 1465.627
629.1703, 1463.949
629.6525, 1453.391
630.1346, 1442.450
630.6167, 1440.278
631.0988, 1444.754
631.5809, 1442.306
632.0630, 1429.415
632.5452, 1423.968
633.0273, 1437.760
633.5094, 1455.127
633.9915, 1458.130
634.4736, 1447.530
634.9557, 1436.010
635.4379, 1422.202
635.9200, 1412.193
636.4021, 1413.521
636.8842, 1419.382
637.3663, 1417.225
637.8484, 1405.149
638.3306, 1394.369
638.8127, 1397.090
639.2948, 1410.664
639.7769, 1418.795
640.2590, 1420.453
640.7411, 1420.225
641.2233, 1417.731
641.7054, 1415.474
642.1875, 1418.017
642.6696, 1424.609
643.1517, 1425.075
643.6339, 1409.909
644.1160, 1396.024
644.5981, 1393.482
645.0802, 1397.911
645.5623, 1403.711
646.0444, 1409.037
646.5266, 1412.788
647.0087, 1413.560
647.4908, 1412.104
647.9729, 1412.533
648.4550, 1416.052
648.9371, 1416.120
649.4193, 1406.811
649.9014, 1398.149
650.3835, 1403.514
650.8656, 1420.088
651.3477, 1427.401
651.8298, 1415.591
652.3120, 1401.170
652.7941, 1389.462
653.2762, 1380.892
653.7583, 1376.683
654.2404, 1376.478
654.7225, 1377.605
655.2047, 1377.801
655.6868, 1377.828
656.1689, 1380.536
656.6510, 1386.401
657.1331, 1392.204
657.6152, 1398.088
658.0974, 1402.530
658.5795, 1403.171
659.0616, 1400.901
659.5437, 1399.614
660.0258, 1402.711
660.5079, 1403.043
660.9901, 1394.934
661.4722, 1384.935
661.9543, 1380.782
662.4364, 1382.128
662.9185, 1382.543
663.4006, 1377.213
663.8828, 1369.932
664.3649, 1370.220
664.8470, 1378.430
665.3291, 1381.957
665.8112, 1376.726
666.2933, 1371.786
666.7755, 1375.235
667.2576, 1384.577
667.7397, 1388.770
668.2218, 1385.573
668.7039, 1380.946
669.1860, 1375.622
669.6682, 1369.629
670.1503, 1360.529
670.6324, 1350.794
671.1145, 1347.757
671.5966, 1355.823
672.0787, 1366.072
672.5609, 1364.038
673.0430, 1351.884
673.5251, 1345.903
674.0072, 1348.581
674.4893, 1351.437
674.9714, 1348.273
675.4536, 1342.803
675.9357, 1345.356
676.4178, 1363.047
676.8999, 1373.134
677.3820, 1370.973
677.8641, 1365.231
678.3463, 1357.147
678.8284, 1349.696
679.3105, 1348.590
679.7926, 1355.627
680.2747, 1361.377
680.7568, 1352.938
681.2390, 1337.613
681.7211, 1334.365
682.2032, 1343.336
682.6853, 1352.041
683.1674, 1355.068
683.6495, 1355.654
684.1317, 1360.004
684.6138, 1371.145
685.0959, 1369.837
685.5780, 1340.421
686.0601, 1317.245
686.5422, 1310.879
687.0244, 1313.345
687.5065, 1316.095
687.9886, 1318.179
688.4707, 1324.270
688.9528, 1342.912
689.4349, 1362.411
689.9171, 1368.147
690.3992, 1363.628
690.8813, 1359.692
691.3634, 1359.248
691.8455, 1356.972
692.3276, 1346.387
692.8098, 1329.263
693.2919, 1322.113
693.7740, 1329.709
694.2561, 1336.698
694.7382, 1338.022
695.2203, 1339.994
695.7025, 1350.739
696.1846, 1366.413
696.6667, 1372.281
697.1488, 1359.690
697.6309, 1344.117
698.1130, 1331.661
698.5952, 1322.103
699.0773, 1314.996
699.5594, 1310.455
700.0415, 1309.512
700.5236, 1313.059
701.0057, 1319.181
701.4879, 1323.643
701.9700, 1326.283
702.4521, 1332.271
702.9342, 1345.886
703.4163, 1352.474
703.8984, 1337.028
704.3806, 1311.146
704.8627, 1304.053
705.3448, 1324.259
705.8269, 1337.380
706.3090, 1337.238
706.7911, 1330.307
707.2733, 1314.114
707.7554, 1295.964
708.2375, 1288.660
708.7196, 1295.570
709.2017, 1304.841
709.6838, 1303.716
710.1660, 1296.783
710.6481, 1297.743
711.1302, 1306.023
711.6123, 1307.385
712.0944, 1295.265
712.5765, 1280.874
713.0587, 1278.583
713.5408, 1289.078
714.0229, 1297.048
714.5050, 1299.120
714.9871, 1303.238
715.4692, 1317.854
715.9514, 1329.329
716.4335, 1321.584
716.9156, 1299.011
717.3977, 1284.824
717.8798, 1295.131
718.3619, 1307.149
718.8441, 1299.660
719.3262, 1282.751
719.8083, 1273.100
720.2904, 1272.806
720.7725, 1276.590
721.2546, 1281.287
721.7368, 1286.238
722.2189, 1289.835
722.7010, 1291.966
723.1831, 1293.393
723.6652, 1293.606
724.1473, 1294.301
724.6295, 1297.812
725.1116, 1301.865
725.5937, 1301.724
726.0758, 1296.232
726.5579, 1290.514
727.0400, 1284.232
727.5222, 1279.235
728.0043, 1277.108
728.4864, 1276.800
728.9685, 1277.161
729.4506, 1277.648
729.9327, 1276.891
730.4149, 1271.294
730.8970, 1264.535
731.3791, 1266.894
731.8612, 1277.203
732.3433, 1284.117
732.8254, 1284.133
733.3076, 1281.431
733.7897, 1280.420
734.2718, 1280.770
734.7539, 1277.869
735.2360, 1268.372
735.7181, 1261.197
736.2003, 1259.178
736.6824, 1257.952
737.1645, 1252.403
737.6466, 1245.552
738.1287, 1246.673
738.6108, 1262.433
739.0930, 1276.154
739.5751, 1275.871
740.0572, 1270.279
740.5393, 1269.585
741.0214, 1273.139
741.5035, 1275.395
741.9857, 1273.744
742.4678, 1270.006
742.9499, 1266.038
743.4320, 1261.998
743.9141, 1260.281
744.3962, 1261.307
744.8784, 1262.677
745.3605, 1264.104
745.8426, 1264.448
746.3247, 1261.609
746.8068, 1254.992
747.2889, 1250.797
747.7711, 1249.252
748.2532, 1249.632
748.7353, 1253.386
749.2174, 1257.783
749.6995, 1259.936
750.1816, 1260.292
750.6638, 1261.991
751.1459, 1267.868
751.6280, 1272.988
752.1101, 1272.555
752.5922, 1268.217
753.0743, 1262.615
753.5565, 1256.252
754.0386, 1248.767
754.5207, 1239.670
755.0028, 1231.523
755.4849, 1229.922
755.9670, 1235.600
756.4492, 1241.866
756.9313, 1250.802
757.4134, 1254.386
757.8955, 1245.041
758.3776, 1231.492
758.8597, 1228.455
759.3419, 1237.219
759.8240, 1241.179
760.3061, 1233.939
760.7882, 1227.761
761.2703, 1227.709
761.7524, 1230.725
762.2346, 1234.952
762.7167, 1239.084
763.1988, 1239.820
763.6809, 1233.493
764.1630, 1226.188
764.6451, 1226.674
765.1273, 1231.338
765.6094, 1229.135
766.0915, 1219.639
766.5736, 1215.208
767.0557, 1224.349
767.5378, 1239.136
768.0200, 1240.349
768.5021, 1224.036
768.9842, 1218.900
769.4663, 1230.483
769.9484, 1242.381
770.4305, 1248.891
770.9127, 1250.904
771.3948, 1249.037
771.8769, 1243.013
772.3590, 1237.388
772.8411, 1231.991
773.3232, 1227.934
773.8054, 1227.580
774.2875, 1227.500
774.7696, 1221.912
775.2517, 1212.357
775.7338, 1208.156
776.2159, 1216.865
776.6981, 1227.776
777.1802, 1228.408
777.6623, 1222.191
778.1444, 1215.665
778.6265, 1210.143
779.1086, 1208.210
779.5908, 1211.701
780.0729, 1216.918
780.5550, 1216.092
781.0371, 1208.167
781.5192, 1204.748
782.0013, 1206.101
782.4835, 1211.818
782.9656, 1226.847
783.4477, 1241.330
783.9298, 1239.452
784.4119, 1220.677
784.8940, 1211.167
785.3762, 1224.157
785.8583, 1230.813
786.3404, 1214.501
786.8225, 1195.734
787.3046, 1193.251
787.7867, 1204.756
788.2689, 1217.658
788.7510, 1228.734
789.2331, 1233.132
789.7152, 1222.215
790.1973, 1204.358
790.6794, 1190.954
791.1616, 1183.321
791.6437, 1182.251
792.1258, 1188.080
792.6079, 1195.877
793.0900, 1199.233
793.5721, 1198.442
794.0543, 1195.842
794.5364, 1190.896
795.0185, 1187.585
795.5006, 1187.492
795.9827, 1188.401
796.4648, 1187.841
796.9470, 1186.140
797.4291, 1186.861
797.9112, 1196.356
798.3933, 1199.043
798.8754, 1187.282
799.3575, 1175.441
799.8397, 1170.720
800.3218, 1172.163
800.8039, 1178.809
801.2860, 1191.895
801.7681, 1199.648
802.2502, 1189.411
802.7324, 1177.209
803.2145, 1180.440
803.6966, 1191.806
804.1787, 1195.300
804.6608, 1187.735
805.1429, 1179.274
805.6251, 1178.297
806.1072, 1182.310
806.5893, 1186.980
807.0714, 1192.052
807.5535, 1195.712
808.0356, 1197.714
808.5178, 1197.148
808.9999, 1193.179
809.4820, 1186.692
809.9641, 1179.036
810.4462, 1167.333
810.9283, 1165.607
811.4105, 1181.314
811.8926, 1194.875
812.3747, 1198.401
812.8568, 1196.164
813.3389, 1192.220
813.8210, 1186.664
814.3032, 1181.136
814.7853, 1174.863
815.2674, 1169.965
815.7495, 1167.091
816.2316, 1165.967
816.7137, 1169.931
817.1959, 1175.315
817.6780, 1169.873
818.1601, 1145.110
818.6422, 1124.659
819.1243, 1134.653
819.6064, 1158.318
820.0886, 1171.318
820.5707, 1173.805
821.0528, 1171.765
821.5349, 1167.621
822.0170, 1164.085
822.4991, 1163.920
822.9813, 1166.952
823.4634, 1174.909
823.9455, 1188.544
824.4276, 1190.548
824.9097, 1174.405
825.3918, 1157.892
825.8740, 1154.699
826.3561, 1161.159
826.8382, 1165.340
827.3203, 1168.551
827.8024, 1166.340
828.2845, 1152.397
828.7667, 1140.782
829.2488, 1134.509
829.7309, 1134.382
830.2130, 1145.710
830.6951, 1168.414
831.1772, 1179.638
831.6594, 1163.994
832.1415, 1147.958
832.6236, 1142.250
833.1057, 1142.229
833.5878, 1144.883
834.0699, 1148.496
834.5521, 1150.423
835.0342, 1149.437
835.5163, 1146.795
835.9984, 1143.191
836.4805, 1138.932
836.9626, 1133.052
837.4448, 1126.864
837.9269, 1125.841
838.4090, 1131.532
838.8911, 1138.094
839.3732, 1139.549
839.8553, 1136.781
840.3375, 1131.044
840.8196, 1122.136
841.3017, 1122.616
841.7838, 1136.896
842.2659, 1149.918
842.7480, 1151.389
843.2302, 1144.730
843.7123, 1138.040
844.1944, 1129.929
844.6765, 1126.623
845.1586, 1131.392
845.6407, 1136.086
846.1229, 1138.045
846.6050, 1138.641
847.0871, 1139.750
847.5692, 1141.122
848.0513, 1139.519
848.5334, 1128.217
849.0156, 1122.396
849.4977, 1134.662
849.9798, 1146.340
850.4619, 1139.202
850.9440, 1120.765
851.4261, 1108.951
851.9083, 1109.302
852.3904, 1114.629
852.8725, 1125.540
853.3546, 1134.579
853.8367, 1129.296
854.3188, 1117.437
854.8010, 1117.577
855.2831, 1131.274
855.7652, 1141.565
856.2473, 1134.886
856.7294, 1121.081
857.2115, 1117.475
857.6937, 1122.039
858.1758, 1126.978
858.6579, 1131.337
859.1400, 1131.346
859.6221, 1124.784
860.1042, 1116.264
860.5864, 1111.685
861.0685, 1111.141
861.5506, 1118.514
862.0327, 1138.319
862.5148, 1147.404
862.9969, 1136.138
863.4791, 1121.840
863.9612, 1117.527
864.4433, 1121.096
864.9254, 1125.211
865.4075, 1131.553
865.8896, 1134.925
866.3718, 1133.506
866.8539, 1131.439
867.3360, 1130.128
867.8181, 1128.941
868.3002, 1126.275
868.7823, 1122.391
869.2645, 1121.506
869.7466, 1127.667
870.2287, 1133.155
870.7108, 1135.868
871.1929, 1135.938
871.6750, 1133.468
872.1572, 1128.476
872.6393, 1119.064
873.1214, 1104.205
873.6035, 1094.447
874.0856, 1103.306
874.5677, 1116.307
875.0499, 1115.690
875.5320, 1106.959
876.0141, 1102.640
876.4962, 1104.616
876.9783, 1106.594
877.4604, 1104.308
877.9426, 1099.875
878.4247, 1094.825
878.9068, 1090.563
879.3889, 1094.299
879.8710, 1105.620
880.3531, 1113.995
880.8353, 1115.012
881.3174, 1113.565
881.7995, 1115.510
882.2816, 1120.121
882.7637, 1123.466
883.2458, 1125.993
883.7280, 1122.917
884.2101, 1111.586
884.6922, 1100.667
885.1743, 1095.444
885.6564, 1094.762
886.1385, 1096.612
886.6207, 1102.206
887.1028, 1104.606
887.5849, 1099.980
888.0670, 1098.370
888.5491, 1104.229
889.0313, 1112.535
889.5134, 1122.031
889.9955, 1130.841
890.4776, 1129.879
890.9597, 1107.599
891.4418, 1095.392
891.9240, 1108.809
892.4061, 1120.963
892.8882, 1113.874
893.3703, 1098.904
893.8524, 1092.376
894.3345, 1096.081
894.8167, 1100.364
895.2988, 1101.248
895.7809, 1101.899
896.2630, 1104.894
896.7451, 1107.833
897.2272, 1108.865
897.7094, 1107.512
898.1915, 1101.754
898.6736, 1090.798
899.1557, 1083.673
899.6378, 1092.960
900.1199, 1105.836
900.6021, 1105.053
901.0842, 1095.926
901.5663, 1089.020
902.0484, 1086.757
902.5305, 1089.384
903.0126, 1097.885
903.4948, 1106.089
903.9769, 1102.177
904.4590, 1090.963
904.9411, 1089.036
905.4232, 1095.641
905.9053, 1099.427
906.3875, 1096.700
906.8696, 1091.209
907.3517, 1085.732
907.8338, 1081.659
908.3159, 1085.455
908.7980, 1097.215
909.2802, 1101.790
909.7623, 1096.774
910.2444, 1090.814
910.7265, 1087.950
911.2086, 1086.678
911.6907, 1084.868
912.1729, 1082.533
912.6550, 1080.469
913.1371, 1078.248
913.6192, 1077.754
914.1013, 1079.989
914.5834, 1082.806
915.0656, 1085.326
915.5477, 1087.154
916.0298, 1087.608
916.5119, 1087.270
916.9940, 1083.172
917.4761, 1067.935
917.9583, 1059.416
918.4404, 1067.366
918.9225, 1078.655
919.4046, 1085.244
919.8867, 1086.667
920.3688, 1080.664
920.8510, 1057.784
921.3331, 1048.193
921.8152, 1070.140
922.2973, 1090.153
922.7794, 1090.947
923.2615, 1082.687
923.7437, 1076.203
924.2258, 1072.829
924.7079, 1071.483
925.1900, 1071.844
925.6721, 1074.147
926.1542, 1081.783
926.6364, 1088.306
927.1185, 1088.203
927.6006, 1083.374
928.0827, 1076.326
928.5648, 1068.158
929.0469, 1062.885
929.5291, 1066.275
930.0112, 1069.292
930.4933, 1062.722
930.9754, 1053.548
931.4575, 1049.722
931.9396, 1051.432
932.4218, 1057.479
932.9039, 1067.280
933.3860, 1074.899
933.8681, 1073.297
934.3502, 1068.189
934.8323, 1067.011
935.3145, 1067.967
935.7966, 1066.401
936.2787, 1062.649
936.7608, 1062.291
937.2429, 1068.540
937.7250, 1075.057
938.2072, 1073.953
938.6893, 1067.424
939.1714, 1057.512
939.6535, 1046.603
940.1356, 1044.452
940.6177, 1052.630
941.0999, 1064.587
941.5820, 1076.714
942.0641, 1084.625
942.5462, 1075.746
943.0283, 1054.888
943.5104, 1049.670
943.9926, 1059.811
944.4747, 1064.782
944.9568, 1058.100
945.4389, 1052.468
945.9210, 1060.817
946.4031, 1075.096
946.8853, 1068.822
947.3674, 1042.161
947.8495, 1031.752
948.3316, 1041.145
948.8137, 1053.227
949.2958, 1062.146
949.7780, 1067.470
950.2601, 1068.118
950.7422, 1065.083
951.2243, 1063.794
951.7064, 1064.657
952.1885, 1064.292
952.6707, 1061.611
953.1528, 1061.062
953.6349, 1065.984
954.1170, 1071.307
954.5991, 1069.688
955.0812, 1061.544
955.5634, 1055.821
956.0455, 1052.468
956.5276, 1052.431
957.0097, 1059.231
957.4918, 1061.841
957.9739, 1051.318
958.4561, 1036.410
958.9382, 1032.120
959.4203, 1039.474
959.9024, 1042.468
960.3845, 1038.368
960.8666, 1035.315
961.3488, 1034.010
961.8309, 1034.693
962.3130, 1038.254
962.7951, 1043.562
963.2772, 1049.158
963.7593, 1056.132
964.2415, 1057.479
964.7236, 1045.859
965.2057, 1039.289
965.6878, 1043.486
966.1699, 1050.996
966.6520, 1061.553
967.1342, 1070.949
967.6163, 1067.494
968.0984, 1045.265
968.5805, 1033.090
969.0626, 1040.568
969.5447, 1047.179
970.0269, 1047.519
970.5090, 1045.400
970.9911, 1043.487
971.4732, 1041.526
971.9553, 1038.129
972.4374, 1031.929
972.9196, 1028.748
973.4017, 1031.763
973.8838, 1034.844
974.3659, 1032.845
974.8480, 1032.510
975.3301, 1042.777
975.8123, 1059.674
976.2944, 1070.276
976.7765, 1071.915
977.2586, 1069.370
977.7407, 1065.144
978.2228, 1055.165
978.7050, 1026.365
979.1871, 999.7473
979.6692, 1000.471
980.1513, 1022.073
980.6334, 1036.935
981.1155, 1037.398
981.5977, 1036.402
982.0798, 1035.818
982.5619, 1036.999
983.0440, 1043.818
983.5261, 1050.465
984.0082, 1048.819
984.4904, 1040.925
984.9725, 1036.811
985.4546, 1040.218
985.9367, 1044.230
986.4188, 1049.215
986.9009, 1050.895
987.3831, 1044.575
987.8652, 1035.073
988.3473, 1025.206
988.8294, 1017.406
989.3115, 1019.613
989.7936, 1040.481
990.2758, 1052.860
990.7579, 1035.615
991.2400, 1017.192
991.7221, 1015.109
992.2042, 1022.936
992.6863, 1035.921
993.1685, 1050.357
993.6506, 1056.632
994.1327, 1049.513
994.6148, 1039.929
995.0969, 1028.388
995.5790, 1020.669
996.0612, 1024.144
996.5433, 1031.595
997.0254, 1031.950
997.5075, 1026.729
997.9896, 1029.196
998.4717, 1048.458
998.9539, 1061.884
999.4360, 1052.996
999.9181, 1041.134
1000.400, 1039.782
1000.882, 1043.523
1001.364, 1046.146
1001.847, 1046.281
1002.329, 1042.978
1002.811, 1034.686
1003.293, 1026.786
1003.775, 1021.284
1004.257, 1017.553
1004.739, 1014.282
1005.221, 1013.161
1005.703, 1019.566
1006.186, 1030.531
1006.668, 1032.380
1007.150, 1015.444
1007.632, 1006.435
1008.114, 1027.070
1008.596, 1049.068
1009.078, 1054.239
1009.560, 1050.062
1010.043, 1044.118
1010.525, 1038.557
1011.007, 1036.292
1011.489, 1040.004
1011.971, 1040.300
1012.453, 1026.318
1012.935, 1015.478
1013.417, 1023.676
1013.899, 1036.953
1014.382, 1037.759
1014.864, 1028.690
1015.346, 1024.811
1015.828, 1031.620
1016.310, 1037.722
1016.792, 1038.084
1017.274, 1037.397
1017.756, 1040.313
1018.239, 1041.823
1018.721, 1033.270
1019.203, 1018.994
1019.685, 1012.965
1020.167, 1019.678
1020.649, 1028.090
1021.131, 1038.022
1021.613, 1044.651
1022.095, 1041.730
1022.578, 1037.959
1023.060, 1044.066
1023.542, 1055.475
1024.024, 1059.168
1024.506, 1051.864
1024.988, 1042.813
1025.470, 1027.566
1025.952, 1019.958
1026.435, 1033.602
1026.917, 1049.215
1027.399, 1048.620
1027.881, 1038.801
1028.363, 1037.318
1028.845, 1047.792
1029.327, 1054.507
1029.809, 1052.149
1030.292, 1049.130
1030.774, 1049.263
1031.256, 1047.882
1031.738, 1039.485
1032.220, 1028.304
1032.702, 1021.706
1033.184, 1020.354
1033.666, 1021.721
1034.148, 1027.144
1034.630, 1032.950
1035.113, 1037.783
1035.595, 1043.700
1036.077, 1054.487
1036.559, 1065.662
1037.041, 1070.179
1037.523, 1067.804
1038.005, 1064.520
1038.487, 1059.870
1038.970, 1055.146
1039.452, 1048.765
1039.934, 1044.459
1040.416, 1044.460
1040.898, 1046.957
1041.380, 1051.286
1041.862, 1056.800
1042.344, 1056.054
1042.826, 1046.265
1043.309, 1036.134
1043.791, 1024.447
1044.273, 1015.034
1044.755, 1007.974
1045.237, 1005.767
1045.719, 1012.827
1046.201, 1026.422
1046.683, 1034.078
1047.166, 1035.418
1047.648, 1031.261
1048.130, 1018.284
1048.612, 1010.214
1049.094, 1012.929
1049.576, 1016.744
1050.058, 1011.882
1050.540, 1004.279
1051.022, 1012.349
1051.505, 1039.001
1051.987, 1051.743
1052.469, 1049.034
1052.951, 1039.936
1053.433, 1024.762
1053.915, 1013.725
1054.397, 1014.316
1054.879, 1020.815
1055.361, 1022.640
1055.844, 1020.306
1056.326, 1020.191
1056.808, 1022.281
1057.290, 1023.598
1057.772, 1023.629
1058.254, 1023.231
1058.736, 1022.834
1059.218, 1022.344
1059.701, 1021.080
1060.183, 1020.087
1060.665, 1024.326
1061.147, 1032.383
1061.629, 1036.728
1062.111, 1036.549
1062.593, 1032.213
1063.075, 1024.106
1063.557, 1017.033
1064.040, 1016.105
1064.522, 1018.213
1065.004, 1016.231
1065.486, 1013.333
1065.968, 1020.392
1066.450, 1033.914
1066.932, 1039.058
1067.414, 1032.731
1067.896, 1024.320
1068.379, 1019.981
1068.861, 1017.091
1069.343, 1011.434
1069.825, 1006.338
1070.307, 1007.749
1070.789, 1012.835
1071.271, 1016.816
1071.753, 1018.205
1072.236, 1014.693
1072.718, 1003.951
1073.200, 997.5196
1073.682, 1008.746
1074.164, 1022.399
1074.646, 1025.565
1075.128, 1023.853
1075.610, 1024.765
1076.093, 1027.332
1076.575, 1026.296
1077.057, 1020.168
1077.539, 1013.920
1078.021, 1006.533
1078.503, 1003.718
1078.985, 1012.332
1079.467, 1022.288
1079.949, 1026.614
1080.432, 1026.487
1080.914, 1023.629
1081.396, 1018.550
1081.878, 1015.619
1082.360, 1020.150
1082.842, 1019.895
1083.324, 1004.578
1083.806, 994.2171
1084.288, 1002.349
1084.771, 1016.594
1085.253, 1023.694
1085.735, 1024.971
1086.217, 1027.419
1086.699, 1032.979
1087.181, 1034.133
1087.663, 1026.805
1088.145, 1023.872
1088.628, 1032.181
1089.110, 1039.118
1089.592, 1035.007
1090.074, 1023.590
1090.556, 1011.364
1091.038, 997.8618
1091.520, 999.4390
1092.002, 1019.541
1092.484, 1032.392
1092.967, 1033.407
1093.449, 1029.523
1093.931, 1023.707
1094.413, 1017.396
1094.895, 1011.972
1095.377, 1008.031
1095.859, 1009.522
1096.341, 1015.221
1096.823, 1013.637
1097.306, 1005.095
1097.788, 1002.417
1098.270, 1009.432
1098.752, 1018.350
1099.234, 1023.170
1099.716, 1025.705
1100.198, 1030.891
1100.680, 1034.653
1101.163, 1024.002
1101.645, 1006.028
1102.127, 1001.899
1102.609, 1011.327
1103.091, 1013.411
1103.573, 997.6690
1104.055, 986.3042
1104.537, 1004.328
1105.020, 1027.895
1105.502, 1038.052
1105.984, 1038.708
1106.466, 1031.303
1106.948, 1020.056
1107.430, 1011.618
1107.912, 1007.545
1108.394, 1007.130
1108.876, 1015.027
1109.359, 1019.022
1109.841, 1012.056
1110.323, 1002.646
1110.805, 990.3273
1111.287, 982.4621
1111.769, 993.2704
1112.251, 1017.680
1112.733, 1026.363
1113.215, 1003.655
1113.698, 998.1528
1114.180, 1029.629
1114.662, 1048.851
1115.144, 1038.797
1115.626, 1022.099
1116.108, 1012.491
1116.590, 1007.457
1117.072, 1001.532
1117.555, 994.6765
1118.037, 998.9501
1118.519, 1017.805
1119.001, 1027.603
1119.483, 1024.468
1119.965, 1019.244
1120.447, 1016.145
1120.929, 1015.292
1121.411, 1017.646
1121.894, 1020.358
1122.376, 1012.182
1122.858, 997.2959
1123.340, 1000.303
1123.822, 1018.539
1124.304, 1033.870
1124.786, 1041.437
1125.268, 1040.169
1125.750, 1028.972
1126.233, 1017.190
1126.715, 1016.695
1127.197, 1020.805
1127.679, 1020.147
1128.161, 1017.729
1128.643, 1018.183
1129.125, 1021.448
1129.607, 1027.845
1130.090, 1036.405
1130.572, 1037.567
1131.054, 1021.072
1131.536, 1005.807
1132.018, 1001.217
1132.500, 1001.544
1132.982, 1003.327
1133.464, 1007.371
1133.947, 1019.473
1134.429, 1035.206
1134.911, 1035.734
1135.393, 1010.777
1135.875, 998.3059
1136.357, 1011.563
1136.839, 1022.474
1137.321, 1026.543
1137.803, 1026.916
1138.286, 1025.083
1138.768, 1020.709
1139.250, 1012.060
1139.732, 1000.269
1140.214, 997.3656
1140.696, 1005.422
1141.178, 1004.121
1141.660, 990.6642
1142.142, 986.2170
1142.625, 998.1190
1143.107, 1010.259
1143.589, 1009.707
1144.071, 1004.293
1144.553, 1009.574
1145.035, 1020.462
1145.517, 1019.453
1145.999, 1010.887
1146.482, 1008.286
1146.964, 1012.717
1147.446, 1019.640
1147.928, 1027.163
1148.410, 1035.024
1148.892, 1047.266
1149.374, 1052.507
1149.856, 1034.146
1150.339, 1009.959
1150.821, 993.6111
1151.303, 986.0104
1151.785, 989.3934
1152.267, 1000.886
1152.749, 1009.853
1153.231, 1013.720
1153.713, 1014.925
1154.195, 1010.640
1154.677, 1008.510
1155.160, 1011.816
1155.642, 1016.959
1156.124, 1023.602
1156.606, 1029.165
1157.088, 1029.391
1157.570, 1024.756
1158.052, 1019.897
1158.534, 1012.546
1159.017, 1018.362
1159.499, 1042.370
1159.981, 1052.305
1160.463, 1037.042
1160.945, 1017.924
1161.427, 1010.017
1161.909, 1009.106
1162.391, 1009.219
1162.874, 1009.924
1163.356, 1010.225
1163.838, 1009.784
1164.320, 1005.419
1164.802, 999.0652
1165.284, 999.9763
1165.766, 1010.311
1166.248, 1020.653
1166.730, 1024.059
1167.213, 1027.184
1167.695, 1039.232
1168.177, 1049.583
1168.659, 1044.975
1169.141, 1035.685
1169.623, 1036.236
1170.105, 1043.825
1170.587, 1046.362
1171.069, 1041.237
1171.552, 1035.173
1172.034, 1029.123
1172.516, 1022.355
1172.998, 1010.636
1173.480, 1004.438
1173.962, 1012.737
1174.444, 1021.842
1174.926, 1015.130
1175.409, 999.5162
1175.891, 1001.356
1176.373, 1022.773
1176.855, 1029.658
1177.337, 1021.643
1177.819, 1017.160
1178.301, 1019.533
1178.783, 1020.674
1179.266, 1016.637
1179.748, 1010.715
1180.230, 1005.233
1180.712, 1002.202
1181.194, 1007.011
1181.676, 1015.192
1182.158, 1019.191
1182.640, 1020.232
1183.122, 1022.309
1183.604, 1025.414
1184.087, 1026.491
1184.569, 1024.387
1185.051, 1020.464
1185.533, 1011.495
1186.015, 1006.094
1186.497, 1011.324
1186.979, 1017.695
1187.461, 1017.533
1187.944, 1015.165
1188.426, 1016.225
1188.908, 1020.816
1189.390, 1030.441
1189.872, 1050.712
1190.354, 1054.469
1190.836, 1037.009
1191.318, 1023.850
1191.801, 1020.758
1192.283, 1021.523
1192.765, 1022.902
1193.247, 1024.565
1193.729, 1026.474
1194.211, 1027.788
1194.693, 1025.749
1195.175, 1021.717
1195.657, 1019.038
1196.140, 1017.722
1196.622, 1016.969
1197.104, 1016.665
1197.586, 1016.999
1198.068, 1017.945
1198.550, 1020.724
1199.032, 1026.508
1199.514, 1033.822
1199.996, 1047.126
1200.479, 1056.204
1200.961, 1049.467
1201.443, 1035.577
1201.925, 1027.205
1202.407, 1024.376
1202.889, 1020.996
1203.371, 1016.664
1203.853, 1012.728
1204.336, 1007.985
1204.818, 1008.266
1205.300, 1016.067
1205.782, 1022.536
1206.264, 1022.523
1206.746, 1021.927
1207.228, 1028.759
1207.710, 1038.196
1208.193, 1036.141
1208.675, 1027.440
1209.157, 1026.701
1209.639, 1031.831
1210.121, 1035.336
1210.603, 1035.711
1211.085, 1033.629
1211.567, 1029.304
1212.049, 1025.153
1212.531, 1022.934
1213.014, 1020.887
1213.496, 1014.337
1213.978, 1011.764
1214.460, 1025.533
1214.942, 1041.976
1215.424, 1044.545
1215.906, 1034.782
1216.388, 1019.003
1216.871, 993.6136
1217.353, 985.7007
1217.835, 999.0010
1218.317, 1015.241
1218.799, 1033.165
1219.281, 1044.918
1219.763, 1047.097
1220.245, 1044.658
1220.728, 1042.010
1221.210, 1037.969
1221.692, 1027.670
1222.174, 1016.182
1222.656, 1013.880
1223.138, 1018.688
1223.620, 1030.288
1224.102, 1043.632
1224.584, 1044.776
1225.067, 1031.497
1225.549, 1022.731
1226.031, 1030.907
1226.513, 1036.206
1226.995, 1026.742
##END=



