##NAMES=Carpathite
##RRUFFID=R060162
##IDEAL CHEMISTRY=C_24_H_12_
##LOCALITY=Picacho mine, San Benito County, California, USA
##OWNER=RRUFF
##SOURCE=Marcus Origlieri
##DESCRIPTION=Colorless to pale yellow splintery fractured aggregates associated with cinnabar on quartz
##STATUS=The identification of this mineral has been confirmed by single-crystal X-ray diffraction.
##URL=rruff.info/R060162
92.02539, 2880.523
92.50751, 3047.562
92.98962, 3147.431
93.47174, 3083.430
93.95386, 2943.831
94.43597, 2784.781
94.91809, 2629.503
95.40021, 2480.869
95.88232, 2338.300
96.36444, 2200.051
96.84656, 2070.869
97.32867, 1952.845
97.81078, 1844.727
98.29290, 1744.618
98.77502, 1649.613
99.25713, 1556.293
99.73925, 1473.472
100.2214, 1401.797
100.7035, 1336.402
101.1856, 1275.360
101.6677, 1217.957
102.1498, 1164.756
102.6320, 1116.587
103.1141, 1074.146
103.5962, 1035.519
104.0783, 1001.380
104.5604, 970.2921
105.0425, 941.0973
105.5247, 913.3127
106.0068, 886.9399
106.4889, 862.0657
106.9710, 838.4724
107.4531, 815.8409
107.9352, 793.7188
108.4173, 772.2250
108.8995, 751.9711
109.3816, 733.4885
109.8637, 716.1934
110.3458, 699.4172
110.8279, 682.9988
111.3100, 667.0942
111.7922, 651.7903
112.2743, 637.1080
112.7564, 623.2186
113.2385, 610.6447
113.7206, 598.5637
114.2027, 586.1959
114.6849, 573.2047
115.1670, 559.8336
115.6491, 547.2182
116.1312, 535.8155
116.6133, 524.5694
117.0954, 513.3660
117.5776, 502.1489
118.0597, 490.7505
118.5418, 478.9342
119.0239, 466.6511
119.5060, 455.6800
119.9881, 446.0496
120.4703, 437.3430
120.9524, 429.7307
121.4345, 423.0430
121.9166, 416.6495
122.3987, 410.0603
122.8808, 403.2367
123.3630, 396.2718
123.8451, 388.7440
124.3272, 381.2677
124.8093, 374.5666
125.2914, 368.7744
125.7735, 363.4674
126.2557, 358.3076
126.7378, 353.2755
127.2199, 348.3731
127.7020, 343.6641
128.1841, 339.1095
128.6662, 334.6454
129.1483, 330.1631
129.6305, 325.9047
130.1126, 322.0575
130.5947, 318.5832
131.0768, 315.2008
131.5589, 311.6857
132.0410, 308.0296
132.5232, 304.3238
133.0053, 300.1866
133.4874, 296.2521
133.9695, 292.9214
134.4516, 290.2481
134.9337, 287.9791
135.4159, 285.7237
135.8980, 283.4330
136.3801, 281.2394
136.8622, 279.1796
137.3443, 277.1803
137.8264, 275.1374
138.3086, 273.0152
138.7907, 270.9233
139.2728, 269.2160
139.7549, 268.1856
140.2370, 267.2187
140.7191, 266.3329
141.2013, 265.4723
141.6834, 264.5426
142.1655, 263.4878
142.6476, 262.3477
143.1297, 261.3156
143.6118, 260.4208
144.0939, 259.5799
144.5761, 258.8100
145.0582, 258.0891
145.5403, 257.2973
146.0224, 256.3198
146.5045, 255.2312
146.9866, 254.2580
147.4688, 253.5072
147.9509, 252.7969
148.4330, 251.8688
148.9151, 250.6568
149.3972, 249.6358
149.8793, 249.4208
150.3615, 249.5045
150.8436, 249.2332
151.3257, 248.2153
151.8078, 246.7762
152.2899, 245.7143
152.7720, 245.3065
153.2542, 244.7690
153.7363, 243.6242
154.2184, 242.1826
154.7005, 240.9170
155.1826, 240.1774
155.6647, 239.8986
156.1469, 239.4257
156.6290, 238.6422
157.1111, 237.7516
157.5932, 236.7267
158.0753, 235.6292
158.5574, 234.5512
159.0396, 233.5317
159.5217, 232.5278
160.0038, 232.0176
160.4859, 232.3211
160.9680, 232.7521
161.4501, 233.1354
161.9323, 233.4066
162.4144, 233.5072
162.8965, 233.3656
163.3786, 232.9181
163.8607, 232.4421
164.3428, 231.6245
164.8250, 230.9885
165.3071, 231.1727
165.7892, 232.2205
166.2713, 233.2307
166.7534, 232.8792
167.2355, 230.8579
167.7177, 229.8754
168.1998, 231.4099
168.6819, 233.7222
169.1640, 234.3632
169.6461, 232.5815
170.1282, 230.0566
170.6104, 228.8250
171.0925, 228.7177
171.5746, 228.7995
172.0567, 228.7728
172.5388, 228.6650
173.0209, 228.5190
173.5031, 228.2122
173.9852, 228.0742
174.4673, 228.4611
174.9494, 229.3183
175.4315, 230.1408
175.9136, 230.3708
176.3958, 230.0442
176.8779, 230.2698
177.3600, 231.6917
177.8421, 233.3325
178.3242, 234.6252
178.8063, 235.5583
179.2885, 236.4269
179.7706, 237.5858
180.2527, 239.1435
180.7348, 240.5258
181.2169, 242.1403
181.6990, 243.2561
182.1812, 243.4650
182.6633, 242.6998
183.1454, 241.1367
183.6275, 238.9475
184.1096, 235.8335
184.5917, 232.6758
185.0738, 229.4497
185.5560, 226.2137
186.0381, 222.8539
186.5202, 219.4037
187.0023, 216.2024
187.4844, 213.8589
187.9665, 212.8963
188.4487, 212.0709
188.9308, 211.5198
189.4129, 211.0374
189.8950, 210.4421
190.3771, 209.6760
190.8592, 208.7823
191.3414, 207.8115
191.8235, 206.5204
192.3056, 205.6249
192.7877, 205.4872
193.2698, 205.7130
193.7519, 205.7707
194.2341, 205.4603
194.7162, 204.9595
195.1983, 204.6304
195.6804, 204.5017
196.1625, 204.3778
196.6446, 204.3404
197.1268, 204.2661
197.6089, 203.7806
198.0910, 202.5630
198.5731, 201.1937
199.0552, 200.6173
199.5373, 200.9139
200.0195, 201.3505
200.5016, 201.6499
200.9837, 201.7970
201.4658, 201.6797
201.9479, 201.0843
202.4300, 200.3812
202.9122, 199.9581
203.3943, 199.8307
203.8764, 199.8972
204.3585, 200.2159
204.8406, 200.7849
205.3227, 201.0767
205.8048, 200.7549
206.2870, 200.2493
206.7691, 199.8368
207.2512, 199.5514
207.7333, 199.3376
208.2154, 199.1366
208.6975, 198.9395
209.1797, 198.8069
209.6618, 198.7749
210.1439, 198.7943
210.6260, 198.8443
211.1081, 198.9206
211.5902, 199.0297
212.0724, 199.1851
212.5545, 199.3977
213.0366, 199.6208
213.5187, 199.6929
214.0008, 199.8788
214.4829, 200.3671
214.9651, 201.1828
215.4472, 202.2005
215.9293, 203.2569
216.4114, 204.4074
216.8935, 205.4779
217.3756, 206.3526
217.8578, 207.2420
218.3399, 208.3370
218.8220, 209.6563
219.3041, 211.0522
219.7862, 212.3031
220.2683, 213.4428
220.7505, 214.3201
221.2326, 214.7592
221.7147, 215.0799
222.1968, 215.4854
222.6789, 216.0380
223.1610, 216.7361
223.6432, 217.5838
224.1253, 218.6570
224.6074, 219.7490
225.0895, 220.8537
225.5716, 221.9809
226.0537, 223.1015
226.5358, 224.2167
227.0180, 225.4036
227.5001, 226.7639
227.9822, 228.2900
228.4643, 230.0549
228.9464, 232.1786
229.4285, 234.4899
229.9107, 236.7315
230.3928, 238.8358
230.8749, 241.0522
231.3570, 243.6721
231.8391, 246.6837
232.3212, 250.0892
232.8034, 253.7405
233.2855, 257.8402
233.7676, 262.7374
234.2497, 268.5517
234.7318, 274.8252
235.2139, 281.4777
235.6961, 288.4273
236.1782, 294.5090
236.6603, 300.6151
237.1424, 305.3159
237.6245, 306.3128
238.1066, 303.0204
238.5888, 296.9668
239.0709, 288.2520
239.5530, 277.6564
240.0351, 267.3154
240.5172, 257.4703
240.9993, 248.4270
241.4815, 240.8257
241.9636, 234.7134
242.4457, 230.0042
242.9278, 227.0610
243.4099, 225.3758
243.8920, 224.0686
244.3742, 222.7923
244.8563, 221.6474
245.3384, 220.8873
245.8205, 220.5872
246.3026, 220.5250
246.7847, 220.7403
247.2668, 221.0688
247.7490, 221.2367
248.2311, 221.0829
248.7132, 220.7091
249.1953, 220.3213
249.6774, 219.8293
250.1595, 219.5281
250.6417, 219.6382
251.1238, 219.9585
251.6059, 220.2715
252.0880, 220.5349
252.5701, 220.6614
253.0522, 220.4123
253.5344, 219.6705
254.0165, 218.7581
254.4986, 217.8675
254.9807, 216.8615
255.4628, 215.5464
255.9449, 213.8187
256.4271, 211.8321
256.9092, 209.8904
257.3913, 207.8866
257.8734, 206.1755
258.3555, 205.0154
258.8376, 204.0327
259.3198, 202.8004
259.8019, 201.1515
260.2840, 199.3935
260.7661, 198.2132
261.2482, 197.9981
261.7303, 197.6415
262.2125, 196.8900
262.6946, 196.0302
263.1767, 195.2494
263.6588, 194.6154
264.1409, 194.1683
264.6230, 194.0584
265.1052, 194.7789
265.5873, 194.8266
266.0694, 193.5361
266.5515, 192.0587
267.0336, 191.3091
267.5157, 191.4601
267.9979, 191.9674
268.4800, 192.0081
268.9621, 191.2599
269.4442, 190.7364
269.9263, 190.5637
270.4084, 190.4771
270.8906, 190.3438
271.3727, 190.1280
271.8548, 189.8320
272.3369, 189.4343
272.8190, 188.8461
273.3011, 188.4790
273.7833, 188.3986
274.2654, 188.4375
274.7475, 188.5417
275.2296, 188.6860
275.7117, 188.8499
276.1938, 189.0333
276.6760, 189.2785
277.1581, 189.2601
277.6402, 188.6512
278.1223, 188.1414
278.6044, 188.1084
279.0865, 188.4807
279.5686, 188.9375
280.0508, 189.2223
280.5329, 189.3293
281.0150, 189.4897
281.4971, 189.6467
281.9792, 189.8985
282.4613, 190.3150
282.9435, 190.8573
283.4256, 191.4157
283.9077, 191.9015
284.3898, 192.3508
284.8719, 193.0738
285.3540, 194.3628
285.8362, 195.5543
286.3183, 196.3590
286.8004, 196.9568
287.2825, 197.7397
287.7646, 198.9480
288.2467, 200.3655
288.7289, 201.2283
289.2110, 201.0480
289.6931, 200.9643
290.1752, 201.3108
290.6573, 201.8133
291.1394, 202.0320
291.6216, 201.7835
292.1037, 201.3301
292.5858, 201.2174
293.0679, 201.6204
293.5500, 202.0305
294.0321, 202.1890
294.5143, 202.4227
294.9964, 203.1367
295.4785, 204.4424
295.9606, 206.0685
296.4427, 207.6084
296.9248, 208.8943
297.4070, 210.6987
297.8891, 213.2693
298.3712, 216.2377
298.8533, 219.3490
299.3354, 222.5351
299.8175, 225.7801
300.2997, 229.0930
300.7818, 232.4970
301.2639, 235.7084
301.7460, 239.2636
302.2281, 242.1966
302.7102, 243.6360
303.1924, 243.6775
303.6745, 243.3697
304.1566, 243.6004
304.6387, 244.2592
305.1208, 243.7858
305.6029, 242.7769
306.0851, 240.2255
306.5672, 235.0294
307.0493, 227.7397
307.5314, 219.8969
308.0135, 212.1092
308.4956, 204.6477
308.9778, 198.8297
309.4599, 195.0910
309.9420, 192.0733
310.4241, 189.4501
310.9062, 187.2428
311.3883, 185.5890
311.8705, 184.5961
312.3526, 184.0446
312.8347, 183.4947
313.3168, 182.9312
313.7989, 182.3986
314.2810, 181.8403
314.7632, 181.3415
315.2453, 181.0298
315.7274, 180.9454
316.2095, 180.9888
316.6916, 181.0412
317.1737, 181.1083
317.6559, 181.1592
318.1380, 181.2869
318.6201, 181.3410
319.1022, 181.1220
319.5843, 180.6194
320.0664, 180.0895
320.5485, 179.7992
321.0306, 179.7738
321.5128, 179.5223
321.9949, 178.5577
322.4770, 177.7784
322.9591, 178.0732
323.4412, 179.2139
323.9233, 179.9699
324.4055, 179.3829
324.8876, 177.7227
325.3697, 176.9942
325.8518, 177.8932
326.3339, 178.8073
326.8160, 179.0459
327.2982, 178.8578
327.7803, 178.8326
328.2624, 179.2726
328.7445, 179.9651
329.2266, 180.3378
329.7087, 180.3308
330.1909, 180.1756
330.6730, 179.6944
331.1551, 179.1639
331.6372, 178.9895
332.1193, 179.2926
332.6014, 179.8080
333.0836, 180.1853
333.5657, 180.4265
334.0478, 180.4662
334.5299, 179.9711
335.0120, 179.4882
335.4941, 179.5481
335.9763, 180.1742
336.4584, 180.9388
336.9405, 181.4777
337.4226, 181.7776
337.9047, 181.8141
338.3868, 181.1988
338.8690, 180.7123
339.3511, 180.8159
339.8332, 181.4034
340.3153, 182.1377
340.7974, 182.8545
341.2795, 183.5044
341.7617, 183.7236
342.2438, 183.0728
342.7259, 182.5782
343.2080, 182.5991
343.6901, 182.8875
344.1722, 182.9964
344.6544, 182.7316
345.1365, 182.3959
345.6186, 182.6175
346.1007, 183.6739
346.5828, 184.9511
347.0649, 186.1534
347.5471, 187.7402
348.0292, 190.0165
348.5113, 193.0647
348.9934, 196.9903
349.4755, 201.8844
349.9576, 207.8609
350.4398, 214.6160
350.9219, 223.5001
351.4040, 231.8289
351.8861, 238.8521
352.3682, 244.1131
352.8503, 246.6922
353.3325, 245.5793
353.8146, 241.0716
354.2967, 237.8177
354.7788, 235.9572
355.2609, 235.1784
355.7430, 235.3120
356.2252, 236.5272
356.7073, 239.3103
357.1894, 243.9152
357.6715, 249.6540
358.1536, 254.8214
358.6357, 258.5692
359.1179, 263.0589
359.5999, 268.4318
360.0821, 274.4720
360.5642, 280.6825
361.0463, 287.1378
361.5284, 294.5674
362.0105, 303.6509
362.4926, 313.8202
362.9748, 328.1176
363.4569, 346.0483
363.9390, 368.1625
364.4211, 395.9449
364.9032, 428.4447
365.3853, 462.9879
365.8675, 497.9535
366.3496, 533.2008
366.8317, 567.7284
367.3138, 607.1885
367.7959, 637.8998
368.2780, 667.6697
368.7602, 683.8016
369.2423, 668.1575
369.7244, 612.3483
370.2065, 530.8398
370.6886, 447.5147
371.1707, 354.0325
371.6529, 281.3700
372.1350, 240.0009
372.6171, 214.5494
373.0992, 197.9473
373.5813, 188.1524
374.0634, 182.5045
374.5456, 179.2392
375.0277, 178.4805
375.5098, 177.4600
375.9919, 175.6909
376.4740, 174.1245
376.9561, 173.2749
377.4383, 172.9520
377.9204, 172.7138
378.4025, 172.3245
378.8846, 171.8341
379.3667, 171.3456
379.8488, 170.7896
380.3310, 170.4214
380.8131, 170.4390
381.2952, 170.6487
381.7773, 170.9129
382.2594, 171.2295
382.7415, 171.4435
383.2237, 171.3156
383.7058, 170.8482
384.1879, 170.4674
384.6700, 170.3467
385.1521, 170.2711
385.6342, 169.9708
386.1164, 169.4729
386.5985, 169.1418
387.0806, 169.3344
387.5627, 169.8264
388.0448, 170.0856
388.5269, 170.0472
389.0091, 169.8477
389.4912, 169.3986
389.9733, 168.8630
390.4554, 168.6406
390.9375, 169.0805
391.4196, 169.6165
391.9018, 169.7097
392.3839, 169.4002
392.8660, 169.0073
393.3481, 168.5225
393.8302, 168.1870
394.3123, 168.5577
394.7945, 169.9429
395.2766, 170.9798
395.7587, 170.8985
396.2408, 170.1787
396.7229, 169.4961
397.2050, 168.9565
397.6872, 168.8166
398.1693, 169.4373
398.6514, 170.8958
399.1335, 172.4173
399.6156, 174.8465
400.0977, 176.6362
400.5798, 176.2530
401.0620, 174.0694
401.5441, 171.8396
402.0262, 170.6172
402.5083, 170.2328
402.9904, 169.8894
403.4725, 169.6658
403.9547, 169.3796
404.4368, 168.7758
404.9189, 168.1734
405.4010, 168.1197
405.8831, 168.7547
406.3652, 169.5135
406.8474, 169.5202
407.3295, 168.3514
407.8116, 167.6552
408.2937, 167.7713
408.7758, 168.0005
409.2579, 167.9452
409.7401, 167.6417
410.2222, 167.3242
410.7043, 167.1464
411.1864, 167.1159
411.6685, 167.2896
412.1506, 167.8768
412.6328, 168.4221
413.1149, 169.0642
413.5970, 169.5415
414.0791, 169.4245
414.5612, 168.5988
415.0433, 167.6185
415.5255, 167.4413
416.0076, 168.4035
416.4897, 169.0021
416.9718, 168.7173
417.4539, 168.4123
417.9360, 168.5790
418.4182, 169.1127
418.9003, 169.5423
419.3824, 169.4568
419.8645, 169.0020
420.3466, 168.8878
420.8287, 169.3688
421.3109, 169.6538
421.7930, 169.1911
422.2751, 168.4704
422.7572, 168.0430
423.2393, 168.0806
423.7214, 168.3284
424.2036, 168.5018
424.6857, 168.6093
425.1678, 168.8999
425.6499, 169.5462
426.1320, 170.2463
426.6141, 170.6027
427.0963, 170.6840
427.5784, 171.0601
428.0605, 172.1295
428.5426, 173.5770
429.0247, 174.8504
429.5068, 175.9067
429.9890, 177.1958
430.4711, 179.0568
430.9532, 181.3699
431.4353, 183.6466
431.9174, 185.9858
432.3995, 188.1433
432.8817, 189.9867
433.3638, 191.5515
433.8459, 192.8814
434.3280, 193.9625
434.8101, 194.9279
435.2922, 195.9071
435.7744, 196.8262
436.2565, 198.1302
436.7386, 200.0916
437.2207, 202.2350
437.7028, 204.1145
438.1849, 205.8253
438.6671, 207.7870
439.1492, 210.2462
439.6313, 213.2268
440.1134, 216.8260
440.5955, 221.3676
441.0776, 226.1607
441.5598, 230.8548
442.0418, 235.8958
442.5240, 241.7791
443.0061, 248.5817
443.4882, 255.9862
443.9703, 263.5542
444.4524, 271.3080
444.9345, 279.2260
445.4167, 287.4589
445.8988, 295.6922
446.3809, 304.6210
446.8630, 313.3290
447.3451, 320.4048
447.8272, 325.0560
448.3094, 327.3411
448.7915, 327.5337
449.2736, 325.9559
449.7557, 321.3054
450.2378, 311.8451
450.7199, 300.0614
451.2021, 286.7844
451.6842, 272.3438
452.1663, 258.4255
452.6484, 245.9715
453.1305, 235.0612
453.6126, 226.5191
454.0948, 220.7315
454.5769, 216.6048
455.0590, 213.8842
455.5411, 212.2634
456.0232, 211.4163
456.5053, 211.4656
456.9875, 212.0122
457.4696, 212.8084
457.9517, 213.8371
458.4338, 215.0452
458.9159, 216.4378
459.3980, 217.9617
459.8802, 219.3949
460.3623, 220.6091
460.8444, 222.6588
461.3265, 225.8443
461.8086, 229.8624
462.2907, 234.3083
462.7729, 239.2491
463.2550, 245.1312
463.7371, 252.2289
464.2192, 260.5717
464.7013, 270.6698
465.1834, 283.2008
465.6656, 296.4765
466.1477, 311.5320
466.6298, 326.7033
467.1119, 340.4330
467.5940, 352.3111
468.0761, 362.3118
468.5583, 370.2323
469.0404, 375.8318
469.5225, 381.2937
470.0046, 386.6219
470.4867, 391.8093
470.9688, 396.1357
471.4510, 400.4638
471.9331, 405.9346
472.4152, 413.0348
472.8973, 421.8972
473.3794, 432.8892
473.8615, 446.1790
474.3437, 460.7653
474.8258, 475.7015
475.3079, 492.6306
475.7900, 511.9470
476.2721, 533.8851
476.7542, 559.8364
477.2364, 589.2087
477.7185, 623.3274
478.2006, 666.0946
478.6827, 717.8760
479.1648, 775.2793
479.6469, 838.6309
480.1291, 905.9953
480.6112, 974.5302
481.0933, 1046.951
481.5754, 1112.310
482.0575, 1174.191
482.5396, 1223.094
483.0217, 1242.243
483.5038, 1228.318
483.9860, 1184.365
484.4681, 1107.909
484.9502, 997.2991
485.4323, 890.4875
485.9144, 784.8565
486.3965, 685.7154
486.8787, 593.3922
487.3608, 509.0233
487.8429, 434.2531
488.3250, 369.4505
488.8071, 315.0984
489.2892, 272.8680
489.7714, 245.2680
490.2535, 223.7265
490.7356, 209.7390
491.2177, 199.3555
491.6998, 191.5633
492.1819, 185.7472
492.6641, 181.2687
493.1462, 177.8311
493.6283, 175.2849
494.1104, 173.2899
494.5925, 172.0691
495.0746, 170.8071
495.5568, 169.1511
496.0389, 167.5128
496.5210, 166.1907
497.0031, 165.2030
497.4852, 164.3519
497.9673, 163.4089
498.4495, 162.5107
498.9316, 162.1875
499.4137, 162.6209
499.8958, 162.8408
500.3779, 162.0741
500.8600, 160.7836
501.3422, 159.9607
501.8243, 159.8389
502.3064, 159.7793
502.7885, 159.3573
503.2706, 158.8071
503.7527, 158.6376
504.2349, 158.9657
504.7170, 159.2863
505.1991, 159.0684
505.6812, 158.2705
506.1633, 157.7048
506.6454, 157.4775
507.1276, 157.3362
507.6097, 157.2309
508.0918, 157.1396
508.5739, 157.0478
509.0560, 156.9487
509.5381, 156.8240
510.0203, 156.6254
510.5024, 156.2883
510.9845, 156.0997
511.4666, 156.2302
511.9487, 156.3410
512.4308, 156.3225
512.9130, 156.1831
513.3951, 155.9211
513.8772, 155.4888
514.3593, 155.0733
514.8414, 155.1220
515.3235, 155.7325
515.8057, 156.0510
516.2878, 155.7417
516.7699, 155.2073
517.2520, 154.7630
517.7341, 154.4063
518.2162, 154.0856
518.6984, 153.6552
519.1805, 153.3176
519.6626, 153.4582
520.1447, 154.0367
520.6268, 154.4612
521.1089, 154.4222
521.5911, 154.0943
522.0732, 153.8811
522.5553, 153.8558
523.0374, 153.7136
523.5195, 153.2579
524.0016, 152.7677
524.4838, 152.4776
524.9659, 152.4009
525.4480, 152.4752
525.9301, 152.6909
526.4122, 152.9734
526.8943, 152.9221
527.3765, 152.2078
527.8586, 151.6214
528.3407, 151.0810
528.8228, 150.7860
529.3049, 151.0965
529.7870, 151.9204
530.2692, 152.6187
530.7513, 152.5497
531.2334, 151.8621
531.7155, 151.4379
532.1976, 151.3455
532.6797, 151.3623
533.1619, 151.5310
533.6440, 151.6964
534.1261, 151.6793
534.6082, 151.4377
535.0903, 151.1435
535.5724, 150.8378
536.0546, 150.5728
536.5367, 150.4696
537.0188, 150.5482
537.5009, 150.7274
537.9830, 150.9986
538.4651, 151.3200
538.9473, 151.4692
539.4294, 151.3837
539.9115, 151.2220
540.3936, 150.8788
540.8757, 150.5522
541.3578, 150.5598
541.8400, 150.9265
542.3221, 151.3261
542.8042, 151.4219
543.2863, 151.2093
543.7684, 150.9806
544.2505, 150.6806
544.7326, 150.4359
545.2147, 150.2670
545.6968, 150.1684
546.1790, 150.1663
546.6611, 150.2575
547.1432, 150.3377
547.6253, 150.2817
548.1074, 150.1014
548.5895, 149.9296
549.0717, 149.7670
549.5538, 149.6244
550.0359, 149.4779
550.5180, 149.3640
551.0001, 149.3752
551.4822, 149.6161
551.9644, 149.7618
552.4465, 149.4932
552.9286, 149.0061
553.4107, 148.7155
553.8928, 148.7037
554.3749, 148.7742
554.8571, 148.7400
555.3392, 148.6077
555.8213, 148.6384
556.3034, 149.1685
556.7855, 149.4289
557.2676, 148.9755
557.7498, 148.2640
558.2319, 147.8543
558.7140, 147.8643
559.1961, 148.0049
559.6782, 147.9389
560.1603, 147.6619
560.6425, 147.5872
561.1246, 147.8135
561.6067, 148.1106
562.0888, 148.5705
562.5709, 148.9759
563.0530, 149.0285
563.5352, 148.6467
564.0173, 148.1947
564.4994, 147.9781
564.9815, 147.9409
565.4636, 147.9058
565.9457, 147.8570
566.4279, 147.8050
566.9100, 147.7627
567.3921, 147.7210
567.8742, 147.6416
568.3563, 147.4168
568.8384, 147.3319
569.3206, 147.6520
569.8027, 148.0798
570.2848, 148.2285
570.7669, 148.0586
571.2490, 147.8071
571.7311, 147.6785
572.2133, 147.6584
572.6954, 147.5965
573.1775, 147.4038
573.6596, 147.2934
574.1417, 147.3152
574.6238, 147.4104
575.1060, 147.5829
575.5881, 147.8011
576.0702, 147.9294
576.5523, 147.8344
577.0344, 147.5619
577.5165, 147.2225
577.9987, 146.7522
578.4808, 146.5088
578.9629, 146.7741
579.4450, 147.2730
579.9271, 147.6317
580.4092, 147.8393
580.8914, 147.9433
581.3735, 147.8107
581.8556, 147.6773
582.3377, 147.8701
582.8198, 148.3507
583.3019, 148.7766
583.7841, 148.9321
584.2662, 148.9467
584.7483, 149.1853
585.2304, 149.9068
585.7125, 150.4269
586.1946, 150.6412
586.6768, 150.7618
587.1589, 150.8613
587.6410, 150.9804
588.1231, 151.1922
588.6052, 151.5615
589.0873, 151.9769
589.5695, 152.1908
590.0516, 152.1795
590.5337, 152.1320
591.0158, 152.0393
591.4979, 151.9748
591.9800, 151.9222
592.4622, 151.9246
592.9443, 152.1749
593.4264, 153.0943
593.9085, 153.9565
594.3906, 153.9658
594.8727, 153.4308
595.3549, 153.1677
595.8370, 153.4279
596.3191, 154.1160
596.8012, 155.2123
597.2833, 156.8538
597.7654, 157.9248
598.2476, 158.1982
598.7297, 158.2575
599.2118, 158.1125
599.6939, 157.9312
600.1760, 157.9618
600.6581, 158.2546
601.1403, 158.5413
601.6224, 158.4162
602.1045, 157.9099
602.5866, 157.7877
603.0687, 158.1811
603.5508, 158.6717
604.0330, 159.2637
604.5151, 159.7439
604.9972, 159.7308
605.4793, 159.0641
605.9614, 158.4988
606.4435, 158.5412
606.9257, 158.8447
607.4078, 158.9906
607.8899, 158.9249
608.3720, 158.6035
608.8541, 157.9524
609.3362, 157.1068
609.8184, 156.4947
610.3005, 156.3764
610.7826, 156.1116
611.2647, 155.6814
611.7468, 155.1294
612.2289, 154.4854
612.7111, 153.7442
613.1932, 152.8653
613.6753, 151.8019
614.1574, 150.6602
614.6395, 149.6031
615.1216, 148.6199
615.6038, 147.8004
616.0859, 147.2163
616.5680, 146.7162
617.0501, 146.1716
617.5322, 145.5994
618.0143, 145.0649
618.4965, 144.5633
618.9786, 144.1216
619.4607, 143.6692
619.9428, 143.3096
620.4249, 143.3577
620.9070, 143.8583
621.3892, 144.2876
621.8713, 144.0699
622.3534, 143.2175
622.8355, 142.6898
623.3176, 142.7901
623.7997, 142.8376
624.2819, 142.7480
624.7640, 142.5556
625.2461, 142.2133
625.7282, 141.7646
626.2103, 141.4434
626.6924, 141.5283
627.1745, 141.8347
627.6566, 141.8223
628.1387, 141.4526
628.6208, 141.3576
629.1030, 141.9536
629.5851, 142.7248
630.0672, 142.8399
630.5493, 142.2802
631.0314, 141.7793
631.5135, 141.3663
631.9957, 141.1148
632.4778, 141.2517
632.9599, 141.5532
633.4420, 141.5100
633.9241, 140.9427
634.4063, 140.2362
634.8884, 139.9343
635.3705, 140.0755
635.8526, 140.2986
636.3347, 140.6933
636.8168, 141.0410
637.2990, 141.2590
637.7811, 141.3970
638.2632, 141.4813
638.7453, 141.5096
639.2274, 141.6204
639.7095, 141.9279
640.1917, 142.3727
640.6738, 142.8400
641.1559, 143.3254
641.6380, 143.9556
642.1201, 144.8507
642.6022, 145.8454
643.0844, 146.5734
643.5665, 146.9645
644.0486, 147.1970
644.5307, 147.0760
645.0128, 146.9857
645.4949, 147.0650
645.9771, 147.3508
646.4592, 148.0210
646.9413, 149.1744
647.4234, 150.1825
647.9055, 149.7735
648.3876, 147.9963
648.8698, 147.4590
649.3519, 148.8057
649.8340, 150.3934
650.3161, 151.1270
650.7982, 151.4353
651.2803, 152.1751
651.7625, 153.5477
652.2446, 154.9748
652.7267, 155.8435
653.2088, 156.8920
653.6909, 159.1022
654.1730, 162.3641
654.6552, 165.8509
655.1373, 169.0975
655.6194, 172.0517
656.1015, 174.7115
656.5836, 177.5058
657.0657, 178.8727
657.5479, 178.7580
658.0300, 177.0726
658.5121, 172.6296
658.9942, 166.7295
659.4763, 161.8793
659.9584, 158.9484
660.4406, 157.0642
660.9227, 155.6028
661.4048, 154.5694
661.8869, 154.1344
662.3690, 154.3373
662.8511, 154.4549
663.3333, 154.0588
663.8154, 153.1254
664.2975, 151.5603
664.7796, 148.5356
665.2617, 146.0450
665.7438, 144.2506
666.2260, 142.8874
666.7081, 141.9905
667.1902, 141.3609
667.6723, 140.5272
668.1544, 139.1727
668.6365, 137.8144
669.1187, 137.3226
669.6008, 137.6629
670.0829, 138.0935
670.5650, 138.6014
671.0471, 138.9437
671.5292, 138.8177
672.0114, 138.3803
672.4935, 138.2116
672.9756, 138.4424
673.4577, 138.7258
673.9398, 139.0584
674.4219, 139.3279
674.9041, 139.3503
675.3862, 139.1867
675.8683, 139.1131
676.3504, 139.3098
676.8325, 139.6512
677.3146, 139.8763
677.7968, 140.0122
678.2789, 139.8784
678.7610, 139.2239
679.2431, 138.5907
679.7252, 138.3192
680.2073, 138.2942
680.6895, 138.3321
681.1716, 138.5253
681.6537, 138.4585
682.1358, 137.5658
682.6179, 136.4240
683.1000, 135.9605
683.5822, 136.1854
684.0643, 136.3681
684.5464, 136.0155
685.0285, 135.3624
685.5106, 135.1055
685.9927, 135.4951
686.4749, 135.6933
686.9570, 135.6002
687.4391, 135.3777
687.9212, 135.0869
688.4033, 134.7173
688.8854, 134.1753
689.3676, 133.3566
689.8497, 132.7051
690.3318, 132.6899
690.8139, 133.0909
691.2960, 133.4008
691.7781, 133.5786
692.2603, 134.0369
692.7424, 135.1662
693.2245, 136.5002
693.7066, 136.7744
694.1887, 135.1441
694.6708, 134.1439
695.1530, 134.2522
695.6351, 134.4509
696.1172, 134.2447
696.5993, 133.7882
697.0814, 133.3014
697.5635, 132.8408
698.0457, 132.7583
698.5278, 133.8783
699.0099, 135.6520
699.4920, 136.1612
699.9741, 135.2060
700.4562, 134.0805
700.9384, 133.4287
701.4205, 133.0594
701.9026, 132.5520
702.3847, 131.7191
702.8668, 131.2841
703.3489, 131.5811
703.8311, 131.9415
704.3132, 132.0549
704.7953, 132.0043
705.2774, 131.9614
705.7595, 131.9788
706.2416, 131.9730
706.7238, 131.8337
707.2059, 131.5926
707.6880, 131.3371
708.1701, 131.0376
708.6522, 131.0065
709.1343, 131.5396
709.6164, 132.2099
710.0985, 132.2612
710.5806, 131.5654
711.0627, 131.2211
711.5449, 131.6586
712.0270, 132.0724
712.5091, 132.0632
712.9912, 131.8005
713.4733, 131.4517
713.9554, 131.1028
714.4376, 130.9637
714.9197, 131.4149
715.4018, 132.1807
715.8839, 132.0268
716.3660, 130.7922
716.8481, 129.8492
717.3303, 129.7041
717.8124, 129.9054
718.2945, 129.9444
718.7766, 129.8414
719.2587, 129.9249
719.7408, 130.5710
720.2230, 130.9967
720.7051, 130.6775
721.1872, 130.0949
721.6693, 129.8581
722.1514, 130.0048
722.6335, 130.1159
723.1157, 129.8595
723.5978, 129.3708
724.0799, 128.9644
724.5620, 128.6214
725.0441, 128.5512
725.5262, 128.9007
726.0084, 129.3446
726.4905, 129.7214
726.9726, 129.9806
727.4547, 129.8998
727.9368, 129.0814
728.4189, 128.5289
728.9011, 128.7632
729.3832, 129.2316
729.8653, 129.4582
730.3474, 129.4233
730.8295, 129.2549
731.3116, 129.0060
731.7938, 128.8134
732.2759, 129.0425
732.7580, 129.7048
733.2401, 129.8819
733.7222, 129.3512
734.2043, 128.7167
734.6865, 128.2211
735.1686, 127.8998
735.6507, 127.8377
736.1328, 128.1303
736.6149, 128.3482
737.0970, 128.3988
737.5792, 128.3521
738.0613, 128.1943
738.5434, 127.9906
739.0255, 127.8509
739.5076, 127.8121
739.9897, 127.8318
740.4719, 127.9025
740.9540, 127.9996
741.4361, 127.9256
741.9182, 127.6474
742.4003, 127.3508
742.8824, 127.0319
743.3646, 126.8095
743.8467, 126.9402
744.3288, 127.4318
744.8109, 127.6630
745.2930, 127.1735
745.7751, 126.8939
746.2573, 127.5068
746.7394, 128.3641
747.2215, 128.6263
747.7036, 128.2421
748.1857, 127.8048
748.6678, 127.7580
749.1500, 127.9491
749.6321, 128.0579
750.1142, 128.0848
750.5963, 128.0457
751.0784, 127.8921
751.5605, 127.8352
752.0427, 128.1328
752.5248, 128.6823
753.0069, 128.9157
753.4890, 128.6802
753.9711, 128.3963
754.4532, 128.0893
754.9354, 127.7730
755.4175, 127.2952
755.8996, 126.8395
756.3817, 126.8206
756.8638, 127.4282
757.3459, 128.2985
757.8281, 129.0383
758.3102, 129.6810
758.7923, 130.3767
759.2744, 131.1447
759.7565, 131.7843
760.2386, 132.2162
760.7208, 132.4340
761.2029, 132.4224
761.6850, 132.1591
762.1671, 131.7423
762.6492, 131.1552
763.1313, 130.4506
763.6135, 129.5681
764.0956, 128.6252
764.5777, 127.6832
765.0598, 126.7863
765.5419, 126.0646
766.0240, 125.6060
766.5062, 125.3675
766.9883, 125.3554
767.4704, 125.5220
767.9525, 125.6939
768.4346, 125.8331
768.9167, 125.8944
769.3989, 125.8514
769.8810, 125.6886
770.3631, 125.2767
770.8452, 124.1016
771.3273, 123.6197
771.8094, 124.6614
772.2916, 125.6754
772.7737, 125.7385
773.2558, 125.1740
773.7379, 124.7297
774.2200, 124.6365
774.7021, 124.5758
775.1843, 124.2409
775.6664, 123.8737
776.1485, 123.8556
776.6306, 124.1354
777.1127, 124.4138
777.5948, 124.5604
778.0770, 124.5911
778.5591, 124.5003
779.0412, 124.2753
779.5233, 124.2074
780.0054, 124.3884
780.4875, 124.5353
780.9697, 124.5592
781.4518, 124.5047
781.9339, 124.3962
782.4160, 124.2396
782.8981, 124.0974
783.3802, 123.8967
783.8624, 123.8140
784.3445, 124.0818
784.8266, 124.4414
785.3087, 124.5164
785.7908, 124.3116
786.2729, 124.1455
786.7551, 124.2488
787.2372, 124.4348
787.7193, 124.2380
788.2014, 123.6664
788.6835, 123.4641
789.1656, 123.8437
789.6478, 124.1078
790.1299, 123.7104
790.6120, 122.9889
791.0941, 122.8068
791.5762, 123.4322
792.0583, 123.7619
792.5404, 123.5569
793.0225, 123.2421
793.5046, 122.8457
793.9868, 122.5429
794.4689, 122.6227
794.9510, 123.1010
795.4331, 123.5692
795.9152, 123.7422
796.3973, 123.7005
796.8795, 123.5301
797.3616, 123.2516
797.8437, 122.9558
798.3258, 122.6609
798.8079, 122.4213
799.2900, 122.2943
799.7722, 122.2569
800.2543, 122.1752
800.7364, 121.9348
801.2185, 121.8827
801.7006, 122.3328
802.1827, 122.6880
802.6649, 122.5961
803.1470, 122.2339
803.6291, 121.9205
804.1112, 121.7166
804.5933, 121.5835
805.0754, 121.4576
805.5576, 121.4332
806.0397, 121.7416
806.5218, 122.2134
807.0039, 122.4212
807.4860, 122.2283
807.9681, 121.8865
808.4503, 121.6749
808.9324, 121.5561
809.4145, 121.2716
809.8966, 120.7515
810.3787, 120.5072
810.8608, 120.7380
811.3430, 121.1538
811.8251, 121.6166
812.3072, 122.0654
812.7893, 122.1241
813.2714, 121.3289
813.7535, 120.8393
814.2357, 121.1172
814.7178, 121.4756
815.1999, 121.3791
815.6820, 121.0080
816.1641, 120.7945
816.6462, 120.8893
817.1284, 121.1314
817.6105, 121.4800
818.0926, 121.8313
818.5747, 121.9340
819.0568, 121.8239
819.5389, 121.7792
820.0211, 121.9015
820.5032, 122.0325
820.9853, 121.9554
821.4674, 121.7024
821.9495, 121.8178
822.4316, 122.6480
822.9138, 123.0878
823.3959, 122.7009
823.8780, 122.1067
824.3601, 121.5007
824.8422, 121.0216
825.3243, 121.0822
825.8065, 122.0398
826.2886, 122.8297
826.7707, 122.7916
827.2528, 122.6297
827.7349, 123.0395
828.2170, 123.8233
828.6992, 124.4237
829.1813, 124.6544
829.6634, 124.7963
830.1455, 125.0951
830.6276, 125.5603
831.1097, 126.2528
831.5919, 127.1658
832.0740, 128.1788
832.5561, 129.2853
833.0382, 130.3667
833.5203, 131.3374
834.0024, 132.1838
834.4846, 132.8607
834.9667, 133.6612
835.4488, 133.7769
835.9309, 132.6986
836.4130, 131.4576
836.8951, 130.3109
837.3773, 129.4523
837.8594, 129.2274
838.3415, 129.7710
838.8236, 130.4294
839.3057, 131.0220
839.7878, 131.4457
840.2700, 131.6813
840.7521, 131.6537
841.2342, 131.1904
841.7163, 130.2646
842.1984, 129.0055
842.6805, 127.4695
843.1627, 125.7940
843.6448, 124.3123
844.1269, 123.0220
844.6090, 122.3130
845.0911, 122.3727
845.5732, 122.6305
846.0554, 122.7425
846.5375, 122.7343
847.0196, 122.6475
847.5017, 122.2360
847.9838, 122.3261
848.4659, 123.3301
848.9481, 124.3370
849.4302, 124.9051
849.9123, 125.3426
850.3944, 125.9925
850.8765, 126.9125
851.3586, 128.0514
851.8408, 129.5197
852.3229, 131.0686
852.8050, 132.7811
853.2871, 134.3186
853.7692, 135.3070
854.2513, 135.5581
854.7335, 134.5224
855.2156, 131.7714
855.6977, 128.1555
856.1798, 125.1207
856.6619, 122.6613
857.1440, 120.8475
857.6262, 119.7516
858.1083, 118.9914
858.5904, 118.4459
859.0725, 118.1008
859.5546, 117.9790
860.0367, 118.1110
860.5189, 118.1146
861.0010, 117.8085
861.4831, 117.6271
861.9652, 117.7498
862.4473, 117.9254
862.9294, 118.0163
863.4116, 117.9962
863.8937, 117.8180
864.3758, 117.4098
864.8579, 117.0397
865.3400, 116.7626
865.8221, 116.6952
866.3043, 117.2786
866.7864, 118.1578
867.2685, 118.2463
867.7506, 117.2507
868.2327, 116.2187
868.7148, 116.3324
869.1970, 117.2109
869.6791, 117.5681
870.1612, 117.4021
870.6433, 117.2029
871.1254, 117.0508
871.6075, 116.9935
872.0897, 117.1331
872.5718, 117.3399
873.0539, 117.1518
873.5360, 116.1504
874.0181, 115.7150
874.5002, 116.4120
874.9823, 117.0312
875.4644, 117.1969
875.9465, 117.0739
876.4286, 116.8040
876.9108, 116.4162
877.3929, 116.0544
877.8750, 115.6518
878.3571, 115.4245
878.8392, 115.6963
879.3214, 116.0808
879.8035, 116.0369
880.2856, 115.6446
880.7677, 115.3605
881.2498, 115.4083
881.7319, 115.6975
882.2141, 116.3662
882.6962, 117.1483
883.1783, 117.0662
883.6604, 116.1768
884.1425, 115.4635
884.6246, 115.2725
885.1068, 115.4216
885.5889, 115.7707
886.0710, 116.2635
886.5531, 116.4148
887.0352, 116.0580
887.5173, 115.8621
887.9995, 116.1091
888.4816, 116.2496
888.9637, 115.7537
889.4458, 114.9733
889.9279, 114.6414
890.4100, 114.8858
890.8922, 115.1072
891.3743, 115.1845
891.8564, 115.2646
892.3385, 115.4385
892.8206, 115.6352
893.3027, 115.8751
893.7849, 116.0777
894.2670, 115.9038
894.7491, 114.9840
895.2312, 114.0675
895.7133, 114.0278
896.1954, 114.3573
896.6776, 114.1014
897.1597, 113.3751
897.6418, 113.0738
898.1239, 113.5726
898.6060, 114.1944
899.0881, 114.0370
899.5703, 113.2746
900.0524, 112.8755
900.5345, 112.8689
901.0166, 112.5956
901.4987, 111.7892
901.9808, 111.1503
902.4630, 111.3384
902.9451, 112.0582
903.4272, 112.2410
903.9093, 111.4917
904.3914, 111.1273
904.8735, 111.4593
905.3557, 111.7907
905.8378, 111.9981
906.3199, 112.0079
906.8020, 111.6165
907.2841, 110.8589
907.7662, 110.3265
908.2484, 110.2315
908.7305, 110.2975
909.2126, 110.5649
909.6947, 110.8258
910.1768, 110.8519
910.6589, 110.7104
911.1411, 110.6196
911.6232, 110.6629
912.1053, 110.6929
912.5874, 110.4388
913.0695, 110.1823
913.5516, 110.4760
914.0338, 111.1404
914.5159, 111.6347
914.9980, 111.8230
915.4801, 111.7853
915.9622, 111.5466
916.4443, 111.2476
916.9265, 111.3028
917.4086, 111.7100
917.8907, 111.7619
918.3728, 111.3390
918.8549, 110.9719
919.3370, 110.9197
919.8192, 110.9885
920.3013, 110.9072
920.7834, 110.6699
921.2655, 110.5017
921.7476, 110.4362
922.2297, 110.3817
922.7119, 110.2754
923.1940, 110.2279
923.6761, 110.3800
924.1582, 110.6173
924.6403, 110.6739
925.1224, 110.4572
925.6046, 110.3677
926.0867, 110.5608
926.5688, 110.8412
927.0509, 111.2652
927.5330, 111.6168
928.0151, 111.5163
928.4973, 111.0637
928.9794, 110.8497
929.4615, 111.2344
929.9436, 111.7410
930.4257, 112.0063
930.9078, 112.1047
931.3900, 112.0830
931.8721, 112.0007
932.3542, 112.0387
932.8363, 112.2428
933.3184, 112.3856
933.8005, 112.1788
934.2827, 111.8144
934.7648, 111.8235
935.2469, 112.1750
935.7290, 112.6139
936.2111, 113.1056
936.6932, 113.4754
937.1754, 113.5679
937.6575, 113.6621
938.1396, 114.3499
938.6217, 115.7197
939.1038, 116.5297
939.5859, 116.5385
940.0681, 116.6393
940.5502, 117.0890
941.0323, 117.6543
941.5144, 118.0998
941.9965, 118.4951
942.4786, 119.1583
942.9608, 120.2672
943.4429, 121.2672
943.9250, 122.0885
944.4071, 122.8544
944.8892, 123.3494
945.3713, 123.9868
945.8535, 125.2082
946.3356, 127.0384
946.8177, 129.2439
947.2998, 131.6685
947.7819, 134.5895
948.2640, 138.5765
948.7462, 142.7242
949.2283, 146.7361
949.7104, 150.0651
950.1925, 151.9737
950.6746, 152.2118
951.1567, 150.7507
951.6389, 146.8274
952.1210, 141.8486
952.6031, 137.1007
953.0852, 132.8198
953.5673, 129.5625
954.0494, 127.3370
954.5316, 125.8718
955.0137, 125.0427
955.4958, 124.2703
955.9779, 122.6246
956.4600, 120.2907
956.9421, 118.0387
957.4242, 115.8793
957.9063, 114.4260
958.3884, 113.8698
958.8705, 113.6015
959.3527, 113.1381
959.8348, 112.5892
960.3169, 112.3347
960.7990, 112.4794
961.2811, 112.2956
961.7632, 111.5821
962.2454, 111.0868
962.7275, 111.1969
963.2096, 111.4868
963.6917, 111.4882
964.1738, 111.2318
964.6559, 111.0581
965.1381, 111.1040
965.6202, 111.0124
966.1023, 110.4577
966.5844, 110.1274
967.0665, 110.5174
967.5486, 111.1972
968.0308, 111.6073
968.5129, 111.7104
968.9950, 111.7411
969.4771, 112.0555
969.9592, 111.8946
970.4413, 110.4889
970.9235, 108.9689
971.4056, 108.1712
971.8877, 107.9994
972.3698, 108.0882
972.8519, 108.3413
973.3340, 108.9429
973.8162, 110.6538
974.2983, 112.0753
974.7804, 111.9432
975.2625, 110.8585
975.7446, 109.2927
976.2267, 107.6395
976.7089, 106.7108
977.1910, 106.9107
977.6731, 107.5535
978.1552, 108.0702
978.6373, 108.4782
979.1194, 108.6427
979.6016, 108.7407
980.0837, 109.4327
980.5658, 110.7757
981.0479, 112.0094
981.5300, 112.5939
982.0121, 112.9313
982.4943, 113.7157
982.9764, 114.8797
983.4585, 116.1065
983.9406, 117.3737
984.4227, 118.5346
984.9048, 119.5381
985.3870, 120.4070
985.8691, 121.1029
986.3512, 121.7879
986.8333, 123.0652
987.3154, 125.0179
987.7975, 126.7625
988.2797, 128.0198
988.7618, 130.0067
989.2439, 133.1930
989.7260, 137.3573
990.2081, 142.4039
990.6902, 148.2161
991.1724, 153.9523
991.6545, 160.2572
992.1366, 165.0383
992.6187, 168.5884
993.1008, 169.9585
993.5829, 167.8492
994.0651, 163.9229
994.5472, 160.2068
995.0293, 156.7013
995.5114, 153.5753
995.9935, 151.4081
996.4756, 148.7477
996.9578, 145.5482
997.4399, 141.6778
997.9220, 136.7163
998.4041, 131.1939
998.8862, 125.6991
999.3683, 120.3081
999.8505, 115.9540
1000.333, 113.1064
1000.815, 111.0499
1001.297, 109.9718
1001.779, 109.2134
1002.261, 108.1467
1002.743, 107.0157
1003.225, 106.4962
1003.707, 106.7631
1004.190, 106.9373
1004.672, 106.4413
1005.154, 105.8669
1005.636, 105.5696
1006.118, 105.4399
1006.600, 105.3375
1007.082, 105.2679
1007.564, 105.3512
1008.046, 105.6348
1008.529, 105.8111
1009.011, 105.4315
1009.493, 105.0065
1009.975, 105.0775
1010.457, 105.5239
1010.939, 106.1421
1011.421, 106.8949
1011.903, 107.6884
1012.385, 108.4531
1012.868, 109.8460
1013.350, 112.8464
1013.832, 116.8218
1014.314, 120.9144
1014.796, 124.9317
1015.278, 128.4440
1015.760, 131.3504
1016.242, 133.5470
1016.725, 134.9702
1017.207, 135.7472
1017.689, 135.4747
1018.171, 134.7800
1018.653, 135.9771
1019.135, 138.9355
1019.617, 142.6604
1020.099, 146.9247
1020.581, 151.8206
1021.064, 157.3675
1021.546, 163.8900
1022.028, 171.7424
1022.510, 181.0143
1022.992, 192.5053
1023.474, 206.1947
1023.956, 225.9719
1024.438, 253.1656
1024.921, 284.3140
1025.403, 318.5182
1025.885, 350.5747
1026.367, 369.4949
1026.849, 375.5264
1027.331, 361.4347
1027.813, 324.2827
1028.295, 281.8050
1028.777, 236.1876
1029.260, 195.0676
1029.742, 164.6632
1030.224, 143.5551
1030.706, 128.9421
1031.188, 121.6418
1031.670, 116.3505
1032.152, 113.3708
1032.634, 111.5505
1033.116, 110.9010
1033.599, 110.7051
1034.081, 110.4547
1034.563, 110.1454
1035.045, 109.7387
1035.527, 109.1405
1036.009, 108.7645
1036.491, 108.5743
1036.973, 108.6908
1037.456, 109.3268
1037.938, 110.0533
1038.420, 110.4785
1038.902, 110.7146
1039.384, 111.1436
1039.866, 111.7867
1040.348, 112.5592
1040.830, 113.5014
1041.313, 114.5112
1041.795, 115.6268
1042.277, 116.7448
1042.759, 117.8017
1043.241, 118.7917
1043.723, 119.7738
1044.205, 121.1650
1044.687, 121.3815
1045.169, 119.7463
1045.651, 117.7337
1046.134, 115.6523
1046.616, 113.4415
1047.098, 110.8412
1047.580, 108.0946
1048.062, 105.8566
1048.544, 104.2155
1049.026, 102.9723
1049.508, 102.0989
1049.991, 101.6332
1050.473, 102.0166
1050.955, 102.4339
1051.437, 102.0521
1051.919, 101.1735
1052.401, 100.7113
1052.883, 100.8933
1053.365, 101.0441
1053.848, 101.0725
1054.330, 100.9829
1054.812, 100.5742
1055.294, 100.2257
1055.776, 100.4331
1056.258, 100.9298
1056.740, 100.9399
1057.222, 100.2007
1057.704, 99.82456
1058.187, 100.6670
1058.669, 101.2401
1059.151, 100.5108
1059.633, 99.59312
1060.115, 99.47033
1060.597, 99.95084
1061.079, 100.4930
1061.561, 101.0089
1062.043, 101.3333
1062.526, 101.3767
1063.008, 101.2629
1063.490, 100.7562
1063.972, 100.3761
1064.454, 100.7471
1064.936, 101.5468
1065.418, 102.0915
1065.900, 102.2417
1066.383, 102.1964
1066.865, 101.7871
1067.347, 101.5177
1067.829, 101.7607
1068.311, 102.1183
1068.793, 102.3400
1069.275, 102.3768
1069.757, 102.0921
1070.240, 101.4906
1070.722, 101.1699
1071.204, 101.6016
1071.686, 102.0746
1072.168, 102.3401
1072.650, 102.4328
1073.132, 102.2551
1073.614, 101.9850
1074.096, 101.9371
1074.578, 102.1407
1075.061, 102.2948
1075.543, 102.1409
1076.025, 102.1275
1076.507, 102.4988
1076.989, 103.0651
1077.471, 103.7641
1077.953, 104.5143
1078.435, 105.1968
1078.918, 105.8130
1079.400, 106.4804
1079.882, 107.2460
1080.364, 108.0735
1080.846, 109.1414
1081.328, 110.0669
1081.810, 110.6034
1082.292, 110.8101
1082.774, 110.8047
1083.257, 110.5792
1083.739, 109.9740
1084.221, 108.7650
1084.703, 107.6904
1085.185, 107.1942
1085.667, 106.8306
1086.149, 106.2400
1086.631, 105.6638
1087.114, 105.4903
1087.596, 105.6096
1088.078, 105.5413
1088.560, 105.1225
1089.042, 104.6318
1089.524, 104.1537
1090.006, 103.6668
1090.488, 103.1005
1090.970, 102.5674
1091.453, 102.2244
1091.935, 102.0047
1092.417, 101.7195
1092.899, 101.3146
1093.381, 100.9440
1093.863, 100.6615
1094.345, 100.4298
1094.827, 100.2847
1095.309, 100.1388
1095.792, 99.90141
1096.274, 99.61462
1096.756, 99.33358
1097.238, 99.07069
1097.720, 98.96103
1098.202, 99.12327
1098.684, 99.33934
1099.166, 99.56898
1099.649, 99.79515
1100.131, 100.0981
1100.613, 100.3416
1101.095, 100.2384
1101.577, 99.81051
1102.059, 99.60359
1102.541, 99.85842
1103.023, 100.1632
1103.505, 100.5347
1103.988, 100.8021
1104.470, 100.7702
1104.952, 100.6548
1105.434, 100.7252
1105.916, 100.9535
1106.398, 101.0989
1106.880, 101.0404
1107.362, 101.1015
1107.844, 101.4391
1108.327, 101.7684
1108.809, 102.1274
1109.291, 102.3117
1109.773, 102.0477
1110.255, 101.4742
1110.737, 100.9748
1111.219, 100.5290
1111.701, 100.3363
1112.184, 100.7385
1112.666, 100.9396
1113.148, 100.5620
1113.630, 100.1398
1114.112, 100.1215
1114.594, 100.2579
1115.076, 100.0171
1115.558, 99.32930
1116.041, 98.97904
1116.523, 99.34566
1117.005, 99.39288
1117.487, 98.74721
1117.969, 98.15140
1118.451, 98.01286
1118.933, 98.05505
1119.415, 97.88290
1119.897, 97.53870
1120.380, 97.52628
1120.862, 98.14277
1121.344, 98.32587
1121.826, 97.81083
1122.308, 97.34414
1122.790, 97.15018
1123.272, 97.17036
1123.754, 97.41232
1124.236, 97.78271
1124.719, 97.96288
1125.201, 97.93082
1125.683, 97.80220
1126.165, 97.51787
1126.647, 97.38731
1127.129, 97.53350
1127.611, 97.67446
1128.093, 97.59937
1128.576, 97.44350
1129.058, 97.48062
1129.540, 97.69534
1130.022, 97.74037
1130.504, 97.60533
1130.986, 97.34921
1131.468, 96.94141
1131.950, 96.86166
1132.432, 97.37745
1132.915, 98.08604
1133.397, 98.51993
1133.879, 98.72013
1134.361, 98.80400
1134.843, 98.78069
1135.325, 98.79307
1135.807, 98.83899
1136.289, 98.62785
1136.771, 98.07479
1137.254, 97.64051
1137.736, 97.70340
1138.218, 98.07761
1138.700, 98.59110
1139.182, 99.10140
1139.664, 98.98483
1140.146, 98.40665
1140.628, 98.11852
1141.111, 98.24117
1141.593, 98.47020
1142.075, 98.64651
1142.557, 98.86781
1143.039, 99.27444
1143.521, 99.77385
1144.003, 100.2811
1144.485, 100.7302
1144.968, 100.9436
1145.450, 100.9723
1145.932, 100.9912
1146.414, 101.0710
1146.896, 101.2804
1147.378, 101.7384
1147.860, 102.1974
1148.342, 102.3509
1148.824, 102.4300
1149.307, 102.6509
1149.789, 103.0288
1150.271, 103.5072
1150.753, 104.1194
1151.235, 105.0475
1151.717, 106.4184
1152.199, 107.8677
1152.681, 109.3251
1153.163, 110.6319
1153.646, 111.8600
1154.128, 112.7374
1154.610, 113.0673
1155.092, 112.7978
1155.574, 111.5042
1156.056, 109.0507
1156.538, 107.8732
1157.020, 110.7227
1157.503, 111.9902
1157.985, 108.8453
1158.467, 105.0085
1158.949, 102.1500
1159.431, 100.2517
1159.913, 99.51131
1160.395, 99.72770
1160.877, 99.41689
1161.359, 97.89811
1161.842, 97.05816
1162.324, 97.25319
1162.806, 97.61617
1163.288, 98.08907
1163.770, 98.43080
1164.252, 98.41553
1164.734, 98.17860
1165.216, 98.02731
1165.698, 97.97957
1166.181, 97.78769
1166.663, 97.43800
1167.145, 96.97519
1167.627, 96.34148
1168.109, 95.81137
1168.591, 95.49087
1169.073, 95.44377
1169.555, 95.83739
1170.037, 96.43608
1170.520, 96.24541
1171.002, 95.29311
1171.484, 94.66262
1171.966, 94.40112
1172.448, 94.31170
1172.930, 94.34196
1173.412, 94.58572
1173.894, 95.13744
1174.377, 95.63913
1174.859, 95.47812
1175.341, 94.88402
1175.823, 94.36935
1176.305, 93.98957
1176.787, 93.96690
1177.269, 94.26141
1177.751, 94.66430
1178.234, 95.07239
1178.716, 95.26611
1179.198, 94.94786
1179.680, 94.62450
1180.162, 94.98178
1180.644, 95.55159
1181.126, 95.75489
1181.608, 95.71612
1182.090, 95.68403
1182.573, 95.70708
1183.055, 95.74380
1183.537, 95.76976
1184.019, 95.87257
1184.501, 96.29345
1184.983, 96.55697
1185.465, 96.15857
1185.947, 95.71470
1186.429, 95.76455
1186.912, 96.15547
1187.394, 96.61369
1187.876, 97.09394
1188.358, 97.42007
1188.840, 97.45477
1189.322, 97.50906
1189.804, 97.80993
1190.286, 97.87121
1190.769, 97.35767
1191.251, 96.72243
1191.733, 96.28802
1192.215, 96.05713
1192.697, 96.09947
1193.179, 96.50174
1193.661, 96.34532
1194.143, 95.33564
1194.625, 94.93193
1195.108, 95.47892
1195.590, 96.13665
1196.072, 96.55103
1196.554, 96.69075
1197.036, 96.48180
1197.518, 96.04021
1198.000, 95.66999
1198.482, 95.38834
1198.964, 95.42455
1199.447, 95.72697
1199.929, 95.71993
1200.411, 95.32104
1200.893, 95.10807
1201.375, 95.41677
1201.857, 95.96833
1202.339, 96.59256
1202.821, 97.11839
1203.304, 97.13935
1203.786, 96.93662
1204.268, 96.96836
1204.750, 97.23733
1205.232, 97.64922
1205.714, 98.15191
1206.196, 98.63039
1206.678, 99.01759
1207.161, 99.39019
1207.643, 99.65308
1208.125, 100.0801
1208.607, 100.9397
1209.089, 102.0008
1209.571, 102.9302
1210.053, 103.8789
1210.535, 105.3486
1211.017, 107.4462
1211.500, 109.2572
1211.982, 110.3966
1212.464, 111.6534
1212.946, 112.9630
1213.428, 114.6231
1213.910, 116.6686
1214.392, 119.1739
1214.874, 122.0037
1215.356, 125.4626
1215.839, 130.6408
1216.321, 137.7667
1216.803, 144.7237
1217.285, 151.8599
1217.767, 156.4382
1218.249, 157.9189
1218.731, 157.2107
1219.213, 154.5826
1219.696, 151.4577
1220.178, 149.1470
1220.660, 148.0840
1221.142, 149.8568
1221.624, 153.6057
1222.106, 157.5266
1222.588, 160.6487
1223.070, 159.9789
1223.552, 155.3165
1224.035, 148.4440
1224.517, 140.1799
1224.999, 132.1156
1225.481, 125.4174
1225.963, 119.7090
1226.445, 114.6726
1226.927, 110.5171
1227.409, 107.7352
1227.891, 105.8713
1228.374, 104.1569
1228.856, 102.5475
1229.338, 101.4702
1229.820, 101.2186
1230.302, 100.8981
1230.784, 100.2306
1231.266, 99.56721
1231.748, 98.81409
1232.231, 98.33333
1232.713, 98.51575
1233.195, 98.95141
1233.677, 99.08851
1234.159, 98.94258
1234.641, 98.63829
1235.123, 98.15702
1235.605, 97.57922
1236.088, 96.87885
1236.570, 96.23923
1237.052, 95.69700
1237.534, 95.29729
1238.016, 95.06316
1238.498, 95.04177
1238.980, 95.39172
1239.462, 95.90561
1239.944, 95.97417
1240.427, 95.75275
1240.909, 95.64924
1241.391, 95.70334
1241.873, 95.94009
1242.355, 96.32475
1242.837, 96.70022
1243.319, 97.01440
1243.801, 97.08728
1244.283, 96.48180
1244.766, 95.93996
1245.248, 96.13947
1245.730, 96.58130
1246.212, 96.78515
1246.694, 96.84666
1247.176, 97.01546
1247.658, 97.30250
1248.140, 97.51054
1248.622, 97.61326
1249.105, 97.63041
1249.587, 97.57029
1250.069, 97.39574
1250.551, 96.93385
1251.033, 96.64532
1251.515, 96.84561
1251.997, 97.34328
1252.479, 97.91631
1252.962, 98.49343
1253.444, 98.61077
1253.926, 98.27913
1254.408, 98.07347
1254.890, 98.01794
1255.372, 97.90048
1255.854, 97.69756
1256.336, 97.87210
1256.818, 98.70969
1257.301, 99.26224
1257.783, 98.05724
1258.265, 96.47366
1258.747, 96.57027
1259.229, 97.34502
1259.711, 97.45287
1260.193, 97.11983
1260.675, 97.01148
1261.157, 97.16273
1261.640, 97.00793
1262.122, 96.10265
1262.604, 96.25399
1263.086, 99.71873
1263.568, 101.9326
1264.050, 100.4810
1264.532, 98.44148
1265.014, 97.46816
1265.497, 97.00996
1265.979, 96.42489
1266.461, 95.82442
1266.943, 95.72285
1267.425, 96.19892
1267.907, 96.60880
1268.389, 96.96006
1268.871, 97.17819
1269.354, 97.25146
1269.836, 97.07373
1270.318, 96.59132
1270.800, 96.13321
1271.282, 96.00745
1271.764, 96.12609
1272.246, 96.43321
1272.728, 96.82796
1273.210, 97.19395
1273.693, 97.47667
1274.175, 97.47785
1274.657, 97.33121
1275.139, 97.56745
1275.621, 98.29762
1276.103, 98.65389
1276.585, 97.79260
1277.067, 97.30331
1277.549, 98.05648
1278.032, 98.86068
1278.514, 98.99169
1278.996, 99.08037
1279.478, 99.75237
1279.960, 100.7077
1280.442, 101.3560
1280.924, 101.7072
1281.406, 102.0934
1281.889, 102.5126
1282.371, 102.9847
1282.853, 103.5095
1283.335, 104.2004
1283.817, 105.0946
1284.299, 106.0110
1284.781, 106.8142
1285.263, 107.8169
1285.745, 109.3282
1286.228, 111.3507
##END=



