##NAMES=Carrollite
##RRUFFID=R050089
##IDEAL CHEMISTRY=Cu^1+^Co^3+^_2_S_4_
##LOCALITY=Kambove, Katanga, Democratic Republic of the Congo
##OWNER=RRUFF
##SOURCE=Rock Currier
##DESCRIPTION=Steel-gray octahedral crystal associated with calcite
##STATUS=The identification of this mineral has been confirmed by X-ray diffraction and chemical analysis
##URL=rruff.info/R050089
##MEASURED CHEMISTRY=(Cu_0.96_Fe^2+^_0.04_)_Σ=1_Co_2.00_S_4.00_ ; the vein is pyrite: (Fe_0.99_Co_0.01_)_Σ=1_S_2.00_
174.5441, 1391.158
175.0262, 1399.710
175.5084, 1397.364
175.9905, 1387.958
176.4726, 1381.339
176.9547, 1376.197
177.4368, 1376.942
177.9189, 1389.316
178.4010, 1406.653
178.8832, 1419.332
179.3653, 1421.209
179.8474, 1416.896
180.3295, 1421.316
180.8116, 1442.467
181.2937, 1458.000
181.7759, 1457.535
182.2580, 1449.392
182.7401, 1443.691
183.2222, 1445.467
183.7043, 1452.562
184.1864, 1459.274
184.6686, 1466.813
185.1507, 1471.480
185.6328, 1471.533
186.1149, 1468.990
186.5970, 1465.489
187.0791, 1461.321
187.5613, 1457.963
188.0434, 1460.080
188.5255, 1472.770
189.0076, 1482.067
189.4897, 1481.407
189.9718, 1477.795
190.4540, 1478.860
190.9361, 1488.184
191.4182, 1502.529
191.9003, 1514.678
192.3824, 1526.565
192.8645, 1532.125
193.3467, 1529.437
193.8288, 1521.647
194.3109, 1509.073
194.7930, 1491.633
195.2751, 1475.526
195.7572, 1476.199
196.2394, 1508.215
196.7215, 1529.698
197.2036, 1530.112
197.6857, 1522.414
198.1678, 1516.680
198.6499, 1516.453
199.1321, 1520.350
199.6142, 1526.654
200.0963, 1539.006
200.5784, 1546.157
201.0605, 1542.998
201.5426, 1537.826
202.0248, 1538.387
202.5069, 1546.383
202.9890, 1555.692
203.4711, 1555.219
203.9532, 1537.286
204.4353, 1527.006
204.9175, 1528.321
205.3996, 1534.364
205.8817, 1542.210
206.3638, 1550.551
206.8459, 1557.645
207.3280, 1560.892
207.8102, 1558.864
208.2923, 1556.372
208.7744, 1551.527
209.2565, 1547.728
209.7386, 1547.407
210.2207, 1550.586
210.7029, 1555.339
211.1850, 1560.418
211.6671, 1567.746
212.1492, 1567.868
212.6313, 1548.366
213.1134, 1532.657
213.5956, 1535.605
214.0777, 1554.978
214.5598, 1576.974
215.0419, 1588.110
215.5240, 1586.944
216.0061, 1583.981
216.4883, 1573.730
216.9704, 1566.757
217.4525, 1569.839
217.9346, 1580.294
218.4167, 1589.819
218.8988, 1590.697
219.3810, 1582.538
219.8631, 1579.999
220.3452, 1588.591
220.8273, 1597.784
221.3094, 1605.185
221.7915, 1611.018
222.2737, 1616.328
222.7558, 1621.787
223.2379, 1627.390
223.7200, 1632.616
224.2021, 1638.596
224.6842, 1642.812
225.1664, 1644.562
225.6485, 1644.286
226.1306, 1642.132
226.6127, 1637.839
227.0948, 1632.533
227.5770, 1631.079
228.0591, 1636.702
228.5412, 1642.105
229.0233, 1643.655
229.5054, 1645.159
229.9875, 1652.506
230.4697, 1668.631
230.9518, 1688.184
231.4339, 1696.954
231.9160, 1684.492
232.3981, 1679.178
232.8802, 1690.142
233.3624, 1705.696
233.8445, 1715.131
234.3266, 1715.015
234.8087, 1710.852
235.2908, 1712.438
235.7729, 1723.101
236.2551, 1731.687
236.7372, 1734.472
237.2193, 1737.098
237.7014, 1743.887
238.1835, 1755.408
238.6656, 1768.511
239.1478, 1780.003
239.6299, 1790.454
240.1120, 1797.056
240.5941, 1797.526
241.0762, 1795.917
241.5583, 1791.813
242.0405, 1786.562
242.5226, 1784.348
243.0047, 1790.422
243.4868, 1805.703
243.9689, 1818.375
244.4510, 1826.816
244.9332, 1834.039
245.4153, 1842.007
245.8974, 1849.792
246.3795, 1854.731
246.8616, 1853.957
247.3437, 1848.314
247.8259, 1845.190
248.3080, 1843.296
248.7901, 1846.254
249.2722, 1857.206
249.7543, 1872.978
250.2364, 1889.028
250.7186, 1904.051
251.2007, 1916.675
251.6828, 1921.809
252.1649, 1914.341
252.6470, 1909.832
253.1291, 1915.298
253.6113, 1925.105
254.0934, 1933.219
254.5755, 1937.261
255.0576, 1939.639
255.5397, 1945.020
256.0219, 1955.023
256.5040, 1961.768
256.9861, 1959.587
257.4682, 1955.184
257.9503, 1954.203
258.4324, 1957.969
258.9146, 1960.950
259.3967, 1955.353
259.8788, 1940.595
260.3609, 1931.047
260.8430, 1935.329
261.3251, 1940.346
261.8073, 1933.610
262.2894, 1915.813
262.7715, 1902.268
263.2536, 1909.538
263.7357, 1932.828
264.2178, 1942.908
264.7000, 1930.633
265.1821, 1913.951
265.6642, 1905.620
266.1463, 1903.864
266.6284, 1903.231
267.1105, 1903.848
267.5927, 1903.368
268.0748, 1895.578
268.5569, 1878.351
269.0390, 1860.362
269.5211, 1847.802
270.0032, 1838.614
270.4854, 1829.329
270.9675, 1815.941
271.4496, 1804.654
271.9317, 1805.707
272.4138, 1819.576
272.8959, 1829.022
273.3781, 1822.630
273.8602, 1807.523
274.3423, 1798.397
274.8244, 1799.193
275.3065, 1799.988
275.7886, 1794.056
276.2708, 1782.503
276.7529, 1768.844
277.2350, 1752.150
277.7171, 1736.947
278.1992, 1731.880
278.6813, 1738.838
279.1635, 1744.563
279.6456, 1742.778
280.1277, 1737.005
280.6098, 1733.331
281.0919, 1733.206
281.5740, 1734.544
282.0562, 1735.716
282.5383, 1736.974
283.0204, 1734.753
283.5025, 1720.049
283.9846, 1707.141
284.4667, 1713.599
284.9489, 1739.102
285.4310, 1762.991
285.9131, 1767.660
286.3952, 1753.147
286.8773, 1743.494
287.3594, 1743.446
287.8416, 1743.175
288.3237, 1736.262
288.8058, 1725.067
289.2879, 1716.318
289.7700, 1713.842
290.2521, 1716.440
290.7343, 1719.258
291.2164, 1723.626
291.6985, 1726.583
292.1806, 1729.675
292.6627, 1730.401
293.1448, 1723.073
293.6270, 1705.966
294.1091, 1687.187
294.5912, 1681.994
295.0733, 1704.257
295.5554, 1713.728
296.0375, 1698.854
296.5197, 1680.482
297.0018, 1673.493
297.4839, 1679.205
297.9660, 1689.863
298.4481, 1698.019
298.9302, 1703.713
299.4124, 1706.482
299.8945, 1703.080
300.3766, 1700.084
300.8587, 1699.544
301.3408, 1701.196
301.8229, 1704.218
302.3050, 1708.311
302.7871, 1713.078
303.2693, 1716.698
303.7514, 1720.679
304.2335, 1720.867
304.7156, 1713.485
305.1977, 1703.602
305.6798, 1696.431
306.1620, 1693.901
306.6441, 1694.630
307.1262, 1697.524
307.6083, 1704.212
308.0904, 1706.904
308.5725, 1699.295
309.0547, 1690.634
309.5368, 1686.946
310.0189, 1688.519
310.5010, 1690.676
310.9831, 1689.138
311.4652, 1684.272
311.9474, 1680.266
312.4295, 1678.307
312.9116, 1675.907
313.3937, 1670.710
313.8758, 1663.825
314.3579, 1658.207
314.8401, 1654.975
315.3222, 1653.908
315.8043, 1656.293
316.2864, 1663.372
316.7685, 1666.403
317.2506, 1656.126
317.7328, 1640.253
318.2149, 1632.345
318.6970, 1638.537
319.1791, 1644.940
319.6612, 1638.076
320.1433, 1621.516
320.6255, 1611.763
321.1076, 1615.905
321.5897, 1626.951
322.0718, 1635.726
322.5539, 1643.598
323.0360, 1643.832
323.5182, 1626.521
324.0003, 1603.889
324.4824, 1593.176
324.9645, 1597.185
325.4466, 1604.655
325.9287, 1604.642
326.4109, 1596.187
326.8930, 1591.345
327.3751, 1594.633
327.8572, 1597.237
328.3393, 1592.783
328.8214, 1583.233
329.3036, 1574.888
329.7857, 1571.369
330.2678, 1571.937
330.7499, 1573.379
331.2320, 1577.240
331.7141, 1580.068
332.1963, 1581.309
332.6784, 1581.445
333.1605, 1581.268
333.6426, 1580.936
334.1247, 1579.495
334.6068, 1574.828
335.0890, 1563.821
335.5711, 1558.301
336.0532, 1564.421
336.5353, 1569.940
337.0174, 1565.845
337.4995, 1554.855
337.9817, 1547.687
338.4638, 1555.239
338.9459, 1574.594
339.4280, 1578.032
339.9101, 1550.396
340.3922, 1529.105
340.8744, 1529.802
341.3565, 1540.632
341.8386, 1546.353
342.3207, 1540.792
342.8028, 1530.525
343.2849, 1525.849
343.7671, 1527.849
344.2492, 1527.479
344.7313, 1518.965
345.2134, 1510.269
345.6955, 1509.030
346.1776, 1515.358
346.6598, 1520.555
347.1419, 1518.057
347.6240, 1510.266
348.1061, 1503.132
348.5882, 1496.565
349.0703, 1492.787
349.5525, 1497.085
350.0346, 1506.047
350.5167, 1509.103
350.9988, 1497.607
351.4809, 1484.924
351.9630, 1483.902
352.4452, 1492.300
352.9273, 1497.962
353.4094, 1494.664
353.8915, 1485.696
354.3736, 1478.945
354.8557, 1471.846
355.3379, 1471.274
355.8200, 1487.838
356.3021, 1507.671
356.7842, 1511.705
357.2663, 1496.644
357.7484, 1476.815
358.2306, 1468.658
358.7127, 1475.292
359.1948, 1476.258
359.6769, 1465.306
360.1590, 1455.751
360.6411, 1456.527
361.1233, 1463.278
361.6054, 1465.297
362.0875, 1455.730
362.5696, 1438.644
363.0517, 1428.818
363.5338, 1428.913
364.0160, 1432.691
364.4981, 1441.918
364.9802, 1452.460
365.4623, 1462.034
365.9444, 1469.682
366.4265, 1473.817
366.9087, 1471.314
367.3908, 1461.648
367.8729, 1453.628
368.3550, 1446.950
368.8371, 1442.935
369.3192, 1444.173
369.8014, 1448.355
370.2835, 1449.903
370.7656, 1444.858
371.2477, 1436.800
371.7298, 1431.393
372.2119, 1428.702
372.6941, 1428.239
373.1762, 1431.428
373.6583, 1435.816
374.1404, 1437.333
374.6225, 1434.881
375.1046, 1433.087
375.5868, 1436.285
376.0689, 1441.513
376.5510, 1441.539
377.0331, 1424.985
377.5152, 1437.004
377.9973, 1443.742
378.4795, 1445.484
378.9616, 1427.264
379.4437, 1434.820
379.9258, 1432.046
380.4079, 1428.849
380.8900, 1440.034
381.3722, 1424.717
381.8543, 1435.673
382.3364, 1436.142
382.8185, 1441.411
383.3006, 1436.285
383.7827, 1434.370
384.2649, 1442.853
384.7470, 1445.578
385.2291, 1439.256
385.7112, 1444.830
386.1933, 1429.150
386.6754, 1432.120
387.1576, 1443.138
387.6397, 1437.339
388.1218, 1432.453
388.6039, 1429.413
389.0860, 1421.852
389.5681, 1412.008
390.0503, 1403.014
390.5324, 1395.712
391.0145, 1391.026
391.4966, 1391.412
391.9787, 1397.514
392.4608, 1402.592
392.9430, 1404.941
393.4251, 1405.417
393.9072, 1404.519
394.3893, 1402.294
394.8714, 1400.367
395.3535, 1400.410
395.8357, 1400.962
396.3178, 1399.075
396.7999, 1394.354
397.2820, 1389.839
397.7641, 1387.767
398.2462, 1387.728
398.7284, 1387.088
399.2105, 1383.912
399.6926, 1382.299
400.1747, 1387.171
400.6568, 1393.882
401.1389, 1392.695
401.6211, 1380.338
402.1032, 1365.977
402.5853, 1363.498
403.0674, 1377.929
403.5495, 1389.450
404.0316, 1399.860
404.5138, 1406.276
404.9959, 1405.518
405.4780, 1399.500
405.9601, 1392.852
406.4422, 1388.590
406.9243, 1385.678
407.4065, 1380.023
407.8886, 1368.732
408.3707, 1360.751
408.8528, 1361.536
409.3349, 1363.539
409.8170, 1359.222
410.2992, 1347.974
410.7813, 1338.288
411.2634, 1339.036
411.7455, 1348.124
412.2276, 1354.491
412.7097, 1356.257
413.1919, 1358.086
413.6740, 1365.648
414.1561, 1375.412
414.6382, 1379.529
415.1203, 1372.142
415.6024, 1364.148
416.0846, 1365.042
416.5667, 1372.023
417.0488, 1376.413
417.5309, 1375.173
418.0130, 1370.494
418.4951, 1364.761
418.9773, 1356.247
419.4594, 1353.294
419.9415, 1362.843
420.4236, 1372.614
420.9057, 1374.332
421.3878, 1368.770
421.8700, 1360.488
422.3521, 1352.126
422.8342, 1343.910
423.3163, 1336.545
423.7984, 1326.686
424.2805, 1323.367
424.7627, 1331.162
425.2448, 1342.733
425.7269, 1354.992
426.2090, 1366.074
426.6911, 1370.909
427.1732, 1360.476
427.6554, 1336.618
428.1375, 1322.466
428.6196, 1319.716
429.1017, 1323.676
429.5838, 1337.707
430.0659, 1355.183
430.5481, 1365.897
431.0302, 1366.292
431.5123, 1362.004
431.9944, 1355.408
432.4765, 1347.613
432.9586, 1342.780
433.4408, 1342.241
433.9229, 1344.084
434.4050, 1346.939
434.8871, 1351.097
435.3692, 1352.269
435.8513, 1344.755
436.3335, 1339.112
436.8156, 1345.035
437.2977, 1358.226
437.7798, 1366.745
438.2619, 1364.181
438.7440, 1355.188
439.2262, 1351.581
439.7083, 1356.249
440.1904, 1361.439
440.6725, 1367.551
441.1546, 1373.616
441.6367, 1380.673
442.1189, 1387.484
442.6010, 1389.990
443.0831, 1383.252
443.5652, 1370.538
444.0473, 1364.398
444.5294, 1365.617
445.0116, 1371.309
445.4937, 1389.247
445.9758, 1406.513
446.4579, 1406.215
446.9400, 1383.449
447.4221, 1365.863
447.9043, 1377.844
448.3864, 1405.552
448.8685, 1417.646
449.3506, 1408.971
449.8327, 1400.261
450.3148, 1409.593
450.7970, 1434.439
451.2791, 1447.987
451.7612, 1437.278
452.2433, 1431.223
452.7254, 1444.428
453.2076, 1466.125
453.6897, 1480.287
454.1718, 1482.594
454.6539, 1481.561
455.1360, 1488.756
455.6181, 1506.458
456.1003, 1519.410
456.5824, 1523.332
457.0645, 1526.550
457.5466, 1528.821
458.0287, 1532.690
458.5108, 1542.850
458.9930, 1562.206
459.4751, 1584.095
459.9572, 1597.293
460.4393, 1601.541
460.9214, 1612.520
461.4035, 1638.204
461.8857, 1664.599
462.3678, 1677.759
462.8499, 1680.123
463.3320, 1684.276
463.8141, 1691.864
464.2962, 1704.085
464.7784, 1725.855
465.2605, 1754.116
465.7426, 1776.175
466.2247, 1785.605
466.7068, 1789.197
467.1889, 1800.080
467.6711, 1823.184
468.1532, 1843.580
468.6353, 1863.562
469.1174, 1878.979
469.5995, 1883.659
470.0816, 1881.138
470.5638, 1882.099
471.0459, 1894.507
471.5280, 1911.694
472.0101, 1913.459
472.4922, 1895.136
472.9743, 1874.032
473.4565, 1850.468
473.9386, 1827.665
474.4207, 1809.992
474.9028, 1796.571
475.3849, 1778.809
475.8670, 1746.978
476.3492, 1709.629
476.8313, 1683.856
477.3134, 1670.203
477.7955, 1650.689
478.2776, 1612.945
478.7597, 1566.517
479.2419, 1535.360
479.7240, 1525.636
480.2061, 1513.500
480.6882, 1490.010
481.1703, 1465.158
481.6524, 1448.328
482.1346, 1439.663
482.6167, 1434.114
483.0988, 1428.228
483.5809, 1421.842
484.0630, 1413.726
484.5451, 1401.919
485.0273, 1391.611
485.5094, 1381.281
485.9915, 1374.065
486.4736, 1375.566
486.9557, 1384.748
487.4378, 1390.874
487.9200, 1382.125
488.4021, 1364.028
488.8842, 1353.756
489.3663, 1352.396
489.8484, 1353.664
490.3305, 1356.617
490.8127, 1359.070
491.2948, 1356.593
491.7769, 1347.567
492.2590, 1338.407
492.7411, 1327.790
493.2232, 1320.166
493.7054, 1323.627
494.1875, 1337.167
494.6696, 1349.207
495.1517, 1350.439
495.6338, 1342.922
496.1159, 1340.217
496.5981, 1348.694
497.0802, 1353.047
497.5623, 1350.994
498.0444, 1345.001
498.5265, 1335.146
499.0086, 1322.623
499.4908, 1312.051
499.9729, 1308.032
500.4550, 1308.969
500.9371, 1308.658
501.4192, 1306.493
501.9013, 1305.846
502.3835, 1310.342
502.8656, 1315.887
503.3477, 1314.878
503.8298, 1304.620
504.3119, 1298.745
504.7940, 1309.060
505.2762, 1322.605
505.7583, 1321.255
506.2404, 1305.862
506.7225, 1293.377
507.2046, 1295.727
507.6867, 1309.093
508.1689, 1316.721
508.6510, 1313.790
509.1331, 1311.973
509.6152, 1314.126
510.0973, 1315.865
510.5794, 1312.638
511.0616, 1305.367
511.5437, 1299.567
512.0258, 1299.748
512.5079, 1303.888
512.9901, 1306.829
513.4722, 1308.588
513.9543, 1308.665
514.4364, 1304.986
514.9185, 1283.420
515.4006, 1305.177
515.8828, 1317.333
516.3649, 1320.405
516.8470, 1287.182
517.3291, 1300.825
517.8112, 1295.687
518.2933, 1289.778
518.7755, 1310.018
519.2576, 1282.074
519.7397, 1301.900
520.2218, 1302.656
520.7039, 1312.140
521.1860, 1302.726
521.6682, 1299.149
522.1503, 1314.476
522.6324, 1319.336
523.1145, 1307.746
523.5966, 1317.785
524.0787, 1289.180
524.5609, 1294.486
525.0430, 1314.422
525.5251, 1303.782
526.0072, 1314.167
526.4893, 1316.544
526.9714, 1282.533
527.4536, 1311.805
527.9357, 1313.709
528.4178, 1287.512
528.8999, 1314.616
529.3820, 1292.293
529.8641, 1287.612
530.3463, 1296.209
530.8284, 1290.964
531.3105, 1307.541
531.7926, 1303.096
532.2747, 1296.773
532.7568, 1298.646
533.2390, 1277.293
533.7211, 1299.030
534.2032, 1291.332
534.6853, 1301.846
535.1674, 1313.448
535.6495, 1319.692
536.1317, 1317.713
536.6138, 1311.811
537.0959, 1302.709
537.5780, 1292.792
538.0601, 1291.734
538.5422, 1301.875
539.0244, 1311.501
539.5065, 1311.886
539.9886, 1304.890
540.4707, 1300.036
540.9528, 1298.322
541.4349, 1297.049
541.9171, 1295.353
542.3992, 1294.062
542.8813, 1295.476
543.3634, 1298.706
543.8455, 1298.401
544.3276, 1288.763
544.8098, 1273.655
545.2919, 1271.763
545.7740, 1289.580
546.2561, 1302.807
546.7382, 1302.439
547.2203, 1297.170
547.7025, 1291.930
548.1846, 1287.327
548.6666, 1285.679
549.1487, 1291.184
549.6309, 1297.932
550.1130, 1299.312
550.5951, 1296.045
551.0772, 1291.834
551.5593, 1288.140
552.0414, 1283.943
552.5236, 1276.982
553.0057, 1264.458
553.4878, 1258.814
553.9699, 1264.305
554.4520, 1271.049
554.9341, 1274.099
555.4163, 1276.085
555.8984, 1283.459
556.3805, 1298.896
556.8626, 1312.062
557.3447, 1307.210
557.8268, 1287.018
558.3090, 1273.174
558.7911, 1267.872
559.2732, 1268.502
559.7553, 1276.967
560.2374, 1289.701
560.7195, 1295.377
561.2017, 1291.100
561.6838, 1284.739
562.1659, 1273.217
562.6480, 1264.186
563.1301, 1270.327
563.6122, 1289.276
564.0944, 1303.477
564.5765, 1299.318
565.0586, 1282.027
565.5407, 1272.847
566.0228, 1276.244
566.5049, 1276.433
566.9871, 1262.876
567.4692, 1251.746
567.9513, 1258.547
568.4334, 1278.682
568.9155, 1289.591
569.3976, 1272.757
569.8798, 1250.699
570.3619, 1247.430
570.8440, 1258.332
571.3261, 1268.009
571.8082, 1271.742
572.2903, 1273.348
572.7725, 1277.661
573.2546, 1285.359
573.7367, 1289.394
574.2188, 1287.213
574.7009, 1284.659
575.1830, 1281.728
575.6652, 1279.938
576.1473, 1282.679
576.6294, 1289.964
577.1115, 1294.717
577.5936, 1285.573
578.0757, 1268.816
578.5579, 1268.297
579.0400, 1286.367
579.5221, 1302.891
580.0042, 1309.333
580.4863, 1308.328
580.9684, 1303.163
581.4506, 1291.768
581.9327, 1285.269
582.4148, 1290.079
582.8969, 1295.862
583.3790, 1295.366
583.8611, 1290.415
584.3433, 1285.528
584.8254, 1282.770
585.3075, 1282.339
585.7896, 1285.815
586.2717, 1293.864
586.7538, 1297.371
587.2360, 1292.838
587.7181, 1288.828
588.2002, 1293.943
588.6823, 1301.812
589.1644, 1300.768
589.6465, 1285.315
590.1287, 1271.424
590.6108, 1268.675
591.0929, 1270.766
591.5750, 1268.651
592.0571, 1262.543
592.5392, 1259.987
593.0214, 1266.546
593.5035, 1278.569
593.9856, 1284.490
594.4677, 1281.056
594.9498, 1279.189
595.4319, 1282.902
595.9141, 1285.485
596.3962, 1281.889
596.8783, 1274.505
597.3604, 1270.074
597.8425, 1273.243
598.3246, 1275.910
598.8068, 1266.839
599.2889, 1251.873
599.7710, 1247.312
600.2531, 1256.311
600.7352, 1269.025
601.2173, 1277.893
601.6995, 1282.994
602.1816, 1284.898
602.6637, 1279.568
603.1458, 1276.526
603.6279, 1279.439
604.1100, 1282.528
604.5922, 1279.806
605.0743, 1272.743
605.5564, 1269.020
606.0385, 1275.386
606.5206, 1284.262
607.0027, 1280.418
607.4849, 1266.450
607.9670, 1265.871
608.4491, 1288.001
608.9312, 1310.959
609.4133, 1311.137
609.8954, 1288.395
610.3776, 1274.640
610.8597, 1274.640
611.3418, 1276.683
611.8239, 1280.840
612.3060, 1284.021
612.7881, 1282.350
613.2703, 1276.094
613.7524, 1269.475
614.2345, 1265.669
614.7166, 1263.767
615.1987, 1260.633
615.6808, 1256.026
616.1630, 1256.378
616.6451, 1265.744
617.1272, 1276.782
617.6093, 1281.308
618.0914, 1279.165
618.5735, 1275.893
619.0557, 1268.628
619.5378, 1263.814
620.0199, 1267.567
620.5020, 1273.370
620.9841, 1270.339
621.4662, 1258.174
621.9484, 1249.892
622.4305, 1260.253
622.9126, 1282.561
623.3947, 1288.610
623.8768, 1275.311
624.3589, 1263.528
624.8411, 1258.768
625.3232, 1259.026
625.8053, 1264.441
626.2874, 1274.650
626.7695, 1279.832
627.2516, 1275.498
627.7338, 1269.221
628.2159, 1262.983
628.6980, 1257.953
629.1801, 1254.860
629.6622, 1254.251
630.1443, 1258.421
630.6265, 1272.449
631.1086, 1292.741
631.5907, 1297.047
632.0728, 1280.329
632.5549, 1267.528
633.0370, 1268.496
633.5192, 1274.296
634.0013, 1274.176
634.4834, 1268.560
634.9655, 1266.307
635.4476, 1277.195
635.9297, 1283.445
636.4119, 1265.975
636.8940, 1240.683
637.3761, 1234.961
637.8582, 1253.827
638.3403, 1278.676
638.8224, 1292.696
639.3046, 1296.258
639.7867, 1289.016
640.2688, 1266.412
640.7509, 1249.001
641.2330, 1242.395
641.7151, 1243.877
642.1973, 1253.578
642.6794, 1270.511
643.1615, 1281.684
643.6436, 1281.487
644.1257, 1278.016
644.6078, 1272.745
645.0900, 1268.243
645.5721, 1269.404
646.0542, 1276.554
646.5363, 1284.394
647.0184, 1288.651
647.5005, 1289.106
647.9827, 1282.901
648.4648, 1267.092
648.9469, 1256.657
649.4290, 1256.409
649.9111, 1261.860
650.3932, 1272.382
650.8754, 1286.365
651.3575, 1291.735
651.8396, 1278.965
652.3217, 1265.732
652.8038, 1258.844
653.2859, 1257.123
653.7681, 1260.889
654.2502, 1268.849
654.7323, 1275.460
655.2144, 1275.867
655.6965, 1272.027
656.1786, 1271.005
656.6608, 1273.768
657.1429, 1272.959
657.6250, 1264.824
658.1071, 1255.920
658.5892, 1251.795
659.0714, 1251.881
659.5535, 1254.216
660.0356, 1262.555
660.5177, 1268.229
660.9998, 1265.542
661.4819, 1260.489
661.9641, 1259.243
662.4462, 1262.188
662.9283, 1267.202
663.4104, 1273.813
663.8925, 1278.896
664.3746, 1272.865
664.8568, 1255.137
665.3389, 1246.286
665.8210, 1251.765
666.3031, 1261.240
666.7852, 1269.401
667.2673, 1275.244
667.7495, 1274.952
668.2316, 1261.044
668.7137, 1253.187
669.1958, 1261.686
669.6779, 1272.263
670.1600, 1273.211
670.6422, 1266.243
671.1243, 1259.329
671.6064, 1256.462
672.0885, 1254.733
672.5706, 1248.211
673.0527, 1238.295
673.5349, 1235.615
674.0170, 1241.864
674.4991, 1251.833
674.9812, 1264.506
675.4633, 1277.238
675.9454, 1282.783
676.4276, 1278.034
676.9097, 1272.793
677.3918, 1267.024
677.8739, 1261.079
678.3560, 1254.972
678.8381, 1248.916
679.3203, 1241.965
679.8024, 1233.845
680.2845, 1229.976
680.7666, 1239.875
681.2487, 1256.762
681.7308, 1264.143
682.2130, 1261.639
682.6951, 1255.214
683.1772, 1246.304
683.6593, 1238.344
684.1414, 1236.916
684.6235, 1243.251
685.1057, 1249.650
685.5878, 1256.492
686.0699, 1263.024
686.5520, 1271.875
687.0341, 1278.617
687.5162, 1277.689
687.9984, 1268.921
688.4805, 1258.680
688.9626, 1247.142
689.4447, 1238.584
689.9268, 1240.759
690.4089, 1249.970
690.8911, 1255.020
691.3732, 1252.908
691.8553, 1248.655
692.3374, 1247.113
692.8195, 1248.061
693.3016, 1249.626
693.7838, 1251.848
694.2659, 1254.604
694.7480, 1257.954
695.2301, 1261.795
695.7122, 1267.989
696.1943, 1274.922
696.6765, 1276.425
697.1586, 1266.720
697.6407, 1257.685
698.1228, 1256.772
698.6049, 1259.475
699.0870, 1259.094
699.5692, 1256.165
700.0513, 1257.714
700.5334, 1268.839
701.0155, 1282.840
701.4976, 1285.162
701.9797, 1275.268
702.4619, 1264.462
702.9440, 1251.863
703.4261, 1243.215
703.9082, 1242.752
704.3903, 1248.304
704.8724, 1255.423
705.3546, 1266.719
705.8367, 1272.096
706.3188, 1264.366
706.8009, 1256.177
707.2830, 1254.069
707.7651, 1257.090
708.2473, 1265.419
708.7294, 1278.429
709.2115, 1286.461
709.6936, 1274.893
710.1757, 1252.733
710.6578, 1244.311
711.1400, 1249.145
711.6221, 1252.892
712.1042, 1250.057
712.5863, 1246.266
713.0684, 1249.476
713.5505, 1260.377
714.0327, 1263.444
714.5148, 1251.184
714.9969, 1241.212
715.4790, 1233.785
715.9611, 1231.547
716.4432, 1240.630
716.9254, 1257.847
717.4075, 1269.208
717.8896, 1266.810
718.3717, 1259.954
718.8538, 1254.153
719.3359, 1249.665
719.8181, 1246.363
720.3002, 1244.585
720.7823, 1247.038
721.2644, 1256.333
721.7465, 1267.680
722.2286, 1267.185
722.7108, 1251.702
723.1929, 1247.340
723.6750, 1262.287
724.1571, 1276.112
724.6392, 1275.484
725.1213, 1266.756
725.6035, 1263.384
726.0856, 1267.266
726.5677, 1270.060
727.0498, 1271.312
727.5319, 1270.012
728.0140, 1261.686
728.4962, 1251.847
728.9783, 1250.863
729.4604, 1260.654
729.9425, 1270.391
730.4246, 1269.722
730.9067, 1262.246
731.3889, 1255.288
731.8710, 1248.894
732.3531, 1243.180
732.8352, 1237.949
733.3173, 1234.934
733.7994, 1236.448
734.2816, 1242.013
734.7637, 1245.371
735.2458, 1245.624
735.7279, 1245.145
736.2100, 1243.268
736.6921, 1241.636
737.1743, 1243.223
737.6564, 1245.785
738.1385, 1242.399
738.6206, 1227.338
739.1027, 1215.620
739.5848, 1220.377
740.0670, 1229.849
740.5491, 1228.359
741.0312, 1218.524
741.5133, 1213.311
741.9954, 1218.847
742.4775, 1229.386
742.9597, 1236.866
743.4418, 1241.614
743.9239, 1249.754
744.4060, 1262.948
744.8881, 1270.229
745.3702, 1265.211
745.8524, 1255.553
746.3345, 1251.565
746.8166, 1253.947
747.2987, 1255.583
747.7808, 1260.324
748.2629, 1259.434
748.7451, 1241.060
749.2272, 1223.481
749.7093, 1227.871
750.1914, 1249.797
750.6735, 1264.023
751.1556, 1254.034
751.6378, 1240.990
752.1199, 1248.473
752.6020, 1265.339
753.0841, 1269.800
753.5662, 1260.481
754.0483, 1247.555
754.5305, 1236.440
755.0126, 1219.715
755.4947, 1231.736
755.9768, 1238.476
756.4589, 1240.220
756.9410, 1222.002
757.4232, 1229.561
757.9053, 1226.789
758.3874, 1223.594
758.8695, 1234.781
759.3516, 1219.466
759.8337, 1230.425
760.3159, 1230.896
760.7980, 1236.167
761.2801, 1231.044
761.7622, 1229.131
762.2443, 1237.615
762.7264, 1240.343
763.2086, 1234.023
763.6907, 1239.599
764.1728, 1223.922
764.6549, 1226.894
765.1370, 1237.914
765.6191, 1232.117
766.1013, 1237.883
766.5834, 1239.245
767.0655, 1220.593
767.5476, 1236.748
768.0297, 1237.849
768.5118, 1223.496
768.9940, 1238.458
769.4761, 1226.235
769.9582, 1223.715
770.4403, 1228.498
770.9224, 1225.668
771.4045, 1234.840
771.8867, 1232.450
772.3688, 1229.027
772.8509, 1230.112
773.3330, 1218.422
773.8151, 1230.432
774.2972, 1226.253
774.7794, 1230.122
775.2615, 1235.814
775.7436, 1227.540
776.2257, 1234.052
776.7078, 1217.634
777.1899, 1220.402
777.6721, 1221.105
778.1542, 1234.070
778.6363, 1217.764
779.1184, 1220.000
779.6005, 1230.129
780.0826, 1232.679
780.5648, 1230.837
781.0469, 1220.471
781.5290, 1213.829
782.0111, 1209.853
782.4932, 1213.259
782.9753, 1233.691
783.4575, 1254.951
783.9396, 1252.897
784.4217, 1226.905
784.9038, 1209.097
785.3859, 1203.907
785.8680, 1203.085
786.3502, 1206.419
786.8323, 1211.643
787.3144, 1218.320
787.7965, 1225.221
788.2786, 1229.313
788.7607, 1228.765
789.2429, 1227.006
789.7250, 1226.914
790.2071, 1227.502
790.6892, 1226.324
791.1713, 1224.106
791.6534, 1226.296
792.1356, 1235.265
792.6177, 1241.334
793.0998, 1228.279
793.5819, 1199.055
794.0640, 1182.755
794.5461, 1179.832
795.0283, 1188.585
795.5104, 1213.929
795.9925, 1239.388
796.4746, 1248.449
796.9567, 1242.512
797.4388, 1236.379
797.9210, 1228.431
798.4031, 1222.691
798.8852, 1222.586
799.3673, 1221.510
799.8494, 1212.002
800.3315, 1199.855
800.8137, 1197.383
801.2958, 1208.935
801.7779, 1219.115
802.2600, 1218.225
802.7421, 1214.338
803.2242, 1214.829
803.7064, 1217.854
804.1885, 1219.147
804.6706, 1217.730
805.1527, 1215.501
805.6348, 1213.607
806.1169, 1212.572
806.5991, 1213.813
807.0812, 1217.100
807.5633, 1221.293
808.0454, 1226.380
808.5275, 1229.317
809.0096, 1227.823
809.4918, 1223.399
809.9739, 1219.730
810.4560, 1216.806
810.9381, 1214.856
811.4202, 1215.958
811.9023, 1214.582
812.3845, 1205.047
812.8666, 1194.317
813.3487, 1190.480
813.8308, 1193.604
814.3129, 1198.508
814.7950, 1209.340
815.2772, 1215.608
815.7593, 1206.487
816.2414, 1196.904
816.7235, 1205.388
817.2056, 1225.802
817.6877, 1234.995
818.1699, 1220.942
818.6520, 1204.850
819.1341, 1208.601
819.6162, 1219.651
820.0983, 1215.475
820.5804, 1200.195
821.0626, 1195.057
821.5447, 1207.075
822.0268, 1219.788
822.5089, 1213.234
822.9910, 1193.246
823.4731, 1186.202
823.9553, 1192.831
824.4374, 1195.529
824.9195, 1189.376
825.4016, 1183.790
825.8837, 1185.480
826.3658, 1193.474
826.8480, 1205.503
827.3301, 1229.724
827.8122, 1238.874
828.2943, 1216.573
828.7764, 1199.280
829.2585, 1206.544
829.7407, 1221.920
830.2228, 1224.589
830.7049, 1213.401
831.1870, 1205.891
831.6691, 1210.326
832.1512, 1214.250
832.6334, 1209.165
833.1155, 1203.220
833.5976, 1209.054
834.0797, 1221.953
834.5618, 1222.440
835.0439, 1199.048
835.5261, 1177.149
836.0082, 1185.292
836.4903, 1207.471
836.9724, 1219.649
837.4545, 1221.424
837.9366, 1217.013
838.4188, 1208.117
838.9009, 1196.312
839.3830, 1180.978
839.8651, 1166.084
840.3472, 1170.453
840.8293, 1194.667
841.3115, 1205.724
841.7936, 1195.180
842.2757, 1183.781
842.7578, 1184.984
843.2399, 1195.871
843.7220, 1211.021
844.2042, 1237.772
844.6863, 1242.995
845.1684, 1206.100
845.6505, 1178.395
846.1326, 1186.070
846.6147, 1204.575
847.0969, 1209.795
847.5790, 1202.518
848.0611, 1198.145
848.5432, 1199.151
849.0253, 1202.768
849.5074, 1212.209
849.9896, 1220.448
850.4717, 1222.140
850.9538, 1218.306
851.4359, 1210.900
851.9180, 1200.110
852.4001, 1191.822
852.8823, 1190.571
853.3644, 1193.101
853.8465, 1200.718
854.3286, 1207.972
854.8107, 1201.311
855.2928, 1180.426
855.7750, 1160.614
856.2571, 1152.610
856.7392, 1153.531
857.2213, 1160.625
857.7034, 1172.432
858.1855, 1183.156
858.6677, 1192.139
859.1498, 1198.228
859.6319, 1200.783
860.1140, 1201.142
860.5961, 1201.229
861.0782, 1200.992
861.5604, 1197.903
862.0425, 1189.407
862.5246, 1189.490
863.0067, 1207.413
863.4888, 1222.251
863.9709, 1213.972
864.4531, 1190.523
864.9352, 1181.091
865.4173, 1194.244
865.8994, 1203.525
866.3815, 1210.887
866.8636, 1212.284
867.3458, 1199.162
867.8279, 1183.872
868.3100, 1182.740
868.7921, 1195.452
869.2742, 1202.845
869.7563, 1193.635
870.2385, 1186.563
870.7206, 1193.109
871.2027, 1201.230
871.6848, 1199.403
872.1669, 1190.291
872.6490, 1181.166
873.1312, 1174.266
873.6133, 1171.704
874.0954, 1175.921
874.5775, 1184.472
875.0596, 1198.460
875.5417, 1213.521
876.0239, 1220.155
876.5060, 1217.408
876.9881, 1211.479
877.4702, 1205.896
877.9523, 1202.057
878.4344, 1205.662
878.9166, 1212.949
879.3987, 1205.521
879.8808, 1184.146
880.3629, 1173.271
880.8450, 1183.213
881.3271, 1201.305
881.8093, 1214.517
882.2914, 1221.776
882.7735, 1213.086
883.2556, 1185.230
883.7377, 1165.779
884.2198, 1159.937
884.7020, 1161.135
885.1841, 1166.958
885.6662, 1175.170
886.1483, 1181.217
886.6304, 1185.448
887.1125, 1185.597
887.5947, 1177.785
888.0768, 1172.164
888.5589, 1172.400
889.0410, 1174.993
889.5231, 1177.646
890.0052, 1180.156
890.4874, 1181.417
890.9695, 1178.070
891.4516, 1179.418
891.9337, 1193.232
892.4158, 1204.966
892.8979, 1204.339
893.3801, 1198.398
893.8622, 1198.039
894.3443, 1204.115
894.8264, 1206.783
895.3085, 1198.911
895.7906, 1190.545
896.2728, 1187.311
896.7549, 1186.035
897.2370, 1183.492
897.7191, 1179.959
898.2012, 1176.526
898.6833, 1173.558
899.1655, 1173.350
899.6476, 1179.740
900.1297, 1188.322
900.6118, 1195.384
901.0939, 1199.865
901.5760, 1197.819
902.0582, 1190.212
902.5403, 1185.617
903.0224, 1189.943
903.5045, 1196.350
903.9866, 1194.245
904.4688, 1186.127
904.9509, 1179.973
905.4330, 1175.736
905.9151, 1168.978
906.3972, 1158.324
906.8793, 1150.632
907.3615, 1153.173
907.8436, 1162.667
908.3257, 1169.041
908.8078, 1172.285
909.2899, 1172.693
909.7720, 1169.823
910.2542, 1167.183
910.7363, 1165.827
911.2184, 1167.835
911.7005, 1177.939
912.1826, 1195.878
912.6647, 1201.204
913.1469, 1189.249
913.6290, 1179.512
914.1111, 1175.714
914.5932, 1173.843
915.0753, 1170.601
915.5574, 1167.918
916.0396, 1171.295
916.5217, 1184.774
917.0038, 1188.891
917.4859, 1171.328
917.9680, 1161.863
918.4501, 1180.535
918.9323, 1198.488
919.4144, 1186.368
919.8965, 1153.908
920.3786, 1138.424
920.8607, 1150.292
921.3428, 1162.119
921.8250, 1171.412
922.3071, 1178.248
922.7892, 1184.104
923.2713, 1186.650
923.7534, 1181.523
924.2355, 1169.632
924.7177, 1158.776
925.1998, 1147.974
925.6819, 1143.993
926.1640, 1155.982
926.6461, 1169.905
927.1282, 1174.494
927.6104, 1172.869
928.0925, 1171.446
928.5746, 1171.715
929.0567, 1172.093
929.5388, 1171.146
930.0209, 1170.627
930.5031, 1173.444
930.9852, 1176.360
931.4673, 1172.015
931.9494, 1164.372
932.4315, 1167.643
932.9136, 1186.671
933.3958, 1202.877
933.8779, 1197.230
934.3600, 1182.218
934.8421, 1171.259
935.3242, 1164.234
935.8063, 1160.072
936.2885, 1159.246
936.7706, 1166.274
937.2527, 1184.124
937.7348, 1201.203
938.2169, 1201.358
938.6990, 1191.064
939.1812, 1185.131
939.6633, 1182.449
940.1454, 1176.839
940.6275, 1167.198
941.1096, 1157.446
941.5917, 1150.064
942.0739, 1145.624
942.5560, 1145.394
943.0381, 1149.065
943.5202, 1157.987
944.0023, 1171.139
944.4844, 1172.099
944.9666, 1155.412
945.4487, 1141.620
945.9308, 1150.653
946.4129, 1172.813
946.8950, 1180.827
947.3771, 1174.756
947.8593, 1167.240
948.3414, 1158.975
948.8235, 1149.428
949.3056, 1137.263
949.7877, 1129.830
950.2698, 1136.745
950.7520, 1154.614
951.2341, 1165.370
951.7162, 1168.253
952.1983, 1168.732
952.6804, 1167.049
953.1625, 1163.772
953.6447, 1158.802
954.1268, 1152.867
954.6089, 1145.708
955.0910, 1137.829
955.5731, 1140.429
956.0552, 1157.960
956.5374, 1172.420
957.0195, 1182.071
957.5016, 1187.687
957.9837, 1189.183
958.4658, 1187.337
958.9479, 1182.269
959.4301, 1173.254
959.9122, 1171.962
960.3943, 1187.251
960.8764, 1192.090
961.3585, 1175.397
961.8406, 1157.061
962.3228, 1146.942
962.8049, 1144.516
963.2870, 1150.665
963.7691, 1168.701
964.2512, 1177.524
964.7333, 1169.910
965.2155, 1163.583
965.6976, 1165.769
966.1797, 1165.944
966.6618, 1152.484
967.1439, 1133.136
967.6260, 1126.516
968.1082, 1136.654
968.5903, 1144.976
969.0724, 1148.044
969.5545, 1152.646
970.0366, 1166.807
970.5187, 1177.382
971.0009, 1170.118
971.4830, 1151.894
971.9651, 1142.640
972.4472, 1148.936
972.9293, 1147.071
973.4114, 1117.562
973.8936, 1100.065
974.3757, 1121.577
974.8578, 1150.059
975.3399, 1156.008
975.8220, 1144.690
976.3041, 1137.180
976.7863, 1137.865
977.2684, 1138.838
977.7505, 1137.048
978.2326, 1136.788
978.7147, 1142.168
979.1968, 1148.246
979.6790, 1148.551
980.1611, 1145.076
980.6432, 1146.220
981.1253, 1155.317
981.6074, 1164.224
982.0895, 1174.859
982.5717, 1179.645
983.0538, 1168.741
983.5359, 1154.339
984.0180, 1150.616
984.5001, 1156.072
984.9822, 1160.049
985.4644, 1160.149
985.9465, 1157.405
986.4286, 1148.599
986.9107, 1141.093
987.3928, 1139.802
987.8749, 1141.775
988.3571, 1144.411
988.8392, 1146.882
989.3213, 1148.110
989.8034, 1148.044
990.2855, 1145.903
990.7676, 1138.242
991.2498, 1131.819
991.7319, 1134.987
992.2140, 1139.260
992.6961, 1128.720
993.1782, 1108.004
993.6603, 1103.016
994.1425, 1127.397
994.6246, 1153.311
995.1067, 1174.122
995.5888, 1186.151
996.0709, 1181.704
996.5530, 1170.259
997.0352, 1163.167
997.5173, 1160.922
997.9994, 1157.668
998.4815, 1150.121
998.9636, 1145.284
999.4457, 1151.236
999.9279, 1155.820
1000.410, 1145.736
1000.892, 1132.334
1001.374, 1133.005
1001.856, 1145.512
1002.338, 1151.750
1002.821, 1143.546
1003.303, 1134.623
1003.785, 1129.286
1004.267, 1127.712
1004.749, 1134.702
1005.231, 1142.526
1005.713, 1137.922
1006.195, 1124.357
1006.677, 1120.730
1007.160, 1136.517
1007.642, 1152.000
1008.124, 1160.602
1008.606, 1163.279
1009.088, 1155.475
1009.570, 1145.586
1010.052, 1145.632
1010.534, 1153.295
1011.017, 1154.861
1011.499, 1143.829
1011.981, 1135.067
1012.463, 1137.470
1012.945, 1141.162
1013.427, 1140.851
1013.909, 1138.034
1014.391, 1132.112
1014.873, 1125.599
1015.356, 1126.476
1015.838, 1139.440
1016.320, 1148.866
1016.802, 1146.489
1017.284, 1141.694
1017.766, 1138.730
1018.248, 1136.594
1018.730, 1133.705
1019.213, 1130.552
1019.695, 1129.171
1020.177, 1130.552
1020.659, 1131.017
1021.141, 1127.280
1021.623, 1124.961
1022.105, 1128.160
1022.587, 1132.673
1023.069, 1135.650
1023.552, 1136.465
1024.034, 1134.035
1024.516, 1127.572
1024.998, 1121.806
1025.480, 1117.716
1025.962, 1114.879
1026.444, 1113.462
1026.926, 1112.990
1027.409, 1112.836
1027.891, 1113.425
1028.373, 1116.223
1028.855, 1121.872
1029.337, 1125.704
1029.819, 1127.191
1030.301, 1126.329
1030.783, 1118.394
1031.266, 1112.845
1031.748, 1119.282
1032.230, 1131.224
1032.712, 1136.742
1033.194, 1134.559
1033.676, 1132.130
1034.158, 1130.105
1034.640, 1128.020
1035.122, 1123.908
1035.604, 1121.773
1036.087, 1126.298
1036.569, 1132.870
1037.051, 1134.800
1037.533, 1131.913
1038.015, 1127.018
1038.497, 1114.262
1038.979, 1109.107
1039.461, 1117.375
1039.944, 1127.003
1040.426, 1133.607
1040.908, 1138.124
1041.390, 1141.310
1041.872, 1143.279
1042.354, 1145.582
1042.836, 1150.694
1043.318, 1150.106
1043.800, 1138.079
1044.283, 1130.819
1044.765, 1137.080
1045.247, 1146.692
1045.729, 1150.482
1046.211, 1148.549
1046.693, 1140.104
1047.175, 1119.646
1047.657, 1112.298
1048.140, 1122.934
1048.622, 1133.155
1049.104, 1138.456
1049.586, 1138.735
1050.068, 1132.219
1050.550, 1122.810
1051.032, 1122.477
1051.514, 1133.013
1051.996, 1132.458
1052.479, 1117.461
1052.961, 1114.967
1053.443, 1134.354
1053.925, 1149.630
1054.407, 1142.392
1054.889, 1123.803
1055.371, 1113.664
1055.853, 1111.486
1056.335, 1111.255
1056.818, 1112.974
1057.300, 1119.062
1057.782, 1130.037
1058.264, 1134.560
1058.746, 1126.064
1059.228, 1115.724
1059.710, 1119.010
1060.192, 1131.746
1060.675, 1142.861
1061.157, 1150.962
1061.639, 1143.135
1062.121, 1121.199
1062.603, 1113.415
1063.085, 1129.958
1063.567, 1144.076
1064.049, 1126.433
1064.531, 1097.656
1065.014, 1098.404
1065.496, 1116.729
1065.978, 1123.191
1066.460, 1119.372
1066.942, 1121.353
1067.424, 1131.938
1067.906, 1136.090
1068.388, 1120.977
1068.870, 1105.107
1069.353, 1113.978
1069.835, 1131.559
1070.317, 1136.642
1070.799, 1132.345
1071.281, 1125.026
1071.763, 1117.340
1072.245, 1112.576
1072.727, 1112.254
1073.210, 1114.687
1073.692, 1125.749
1074.174, 1131.431
1074.656, 1105.602
1075.138, 1078.067
1075.620, 1096.834
1076.102, 1144.371
1076.584, 1163.538
1077.067, 1138.522
1077.549, 1111.739
1078.031, 1099.615
1078.513, 1092.349
1078.995, 1085.353
1079.477, 1081.665
1079.959, 1086.651
1080.441, 1095.156
1080.923, 1098.286
1081.406, 1095.318
1081.888, 1093.512
1082.370, 1093.122
1082.852, 1095.574
1083.334, 1108.382
1083.816, 1115.329
1084.298, 1102.728
1084.780, 1085.355
1085.262, 1079.316
1085.745, 1082.742
1086.227, 1086.142
1086.709, 1087.773
1087.191, 1094.542
1087.673, 1112.054
1088.155, 1122.941
1088.637, 1120.176
1089.119, 1114.318
1089.602, 1112.757
1090.084, 1113.709
1090.566, 1113.213
1091.048, 1111.175
1091.530, 1111.025
1092.012, 1113.624
1092.494, 1112.142
1092.976, 1104.981
1093.458, 1096.770
1093.941, 1089.567
1094.423, 1083.176
1094.905, 1075.880
1095.387, 1070.840
1095.869, 1085.770
1096.351, 1116.133
1096.833, 1122.328
1097.315, 1104.105
1097.797, 1092.957
1098.280, 1098.541
1098.762, 1103.481
1099.244, 1092.717
1099.726, 1079.340
1100.208, 1088.117
1100.690, 1106.375
1101.172, 1107.767
1101.654, 1096.521
1102.137, 1082.528
1102.619, 1070.110
1103.101, 1067.429
1103.583, 1078.998
1104.065, 1089.007
1104.547, 1082.260
1105.029, 1070.324
1105.511, 1057.914
1105.994, 1051.022
1106.476, 1060.884
1106.958, 1080.750
1107.440, 1097.729
1107.922, 1108.258
1108.404, 1106.851
1108.886, 1076.080
1109.368, 1056.034
1109.850, 1071.435
1110.333, 1091.084
1110.815, 1096.166
1111.297, 1094.539
1111.779, 1098.647
1112.261, 1106.518
1112.743, 1103.543
1113.225, 1080.082
1113.707, 1066.764
1114.189, 1072.614
1114.672, 1075.589
1115.154, 1068.058
1115.636, 1060.081
1116.118, 1057.420
1116.600, 1059.789
1117.082, 1067.752
1117.564, 1081.367
1118.046, 1088.029
1118.529, 1084.657
1119.011, 1094.879
1119.493, 1125.156
1119.975, 1143.800
1120.457, 1136.672
1120.939, 1118.089
1121.421, 1101.546
1121.903, 1087.613
1122.385, 1076.985
1122.868, 1070.474
1123.350, 1076.031
1123.832, 1090.512
1124.314, 1094.701
1124.796, 1085.462
1125.278, 1074.994
1125.760, 1070.029
1126.242, 1069.957
1126.724, 1075.639
1127.207, 1084.584
1127.689, 1096.472
1128.171, 1107.300
1128.653, 1110.915
1129.135, 1107.743
1129.617, 1098.889
1130.099, 1085.648
1130.581, 1076.416
1131.064, 1077.895
1131.546, 1079.859
1132.028, 1075.486
1132.510, 1071.425
1132.992, 1074.407
1133.474, 1078.717
1133.956, 1074.219
1134.438, 1064.402
1134.921, 1066.294
1135.403, 1088.228
1135.885, 1100.142
1136.367, 1090.763
1136.849, 1084.316
1137.331, 1085.369
1137.813, 1089.957
1138.295, 1099.601
1138.777, 1106.635
1139.260, 1097.076
1139.742, 1074.010
1140.224, 1068.879
1140.706, 1085.372
1141.188, 1089.721
1141.670, 1078.521
1142.152, 1068.548
1142.634, 1065.003
1143.116, 1067.328
1143.599, 1075.907
1144.081, 1085.981
1144.563, 1089.462
1145.045, 1087.674
1145.527, 1081.894
1146.009, 1074.793
1146.491, 1076.515
1146.973, 1085.584
1147.456, 1090.547
1147.938, 1087.189
1148.420, 1080.554
1148.902, 1071.188
1149.384, 1065.512
1149.866, 1074.077
1150.348, 1084.594
1150.830, 1085.169
1151.313, 1079.127
1151.795, 1069.455
1152.277, 1059.122
1152.759, 1056.934
1153.241, 1068.093
1153.723, 1075.125
1154.205, 1065.928
1154.687, 1063.429
1155.169, 1083.719
1155.651, 1102.554
1156.134, 1104.516
1156.616, 1096.681
1157.098, 1088.816
1157.580, 1080.704
1158.062, 1068.194
1158.544, 1047.254
1159.026, 1041.722
1159.508, 1055.004
1159.991, 1072.486
1160.473, 1091.259
1160.955, 1100.573
1161.437, 1091.590
1161.919, 1074.414
1162.401, 1064.620
1162.883, 1061.162
1163.365, 1063.083
1163.848, 1067.750
1164.330, 1063.546
1164.812, 1053.180
1165.294, 1053.495
1165.776, 1068.683
1166.258, 1084.404
1166.740, 1093.120
1167.222, 1094.061
1167.704, 1080.254
1168.187, 1064.980
1168.669, 1061.469
1169.151, 1062.668
1169.633, 1057.982
1170.115, 1049.584
1170.597, 1047.322
1171.079, 1053.912
1171.561, 1058.188
1172.043, 1056.888
1172.526, 1055.270
1173.008, 1053.044
1173.490, 1052.275
1173.972, 1054.674
1174.454, 1057.988
1174.936, 1061.006
1175.418, 1062.140
1175.900, 1052.053
1176.383, 1028.230
1176.865, 1035.207
1177.347, 1074.072
1177.829, 1094.133
1178.311, 1086.235
1178.793, 1069.920
1179.275, 1054.682
1179.757, 1044.204
1180.240, 1044.440
1180.722, 1048.162
1181.204, 1041.390
1181.686, 1031.438
1182.168, 1030.731
1182.650, 1037.174
1183.132, 1046.578
1183.614, 1056.681
1184.096, 1064.311
1184.578, 1068.823
1185.061, 1066.589
1185.543, 1046.269
1186.025, 1032.088
1186.507, 1040.956
1186.989, 1052.296
1187.471, 1049.601
1187.953, 1042.039
1188.435, 1044.812
1188.918, 1055.537
1189.400, 1058.257
1189.882, 1048.339
1190.364, 1048.359
1190.846, 1062.298
1191.328, 1067.162
1191.810, 1056.355
1192.292, 1047.538
1192.775, 1051.205
1193.257, 1057.714
1193.739, 1054.172
1194.221, 1045.821
1194.703, 1046.667
1195.185, 1052.679
1195.667, 1052.048
1196.149, 1047.015
1196.631, 1046.225
1197.114, 1050.784
1197.596, 1056.807
1198.078, 1062.934
1198.560, 1066.620
1199.042, 1065.919
1199.524, 1062.773
1200.006, 1053.642
1200.488, 1047.291
1200.970, 1056.082
1201.453, 1068.673
1201.935, 1066.982
1202.417, 1052.125
1202.899, 1039.861
1203.381, 1028.099
1203.863, 1026.794
1204.345, 1039.652
1204.827, 1052.077
1205.310, 1062.909
1205.792, 1063.399
1206.274, 1047.131
1206.756, 1029.479
1207.238, 1029.220
1207.720, 1040.023
1208.202, 1047.537
1208.684, 1052.511
1209.167, 1058.298
1209.649, 1063.158
1210.131, 1058.825
1210.613, 1047.333
1211.095, 1043.005
1211.577, 1051.643
1212.059, 1060.712
1212.541, 1061.759
1213.023, 1062.217
1213.505, 1071.428
1213.988, 1075.453
1214.470, 1054.951
1214.952, 1030.694
1215.434, 1032.725
1215.916, 1053.391
1216.398, 1061.352
1216.880, 1054.634
1217.362, 1046.036
1217.845, 1033.103
1218.327, 1030.060
1218.809, 1040.575
1219.291, 1049.008
1219.773, 1048.844
1220.255, 1044.802
1220.737, 1040.224
1221.219, 1038.292
1221.702, 1049.541
1222.184, 1064.495
1222.666, 1062.014
1223.148, 1048.571
1223.630, 1034.618
1224.112, 1023.891
1224.594, 1021.902
1225.076, 1029.261
1225.558, 1036.173
1226.041, 1040.160
1226.523, 1039.688
1227.005, 1025.829
1227.487, 1018.283
1227.969, 1035.188
1228.451, 1051.482
1228.933, 1045.795
1229.415, 1030.080
1229.897, 1024.919
1230.380, 1029.253
1230.862, 1031.162
1231.344, 1030.344
##END=



