##NAMES=Cassiterite
##RRUFFID=R040072
##IDEAL CHEMISTRY=SnO_2_
##LOCALITY=Bolivia
##OWNER=RRUFF
##SOURCE=University of Arizona Mineral Museum
##DESCRIPTION=Black fragment
##STATUS=The identification of this mineral has been confirmed by X-ray diffraction and chemical analysis
##URL=rruff.info/R040072
##MEASURED CHEMISTRY=Sn_0.99_O_2_
120.6003, 575.4478
121.0824, 615.2013
121.5645, 662.2009
122.0466, 703.9179
122.5287, 736.9285
123.0108, 761.4260
123.4930, 774.7374
123.9751, 775.2486
124.4572, 774.4991
124.9393, 781.5535
125.4214, 795.6677
125.9035, 809.3625
126.3857, 817.6655
126.8678, 824.3865
127.3499, 832.6078
127.8320, 842.3178
128.3141, 852.5396
128.7962, 863.4382
129.2784, 874.5883
129.7605, 882.3258
130.2426, 886.1161
130.7247, 885.0905
131.2068, 873.5385
131.6889, 844.8154
132.1711, 806.3107
132.6532, 781.8157
133.1353, 771.8401
133.6174, 768.9412
134.0995, 764.8652
134.5816, 759.4171
135.0638, 757.3728
135.5459, 760.2270
136.0280, 767.8553
136.5101, 779.9059
136.9922, 798.3226
137.4743, 818.1511
137.9565, 832.6306
138.4386, 843.5014
138.9207, 844.4193
139.4028, 828.5233
139.8849, 789.5091
140.3670, 762.9188
140.8492, 752.9505
141.3313, 755.7842
141.8134, 757.2539
142.2955, 757.8851
142.7776, 756.7266
143.2597, 752.6779
143.7419, 743.6779
144.2240, 736.3286
144.7061, 730.9869
145.1882, 727.5212
145.6703, 728.4885
146.1524, 738.5243
146.6346, 749.5841
147.1167, 753.4271
147.5988, 744.3174
148.0809, 734.9942
148.5630, 727.5487
149.0451, 721.1951
149.5273, 718.8015
150.0094, 724.4596
150.4915, 733.2955
150.9736, 737.2802
151.4557, 728.8507
151.9378, 721.7817
152.4200, 720.7700
152.9021, 731.1989
153.3842, 739.5415
153.8663, 746.7349
154.3484, 751.4625
154.8305, 749.4949
155.3127, 733.5500
155.7948, 715.1408
156.2769, 700.6527
156.7590, 691.8882
157.2411, 686.3274
157.7232, 684.7463
158.2054, 686.7257
158.6875, 688.4630
159.1696, 689.1660
159.6517, 689.0805
160.1338, 688.4253
160.6159, 685.3398
161.0980, 683.3823
161.5802, 685.4670
162.0623, 692.2369
162.5444, 696.1621
163.0265, 691.1817
163.5086, 682.0919
163.9907, 675.4744
164.4729, 677.5146
164.9550, 680.3958
165.4371, 678.0899
165.9192, 667.8427
166.4013, 659.5129
166.8834, 661.2518
167.3656, 669.3422
167.8477, 675.3748
168.3298, 672.0681
168.8119, 666.0757
169.2940, 664.0182
169.7761, 669.2086
170.2583, 675.1624
170.7404, 677.6960
171.2225, 676.9257
171.7046, 673.1854
172.1867, 663.1331
172.6688, 651.0109
173.1510, 643.0551
173.6331, 643.2753
174.1152, 646.3308
174.5973, 646.9755
175.0794, 645.2907
175.5615, 642.5586
176.0437, 638.9960
176.5258, 635.1190
177.0079, 632.0686
177.4900, 631.3828
177.9721, 631.3940
178.4542, 629.1426
178.9364, 624.4711
179.4185, 619.6742
179.9006, 615.5300
180.3827, 612.7726
180.8648, 614.0806
181.3469, 624.6053
181.8291, 639.8793
182.3112, 649.0024
182.7933, 650.6639
183.2754, 648.8428
183.7575, 648.2886
184.2396, 648.7966
184.7218, 648.9224
185.2039, 646.8611
185.6860, 643.4749
186.1681, 642.4836
186.6502, 645.0566
187.1323, 648.7960
187.6145, 648.8680
188.0966, 645.2905
188.5787, 641.8900
189.0608, 642.1373
189.5429, 645.4131
190.0250, 646.9567
190.5071, 645.2430
190.9893, 641.8831
191.4714, 641.1926
191.9535, 643.4010
192.4356, 646.3441
192.9177, 648.7141
193.3998, 650.5286
193.8820, 650.5706
194.3641, 647.4080
194.8462, 642.3822
195.3283, 641.5840
195.8104, 645.7523
196.2925, 651.3840
196.7747, 655.0496
197.2568, 656.6971
197.7389, 657.0159
198.2210, 654.8467
198.7031, 650.6879
199.1852, 652.2292
199.6674, 661.2488
200.1495, 671.9282
200.6316, 675.6356
201.1137, 671.3021
201.5958, 666.6922
202.0779, 664.3404
202.5601, 664.2612
203.0422, 666.9550
203.5243, 673.8074
204.0064, 681.5958
204.4885, 683.5413
204.9706, 677.8116
205.4528, 673.0066
205.9349, 673.6681
206.4170, 680.9960
206.8991, 686.8839
207.3812, 690.5103
207.8633, 693.0553
208.3455, 697.5610
208.8276, 704.7059
209.3097, 712.0226
209.7918, 718.0892
210.2739, 722.6005
210.7560, 726.8500
211.2382, 729.7249
211.7203, 732.6808
212.2024, 742.3529
212.6845, 762.6080
213.1666, 781.9294
213.6487, 791.4195
214.1309, 787.3371
214.6130, 785.5796
215.0951, 788.1823
215.5772, 794.5920
216.0593, 801.6941
216.5414, 809.6918
217.0236, 818.0836
217.5057, 826.9543
217.9878, 837.3937
218.4699, 845.5051
218.9520, 849.9335
219.4341, 850.9864
219.9163, 854.4279
220.3984, 863.8087
220.8805, 871.2049
221.3626, 867.5502
221.8447, 845.0278
222.3268, 828.6456
222.8089, 825.8094
223.2911, 837.5005
223.7732, 840.7641
224.2553, 831.4271
224.7374, 817.6804
225.2195, 808.9004
225.7016, 806.5063
226.1838, 806.2294
226.6659, 807.9203
227.1480, 812.1960
227.6301, 812.9595
228.1122, 807.4018
228.5943, 800.5524
229.0765, 799.7966
229.5586, 809.7250
230.0407, 817.7026
230.5228, 819.7139
231.0049, 814.1066
231.4870, 809.6533
231.9692, 806.2204
232.4513, 803.9847
232.9334, 803.3583
233.4155, 805.2292
233.8976, 807.3144
234.3797, 809.2699
234.8619, 812.0071
235.3440, 811.3900
235.8261, 804.9112
236.3082, 796.2127
236.7903, 792.8474
237.2724, 797.9778
237.7546, 803.5711
238.2367, 806.5010
238.7188, 805.1779
239.2009, 804.9160
239.6830, 805.5793
240.1651, 807.3141
240.6473, 811.0518
241.1294, 819.8455
241.6115, 826.1756
242.0936, 825.9115
242.5757, 813.4013
243.0578, 806.8249
243.5400, 808.2868
244.0221, 815.4193
244.5042, 821.7450
244.9863, 827.7177
245.4684, 832.2609
245.9505, 834.3475
246.4327, 831.4171
246.9148, 831.8306
247.3969, 837.0784
247.8790, 845.7864
248.3611, 853.3041
248.8432, 860.4927
249.3254, 865.2899
249.8075, 865.8730
250.2896, 859.0829
250.7717, 855.5032
251.2538, 857.7734
251.7359, 863.8146
252.2180, 863.8278
252.7002, 852.6039
253.1823, 842.8978
253.6644, 843.3810
254.1465, 860.3531
254.6286, 872.8457
255.1107, 878.6779
255.5929, 878.6998
256.0750, 877.4579
256.5571, 874.9481
257.0392, 871.1476
257.5213, 865.3173
258.0034, 855.0305
258.4856, 849.1469
258.9677, 849.9758
259.4498, 856.1728
259.9319, 860.5629
260.4140, 862.9540
260.8961, 863.8359
261.3783, 863.0000
261.8604, 859.1506
262.3425, 857.6297
262.8246, 860.3115
263.3067, 866.0977
263.7888, 867.7446
264.2710, 863.5987
264.7531, 858.4507
265.2352, 855.8615
265.7173, 856.2927
266.1994, 857.7026
266.6815, 860.0340
267.1637, 863.1679
267.6458, 866.6816
268.1279, 871.3290
268.6100, 874.8412
269.0921, 875.0411
269.5742, 871.0276
270.0564, 867.4984
270.5385, 865.8066
271.0206, 865.1722
271.5027, 860.4577
271.9848, 850.1289
272.4669, 839.4750
272.9491, 833.6452
273.4312, 833.8544
273.9133, 831.3495
274.3954, 823.2471
274.8775, 811.3985
275.3596, 805.3356
275.8418, 806.1172
276.3239, 809.4704
276.8060, 813.2653
277.2881, 817.9879
277.7702, 817.8049
278.2523, 809.0832
278.7345, 795.3100
279.2166, 792.2962
279.6987, 802.1136
280.1808, 813.9043
280.6629, 817.8329
281.1451, 813.5805
281.6272, 811.2189
282.1093, 813.1767
282.5914, 818.0283
283.0735, 820.7761
283.5556, 821.1252
284.0378, 821.0630
284.5199, 821.9255
285.0020, 823.7146
285.4841, 826.8940
285.9662, 832.5422
286.4483, 838.9757
286.9305, 840.6953
287.4126, 837.3461
287.8947, 833.6822
288.3768, 832.5173
288.8589, 833.9753
289.3410, 839.7969
289.8232, 853.0052
290.3053, 868.2811
290.7874, 871.5293
291.2695, 862.7839
291.7516, 853.1846
292.2337, 852.1466
292.7159, 857.8837
293.1980, 863.3365
293.6801, 867.5468
294.1622, 870.3088
294.6443, 870.6586
295.1264, 868.7266
295.6086, 866.3763
296.0907, 863.1803
296.5728, 860.5419
297.0549, 863.1002
297.5370, 874.2429
298.0191, 886.9775
298.5012, 888.4232
298.9833, 880.4155
299.4655, 875.6086
299.9476, 886.3714
300.4297, 905.8570
300.9118, 922.9069
301.3939, 937.5018
301.8760, 944.6436
302.3582, 932.7765
302.8403, 905.8777
303.3224, 881.6601
303.8045, 872.9469
304.2866, 873.1400
304.7687, 874.0361
305.2509, 875.1725
305.7330, 874.4554
306.2151, 867.9426
306.6972, 857.5533
307.1793, 848.9680
307.6614, 844.4284
308.1436, 843.9701
308.6257, 848.9296
309.1078, 861.8350
309.5899, 873.7565
310.0720, 878.8568
310.5541, 878.2404
311.0363, 874.6989
311.5184, 865.0435
312.0005, 855.7355
312.4826, 852.0507
312.9647, 855.7384
313.4468, 861.5717
313.9290, 871.0264
314.4111, 880.4266
314.8932, 883.0150
315.3753, 867.5894
315.8574, 850.7259
316.3395, 842.5081
316.8217, 845.8582
317.3038, 850.3391
317.7859, 851.8868
318.2680, 852.1614
318.7501, 853.5917
319.2322, 856.5129
319.7144, 861.0941
320.1965, 868.6902
320.6786, 880.7219
321.1607, 888.7907
321.6428, 887.7065
322.1249, 882.5757
322.6071, 879.5257
323.0892, 882.0167
323.5713, 884.5469
324.0534, 885.2947
324.5355, 883.8645
325.0176, 882.9855
325.4998, 884.0959
325.9819, 885.3644
326.4640, 885.0325
326.9461, 878.5479
327.4282, 875.1693
327.9103, 878.2726
328.3925, 888.4795
328.8746, 894.2007
329.3567, 892.8735
329.8388, 888.8451
330.3209, 885.3455
330.8030, 880.9324
331.2852, 879.3937
331.7673, 883.3049
332.2494, 891.9435
332.7315, 894.3768
333.2136, 886.3564
333.6957, 877.1229
334.1779, 873.0769
334.6600, 875.8007
335.1421, 880.1923
335.6242, 886.5196
336.1063, 894.1520
336.5884, 900.4564
337.0706, 905.8658
337.5527, 909.0862
338.0348, 908.5776
338.5169, 903.3560
338.9990, 898.8460
339.4811, 894.5726
339.9633, 891.8937
340.4454, 896.0880
340.9275, 909.0250
341.4096, 919.8984
341.8917, 920.2174
342.3738, 909.9634
342.8560, 907.2511
343.3381, 915.5815
343.8202, 927.2440
344.3023, 927.4890
344.7844, 916.4317
345.2665, 905.4500
345.7487, 899.9202
346.2308, 899.2385
346.7129, 902.2985
347.1950, 910.1129
347.6771, 917.0911
348.1592, 912.9644
348.6414, 900.4064
349.1235, 891.5402
349.6056, 893.7952
350.0877, 903.0462
350.5698, 912.8647
351.0519, 923.3821
351.5341, 931.2005
352.0162, 932.3257
352.4983, 928.3161
352.9804, 922.3214
353.4625, 911.9765
353.9446, 902.4517
354.4268, 900.6209
354.9089, 906.0023
355.3910, 912.1961
355.8731, 915.2841
356.3552, 916.1860
356.8373, 916.0469
357.3195, 915.6504
357.8016, 913.7930
358.2837, 908.1344
358.7658, 899.6902
359.2479, 893.2270
359.7300, 891.4484
360.2121, 892.4532
360.6942, 894.8153
361.1764, 898.5369
361.6585, 903.1792
362.1406, 910.2889
362.6227, 918.3928
363.1048, 923.5698
363.5869, 922.8524
364.0691, 920.3497
364.5512, 917.7147
365.0333, 914.1842
365.5154, 912.6969
365.9975, 914.6130
366.4796, 918.6879
366.9618, 922.8309
367.4439, 928.1652
367.9260, 932.1622
368.4081, 933.3018
368.8902, 930.1345
369.3723, 929.8129
369.8545, 935.6791
370.3366, 942.4719
370.8187, 944.2888
371.3008, 939.0761
371.7829, 931.7205
372.2650, 920.8503
372.7472, 906.4233
373.2293, 902.6686
373.7114, 914.5734
374.1935, 930.1754
374.6756, 939.3787
375.1577, 940.7460
375.6399, 940.7830
376.1220, 940.4210
376.6041, 939.5185
377.0862, 936.7161
377.5683, 931.2983
378.0504, 926.9541
378.5326, 927.0772
379.0147, 931.6425
379.4968, 934.8768
379.9789, 935.8496
380.4610, 935.6264
380.9431, 936.1121
381.4253, 937.2805
381.9074, 938.6675
382.3895, 940.1475
382.8716, 941.6320
383.3537, 942.6714
383.8358, 943.1215
384.3180, 943.6613
384.8001, 945.6548
385.2822, 948.5287
385.7643, 950.4548
386.2464, 949.8564
386.7285, 948.2018
387.2107, 947.4581
387.6928, 947.6616
388.1749, 948.0879
388.6570, 949.0663
389.1391, 949.7172
389.6212, 948.7108
390.1034, 943.5773
390.5855, 938.5740
391.0676, 935.7516
391.5497, 935.2243
392.0318, 937.4732
392.5139, 947.9182
392.9961, 958.1984
393.4782, 961.7307
393.9603, 953.1492
394.4424, 943.8464
394.9245, 935.0292
395.4066, 927.9743
395.8888, 925.9612
396.3709, 934.6908
396.8530, 944.3723
397.3351, 951.0770
397.8172, 953.6162
398.2993, 955.5271
398.7815, 957.8286
399.2636, 959.3246
399.7457, 958.0980
400.2278, 947.5520
400.7099, 942.9298
401.1920, 950.9088
401.6742, 972.7468
402.1563, 982.4644
402.6384, 972.5656
403.1205, 959.4703
403.6026, 958.8020
404.0847, 975.2950
404.5669, 989.1400
405.0490, 997.9048
405.5311, 1001.693
406.0132, 999.3810
406.4953, 989.4154
406.9774, 979.8731
407.4596, 976.0746
407.9417, 977.9492
408.4238, 981.9734
408.9059, 988.4777
409.3880, 995.5809
409.8701, 1000.170
410.3523, 1002.363
410.8344, 1003.490
411.3165, 1003.469
411.7986, 1002.947
412.2807, 1003.679
412.7628, 1005.786
413.2450, 1008.225
413.7271, 1012.297
414.2092, 1015.865
414.6913, 1014.309
415.1734, 1002.139
415.6555, 986.9962
416.1377, 974.4792
416.6198, 964.6668
417.1019, 958.9901
417.5840, 962.3831
418.0661, 968.2191
418.5482, 969.9659
419.0304, 963.5925
419.5125, 957.1862
419.9946, 952.8008
420.4767, 950.9105
420.9588, 952.6690
421.4409, 963.7294
421.9230, 974.1127
422.4052, 979.0768
422.8873, 976.3494
423.3694, 973.8192
423.8515, 971.6937
424.3336, 970.5203
424.8157, 970.7838
425.2979, 968.5119
425.7800, 972.9688
426.2621, 990.5209
426.7442, 1020.834
427.2263, 1035.778
427.7084, 1026.958
428.1906, 1013.987
428.6727, 1011.446
429.1548, 1022.166
429.6369, 1033.136
430.1190, 1044.137
430.6011, 1053.744
431.0833, 1056.396
431.5654, 1050.671
432.0475, 1046.805
432.5296, 1052.529
433.0117, 1066.351
433.4938, 1074.116
433.9760, 1074.703
434.4581, 1071.780
434.9402, 1067.032
435.4223, 1061.774
435.9044, 1062.183
436.3865, 1076.781
436.8687, 1095.028
437.3508, 1099.607
437.8329, 1091.281
438.3150, 1079.957
438.7971, 1069.126
439.2792, 1060.866
439.7614, 1059.362
440.2435, 1071.570
440.7256, 1080.018
441.2077, 1068.674
441.6898, 1044.545
442.1719, 1025.258
442.6541, 1019.350
443.1362, 1019.397
443.6183, 1023.055
444.1004, 1031.910
444.5825, 1036.520
445.0646, 1030.282
445.5468, 1020.491
446.0289, 1015.298
446.5110, 1017.386
446.9931, 1022.293
447.4752, 1031.498
447.9573, 1044.340
448.4395, 1051.597
448.9216, 1049.673
449.4037, 1046.319
449.8858, 1046.523
450.3679, 1052.060
450.8500, 1055.608
451.3322, 1056.076
451.8143, 1054.942
452.2964, 1054.831
452.7785, 1055.540
453.2606, 1058.530
453.7427, 1065.343
454.2249, 1075.390
454.7070, 1084.609
455.1891, 1093.122
455.6712, 1100.457
456.1533, 1104.648
456.6354, 1106.923
457.1176, 1111.859
457.5997, 1120.633
458.0818, 1132.830
458.5639, 1148.978
459.0460, 1168.646
459.5281, 1188.200
460.0103, 1202.952
460.4924, 1217.828
460.9745, 1238.262
461.4566, 1266.317
461.9387, 1295.790
462.4208, 1322.549
462.9030, 1348.702
463.3851, 1376.527
463.8672, 1412.009
464.3493, 1445.033
464.8314, 1468.768
465.3135, 1482.960
465.7957, 1504.098
466.2778, 1539.808
466.7599, 1580.006
467.2420, 1618.172
467.7241, 1652.926
468.2062, 1687.534
468.6884, 1721.881
469.1705, 1756.121
469.6526, 1791.204
470.1347, 1827.034
470.6168, 1863.744
471.0989, 1903.289
471.5811, 1945.818
472.0632, 1980.399
472.5453, 2007.310
473.0274, 2025.535
473.5095, 2033.424
473.9916, 2031.132
474.4738, 2022.128
474.9559, 2009.786
475.4380, 1988.341
475.9201, 1941.264
476.4022, 1870.847
476.8843, 1798.030
477.3665, 1733.440
477.8486, 1676.231
478.3307, 1625.339
478.8128, 1580.445
479.2949, 1541.408
479.7770, 1508.958
480.2592, 1481.169
480.7413, 1455.015
481.2234, 1425.200
481.7055, 1400.374
482.1876, 1385.565
482.6697, 1380.296
483.1518, 1379.246
483.6339, 1384.101
484.1161, 1390.240
484.5982, 1394.903
485.0803, 1396.874
485.5624, 1398.790
486.0445, 1400.406
486.5266, 1402.153
487.0088, 1404.851
487.4909, 1408.834
487.9730, 1413.124
488.4551, 1417.523
488.9372, 1422.004
489.4193, 1426.280
489.9015, 1429.817
490.3836, 1434.572
490.8657, 1444.521
491.3478, 1459.442
491.8299, 1466.754
492.3120, 1462.087
492.7942, 1453.562
493.2763, 1457.152
493.7584, 1471.131
494.2405, 1483.889
494.7226, 1486.228
495.2047, 1484.455
495.6869, 1490.297
496.1690, 1504.330
496.6511, 1516.176
497.1332, 1515.252
497.6153, 1508.667
498.0974, 1505.661
498.5796, 1514.446
499.0617, 1520.368
499.5438, 1513.992
500.0259, 1499.102
500.5080, 1485.930
500.9901, 1479.777
501.4723, 1474.081
501.9544, 1465.271
502.4365, 1451.184
502.9186, 1441.215
503.4007, 1439.143
503.8828, 1438.743
504.3650, 1433.769
504.8471, 1420.776
505.3292, 1410.941
505.8113, 1407.431
506.2934, 1407.761
506.7755, 1401.930
507.2577, 1388.417
507.7398, 1376.367
508.2219, 1373.154
508.7040, 1377.389
509.1861, 1375.554
509.6682, 1367.093
510.1504, 1354.403
510.6325, 1337.225
511.1146, 1317.687
511.5967, 1302.222
512.0789, 1294.103
512.5610, 1289.567
513.0431, 1285.735
513.5251, 1282.258
514.0073, 1277.703
514.4894, 1270.323
514.9715, 1262.139
515.4536, 1254.638
515.9357, 1248.159
516.4178, 1241.449
516.9000, 1234.110
517.3821, 1226.255
517.8642, 1217.919
518.3463, 1204.250
518.8284, 1195.820
519.3105, 1198.031
519.7927, 1207.631
520.2748, 1207.984
520.7569, 1193.931
521.2390, 1178.615
521.7211, 1167.579
522.2032, 1161.141
522.6854, 1157.343
523.1675, 1156.675
523.6496, 1157.671
524.1317, 1157.614
524.6138, 1156.762
525.0959, 1160.554
525.5781, 1172.881
526.0602, 1187.963
526.5423, 1193.268
527.0244, 1190.224
527.5065, 1188.400
527.9886, 1196.004
528.4708, 1207.085
528.9529, 1214.075
529.4350, 1215.694
529.9171, 1217.770
530.3992, 1222.346
530.8813, 1229.900
531.3635, 1241.073
531.8456, 1262.470
532.3277, 1280.543
532.8098, 1287.223
533.2919, 1286.385
533.7740, 1293.441
534.2562, 1320.942
534.7383, 1345.372
535.2204, 1357.486
535.7025, 1353.367
536.1846, 1357.293
536.6667, 1372.074
537.1489, 1390.833
537.6310, 1407.440
538.1131, 1421.842
538.5952, 1433.793
539.0773, 1442.824
539.5594, 1450.272
540.0416, 1461.387
540.5237, 1475.467
541.0058, 1483.329
541.4879, 1471.912
541.9700, 1453.732
542.4521, 1454.980
542.9343, 1476.598
543.4164, 1493.065
543.8985, 1483.020
544.3806, 1458.315
544.8627, 1432.003
545.3448, 1404.368
545.8270, 1380.667
546.3091, 1360.297
546.7912, 1345.765
547.2733, 1342.263
547.7554, 1369.419
548.2375, 1389.564
548.7197, 1387.460
549.2018, 1361.759
549.6839, 1345.615
550.1660, 1342.653
550.6481, 1344.632
551.1302, 1346.952
551.6124, 1350.218
552.0945, 1350.215
552.5766, 1345.889
553.0587, 1339.455
553.5408, 1334.156
554.0229, 1329.954
554.5051, 1326.743
554.9872, 1324.499
555.4693, 1323.152
555.9514, 1323.957
556.4335, 1326.417
556.9156, 1326.202
557.3978, 1318.148
557.8799, 1307.118
558.3620, 1298.545
558.8441, 1294.042
559.3262, 1288.458
559.8083, 1277.110
560.2905, 1264.190
560.7726, 1254.639
561.2547, 1251.862
561.7368, 1250.029
562.2189, 1248.968
562.7010, 1248.147
563.1832, 1245.107
563.6653, 1237.082
564.1474, 1231.181
564.6295, 1231.999
565.1116, 1240.755
565.5938, 1240.736
566.0759, 1230.087
566.5580, 1215.856
567.0401, 1203.666
567.5222, 1193.719
568.0043, 1187.524
568.4865, 1186.634
568.9686, 1187.090
569.4507, 1182.809
569.9328, 1175.039
570.4149, 1167.508
570.8970, 1160.985
571.3792, 1156.351
571.8613, 1155.505
572.3434, 1158.146
572.8255, 1159.942
573.3076, 1157.005
573.7897, 1153.762
574.2719, 1153.695
574.7540, 1161.006
575.2361, 1163.989
575.7182, 1156.643
576.2003, 1146.777
576.6824, 1144.869
577.1646, 1155.970
577.6467, 1164.009
578.1288, 1164.778
578.6109, 1160.579
579.0930, 1161.101
579.5751, 1167.182
580.0573, 1172.090
580.5394, 1170.244
581.0215, 1163.836
581.5036, 1162.402
581.9857, 1166.527
582.4678, 1170.835
582.9500, 1168.244
583.4321, 1163.085
583.9142, 1162.972
584.3963, 1172.928
584.8784, 1182.477
585.3605, 1182.051
585.8427, 1176.814
586.3248, 1176.766
586.8069, 1191.731
587.2890, 1205.649
587.7711, 1212.085
588.2532, 1210.889
588.7354, 1212.513
589.2175, 1217.433
589.6996, 1224.661
590.1817, 1234.646
590.6638, 1248.913
591.1459, 1258.120
591.6281, 1260.318
592.1102, 1261.747
592.5923, 1271.331
593.0744, 1288.294
593.5565, 1303.706
594.0386, 1314.940
594.5208, 1324.307
595.0029, 1333.489
595.4850, 1343.297
595.9671, 1357.025
596.4492, 1382.458
596.9313, 1408.186
597.4135, 1422.607
597.8956, 1425.434
598.3777, 1433.329
598.8598, 1456.927
599.3419, 1485.110
599.8240, 1510.038
600.3062, 1528.010
600.7883, 1548.321
601.2704, 1572.270
601.7525, 1597.493
602.2346, 1619.810
602.7167, 1636.590
603.1989, 1658.778
603.6810, 1690.520
604.1631, 1727.873
604.6452, 1758.555
605.1273, 1782.080
605.6094, 1809.081
606.0916, 1846.955
606.5737, 1891.789
607.0558, 1936.476
607.5379, 1980.447
608.0200, 2027.075
608.5021, 2076.303
608.9843, 2130.209
609.4664, 2191.482
609.9485, 2264.185
610.4306, 2337.915
610.9127, 2402.116
611.3948, 2467.478
611.8770, 2548.022
612.3591, 2654.608
612.8412, 2767.125
613.3233, 2881.119
613.8054, 2999.994
614.2875, 3134.670
614.7697, 3286.981
615.2518, 3448.057
615.7339, 3609.506
616.2160, 3773.954
616.6981, 3958.252
617.1802, 4164.991
617.6624, 4386.822
618.1445, 4618.351
618.6266, 4859.431
619.1087, 5114.288
619.5908, 5383.037
620.0729, 5663.208
620.5551, 5951.055
621.0372, 6247.162
621.5193, 6549.517
622.0014, 6847.229
622.4835, 7166.840
622.9656, 7522.013
623.4478, 7908.067
623.9299, 8304.002
624.4120, 8699.965
624.8941, 9111.925
625.3762, 9549.063
625.8583, 10011.92
626.3405, 10467.72
626.8226, 10915.72
627.3047, 11359.24
627.7868, 11803.94
628.2689, 12249.35
628.7510, 12684.48
629.2332, 13114.59
629.7153, 13514.95
630.1974, 13881.88
630.6795, 14197.71
631.1616, 14425.41
631.6437, 14569.57
632.1259, 14605.40
632.6080, 14518.06
633.0901, 14312.52
633.5722, 14000.49
634.0543, 13569.11
634.5364, 13048.16
635.0186, 12424.18
635.5007, 11699.13
635.9828, 10964.06
636.4649, 10213.71
636.9470, 9487.648
637.4291, 8809.197
637.9112, 8184.389
638.3933, 7595.990
638.8754, 7039.911
639.3575, 6530.286
639.8397, 6076.737
640.3218, 5677.190
640.8039, 5321.636
641.2860, 5010.087
641.7681, 4730.273
642.2502, 4478.961
642.7324, 4252.026
643.2145, 4046.343
643.6966, 3865.058
644.1787, 3701.212
644.6608, 3555.893
645.1429, 3428.227
645.6251, 3300.147
646.1072, 3159.661
646.5893, 3033.247
647.0714, 2934.873
647.5535, 2865.703
648.0356, 2799.106
648.5178, 2736.363
648.9999, 2671.587
649.4820, 2595.139
649.9641, 2510.489
650.4462, 2442.698
650.9283, 2396.310
651.4105, 2359.782
651.8926, 2323.855
652.3747, 2288.580
652.8568, 2253.399
653.3389, 2216.662
653.8210, 2182.289
654.3032, 2150.104
654.7853, 2121.665
655.2674, 2101.371
655.7495, 2101.542
656.2316, 2097.961
656.7137, 2082.101
657.1959, 2055.344
657.6780, 2037.874
658.1601, 2035.224
658.6422, 2028.506
659.1243, 1999.948
659.6064, 1952.548
660.0886, 1931.887
660.5707, 1940.160
661.0528, 1955.911
661.5349, 1960.938
662.0170, 1958.451
662.4991, 1953.366
662.9813, 1945.019
663.4634, 1939.815
663.9455, 1948.792
664.4276, 1961.474
664.9097, 1963.697
665.3918, 1934.943
665.8740, 1914.255
666.3561, 1916.843
666.8382, 1932.898
667.3203, 1937.983
667.8024, 1924.511
668.2845, 1917.460
668.7667, 1928.171
669.2488, 1951.810
669.7309, 1959.599
670.2130, 1950.837
670.6951, 1940.123
671.1772, 1939.027
671.6594, 1942.409
672.1415, 1939.108
672.6236, 1928.454
673.1057, 1918.302
673.5878, 1914.601
674.0699, 1913.857
674.5521, 1912.339
675.0342, 1907.620
675.5163, 1906.077
675.9984, 1913.696
676.4805, 1923.027
676.9626, 1925.465
677.4448, 1918.158
677.9269, 1909.215
678.4090, 1897.481
678.8911, 1886.628
679.3732, 1886.871
679.8553, 1898.298
680.3375, 1906.561
680.8196, 1905.446
681.3017, 1898.406
681.7838, 1889.560
682.2659, 1879.725
682.7480, 1872.686
683.2302, 1872.755
683.7123, 1874.796
684.1944, 1875.595
684.6765, 1874.916
685.1586, 1872.785
685.6407, 1863.278
686.1229, 1857.234
686.6050, 1862.132
687.0871, 1884.273
687.5692, 1895.396
688.0513, 1891.991
688.5334, 1883.785
689.0156, 1881.862
689.4977, 1885.687
689.9798, 1884.535
690.4619, 1876.071
690.9440, 1864.593
691.4261, 1851.570
691.9083, 1839.786
692.3904, 1835.857
692.8725, 1853.139
693.3546, 1865.772
693.8367, 1855.882
694.3188, 1830.026
694.8010, 1804.471
695.2831, 1780.408
695.7652, 1760.040
696.2473, 1745.487
696.7294, 1735.618
697.2115, 1723.062
697.6937, 1708.542
698.1758, 1688.597
698.6579, 1660.011
699.1400, 1623.932
699.6221, 1585.087
700.1042, 1543.351
700.5864, 1506.836
701.0685, 1486.764
701.5506, 1473.863
702.0327, 1455.682
702.5148, 1429.936
702.9969, 1402.236
703.4791, 1369.673
703.9612, 1339.345
704.4433, 1317.680
704.9254, 1312.448
705.4075, 1305.868
705.8896, 1295.927
706.3718, 1286.084
706.8539, 1282.505
707.3360, 1286.710
707.8181, 1286.992
708.3002, 1281.457
708.7823, 1270.231
709.2645, 1246.846
709.7466, 1216.374
710.2287, 1198.385
710.7108, 1212.528
711.1929, 1233.428
711.6750, 1239.703
712.1572, 1234.416
712.6393, 1228.301
713.1214, 1224.542
713.6035, 1221.311
714.0856, 1217.972
714.5677, 1214.486
715.0499, 1210.561
715.5320, 1204.492
716.0141, 1201.320
716.4962, 1205.733
716.9783, 1217.351
717.4604, 1222.911
717.9426, 1222.371
718.4247, 1217.926
718.9068, 1209.228
719.3889, 1198.627
719.8710, 1189.939
720.3531, 1183.936
720.8353, 1178.721
721.3174, 1174.002
721.7995, 1169.166
722.2816, 1163.432
722.7637, 1152.716
723.2458, 1147.484
723.7280, 1152.712
724.2101, 1160.279
724.6922, 1158.349
725.1743, 1144.382
725.6564, 1134.843
726.1385, 1134.214
726.6207, 1136.466
727.1028, 1127.937
727.5849, 1111.934
728.0670, 1101.647
728.5491, 1106.924
729.0313, 1115.880
729.5134, 1120.219
729.9955, 1120.125
730.4776, 1116.057
730.9597, 1103.903
731.4418, 1092.125
731.9240, 1084.011
732.4061, 1079.082
732.8882, 1073.905
733.3703, 1066.890
733.8524, 1063.321
734.3345, 1067.265
734.8167, 1077.307
735.2988, 1083.714
735.7809, 1086.490
736.2630, 1084.468
736.7451, 1072.607
737.2272, 1057.376
737.7094, 1047.316
738.1915, 1043.273
738.6736, 1042.783
739.1557, 1046.933
739.6378, 1052.614
740.1199, 1058.146
740.6021, 1065.612
741.0842, 1066.628
741.5663, 1056.966
742.0484, 1045.970
742.5305, 1043.309
743.0126, 1049.648
743.4948, 1054.530
743.9769, 1056.915
744.4590, 1057.606
744.9411, 1057.141
745.4232, 1055.786
745.9053, 1053.712
746.3875, 1049.016
746.8696, 1047.410
747.3517, 1055.775
747.8338, 1068.707
748.3159, 1077.942
748.7980, 1083.701
749.2802, 1082.233
749.7623, 1066.705
750.2444, 1046.418
750.7265, 1044.293
751.2086, 1063.791
751.6907, 1082.360
752.1729, 1092.196
752.6550, 1097.897
753.1371, 1110.076
753.6192, 1127.404
754.1013, 1143.415
754.5834, 1152.151
755.0656, 1160.669
755.5477, 1173.827
756.0298, 1191.518
756.5119, 1212.381
756.9940, 1237.924
757.4761, 1264.939
757.9583, 1292.400
758.4404, 1320.141
758.9225, 1349.914
759.4046, 1381.779
759.8867, 1415.062
760.3688, 1449.097
760.8509, 1484.553
761.3330, 1526.149
761.8151, 1573.985
762.2972, 1621.210
762.7794, 1656.047
763.2615, 1692.018
763.7436, 1745.054
764.2257, 1818.984
764.7078, 1889.482
765.1899, 1944.338
765.6721, 1998.471
766.1542, 2061.233
766.6363, 2134.095
767.1184, 2211.509
767.6005, 2294.490
768.0826, 2377.013
768.5648, 2453.177
769.0469, 2522.860
769.5290, 2584.547
770.0111, 2637.509
770.4932, 2686.600
770.9753, 2737.631
771.4575, 2786.333
771.9396, 2827.617
772.4217, 2861.761
772.9038, 2885.412
773.3859, 2896.230
773.8680, 2896.527
774.3502, 2889.054
774.8323, 2874.110
775.3144, 2850.930
775.7965, 2819.835
776.2786, 2779.686
776.7607, 2725.726
777.2429, 2660.052
777.7250, 2593.198
778.2071, 2527.446
778.6892, 2464.014
779.1713, 2408.925
779.6534, 2355.466
780.1356, 2292.233
780.6177, 2202.043
781.0998, 2117.395
781.5819, 2048.646
782.0640, 1989.292
782.5461, 1928.289
783.0283, 1864.334
783.5104, 1803.895
783.9925, 1748.166
784.4746, 1697.289
784.9567, 1648.224
785.4388, 1602.116
785.9210, 1566.599
786.4031, 1553.901
786.8852, 1544.613
787.3673, 1519.838
787.8494, 1484.412
788.3315, 1452.635
788.8137, 1429.405
789.2958, 1409.594
789.7779, 1392.622
790.2600, 1377.831
790.7421, 1362.297
791.2242, 1344.888
791.7064, 1330.649
792.1885, 1322.761
792.6706, 1318.570
793.1527, 1311.272
793.6348, 1301.025
794.1169, 1288.380
794.5991, 1270.450
795.0812, 1252.826
795.5633, 1240.430
796.0454, 1232.748
796.5275, 1224.262
797.0096, 1212.668
797.4918, 1201.026
797.9739, 1190.273
798.4560, 1180.329
798.9381, 1171.657
799.4202, 1164.298
799.9023, 1157.991
800.3845, 1153.932
800.8666, 1150.417
801.3487, 1141.758
801.8308, 1128.784
802.3129, 1117.916
802.7950, 1117.183
803.2772, 1116.770
803.7593, 1108.508
804.2414, 1091.469
804.7235, 1079.008
805.2056, 1076.515
805.6877, 1072.751
806.1699, 1060.536
806.6520, 1040.274
807.1341, 1032.399
807.6162, 1037.877
808.0983, 1043.268
808.5804, 1036.647
809.0626, 1024.428
809.5447, 1017.351
810.0268, 1015.728
810.5089, 1013.286
810.9910, 1006.567
811.4731, 998.0959
811.9553, 988.2961
812.4374, 976.2303
812.9195, 970.4645
813.4016, 974.6622
813.8837, 977.7495
814.3658, 971.4986
814.8480, 957.0070
815.3301, 945.1257
815.8122, 935.9174
816.2943, 930.1465
816.7764, 932.8176
817.2585, 936.6993
817.7407, 932.9271
818.2228, 920.2803
818.7049, 907.6178
819.1870, 899.0744
819.6691, 890.2465
820.1512, 876.4081
820.6334, 854.8757
821.1155, 850.1119
821.5976, 865.8687
822.0797, 885.0759
822.5618, 896.1362
823.0439, 899.8259
823.5261, 896.9231
824.0082, 887.4609
824.4903, 879.0853
824.9724, 880.9616
825.4545, 883.5439
825.9366, 877.2764
826.4188, 858.4032
826.9009, 845.7949
827.3830, 843.2682
827.8651, 844.8391
828.3472, 847.8421
828.8293, 852.4773
829.3115, 855.8833
829.7936, 858.1213
830.2757, 858.5345
830.7578, 855.4246
831.2399, 850.5550
831.7220, 846.5220
832.2042, 843.6147
832.6863, 841.5062
833.1684, 837.3140
833.6505, 836.0266
834.1326, 843.1953
834.6147, 861.3568
835.0969, 870.1927
835.5790, 866.0211
836.0611, 861.1736
836.5432, 866.4618
837.0253, 879.0917
837.5074, 883.7004
837.9896, 880.0071
838.4717, 875.3157
838.9538, 873.6357
839.4359, 874.6367
839.9180, 878.5396
840.4001, 885.5389
840.8823, 892.6942
841.3644, 900.7395
841.8465, 907.2740
842.3286, 910.2908
842.8107, 909.5481
843.2928, 912.9080
843.7750, 920.8156
844.2571, 928.5347
844.7392, 930.4221
845.2213, 930.6365
845.7034, 938.7831
846.1855, 954.5112
846.6677, 965.4747
847.1498, 958.3093
847.6319, 950.2292
848.1140, 954.2256
848.5961, 971.6593
849.0782, 975.8500
849.5604, 960.6453
850.0425, 947.2586
850.5246, 949.9338
851.0067, 964.3641
851.4888, 969.3263
851.9709, 965.3950
852.4531, 959.2151
852.9352, 952.3591
853.4173, 947.1773
853.8994, 947.1818
854.3815, 951.8882
854.8636, 953.5114
855.3458, 944.5258
855.8279, 939.6362
856.3100, 945.5702
856.7921, 960.2916
857.2742, 967.7775
857.7563, 967.6514
858.2385, 967.8873
858.7206, 974.5903
859.2027, 983.3987
859.6848, 989.3152
860.1669, 992.0996
860.6490, 990.9819
861.1312, 983.0371
861.6133, 973.7158
862.0954, 964.7115
862.5775, 956.1646
863.0596, 947.6609
863.5417, 937.9276
864.0239, 933.6643
864.5060, 939.9298
864.9881, 950.4891
865.4702, 949.2488
865.9523, 939.2232
866.4344, 931.7213
866.9166, 933.5911
867.3987, 938.4190
867.8808, 946.9372
868.3629, 955.7009
868.8450, 954.0504
869.3271, 930.8756
869.8093, 916.8457
870.2914, 920.8846
870.7735, 933.6921
871.2556, 935.7256
871.7377, 927.6628
872.2198, 913.8035
872.7020, 890.6365
873.1841, 871.0645
873.6662, 873.7715
874.1483, 887.5459
874.6304, 894.1788
875.1125, 879.4593
875.5947, 869.5093
876.0768, 870.1359
876.5589, 874.7857
877.0410, 874.4016
877.5231, 868.7831
878.0052, 861.0239
878.4874, 850.8207
878.9695, 841.5276
879.4516, 838.3248
879.9337, 838.4792
880.4158, 837.4024
880.8979, 833.2327
881.3801, 829.5492
881.8622, 828.7769
882.3443, 828.1862
882.8264, 824.9168
883.3085, 817.3680
883.7906, 813.7108
884.2727, 815.2734
884.7548, 816.7226
885.2369, 810.2406
885.7191, 799.9077
886.2012, 796.3984
886.6833, 801.6122
887.1654, 804.6644
887.6475, 795.3987
888.1296, 784.3304
888.6118, 780.2245
889.0939, 785.5184
889.5760, 786.5421
890.0581, 782.4962
890.5402, 776.1393
891.0223, 768.6844
891.5045, 760.4364
891.9866, 751.8635
892.4687, 743.3362
892.9508, 737.6118
893.4329, 737.0345
893.9150, 739.5771
894.3972, 746.5759
894.8793, 757.3287
895.3614, 759.3679
895.8435, 744.8133
896.3256, 734.2856
896.8077, 737.6890
897.2899, 750.0432
897.7720, 750.2463
898.2541, 739.5334
898.7362, 729.4697
899.2183, 725.9427
899.7004, 726.0042
900.1826, 729.5728
900.6647, 734.7645
901.1468, 736.4457
901.6289, 728.6642
902.1110, 723.4878
902.5931, 724.3964
903.0753, 727.8818
903.5574, 724.7608
904.0395, 715.5331
904.5216, 710.6098
905.0037, 713.6432
905.4858, 720.0850
905.9680, 728.0353
906.4501, 735.1605
906.9322, 737.6970
907.4143, 729.6579
907.8964, 724.8721
908.3785, 728.8735
908.8607, 733.7426
909.3428, 728.5891
909.8249, 712.1573
910.3070, 709.8951
910.7891, 726.3840
911.2712, 742.8708
911.7534, 736.7687
912.2355, 720.7423
912.7176, 712.1867
913.1997, 714.7871
913.6818, 717.2408
914.1639, 715.1037
914.6461, 712.5812
915.1282, 711.2899
915.6103, 711.0721
916.0924, 718.0710
916.5745, 733.6193
917.0566, 743.8756
917.5388, 733.2581
918.0209, 714.4368
918.5030, 706.7457
918.9851, 709.1642
919.4672, 710.9337
919.9493, 706.4117
920.4315, 701.7867
920.9136, 700.1606
921.3957, 700.3861
921.8778, 695.9834
922.3599, 685.6560
922.8420, 681.2421
923.3242, 689.3246
923.8063, 702.0977
924.2884, 708.1620
924.7705, 709.0033
925.2526, 708.2339
925.7347, 711.2829
926.2169, 708.0694
926.6990, 682.8356
927.1811, 656.0016
927.6632, 658.3964
928.1453, 697.2753
928.6274, 723.4890
929.1096, 730.0386
929.5917, 726.4432
930.0738, 720.7867
930.5559, 714.3635
931.0380, 709.2148
931.5201, 705.8092
932.0023, 703.5958
932.4844, 705.7529
932.9665, 706.1434
933.4486, 698.5472
933.9307, 680.2657
934.4128, 677.3040
934.8950, 691.8750
935.3771, 706.7071
935.8592, 706.4167
936.3413, 699.0544
936.8234, 698.0210
937.3055, 703.0103
937.7877, 707.5674
938.2698, 709.3888
938.7519, 709.6071
939.2340, 708.7717
939.7161, 706.7937
940.1982, 701.7364
940.6804, 692.5484
941.1625, 689.0225
941.6446, 696.6555
942.1267, 708.6146
942.6088, 715.4780
943.0909, 718.5154
943.5731, 720.4336
944.0552, 720.8083
944.5373, 721.9531
945.0194, 725.7791
945.5015, 729.8055
945.9836, 730.4072
946.4658, 726.7910
946.9479, 728.2349
947.4300, 736.7634
947.9121, 744.4524
948.3942, 741.1337
948.8763, 732.4506
949.3585, 725.6443
949.8406, 721.6985
950.3227, 720.4367
950.8048, 722.8659
951.2869, 727.1970
951.7690, 733.9634
952.2512, 742.9201
952.7333, 744.1457
953.2154, 737.4257
953.6975, 730.2963
954.1796, 724.4813
954.6617, 722.8069
955.1439, 732.0031
955.6260, 748.7977
956.1081, 761.5943
956.5902, 764.1408
957.0723, 765.3406
957.5544, 767.1627
958.0366, 768.6659
958.5187, 766.2853
959.0008, 760.4728
959.4829, 760.2838
959.9650, 770.4002
960.4471, 779.7467
960.9293, 773.9968
961.4114, 762.6290
961.8935, 757.6089
962.3756, 764.3864
962.8577, 771.8398
963.3398, 780.2864
963.8220, 787.7701
964.3041, 792.9484
964.7862, 795.8393
965.2683, 795.9384
965.7504, 793.2678
966.2325, 789.6844
966.7147, 783.5363
967.1968, 779.3785
967.6789, 782.0444
968.1610, 791.1627
968.6431, 798.7408
969.1252, 807.1100
969.6074, 807.3616
970.0895, 792.6813
970.5716, 772.2859
971.0537, 771.3929
971.5358, 785.5405
972.0179, 798.2883
972.5001, 804.6013
972.9822, 806.3338
973.4643, 800.7402
973.9464, 792.8085
974.4285, 790.1535
974.9106, 796.6154
975.3928, 797.3534
975.8749, 790.5172
976.3570, 781.7449
976.8391, 777.0891
977.3212, 774.7153
977.8033, 770.8300
978.2855, 765.0801
978.7676, 758.1702
979.2497, 747.0562
979.7318, 738.4275
980.2139, 737.2912
980.6960, 742.4626
981.1782, 741.7171
981.6603, 734.1675
982.1424, 729.1144
982.6245, 733.1855
983.1066, 739.1913
983.5887, 734.8803
984.0709, 724.7548
984.5530, 718.6820
985.0351, 723.8130
985.5172, 728.5317
985.9993, 732.3970
986.4814, 733.7680
986.9636, 729.4086
987.4457, 719.5632
987.9278, 711.6687
988.4099, 706.5022
988.8920, 703.6708
989.3741, 704.1887
989.8563, 705.9619
990.3384, 706.8875
990.8205, 706.6029
991.3026, 706.6071
991.7847, 707.1961
992.2668, 707.5760
992.7490, 706.9650
993.2311, 706.0167
993.7132, 708.3261
994.1953, 712.8683
994.6774, 714.9309
995.1595, 711.1979
995.6417, 705.3917
996.1238, 697.1188
996.6059, 688.9475
997.0880, 685.5408
997.5701, 688.2640
998.0522, 691.7036
998.5344, 695.4452
999.0165, 699.5745
999.4986, 706.5018
999.9807, 713.2395
1000.463, 712.9815
1000.945, 704.3480
1001.427, 695.9908
1001.909, 689.3096
1002.391, 685.9930
1002.873, 687.6707
1003.356, 693.7049
1003.838, 697.9866
1004.320, 700.5690
1004.802, 700.8022
1005.284, 695.8074
1005.766, 691.1995
1006.248, 693.4350
1006.730, 700.5831
1007.212, 708.7079
1007.695, 723.6490
1008.177, 728.5118
1008.659, 717.5657
1009.141, 703.0396
1009.623, 701.5714
1010.105, 709.8281
1010.587, 711.1151
1011.069, 703.2881
1011.551, 697.4395
1012.034, 703.4746
1012.516, 712.3517
1012.998, 718.0419
1013.480, 720.3503
1013.962, 721.1859
1014.444, 720.2383
1014.926, 719.5091
1015.408, 721.1971
1015.891, 721.9465
1016.373, 711.8022
1016.855, 696.4391
1017.337, 688.4732
1017.819, 699.8060
1018.301, 709.0524
1018.783, 708.6088
1019.265, 706.5718
1019.747, 713.8592
1020.230, 730.4813
1020.712, 729.2431
1021.194, 707.7097
1021.676, 690.1216
1022.158, 703.6530
1022.640, 724.6416
1023.122, 730.4283
1023.604, 720.4858
1024.087, 715.9849
1024.569, 720.9105
1025.051, 725.4752
1025.533, 726.6410
1026.015, 725.9716
1026.497, 727.0343
1026.979, 729.1097
1027.461, 729.8740
1027.943, 727.8192
1028.426, 726.1909
1028.908, 727.0258
1029.390, 728.5380
1029.872, 729.2535
1030.354, 729.2066
1030.836, 727.0626
1031.318, 722.4003
1031.800, 720.7404
1032.282, 731.2103
1032.765, 743.4571
1033.247, 742.8173
1033.729, 732.2038
1034.211, 727.8854
1034.693, 742.9283
1035.175, 749.3807
1035.657, 738.5881
1036.139, 721.6223
1036.622, 720.6314
1037.104, 731.1134
1037.586, 734.3941
1038.068, 724.4847
1038.550, 716.8010
1039.032, 723.1795
1039.514, 733.8560
1039.996, 741.9168
1040.479, 747.3702
1040.961, 748.1874
1041.443, 744.0226
1041.925, 737.8132
1042.407, 729.1724
1042.889, 721.1570
1043.371, 719.0261
1043.853, 720.9916
1044.335, 722.7395
1044.818, 722.7808
1045.300, 722.8279
1045.782, 723.5880
1046.264, 723.6985
1046.746, 720.6660
1047.228, 715.3051
1047.710, 712.4127
1048.192, 712.5145
1048.674, 711.7711
1049.157, 704.4001
1049.639, 698.1056
1050.121, 700.5974
1050.603, 709.8598
1051.085, 710.8220
1051.567, 702.0551
1052.049, 694.7877
1052.531, 692.7890
1053.014, 694.0728
1053.496, 699.2217
1053.978, 704.7438
1054.460, 704.4808
1054.942, 692.2133
1055.424, 684.3965
1055.906, 684.2928
1056.388, 685.8620
1056.870, 684.4758
1057.353, 680.7482
1057.835, 675.9622
1058.317, 670.9933
1058.799, 672.1069
1059.281, 693.6364
1059.763, 710.9549
1060.245, 706.4772
1060.727, 689.6633
1061.209, 681.6271
1061.692, 683.6731
1062.174, 684.3633
1062.656, 681.8192
1063.138, 678.1230
1063.620, 674.2156
1064.102, 671.1964
1064.584, 670.7597
1065.066, 673.3192
1065.549, 675.9609
1066.031, 677.2679
1066.513, 681.1024
1066.995, 691.3890
1067.477, 703.4993
1067.959, 704.0067
1068.441, 695.0217
1068.923, 682.7315
1069.405, 662.7302
1069.888, 650.8784
1070.370, 660.6062
1070.852, 676.6971
1071.334, 685.8892
1071.816, 687.9237
1072.298, 685.5930
1072.780, 678.8332
1073.262, 672.6870
1073.745, 670.0690
1074.227, 670.2762
1074.709, 675.2439
1075.191, 682.8945
1075.673, 684.2828
1076.155, 675.4496
1076.637, 670.5385
1077.119, 673.1068
1077.601, 677.4694
1078.083, 674.0384
1078.566, 667.2893
1079.048, 666.4039
1079.530, 673.5023
1080.012, 680.0323
1080.494, 684.0587
1080.976, 685.6099
1081.458, 683.6694
1081.940, 679.4392
1082.423, 678.3554
1082.905, 679.9960
1083.387, 681.7498
1083.869, 682.4778
1084.351, 683.2460
1084.833, 685.7693
1085.315, 688.0734
1085.797, 687.2482
1086.280, 681.0759
1086.762, 682.4314
1087.244, 692.3068
1087.726, 700.9954
1088.208, 700.3097
1088.690, 695.1541
1089.172, 689.2369
1089.654, 683.5441
1090.136, 681.2863
1090.619, 684.6274
1091.101, 688.7798
1091.583, 694.1017
1092.065, 698.0057
1092.547, 695.1110
1093.029, 688.4080
1093.511, 685.3630
1093.993, 687.1305
1094.475, 689.3448
1094.958, 690.1552
1095.440, 690.9559
1095.922, 691.5722
1096.404, 692.8573
1096.886, 700.3426
1097.368, 712.7818
1097.850, 718.9876
1098.332, 713.1358
1098.815, 705.9513
1099.297, 706.8380
1099.779, 709.3103
1100.261, 705.7921
1100.743, 694.4100
1101.225, 689.2833
1101.707, 691.0576
1102.189, 693.4024
1102.672, 689.9562
1103.154, 686.7039
1103.636, 693.7952
1104.118, 706.5264
1104.600, 713.6161
1105.082, 707.5626
1105.564, 705.0163
1106.046, 708.1276
1106.528, 712.0796
1107.010, 709.7714
1107.493, 704.9922
1107.975, 708.1594
1108.457, 719.0120
1108.939, 726.3831
1109.421, 720.5455
1109.903, 717.0966
1110.385, 721.3823
1110.867, 730.1258
1111.350, 737.8726
1111.832, 744.1384
1112.314, 744.9987
1112.796, 739.0491
1113.278, 731.8894
1113.760, 726.5768
1114.242, 721.9252
1114.724, 715.4183
1115.207, 707.7908
1115.689, 710.7783
1116.171, 724.6830
1116.653, 737.1903
1117.135, 743.0358
1117.617, 745.9315
1118.099, 750.0909
1118.581, 753.3043
1119.063, 751.8886
1119.546, 742.5024
1120.028, 738.4670
1120.510, 741.0986
1120.992, 743.3578
1121.474, 737.8757
1121.956, 730.4115
1122.438, 731.7779
1122.920, 738.8958
1123.402, 742.6297
1123.885, 738.9761
1124.367, 732.5380
1124.849, 721.1623
1125.331, 711.8967
1125.813, 715.8397
1126.295, 727.7303
1126.777, 732.3419
1127.259, 729.1979
1127.742, 727.6493
1128.224, 733.7068
1128.706, 740.1654
1129.188, 745.8653
1129.670, 749.5205
1130.152, 746.5518
1130.634, 738.3171
1131.116, 733.9609
1131.599, 735.7520
1132.081, 737.2429
1132.563, 730.4857
1133.045, 725.4171
1133.527, 731.0450
1134.009, 745.0797
1134.491, 747.8109
1134.973, 739.3354
1135.455, 738.0305
1135.938, 754.7769
1136.420, 771.2108
1136.902, 763.4650
1137.384, 750.1288
1137.866, 758.3262
1138.348, 797.9200
1138.830, 803.2216
1139.312, 768.7321
1139.794, 736.7610
1140.277, 738.6291
1140.759, 750.4880
1141.241, 736.8190
1141.723, 711.1478
1142.205, 702.2832
1142.687, 732.8752
1143.169, 745.9735
1143.651, 736.0349
1144.134, 720.7869
1144.616, 715.6560
1145.098, 716.3524
1145.580, 714.7559
1146.062, 711.5574
1146.544, 711.2143
1147.026, 718.8486
1147.508, 724.2557
1147.990, 725.5565
1148.473, 724.8747
1148.955, 725.7493
1149.437, 726.8303
1149.919, 724.3990
1150.401, 718.0875
1150.883, 709.7766
1151.365, 695.0667
1151.847, 684.8400
1152.329, 681.7953
1152.812, 685.9258
1153.294, 702.1267
1153.776, 726.2679
1154.258, 738.5281
1154.740, 733.4471
1155.222, 724.7993
1155.704, 718.5065
1156.186, 712.7446
1156.669, 705.9133
1157.151, 698.6312
1157.633, 694.6570
1158.115, 693.7973
1158.597, 694.1140
1159.079, 695.6533
1159.561, 696.3885
1160.043, 693.1323
1160.526, 689.6627
1161.008, 689.5663
1161.490, 692.9307
1161.972, 698.3126
1162.454, 705.7477
1162.936, 708.8351
1163.418, 700.5970
1163.900, 690.9638
1164.382, 687.1785
1164.865, 687.8197
1165.347, 691.1770
1165.829, 698.7417
1166.311, 702.5917
1166.793, 702.5625
1167.275, 699.8476
1167.757, 691.8456
1168.239, 684.5612
1168.721, 684.4231
1169.204, 690.0150
1169.686, 698.2896
1170.168, 712.0370
1170.650, 718.2108
1171.132, 714.9759
1171.614, 707.6498
1172.096, 695.6139
1172.578, 686.0532
1173.061, 692.0555
1173.543, 710.7518
1174.025, 721.9280
1174.507, 721.7059
1174.989, 717.6068
1175.471, 709.6760
1175.953, 701.5793
1176.435, 696.8674
1176.917, 695.3840
1177.400, 698.3993
1177.882, 705.8101
1178.364, 709.5637
1178.846, 707.1969
1179.328, 703.6913
1179.810, 699.7203
1180.292, 696.3361
1180.774, 695.9482
1181.256, 697.1509
1181.739, 696.6462
1182.221, 693.3469
1182.703, 693.7479
1183.185, 702.6421
1183.667, 708.7891
1184.149, 706.8452
1184.631, 701.1170
1185.113, 702.1799
1185.596, 706.9617
1186.078, 707.6539
1186.560, 700.5464
1187.042, 695.9472
1187.524, 698.4840
1188.006, 700.3098
1188.488, 696.3604
1188.970, 689.5482
1189.453, 688.1106
1189.935, 691.5316
1190.417, 699.1522
1190.899, 716.0718
1191.381, 725.5593
1191.863, 719.5433
1192.345, 711.1861
1192.827, 709.9883
1193.309, 713.3510
1193.792, 709.0491
1194.274, 699.2471
1194.756, 691.9761
1195.238, 691.4093
1195.720, 693.1518
1196.202, 698.3687
1196.684, 702.7796
1197.166, 701.5336
1197.648, 696.0922
1198.130, 694.5413
1198.613, 696.2347
1199.095, 697.1035
1199.577, 693.7977
1200.059, 691.0657
1200.541, 689.9648
1201.023, 690.3146
1201.505, 693.0165
1201.987, 697.2191
1202.470, 697.7870
1202.952, 694.9224
1203.434, 692.6439
1203.916, 691.2996
1204.398, 693.5309
1204.880, 702.6636
1205.362, 712.8704
1205.844, 713.7600
1206.327, 707.9465
1206.809, 710.8844
1207.291, 723.3707
1207.773, 734.1661
1208.255, 737.5803
1208.737, 737.1544
1209.219, 732.8920
1209.701, 727.3051
1210.183, 725.2460
1210.666, 725.9792
1211.148, 724.9487
1211.630, 721.5291
1212.112, 721.8906
1212.594, 736.4548
1213.076, 746.8971
1213.558, 744.8062
1214.040, 735.4633
1214.522, 729.2422
1215.005, 726.1073
1215.487, 726.8144
1215.969, 731.8829
1216.451, 735.7640
1216.933, 734.8448
1217.415, 732.6419
1217.897, 729.3992
1218.379, 726.9773
1218.862, 732.8419
1219.344, 744.2665
1219.826, 750.0007
1220.308, 746.9973
1220.790, 741.6997
1221.272, 730.7992
1221.754, 726.2240
1222.236, 736.5015
1222.719, 754.5922
1223.201, 758.4247
1223.683, 751.4440
1224.165, 745.3523
1224.647, 742.6604
1225.129, 743.3806
1225.611, 752.7275
1226.093, 759.4191
1226.575, 756.7195
1227.057, 748.6720
1227.540, 749.4401
1228.022, 756.2070
1228.504, 759.3857
1228.986, 753.8246
1229.468, 751.7287
1229.950, 762.0487
1230.432, 769.6000
1230.914, 764.0477
1231.397, 751.5915
1231.879, 756.1829
1232.361, 770.8808
1232.843, 774.0186
1233.325, 750.6907
1233.807, 736.0811
1234.289, 739.6698
1234.771, 749.5071
1235.254, 761.6178
1235.736, 773.3951
1236.218, 776.8245
1236.700, 773.6103
1237.182, 767.9222
1237.664, 757.0024
1238.146, 752.9374
1238.628, 760.4935
1239.110, 767.2015
1239.593, 762.5402
1240.075, 752.6367
1240.557, 753.2368
1241.039, 761.0554
1241.521, 768.1297
1242.003, 767.1226
1242.485, 776.9003
1242.967, 805.4849
1243.449, 826.6096
1243.932, 813.6644
1244.414, 786.2032
1244.896, 780.8144
1245.378, 790.4909
1245.860, 798.9010
1246.342, 801.7031
1246.824, 803.2503
1247.306, 803.7114
1247.789, 802.4474
1248.271, 795.8068
1248.753, 789.4322
1249.235, 795.3988
1249.717, 807.5106
1250.199, 810.8998
1250.681, 796.7366
1251.163, 791.3578
1251.646, 796.5635
1252.128, 803.2601
1252.610, 803.1220
1253.092, 802.2907
1253.574, 811.2913
1254.056, 823.9170
1254.538, 825.1647
1255.020, 809.2880
1255.502, 805.3925
1255.984, 815.7006
1256.467, 823.2869
1256.949, 808.1757
1257.431, 792.1403
1257.913, 797.4999
1258.395, 814.0600
1258.877, 820.1274
1259.359, 813.3491
1259.841, 815.1559
1260.324, 826.4222
1260.806, 833.5454
1261.288, 819.9834
1261.770, 806.5400
1262.252, 809.0067
1262.734, 819.1575
1263.216, 825.5674
1263.698, 828.1989
1264.181, 827.8243
1264.663, 824.7123
1265.145, 822.2164
1265.627, 821.8909
1266.109, 823.3419
1266.591, 826.7854
1267.073, 831.5765
1267.555, 838.8398
1268.037, 847.4512
1268.520, 847.6023
1269.002, 839.9641
1269.484, 832.9838
1269.966, 831.3260
1270.448, 830.3907
1270.930, 827.4500
1271.412, 826.6655
1271.894, 835.8217
1272.376, 850.4971
1272.859, 854.9290
1273.341, 850.4949
1273.823, 847.8929
1274.305, 856.6387
1274.787, 858.4515
1275.269, 848.6697
1275.751, 837.1265
1276.233, 835.0862
1276.716, 838.0147
1277.198, 836.3022
1277.680, 831.6364
1278.162, 832.5251
1278.644, 844.6747
1279.126, 853.5449
1279.608, 857.5092
1280.090, 859.9551
1280.573, 865.5427
1281.055, 870.1630
1281.537, 867.9518
1282.019, 860.6518
1282.501, 853.6191
1282.983, 845.9271
1283.465, 844.8959
1283.947, 851.6354
1284.429, 858.8395
1284.911, 859.3152
1285.394, 859.2268
##END=



