##NAMES=Cassiterite
##RRUFFID=R040017
##IDEAL CHEMISTRY=SnO_2_
##LOCALITY=Bolivia
##OWNER=RRUFF
##SOURCE=University of Arizona Mineral Museum
##DESCRIPTION=Dark brown short prismatic single crystals
##STATUS=The identification of this mineral has been confirmed by X-ray diffraction and chemical analysis
##URL=rruff.info/R040017
##MEASURED CHEMISTRY=Sn_1.00_O_2_; trace amounts of Fe
139.3607, 318.5490
139.8428, 320.3870
140.3250, 320.3247
140.8071, 317.4218
141.2892, 316.1290
141.7713, 317.7361
142.2534, 321.7973
142.7355, 323.2605
143.2177, 320.2433
143.6998, 316.8765
144.1819, 317.2267
144.6640, 323.6662
145.1461, 329.6316
145.6283, 333.9743
146.1104, 336.5540
146.5925, 338.0644
147.0746, 338.4515
147.5567, 337.7556
148.0388, 335.9320
148.5210, 331.2141
149.0031, 327.2681
149.4852, 325.3446
149.9673, 326.9838
150.4494, 327.6776
150.9315, 327.1270
151.4136, 325.6516
151.8958, 323.9634
152.3779, 319.8215
152.8600, 317.1926
153.3421, 317.7444
153.8242, 326.2428
154.3063, 332.5594
154.7885, 336.0958
155.2706, 336.8013
155.7527, 334.7891
156.2348, 323.8247
156.7169, 313.5756
157.1990, 310.5648
157.6812, 325.5047
158.1633, 338.8053
158.6454, 343.5478
159.1275, 339.4288
159.6096, 337.3904
160.0917, 342.8263
160.5739, 351.2801
161.0560, 358.0457
161.5381, 361.7427
162.0202, 363.3121
162.5023, 362.6489
162.9844, 359.3904
163.4666, 356.0051
163.9487, 353.4687
164.4308, 351.5292
164.9129, 349.7675
165.3950, 348.4408
165.8771, 346.9864
166.3593, 344.8132
166.8414, 341.3478
167.3235, 338.4014
167.8056, 336.7187
168.2877, 336.3446
168.7698, 337.3907
169.2519, 341.0684
169.7341, 345.7367
170.2162, 349.9564
170.6983, 354.1855
171.1804, 356.7143
171.6625, 355.0605
172.1446, 349.8881
172.6268, 344.9276
173.1089, 343.2942
173.5910, 343.3782
174.0731, 342.7513
174.5552, 340.4547
175.0373, 337.1670
175.5195, 332.7756
176.0016, 327.3186
176.4837, 323.5247
176.9658, 325.4193
177.4479, 330.8412
177.9300, 334.9742
178.4122, 334.3410
178.8943, 331.6035
179.3764, 330.9747
179.8585, 332.5778
180.3406, 335.6467
180.8227, 340.1516
181.3049, 345.6776
181.7870, 350.8009
182.2691, 356.0354
182.7512, 360.2693
183.2333, 359.5535
183.7154, 352.2985
184.1976, 344.1615
184.6797, 344.4531
185.1618, 352.2186
185.6439, 358.9395
186.1260, 357.9233
186.6081, 351.2204
187.0903, 347.4023
187.5724, 348.2593
188.0545, 351.1193
188.5366, 350.3357
189.0187, 345.8894
189.5008, 342.4617
189.9829, 344.9765
190.4651, 352.4701
190.9472, 357.4947
191.4293, 357.9437
191.9114, 355.5794
192.3935, 355.1816
192.8756, 356.9854
193.3578, 358.9958
193.8399, 359.2804
194.3220, 357.8830
194.8041, 356.7845
195.2862, 356.7813
195.7683, 357.4465
196.2505, 356.6084
196.7326, 354.0266
197.2147, 350.8726
197.6968, 348.0601
198.1789, 345.5456
198.6610, 344.0759
199.1432, 343.6075
199.6253, 344.2359
200.1074, 348.0153
200.5895, 356.1143
201.0716, 364.7621
201.5537, 368.1299
202.0359, 365.2392
202.5180, 362.8700
203.0001, 364.2168
203.4822, 369.6811
203.9643, 371.6437
204.4464, 368.6058
204.9286, 364.0207
205.4107, 364.1693
205.8928, 370.1428
206.3749, 376.9808
206.8570, 383.1070
207.3391, 388.7788
207.8212, 391.7088
208.3034, 390.3660
208.7855, 387.4883
209.2676, 390.0808
209.7497, 400.3372
210.2318, 410.2698
210.7139, 415.0717
211.1961, 412.8285
211.6782, 413.4560
212.1603, 418.2961
212.6424, 426.0369
213.1245, 432.0240
213.6066, 434.6189
214.0888, 438.7230
214.5709, 447.6837
215.0530, 463.0377
215.5351, 478.7831
216.0172, 495.2916
216.4993, 511.8083
216.9815, 525.1603
217.4636, 534.0782
217.9457, 541.6268
218.4278, 550.3612
218.9099, 561.8047
219.3920, 570.0883
219.8742, 573.8218
220.3563, 573.3782
220.8384, 572.8878
221.3205, 572.6285
221.8026, 571.9880
222.2847, 570.1587
222.7669, 565.9225
223.2490, 563.3425
223.7311, 563.5736
224.2132, 566.6078
224.6953, 569.1193
225.1774, 571.8650
225.6596, 573.3197
226.1417, 571.3557
226.6238, 562.8582
227.1059, 557.2530
227.5880, 557.2233
228.0701, 563.2672
228.5522, 567.5173
229.0344, 569.0174
229.5165, 569.5760
229.9986, 571.4854
230.4807, 576.2271
230.9628, 579.4688
231.4449, 579.1194
231.9271, 574.0839
232.4092, 573.8588
232.8913, 581.6044
233.3734, 591.7152
233.8555, 596.4749
234.3376, 592.5480
234.8198, 589.0257
235.3019, 588.7795
235.7840, 592.8423
236.2661, 595.1277
236.7482, 594.7837
237.2303, 593.1719
237.7125, 592.1246
238.1946, 590.8072
238.6767, 591.4316
239.1588, 594.9639
239.6409, 602.1698
240.1230, 609.6653
240.6052, 617.3683
241.0873, 625.3457
241.5694, 634.3297
242.0515, 647.8951
242.5336, 656.7620
243.0157, 656.4328
243.4979, 642.3086
243.9800, 632.6641
244.4621, 628.4662
244.9442, 628.3384
245.4263, 629.5569
245.9084, 632.4184
246.3905, 636.1233
246.8727, 640.7284
247.3548, 647.4759
247.8369, 651.7412
248.3190, 652.7931
248.8011, 651.6238
249.2832, 650.7606
249.7654, 651.7704
250.2475, 650.6721
250.7296, 644.8077
251.2117, 629.3793
251.6938, 621.1772
252.1759, 623.4690
252.6581, 632.0182
253.1402, 635.6741
253.6223, 630.9724
254.1044, 627.0846
254.5865, 629.2677
255.0686, 642.3109
255.5508, 648.7708
256.0329, 645.8068
256.5150, 636.7314
256.9971, 630.8380
257.4792, 629.3516
257.9613, 628.7860
258.4435, 627.5007
258.9256, 625.2709
259.4077, 622.6577
259.8898, 618.8342
260.3719, 614.8354
260.8540, 614.3358
261.3362, 619.5103
261.8183, 624.0509
262.3004, 623.8417
262.7825, 616.2557
263.2646, 612.5020
263.7467, 614.3310
264.2289, 619.9697
264.7110, 623.6146
265.1931, 624.1572
265.6752, 625.0805
266.1573, 629.0762
266.6394, 637.7703
267.1216, 642.9389
267.6037, 642.7361
268.0858, 639.2310
268.5679, 639.0138
269.0500, 643.3017
269.5321, 647.8381
270.0143, 650.8463
270.4964, 652.7347
270.9785, 651.0157
271.4606, 645.3632
271.9427, 636.0620
272.4248, 623.1940
272.9070, 605.7758
273.3891, 587.8541
273.8712, 571.4708
274.3533, 556.6427
274.8354, 543.2566
275.3175, 530.6519
275.7997, 520.0616
276.2818, 515.6923
276.7639, 518.6403
277.2460, 523.3140
277.7281, 527.4415
278.2102, 531.2451
278.6924, 530.4199
279.1745, 522.7917
279.6566, 512.0876
280.1387, 507.7054
280.6208, 510.3417
281.1029, 515.0802
281.5851, 520.1719
282.0672, 525.6158
282.5493, 527.1456
283.0314, 523.3802
283.5135, 516.7414
283.9956, 512.3765
284.4778, 510.3987
284.9599, 509.4953
285.4420, 509.1100
285.9241, 509.2089
286.4062, 509.7466
286.8883, 511.2909
287.3705, 512.2977
287.8526, 508.7477
288.3347, 500.6082
288.8168, 493.1429
289.2989, 489.9259
289.7810, 490.3200
290.2632, 491.3934
290.7453, 493.2476
291.2274, 494.8196
291.7095, 493.4295
292.1916, 489.3535
292.6737, 486.4033
293.1558, 487.3957
293.6379, 491.3940
294.1201, 496.0994
294.6022, 502.0442
295.0843, 506.5697
295.5664, 503.3231
296.0485, 493.8442
296.5306, 487.9422
297.0128, 494.7696
297.4949, 508.8694
297.9770, 517.4448
298.4591, 518.7256
298.9412, 517.1781
299.4233, 516.6144
299.9055, 517.3240
300.3876, 520.4349
300.8697, 528.8936
301.3518, 539.4020
301.8339, 546.7535
302.3160, 550.2233
302.7982, 551.9370
303.2803, 554.3434
303.7624, 556.7278
304.2445, 557.3134
304.7266, 553.1235
305.2087, 547.5696
305.6909, 544.6268
306.1730, 544.8132
306.6551, 546.1147
307.1372, 547.9334
307.6193, 549.6764
308.1014, 550.1492
308.5836, 547.7378
309.0657, 544.5031
309.5478, 541.6423
310.0299, 539.1276
310.5120, 538.5670
310.9941, 541.9567
311.4763, 547.7977
311.9584, 553.9831
312.4405, 561.0134
312.9226, 567.0659
313.4047, 571.0256
313.8868, 572.9139
314.3690, 572.8461
314.8511, 569.0109
315.3332, 563.8714
315.8153, 560.2639
316.2974, 558.5772
316.7795, 559.0862
317.2617, 562.8280
317.7438, 569.7194
318.2259, 576.1832
318.7080, 579.4000
319.1901, 582.3063
319.6722, 587.5104
320.1544, 599.3298
320.6365, 609.9879
321.1186, 616.1030
321.6007, 618.0328
322.0828, 620.8563
322.5649, 628.0362
323.0471, 635.1984
323.5292, 639.2911
324.0113, 637.1752
324.4934, 634.8145
324.9755, 634.0093
325.4576, 634.2549
325.9398, 631.9383
326.4219, 621.2416
326.9040, 611.6697
327.3861, 608.2976
327.8682, 619.4016
328.3503, 627.0259
328.8325, 627.8605
329.3146, 624.1788
329.7967, 625.2849
330.2788, 637.1729
330.7609, 648.0320
331.2430, 652.2767
331.7251, 644.6022
332.2072, 639.7180
332.6894, 639.6682
333.1715, 642.0367
333.6536, 640.2744
334.1357, 631.8821
334.6178, 623.3627
335.0999, 617.2770
335.5821, 614.0242
336.0642, 612.0003
336.5463, 610.8821
337.0284, 611.2393
337.5105, 614.6129
337.9926, 622.0512
338.4748, 629.3161
338.9569, 635.6503
339.4390, 641.2817
339.9211, 641.4713
340.4032, 634.6675
340.8853, 625.1619
341.3675, 618.8216
341.8496, 615.6952
342.3317, 614.5226
342.8138, 615.2313
343.2959, 617.6519
343.7780, 621.0062
344.2602, 625.6595
344.7423, 629.6639
345.2244, 630.6863
345.7065, 628.8735
346.1886, 625.7920
346.6707, 621.1760
347.1529, 615.8904
347.6350, 612.6107
348.1171, 611.3716
348.5992, 610.5794
349.0813, 608.5879
349.5634, 605.8647
350.0456, 603.7934
350.5277, 602.7660
351.0098, 602.5097
351.4919, 603.5405
351.9740, 605.5245
352.4561, 605.9578
352.9383, 601.2733
353.4204, 594.3062
353.9025, 589.9490
354.3846, 590.3774
354.8667, 591.1980
355.3488, 585.8162
355.8310, 576.9174
356.3131, 572.4683
356.7952, 583.2662
357.2773, 597.3864
357.7594, 603.0554
358.2415, 596.6689
358.7237, 588.3969
359.2058, 583.3618
359.6879, 580.7481
360.1700, 579.0935
360.6521, 578.4142
361.1342, 578.0398
361.6164, 577.1667
362.0985, 575.3849
362.5806, 575.3003
363.0627, 579.4623
363.5448, 585.2633
364.0269, 589.6663
364.5091, 593.6223
364.9912, 594.4500
365.4733, 589.3728
365.9554, 577.9907
366.4375, 570.1515
366.9196, 569.9391
367.4018, 572.3846
367.8839, 573.6262
368.3660, 571.7925
368.8481, 570.5931
369.3302, 570.5454
369.8123, 571.5421
370.2944, 572.5981
370.7766, 573.1196
371.2587, 574.2750
371.7408, 576.7363
372.2229, 580.7814
372.7050, 585.6165
373.1871, 591.9698
373.6693, 598.8549
374.1514, 603.8492
374.6335, 606.7553
375.1156, 608.1337
375.5977, 607.4672
376.0798, 603.6779
376.5620, 603.5386
377.0441, 608.3066
377.5262, 615.0692
378.0083, 618.6627
378.4904, 618.6380
378.9725, 619.1512
379.4547, 622.1617
379.9368, 627.3157
380.4189, 632.3304
380.9010, 637.5346
381.3831, 641.0316
381.8652, 638.5139
382.3474, 631.1234
382.8295, 627.2344
383.3116, 631.0219
383.7937, 638.9717
384.2758, 643.7383
384.7579, 645.3486
385.2401, 646.2386
385.7222, 648.1851
386.2043, 650.8351
386.6864, 653.4429
387.1685, 655.7039
387.6506, 658.0748
388.1328, 660.8529
388.6149, 664.1264
389.0970, 668.0858
389.5791, 675.4111
390.0612, 682.2388
390.5433, 683.8342
391.0255, 677.8776
391.5076, 672.1115
391.9897, 672.6864
392.4718, 676.4727
392.9539, 677.8494
393.4360, 669.8705
393.9182, 662.8307
394.4003, 662.8631
394.8824, 671.3873
395.3645, 678.9052
395.8466, 683.1169
396.3287, 684.7540
396.8109, 684.5370
397.2930, 678.7789
397.7751, 675.1667
398.2572, 677.2966
398.7393, 684.8377
399.2214, 687.6407
399.7036, 679.8867
400.1857, 671.4957
400.6678, 668.1411
401.1499, 672.9439
401.6320, 677.8505
402.1141, 683.0251
402.5963, 688.0560
403.0784, 691.6312
403.5605, 693.4604
404.0426, 694.3748
404.5247, 693.9429
405.0068, 691.0604
405.4890, 692.8938
405.9711, 701.0370
406.4532, 711.5465
406.9353, 718.2660
407.4174, 720.7145
407.8995, 723.5660
408.3816, 728.9725
408.8637, 736.2429
409.3459, 741.7818
409.8280, 745.5738
410.3101, 748.0367
410.7922, 747.8771
411.2743, 746.1942
411.7564, 748.0807
412.2386, 755.9786
412.7207, 766.8204
413.2028, 777.0911
413.6849, 786.5570
414.1670, 793.0737
414.6491, 793.7170
415.1313, 791.0949
415.6134, 788.6868
416.0955, 786.9441
416.5776, 785.7463
417.0597, 784.9018
417.5418, 784.5189
418.0240, 784.8187
418.5061, 787.0256
418.9882, 789.1086
419.4703, 788.7664
419.9524, 785.4749
420.4345, 784.9279
420.9167, 792.1862
421.3988, 802.0519
421.8809, 809.5043
422.3630, 806.4488
422.8451, 808.1002
423.3272, 822.1287
423.8094, 846.6502
424.2915, 863.8512
424.7736, 866.3366
425.2557, 865.3725
425.7378, 866.2628
426.2199, 868.2819
426.7021, 873.3151
427.1842, 881.7536
427.6663, 893.1061
428.1484, 906.7106
428.6305, 924.1581
429.1126, 940.9763
429.5948, 955.9112
430.0769, 968.8930
430.5590, 979.5250
431.0411, 986.5176
431.5232, 993.7527
432.0053, 1005.560
432.4875, 1022.010
432.9696, 1041.881
433.4517, 1067.509
433.9338, 1094.854
434.4159, 1110.909
434.8980, 1115.666
435.3802, 1118.552
435.8623, 1128.965
436.3444, 1143.035
436.8265, 1149.969
437.3086, 1147.289
437.7907, 1139.849
438.2729, 1131.275
438.7550, 1122.049
439.2371, 1113.499
439.7192, 1111.163
440.2013, 1106.809
440.6834, 1089.503
441.1656, 1057.831
441.6477, 1030.420
442.1298, 1019.400
442.6119, 1017.513
443.0940, 1016.942
443.5761, 1020.962
444.0583, 1020.253
444.5403, 1007.574
445.0225, 985.7430
445.5046, 970.0100
445.9867, 967.7402
446.4688, 968.9742
446.9509, 968.7327
447.4330, 964.4922
447.9152, 962.7445
448.3973, 963.8791
448.8794, 967.3705
449.3615, 972.8375
449.8436, 982.4468
450.3257, 990.0845
450.8079, 993.0295
451.2900, 991.1465
451.7721, 992.6141
452.2542, 997.7153
452.7363, 1005.500
453.2184, 1016.353
453.7006, 1030.523
454.1827, 1041.512
454.6648, 1047.450
455.1469, 1050.236
455.6290, 1053.187
456.1111, 1056.371
456.5933, 1061.181
457.0754, 1069.658
457.5575, 1080.253
458.0396, 1088.132
458.5217, 1092.407
459.0038, 1098.076
459.4860, 1111.614
459.9681, 1130.144
460.4502, 1147.694
460.9323, 1154.172
461.4144, 1164.515
461.8965, 1191.672
462.3787, 1234.267
462.8608, 1280.884
463.3429, 1327.232
463.8250, 1375.189
464.3071, 1426.108
464.7892, 1479.063
465.2714, 1537.084
465.7535, 1601.664
466.2356, 1671.969
466.7177, 1745.023
467.1998, 1815.817
467.6819, 1893.682
468.1641, 1980.597
468.6462, 2076.023
469.1283, 2183.953
469.6104, 2303.293
470.0925, 2436.387
470.5746, 2588.696
471.0568, 2764.174
471.5389, 2943.692
472.0210, 3123.497
472.5031, 3306.757
472.9852, 3512.035
473.4673, 3747.629
473.9495, 3950.068
474.4316, 4098.525
474.9137, 4188.063
475.3958, 4185.693
475.8779, 4087.725
476.3600, 3910.330
476.8422, 3638.676
477.3243, 3299.618
477.8064, 2973.893
478.2885, 2685.532
478.7706, 2433.617
479.2527, 2222.143
479.7349, 2049.296
480.2170, 1904.052
480.6991, 1787.850
481.1812, 1693.228
481.6633, 1614.826
482.1454, 1552.596
482.6275, 1503.775
483.1096, 1471.032
483.5918, 1450.570
484.0739, 1436.697
484.5560, 1434.706
485.0381, 1432.785
485.5202, 1425.576
486.0023, 1412.100
486.4845, 1406.660
486.9666, 1412.886
487.4487, 1423.950
487.9308, 1437.234
488.4129, 1459.374
488.8951, 1467.022
489.3772, 1454.308
489.8593, 1429.990
490.3414, 1412.996
490.8235, 1403.374
491.3056, 1400.243
491.7878, 1403.544
492.2699, 1413.165
492.7520, 1430.347
493.2341, 1455.955
493.7162, 1481.062
494.1983, 1491.766
494.6805, 1494.079
495.1626, 1507.491
495.6447, 1543.437
496.1268, 1581.426
496.6089, 1597.020
497.0910, 1595.308
497.5732, 1593.026
498.0553, 1602.728
498.5374, 1613.220
499.0195, 1616.165
499.5016, 1610.638
499.9837, 1599.136
500.4659, 1577.037
500.9480, 1552.299
501.4301, 1532.393
501.9122, 1519.021
502.3943, 1510.660
502.8764, 1511.255
503.3586, 1517.906
503.8407, 1517.991
504.3228, 1509.930
504.8049, 1497.073
505.2870, 1479.339
505.7691, 1454.712
506.2513, 1435.379
506.7334, 1422.556
507.2155, 1413.368
507.6976, 1404.336
508.1797, 1395.335
508.6618, 1388.775
509.1440, 1386.616
509.6261, 1386.130
510.1082, 1380.753
510.5903, 1370.601
511.0724, 1357.429
511.5545, 1340.165
512.0366, 1321.302
512.5187, 1305.078
513.0009, 1291.874
513.4830, 1280.297
513.9651, 1270.360
514.4472, 1260.957
514.9293, 1250.439
515.4114, 1239.196
515.8936, 1225.692
516.3757, 1208.206
516.8578, 1187.477
517.3399, 1166.391
517.8220, 1145.325
518.3041, 1124.430
518.7863, 1103.469
519.2684, 1081.220
519.7505, 1061.935
520.2326, 1046.824
520.7147, 1034.052
521.1968, 1021.728
521.6790, 1009.435
522.1611, 998.6154
522.6432, 990.2114
523.1253, 983.3641
523.6074, 973.2811
524.0895, 959.0677
524.5717, 947.6391
525.0538, 945.0724
525.5359, 949.5939
526.0180, 950.2551
526.5001, 945.3640
526.9822, 943.1870
527.4644, 958.5586
527.9465, 983.6668
528.4286, 999.6581
528.9107, 994.7654
529.3928, 984.2349
529.8749, 979.4451
530.3571, 979.9570
530.8392, 984.2982
531.3213, 994.7942
531.8034, 1006.638
532.2855, 1016.724
532.7676, 1023.877
533.2498, 1032.759
533.7319, 1042.381
534.2140, 1055.138
534.6961, 1074.039
535.1782, 1105.549
535.6603, 1133.564
536.1425, 1157.391
536.6246, 1176.665
537.1067, 1189.290
537.5888, 1191.905
538.0709, 1196.890
538.5530, 1211.940
539.0352, 1236.695
539.5173, 1257.921
539.9994, 1275.814
540.4815, 1287.561
540.9636, 1288.336
541.4457, 1279.983
541.9279, 1268.755
542.4100, 1254.880
542.8921, 1241.003
543.3742, 1232.135
543.8563, 1226.405
544.3384, 1218.429
544.8206, 1203.308
545.3027, 1186.462
545.7848, 1172.180
546.2669, 1160.944
546.7490, 1148.819
547.2311, 1133.678
547.7133, 1117.647
548.1954, 1102.031
548.6775, 1085.441
549.1596, 1071.464
549.6417, 1059.452
550.1238, 1050.296
550.6060, 1046.373
551.0881, 1050.060
551.5702, 1054.147
552.0523, 1058.286
552.5344, 1061.709
553.0165, 1053.488
553.4987, 1031.485
553.9808, 1009.074
554.4629, 997.8647
554.9450, 995.8261
555.4271, 994.1852
555.9092, 992.5093
556.3914, 988.5387
556.8735, 976.9658
557.3556, 961.1235
557.8377, 948.5314
558.3198, 944.8795
558.8019, 943.6666
559.2841, 940.7841
559.7662, 936.3692
560.2483, 931.3309
560.7304, 925.1700
561.2125, 919.1192
561.6946, 913.5809
562.1768, 907.9114
562.6589, 904.9173
563.1410, 910.3587
563.6231, 915.0377
564.1052, 907.8186
564.5873, 879.3387
565.0695, 861.2471
565.5516, 861.7656
566.0337, 874.1090
566.5158, 875.2895
566.9979, 863.8754
567.4800, 853.1593
567.9622, 852.3469
568.4443, 858.1307
568.9264, 857.5237
569.4085, 850.2305
569.8906, 840.5624
570.3727, 828.8000
570.8549, 818.1059
571.3370, 813.8846
571.8191, 820.2979
572.3012, 827.4578
572.7833, 828.4866
573.2654, 825.7730
573.7476, 823.6848
574.2297, 825.2234
574.7118, 826.0823
575.1939, 823.3020
575.6760, 816.9073
576.1581, 815.2000
576.6403, 822.7642
577.1223, 830.3478
577.6044, 832.9816
578.0865, 828.9307
578.5687, 825.8864
579.0508, 824.3073
579.5329, 822.9981
580.0150, 819.3944
580.4971, 813.5998
580.9792, 811.2679
581.4614, 815.2594
581.9435, 821.7949
582.4256, 822.6778
582.9077, 819.1998
583.3898, 817.5964
583.8719, 822.5845
584.3541, 830.5287
584.8362, 838.7062
585.3183, 846.9156
585.8004, 853.4563
586.2825, 855.8172
586.7646, 857.0599
587.2468, 859.8111
587.7289, 866.2510
588.2110, 871.6705
588.6931, 873.6912
589.1752, 874.9542
589.6573, 879.9050
590.1395, 890.9957
590.6216, 900.8496
591.1037, 906.9170
591.5858, 910.3654
592.0679, 918.5296
592.5500, 932.1953
593.0322, 945.5858
593.5143, 953.6667
593.9964, 958.1677
594.4785, 967.1866
594.9606, 981.7180
595.4427, 995.1656
595.9249, 997.1667
596.4070, 994.9344
596.8891, 1000.725
597.3712, 1022.323
597.8533, 1046.149
598.3354, 1064.781
598.8176, 1079.870
599.2997, 1094.767
599.7818, 1108.330
600.2639, 1123.676
600.7460, 1142.538
601.2281, 1165.025
601.7103, 1186.170
602.1924, 1202.712
602.6745, 1222.427
603.1566, 1251.212
603.6387, 1291.697
604.1208, 1325.633
604.6030, 1351.617
605.0851, 1374.599
605.5672, 1400.778
606.0493, 1429.762
606.5314, 1456.222
607.0135, 1477.106
607.4957, 1498.413
607.9778, 1528.960
608.4599, 1566.575
608.9420, 1605.834
609.4241, 1640.665
609.9063, 1678.407
610.3884, 1723.885
610.8705, 1777.598
611.3526, 1835.020
611.8347, 1904.606
612.3168, 1971.052
612.7990, 2022.756
613.2811, 2043.582
613.7632, 2087.942
614.2453, 2161.942
614.7274, 2252.524
615.2095, 2339.423
615.6917, 2418.808
616.1738, 2520.418
616.6559, 2655.290
617.1380, 2808.115
617.6201, 2943.308
618.1022, 3063.272
618.5844, 3200.239
619.0665, 3377.614
619.5486, 3577.208
620.0307, 3773.875
620.5128, 3968.200
620.9949, 4186.390
621.4771, 4445.307
621.9592, 4730.562
622.4413, 5027.756
622.9234, 5330.594
623.4055, 5664.185
623.8876, 6027.483
624.3698, 6427.775
624.8519, 6871.052
625.3340, 7361.774
625.8161, 7888.457
626.2982, 8451.699
626.7803, 9052.500
627.2625, 9691.749
627.7446, 10368.78
628.2267, 11091.57
628.7088, 11866.77
629.1909, 12692.57
629.6730, 13572.90
630.1552, 14505.01
630.6373, 15413.69
631.1194, 16266.83
631.6015, 17046.63
632.0836, 17754.51
632.5657, 18410.58
633.0479, 18876.42
633.5300, 19133.70
634.0121, 19142.82
634.4942, 18862.08
634.9763, 18125.96
635.4584, 17294.20
635.9406, 16366.59
636.4227, 15370.27
636.9048, 14320.50
637.3869, 13196.84
637.8690, 12107.72
638.3511, 11084.72
638.8333, 10128.99
639.3154, 9264.836
639.7975, 8499.126
640.2796, 7794.283
640.7617, 7124.163
641.2438, 6510.171
641.7260, 5987.852
642.2081, 5564.581
642.6902, 5192.539
643.1723, 4847.422
643.6544, 4535.829
644.1365, 4260.291
644.6187, 4032.777
645.1008, 3823.971
645.5829, 3628.117
646.0650, 3447.019
646.5471, 3285.909
647.0292, 3151.339
647.5114, 3021.885
647.9935, 2894.194
648.4756, 2768.291
648.9577, 2648.763
649.4398, 2533.161
649.9219, 2432.818
650.4041, 2358.212
650.8862, 2301.341
651.3683, 2243.961
651.8504, 2186.381
652.3325, 2128.477
652.8146, 2074.063
653.2967, 2018.873
653.7788, 1953.830
654.2609, 1873.637
654.7430, 1808.057
655.2252, 1781.845
655.7073, 1769.328
656.1894, 1746.458
656.6715, 1700.445
657.1536, 1658.006
657.6357, 1619.072
658.1179, 1584.467
658.6000, 1557.795
659.0821, 1540.880
659.5642, 1522.704
660.0463, 1499.671
660.5284, 1473.723
661.0106, 1449.313
661.4927, 1426.576
661.9748, 1407.428
662.4569, 1395.642
662.9390, 1386.629
663.4211, 1374.653
663.9033, 1359.623
664.3854, 1345.680
664.8675, 1332.940
665.3496, 1323.482
665.8317, 1319.983
666.3138, 1327.455
666.7960, 1328.358
667.2781, 1317.069
667.7602, 1302.411
668.2423, 1292.799
668.7244, 1288.757
669.2065, 1287.985
669.6887, 1291.811
670.1708, 1296.188
670.6529, 1292.708
671.1350, 1282.357
671.6171, 1272.979
672.0992, 1267.899
672.5814, 1265.144
673.0635, 1262.705
673.5456, 1260.557
674.0277, 1258.483
674.5098, 1256.870
674.9919, 1255.019
675.4741, 1252.365
675.9562, 1248.923
676.4383, 1245.775
676.9204, 1237.510
677.4025, 1234.880
677.8846, 1245.423
678.3668, 1274.688
678.8489, 1292.447
679.3310, 1296.421
679.8131, 1294.464
680.2952, 1293.063
680.7773, 1292.525
681.2595, 1295.649
681.7416, 1303.712
682.2237, 1312.889
682.7058, 1316.317
683.1879, 1318.021
683.6700, 1325.831
684.1522, 1347.331
684.6343, 1370.976
685.1164, 1394.813
685.5985, 1417.068
686.0806, 1433.389
686.5627, 1436.414
687.0449, 1440.483
687.5270, 1448.799
688.0091, 1461.126
688.4912, 1475.461
688.9733, 1492.565
689.4554, 1509.391
689.9376, 1524.839
690.4197, 1538.726
690.9018, 1548.123
691.3839, 1552.752
691.8660, 1558.475
692.3481, 1570.784
692.8303, 1586.811
693.3124, 1604.462
693.7945, 1625.445
694.2766, 1639.679
694.7587, 1642.338
695.2408, 1636.165
695.7230, 1624.154
696.2051, 1603.692
696.6872, 1581.559
697.1693, 1557.872
697.6514, 1532.835
698.1335, 1508.399
698.6157, 1485.931
699.0978, 1454.438
699.5799, 1409.513
700.0620, 1355.552
700.5441, 1297.789
701.0262, 1237.889
701.5084, 1184.056
701.9905, 1143.854
702.4726, 1109.881
702.9547, 1077.848
703.4368, 1047.104
703.9189, 1015.323
704.4011, 972.4112
704.8832, 936.0543
705.3653, 917.5548
705.8474, 919.4628
706.3295, 921.1866
706.8116, 925.7568
707.2938, 925.0735
707.7759, 909.7979
708.2580, 879.6886
708.7401, 859.6619
709.2222, 852.3718
709.7043, 848.8085
710.1865, 835.6733
710.6686, 819.5475
711.1507, 815.7249
711.6328, 832.6184
712.1149, 849.9124
712.5970, 853.3241
713.0792, 848.9292
713.5613, 845.2302
714.0434, 843.6613
714.5255, 843.8143
715.0076, 846.0894
715.4897, 849.8005
715.9719, 853.4899
716.4540, 857.0790
716.9361, 860.6729
717.4182, 863.8776
717.9003, 867.3365
718.3824, 875.4244
718.8646, 887.1336
719.3467, 894.0915
719.8288, 888.1922
720.3109, 876.7644
720.7930, 867.3060
721.2751, 860.0009
721.7573, 853.4774
722.2394, 845.7861
722.7215, 839.9207
723.2036, 838.4747
723.6857, 842.9615
724.1678, 845.5616
724.6500, 847.6942
725.1321, 845.8986
725.6142, 834.5856
726.0963, 813.0383
726.5784, 802.4695
727.0605, 805.2538
727.5427, 812.1613
728.0248, 814.0606
728.5069, 812.2362
728.9890, 809.3035
729.4711, 805.7894
729.9532, 801.5033
730.4353, 792.8637
730.9174, 784.5593
731.3995, 782.6529
731.8817, 799.5720
732.3638, 808.9902
732.8459, 802.8372
733.3280, 789.4933
733.8101, 787.5804
734.2922, 801.1451
734.7744, 807.6730
735.2565, 798.7417
735.7386, 781.4753
736.2207, 772.6961
736.7028, 771.4140
737.1849, 771.7612
737.6671, 770.6675
738.1492, 769.7746
738.6313, 771.9278
739.1134, 776.1920
739.5955, 777.6960
740.0776, 769.1953
740.5598, 762.5811
741.0419, 765.2808
741.5240, 777.3764
742.0061, 784.1667
742.4882, 784.4545
742.9703, 781.8654
743.4525, 777.1330
743.9346, 770.6309
744.4167, 768.2733
744.8988, 770.3008
745.3809, 773.2141
745.8630, 773.1227
746.3452, 772.3594
746.8273, 774.4656
747.3094, 780.3718
747.7915, 786.6157
748.2736, 793.7705
748.7557, 799.3847
749.2379, 800.9769
749.7200, 796.6414
750.2021, 791.5316
750.6842, 785.2475
751.1663, 778.8159
751.6484, 772.1050
752.1306, 764.9998
752.6127, 764.3037
753.0948, 771.3357
753.5769, 784.6243
754.0590, 806.1671
754.5411, 832.1579
755.0233, 853.3459
755.5054, 862.3337
755.9875, 871.5201
756.4696, 887.8604
756.9517, 909.0203
757.4338, 930.9191
757.9160, 952.3663
758.3981, 974.9828
758.8802, 998.6671
759.3623, 1023.584
759.8444, 1049.775
760.3265, 1076.679
760.8087, 1109.760
761.2908, 1153.718
761.7729, 1203.109
762.2550, 1244.032
762.7371, 1279.750
763.2192, 1325.585
763.7014, 1396.138
764.1835, 1474.933
764.6656, 1546.983
765.1477, 1613.788
765.6298, 1692.775
766.1119, 1794.594
766.5941, 1902.140
767.0762, 2007.726
767.5583, 2111.591
768.0404, 2234.759
768.5225, 2378.289
769.0046, 2525.617
769.4868, 2662.861
769.9689, 2793.718
770.4510, 2931.741
770.9331, 3077.012
771.4152, 3211.931
771.8973, 3318.071
772.3795, 3411.018
772.8616, 3507.302
773.3437, 3615.972
773.8258, 3694.517
774.3079, 3727.630
774.7900, 3738.167
775.2722, 3739.171
775.7543, 3730.827
776.2364, 3714.105
776.7185, 3691.072
777.2006, 3652.051
777.6827, 3582.721
778.1649, 3489.705
778.6470, 3387.628
779.1291, 3277.523
779.6112, 3163.578
780.0933, 3042.168
780.5754, 2919.853
781.0576, 2805.701
781.5397, 2707.553
782.0218, 2606.054
782.5039, 2495.228
782.9860, 2383.689
783.4681, 2277.684
783.9503, 2176.934
784.4324, 2090.447
784.9145, 2022.513
785.3966, 1963.831
785.8787, 1901.818
786.3608, 1838.755
786.8430, 1778.487
787.3251, 1720.539
787.8072, 1670.083
788.2893, 1633.873
788.7714, 1606.311
789.2535, 1577.482
789.7357, 1544.126
790.2178, 1511.176
790.6999, 1477.697
791.1820, 1445.871
791.6641, 1419.057
792.1462, 1397.652
792.6284, 1378.579
793.1105, 1361.462
793.5926, 1345.171
794.0747, 1327.519
794.5568, 1308.856
795.0389, 1290.015
795.5211, 1269.884
796.0032, 1251.290
796.4853, 1236.744
796.9674, 1224.985
797.4495, 1211.459
797.9316, 1192.181
798.4138, 1176.527
798.8959, 1167.500
799.3780, 1163.299
799.8601, 1158.332
800.3422, 1152.610
800.8243, 1147.219
801.3065, 1144.327
801.7886, 1140.755
802.2707, 1129.579
802.7528, 1113.072
803.2349, 1098.794
803.7170, 1096.873
804.1992, 1092.021
804.6813, 1073.164
805.1633, 1042.461
805.6454, 1021.599
806.1276, 1014.274
806.6097, 1009.900
807.0918, 1005.282
807.5739, 1000.419
808.0560, 996.1449
808.5381, 992.2825
809.0203, 985.3046
809.5024, 968.2761
809.9845, 950.1584
810.4666, 943.4055
810.9487, 946.0217
811.4308, 944.5026
811.9130, 927.6240
812.3951, 911.2010
812.8772, 902.8293
813.3593, 901.9497
813.8414, 899.7062
814.3235, 896.9858
814.8057, 890.0131
815.2878, 873.4854
815.7699, 851.3039
816.2520, 840.2783
816.7341, 839.2684
817.2162, 837.7317
817.6984, 826.4385
818.1805, 813.3791
818.6626, 805.6892
819.1447, 803.5329
819.6268, 800.5110
820.1089, 797.6451
820.5911, 790.9712
821.0732, 776.9075
821.5553, 755.8123
822.0374, 742.7234
822.5195, 738.1824
823.0016, 736.5764
823.4838, 736.2101
823.9659, 735.4685
824.4480, 729.9757
824.9301, 720.0343
825.4122, 711.3993
825.8943, 707.9294
826.3765, 706.0555
826.8586, 704.0742
827.3407, 701.9211
827.8228, 698.0512
828.3049, 691.9427
828.7870, 685.0834
829.2692, 678.1149
829.7513, 671.0793
830.2334, 663.6724
830.7155, 655.8756
831.1976, 650.2265
831.6797, 652.1104
832.1619, 654.9030
832.6440, 648.8382
833.1261, 634.0092
833.6082, 624.2802
834.0903, 627.3788
834.5724, 634.2440
835.0546, 641.8313
835.5367, 650.2410
836.0188, 652.5521
836.5009, 647.1239
836.9830, 642.1804
837.4651, 644.0060
837.9473, 650.0400
838.4294, 651.3128
838.9115, 648.5789
839.3936, 651.3346
839.8757, 672.5773
840.3578, 695.9905
840.8400, 710.2211
841.3221, 714.2861
841.8042, 715.5330
842.2863, 712.8792
842.7684, 709.9653
843.2505, 707.3468
843.7327, 705.4681
844.2148, 709.7919
844.6969, 720.2930
845.1790, 732.7466
845.6611, 745.5584
846.1432, 757.9568
846.6254, 769.0179
847.1075, 778.7476
847.5896, 787.5568
848.0717, 798.3469
848.5538, 805.4160
849.0359, 804.8550
849.5181, 797.4759
850.0002, 793.6082
850.4823, 793.8400
850.9644, 795.2431
851.4465, 797.3851
851.9286, 799.2957
852.4108, 798.0501
852.8929, 793.9623
853.3750, 788.6492
853.8571, 779.3089
854.3392, 772.3333
854.8214, 774.7430
855.3035, 785.1381
855.7856, 787.8712
856.2677, 775.6533
856.7498, 767.3558
857.2319, 770.5549
857.7141, 782.1757
858.1962, 789.9366
858.6783, 793.9816
859.1604, 796.6018
859.6425, 799.7913
860.1246, 801.5950
860.6068, 797.5836
861.0889, 789.9850
861.5710, 786.5861
862.0531, 796.6547
862.5352, 803.4608
863.0173, 800.9556
863.4995, 792.0521
863.9816, 787.1982
864.4637, 787.2610
864.9458, 784.6166
865.4279, 775.0915
865.9100, 763.1133
866.3922, 756.9525
866.8743, 755.0104
867.3564, 752.7483
867.8385, 747.5748
868.3206, 742.2923
868.8027, 738.2668
869.2849, 735.0646
869.7670, 731.3552
870.2491, 726.7087
870.7312, 722.8022
871.2133, 720.3494
871.6954, 718.3094
872.1776, 715.5705
872.6597, 711.7033
873.1418, 704.3573
873.6239, 689.4009
874.1060, 676.4210
874.5881, 676.6976
875.0703, 682.6670
875.5524, 682.6047
876.0345, 665.7891
876.5166, 654.8016
876.9987, 653.9628
877.4808, 656.2249
877.9630, 649.4888
878.4451, 634.4338
878.9272, 625.7372
879.4093, 627.2797
879.8914, 630.7413
880.3735, 628.8879
880.8557, 622.8843
881.3377, 613.9661
881.8198, 600.5247
882.3019, 588.1340
882.7841, 577.3324
883.2662, 568.3333
883.7483, 561.6140
884.2304, 557.4120
884.7125, 554.0142
885.1946, 551.5638
885.6768, 548.6346
886.1589, 543.4510
886.6410, 536.9359
887.1231, 530.2025
887.6052, 523.2593
888.0873, 517.4503
888.5695, 514.8129
889.0516, 512.4039
889.5337, 507.4594
890.0158, 498.9608
890.4979, 495.3164
890.9800, 497.7376
891.4622, 500.5461
891.9443, 499.5807
892.4264, 495.7345
892.9085, 491.3680
893.3906, 486.4866
893.8727, 479.8904
894.3549, 466.5132
894.8370, 454.7969
895.3191, 452.1099
895.8012, 458.8480
896.2833, 459.2455
896.7654, 450.4741
897.2476, 442.1990
897.7297, 439.8913
898.2118, 441.0567
898.6939, 435.7773
899.1760, 425.3639
899.6581, 417.8445
900.1403, 422.8548
900.6224, 427.5362
901.1045, 420.0795
901.5866, 404.2948
902.0687, 395.8232
902.5508, 400.7090
903.0330, 404.3718
903.5151, 403.3020
903.9972, 399.5341
904.4793, 398.0961
904.9614, 398.6634
905.4435, 398.8971
905.9257, 397.9011
906.4078, 396.4188
906.8899, 394.3452
907.3720, 392.4197
907.8541, 391.8354
908.3362, 395.5986
908.8184, 396.9211
909.3005, 395.1085
909.7826, 390.9861
910.2647, 383.9639
910.7468, 374.4931
911.2289, 371.3054
911.7111, 377.0244
912.1932, 382.6926
912.6753, 376.8847
913.1574, 367.2556
913.6395, 363.4039
914.1216, 369.4611
914.6038, 374.1214
915.0859, 375.0284
915.5680, 374.7527
916.0501, 374.4646
916.5322, 374.0837
917.0143, 377.4751
917.4965, 385.0182
917.9786, 390.1644
918.4607, 384.8633
918.9428, 375.9130
919.4249, 371.3144
919.9070, 371.5370
920.3892, 371.9046
920.8713, 370.9393
921.3534, 369.9196
921.8355, 368.9147
922.3176, 368.1616
922.7997, 370.0462
923.2819, 374.6851
923.7640, 378.4565
924.2461, 379.8656
924.7282, 379.0289
925.2103, 374.3674
925.6924, 367.4851
926.1746, 362.9042
926.6567, 365.5149
927.1388, 366.6318
927.6209, 362.1425
928.1030, 356.0179
928.5851, 357.5450
929.0673, 367.4128
929.5494, 374.1971
930.0315, 375.1973
930.5136, 372.7213
930.9957, 366.8436
931.4778, 360.3695
931.9600, 358.3849
932.4421, 366.3465
932.9242, 370.2353
933.4063, 361.8441
933.8884, 352.0844
934.3705, 350.8477
934.8527, 359.4951
935.3348, 362.7076
935.8169, 359.1881
936.2990, 355.5991
936.7811, 360.5607
937.2632, 367.9840
937.7454, 368.4488
938.2275, 360.8120
938.7096, 355.6433
939.1917, 359.1474
939.6738, 363.0346
940.1559, 363.3709
940.6381, 360.6181
941.1202, 360.9480
941.6023, 364.5729
942.0844, 366.5751
942.5665, 362.6311
943.0486, 356.6605
943.5308, 353.3402
944.0129, 352.1532
944.4950, 351.5480
944.9771, 347.9299
945.4592, 349.0709
945.9413, 359.2928
946.4235, 373.3728
946.9056, 380.8118
947.3877, 381.5996
947.8698, 379.4377
948.3519, 373.8704
948.8340, 369.6735
949.3162, 374.3164
949.7983, 383.1474
950.2804, 389.4964
950.7625, 391.2151
951.2446, 391.6178
951.7267, 390.5246
952.2089, 389.0715
952.6910, 388.2304
953.1731, 387.9951
953.6552, 387.3646
954.1373, 386.3051
954.6194, 385.0191
955.1016, 381.0572
955.5837, 378.7773
956.0658, 384.2831
956.5479, 397.6828
957.0300, 407.5742
957.5121, 409.4921
957.9942, 411.3900
958.4763, 416.1661
958.9584, 422.8632
959.4406, 428.3275
959.9227, 432.4343
960.4048, 433.9179
960.8869, 428.7992
961.3690, 424.6608
961.8511, 430.4335
962.3333, 441.0896
962.8154, 446.4948
963.2975, 440.7689
963.7796, 436.6890
964.2617, 434.7672
964.7438, 435.5714
965.2260, 441.2609
965.7081, 450.5806
966.1902, 458.5161
966.6723, 464.3824
967.1544, 467.4565
967.6365, 464.4008
968.1187, 460.1443
968.6008, 459.0636
969.0829, 462.1020
969.5650, 465.8893
970.0471, 471.4405
970.5292, 475.0951
971.0114, 473.2078
971.4935, 467.9918
971.9756, 466.1795
972.4577, 467.4063
972.9398, 469.4656
973.4219, 472.0532
973.9041, 474.3285
974.3862, 476.5079
974.8683, 477.9861
975.3504, 477.0975
975.8325, 473.4485
976.3146, 468.6733
976.7968, 462.6768
977.2789, 456.7138
977.7610, 453.7314
978.2431, 451.8639
978.7252, 447.1508
979.2073, 437.5208
979.6895, 427.7057
980.1716, 419.1943
980.6537, 411.5006
981.1358, 404.3107
981.6179, 397.6143
982.1000, 391.3081
982.5822, 385.2409
983.0643, 380.7086
983.5464, 380.3897
984.0285, 381.1706
984.5106, 378.7848
984.9927, 373.5336
985.4749, 369.4554
985.9570, 371.3113
986.4391, 369.8186
986.9212, 361.1606
987.4033, 348.2537
987.8854, 338.9685
988.3676, 333.3341
988.8497, 333.0552
989.3318, 341.9653
989.8139, 349.7122
990.2960, 345.0994
990.7781, 334.3911
991.2603, 326.4749
991.7424, 324.3110
992.2245, 322.0543
992.7066, 319.3893
993.1887, 317.2729
993.6708, 316.7962
994.1530, 317.6245
994.6351, 318.4362
995.1172, 319.1855
995.5993, 320.6602
996.0814, 325.9816
996.5635, 329.7862
997.0457, 327.2697
997.5278, 319.5100
998.0099, 315.3039
998.4920, 315.4705
998.9741, 315.1048
999.4562, 311.7081
999.9384, 307.9961
1000.420, 309.3339
1000.903, 313.7759
1001.385, 317.1459
1001.867, 317.4817
1002.349, 317.2633
1002.831, 315.7776
1003.313, 315.0677
1003.795, 318.1592
1004.277, 325.3774
1004.760, 327.9534
1005.242, 325.1927
1005.724, 321.4697
1006.206, 319.7498
1006.688, 319.4776
1007.170, 320.4183
1007.652, 322.5164
1008.134, 324.7067
1008.616, 327.8530
1009.099, 329.1699
1009.581, 326.5996
1010.063, 322.5143
1010.545, 324.9305
1011.027, 332.0106
1011.509, 335.7672
1011.991, 331.0989
1012.473, 325.8755
1012.956, 324.5884
1013.438, 325.3029
1013.920, 325.6268
1014.402, 325.9364
1014.884, 323.4955
1015.366, 317.1641
1015.848, 312.6153
1016.330, 318.6100
1016.812, 328.4480
1017.295, 329.4020
1017.777, 321.3943
1018.259, 315.4273
1018.741, 316.7063
1019.223, 319.6394
1019.705, 323.0906
1020.187, 326.3971
1020.669, 326.4853
1021.151, 323.5895
1021.634, 321.7177
1022.116, 322.2779
1022.598, 324.2155
1023.080, 328.6695
1023.562, 333.0049
1024.044, 333.3621
1024.526, 324.6563
1025.008, 321.6011
1025.490, 326.3239
1025.973, 331.4496
1026.455, 328.4876
1026.937, 321.2944
1027.419, 322.4495
1027.901, 331.5410
1028.383, 339.2432
1028.865, 339.5842
1029.347, 338.7403
1029.830, 341.5489
##END=



