##NAMES=Catapleiite
##RRUFFID=R040005
##IDEAL CHEMISTRY=Na_2_Zr^4+^Si_3_O_9_&#183;2H_2_O
##LOCALITY=Langesundsfjord Eikaholmen Vestfold, Norway
##OWNER=RRUFF
##SOURCE=University of Arizona Mineral Museum
##DESCRIPTION=Brown thin tabular crystal
##STATUS=The identification of this mineral has been confirmed by X-ray diffraction and chemical analysis
##URL=rruff.info/R040005
##MEASURED CHEMISTRY=(Na_1.28_Ca_0.36_[box]_0.36_)_Σ=2_Zr_1.00_Si_3.00_O_9_·2H_2_O
125.7909, 25502.03
126.2731, 25409.10
126.7552, 25443.63
127.2373, 25496.94
127.7194, 25515.71
128.2015, 25491.32
128.6837, 25453.93
129.1658, 25452.95
129.6479, 25522.90
130.1300, 25560.44
130.6121, 25543.55
131.0942, 25503.57
131.5764, 25462.86
132.0585, 25431.49
132.5406, 25409.77
133.0227, 25399.83
133.5048, 25419.11
133.9869, 25431.79
134.4691, 25426.33
134.9512, 25411.94
135.4333, 25404.36
135.9154, 25414.21
136.3975, 25440.72
136.8796, 25465.35
137.3618, 25500.79
137.8439, 25524.40
138.3260, 25508.72
138.8081, 25460.77
139.2902, 25430.79
139.7723, 25471.29
140.2545, 25582.17
140.7366, 25660.72
141.2187, 25689.91
141.7008, 25689.49
142.1829, 25669.72
142.6650, 25624.01
143.1472, 25591.97
143.6293, 25631.85
144.1114, 25727.82
144.5935, 25811.62
145.0756, 25843.62
145.5577, 25839.22
146.0399, 25851.77
146.5220, 25900.20
147.0041, 25955.35
147.4862, 25996.13
147.9683, 26022.34
148.4504, 26038.34
148.9326, 26041.84
149.4147, 26030.56
149.8968, 26030.87
150.3789, 26068.22
150.8610, 26106.01
151.3431, 26121.57
151.8252, 26110.22
152.3074, 26087.88
152.7895, 26079.47
153.2716, 26092.83
153.7537, 26103.84
154.2358, 26115.18
154.7179, 26120.84
155.2001, 26115.07
155.6822, 26095.35
156.1643, 26064.40
156.6464, 26030.39
157.1285, 25981.75
157.6106, 25943.39
158.0928, 25927.43
158.5749, 25921.32
159.0570, 25906.55
159.5391, 25871.10
160.0212, 25817.84
160.5033, 25780.78
160.9855, 25780.63
161.4676, 25773.34
161.9497, 25742.53
162.4318, 25692.42
162.9139, 25636.18
163.3960, 25582.09
163.8782, 25530.54
164.3603, 25488.10
164.8424, 25469.92
165.3245, 25448.20
165.8066, 25402.82
166.2887, 25332.75
166.7709, 25254.13
167.2530, 25179.45
167.7351, 25108.71
168.2172, 25042.56
168.6993, 24962.80
169.1814, 24894.86
169.6636, 24882.59
170.1457, 24944.36
170.6278, 25013.76
171.1099, 25017.12
171.5920, 24966.38
172.0741, 24905.79
172.5563, 24836.50
173.0384, 24768.75
173.5205, 24739.43
174.0026, 24781.04
174.4847, 24824.39
174.9668, 24806.04
175.4490, 24730.13
175.9311, 24645.57
176.4132, 24584.60
176.8953, 24546.32
177.3774, 24511.06
177.8595, 24473.09
178.3417, 24439.57
178.8238, 24420.62
179.3059, 24416.07
179.7880, 24407.90
180.2701, 24368.42
180.7522, 24283.90
181.2344, 24225.40
181.7165, 24231.52
182.1986, 24248.30
182.6807, 24236.96
183.1628, 24188.08
183.6449, 24130.59
184.1271, 24116.60
184.6092, 24175.24
185.0913, 24221.23
185.5734, 24255.98
186.0555, 24271.73
186.5376, 24251.35
187.0198, 24188.29
187.5019, 24107.40
187.9840, 24074.97
188.4661, 24165.77
188.9482, 24211.84
189.4303, 24161.43
189.9125, 24072.43
190.3946, 24017.82
190.8767, 24036.20
191.3588, 24106.95
191.8409, 24132.71
192.3230, 24049.39
192.8052, 23992.13
193.2873, 24007.92
193.7694, 24064.60
194.2515, 24103.78
194.7336, 24088.65
195.2157, 24026.04
195.6979, 23982.29
196.1800, 23963.89
196.6621, 23952.49
197.1442, 23949.57
197.6263, 23949.93
198.1084, 23938.28
198.5906, 23900.61
199.0727, 23839.85
199.5548, 23796.64
200.0369, 23791.93
200.5190, 23785.61
201.0011, 23742.55
201.4833, 23667.25
201.9654, 23607.86
202.4475, 23608.31
202.9296, 23662.52
203.4117, 23691.48
203.8938, 23682.29
204.3760, 23653.84
204.8581, 23618.83
205.3402, 23577.58
205.8223, 23536.15
206.3044, 23494.46
206.7865, 23455.75
207.2687, 23433.41
207.7508, 23451.98
208.2329, 23479.94
208.7150, 23465.97
209.1971, 23395.54
209.6792, 23328.48
210.1614, 23322.66
210.6435, 23357.55
211.1256, 23390.19
211.6077, 23409.50
212.0898, 23415.33
212.5719, 23404.22
213.0541, 23368.22
213.5362, 23330.55
214.0183, 23306.10
214.5004, 23292.13
214.9825, 23282.94
215.4646, 23279.05
215.9468, 23278.47
216.4289, 23275.45
216.9110, 23281.41
217.3931, 23266.09
217.8752, 23199.33
218.3573, 23097.82
218.8395, 23009.65
219.3216, 22977.71
219.8037, 22996.72
220.2858, 22996.84
220.7679, 22962.23
221.2500, 22923.91
221.7322, 22893.93
222.2143, 22872.33
222.6964, 22856.46
223.1785, 22844.98
223.6606, 22837.97
224.1427, 22832.95
224.6249, 22829.33
225.1070, 22828.47
225.5891, 22836.11
226.0712, 22848.51
226.5533, 22854.32
227.0354, 22841.37
227.5176, 22806.98
227.9997, 22771.79
228.4818, 22729.78
228.9639, 22691.76
229.4460, 22662.77
229.9281, 22642.52
230.4103, 22626.94
230.8924, 22607.41
231.3745, 22574.52
231.8566, 22581.89
232.3387, 22681.01
232.8208, 22774.19
233.3030, 22817.14
233.7851, 22808.22
234.2672, 22770.00
234.7493, 22722.81
235.2314, 22658.08
235.7135, 22617.59
236.1957, 22614.63
236.6778, 22620.65
237.1599, 22621.57
237.6420, 22616.06
238.1241, 22611.31
238.6062, 22617.75
239.0884, 22645.71
239.5705, 22649.06
240.0526, 22619.40
240.5347, 22576.85
241.0168, 22518.04
241.4989, 22450.56
241.9811, 22307.15
242.4632, 22411.63
242.9453, 22465.01
243.4274, 22470.06
243.9095, 22281.98
244.3916, 22343.28
244.8738, 22304.64
245.3559, 22261.91
245.8380, 22358.31
246.3201, 22198.32
246.8022, 22292.51
247.2843, 22285.24
247.7665, 22324.41
248.2486, 22263.02
248.7307, 22232.69
249.2128, 22302.95
249.6949, 22317.51
250.1770, 22244.54
250.6592, 22286.66
251.1413, 22168.97
251.6234, 22091.14
252.1055, 22013.94
252.5876, 21989.60
253.0697, 22022.84
253.5519, 22077.63
254.0340, 22117.58
254.5161, 22141.29
254.9982, 22145.12
255.4803, 22105.99
255.9624, 22062.63
256.4445, 22049.22
256.9267, 22068.98
257.4088, 22096.19
257.8909, 22105.86
258.3730, 22094.37
258.8551, 22073.30
259.3372, 22020.27
259.8194, 21972.10
260.3015, 21968.68
260.7836, 22011.98
261.2657, 22058.16
261.7478, 22063.34
262.2299, 22019.51
262.7121, 21982.81
263.1942, 21962.54
263.6763, 21944.15
264.1584, 21904.95
264.6405, 21845.18
265.1227, 21804.94
265.6048, 21830.43
266.0869, 21927.80
266.5690, 21989.10
267.0511, 21992.77
267.5332, 21973.01
268.0154, 21953.59
268.4975, 21936.94
268.9796, 21921.10
269.4617, 21905.05
269.9438, 21888.39
270.4259, 21869.29
270.9081, 21844.31
271.3902, 21819.13
271.8723, 21795.94
272.3544, 21775.18
272.8365, 21762.28
273.3186, 21765.18
273.8008, 21781.77
274.2829, 21786.51
274.7650, 21768.09
275.2471, 21746.00
275.7292, 21729.96
276.2113, 21721.29
276.6935, 21729.44
277.1756, 21773.56
277.6577, 21841.85
278.1398, 21864.15
278.6219, 21773.51
279.1040, 21690.78
279.5862, 21720.39
280.0683, 21849.33
280.5504, 21968.31
281.0325, 22014.71
281.5146, 21993.02
281.9967, 21952.30
282.4789, 21861.02
282.9610, 21779.19
283.4431, 21752.91
283.9252, 21773.84
284.4073, 21793.59
284.8894, 21781.47
285.3716, 21753.35
285.8537, 21757.63
286.3358, 21814.33
286.8179, 21876.48
287.3000, 21925.96
287.7821, 21961.48
288.2643, 21972.03
288.7464, 21940.45
289.2285, 21891.34
289.7106, 21885.32
290.1927, 21937.36
290.6748, 22000.29
291.1570, 22069.66
291.6391, 22135.56
292.1212, 22160.73
292.6033, 22117.94
293.0854, 22043.92
293.5675, 22012.78
294.0497, 22029.11
294.5318, 22063.73
295.0139, 22114.28
295.4960, 22174.55
295.9781, 22231.37
296.4602, 22281.55
296.9424, 22324.36
297.4245, 22359.04
297.9066, 22389.53
298.3887, 22402.82
298.8708, 22378.85
299.3529, 22337.82
299.8351, 22313.96
300.3172, 22316.07
300.7993, 22337.24
301.2814, 22374.93
301.7635, 22430.99
302.2456, 22478.63
302.7278, 22517.26
303.2099, 22541.64
303.6920, 22535.63
304.1741, 22492.91
304.6562, 22448.41
305.1383, 22446.39
305.6205, 22489.52
306.1026, 22523.24
306.5847, 22532.69
307.0668, 22533.69
307.5489, 22544.06
308.0310, 22566.12
308.5132, 22587.27
308.9953, 22596.16
309.4774, 22591.93
309.9595, 22584.04
310.4416, 22567.64
310.9237, 22551.47
311.4059, 22545.28
311.8880, 22548.38
312.3701, 22547.33
312.8522, 22527.09
313.3343, 22490.91
313.8164, 22481.44
314.2986, 22524.09
314.7807, 22569.44
315.2628, 22589.65
315.7449, 22587.25
316.2270, 22575.52
316.7091, 22558.28
317.1913, 22539.80
317.6734, 22543.54
318.1555, 22608.69
318.6376, 22651.16
319.1197, 22619.19
319.6018, 22539.80
320.0840, 22478.53
320.5661, 22470.40
321.0482, 22496.42
321.5303, 22493.27
322.0124, 22432.98
322.4945, 22386.48
322.9767, 22374.13
323.4588, 22383.31
323.9409, 22400.02
324.4230, 22420.32
324.9051, 22435.72
325.3872, 22427.43
325.8694, 22374.38
326.3515, 22335.01
326.8336, 22315.46
327.3157, 22310.75
327.7978, 22321.39
328.2799, 22346.42
328.7621, 22372.58
329.2442, 22381.63
329.7263, 22366.63
330.2084, 22348.83
330.6905, 22317.33
331.1726, 22290.78
331.6548, 22282.95
332.1369, 22294.98
332.6190, 22320.38
333.1011, 22356.04
333.5832, 22408.79
334.0653, 22429.77
334.5475, 22389.29
335.0296, 22350.56
335.5117, 22354.29
335.9938, 22389.32
336.4759, 22413.13
336.9580, 22389.67
337.4402, 22320.11
337.9223, 22280.30
338.4044, 22288.56
338.8865, 22305.48
339.3686, 22332.71
339.8507, 22360.24
340.3329, 22369.58
340.8150, 22348.25
341.2971, 22307.31
341.7792, 22295.62
342.2613, 22371.67
342.7434, 22402.23
343.2256, 22336.75
343.7077, 22234.87
344.1898, 22156.76
344.6719, 22126.34
345.1540, 22133.25
345.6361, 22163.34
346.1183, 22250.54
346.6004, 22292.55
347.0825, 22254.86
347.5646, 22196.54
348.0467, 22158.07
348.5288, 22148.40
349.0110, 22151.21
349.4931, 22149.23
349.9752, 22144.60
350.4573, 22126.29
350.9394, 22063.11
351.4215, 22011.71
351.9037, 22017.21
352.3858, 22065.56
352.8679, 22096.55
353.3500, 22035.51
353.8321, 21887.60
354.3142, 21834.39
354.7964, 21964.86
355.2785, 22086.13
355.7606, 22119.49
356.2427, 22088.50
356.7248, 22041.53
357.2069, 21997.93
357.6891, 21962.09
358.1712, 21950.57
358.6533, 21975.55
359.1354, 21997.37
359.6175, 22003.28
360.0996, 21996.53
360.5818, 21977.85
361.0639, 21944.59
361.5460, 21906.63
362.0281, 21873.90
362.5102, 21845.24
362.9923, 21831.78
363.4745, 21850.73
363.9566, 21878.03
364.4387, 21888.52
364.9208, 21877.85
365.4029, 21865.28
365.8850, 21855.77
366.3672, 21853.26
366.8493, 21888.15
367.3314, 21996.30
367.8135, 22099.24
368.2956, 22105.89
368.7777, 22024.22
369.2599, 21943.98
369.7420, 21893.01
370.2241, 21869.41
370.7062, 21881.75
371.1883, 21938.31
371.6704, 21988.00
372.1526, 21977.26
372.6347, 21917.62
373.1168, 21876.85
373.5989, 21877.33
374.0810, 21889.09
374.5631, 21890.75
375.0453, 21881.74
375.5274, 21864.37
376.0095, 21837.32
376.4916, 21803.55
376.9737, 21775.92
377.4558, 21744.72
377.9380, 21729.23
378.4201, 21754.52
378.9022, 21798.64
379.3843, 21815.67
379.8664, 21785.49
380.3485, 21729.91
380.8307, 21693.76
381.3128, 21681.64
381.7949, 21680.98
382.2770, 21704.21
382.7591, 21731.36
383.2412, 21746.54
383.7234, 21745.68
384.2055, 21727.32
384.6876, 21685.82
385.1697, 21608.56
385.6518, 21564.08
386.1339, 21574.62
386.6161, 21591.20
387.0982, 21588.24
387.5803, 21569.96
388.0624, 21554.25
388.5445, 21554.13
389.0266, 21568.46
389.5088, 21585.04
389.9909, 21624.67
390.4730, 21641.26
390.9551, 21617.89
391.4372, 21570.21
391.9193, 21510.41
392.4015, 21442.72
392.8836, 21383.57
393.3657, 21372.53
393.8478, 21436.00
394.3299, 21482.77
394.8120, 21488.33
395.2942, 21482.45
395.7763, 21487.63
396.2584, 21506.05
396.7405, 21518.98
397.2226, 21500.31
397.7047, 21449.78
398.1869, 21419.82
398.6690, 21428.42
399.1511, 21441.42
399.6332, 21437.32
400.1153, 21421.34
400.5974, 21409.38
401.0796, 21414.72
401.5617, 21428.49
402.0438, 21425.96
402.5259, 21400.08
403.0080, 21386.73
403.4901, 21425.21
403.9723, 21483.31
404.4544, 21510.25
404.9365, 21485.73
405.4186, 21447.92
405.9007, 21425.07
406.3828, 21415.52
406.8650, 21411.05
407.3471, 21409.58
407.8292, 21410.76
408.3113, 21412.39
408.7934, 21411.88
409.2755, 21421.27
409.7577, 21452.26
410.2398, 21491.97
410.7219, 21526.58
411.2040, 21553.45
411.6861, 21565.92
412.1682, 21554.67
412.6504, 21515.88
413.1325, 21480.89
413.6146, 21439.10
414.0967, 21410.34
414.5788, 21403.65
415.0609, 21419.24
415.5431, 21461.82
416.0252, 21540.13
416.5073, 21638.46
416.9894, 21683.06
417.4715, 21583.12
417.9536, 21539.35
418.4358, 21632.73
418.9179, 21763.41
419.4000, 21812.42
419.8821, 21747.72
420.3642, 21645.69
420.8463, 21626.42
421.3285, 21727.30
421.8106, 21809.25
422.2927, 21870.97
422.7748, 21915.83
423.2569, 21931.25
423.7390, 21927.71
424.2212, 21936.44
424.7033, 21986.60
425.1854, 22069.58
425.6675, 22132.74
426.1496, 22164.24
426.6317, 22194.40
427.1139, 22230.16
427.5960, 22272.68
428.0781, 22326.65
428.5602, 22397.12
429.0423, 22468.61
429.5244, 22516.46
430.0066, 22539.90
430.4887, 22576.59
430.9708, 22650.08
431.4529, 22728.86
431.9350, 22770.01
432.4171, 22770.76
432.8993, 22788.59
433.3814, 22875.36
433.8635, 22991.40
434.3456, 23055.10
434.8277, 23049.65
435.3098, 23042.98
435.7920, 23096.90
436.2741, 23207.50
436.7562, 23299.83
437.2383, 23353.42
437.7204, 23404.56
438.2025, 23486.97
438.6847, 23586.09
439.1668, 23657.59
439.6489, 23677.73
440.1310, 23662.34
440.6131, 23653.80
441.0952, 23663.72
441.5774, 23664.06
442.0595, 23656.41
442.5416, 23636.94
443.0237, 23601.53
443.5058, 23549.86
443.9879, 23484.84
444.4701, 23406.93
444.9522, 23312.89
445.4343, 23231.22
445.9164, 23174.13
446.3985, 23117.44
446.8806, 23060.13
447.3628, 22997.25
447.8449, 22920.64
448.3270, 22824.14
448.8091, 22714.63
449.2912, 22605.21
449.7733, 22491.26
450.2555, 22391.34
450.7376, 22323.94
451.2197, 22264.06
451.7018, 22189.42
452.1839, 22097.22
452.6660, 22009.61
453.1482, 21951.56
453.6303, 21915.28
454.1124, 21863.89
454.5945, 21788.71
455.0766, 21707.06
455.5587, 21628.96
456.0409, 21555.11
456.5230, 21491.38
457.0051, 21449.68
457.4872, 21410.01
457.9693, 21353.84
458.4514, 21282.88
458.9336, 21205.40
459.4156, 21119.07
459.8978, 21036.54
460.3799, 20997.25
460.8620, 21025.94
461.3441, 21042.97
461.8262, 21025.06
462.3083, 20993.74
462.7905, 20975.38
463.2726, 20972.96
463.7547, 20837.66
464.2368, 20922.70
464.7189, 20956.64
465.2010, 20942.25
465.6832, 20734.72
466.1653, 20776.58
466.6474, 20718.50
467.1295, 20656.33
467.6116, 20733.29
468.0938, 20553.85
468.5759, 20628.61
469.0580, 20601.89
469.5401, 20621.62
470.0222, 20540.79
470.5043, 20491.02
470.9865, 20541.83
471.4686, 20472.86
471.9507, 20487.24
472.4328, 20502.96
472.9149, 20495.38
473.3970, 20472.01
473.8792, 20463.32
474.3613, 20477.39
474.8434, 20486.02
475.3255, 20474.52
475.8076, 20443.68
476.2897, 20390.59
476.7719, 20290.43
477.2540, 20199.19
477.7361, 20159.32
478.2182, 20160.07
478.7003, 20136.30
479.1824, 20170.78
479.6646, 20188.23
480.1467, 20189.57
480.6288, 20126.53
481.1109, 20146.62
481.5930, 20133.40
482.0751, 20118.81
482.5573, 20150.60
483.0394, 20096.92
483.5215, 20127.98
484.0036, 20125.21
484.4857, 20137.92
484.9678, 20117.11
485.4500, 20106.66
485.9321, 20129.73
486.4142, 20134.24
486.8963, 20109.57
487.3784, 20123.27
487.8605, 20068.42
488.3427, 20073.72
488.8248, 20104.97
489.3069, 20081.99
489.7890, 20096.30
490.2711, 20096.41
490.7532, 20031.97
491.2354, 20079.78
491.7175, 20079.05
492.1996, 20028.47
492.6817, 20018.77
493.1638, 19978.54
493.6459, 19943.02
494.1281, 19912.66
494.6102, 19894.03
495.0923, 19890.51
495.5744, 19899.01
496.0565, 19918.83
496.5386, 19955.89
497.0208, 19977.20
497.5029, 19971.34
497.9850, 19948.24
498.4671, 19906.07
498.9492, 19850.74
499.4313, 19812.89
499.9135, 19820.66
500.3956, 19869.48
500.8777, 19899.17
501.3598, 19895.36
501.8419, 19889.44
502.3240, 19890.07
502.8062, 19889.48
503.2883, 19873.31
503.7704, 19839.14
504.2525, 19807.15
504.7346, 19807.73
505.2167, 19847.07
505.6989, 19875.46
506.1810, 19886.28
506.6631, 19891.78
507.1452, 19893.81
507.6273, 19895.52
508.1094, 19903.97
508.5916, 19925.82
509.0737, 19951.24
509.5558, 19972.19
510.0379, 19988.04
510.5200, 19979.79
511.0021, 19928.13
511.4843, 19864.08
511.9664, 19836.48
512.4485, 19848.05
512.9306, 19863.03
513.4127, 19867.61
513.8948, 19874.41
514.3770, 19905.92
514.8591, 19957.52
515.3412, 19990.82
515.8233, 19974.87
516.3054, 19920.26
516.7875, 19895.45
517.2697, 19921.50
517.7518, 19952.55
518.2339, 20002.81
518.7160, 20045.80
519.1981, 20047.56
519.6802, 20005.82
520.1624, 19958.17
520.6445, 19952.62
521.1266, 19990.95
521.6087, 19995.57
522.0908, 19938.44
522.5729, 19888.96
523.0551, 19887.73
523.5372, 19910.44
524.0193, 19916.59
524.5014, 19886.26
524.9835, 19854.29
525.4656, 19862.32
525.9478, 19901.82
526.4299, 19927.53
526.9120, 19926.24
527.3941, 19912.25
527.8762, 19898.22
528.3583, 19883.70
528.8405, 19879.55
529.3226, 19901.87
529.8047, 19921.48
530.2868, 19910.04
530.7689, 19879.40
531.2510, 19868.03
531.7332, 19897.54
532.2153, 19944.37
532.6974, 19946.91
533.1795, 19855.78
533.6616, 19811.24
534.1437, 19857.87
534.6259, 19910.62
535.1080, 19919.95
535.5901, 19886.26
536.0722, 19831.50
536.5543, 19760.18
537.0364, 19685.84
537.5186, 19656.71
538.0007, 19683.64
538.4828, 19715.08
538.9649, 19743.42
539.4470, 19758.95
539.9291, 19743.68
540.4113, 19690.67
540.8934, 19648.01
541.3755, 19647.96
541.8576, 19669.82
542.3397, 19684.37
542.8218, 19687.88
543.3040, 19682.33
543.7861, 19667.00
544.2682, 19643.60
544.7503, 19627.42
545.2324, 19620.20
545.7145, 19616.88
546.1967, 19619.27
546.6788, 19623.77
547.1609, 19628.15
547.6430, 19631.22
548.1251, 19630.69
548.6072, 19625.43
549.0894, 19615.77
549.5715, 19590.70
550.0536, 19526.84
550.5357, 19482.13
551.0178, 19482.80
551.4999, 19510.88
551.9821, 19546.28
552.4642, 19587.66
552.9463, 19617.46
553.4284, 19606.23
553.9105, 19567.02
554.3926, 19557.22
554.8748, 19593.93
555.3569, 19636.08
555.8390, 19637.00
556.3211, 19598.76
556.8032, 19602.58
557.2853, 19694.68
557.7675, 19782.02
558.2496, 19805.43
558.7317, 19797.97
559.2138, 19824.87
559.6959, 19908.26
560.1780, 20004.50
560.6602, 20041.98
561.1423, 19998.59
561.6244, 19985.24
562.1065, 20010.25
562.5886, 20059.71
563.0707, 20143.36
563.5529, 20246.20
564.0350, 20343.93
564.5171, 20425.68
564.9992, 20498.82
565.4813, 20568.73
565.9634, 20636.22
566.4456, 20715.17
566.9277, 20811.58
567.4098, 20915.96
567.8919, 21024.40
568.3740, 21135.42
568.8561, 21230.81
569.3383, 21292.35
569.8204, 21352.08
570.3025, 21431.11
570.7846, 21525.40
571.2667, 21625.55
571.7488, 21727.66
572.2310, 21827.03
572.7131, 21912.18
573.1952, 21975.04
573.6773, 22046.37
574.1594, 22131.07
574.6415, 22218.79
575.1237, 22319.39
575.6058, 22418.15
576.0879, 22486.20
576.5700, 22506.55
577.0521, 22497.89
577.5342, 22491.62
578.0164, 22487.89
578.4985, 22455.98
578.9806, 22377.01
579.4627, 22285.70
579.9448, 22224.94
580.4269, 22190.03
580.9091, 22133.57
581.3912, 22034.70
581.8733, 21922.26
582.3554, 21827.93
582.8375, 21735.54
583.3196, 21590.10
583.8018, 21367.41
584.2839, 21120.40
584.7660, 20944.99
585.2481, 20874.92
585.7302, 20782.37
586.2123, 20647.98
586.6945, 20511.34
587.1766, 20385.70
587.6587, 20270.02
588.1408, 20161.69
588.6229, 20062.71
589.1050, 19960.11
589.5872, 19824.43
590.0693, 19657.16
590.5514, 19524.13
591.0335, 19451.01
591.5156, 19392.38
591.9977, 19291.27
592.4799, 19156.51
592.9620, 19063.07
593.4441, 19053.61
593.9262, 19056.20
594.4083, 19029.45
594.8904, 18984.10
595.3726, 18942.00
595.8547, 18911.08
596.3368, 18890.99
596.8189, 18885.73
597.3010, 18904.48
597.7831, 18893.96
598.2653, 18838.92
598.7474, 18768.51
599.2295, 18668.98
599.7116, 18566.74
600.1937, 18502.55
600.6758, 18494.76
601.1580, 18510.19
601.6401, 18524.46
602.1222, 18534.33
602.6043, 18517.43
603.0864, 18462.67
603.5685, 18410.36
604.0507, 18397.06
604.5328, 18419.45
605.0149, 18431.78
605.4970, 18428.95
605.9791, 18422.29
606.4612, 18411.06
606.9434, 18400.30
607.4255, 18398.15
607.9076, 18405.45
608.3897, 18413.49
608.8718, 18411.43
609.3539, 18399.67
609.8361, 18399.27
610.3182, 18416.90
610.8003, 18434.88
611.2824, 18452.93
611.7645, 18465.45
612.2466, 18462.26
612.7288, 18440.22
613.2109, 18423.14
613.6930, 18425.68
614.1751, 18444.09
614.6572, 18474.03
615.1393, 18514.89
615.6215, 18560.80
616.1036, 18611.41
616.5857, 18662.29
617.0678, 18698.12
617.5499, 18690.43
618.0320, 18707.36
618.5142, 18773.98
618.9963, 18849.18
619.4784, 18888.05
619.9605, 18902.69
620.4426, 18951.66
620.9247, 19088.72
621.4069, 19267.88
621.8890, 19353.00
622.3711, 19322.77
622.8532, 19324.55
623.3353, 19407.03
623.8174, 19526.63
624.2996, 19638.13
624.7817, 19742.64
625.2638, 19860.70
625.7459, 20016.76
626.2280, 20171.97
626.7101, 20289.10
627.1923, 20380.49
627.6744, 20476.39
628.1565, 20587.54
628.6386, 20724.11
629.1207, 20910.26
629.6028, 21174.26
630.0850, 21372.40
630.5671, 21428.53
631.0492, 21494.85
631.5313, 21608.90
632.0134, 21766.76
632.4955, 21989.04
632.9777, 22304.69
633.4598, 22547.87
633.9419, 22493.63
634.4240, 22231.01
634.9061, 22068.63
635.3882, 22058.22
635.8704, 22067.62
636.3525, 22005.55
636.8346, 21879.50
637.3167, 21736.03
637.7988, 21583.49
638.2809, 21406.60
638.7631, 21189.13
639.2452, 20955.02
639.7273, 20726.51
640.2094, 20504.98
640.6915, 20279.42
641.1736, 20035.67
641.6558, 19785.72
642.1379, 19583.27
642.6200, 19438.36
643.1021, 19297.36
643.5842, 19145.24
644.0663, 18991.23
644.5485, 18839.47
645.0306, 18690.48
645.5127, 18565.88
645.9948, 18476.86
646.4769, 18409.68
646.9590, 18372.14
647.4412, 18347.46
647.9233, 18290.33
648.4054, 18183.19
648.8875, 18061.36
649.3696, 17979.86
649.8517, 17949.70
650.3339, 17905.26
650.8160, 17818.63
651.2981, 17751.79
651.7802, 17749.70
652.2623, 17769.41
652.7444, 17742.84
653.2266, 17645.54
653.7087, 17550.16
654.1908, 17522.31
654.6729, 17534.88
655.1550, 17529.56
655.6371, 17500.21
656.1193, 17462.29
656.6014, 17422.24
657.0835, 17384.33
657.5656, 17365.34
658.0477, 17390.52
658.5298, 17400.27
659.0120, 17387.43
659.4941, 17364.78
659.9762, 17338.37
660.4583, 17309.81
660.9404, 17278.19
661.4225, 17238.17
661.9047, 17204.37
662.3868, 17211.70
662.8689, 17258.29
663.3510, 17282.47
663.8331, 17265.32
664.3152, 17235.03
664.7974, 17215.17
665.2795, 17206.03
665.7616, 17203.92
666.2437, 17225.56
666.7258, 17234.70
667.2079, 17207.89
667.6901, 17166.11
668.1722, 17132.18
668.6543, 17112.36
669.1364, 17104.95
669.6185, 17111.16
670.1006, 17128.20
670.5828, 17139.27
671.0649, 17143.64
671.5470, 17144.24
672.0291, 17139.10
672.5112, 17132.72
672.9933, 17129.57
673.4755, 17129.66
673.9576, 17133.11
674.4397, 17152.83
674.9218, 17164.67
675.4039, 17137.37
675.8860, 17087.90
676.3682, 17059.79
676.8503, 17069.80
677.3324, 17094.51
677.8145, 17100.17
678.2966, 17084.84
678.7787, 17066.46
679.2609, 17042.73
679.7430, 17019.80
680.2251, 16998.01
680.7072, 16979.38
681.1893, 16967.77
681.6714, 16964.66
682.1536, 16962.21
682.6357, 16967.44
683.1178, 16964.67
683.5999, 16917.70
684.0820, 16835.16
684.5641, 16778.27
685.0463, 16782.28
685.5284, 16822.14
686.0105, 16838.64
686.4926, 16816.30
686.9747, 16807.10
687.4568, 16830.58
687.9390, 16847.31
688.4211, 16834.15
688.9032, 16803.96
689.3853, 16781.64
689.8674, 16775.62
690.3495, 16776.03
690.8317, 16786.01
691.3138, 16793.91
691.7959, 16763.86
692.2780, 16693.27
692.7601, 16630.50
693.2422, 16609.93
693.7244, 16623.39
694.2065, 16640.39
694.6886, 16669.77
695.1707, 16687.97
695.6528, 16701.66
696.1349, 16698.46
696.6171, 16652.53
697.0992, 16583.68
697.5813, 16545.61
698.0634, 16573.00
698.5455, 16617.10
699.0276, 16620.84
699.5098, 16593.93
699.9919, 16572.90
700.4740, 16565.48
700.9561, 16551.96
701.4382, 16510.09
701.9203, 16447.33
702.4025, 16422.93
702.8846, 16473.79
703.3667, 16514.80
703.8488, 16543.28
704.3309, 16557.31
704.8130, 16549.30
705.2952, 16524.77
705.7773, 16502.48
706.2594, 16495.79
706.7415, 16492.34
707.2236, 16469.16
707.7057, 16430.94
708.1879, 16407.56
708.6700, 16406.55
709.1521, 16417.80
709.6342, 16437.96
710.1163, 16465.38
710.5984, 16460.33
711.0806, 16370.23
711.5627, 16318.66
712.0448, 16357.02
712.5269, 16417.00
713.0090, 16437.85
713.4911, 16420.04
713.9733, 16404.81
714.4554, 16423.04
714.9375, 16452.88
715.4196, 16458.89
715.9017, 16443.24
716.3839, 16418.78
716.8660, 16385.04
717.3481, 16360.99
717.8302, 16369.21
718.3123, 16409.57
718.7944, 16435.03
719.2766, 16434.43
719.7587, 16434.85
720.2408, 16443.90
720.7229, 16454.00
721.2050, 16464.37
721.6871, 16470.62
722.1693, 16456.57
722.6514, 16397.14
723.1335, 16326.64
723.6156, 16310.59
724.0977, 16340.67
724.5798, 16352.40
725.0620, 16326.01
725.5441, 16290.87
726.0262, 16274.21
726.5083, 16276.02
726.9904, 16295.32
727.4725, 16353.77
727.9547, 16401.08
728.4368, 16433.88
728.9189, 16448.84
729.4010, 16432.15
729.8831, 16391.21
730.3652, 16360.83
730.8474, 16369.00
731.3295, 16391.89
731.8116, 16389.25
732.2937, 16368.36
732.7758, 16336.68
733.2579, 16371.80
733.7401, 16389.90
734.2222, 16391.89
734.7043, 16329.50
735.1864, 16350.24
735.6685, 16337.66
736.1506, 16323.72
736.6328, 16356.15
737.1149, 16303.13
737.5970, 16334.83
738.0791, 16332.71
738.5612, 16346.07
739.0433, 16325.91
739.5255, 16301.61
740.0076, 16306.54
740.4897, 16327.94
740.9718, 16348.74
741.4539, 16364.98
741.9360, 16378.17
742.4182, 16391.52
742.9003, 16402.83
743.3824, 16391.70
743.8645, 16339.23
744.3466, 16296.70
744.8287, 16275.93
745.3109, 16261.65
745.7930, 16244.31
746.2751, 16224.74
746.7572, 16208.48
747.2393, 16196.67
747.7214, 16190.35
748.2036, 16192.28
748.6857, 16199.98
749.1678, 16216.04
749.6499, 16237.75
750.1320, 16237.10
750.6141, 16187.56
751.0963, 16107.05
751.5784, 16068.80
752.0605, 16086.07
752.5426, 16108.88
753.0247, 16146.74
753.5068, 16171.86
753.9890, 16162.02
754.4711, 16126.96
754.9532, 16092.19
755.4353, 16054.39
755.9174, 16033.12
756.3995, 16060.26
756.8817, 16096.53
757.3638, 16081.83
757.8459, 16023.74
758.3280, 15985.71
758.8101, 16009.55
759.2922, 16062.55
759.7744, 16074.27
760.2565, 16041.10
760.7386, 15999.98
761.2207, 15944.95
761.7028, 15900.80
762.1849, 15886.71
762.6671, 15894.38
763.1492, 15903.18
763.6313, 15918.75
764.1134, 15921.38
764.5955, 15883.08
765.0776, 15850.51
765.5598, 15874.66
766.0419, 15931.61
766.5240, 15959.52
767.0061, 15931.18
767.4882, 15882.67
767.9703, 15864.11
768.4525, 15867.48
768.9346, 15843.17
769.4167, 15784.22
769.8988, 15735.64
770.3809, 15721.79
770.8630, 15729.40
771.3452, 15733.63
771.8273, 15734.58
772.3094, 15731.80
772.7915, 15713.56
773.2736, 15704.85
773.7557, 15737.25
774.2379, 15775.33
774.7200, 15761.04
775.2021, 15683.72
775.6842, 15614.12
776.1663, 15618.36
776.6484, 15655.97
777.1306, 15658.88
777.6127, 15633.29
778.0948, 15620.68
778.5769, 15636.49
779.0590, 15661.65
779.5411, 15673.34
780.0233, 15671.32
780.5054, 15662.00
780.9875, 15631.92
781.4696, 15617.10
781.9517, 15646.57
782.4338, 15679.06
782.9160, 15675.33
783.3981, 15638.75
783.8802, 15612.03
784.3623, 15622.68
784.8444, 15633.98
785.3265, 15620.15
785.8087, 15592.37
786.2908, 15565.50
786.7729, 15543.42
787.2550, 15525.43
787.7371, 15510.18
788.2192, 15500.44
788.7014, 15505.86
789.1835, 15527.47
789.6656, 15556.81
790.1477, 15602.81
790.6298, 15632.94
791.1119, 15608.33
791.5941, 15545.55
792.0762, 15522.83
792.5583, 15586.10
793.0404, 15615.43
793.5225, 15560.70
794.0046, 15495.05
794.4868, 15469.14
794.9689, 15475.17
795.4510, 15485.52
795.9331, 15489.67
796.4152, 15488.38
796.8973, 15482.94
797.3795, 15472.63
797.8616, 15451.14
798.3437, 15419.29
798.8258, 15396.25
799.3079, 15391.74
799.7900, 15400.76
800.2722, 15416.63
800.7543, 15444.76
801.2364, 15454.75
801.7185, 15436.86
802.2006, 15413.62
802.6827, 15385.22
803.1649, 15359.58
803.6470, 15346.44
804.1291, 15346.65
804.6112, 15351.46
805.0933, 15360.94
805.5754, 15370.59
806.0576, 15383.87
806.5397, 15392.61
807.0218, 15374.10
807.5039, 15328.34
807.9860, 15292.99
808.4681, 15305.48
808.9503, 15350.13
809.4324, 15381.06
809.9145, 15398.53
810.3966, 15392.50
810.8787, 15350.10
811.3608, 15311.63
811.8430, 15315.25
812.3251, 15354.46
812.8072, 15381.77
813.2893, 15417.26
813.7714, 15412.63
814.2535, 15315.15
814.7357, 15221.28
815.2178, 15201.67
815.6999, 15235.45
816.1820, 15265.07
816.6641, 15269.42
817.1462, 15267.82
817.6284, 15274.81
818.1105, 15286.68
818.5926, 15304.37
819.0747, 15323.05
819.5568, 15315.73
820.0389, 15268.31
820.5211, 15214.69
821.0032, 15218.42
821.4853, 15285.93
821.9674, 15293.50
822.4495, 15209.27
822.9316, 15147.14
823.4138, 15164.71
823.8959, 15212.42
824.3780, 15228.03
824.8601, 15211.46
825.3422, 15191.09
825.8243, 15146.62
826.3065, 15126.75
826.7886, 15176.64
827.2707, 15243.83
827.7528, 15272.22
828.2349, 15258.19
828.7170, 15230.15
829.1992, 15197.67
829.6813, 15173.71
830.1633, 15184.12
830.6454, 15217.65
831.1276, 15235.32
831.6097, 15231.62
832.0918, 15229.64
832.5739, 15247.41
833.0560, 15272.09
833.5381, 15265.10
834.0203, 15213.36
834.5024, 15174.30
834.9845, 15149.95
835.4666, 15137.95
835.9487, 15150.01
836.4308, 15168.48
836.9130, 15162.28
837.3951, 15121.47
837.8772, 15101.56
838.3593, 15139.34
838.8414, 15177.97
839.3235, 15183.03
839.8057, 15166.49
840.2878, 15146.24
840.7699, 15127.50
841.2520, 15108.94
841.7341, 15083.72
842.2162, 15062.69
842.6984, 15074.82
843.1805, 15111.99
843.6626, 15129.67
844.1447, 15117.00
844.6268, 15098.40
845.1089, 15094.26
845.5911, 15101.39
846.0732, 15107.21
846.5553, 15119.53
847.0374, 15107.29
847.5195, 15034.92
848.0016, 14977.34
848.4838, 14988.35
848.9659, 15040.77
849.4480, 15086.36
849.9301, 15126.69
850.4122, 15143.23
850.8943, 15110.77
851.3765, 15072.53
851.8586, 15055.96
852.3407, 15055.50
852.8228, 15060.34
853.3049, 15066.81
853.7870, 15073.21
854.2692, 15078.06
854.7513, 15081.88
855.2334, 15092.13
855.7155, 15103.95
856.1976, 15083.30
856.6797, 15020.41
857.1619, 14970.45
857.6440, 14988.84
858.1261, 15059.65
858.6082, 15095.55
859.0903, 15084.51
859.5724, 15078.53
860.0546, 15094.68
860.5367, 15102.35
861.0188, 15066.56
861.5009, 15009.71
861.9830, 14989.26
862.4651, 15028.60
862.9473, 15050.19
863.4294, 15026.48
863.9115, 14994.61
864.3936, 14973.95
864.8757, 14961.29
865.3578, 14948.83
865.8400, 14934.66
866.3221, 14923.89
866.8042, 14913.30
867.2863, 14912.97
867.7684, 14951.49
868.2505, 15011.61
868.7327, 15040.12
869.2148, 15024.92
869.6969, 14990.29
870.1790, 14953.82
870.6611, 14919.85
871.1432, 14905.66
871.6254, 14913.72
872.1075, 14921.09
872.5896, 14923.68
873.0717, 14928.39
873.5538, 14943.54
874.0359, 14962.25
874.5181, 14964.82
875.0002, 14940.48
875.4823, 14923.71
875.9644, 14917.81
876.4465, 14916.06
876.9286, 14917.59
877.4108, 14920.82
877.8929, 14923.45
878.3750, 14925.33
878.8571, 14930.11
879.3392, 14950.58
879.8214, 14963.79
880.3035, 14937.49
880.7856, 14897.36
881.2677, 14889.40
881.7498, 14916.04
882.2319, 14943.53
882.7141, 14948.70
883.1962, 14942.25
883.6783, 14940.23
884.1604, 14943.15
884.6425, 14961.41
885.1246, 14997.86
885.6068, 15011.61
886.0889, 14974.52
886.5710, 14918.75
887.0531, 14906.78
887.5352, 14948.34
888.0173, 14979.06
888.4995, 15001.92
888.9816, 15008.81
889.4637, 14976.59
889.9458, 14942.84
890.4279, 14946.27
890.9100, 14984.81
891.3922, 15026.67
891.8743, 15097.07
892.3564, 15131.80
892.8385, 15070.48
893.3206, 14997.85
893.8027, 14992.21
894.2849, 15040.53
894.7670, 15086.32
895.2491, 15105.52
895.7312, 15124.69
896.2133, 15178.36
896.6954, 15239.60
897.1776, 15260.07
897.6597, 15248.77
898.1418, 15245.85
898.6239, 15265.55
899.1060, 15292.99
899.5881, 15308.83
900.0703, 15319.70
900.5524, 15362.21
901.0345, 15438.18
901.5166, 15499.83
901.9987, 15532.42
902.4808, 15564.54
902.9630, 15620.83
903.4451, 15694.87
903.9272, 15760.59
904.4093, 15820.99
904.8914, 15867.57
905.3735, 15886.13
905.8557, 15907.54
906.3378, 15949.97
906.8199, 16000.78
907.3020, 16040.28
907.7841, 16065.73
908.2662, 16095.13
908.7484, 16122.56
909.2305, 16166.79
909.7126, 16246.34
910.1947, 16341.94
910.6768, 16438.86
911.1589, 16530.22
911.6411, 16603.81
912.1232, 16650.77
912.6053, 16681.73
913.0874, 16695.15
913.5695, 16705.05
914.0516, 16736.09
914.5338, 16788.71
915.0159, 16855.16
915.4980, 16931.98
915.9801, 17009.51
916.4622, 17073.02
916.9443, 17124.94
917.4265, 17179.94
917.9086, 17237.75
918.3907, 17302.95
918.8728, 17378.40
919.3549, 17456.83
919.8370, 17529.50
920.3192, 17599.64
920.8013, 17686.60
921.2834, 17793.29
921.7655, 17911.11
922.2476, 18046.16
922.7297, 18183.23
923.2119, 18315.01
923.6940, 18443.14
924.1761, 18566.17
924.6582, 18678.99
925.1403, 18809.31
925.6224, 18985.23
926.1046, 19150.69
926.5867, 19271.71
927.0688, 19375.62
927.5509, 19489.62
928.0330, 19618.08
928.5151, 19757.83
928.9973, 19907.44
929.4794, 20067.99
929.9615, 20267.04
930.4436, 20461.21
930.9257, 20583.16
931.4078, 20648.49
931.8900, 20728.15
932.3721, 20852.63
932.8542, 20969.55
933.3363, 21002.80
933.8184, 20988.79
934.3005, 21036.91
934.7827, 21133.91
935.2648, 21183.44
935.7469, 21158.93
936.2290, 21109.77
936.7111, 21079.34
937.1932, 21060.29
937.6754, 21027.50
938.1575, 20980.85
938.6396, 20926.75
939.1217, 20874.25
939.6038, 20786.04
940.0859, 20630.78
940.5681, 20442.30
941.0502, 20284.16
941.5323, 20165.28
942.0144, 20029.66
942.4965, 19871.50
942.9786, 19705.68
943.4608, 19546.63
943.9429, 19370.64
944.4250, 19144.17
944.9071, 18880.61
945.3892, 18641.26
945.8713, 18447.85
946.3535, 18254.74
946.8356, 18036.10
947.3177, 17826.37
947.7998, 17655.10
948.2819, 17506.95
948.7640, 17353.92
949.2462, 17189.13
949.7283, 17027.57
950.2104, 16874.05
950.6925, 16730.35
951.1746, 16607.82
951.6567, 16491.65
952.1389, 16345.07
952.6210, 16174.72
953.1031, 16035.43
953.5852, 15959.77
954.0673, 15924.35
954.5494, 15930.79
955.0316, 15945.46
955.5137, 15853.96
955.9958, 15670.30
956.4779, 15525.33
956.9600, 15467.39
957.4421, 15456.86
957.9243, 15461.31
958.4064, 15467.93
958.8885, 15401.60
959.3706, 15256.29
959.8527, 15160.55
960.3348, 15144.65
960.8170, 15138.71
961.2991, 15099.47
961.7812, 15035.61
962.2633, 14960.89
962.7454, 14858.02
963.2275, 14828.17
963.7097, 14926.67
964.1918, 14990.71
964.6739, 14947.75
965.1560, 14870.60
965.6381, 14833.26
966.1202, 14832.40
966.6024, 14822.38
967.0845, 14801.67
967.5666, 14774.11
968.0487, 14716.47
968.5308, 14676.80
969.0129, 14701.39
969.4951, 14753.72
969.9772, 14771.76
970.4593, 14743.74
970.9414, 14715.14
971.4235, 14699.61
971.9056, 14688.63
972.3878, 14674.71
972.8699, 14665.16
973.3520, 14671.59
973.8341, 14690.60
974.3162, 14708.10
974.7983, 14719.79
975.2805, 14722.66
975.7626, 14696.08
976.2447, 14673.35
976.7268, 14709.90
977.2089, 14779.70
977.6910, 14819.91
978.1732, 14813.63
978.6553, 14782.76
979.1374, 14727.90
979.6195, 14683.10
980.1016, 14718.80
980.5837, 14807.75
981.0659, 14877.03
981.5480, 14916.77
982.0301, 14931.06
982.5122, 14921.04
982.9943, 14907.66
983.4764, 14924.89
983.9586, 14966.49
984.4407, 14990.70
984.9228, 14998.27
985.4049, 15027.84
985.8870, 15091.12
986.3691, 15160.32
986.8513, 15213.90
987.3334, 15255.26
987.8155, 15291.95
988.2976, 15320.20
988.7797, 15375.97
989.2618, 15477.68
989.7440, 15548.08
990.2261, 15541.09
990.7082, 15514.83
991.1903, 15546.33
991.6724, 15633.58
992.1545, 15687.04
992.6367, 15684.90
993.1188, 15692.48
993.6009, 15709.56
994.0830, 15748.09
994.5651, 15832.69
995.0472, 15937.40
995.5294, 16008.28
996.0115, 16038.76
996.4936, 16064.72
996.9757, 16084.49
997.4578, 16103.73
997.9399, 16129.69
998.4221, 16151.09
998.9042, 16160.00
999.3863, 16156.12
999.8684, 16139.51
1000.351, 16102.29
1000.833, 16071.43
1001.315, 16063.95
1001.797, 16054.35
1002.279, 16017.72
1002.761, 15974.76
1003.243, 15965.08
1003.725, 15985.98
1004.207, 15976.00
1004.690, 15878.78
1005.172, 15786.54
1005.654, 15747.44
1006.136, 15743.50
1006.618, 15761.43
1007.100, 15798.31
1007.582, 15881.59
1008.064, 16014.42
1008.547, 16059.06
1009.029, 15836.34
1009.511, 15549.35
1009.993, 15393.93
1010.475, 15327.58
1010.957, 15292.70
1011.439, 15270.01
1011.921, 15234.74
1012.403, 15172.84
1012.886, 15113.87
1013.368, 15099.89
1013.850, 15106.19
1014.332, 15092.99
1014.814, 15059.55
1015.296, 15003.41
1015.778, 14927.39
1016.260, 14850.78
1016.742, 14785.93
1017.225, 14736.67
1017.707, 14719.39
1018.189, 14723.00
1018.671, 14702.22
1019.153, 14657.99
1019.635, 14627.43
1020.117, 14624.09
1020.599, 14621.14
1021.082, 14589.27
1021.564, 14537.05
1022.046, 14487.11
1022.528, 14440.89
1023.010, 14426.07
1023.492, 14447.63
1023.974, 14457.53
1024.456, 14429.96
1024.938, 14386.20
1025.421, 14357.43
1025.903, 14342.29
1026.385, 14324.25
1026.867, 14304.32
1027.349, 14265.99
1027.831, 14196.88
1028.313, 14154.59
1028.795, 14186.40
1029.278, 14254.67
1029.760, 14274.57
1030.242, 14240.54
1030.724, 14204.26
1031.206, 14164.19
1031.688, 14127.19
1032.170, 14094.58
1032.652, 14067.41
1033.135, 14047.90
1033.617, 14034.33
1034.099, 14019.69
1034.581, 14001.72
1035.063, 13989.45
1035.545, 13983.81
1036.027, 13982.92
1036.509, 13991.38
1036.991, 13997.85
1037.474, 13988.66
1037.956, 13965.38
1038.438, 13944.36
1038.920, 13925.03
1039.402, 13909.26
1039.884, 13902.79
1040.366, 13891.83
1040.848, 13857.75
1041.330, 13824.02
1041.813, 13829.78
1042.295, 13878.01
1042.777, 13900.51
1043.259, 13882.17
1043.741, 13860.57
1044.223, 13820.83
1044.705, 13798.05
1045.187, 13827.22
1045.670, 13879.80
1046.152, 13908.61
1046.634, 13910.92
1047.116, 13896.56
1047.598, 13849.05
1048.080, 13808.52
1048.562, 13781.67
1049.044, 13766.99
1049.526, 13768.63
1050.009, 13780.25
1050.491, 13789.38
1050.973, 13796.29
1051.455, 13793.28
1051.937, 13775.04
1052.419, 13751.80
1052.901, 13713.47
1053.383, 13682.96
1053.865, 13694.03
1054.348, 13729.35
1054.830, 13729.02
1055.312, 13663.02
1055.794, 13623.59
1056.276, 13667.17
1056.758, 13702.08
1057.240, 13673.63
1057.722, 13623.11
1058.205, 13591.52
1058.687, 13580.32
1059.169, 13524.91
1059.651, 13562.11
1060.133, 13582.29
1060.615, 13586.36
1061.097, 13526.05
1061.579, 13548.87
1062.062, 13538.37
1062.544, 13526.50
1063.026, 13561.02
1063.508, 13510.08
1063.990, 13543.86
1064.472, 13543.82
1064.954, 13559.26
1065.436, 13541.18
1065.918, 13533.45
1066.401, 13559.25
1066.883, 13566.49
1067.365, 13544.55
1067.847, 13560.97
1068.329, 13508.86
1068.811, 13516.88
1069.293, 13550.86
1069.775, 13530.61
1070.257, 13547.65
1070.740, 13550.48
1071.222, 13488.77
1071.704, 13539.31
1072.186, 13541.30
1072.668, 13493.46
1073.150, 13540.15
1073.632, 13499.17
1074.114, 13489.49
1074.597, 13503.35
1075.079, 13492.67
1075.561, 13520.69
1076.043, 13511.42
1076.525, 13498.82
1077.007, 13500.76
1077.489, 13536.54
1077.971, 13526.28
1078.453, 13509.90
1078.936, 13507.31
1079.418, 13518.14
1079.900, 13541.92
1080.382, 13578.37
1080.864, 13602.21
1081.346, 13585.58
1081.828, 13573.97
1082.310, 13597.54
1082.792, 13632.08
1083.275, 13659.98
1083.757, 13678.37
1084.239, 13685.05
1084.721, 13679.20
1085.203, 13670.91
1085.685, 13665.27
1086.167, 13657.44
1086.649, 13640.42
1087.131, 13623.70
1087.614, 13614.75
1088.096, 13613.94
1088.578, 13621.75
1089.060, 13639.12
1089.542, 13653.24
1090.024, 13659.84
1090.506, 13660.87
1090.988, 13656.71
1091.471, 13648.10
1091.953, 13633.66
1092.435, 13615.76
1092.917, 13601.01
1093.399, 13591.88
1093.881, 13576.70
1094.363, 13551.12
1094.845, 13518.42
1095.328, 13464.07
1095.810, 13416.86
1096.292, 13416.05
1096.774, 13441.93
1097.256, 13441.62
1097.738, 13400.60
1098.220, 13358.40
1098.702, 13311.98
1099.184, 13287.05
1099.667, 13313.76
1100.149, 13350.73
1100.631, 13364.54
1101.113, 13357.68
1101.595, 13344.28
1102.077, 13328.05
1102.559, 13297.79
1103.041, 13232.91
1103.523, 13176.50
1104.006, 13145.62
1104.488, 13128.35
1104.970, 13118.81
1105.452, 13113.78
1105.934, 13108.16
1106.416, 13101.50
1106.898, 13092.76
1107.380, 13074.44
1107.863, 13063.74
1108.345, 13074.87
1108.827, 13087.13
1109.309, 13085.12
1109.791, 13071.86
1110.273, 13054.74
1110.755, 13032.54
1111.237, 13015.03
1111.719, 13003.53
1112.202, 12996.13
1112.684, 12993.57
1113.166, 12993.78
1113.648, 12998.18
1114.130, 13003.61
1114.612, 13003.90
1115.094, 13000.11
1115.576, 12985.86
1116.058, 12951.21
1116.541, 12921.07
1117.023, 12893.61
1117.505, 12879.14
1117.987, 12891.57
1118.469, 12917.49
1118.951, 12930.61
1119.433, 12929.65
1119.915, 12924.70
1120.398, 12910.05
1120.880, 12904.70
1121.362, 12924.19
1121.844, 12931.04
1122.326, 12893.75
1122.808, 12839.16
1123.290, 12814.76
1123.772, 12821.81
1124.255, 12836.67
1124.737, 12869.88
1125.219, 12871.98
1125.701, 12817.61
1126.183, 12783.81
1126.665, 12823.54
1127.147, 12886.10
1127.629, 12889.86
1128.111, 12839.20
1128.594, 12818.31
1129.076, 12832.47
1129.558, 12839.63
1130.040, 12830.95
1130.522, 12839.02
1131.004, 12886.38
1131.486, 12929.78
1131.968, 12904.44
1132.450, 12828.57
1132.933, 12810.48
1133.415, 12849.65
1133.897, 12870.82
1134.379, 12865.42
1134.861, 12858.47
1135.343, 12860.99
1135.825, 12860.82
1136.307, 12842.95
1136.790, 12814.75
1137.272, 12791.34
1137.754, 12775.90
1138.236, 12786.34
1138.718, 12823.89
1139.200, 12844.40
1139.682, 12848.81
1140.164, 12788.83
1140.646, 12811.99
1141.129, 12801.83
1141.611, 12790.30
1142.093, 12825.16
1142.575, 12774.55
1143.057, 12808.67
1143.539, 12808.96
1144.021, 12824.74
1144.503, 12807.00
1144.985, 12799.61
1145.468, 12825.74
1145.950, 12833.32
1146.432, 12811.72
1146.914, 12828.48
1147.396, 12776.70
1147.878, 12765.78
1148.360, 12779.43
1148.842, 12796.49
1149.325, 12814.33
1149.807, 12818.99
1150.289, 12777.86
1150.771, 12739.89
1151.253, 12766.58
1151.735, 12816.65
1152.217, 12825.12
1152.699, 12796.66
1153.182, 12782.77
1153.664, 12805.49
1154.146, 12817.11
1154.628, 12775.18
1155.110, 12739.50
1155.592, 12749.09
1156.074, 12776.96
1156.556, 12800.40
1157.038, 12817.83
1157.521, 12834.94
1158.003, 12855.24
1158.485, 12856.36
1158.967, 12817.13
1159.449, 12780.53
1159.931, 12757.10
1160.413, 12742.05
1160.895, 12732.35
1161.377, 12728.61
1161.860, 12737.53
1162.342, 12762.48
1162.824, 12760.38
1163.306, 12703.85
1163.788, 12670.11
1164.270, 12669.54
1164.752, 12690.48
1165.234, 12744.35
1165.717, 12795.88
1166.199, 12795.45
1166.681, 12749.77
1167.163, 12718.49
1167.645, 12701.55
1168.127, 12702.77
1168.609, 12729.03
1169.091, 12741.74
1169.573, 12723.29
1170.056, 12699.99
1170.538, 12697.30
1171.020, 12709.55
1171.502, 12722.47
1171.984, 12735.55
1172.466, 12742.30
1172.948, 12742.26
1173.430, 12728.99
1173.912, 12701.71
1174.395, 12693.26
1174.877, 12731.10
1175.359, 12772.90
1175.841, 12737.77
1176.323, 12659.77
1176.805, 12626.44
1177.287, 12628.93
1177.769, 12644.31
1178.252, 12662.31
1178.734, 12655.31
1179.216, 12609.43
1179.698, 12576.80
1180.180, 12632.44
1180.662, 12701.66
1181.144, 12689.67
1181.626, 12643.77
1182.109, 12634.40
1182.591, 12651.68
1183.073, 12648.55
1183.555, 12613.67
1184.037, 12583.42
1184.519, 12576.14
1185.001, 12579.05
1185.483, 12595.64
1185.965, 12609.56
1186.448, 12597.53
1186.930, 12580.48
1187.412, 12599.82
1187.894, 12651.94
1188.376, 12671.96
1188.858, 12622.76
1189.340, 12587.26
1189.822, 12583.78
1190.304, 12586.35
1190.787, 12590.63
1191.269, 12591.87
1191.751, 12584.92
1192.233, 12571.89
1192.715, 12557.80
1193.197, 12537.35
1193.679, 12542.48
1194.161, 12585.84
1194.644, 12618.34
1195.126, 12632.10
1195.608, 12623.12
1196.090, 12583.49
1196.572, 12533.62
1197.054, 12508.08
1197.536, 12503.47
1198.018, 12492.66
1198.500, 12476.12
1198.983, 12460.13
1199.465, 12446.33
1199.947, 12452.51
1200.429, 12485.99
1200.911, 12522.47
1201.393, 12541.33
1201.875, 12541.11
1202.357, 12503.65
1202.839, 12451.92
1203.322, 12441.99
1203.804, 12463.10
1204.286, 12478.03
1204.768, 12477.30
1205.250, 12464.73
1205.732, 12437.85
1206.214, 12419.52
1206.696, 12441.07
1207.179, 12465.33
1207.661, 12450.86
1208.143, 12425.40
1208.625, 12427.09
1209.107, 12450.92
1209.589, 12473.61
1210.071, 12491.90
1210.553, 12490.94
1211.036, 12447.19
1211.518, 12410.76
1212.000, 12398.97
1212.482, 12396.88
1212.964, 12396.09
1213.446, 12398.32
1213.928, 12412.23
1214.410, 12436.19
1214.892, 12429.57
1215.375, 12370.74
1215.857, 12342.24
1216.339, 12359.88
1216.821, 12372.75
1217.303, 12361.09
1217.785, 12345.54
1218.267, 12343.44
1218.749, 12353.04
1219.231, 12377.63
1219.714, 12414.13
1220.196, 12406.68
1220.678, 12360.70
1221.160, 12343.55
1221.642, 12365.89
1222.124, 12393.18
1222.606, 12407.15
1223.088, 12415.91
1223.571, 12436.38
1224.053, 12449.63
1224.535, 12410.41
1225.017, 12351.58
1225.499, 12328.47
1225.981, 12336.79
1226.463, 12355.47
1226.945, 12376.56
1227.427, 12390.02
1227.910, 12391.31
1228.392, 12382.71
1228.874, 12355.92
1229.356, 12330.34
1229.838, 12316.38
1230.320, 12312.57
1230.802, 12321.08
1231.284, 12337.53
1231.766, 12346.52
1232.249, 12341.74
1232.731, 12347.53
1233.213, 12379.84
1233.695, 12395.26
1234.177, 12379.50
1234.659, 12357.71
1235.141, 12339.49
1235.623, 12330.48
1236.106, 12342.66
1236.588, 12370.19
1237.070, 12368.46
1237.552, 12336.28
1238.034, 12332.49
1238.516, 12360.46
1238.998, 12366.06
1239.480, 12333.18
1239.963, 12297.13
1240.445, 12281.96
1240.927, 12292.66
1241.409, 12350.08
1241.891, 12429.93
1242.373, 12491.19
1242.855, 12537.13
1243.337, 12572.08
1243.819, 12601.48
1244.302, 12648.42
1244.784, 12719.95
1245.266, 12745.72
1245.748, 12636.77
1246.230, 12536.65
1246.712, 12526.32
1247.194, 12544.76
1247.676, 12558.07
1248.158, 12563.80
1248.641, 12567.37
1249.123, 12566.11
1249.605, 12537.15
1250.087, 12459.80
1250.569, 12404.09
1251.051, 12383.79
1251.533, 12352.76
1252.015, 12288.00
1252.498, 12240.94
1252.980, 12249.13
1253.462, 12286.04
1253.944, 12310.38
1254.426, 12322.49
1254.908, 12323.45
1255.390, 12314.02
1255.872, 12298.73
1256.354, 12279.46
1256.837, 12267.94
1257.319, 12266.99
1257.801, 12261.34
1258.283, 12236.60
1258.765, 12213.25
1259.247, 12219.02
1259.729, 12235.51
1260.211, 12241.18
1260.693, 12241.72
1261.176, 12248.42
1261.658, 12259.35
1262.140, 12264.01
1262.622, 12259.24
1263.104, 12255.38
1263.586, 12256.96
1264.068, 12257.99
1264.550, 12249.24
1265.033, 12248.70
1265.515, 12277.21
1265.997, 12307.81
1266.479, 12307.33
1266.961, 12284.29
1267.443, 12277.42
1267.925, 12290.06
1268.407, 12299.87
1268.890, 12307.06
1269.372, 12305.09
1269.854, 12291.97
1270.336, 12284.03
1270.818, 12290.67
1271.300, 12303.56
1271.782, 12316.11
1272.264, 12323.63
1272.746, 12306.09
1273.229, 12282.50
1273.711, 12296.97
##END=



