##NAMES=Catapleiite
##RRUFFID=R060208
##IDEAL CHEMISTRY=Na_2_Zr^4+^Si_3_O_9_&#183;2H_2_O
##LOCALITY=Mont Saint-Hilaire, Rouville County, Quebec, Canada
##OWNER=RRUFF
##SOURCE=Royal Ontario Museum
##DESCRIPTION=Colorless transparent thin tabular pseudohexagonal crystal
##STATUS=The identification of this mineral is confirmed by single-crystal X-ray diffraction and chemical analysis.
##URL=rruff.info/R060208
##MEASURED CHEMISTRY=Na_2.00_Zr_1.00_Si_3.00_O_9_Â·2H_2_O
91.82715, 177.9496
92.30927, 176.7275
92.79138, 177.1059
93.27350, 177.5619
93.75562, 177.3212
94.23773, 176.7177
94.71985, 175.9871
95.20197, 174.4471
95.68408, 171.5829
96.16620, 168.2031
96.64832, 165.1220
97.13043, 162.4813
97.61255, 160.1182
98.09467, 157.8513
98.57678, 155.7340
99.05890, 153.1993
99.54102, 150.4509
100.0231, 147.7268
100.5052, 145.1548
100.9874, 142.7391
101.4695, 140.4934
101.9516, 138.6630
102.4337, 137.5805
102.9158, 136.5534
103.3979, 135.4358
103.8801, 134.2725
104.3622, 133.1756
104.8443, 132.2240
105.3264, 131.4062
105.8085, 130.8006
106.2906, 130.3992
106.7728, 130.1193
107.2549, 129.9937
107.7370, 130.0003
108.2191, 129.9550
108.7012, 129.5780
109.1833, 128.8304
109.6655, 128.3427
110.1476, 128.3518
110.6297, 128.6250
111.1118, 128.7844
111.5939, 128.6800
112.0760, 128.6088
112.5582, 128.9417
113.0403, 129.6379
113.5224, 130.3317
114.0045, 130.7764
114.4866, 130.9847
114.9687, 131.2038
115.4509, 131.6539
115.9330, 131.9863
116.4151, 131.8558
116.8972, 131.2341
117.3793, 130.5782
117.8614, 130.6074
118.3436, 131.8167
118.8257, 132.4830
119.3078, 132.0910
119.7899, 131.3535
120.2720, 130.7716
120.7541, 130.5498
121.2363, 130.6109
121.7184, 130.7353
122.2005, 130.9326
122.6826, 131.1946
123.1647, 131.6976
123.6468, 132.2364
124.1290, 132.4693
124.6111, 132.1620
125.0932, 131.4152
125.5753, 131.0914
126.0574, 131.4094
126.5395, 131.8136
127.0217, 132.0828
127.5038, 132.2354
127.9859, 132.4124
128.4680, 132.7676
128.9501, 133.2377
129.4323, 133.4931
129.9144, 133.2960
130.3965, 133.0009
130.8786, 132.9835
131.3607, 133.2907
131.8428, 133.7160
132.3250, 134.1386
132.8071, 134.5672
133.2892, 135.0133
133.7713, 135.5000
134.2534, 136.0102
134.7355, 136.5112
135.2176, 137.0972
135.6998, 137.5216
136.1819, 137.5768
136.6640, 137.3791
137.1461, 137.2141
137.6282, 137.3356
138.1103, 137.7769
138.5925, 138.1311
139.0746, 138.2724
139.5567, 138.4278
140.0388, 138.6537
140.5209, 138.9693
141.0030, 139.3893
141.4852, 139.9433
141.9673, 140.6992
142.4494, 141.4239
142.9315, 142.1285
143.4136, 142.8001
143.8957, 143.3906
144.3779, 143.9003
144.8600, 144.4387
145.3421, 145.1921
145.8242, 146.3252
146.3063, 147.3805
146.7884, 148.4280
147.2706, 149.3657
147.7527, 150.0286
148.2348, 150.3316
148.7169, 150.4431
149.1990, 150.6741
149.6811, 150.9774
150.1633, 151.4546
150.6454, 152.2652
151.1275, 153.3060
151.6096, 154.2561
152.0917, 155.0485
152.5738, 155.6165
153.0560, 155.8749
153.5381, 155.7101
154.0202, 155.5877
154.5023, 156.0195
154.9844, 157.0392
155.4665, 157.8074
155.9487, 157.6968
156.4308, 157.3443
156.9129, 157.2739
157.3950, 157.6435
157.8771, 158.1555
158.3592, 158.3738
158.8414, 158.2217
159.3235, 157.9447
159.8056, 157.4734
160.2877, 156.9842
160.7698, 156.7151
161.2519, 156.7960
161.7341, 156.9841
162.2162, 156.5759
162.6983, 155.3765
163.1804, 153.7330
163.6625, 151.5966
164.1446, 149.1102
164.6268, 146.3896
165.1089, 143.4648
165.5910, 140.4139
166.0731, 137.6762
166.5552, 135.4634
167.0373, 133.3260
167.5195, 131.2594
168.0016, 129.1983
168.4837, 127.0273
168.9658, 124.6757
169.4479, 122.1331
169.9300, 119.5568
170.4122, 116.7126
170.8943, 114.0586
171.3764, 111.9772
171.8585, 110.3501
172.3406, 108.5900
172.8227, 106.1926
173.3049, 103.2623
173.7870, 100.7546
174.2691, 98.92781
174.7512, 97.32473
175.2333, 95.56957
175.7154, 93.63862
176.1976, 91.77274
176.6797, 90.21254
177.1618, 88.85355
177.6439, 87.49438
178.1260, 86.06540
178.6081, 84.61938
179.0903, 83.21540
179.5724, 81.85841
180.0545, 80.54842
180.5366, 79.32838
181.0187, 78.15026
181.5008, 76.93789
181.9830, 75.55453
182.4651, 74.12510
182.9472, 73.06868
183.4293, 72.64672
183.9114, 72.21534
184.3935, 71.52786
184.8757, 70.64208
185.3578, 69.63449
185.8399, 68.49107
186.3220, 67.24496
186.8041, 66.28221
187.2862, 65.88774
187.7684, 65.49657
188.2505, 64.86440
188.7326, 64.10676
189.2147, 63.48411
189.6968, 63.24058
190.1789, 63.39735
190.6611, 63.30889
191.1432, 62.67365
191.6253, 62.08375
192.1074, 61.74942
192.5895, 61.63070
193.0716, 61.57466
193.5538, 61.45386
194.0359, 61.26105
194.5180, 61.05244
195.0001, 60.76769
195.4822, 60.52282
195.9643, 60.35743
196.4465, 60.27912
196.9286, 60.30074
197.4107, 60.46206
197.8928, 60.79567
198.3749, 60.93964
198.8570, 60.75670
199.3392, 60.50926
199.8213, 60.33205
200.3034, 60.24571
200.7855, 60.26344
201.2676, 60.43656
201.7497, 60.77363
202.2319, 60.99261
202.7140, 61.04799
203.1961, 61.00190
203.6782, 60.85100
204.1603, 60.58546
204.6424, 60.39991
205.1246, 60.57293
205.6067, 61.01280
206.0888, 61.27996
206.5709, 61.12999
207.0530, 60.82109
207.5351, 60.72915
208.0173, 60.92693
208.4994, 61.15850
208.9815, 61.21997
209.4636, 61.16571
209.9457, 61.09153
210.4278, 61.03637
210.9100, 60.98435
211.3921, 60.87378
211.8742, 60.63654
212.3563, 60.49144
212.8384, 60.64383
213.3205, 60.96462
213.8027, 61.21933
214.2848, 61.24409
214.7669, 61.11245
215.2490, 61.13595
215.7311, 61.58482
216.2132, 61.74233
216.6953, 61.05975
217.1775, 59.94796
217.6596, 59.14311
218.1417, 59.22095
218.6238, 59.97238
219.1059, 60.12989
219.5880, 59.18792
220.0702, 58.22853
220.5523, 57.51867
221.0344, 57.02152
221.5165, 56.67115
221.9986, 56.46131
222.4807, 56.36054
222.9629, 56.06414
223.4450, 55.18669
223.9271, 54.52303
224.4092, 54.37664
224.8913, 54.54359
225.3734, 54.67876
225.8556, 54.55347
226.3377, 54.18936
226.8198, 53.81637
227.3019, 53.33675
227.7840, 52.95471
228.2661, 52.78223
228.7483, 52.73497
229.2304, 52.65301
229.7125, 52.42181
230.1946, 52.06894
230.6767, 51.90827
231.1588, 52.19170
231.6410, 52.37603
232.1231, 52.25614
232.6052, 51.94143
233.0873, 51.64908
233.5694, 51.50920
234.0515, 51.50380
234.5337, 51.50922
235.0158, 51.57030
235.4979, 51.59276
235.9800, 51.46410
236.4621, 51.27394
236.9442, 51.25380
237.4264, 51.57936
237.9085, 52.12151
238.3906, 52.27541
238.8727, 51.70324
239.3548, 51.20462
239.8369, 51.11079
240.3191, 51.30035
240.8012, 51.48273
241.2833, 51.51983
241.7654, 51.45137
242.2475, 51.40412
242.7296, 51.41904
243.2118, 51.38838
243.6939, 51.18731
244.1760, 50.88988
244.6581, 50.75875
245.1402, 50.99419
245.6223, 51.34027
246.1045, 51.27417
246.5866, 50.68807
247.0687, 50.04920
247.5508, 49.60003
248.0329, 49.29331
248.5150, 48.93662
248.9972, 48.40985
249.4793, 47.87569
249.9614, 47.55582
250.4435, 47.45860
250.9256, 47.46687
251.4077, 47.54546
251.8899, 47.68348
252.3720, 47.84592
252.8541, 48.06204
253.3362, 48.24671
253.8183, 48.29669
254.3004, 48.21367
254.7826, 48.13096
255.2647, 48.15261
255.7468, 48.25295
256.2289, 48.28599
256.7110, 48.15045
257.1931, 48.04777
257.6753, 48.18328
258.1574, 48.51855
258.6395, 48.80779
259.1216, 48.81077
259.6037, 48.60068
260.0858, 48.61477
260.5680, 49.06757
261.0501, 49.51317
261.5322, 49.64495
262.0143, 49.53893
262.4964, 49.42887
262.9785, 49.49687
263.4607, 49.70150
263.9428, 49.79823
264.4249, 49.75393
264.9070, 49.63626
265.3891, 49.40878
265.8712, 49.14354
266.3534, 48.99373
266.8355, 49.10694
267.3176, 49.40095
267.7997, 49.51092
268.2818, 49.31246
268.7639, 49.10997
269.2461, 48.91402
269.7282, 48.80454
270.2103, 48.93703
270.6924, 49.46302
271.1745, 50.20794
271.6566, 50.57030
272.1388, 50.31925
272.6209, 50.05334
273.1030, 49.88574
273.5851, 49.81062
274.0672, 49.82886
274.5493, 49.94345
275.0315, 50.13590
275.5136, 50.37280
275.9957, 50.71527
276.4778, 50.98373
276.9599, 51.10920
277.4420, 51.17987
277.9242, 51.23352
278.4063, 51.28675
278.8884, 51.42456
279.3705, 51.84174
279.8526, 52.72203
280.3347, 53.49107
280.8169, 54.10958
281.2990, 54.60604
281.7811, 54.91338
282.2632, 55.04773
282.7453, 55.20487
283.2274, 55.70986
283.7096, 56.76351
284.1917, 57.66751
284.6738, 58.31121
285.1559, 58.89745
285.6380, 59.45644
286.1201, 60.03986
286.6023, 60.79365
287.0844, 61.96068
287.5665, 63.72635
288.0486, 65.12551
288.5307, 65.72737
289.0128, 66.37155
289.4950, 67.47887
289.9771, 69.00291
290.4592, 70.62627
290.9413, 72.06662
291.4234, 73.30588
291.9055, 74.56238
292.3877, 75.95770
292.8698, 77.25333
293.3519, 78.36483
293.8340, 79.31424
294.3161, 80.15675
294.7982, 80.92400
295.2804, 81.62278
295.7625, 82.29833
296.2446, 83.08959
296.7267, 83.70312
297.2088, 84.06165
297.6909, 84.20884
298.1731, 84.20739
298.6552, 84.09205
299.1373, 83.85420
299.6194, 83.45694
300.1015, 82.76371
300.5836, 82.06258
301.0658, 81.45771
301.5479, 80.82902
302.0300, 80.03186
302.5121, 79.01339
302.9942, 77.84585
303.4763, 76.63816
303.9585, 75.11349
304.4406, 74.01934
304.9227, 73.65945
305.4048, 73.51327
305.8869, 73.14723
306.3690, 72.47119
306.8512, 71.70609
307.3333, 71.15817
307.8154, 70.90426
308.2975, 70.68555
308.7796, 70.45937
309.2617, 70.29314
309.7439, 70.28331
310.2260, 70.39805
310.7081, 70.48936
311.1902, 70.40622
311.6723, 70.12234
312.1544, 69.84509
312.6366, 69.68726
313.1187, 69.42625
313.6008, 68.86491
314.0829, 68.11694
314.5650, 67.46957
315.0471, 67.15097
315.5293, 67.12541
316.0114, 66.92010
316.4935, 66.39578
316.9756, 65.84451
317.4577, 65.30434
317.9398, 64.77958
318.4220, 64.26631
318.9041, 63.76205
319.3862, 63.27253
319.8683, 62.80911
320.3504, 62.32022
320.8326, 61.93958
321.3147, 61.77314
321.7968, 61.66791
322.2789, 61.44820
322.7610, 61.06580
323.2431, 60.63854
323.7253, 60.38335
324.2074, 60.46471
324.6895, 60.39241
325.1716, 60.09723
325.6537, 59.72321
326.1358, 59.33203
326.6180, 58.95093
327.1001, 58.61464
327.5822, 58.37604
328.0643, 58.27940
328.5464, 58.04392
329.0285, 57.57933
329.5107, 57.08281
329.9928, 56.65704
330.4749, 56.27082
330.9570, 55.82932
331.4391, 55.25627
331.9212, 54.56084
332.4034, 53.87983
332.8855, 53.14234
333.3676, 52.49455
333.8497, 52.03228
334.3318, 51.66259
334.8139, 51.26250
335.2961, 50.77401
335.7782, 50.21257
336.2603, 49.62903
336.7424, 48.93058
337.2245, 48.35509
337.7066, 47.97977
338.1888, 47.68628
338.6708, 47.36976
339.1530, 47.00133
339.6351, 46.63259
340.1172, 46.36032
340.5993, 46.28239
341.0814, 46.04734
341.5635, 45.51333
342.0457, 44.96355
342.5278, 44.52840
343.0099, 44.22442
343.4920, 44.02252
343.9741, 43.92117
344.4562, 43.93170
344.9384, 43.83101
345.4205, 43.50830
345.9026, 43.17430
346.3847, 42.80019
346.8668, 42.46271
347.3489, 42.30008
347.8311, 42.41655
348.3132, 42.73321
348.7953, 42.93898
349.2774, 43.02827
349.7595, 43.00012
350.2416, 42.73125
350.7238, 42.42077
351.2059, 42.28403
351.6880, 42.39210
352.1701, 42.61679
352.6522, 42.73733
353.1343, 42.69757
353.6165, 42.72675
354.0986, 42.95218
354.5807, 43.17183
355.0628, 43.21526
355.5449, 43.10200
356.0270, 43.03165
356.5092, 43.23466
356.9913, 43.72213
357.4734, 44.12122
357.9555, 44.40486
358.4376, 44.61796
358.9197, 44.68873
359.4019, 44.70946
359.8840, 44.87364
360.3661, 45.34785
360.8482, 46.00393
361.3303, 46.42588
361.8124, 46.46284
362.2946, 46.59684
362.7767, 47.11684
363.2588, 47.75653
363.7409, 48.24462
364.2230, 48.49684
364.7051, 48.61826
365.1873, 48.68344
365.6694, 48.66829
366.1515, 48.83237
366.6336, 49.42673
367.1157, 50.06778
367.5978, 50.44780
368.0800, 50.56974
368.5621, 50.68001
369.0442, 50.98392
369.5263, 51.43530
370.0084, 51.82580
370.4905, 52.17278
370.9727, 52.38882
371.4548, 52.34474
371.9369, 52.13606
372.4190, 51.97148
372.9011, 51.92603
373.3832, 51.97011
373.8654, 52.08839
374.3475, 52.29246
374.8296, 52.47220
375.3117, 52.61001
375.7938, 52.66693
376.2759, 52.58149
376.7581, 52.31425
377.2402, 51.99131
377.7223, 51.61027
378.2044, 51.22290
378.6865, 51.08580
379.1686, 51.34832
379.6508, 51.75538
380.1329, 52.01558
380.6150, 52.13882
381.0971, 52.15614
381.5792, 51.91331
382.0613, 51.63675
382.5435, 51.78437
383.0256, 52.43651
383.5077, 52.88994
383.9898, 52.42580
384.4719, 51.20235
384.9540, 50.48224
385.4362, 50.77167
385.9183, 51.14987
386.4004, 50.99450
386.8825, 50.44514
387.3646, 50.00000
387.8467, 49.90439
388.3289, 50.04077
388.8110, 50.12352
389.2931, 50.15400
389.7752, 50.14513
390.2573, 50.07875
390.7394, 49.98354
391.2216, 49.88503
391.7037, 49.79055
392.1858, 49.71672
392.6679, 49.69822
393.1500, 49.76538
393.6321, 49.70407
394.1143, 49.36744
394.5964, 49.04605
395.0785, 48.87705
395.5606, 48.86119
396.0427, 48.97907
396.5248, 49.23594
397.0070, 49.58972
397.4891, 49.82046
397.9712, 49.87439
398.4533, 49.86186
398.9354, 49.65476
399.4175, 49.45023
399.8997, 49.49419
400.3818, 49.85058
400.8639, 50.33798
401.3460, 50.66860
401.8281, 50.72583
402.3102, 50.95471
402.7924, 51.52831
403.2745, 52.09518
403.7566, 52.45797
404.2387, 52.65229
404.7208, 52.82060
405.2029, 53.04599
405.6851, 53.34455
406.1672, 53.85194
406.6493, 54.78820
407.1314, 55.61452
407.6135, 56.00572
408.0956, 56.32019
408.5778, 56.98582
409.0599, 58.15565
409.5420, 59.55944
410.0241, 60.80169
410.5062, 61.83009
410.9883, 62.95177
411.4705, 64.17654
411.9526, 65.54263
412.4347, 67.10271
412.9168, 68.82997
413.3989, 70.62321
413.8810, 72.25903
414.3632, 73.88494
414.8453, 76.17571
415.3274, 79.45379
415.8095, 82.59891
416.2916, 84.73333
416.7737, 86.45023
417.2559, 88.47033
417.7380, 90.88082
418.2201, 93.82793
418.7022, 97.67307
419.1843, 102.3277
419.6664, 106.9139
420.1486, 111.0118
420.6307, 115.1370
421.1128, 119.8563
421.5949, 125.1762
422.0770, 130.8521
422.5591, 136.6134
423.0413, 142.7531
423.5234, 149.9306
424.0055, 158.1913
424.4876, 166.5556
424.9697, 174.2168
425.4518, 181.3019
425.9340, 188.7621
426.4161, 197.2018
426.8982, 205.3607
427.3803, 212.9222
427.8624, 219.7600
428.3445, 225.6079
428.8267, 230.4027
429.3088, 234.1029
429.7909, 236.6462
430.2730, 237.9699
430.7551, 237.9536
431.2372, 236.6866
431.7194, 234.0143
432.2015, 229.5085
432.6836, 223.3884
433.1657, 216.4090
433.6478, 209.1616
434.1299, 201.6535
434.6121, 193.7616
435.0942, 184.7218
435.5763, 176.1557
436.0584, 168.4624
436.5405, 161.3275
437.0226, 154.3351
437.5048, 147.3653
437.9869, 140.5542
438.4690, 134.0532
438.9511, 127.7491
439.4332, 122.1507
439.9153, 117.6677
440.3975, 113.4963
440.8796, 109.2865
441.3617, 105.0986
441.8438, 101.1974
442.3259, 97.80534
442.8080, 94.80859
443.2902, 91.95727
443.7723, 89.27699
444.2544, 86.64867
444.7365, 83.86378
445.2186, 81.19072
445.7007, 78.92793
446.1829, 77.14184
446.6650, 75.64298
447.1471, 74.44801
447.6292, 73.47007
448.1113, 72.13557
448.5934, 70.16351
449.0756, 68.22342
449.5577, 66.98420
450.0398, 66.24783
450.5219, 65.45123
451.0040, 64.32853
451.4861, 63.17021
451.9683, 62.34785
452.4504, 61.79763
452.9325, 61.05432
453.4146, 59.82554
453.8967, 58.38803
454.3788, 57.36724
454.8610, 56.84321
455.3431, 56.37038
455.8252, 55.86121
456.3073, 55.34776
456.7894, 54.91766
457.2715, 54.56041
457.7537, 54.06030
458.2358, 53.16100
458.7179, 51.86072
459.2000, 51.08750
459.6821, 51.31234
460.1642, 51.42920
460.6464, 51.07049
461.1285, 50.43802
461.6106, 49.78027
462.0927, 49.19968
462.5748, 48.74604
463.0569, 48.54969
463.5391, 48.81261
464.0212, 48.78183
464.5033, 48.22943
464.9854, 47.61671
465.4675, 47.12016
465.9496, 46.74231
466.4318, 46.44111
466.9139, 46.21397
467.3960, 46.01292
467.8781, 45.62487
468.3602, 44.86172
468.8423, 44.40411
469.3245, 44.84326
469.8066, 45.41870
470.2887, 45.50050
470.7708, 45.00318
471.2529, 44.36089
471.7350, 43.83323
472.2172, 43.42360
472.6993, 43.17760
473.1814, 43.13975
473.6635, 43.14813
474.1456, 43.15107
474.6277, 43.11004
475.1099, 42.92103
475.5920, 42.49762
476.0741, 42.01340
476.5562, 41.46246
477.0383, 40.93755
477.5204, 40.76540
478.0026, 41.10942
478.4847, 41.62920
478.9668, 41.83942
479.4489, 41.66703
479.9310, 41.53157
480.4131, 41.53512
480.8953, 41.51421
481.3774, 41.34486
481.8595, 41.05090
482.3416, 40.71273
482.8237, 40.36539
483.3058, 40.04187
483.7880, 39.85779
484.2701, 39.99794
484.7522, 40.01347
485.2343, 39.72755
485.7164, 39.43215
486.1985, 39.40525
486.6807, 39.63380
487.1628, 39.85572
487.6449, 39.82366
488.1270, 39.55783
488.6091, 39.34680
489.0912, 39.16645
489.5734, 39.08663
490.0555, 39.17144
490.5376, 39.33147
491.0197, 39.51085
491.5018, 39.70373
491.9839, 39.76526
492.4661, 39.42055
492.9482, 38.73585
493.4303, 38.34044
493.9124, 38.41777
494.3945, 38.60936
494.8766, 38.60524
495.3588, 38.48376
495.8409, 38.46007
496.3230, 38.69413
496.8051, 38.94301
497.2872, 38.98042
497.7693, 38.85543
498.2515, 38.72682
498.7336, 38.63129
499.2157, 38.62633
499.6978, 38.85459
500.1799, 39.44337
500.6620, 39.76706
501.1442, 39.53286
501.6263, 39.23329
502.1084, 39.20994
502.5905, 39.43166
503.0726, 39.70373
503.5547, 39.90952
504.0368, 40.07440
504.5190, 40.29751
505.0011, 40.75406
505.4832, 40.98032
505.9653, 40.65995
506.4474, 40.34279
506.9295, 40.48806
507.4117, 41.07123
507.8938, 41.71239
508.3759, 42.10548
508.8580, 42.28907
509.3401, 42.46120
509.8222, 42.58424
510.3044, 42.78002
510.7865, 43.14374
511.2686, 43.57300
511.7507, 43.96650
512.2328, 44.30365
512.7150, 44.65483
513.1971, 45.09361
513.6792, 45.58833
514.1613, 46.04356
514.6434, 46.43870
515.1255, 46.84990
515.6077, 47.38675
516.0898, 47.98846
516.5719, 48.39650
517.0540, 48.29649
517.5361, 48.37057
518.0182, 49.07321
518.5004, 50.11499
518.9825, 51.02551
519.4646, 51.67814
519.9467, 52.18592
520.4288, 52.68673
520.9109, 53.19834
521.3931, 53.57802
521.8752, 53.72871
522.3573, 53.88005
522.8394, 54.13048
523.3215, 54.42661
523.8036, 54.69585
524.2858, 54.90615
524.7679, 55.04655
525.2500, 55.05666
525.7321, 54.88070
526.2142, 54.86355
526.6964, 55.25805
527.1785, 55.56203
527.6606, 55.45545
528.1427, 55.08921
528.6248, 54.80109
529.1069, 54.72969
529.5891, 54.80458
530.0712, 54.99609
530.5533, 55.29203
531.0354, 55.46926
531.5175, 55.41845
531.9996, 55.30172
532.4818, 55.31937
532.9639, 55.45923
533.4460, 55.59681
533.9281, 55.73750
534.4102, 55.84185
534.8923, 55.82890
535.3745, 55.74645
535.8566, 55.76380
536.3387, 55.96925
536.8208, 56.26747
537.3029, 56.45794
537.7850, 56.46128
538.2672, 56.52333
538.7493, 56.76379
539.2314, 56.95073
539.7135, 56.88347
540.1956, 56.64935
540.6777, 56.48787
541.1599, 56.54452
541.6420, 56.75414
542.1241, 56.96971
542.6062, 57.21590
543.0883, 57.39130
543.5704, 57.45017
544.0526, 57.44990
544.5347, 57.33206
545.0168, 57.15508
545.4989, 57.16765
545.9810, 57.60933
546.4631, 58.25628
546.9453, 58.76993
547.4274, 59.15377
547.9095, 59.49016
548.3916, 59.78863
548.8737, 60.08287
549.3558, 60.39571
549.8380, 60.68482
550.3201, 61.18659
550.8022, 62.10130
551.2843, 63.12146
551.7664, 63.97752
552.2485, 64.70309
552.7307, 65.48666
553.2128, 66.44128
553.6949, 67.51877
554.1770, 68.57767
554.6591, 69.47596
555.1412, 70.62069
555.6234, 72.09261
556.1055, 73.71959
556.5876, 75.38334
557.0697, 77.11629
557.5518, 79.04471
558.0339, 81.29749
558.5161, 83.72958
558.9982, 85.95383
559.4803, 87.88769
559.9624, 90.06310
560.4445, 92.62392
560.9266, 95.48162
561.4088, 98.54699
561.8909, 101.8075
562.3730, 105.1847
562.8551, 108.4670
563.3372, 111.9820
563.8193, 116.1447
564.3015, 120.8758
564.7836, 125.6856
565.2657, 130.3099
565.7478, 135.0455
566.2299, 140.5116
566.7120, 147.0690
567.1942, 153.4992
567.6763, 159.6130
568.1584, 165.7241
568.6405, 172.0476
569.1226, 178.5128
569.6047, 185.0771
570.0869, 191.6936
570.5690, 198.2477
571.0511, 204.5286
571.5332, 210.7562
572.0153, 216.0649
572.4974, 220.5370
572.9796, 223.8054
573.4617, 225.5468
573.9438, 225.9760
574.4259, 225.6902
574.9080, 225.1943
575.3901, 223.6996
575.8723, 220.0576
576.3544, 214.5201
576.8365, 208.4556
577.3186, 202.3081
577.8007, 195.5412
578.2828, 187.3946
578.7650, 177.7636
579.2471, 168.4428
579.7292, 159.3267
580.2113, 150.7187
580.6934, 142.8259
581.1755, 135.5061
581.6577, 128.4147
582.1398, 121.4923
582.6219, 114.7739
583.1040, 108.3218
583.5861, 102.1046
584.0682, 96.42738
584.5504, 91.40157
585.0325, 86.75895
585.5145, 82.40359
585.9966, 78.37098
586.4788, 74.72639
586.9609, 71.47510
587.4430, 68.55579
587.9251, 65.97157
588.4072, 63.67431
588.8893, 61.48674
589.3715, 59.37964
589.8536, 57.37017
590.3357, 55.37748
590.8178, 53.50834
591.2999, 52.10332
591.7820, 51.50145
592.2642, 50.72511
592.7463, 49.18785
593.2284, 47.48201
593.7105, 46.30767
594.1926, 45.70729
594.6747, 45.27781
595.1569, 44.72518
595.6390, 44.06842
596.1211, 43.39590
596.6032, 42.58885
597.0853, 41.97828
597.5674, 41.75624
598.0496, 41.59895
598.5317, 41.20417
599.0138, 40.62700
599.4959, 40.21673
599.9780, 40.30629
600.4601, 40.61855
600.9423, 40.60148
601.4244, 40.25130
601.9065, 39.90430
602.3886, 39.64031
602.8707, 39.47069
603.3528, 39.44996
603.8350, 39.57725
604.3171, 39.67448
604.7992, 39.60781
605.2813, 39.60804
605.7634, 39.85327
606.2455, 40.27332
606.7277, 40.70527
607.2098, 41.08577
607.6919, 41.48179
608.1740, 41.98748
608.6561, 42.61238
609.1382, 43.29455
609.6204, 44.02281
610.1025, 44.82740
610.5846, 45.72898
611.0667, 46.70499
611.5488, 47.68373
612.0309, 48.63760
612.5131, 49.75097
612.9952, 51.28996
613.4773, 53.11832
613.9594, 54.75566
614.4415, 56.11518
614.9236, 57.63939
615.4058, 59.66167
615.8879, 62.05058
616.3700, 64.37593
616.8521, 66.46827
617.3342, 68.85388
617.8163, 71.79992
618.2985, 74.97901
618.7806, 77.99635
619.2627, 80.93387
619.7448, 84.17422
620.2269, 87.94155
620.7090, 92.23815
621.1912, 97.06599
621.6733, 102.5382
622.1554, 108.1929
622.6375, 113.5534
623.1196, 119.5258
623.6017, 126.6882
624.0839, 134.8287
624.5660, 143.3282
625.0481, 151.9233
625.5302, 160.7658
626.0123, 170.0180
626.4944, 179.5914
626.9766, 189.1889
627.4587, 198.8568
627.9408, 207.9932
628.4229, 216.3477
628.9050, 223.8593
629.3871, 229.1483
629.8693, 232.7438
630.3514, 233.8242
630.8335, 232.0332
631.3156, 227.7638
631.7977, 221.0162
632.2798, 212.0685
632.7620, 201.8097
633.2441, 190.8990
633.7262, 179.3801
634.2083, 167.4872
634.6904, 154.9314
635.1725, 143.1267
635.6547, 132.6222
636.1368, 123.0362
636.6189, 113.8424
637.1010, 105.1198
637.5831, 97.48701
638.0652, 91.60793
638.5474, 86.47872
639.0295, 81.33594
639.5116, 76.30296
639.9937, 71.68475
640.4758, 67.60734
640.9579, 64.03841
641.4401, 61.01789
641.9222, 58.61077
642.4043, 56.14058
642.8864, 53.31305
643.3685, 50.78058
643.8506, 48.71819
644.3328, 47.00941
644.8149, 45.58578
645.2970, 44.41334
645.7791, 43.33412
646.2612, 42.20769
646.7433, 41.09347
647.2255, 40.19096
647.7076, 39.51613
648.1897, 38.77069
648.6718, 37.78146
649.1539, 36.71479
649.6360, 35.86134
650.1182, 35.24264
650.6003, 34.68730
651.0824, 34.30619
651.5645, 33.85925
652.0466, 33.11708
652.5287, 32.23608
653.0109, 31.49788
653.4930, 31.00533
653.9751, 30.65609
654.4572, 30.33559
654.9393, 30.04438
655.4214, 29.76803
655.9036, 29.54160
656.3857, 29.26179
656.8678, 28.82879
657.3499, 28.34336
657.8320, 27.89623
658.3141, 27.49086
658.7963, 27.17332
659.2784, 27.00844
659.7605, 26.91254
660.2426, 26.76058
660.7247, 26.58124
661.2068, 26.56580
661.6890, 26.82748
662.1711, 27.11513
662.6532, 26.94014
663.1353, 26.09679
663.6174, 25.51580
664.0995, 25.40121
664.5817, 25.32667
665.0638, 25.14533
665.5459, 24.93000
666.0280, 24.79367
666.5101, 24.76651
666.9922, 24.77307
667.4744, 24.76455
667.9565, 24.73877
668.4386, 24.70074
668.9207, 24.65125
669.4028, 24.53680
669.8849, 24.31224
670.3671, 24.03322
670.8492, 23.82070
671.3313, 23.71671
671.8134, 23.56480
672.2955, 23.22978
672.7776, 22.97994
673.2598, 23.06484
673.7419, 23.30332
674.2240, 23.37257
674.7061, 23.15530
675.1882, 22.83341
675.6703, 22.59855
676.1525, 22.45026
676.6346, 22.40190
677.1167, 22.48525
677.5988, 22.55461
678.0809, 22.48742
678.5630, 22.39698
679.0452, 22.53029
679.5273, 22.97216
680.0094, 23.19781
680.4915, 22.87797
680.9736, 22.47421
681.4557, 22.31788
681.9379, 22.36274
682.4200, 22.49938
682.9021, 22.67593
683.3842, 22.75083
683.8663, 22.44369
684.3484, 21.70793
684.8306, 21.30853
685.3127, 21.37990
685.7948, 21.55319
686.2769, 21.75769
686.7590, 21.94246
687.2411, 22.07012
687.7233, 22.13981
688.2054, 22.08439
688.6875, 21.72833
689.1696, 21.34067
689.6517, 21.24304
690.1339, 21.36871
690.6160, 21.47073
691.0981, 21.45117
691.5802, 21.35360
692.0623, 21.22613
692.5444, 21.05728
693.0266, 20.96054
693.5087, 20.93693
693.9908, 20.98999
694.4729, 21.17821
694.9550, 21.40286
695.4371, 21.58311
695.9193, 21.70272
696.4014, 21.74544
696.8835, 21.66543
697.3656, 21.52655
697.8477, 21.41798
698.3298, 21.32990
698.8120, 21.17771
699.2941, 20.92010
699.7762, 20.70405
700.2583, 20.73729
700.7404, 21.04755
701.2225, 21.25698
701.7047, 21.25342
702.1868, 21.28474
702.6689, 21.47192
703.1510, 21.66107
703.6331, 21.68956
704.1152, 21.55723
704.5974, 21.40545
705.0795, 21.35119
705.5616, 21.30882
706.0437, 21.06352
706.5258, 20.67216
707.0079, 20.52696
707.4901, 20.76325
707.9722, 21.14207
708.4543, 21.44184
708.9364, 21.66253
709.4185, 21.80408
709.9006, 21.81707
710.3828, 21.82189
710.8649, 21.80560
711.3470, 21.81116
711.8291, 21.91890
712.3112, 22.09059
712.7933, 22.16138
713.2755, 21.97681
713.7576, 21.75701
714.2397, 21.88795
714.7218, 22.31643
715.2039, 22.65917
715.6860, 22.82340
716.1682, 22.98886
716.6503, 23.31671
717.1324, 23.76606
717.6145, 24.11212
718.0966, 24.34778
718.5787, 24.49718
719.0609, 24.43133
719.5430, 24.39322
720.0251, 24.59901
720.5072, 24.97575
720.9893, 25.29779
721.4714, 25.44930
721.9536, 25.57097
722.4357, 25.86216
722.9178, 26.29575
723.3999, 26.70974
723.8820, 27.09305
724.3641, 27.42026
724.8463, 27.62960
725.3284, 27.80744
725.8105, 28.19758
726.2926, 28.98929
726.7747, 29.51396
727.2568, 29.37424
727.7390, 29.32635
728.2211, 29.90972
728.7032, 30.83458
729.1853, 31.58492
729.6674, 31.99213
730.1495, 32.26671
730.6317, 32.55975
731.1138, 32.89790
731.5959, 33.43254
732.0780, 34.18551
732.5601, 34.84177
733.0422, 35.26322
733.5244, 35.55193
734.0065, 35.83824
734.4886, 36.11689
734.9707, 36.43620
735.4528, 37.07088
735.9349, 37.41956
736.4171, 37.03227
736.8992, 36.39353
737.3813, 36.07014
737.8634, 36.12022
738.3455, 36.17370
738.8276, 35.96033
739.3098, 35.56869
739.7919, 35.14278
740.2740, 34.68746
740.7561, 34.31276
741.2382, 34.07854
741.7203, 33.80459
742.2025, 33.28725
742.6846, 32.56162
743.1667, 32.02362
743.6488, 31.85174
744.1309, 31.60485
744.6130, 31.28803
745.0952, 30.83545
745.5773, 30.05568
746.0594, 29.10681
746.5415, 28.40000
747.0236, 28.16504
747.5057, 28.07194
747.9879, 27.74747
748.4700, 27.23384
748.9521, 26.66431
749.4342, 26.04604
749.9163, 25.46881
750.3984, 24.96240
750.8806, 24.56003
751.3627, 24.36208
751.8448, 24.57177
752.3269, 24.45152
752.8090, 23.66045
753.2911, 22.94713
753.7733, 22.68893
754.2554, 22.64622
754.7375, 22.48723
755.2196, 22.13960
755.7017, 21.76200
756.1838, 21.44330
756.6660, 21.18391
757.1481, 21.02018
757.6302, 20.92967
758.1123, 20.77147
758.5944, 20.49085
759.0765, 20.21818
759.5587, 20.11611
760.0408, 20.17892
760.5229, 20.10766
761.0050, 19.72300
761.4871, 19.47653
761.9692, 19.47124
762.4514, 19.57842
762.9335, 19.80169
763.4156, 20.06368
763.8977, 20.14216
764.3798, 19.88156
764.8619, 19.55571
765.3441, 19.31002
765.8262, 19.18080
766.3083, 19.34815
766.7904, 19.76778
767.2725, 19.97997
767.7546, 19.68483
768.2368, 19.10647
768.7189, 18.77399
769.2010, 18.76144
769.6831, 18.71358
770.1652, 18.59844
770.6473, 18.48904
771.1295, 18.37927
771.6116, 18.31070
772.0937, 18.36628
772.5758, 18.56559
773.0579, 18.71580
773.5400, 18.75718
774.0222, 18.70797
774.5043, 18.50871
774.9864, 18.24964
775.4685, 18.10304
775.9506, 18.11234
776.4327, 18.19384
776.9149, 18.27682
777.3970, 18.35714
777.8791, 18.40542
778.3612, 18.40953
778.8433, 18.46319
779.3254, 18.65483
779.8076, 18.79354
780.2897, 18.65572
780.7718, 18.31631
781.2539, 18.09996
781.7360, 18.02482
782.2181, 18.06401
782.7003, 18.37953
783.1824, 18.66525
783.6645, 18.60635
784.1466, 18.31251
784.6287, 18.09510
785.1108, 18.08793
785.5930, 18.17478
786.0751, 18.27071
786.5572, 18.34513
787.0393, 18.22672
787.5214, 17.89981
788.0035, 17.63438
788.4857, 17.54266
788.9678, 17.57756
789.4499, 17.69687
789.9320, 17.92703
790.4141, 18.03126
790.8962, 17.88536
791.3784, 17.77978
791.8605, 17.55685
792.3426, 17.84419
792.8247, 18.00647
793.3068, 18.05041
793.7889, 17.62155
794.2711, 17.80321
794.7532, 17.74020
795.2353, 17.66716
795.7174, 17.93475
796.1995, 17.57466
796.6816, 17.83684
797.1638, 17.33418
797.6459, 17.32129
798.1280, 17.58433
798.6101, 17.72348
799.0922, 17.71175
799.5743, 17.68563
800.0565, 17.61795
800.5386, 17.60880
801.0207, 17.89632
801.5028, 18.05878
801.9849, 18.10289
802.4670, 17.67421
802.9492, 17.85605
803.4313, 17.79321
803.9134, 17.72035
804.3955, 17.98811
804.8776, 17.56626
805.3597, 17.62400
805.8419, 17.71805
806.3240, 17.74071
806.8061, 17.57486
807.2882, 17.36605
807.7703, 17.46633
808.2524, 17.64114
808.7346, 17.91632
809.2167, 18.06643
809.6988, 18.09821
810.1809, 17.65719
810.6630, 17.82669
811.1451, 17.75152
811.6273, 17.66631
812.1094, 17.92174
812.5915, 17.54949
813.0736, 17.79951
813.5557, 17.80113
814.0378, 17.91644
814.5200, 17.78557
815.0021, 17.73074
815.4842, 17.92216
815.9663, 17.97723
816.4484, 17.81802
816.9305, 17.94056
817.4127, 17.55971
817.8948, 17.48637
818.3769, 17.42878
818.8590, 17.50949
819.3411, 17.76155
819.8232, 18.12424
820.3054, 18.41327
820.7875, 18.63612
821.2696, 18.74824
821.7517, 18.69729
822.2338, 18.61790
822.7159, 18.59382
823.1981, 18.58684
823.6802, 18.52523
824.1623, 18.39484
824.6444, 18.27111
825.1265, 18.04987
825.6086, 17.96749
826.0908, 18.34083
826.5729, 18.84350
827.0550, 18.95789
827.5371, 18.64729
828.0192, 18.37039
828.5013, 18.49206
828.9835, 18.80422
829.4656, 18.96397
829.9477, 19.00102
830.4298, 19.06447
830.9119, 19.18182
831.3940, 19.28105
831.8762, 19.31846
832.3583, 19.29129
832.8404, 19.17454
833.3225, 18.88242
833.8046, 18.74532
834.2867, 18.78540
834.7689, 18.95795
835.2510, 19.40049
835.7331, 19.86818
836.2152, 20.06611
836.6973, 19.97183
837.1794, 19.81846
837.6616, 19.61256
838.1437, 19.44425
838.6258, 19.34314
839.1079, 19.32656
839.5900, 19.48200
840.0721, 19.76321
840.5543, 19.94473
841.0364, 19.87075
841.5185, 19.68643
842.0006, 19.65064
842.4827, 19.73305
842.9648, 19.71455
843.4470, 19.56557
843.9291, 19.43691
844.4112, 19.38720
844.8933, 19.44263
845.3754, 19.68388
845.8575, 20.17978
846.3397, 20.42323
846.8218, 20.13883
847.3039, 19.97491
847.7860, 19.77996
848.2681, 19.72286
848.7502, 20.02280
849.2324, 20.19768
849.7145, 20.25421
850.1966, 19.83794
850.6787, 20.03220
851.1608, 19.98178
851.6429, 19.92133
852.1251, 20.20152
852.6072, 19.85402
853.0893, 20.12880
853.5714, 20.15517
854.0535, 20.29524
854.5356, 20.18912
855.0178, 20.15905
855.4999, 20.37522
855.9820, 20.45505
856.4641, 20.32059
856.9462, 20.08580
857.4283, 20.10224
857.9105, 20.23108
858.3926, 20.45493
858.8747, 20.63802
859.3568, 20.81519
859.8389, 20.88891
860.3210, 20.78292
860.8032, 20.65086
861.2853, 20.54927
861.7674, 20.47773
862.2495, 20.39942
862.7316, 20.28939
863.2137, 20.35106
863.6959, 20.93019
864.1780, 21.45818
864.6601, 21.43951
865.1422, 21.08733
865.6243, 20.70403
866.1064, 20.38993
866.5886, 20.21379
867.0707, 20.23760
867.5528, 20.39596
868.0349, 20.64386
868.5170, 20.94089
868.9991, 20.97592
869.4813, 20.69793
869.9634, 20.52457
870.4455, 20.71025
870.9276, 21.05935
871.4097, 21.20653
871.8918, 21.11367
872.3740, 21.08925
872.8561, 21.19340
873.3382, 21.26894
873.8203, 21.20638
874.3024, 21.15484
874.7845, 21.27074
875.2667, 21.51087
875.7488, 21.66387
876.2309, 21.61853
876.7130, 21.60456
877.1951, 21.72645
877.6772, 21.89117
878.1594, 22.07176
878.6415, 22.21824
879.1236, 22.19042
879.6057, 21.95960
880.0878, 21.81974
880.5699, 22.16115
881.0521, 22.70682
881.5342, 22.95232
882.0163, 22.94868
882.4984, 22.88175
882.9805, 22.79948
883.4626, 22.75273
883.9448, 22.77843
884.4269, 22.87719
884.9090, 23.08138
885.3911, 23.43498
885.8732, 23.60765
886.3553, 23.43353
886.8375, 23.44264
887.3196, 24.04248
887.8017, 24.82425
888.2838, 25.17437
888.7659, 25.05976
889.2480, 24.92698
889.7302, 24.57796
890.2123, 24.48980
890.6944, 24.98694
891.1765, 25.61394
891.6586, 26.05276
892.1407, 26.29865
892.6229, 26.40626
893.1050, 26.35422
893.5871, 26.36819
894.0692, 26.67794
894.5513, 27.07333
895.0334, 27.23201
895.5156, 27.28431
895.9977, 27.62521
896.4798, 28.33145
896.9619, 29.05051
897.4440, 29.46682
897.9261, 29.68133
898.4083, 29.91178
898.8904, 30.16027
899.3725, 30.42614
899.8546, 30.69444
900.3367, 31.16789
900.8188, 32.00736
901.3010, 33.02870
901.7831, 33.88797
902.2652, 34.58437
902.7473, 35.12517
903.2294, 35.35423
903.7115, 35.70165
904.1937, 36.28817
904.6758, 37.03373
905.1579, 37.91293
905.6400, 38.89439
906.1221, 39.83627
906.6042, 40.57842
907.0864, 41.53918
907.5685, 42.88567
908.0506, 44.41199
908.5327, 46.11861
909.0148, 47.83855
909.4969, 49.24785
909.9791, 50.31459
910.4612, 51.60894
910.9433, 53.55550
911.4254, 55.85347
911.9075, 58.27416
912.3896, 60.79833
912.8718, 63.38158
913.3539, 66.02982
913.8360, 68.83498
914.3181, 71.83761
914.8002, 75.07397
915.2823, 78.56224
915.7644, 82.30220
916.2465, 86.37010
916.7286, 90.76336
917.2108, 95.56438
917.6929, 100.7966
918.1750, 106.5013
918.6571, 112.7962
919.1392, 119.6004
919.6213, 126.5160
920.1035, 133.1267
920.5856, 140.9289
921.0677, 150.4953
921.5498, 160.5798
922.0319, 170.5632
922.5140, 180.7894
922.9962, 191.4681
923.4783, 202.5383
923.9604, 215.3415
924.4425, 230.9949
924.9246, 247.2801
925.4067, 263.3049
925.8889, 279.8253
926.3710, 297.3674
926.8531, 316.0024
927.3352, 335.4793
927.8173, 355.8836
928.2994, 376.3355
928.7816, 396.3389
929.2637, 416.0005
929.7458, 436.3698
930.2279, 456.3539
930.7100, 474.0092
931.1921, 488.9301
931.6743, 501.1921
932.1564, 510.9859
932.6385, 517.8929
933.1206, 521.4244
933.6027, 521.4589
934.0848, 517.2472
934.5670, 508.7777
935.0491, 497.0356
935.5312, 482.4467
936.0133, 465.1856
936.4954, 445.2695
936.9775, 422.7945
937.4597, 398.5446
937.9418, 371.8110
938.4239, 345.9145
938.9060, 320.9543
939.3881, 297.2904
939.8702, 274.8451
940.3524, 253.8449
940.8345, 234.7541
941.3166, 217.6755
941.7987, 201.9622
942.2808, 187.7234
942.7629, 174.7115
943.2451, 162.9219
943.7272, 152.2857
944.2093, 142.8936
944.6914, 134.6618
945.1735, 127.3636
945.6556, 121.0488
946.1378, 115.4016
946.6199, 110.2991
947.1020, 105.8277
947.5841, 102.4927
948.0662, 99.63583
948.5483, 96.35471
949.0305, 92.49881
949.5126, 88.36294
949.9947, 83.93681
950.4768, 79.61416
950.9589, 75.81339
951.4410, 72.30140
951.9232, 68.63518
952.4053, 64.86345
952.8874, 61.25510
953.3695, 57.93128
953.8516, 54.97160
954.3337, 52.60714
954.8159, 50.57806
955.2980, 48.08012
955.7801, 45.22875
956.2622, 42.82918
956.7443, 41.02145
957.2264, 39.41077
957.7086, 37.76719
958.1907, 36.11528
958.6728, 34.44138
959.1549, 32.73165
959.6370, 31.55536
960.1191, 31.02334
960.6013, 30.57686
961.0834, 30.15804
961.5655, 29.59590
962.0476, 28.67765
962.5297, 27.53846
963.0118, 26.65167
963.4940, 26.09970
963.9761, 25.58571
964.4582, 25.18167
964.9403, 24.71996
965.4224, 24.02557
965.9045, 23.34753
966.3867, 22.92674
966.8688, 22.74260
967.3509, 22.64228
967.8330, 22.76070
968.3151, 22.69270
968.7972, 22.15009
969.2794, 21.60792
969.7615, 21.43292
970.2436, 21.40003
970.7257, 21.11043
971.2078, 20.54748
971.6899, 20.16364
972.1721, 20.34249
972.6542, 20.51690
973.1363, 20.27450
973.6184, 19.88046
974.1005, 19.62736
974.5826, 19.47946
975.0648, 19.27595
975.5469, 18.96470
976.0290, 18.61572
976.5111, 18.17804
976.9932, 17.83552
977.4753, 17.96444
977.9575, 18.34487
978.4396, 18.55570
978.9217, 17.97243
979.4038, 18.22729
979.8859, 18.35708
980.3680, 18.36854
980.8502, 17.90719
981.3323, 18.05636
981.8144, 17.96087
982.2965, 18.35293
982.7786, 18.37090
983.2607, 18.48832
983.7429, 18.54848
984.2250, 18.43308
984.7071, 18.24450
985.1892, 18.17725
985.6713, 18.23217
986.1534, 18.41598
986.6356, 18.75373
987.1177, 19.07994
987.5998, 19.35829
988.0819, 19.58807
988.5640, 19.75452
989.0461, 19.88260
989.5283, 20.05746
990.0104, 20.28973
990.4925, 20.52574
990.9746, 20.69205
991.4567, 21.00856
991.9388, 21.65196
992.4210, 22.36505
992.9031, 22.85325
993.3852, 23.16455
993.8673, 23.63782
994.3494, 24.43850
994.8315, 25.11793
995.3137, 25.69720
995.7958, 26.11891
996.2779, 26.14300
996.7600, 26.14196
997.2421, 26.56547
997.7242, 27.38748
998.2064, 28.18825
998.6885, 28.87617
999.1706, 29.55149
999.6527, 30.25254
1000.135, 30.93506
1000.617, 31.53396
1001.099, 32.11281
1001.581, 32.81033
1002.063, 33.61959
1002.545, 34.26046
1003.028, 34.43929
1003.510, 34.68312
1003.992, 35.47680
1004.474, 36.29673
1004.956, 36.52449
1005.438, 36.42330
1005.920, 36.64631
1006.402, 37.31530
1006.884, 37.88490
1007.367, 38.01802
1007.849, 37.88580
1008.331, 37.52489
1008.813, 37.07782
1009.295, 36.77010
1009.777, 36.56324
1010.259, 36.27428
1010.741, 35.84218
1011.224, 35.34885
1011.706, 34.82219
1012.188, 34.32504
1012.670, 34.04279
1013.152, 33.83336
1013.634, 33.32557
1014.116, 32.53428
1014.598, 31.73006
1015.080, 31.03506
1015.563, 30.38520
1016.045, 29.68632
1016.527, 28.99955
1017.009, 28.56525
1017.491, 28.29229
1017.973, 27.67857
1018.455, 26.68948
1018.937, 25.76913
1019.419, 25.14062
1019.902, 24.67396
1020.384, 24.20404
1020.866, 23.73296
1021.348, 23.28087
1021.830, 22.84327
1022.312, 22.28503
1022.794, 21.57248
1023.276, 20.91935
1023.759, 20.44353
1024.241, 20.09207
1024.723, 19.80716
1025.205, 19.57436
1025.687, 19.17465
1026.169, 18.58016
1026.651, 18.03703
1027.133, 17.57367
1027.615, 17.24084
1028.098, 17.08432
1028.580, 17.04631
1029.062, 17.04113
1029.544, 17.07193
1030.026, 17.01439
1030.508, 16.86228
1030.990, 16.62835
1031.472, 16.25581
1031.955, 15.94526
1032.437, 15.84830
1032.919, 15.85618
1033.401, 15.72006
1033.883, 15.38642
1034.365, 15.50607
1034.847, 16.50932
1035.329, 16.98995
1035.812, 16.43539
1036.294, 15.71586
1036.776, 15.32895
1037.258, 15.16974
1037.740, 15.03752
1038.222, 14.92110
1038.704, 14.90537
1039.186, 15.06056
1039.668, 15.20337
1040.151, 15.36561
1040.633, 15.44034
1041.115, 15.30307
1041.597, 15.05428
1042.079, 14.88140
1042.561, 14.78910
1043.043, 14.73747
1043.525, 14.77049
1044.007, 14.78087
1044.490, 14.81046
1044.972, 14.75206
1045.454, 14.48091
1045.936, 14.09983
1046.418, 13.73664
1046.900, 13.37193
1047.382, 13.32208
1047.864, 14.07654
1048.347, 14.50726
1048.829, 14.01317
1049.311, 13.47066
1049.793, 13.50279
1050.275, 13.85279
1050.757, 14.06987
1051.239, 14.10472
1051.721, 14.03975
1052.203, 13.79094
1052.686, 13.58268
1053.168, 13.42816
1053.650, 13.38542
1054.132, 13.57672
1054.614, 13.86794
1055.096, 14.05585
1055.578, 14.11278
1056.060, 14.09252
1056.542, 13.92620
1057.025, 13.79985
1057.507, 13.76658
1057.989, 13.79882
1058.471, 13.97660
1058.953, 14.15762
1059.435, 14.07405
1059.917, 13.71334
1060.399, 13.46438
1060.882, 13.46231
1061.364, 13.57690
1061.846, 13.92321
1062.328, 14.20713
1062.810, 14.12218
1063.292, 13.88169
1063.774, 13.82366
1064.256, 13.97979
1064.739, 14.14424
1065.221, 14.26401
1065.703, 14.34876
1066.185, 14.35233
1066.667, 14.37369
1067.149, 14.50152
1067.631, 14.68307
1068.113, 14.81937
1068.595, 14.91698
1069.078, 15.10385
1069.560, 15.48245
1070.042, 15.83209
1070.524, 16.04960
1071.006, 16.21013
1071.488, 16.28911
1071.970, 16.39409
1072.452, 16.67817
1072.934, 17.12933
1073.417, 17.62045
1073.899, 18.16381
1074.381, 18.57822
1074.863, 18.64991
1075.345, 18.70248
1075.827, 18.91003
1076.309, 19.25602
1076.791, 19.73693
1077.274, 20.32246
1077.756, 20.93675
1078.238, 21.56924
1078.720, 22.17115
1079.202, 22.60664
1079.684, 23.13051
1080.166, 24.03384
1080.648, 25.01301
1081.130, 25.69694
1081.613, 26.16480
1082.095, 26.71860
1082.577, 27.42582
1083.059, 28.35307
1083.541, 29.81251
1084.023, 31.17088
1084.505, 31.89227
1084.987, 32.48987
1085.469, 33.54711
1085.952, 34.88364
1086.434, 36.00631
1086.916, 36.80008
1087.398, 37.43111
1087.880, 37.92336
1088.362, 38.32668
1088.844, 38.69865
1089.326, 38.96101
1089.808, 39.07423
1090.291, 39.01542
1090.773, 38.76367
1091.255, 38.31229
1091.737, 37.64298
1092.219, 36.64036
1092.701, 35.56818
1093.183, 34.61505
1093.665, 33.53275
1094.148, 31.92311
1094.630, 30.19557
1095.112, 29.00364
1095.594, 28.34443
1096.076, 27.62940
1096.558, 26.74837
1097.040, 25.67381
1097.522, 24.06147
1098.005, 22.63302
1098.487, 21.95679
1098.969, 21.58873
1099.451, 21.02973
1099.933, 20.27540
1100.415, 19.52185
1100.897, 18.79395
1101.379, 18.13129
1101.861, 17.54659
1102.344, 17.03118
1102.826, 16.54047
1103.308, 16.14614
1103.790, 15.99786
1104.272, 15.98494
1104.754, 15.78542
1105.236, 15.29661
1105.718, 14.93740
1106.200, 14.96262
1106.683, 14.87820
1107.165, 14.38706
1107.647, 13.89283
1108.129, 13.71369
1108.611, 13.71802
1109.093, 13.65298
1109.575, 13.49727
1110.057, 13.34967
1110.540, 13.21837
1111.022, 13.09789
1111.504, 13.00634
1111.986, 12.90500
1112.468, 12.78900
1112.950, 12.64244
1113.432, 12.39128
1113.914, 12.05331
1114.396, 11.91398
1114.879, 12.20255
1115.361, 12.29196
1115.843, 11.99299
1116.325, 11.75599
1116.807, 11.73092
1117.289, 11.83730
1117.771, 12.06131
1118.253, 12.34624
1118.735, 12.47257
1119.218, 12.42281
1119.700, 12.26198
1120.182, 11.91395
1120.664, 11.60518
1121.146, 11.32765
1121.628, 11.22219
1122.110, 11.45903
1122.592, 11.86630
1123.075, 12.09280
1123.557, 12.13365
1124.039, 12.05000
1124.521, 11.77622
1125.003, 11.63753
1125.485, 11.74735
1125.967, 11.77836
1126.449, 11.53227
1126.932, 11.18574
1127.414, 10.94817
1127.896, 10.83656
1128.378, 11.03054
1128.860, 11.58740
1129.342, 11.82523
1129.824, 11.63149
1130.306, 11.68894
1130.788, 12.30061
1131.271, 12.82285
1131.753, 12.61392
1132.235, 11.98784
1132.717, 11.75766
1133.199, 11.89445
1133.681, 11.99877
1134.163, 12.06242
1134.645, 12.09862
1135.127, 12.11163
1135.610, 12.16613
1136.092, 12.31093
1136.574, 12.44171
1137.056, 12.37041
1137.538, 12.17415
1138.020, 12.08965
1138.502, 12.11202
1138.984, 12.29403
1139.467, 12.58934
1139.949, 12.67446
1140.431, 12.42854
1140.913, 12.13404
1141.395, 12.08799
1141.877, 12.09080
1142.359, 11.66088
1142.841, 11.11392
1143.323, 11.20652
1143.806, 11.76612
1144.288, 12.22317
1144.770, 12.41002
1145.252, 12.31481
1145.734, 11.87005
1146.216, 11.44308
1146.698, 11.39708
1147.180, 11.55449
1147.662, 11.79469
1148.145, 12.04596
1148.627, 12.21161
1149.109, 12.29618
1149.591, 12.38442
1150.073, 12.50805
1150.555, 12.48895
1151.037, 12.01036
1151.519, 11.61414
1152.002, 11.78605
1152.484, 12.07603
1152.966, 12.06625
1153.448, 11.85738
1153.930, 11.64231
1154.412, 11.46863
1154.894, 11.39921
1155.376, 11.49623
1155.859, 11.61638
1156.341, 11.75705
1156.823, 11.86181
1157.305, 11.95644
1157.787, 11.95770
1158.269, 11.68670
1158.751, 11.25685
1159.233, 11.06884
1159.715, 11.25360
1160.198, 11.28768
1160.680, 10.90326
1161.162, 10.71490
1161.644, 10.98775
1162.126, 11.28176
1162.608, 11.38745
1163.090, 11.33339
1163.572, 11.09471
1164.054, 10.69252
1164.537, 10.65074
1165.019, 11.15880
1165.501, 11.41061
1165.983, 11.27240
1166.465, 11.15431
1166.947, 11.20640
1167.429, 11.30600
1167.911, 11.35043
1168.394, 11.35364
1168.876, 11.37122
1169.358, 11.40366
1169.840, 11.20613
1170.322, 10.77278
1170.804, 10.63062
1171.286, 10.88141
1171.768, 11.13549
1172.250, 11.18963
1172.733, 11.15650
1173.215, 11.17859
1173.697, 11.20661
1174.179, 11.01631
1174.661, 10.73867
1175.143, 10.95255
1175.625, 11.53149
1176.107, 11.72617
1176.589, 11.37920
1177.072, 11.03875
1177.554, 11.06935
1178.036, 11.18216
1178.518, 11.02400
1179.000, 10.78450
1179.482, 10.76620
1179.964, 10.81522
1180.446, 10.55910
1180.929, 10.12543
1181.411, 10.04346
1181.893, 10.46290
1182.375, 10.84822
1182.857, 10.91044
1183.339, 10.83423
1183.821, 10.61740
1184.303, 10.41286
1184.786, 10.30216
1185.268, 10.30657
1185.750, 10.52470
1186.232, 10.89104
1186.714, 11.07339
1187.196, 10.95331
1187.678, 10.81704
1188.160, 10.65376
1188.642, 10.56118
1189.125, 10.62262
1189.607, 10.70806
1190.089, 10.68570
1190.571, 10.66070
1191.053, 10.87490
1191.535, 11.32302
1192.017, 11.37589
1192.499, 10.81105
1192.981, 10.55299
1193.464, 10.79078
1193.946, 10.92103
1194.428, 10.71119
1194.910, 10.38175
1195.392, 10.10284
1195.874, 9.895322
1196.356, 9.813910
1196.838, 9.854116
1197.321, 9.993326
1197.803, 10.21924
1198.285, 10.36268
1198.767, 10.39750
1199.249, 10.35219
1199.731, 10.24202
1200.213, 10.16160
1200.695, 10.15531
1201.177, 10.00081
1201.660, 10.29203
1202.142, 10.45817
1202.624, 10.50597
1203.106, 10.08097
1203.588, 10.26649
1204.070, 10.20734
1204.552, 10.13816
1205.034, 10.40961
1205.516, 10.05338
1205.999, 10.31944
1206.481, 10.33708
1206.963, 10.68644
1207.445, 10.88096
1207.927, 10.73256
1208.409, 10.40514
1208.891, 10.16520
1209.373, 10.05476
1209.856, 10.05741
1210.338, 10.25769
1210.820, 10.38941
1211.302, 10.42139
1211.784, 10.36428
1212.266, 10.11291
1212.748, 9.889416
1213.230, 9.888238
1213.713, 9.990755
1214.195, 9.943617
1214.677, 9.743947
1215.159, 9.744501
1215.641, 10.00283
1216.123, 10.22046
1216.605, 10.37814
1217.087, 10.45914
1217.569, 10.45702
1218.052, 10.35892
1218.534, 10.12901
1219.016, 9.893946
1219.498, 9.975729
1219.980, 10.27281
1220.462, 10.35633
1220.944, 10.01761
1221.426, 10.23678
1221.908, 10.33090
1222.391, 10.30653
1222.873, 9.809498
1223.355, 9.923001
1223.837, 9.791821
1224.319, 9.650626
1224.801, 9.601485
1225.283, 9.894321
1225.765, 10.06210
1226.248, 10.11154
1226.730, 9.688179
1227.212, 9.875332
1227.694, 9.817816
1228.176, 9.750270
1228.658, 10.02335
1229.140, 9.668754
1229.622, 9.936430
1230.104, 9.955709
1230.587, 10.08869
1231.069, 9.975473
1231.551, 9.938297
1232.033, 10.14738
1232.515, 10.22010
1232.997, 10.07855
1233.479, 9.493781
1233.961, 9.285123
1234.443, 9.425828
1234.926, 9.496161
1235.408, 9.390198
1235.890, 9.402682
1236.372, 9.701901
1236.854, 10.03462
1237.336, 10.11885
1237.818, 10.02118
1238.300, 9.871222
1238.783, 9.692878
1239.265, 9.540582
1239.747, 9.444721
1240.229, 9.582967
1240.711, 9.905384
1241.193, 10.00494
1241.675, 9.707371
1242.157, 9.418143
1242.640, 9.480130
1243.122, 9.666395
1243.604, 9.928746
1244.086, 10.07824
1244.568, 9.776055
1245.050, 9.332286
1245.532, 9.261408
1246.014, 9.499284
1246.496, 9.542398
1246.979, 9.202266
1247.461, 9.097426
1247.943, 9.617372
1248.425, 9.945567
1248.907, 9.855349
1249.389, 9.643848
1249.871, 9.375552
1250.353, 9.144232
1250.835, 9.046809
1251.318, 9.074139
1251.800, 9.230952
1252.282, 9.538520
1252.764, 9.610151
1253.246, 9.440637
1253.728, 9.341845
1254.210, 9.365222
1254.692, 9.344718
1255.175, 9.206622
1255.657, 9.140637
1256.139, 9.367335
1256.621, 9.661447
1257.103, 9.671648
1257.585, 9.530727
1258.067, 9.397661
1258.549, 9.307757
1259.031, 9.348769
1259.514, 9.466683
1259.996, 9.458368
1260.478, 9.265460
1260.960, 9.121392
1261.442, 9.164267
1261.924, 9.218677
1262.406, 9.163938
1262.888, 9.179362
1263.370, 9.555140
1263.853, 9.874942
1264.335, 9.601427
1264.817, 9.008031
1265.299, 8.752535
1265.781, 8.846026
1266.263, 9.125520
1266.745, 9.685698
1267.227, 9.896960
1267.710, 9.644752
1268.192, 9.501646
1268.674, 9.677626
1269.156, 9.843963
1269.638, 9.737218
1270.120, 9.501222
1270.602, 9.354483
1271.084, 9.256718
1271.567, 9.051401
1272.049, 8.855397
1272.531, 9.038712
1273.013, 9.431235
1273.495, 9.408814
1273.977, 8.939488
1274.459, 8.709799
1274.941, 9.026895
1275.423, 9.218920
1275.906, 9.292672
1276.388, 8.893559
1276.870, 9.104970
1277.352, 9.071713
1277.834, 9.028417
1278.316, 9.325754
1278.798, 8.995407
1279.280, 9.287343
1279.762, 9.330870
1280.245, 9.488154
1280.727, 8.723591
1281.209, 8.822697
1281.691, 8.939167
1282.173, 8.963787
1282.655, 8.932398
1283.137, 8.860533
1283.619, 8.783217
1284.102, 8.723042
1284.584, 8.717086
1285.066, 8.821355
1285.548, 9.037713
##END=



