##NAMES=Catapleiite
##RRUFFID=R060198
##IDEAL CHEMISTRY=Na_2_Zr^4+^Si_3_O_9_&#183;2H_2_O
##LOCALITY=Mont Saint-Hilaire, Rouville County, Quebec, Canada
##OWNER=RRUFF
##SOURCE=Royal Ontario Museum
##DESCRIPTION=Tan colored pseudohexagonal tabular crystals
##STATUS=The identification of this mineral has been confirmed by X-ray diffraction and chemical analysis
##URL=rruff.info/R060198
##MEASURED CHEMISTRY=(Na_1.92_Ca_0.04_[box]_0.04_)_Σ=2_Zr_1.00_Si_3.00_O_9_·2H_2_O
91.82715, 1180.140
92.30927, 1166.154
92.79138, 1169.266
93.27350, 1179.383
93.75562, 1186.842
94.23773, 1190.928
94.71985, 1193.719
95.20197, 1194.609
95.68408, 1194.096
96.16620, 1192.120
96.64832, 1189.337
97.13043, 1185.994
97.61255, 1182.625
98.09467, 1179.729
98.57678, 1177.173
99.05890, 1172.822
99.54102, 1171.739
100.0231, 1171.183
100.5052, 1167.410
100.9874, 1157.982
101.4695, 1144.416
101.9516, 1135.382
102.4337, 1134.596
102.9158, 1134.630
103.3979, 1134.857
103.8801, 1134.942
104.3622, 1134.747
104.8443, 1134.264
105.3264, 1133.534
105.8085, 1130.834
106.2906, 1124.373
106.7728, 1117.477
107.2549, 1111.510
107.7370, 1106.743
108.2191, 1103.404
108.7012, 1102.097
109.1833, 1102.916
109.6655, 1104.074
110.1476, 1105.926
110.6297, 1107.824
111.1118, 1108.625
111.5939, 1107.715
112.0760, 1106.419
112.5582, 1106.394
113.0403, 1107.514
113.5224, 1108.332
114.0045, 1107.736
114.4866, 1105.791
114.9688, 1104.042
115.4509, 1103.231
115.9330, 1102.363
116.4151, 1100.621
116.8972, 1097.927
117.3793, 1095.087
117.8615, 1093.151
118.3436, 1092.369
118.8257, 1091.968
119.3078, 1092.208
119.7899, 1092.514
120.2720, 1092.271
120.7542, 1091.245
121.2363, 1089.895
121.7184, 1089.536
122.2005, 1091.974
122.6826, 1093.470
123.1647, 1093.271
123.6468, 1092.053
124.1290, 1090.872
124.6111, 1090.379
125.0932, 1090.382
125.5753, 1089.244
126.0574, 1085.811
126.5395, 1082.662
127.0217, 1080.963
127.5038, 1080.558
127.9859, 1080.567
128.4680, 1080.612
128.9501, 1080.540
129.4323, 1079.793
129.9144, 1078.152
130.3965, 1075.935
130.8786, 1073.089
131.3607, 1069.343
131.8428, 1066.259
132.3250, 1065.291
132.8071, 1065.783
133.2892, 1066.860
133.7713, 1068.211
134.2534, 1069.864
134.7355, 1072.104
135.2177, 1075.860
135.6998, 1078.851
136.1819, 1079.384
136.6640, 1078.245
137.1461, 1077.403
137.6282, 1078.821
138.1104, 1082.842
138.5925, 1085.262
139.0746, 1085.104
139.5567, 1084.080
140.0388, 1082.143
140.5209, 1079.686
141.0031, 1077.631
141.4852, 1077.179
141.9673, 1079.180
142.4494, 1080.661
142.9315, 1081.576
143.4136, 1082.128
143.8958, 1082.236
144.3779, 1081.953
144.8600, 1081.715
145.3421, 1082.258
145.8242, 1084.162
146.3063, 1085.828
146.7885, 1087.238
147.2706, 1088.376
147.7527, 1089.267
148.2348, 1089.942
148.7169, 1090.285
149.1990, 1089.865
149.6812, 1088.451
150.1633, 1087.259
150.6454, 1087.126
151.1275, 1087.649
151.6096, 1087.439
152.0917, 1085.504
152.5739, 1083.039
153.0560, 1081.781
153.5381, 1081.854
154.0202, 1082.731
154.5023, 1084.766
154.9844, 1088.080
155.4665, 1089.710
155.9487, 1087.052
156.4308, 1082.869
156.9129, 1079.137
157.3950, 1076.306
157.8771, 1074.054
158.3592, 1071.717
158.8414, 1068.770
159.3235, 1067.208
159.8056, 1069.805
160.2877, 1072.771
160.7698, 1072.297
161.2519, 1066.574
161.7341, 1057.606
162.2162, 1051.403
162.6983, 1050.803
163.1804, 1049.307
163.6625, 1045.225
164.1446, 1039.971
164.6268, 1035.411
165.1089, 1032.622
165.5910, 1031.248
166.0731, 1028.901
166.5552, 1023.803
167.0373, 1019.661
167.5195, 1018.785
168.0016, 1019.412
168.4837, 1017.902
168.9658, 1011.615
169.4479, 1000.920
169.9300, 992.4849
170.4122, 985.2740
170.8943, 980.6823
171.3764, 980.5525
171.8585, 984.1110
172.3406, 988.2203
172.8227, 991.1603
173.3049, 992.5368
173.7870, 991.7843
174.2691, 986.3218
174.7512, 980.5234
175.2333, 978.6458
175.7154, 980.9496
176.1976, 983.0234
176.6797, 980.6985
177.1618, 975.6747
177.6439, 972.1068
178.1260, 971.7775
178.6081, 973.0373
179.0903, 973.5001
179.5724, 972.9890
180.0545, 972.1705
180.5366, 971.4368
181.0187, 970.7001
181.5008, 969.7792
181.9830, 968.2818
182.4651, 966.5789
182.9472, 965.9583
183.4293, 967.2858
183.9114, 968.3864
184.3935, 968.0930
184.8757, 966.9841
185.3578, 966.0242
185.8399, 965.7842
186.3220, 966.2415
186.8041, 967.1430
187.2862, 969.0535
187.7684, 970.8464
188.2505, 972.0082
188.7326, 972.7969
189.2147, 973.8782
189.6968, 976.0042
190.1789, 979.2944
190.6611, 980.3744
191.1432, 976.4503
191.6253, 973.0156
192.1074, 971.9955
192.5895, 973.0317
193.0716, 974.7598
193.5538, 976.0402
194.0359, 976.8384
194.5180, 977.4414
195.0001, 977.2592
195.4822, 977.4374
195.9643, 979.2454
196.4465, 982.2169
196.9286, 984.3275
197.4107, 983.4371
197.8928, 978.9652
198.3749, 976.3126
198.8570, 976.3152
199.3392, 977.2934
199.8213, 978.7695
200.3034, 980.5166
200.7855, 981.4221
201.2676, 980.2135
201.7497, 976.7267
202.2319, 973.7338
202.7140, 970.6791
203.1961, 968.5373
203.6782, 968.9532
204.1603, 972.2338
204.6424, 975.2878
205.1246, 974.2887
205.6067, 970.3231
206.0888, 968.6047
206.5709, 972.4482
207.0530, 978.2252
207.5351, 980.5358
208.0173, 978.2366
208.4994, 975.4978
208.9815, 976.6628
209.4636, 979.9344
209.9457, 981.4606
210.4278, 978.2679
210.9100, 972.5554
211.3921, 969.5930
211.8742, 970.8970
212.3563, 971.8654
212.8384, 969.3121
213.3205, 964.5806
213.8027, 960.0397
214.2848, 957.1942
214.7669, 955.4504
215.2490, 952.5453
215.7311, 947.2681
216.2132, 942.7215
216.6954, 940.9128
217.1775, 940.5586
217.6596, 939.4188
218.1417, 935.9836
218.6238, 930.6486
219.1059, 925.7174
219.5881, 920.9714
220.0702, 917.0536
220.5523, 914.0371
221.0344, 911.9263
221.5165, 910.9963
221.9986, 911.8596
222.4808, 914.0538
222.9629, 913.1234
223.4450, 904.3411
223.9271, 897.2947
224.4092, 894.5423
224.8913, 894.8312
225.3735, 895.9562
225.8556, 896.5296
226.3377, 896.5817
226.8198, 896.4844
227.3019, 895.2435
227.7840, 894.9037
228.2662, 897.4879
228.7483, 901.1783
229.2304, 902.5332
229.7125, 899.0869
230.1946, 891.4681
230.6767, 886.7062
231.1589, 887.5109
231.6410, 887.9465
232.1231, 885.7614
232.6052, 882.1670
233.0873, 879.8475
233.5694, 880.6319
234.0516, 883.8787
234.5337, 884.8354
235.0158, 881.5344
235.4979, 878.6038
235.9800, 877.9307
236.4621, 878.6697
236.9443, 878.7312
237.4264, 876.7597
237.9085, 873.4648
238.3906, 872.1515
238.8727, 874.8731
239.3548, 876.8819
239.8370, 876.0118
240.3191, 873.1683
240.8012, 870.4741
241.2833, 868.8569
241.7654, 868.2185
242.2475, 868.2264
242.7297, 869.2438
243.2118, 870.1951
243.6939, 870.6940
244.1760, 870.7709
244.6581, 870.3779
245.1402, 869.1846
245.6224, 867.8982
246.1045, 868.0505
246.5866, 870.2214
247.0687, 872.0702
247.5508, 872.4308
248.0329, 871.5061
248.5151, 869.8351
248.9972, 867.0100
249.4793, 864.2330
249.9614, 863.2034
250.4435, 864.0505
250.9256, 865.4563
251.4078, 867.2279
251.8899, 869.1094
252.3720, 869.9717
252.8541, 869.2658
253.3362, 867.6825
253.8183, 865.6046
254.3005, 863.0215
254.7826, 861.4775
255.2647, 863.0624
255.7468, 866.9246
256.2289, 868.5643
256.7110, 866.2467
257.1931, 862.6843
257.6753, 859.6869
258.1574, 857.3401
258.6395, 856.1957
259.1216, 857.2501
259.6037, 860.0591
260.0858, 862.2588
260.5680, 864.0168
261.0501, 864.4818
261.5322, 862.5297
262.0143, 858.9138
262.4964, 855.9020
262.9785, 855.3016
263.4607, 856.6886
263.9428, 857.4794
264.4249, 857.0330
264.9070, 856.9190
265.3891, 858.1531
265.8712, 860.2178
266.3534, 862.1351
266.8355, 863.6476
267.3176, 864.5291
267.7997, 863.5279
268.2818, 858.8428
268.7639, 855.0198
269.2461, 854.0612
269.7282, 854.8043
270.2103, 855.6087
270.6924, 855.6849
271.1745, 855.1592
271.6566, 854.4188
272.1388, 853.4122
272.6209, 852.2599
273.1030, 850.5725
273.5851, 848.9259
274.0672, 847.8929
274.5493, 847.6816
275.0315, 848.3936
275.5136, 850.6096
275.9957, 856.1186
276.4778, 859.6716
276.9599, 859.2198
277.4420, 857.3389
277.9242, 856.3000
278.4063, 856.9111
278.8884, 858.5434
279.3705, 860.1467
279.8526, 861.9747
280.3347, 863.1744
280.8169, 862.8163
281.2990, 862.4532
281.7811, 863.5502
282.2632, 866.3386
282.7453, 869.5311
283.2274, 871.2086
283.7096, 870.8357
284.1917, 870.2103
284.6738, 868.7348
285.1559, 867.5352
285.6380, 867.5802
286.1201, 868.7933
286.6023, 870.0804
287.0844, 869.8133
287.5665, 866.8731
288.0486, 866.9655
288.5307, 872.7557
289.0128, 878.9082
289.4950, 883.8793
289.9771, 887.1530
290.4592, 888.1318
290.9413, 885.7027
291.4234, 879.3395
291.9055, 876.6312
292.3877, 881.6698
292.8698, 886.2162
293.3519, 886.8776
293.8340, 884.9238
294.3161, 883.6974
294.7982, 885.7957
295.2804, 890.7883
295.7625, 892.9472
296.2446, 888.6870
296.7267, 885.3270
297.2088, 885.2288
297.6909, 886.7039
298.1731, 886.9866
298.6552, 884.4962
299.1373, 880.1490
299.6194, 877.4610
300.1015, 878.8176
300.5836, 879.0216
301.0658, 877.2280
301.5479, 874.2717
302.0300, 870.4577
302.5121, 865.9999
302.9942, 862.0704
303.4763, 861.2769
303.9585, 867.3788
304.4406, 871.0080
304.9227, 870.8878
305.4048, 869.2026
305.8869, 867.5812
306.3690, 866.4430
306.8512, 865.2571
307.3333, 863.1277
307.8154, 859.0293
308.2975, 856.8357
308.7796, 857.7943
309.2617, 859.2964
309.7439, 859.8187
310.2260, 859.2750
310.7081, 858.4520
311.1902, 858.1854
311.6723, 858.6583
312.1544, 858.2844
312.6366, 856.1841
313.1187, 854.2291
313.6008, 852.8759
314.0829, 852.2584
314.5650, 852.6690
315.0471, 854.5091
315.5293, 857.5533
316.0114, 858.7855
316.4935, 856.2132
316.9756, 854.0518
317.4577, 853.1888
317.9398, 853.2791
318.4220, 854.0387
318.9041, 855.3832
319.3862, 856.7086
319.8683, 856.0467
320.3504, 850.6929
320.8326, 846.6866
321.3147, 844.7502
321.7968, 844.0637
322.2789, 844.0518
322.7610, 844.4636
323.2431, 844.9807
323.7253, 845.0004
324.2074, 843.8969
324.6895, 843.5635
325.1716, 845.0686
325.6537, 846.4525
326.1358, 846.0323
326.6180, 843.8372
327.1001, 841.4201
327.5822, 840.5105
328.0643, 841.4764
328.5464, 842.0864
329.0285, 842.7964
329.5107, 842.7869
329.9928, 841.1097
330.4749, 838.3500
330.9570, 836.0359
331.4391, 835.4193
331.9212, 836.3249
332.4034, 836.1224
332.8855, 833.0680
333.3676, 830.7636
333.8497, 830.3551
334.3318, 831.0062
334.8139, 831.4926
335.2961, 831.1962
335.7782, 830.4474
336.2603, 830.2079
336.7424, 830.6779
337.2245, 831.4274
337.7066, 833.1935
338.1888, 834.7764
338.6709, 835.0333
339.1530, 833.6928
339.6351, 831.4224
340.1172, 829.1309
340.5993, 826.6962
341.0815, 824.5840
341.5636, 822.3358
342.0457, 820.7377
342.5278, 820.3375
343.0099, 821.0624
343.4920, 822.4763
343.9742, 824.3649
344.4563, 826.8047
344.9384, 828.2962
345.4205, 827.8235
345.9026, 827.3314
346.3847, 827.2875
346.8669, 827.5905
347.3490, 828.0118
347.8311, 828.4380
348.3132, 828.8312
348.7953, 829.0717
349.2774, 829.4377
349.7596, 829.1458
350.2417, 827.5417
350.7238, 825.5468
351.2059, 823.9373
351.6880, 822.9849
352.1701, 822.7488
352.6523, 823.3728
353.1344, 824.9788
353.6165, 827.1018
354.0986, 830.9205
354.5807, 834.2910
355.0628, 835.3297
355.5450, 834.2670
356.0271, 833.3597
356.5092, 835.3456
356.9913, 840.3808
357.4734, 843.4294
357.9555, 843.1310
358.4377, 842.1929
358.9198, 841.5598
359.4019, 841.1672
359.8840, 840.8191
360.3661, 840.5359
360.8482, 840.1244
361.3304, 838.6608
361.8125, 835.0567
362.2946, 832.8919
362.7767, 834.6902
363.2588, 837.8550
363.7409, 839.8907
364.2231, 840.0859
364.7052, 838.8742
365.1873, 835.8790
365.6694, 830.6163
366.1515, 828.0365
366.6336, 831.4705
367.1158, 836.2839
367.5979, 839.4475
368.0800, 840.7894
368.5621, 841.0141
369.0442, 839.8496
369.5263, 837.7693
370.0085, 837.3984
370.4906, 840.1386
370.9727, 842.3768
371.4548, 840.9429
371.9369, 837.2159
372.4190, 834.2424
372.9012, 833.5839
373.3833, 834.0463
373.8654, 834.0131
374.3475, 833.4758
374.8296, 832.4926
375.3117, 830.5994
375.7939, 828.5167
376.2760, 827.2867
376.7581, 827.1168
377.2402, 827.5118
377.7223, 828.4991
378.2044, 829.8613
378.6866, 830.5779
379.1687, 830.1715
379.6508, 829.3470
380.1329, 829.3939
380.6150, 830.3250
381.0971, 829.8895
381.5793, 825.1893
382.0614, 819.5840
382.5435, 818.6054
383.0256, 823.0703
383.5077, 827.7889
383.9898, 828.2221
384.4720, 825.0800
384.9541, 824.2044
385.4362, 827.7284
385.9183, 831.7781
386.4004, 834.6799
386.8825, 836.2766
387.3647, 835.7753
387.8468, 832.2134
388.3289, 827.2883
388.8110, 825.7255
389.2931, 829.3704
389.7752, 831.6902
390.2574, 830.1378
390.7395, 827.0923
391.2216, 825.2017
391.7037, 825.0809
392.1858, 826.2621
392.6679, 828.5081
393.1501, 832.3243
393.6322, 834.2582
394.1143, 832.6879
394.5964, 830.8831
395.0785, 830.6540
395.5606, 831.7684
396.0428, 833.2567
396.5249, 834.6069
397.0070, 835.6649
397.4891, 835.5969
397.9712, 832.6990
398.4533, 830.7226
398.9355, 830.5256
399.4176, 831.2349
399.8997, 831.7665
400.3818, 831.8258
400.8639, 832.1155
401.3460, 833.8088
401.8282, 837.6010
402.3103, 840.8718
402.7924, 843.9362
403.2745, 846.3004
403.7566, 847.3427
404.2387, 847.4029
404.7209, 847.3638
405.2030, 847.7845
405.6851, 848.7147
406.1672, 850.5782
406.6493, 853.9003
407.1314, 857.4558
407.6136, 860.5977
408.0957, 863.9470
408.5778, 868.5983
409.0599, 874.9549
409.5420, 881.3798
410.0241, 884.8478
410.5063, 884.3918
410.9884, 886.1581
411.4705, 893.2769
411.9526, 901.0353
412.4347, 906.9324
412.9168, 911.0063
413.3990, 914.4306
413.8811, 917.2760
414.3632, 920.0312
414.8453, 924.7757
415.3274, 932.2291
415.8095, 939.9047
416.2917, 946.5305
416.7738, 952.5483
417.2559, 958.4387
417.7380, 964.2164
418.2201, 970.1257
418.7022, 976.7464
419.1844, 983.9440
419.6665, 990.2938
420.1486, 994.8443
420.6307, 999.0413
421.1128, 1004.629
421.5949, 1011.598
422.0771, 1019.013
422.5592, 1026.620
423.0413, 1034.432
423.5234, 1042.952
424.0055, 1052.209
424.4876, 1060.516
424.9698, 1066.384
425.4519, 1070.043
425.9340, 1073.828
426.4161, 1078.190
426.8982, 1082.194
427.3803, 1085.816
427.8625, 1088.735
428.3446, 1090.239
428.8267, 1090.055
429.3088, 1088.505
429.7909, 1086.210
430.2730, 1083.665
430.7552, 1078.819
431.2373, 1070.886
431.7194, 1061.260
432.2015, 1050.518
432.6836, 1038.986
433.1657, 1026.978
433.6479, 1014.683
434.1300, 1002.212
434.6121, 990.7878
435.0942, 981.0367
435.5763, 971.6155
436.0584, 962.1249
436.5406, 952.9505
437.0227, 944.5831
437.5048, 937.1956
437.9869, 930.3653
438.4690, 923.3505
438.9511, 915.8322
439.4333, 909.1942
439.9154, 904.5000
440.3975, 899.7092
440.8796, 893.0686
441.3617, 885.4889
441.8438, 879.6147
442.3260, 877.7662
442.8081, 878.5128
443.2902, 877.1371
443.7723, 873.0901
444.2544, 868.2521
444.7365, 861.7522
445.2187, 855.5676
445.7008, 851.6371
446.1829, 850.3697
446.6650, 850.7579
447.1471, 853.3624
447.6292, 857.3838
448.1114, 857.7893
448.5935, 852.1566
449.0756, 846.1209
449.5577, 845.5719
450.0398, 848.6592
450.5219, 849.8724
451.0041, 846.0664
451.4862, 840.9822
451.9683, 838.5638
452.4504, 838.3857
452.9325, 837.3486
453.4146, 833.6940
453.8968, 828.8428
454.3789, 826.0086
454.8610, 825.6129
455.3431, 825.3493
455.8252, 824.8910
456.3073, 824.2091
456.7895, 822.9508
457.2716, 821.2025
457.7537, 820.0455
458.2358, 820.6557
458.7179, 823.0374
459.2000, 823.6479
459.6822, 820.7107
460.1643, 818.3574
460.6464, 818.2711
461.1285, 819.2861
461.6106, 819.7015
462.0927, 818.8863
462.5748, 817.4957
463.0569, 816.6740
463.5391, 816.8437
464.0212, 816.4305
464.5033, 814.8991
464.9854, 813.3199
465.4675, 811.8857
465.9496, 810.8106
466.4318, 810.5229
466.9139, 811.4713
467.3960, 813.1853
467.8781, 814.2823
468.3602, 814.8528
468.8423, 814.5638
469.3245, 812.4246
469.8066, 809.9439
470.2887, 808.0660
470.7708, 806.9607
471.2529, 806.9072
471.7350, 809.1763
472.2172, 812.8329
472.6993, 813.8688
473.1814, 811.0840
473.6635, 808.1854
474.1456, 808.0331
474.6277, 809.6985
475.1099, 811.2888
475.5920, 812.8967
476.0741, 813.8418
476.5562, 813.7773
477.0383, 812.6783
477.5204, 809.9777
478.0026, 805.1017
478.4847, 800.1487
478.9668, 798.3697
479.4489, 800.5856
479.9310, 802.0251
480.4131, 801.8644
480.8953, 801.3490
481.3774, 801.8049
481.8595, 802.7288
482.3416, 802.0090
482.8237, 798.1058
483.3058, 792.5801
483.7880, 790.8388
484.2701, 796.7322
484.7522, 801.0351
485.2343, 803.1624
485.7164, 803.8837
486.1985, 803.1939
486.6807, 801.4944
487.1628, 800.0631
487.6449, 800.2101
488.1270, 801.7748
488.6091, 802.4098
489.0912, 801.4183
489.5734, 800.5872
490.0555, 801.2200
490.5376, 801.9352
491.0197, 800.5569
491.5018, 796.3309
491.9839, 792.6104
492.4661, 793.7686
492.9482, 799.1425
493.4303, 802.5626
493.9124, 802.3339
494.3945, 801.6767
494.8766, 804.2017
495.3588, 808.4564
495.8409, 810.3036
496.3230, 806.7474
496.8051, 802.3000
497.2872, 800.6670
497.7693, 801.3212
498.2515, 802.5150
498.7336, 803.7829
499.2157, 804.7838
499.6978, 804.8293
500.1799, 803.5052
500.6620, 802.8489
501.1442, 803.1758
501.6263, 804.0580
502.1084, 805.6603
502.5905, 807.6141
503.0726, 808.9944
503.5547, 809.2250
504.0369, 808.5105
504.5190, 807.4783
505.0011, 805.1131
505.4832, 804.1116
505.9653, 804.9676
506.4474, 806.8181
506.9296, 809.9545
507.4117, 813.7481
507.8938, 816.0305
508.3759, 814.1745
508.8580, 809.2892
509.3401, 808.3618
509.8223, 813.3838
510.3044, 817.9806
510.7865, 819.6924
511.2686, 819.9362
511.7507, 819.6370
512.2328, 818.8745
512.7150, 818.7412
513.1971, 820.4869
513.6792, 823.4976
514.1613, 826.0951
514.6434, 828.1224
515.1255, 829.5857
515.6077, 830.5104
516.0898, 830.8361
516.5719, 830.4964
517.0540, 828.9273
517.5361, 827.3764
518.0182, 826.2734
518.5004, 825.5967
518.9825, 825.3584
519.4646, 825.5557
519.9467, 826.0509
520.4288, 826.7162
520.9109, 827.6002
521.3931, 828.3201
521.8752, 828.6765
522.3573, 829.1168
522.8394, 829.8935
523.3215, 830.8190
523.8036, 831.9987
524.2858, 833.4251
524.7679, 833.9664
525.2500, 831.1953
525.7321, 824.1246
526.2142, 818.7216
526.6964, 815.6947
527.1785, 814.1260
527.6606, 814.3132
528.1427, 815.5344
528.6248, 816.2884
529.1069, 815.8538
529.5891, 814.8273
530.0712, 813.4462
530.5533, 811.8176
531.0354, 812.1771
531.5175, 816.2821
531.9996, 820.8083
532.4818, 821.6092
532.9639, 819.0093
533.4460, 815.5352
533.9281, 809.6436
534.4102, 804.7720
534.8923, 804.5124
535.3745, 807.7170
535.8566, 810.3396
536.3387, 810.4592
536.8208, 809.1349
537.3029, 808.5457
537.7850, 809.3992
538.2672, 809.5049
538.7493, 807.3102
539.2314, 805.8295
539.7135, 807.5612
540.1956, 811.4884
540.6777, 814.8864
541.1599, 816.1847
541.6420, 815.7231
542.1241, 813.9255
542.6062, 809.8816
543.0883, 807.4139
543.5704, 808.2187
544.0526, 810.0589
544.5347, 812.3167
545.0168, 814.6004
545.4989, 815.5540
545.9810, 813.1385
546.4631, 809.7250
546.9453, 808.9910
547.4274, 810.8903
547.9095, 814.2633
548.3916, 819.3670
548.8737, 824.8044
549.3558, 827.7568
549.8380, 827.8989
550.3201, 828.4495
550.8022, 829.2363
551.2843, 831.2372
551.7664, 836.2515
552.2485, 843.3946
552.7307, 849.5273
553.2128, 852.8156
553.6949, 854.2395
554.1770, 856.6000
554.6591, 860.7941
555.1412, 864.3176
555.6234, 866.1733
556.1055, 868.2637
556.5876, 871.7106
557.0697, 876.4425
557.5518, 881.8477
558.0339, 887.6339
558.5161, 893.7618
558.9982, 900.4091
559.4803, 907.7892
559.9624, 914.2252
560.4445, 918.7360
560.9266, 922.5780
561.4088, 926.7704
561.8909, 931.3307
562.3730, 936.4045
562.8551, 942.6096
563.3372, 948.9667
563.8193, 953.9639
564.3015, 957.9600
564.7836, 963.0250
565.2657, 970.2261
565.7478, 978.4741
566.2299, 985.8373
566.7120, 991.9431
567.1942, 997.9124
567.6763, 1004.370
568.1584, 1010.061
568.6405, 1013.746
569.1226, 1016.112
569.6047, 1019.184
570.0869, 1024.101
570.5690, 1029.074
571.0511, 1029.969
571.5332, 1025.569
572.0153, 1021.808
572.4974, 1020.292
572.9796, 1018.480
573.4617, 1015.309
573.9438, 1010.787
574.4259, 1005.031
574.9080, 997.7741
575.3901, 989.7809
575.8723, 982.0106
576.3544, 974.3422
576.8365, 966.1281
577.3186, 957.4355
577.8007, 947.4182
578.2828, 934.4918
578.7650, 918.4279
579.2471, 904.5903
579.7292, 893.8830
580.2113, 884.6691
580.6934, 877.0497
581.1755, 870.1249
581.6577, 862.0031
582.1398, 852.2280
582.6219, 842.6059
583.1040, 835.7994
583.5861, 832.2178
584.0682, 828.2558
584.5504, 824.0157
585.0325, 819.1744
585.5146, 812.7292
585.9967, 806.0363
586.4788, 800.8337
586.9609, 797.6061
587.4431, 795.4887
587.9252, 794.0478
588.4073, 793.0808
588.8894, 791.8020
589.3715, 790.1052
589.8536, 788.1599
590.3358, 785.7883
590.8179, 783.3012
591.3000, 781.7585
591.7821, 781.8554
592.2642, 781.5977
592.7463, 780.0332
593.2285, 777.9786
593.7106, 776.1964
594.1927, 774.8533
594.6748, 773.9206
595.1569, 773.3704
595.6390, 773.2474
596.1212, 773.8835
596.6033, 776.2039
597.0854, 777.6568
597.5675, 778.1459
598.0496, 777.6252
598.5317, 774.7973
599.0139, 770.5598
599.4960, 768.5145
599.9781, 771.8945
600.4602, 778.1838
600.9423, 783.7083
601.4244, 788.5031
601.9066, 788.7968
602.3887, 781.0189
602.8708, 771.4599
603.3529, 769.5150
603.8350, 775.1071
604.3171, 779.6466
604.7993, 781.3974
605.2814, 782.3031
605.7635, 783.6232
606.2456, 785.0527
606.7277, 785.4274
607.2098, 784.3512
607.6920, 783.3834
608.1741, 784.8895
608.6562, 789.1507
609.1383, 794.3895
609.6204, 802.2241
610.1025, 809.1547
610.5847, 813.8514
611.0668, 817.1086
611.5489, 819.4490
612.0310, 820.9088
612.5131, 823.5938
612.9952, 830.2398
613.4774, 839.6510
613.9595, 848.1039
614.4416, 855.2233
614.9237, 861.8016
615.4058, 868.5342
615.8879, 875.0588
616.3701, 880.1767
616.8522, 882.7316
617.3343, 886.4081
617.8164, 892.3425
618.2985, 899.4286
618.7806, 907.0605
619.2628, 914.9321
619.7449, 922.3846
620.2270, 928.8665
620.7091, 935.1199
621.1912, 943.5230
621.6733, 955.3348
622.1555, 965.5015
622.6376, 972.0781
623.1197, 978.0884
623.6018, 985.1732
624.0839, 992.9857
624.5660, 1000.332
625.0482, 1006.455
625.5303, 1012.380
626.0124, 1019.992
626.4945, 1028.320
626.9766, 1033.524
627.4587, 1034.525
627.9409, 1034.294
628.4230, 1036.283
628.9051, 1040.358
629.3872, 1038.978
629.8693, 1030.292
630.3514, 1019.441
630.8336, 1006.854
631.3157, 992.9254
631.7978, 977.4612
632.2799, 960.7778
632.7620, 944.0578
633.2441, 928.1968
633.7263, 913.2318
634.2084, 899.9714
634.6905, 888.8840
635.1726, 877.5273
635.6547, 864.1774
636.1368, 851.3026
636.6190, 841.3636
637.1011, 834.2994
637.5832, 828.4367
638.0653, 824.7393
638.5474, 820.7617
639.0295, 813.6046
639.5117, 804.6153
639.9938, 797.0498
640.4759, 792.0491
640.9580, 789.1578
641.4401, 788.1422
641.9222, 789.3527
642.4044, 789.1591
642.8865, 787.1703
643.3686, 784.1207
643.8507, 778.8220
644.3328, 773.2712
644.8149, 769.6176
645.2971, 768.2287
645.7792, 767.8239
646.2613, 767.8123
646.7434, 767.9433
647.2255, 767.7708
647.7076, 767.3087
648.1898, 765.8151
648.6719, 762.6522
649.1540, 758.7019
649.6361, 755.3093
650.1182, 752.3431
650.6003, 750.4596
651.0825, 750.8045
651.5646, 751.1517
652.0467, 750.0648
652.5288, 748.1160
653.0109, 746.3722
653.4930, 745.2403
653.9752, 744.5574
654.4573, 744.4318
654.9394, 744.9080
655.4215, 743.8602
655.9036, 740.2623
656.3857, 737.1696
656.8679, 736.4682
657.3500, 736.7957
657.8321, 736.6835
658.3142, 735.9420
658.7963, 735.2552
659.2784, 734.8742
659.7606, 734.7416
660.2427, 734.9991
660.7248, 735.4908
661.2069, 735.6610
661.6890, 735.2520
662.1711, 734.3290
662.6533, 732.9314
663.1354, 730.7823
663.6175, 729.1184
664.0996, 729.1265
664.5817, 728.2952
665.0638, 723.7413
665.5460, 718.7242
666.0281, 718.5587
666.5102, 724.7219
666.9923, 730.9021
667.4744, 730.9543
667.9565, 727.1736
668.4387, 725.0314
668.9208, 724.8578
669.4029, 725.3799
669.8850, 726.1671
670.3671, 726.9503
670.8492, 727.1313
671.3314, 726.4138
671.8135, 725.8621
672.2956, 725.9998
672.7777, 725.7982
673.2598, 724.0378
673.7419, 721.7585
674.2241, 720.9899
674.7062, 722.4402
675.1883, 724.2269
675.6704, 723.5992
676.1525, 720.9172
676.6346, 719.9203
677.1168, 721.0898
677.5989, 722.6841
678.0810, 724.3946
678.5631, 725.6793
679.0452, 725.3724
679.5273, 723.0160
680.0095, 721.4991
680.4916, 722.3644
680.9737, 723.5807
681.4558, 723.3701
681.9379, 722.2908
682.4200, 722.1271
682.9022, 723.5677
683.3843, 725.0240
683.8664, 723.8757
684.3485, 719.8545
684.8306, 717.2938
685.3127, 716.7191
685.7949, 716.6954
686.2770, 716.6750
686.7591, 716.8834
687.2412, 717.3381
687.7233, 717.9883
688.2054, 719.9816
688.6876, 726.9626
689.1697, 733.2161
689.6518, 730.7830
690.1339, 722.1176
690.6160, 715.9513
691.0981, 715.7888
691.5803, 718.6074
692.0624, 720.2957
692.5445, 720.7680
693.0266, 720.7418
693.5087, 720.2673
693.9908, 719.1805
694.4730, 716.1389
694.9551, 713.2881
695.4372, 713.5817
695.9193, 717.1411
696.4014, 719.6447
696.8835, 717.3419
697.3657, 713.3466
697.8478, 711.2516
698.3299, 711.1192
698.8120, 713.4687
699.2941, 718.7600
699.7762, 724.0236
700.2584, 725.2001
700.7405, 721.8490
701.2226, 720.0280
701.7047, 721.3467
702.1868, 722.2538
702.6689, 722.2612
703.1511, 721.4996
703.6332, 719.4092
704.1153, 716.4072
704.5974, 714.6486
705.0795, 715.9100
705.5616, 718.9163
706.0438, 722.6591
706.5259, 726.7006
707.0080, 727.8668
707.4901, 724.9142
707.9722, 720.6143
708.4543, 717.4557
708.9365, 715.4476
709.4186, 715.2689
709.9007, 717.9081
710.3828, 720.9516
710.8649, 725.3098
711.3470, 728.9880
711.8292, 729.9119
712.3113, 728.4684
712.7934, 726.6561
713.2755, 725.4749
713.7576, 724.8771
714.2397, 724.8131
714.7219, 725.2716
715.2040, 726.4137
715.6861, 728.4916
716.1682, 730.1158
716.6503, 730.0831
717.1324, 728.6526
717.6146, 727.2275
718.0967, 725.0255
718.5788, 723.9587
719.0609, 725.2937
719.5430, 726.8604
720.0251, 726.8585
720.5073, 725.8060
720.9894, 725.3964
721.4715, 726.4935
721.9536, 728.0816
722.4357, 728.6183
722.9178, 728.3782
723.4000, 729.0644
723.8821, 730.9474
724.3642, 733.1760
724.8463, 735.6497
725.3284, 737.8054
725.8105, 737.9801
726.2927, 735.0704
726.7748, 733.0101
727.2569, 731.8165
727.7390, 731.6966
728.2211, 733.6609
728.7032, 736.4955
729.1854, 737.9617
729.6675, 737.4044
730.1496, 736.8414
730.6317, 739.1848
731.1138, 743.2829
731.5959, 744.3977
732.0781, 742.2262
732.5602, 740.4140
733.0423, 740.4943
733.5244, 741.5270
734.0065, 742.4238
734.4886, 743.3651
734.9708, 742.7469
735.4529, 738.2841
735.9350, 734.9990
736.4171, 735.6207
736.8992, 737.7347
737.3813, 738.7147
737.8635, 738.1309
738.3456, 737.0342
738.8277, 736.0495
739.3098, 735.2064
739.7919, 734.6090
740.2740, 734.2411
740.7562, 734.0205
741.2383, 734.1276
741.7204, 733.5677
742.2025, 731.0029
742.6846, 726.7595
743.1667, 724.4219
743.6489, 724.9477
744.1310, 725.8883
744.6131, 728.2050
745.0952, 729.8168
745.5773, 727.9062
746.0594, 724.0014
746.5416, 722.4521
747.0237, 725.5795
747.5058, 730.3382
747.9879, 733.8128
748.4700, 735.8561
748.9521, 735.2648
749.4343, 731.7803
749.9164, 728.6996
750.3985, 728.1037
750.8806, 728.8007
751.3627, 728.0096
751.8448, 724.7790
752.3270, 722.5099
752.8091, 721.3660
753.2912, 720.8995
753.7733, 721.1018
754.2554, 721.7959
754.7375, 723.2012
755.2197, 725.2410
755.7018, 726.3050
756.1839, 724.4697
756.6660, 721.2847
757.1481, 719.0474
757.6302, 717.7802
758.1124, 717.6348
758.5945, 718.7672
759.0766, 720.0633
759.5587, 720.1642
760.0408, 719.1176
760.5229, 719.1262
761.0051, 722.4844
761.4872, 723.3749
761.9693, 718.1252
762.4514, 712.7792
762.9335, 712.0726
763.4156, 715.1151
763.8978, 717.9283
764.3799, 719.0134
764.8620, 719.3828
765.3441, 719.2311
765.8262, 719.1601
766.3083, 720.9070
766.7905, 724.2969
767.2726, 726.6213
767.7547, 726.2193
768.2368, 723.8103
768.7189, 720.6867
769.2010, 716.0211
769.6832, 713.8264
770.1653, 716.1522
770.6474, 718.0830
771.1295, 716.3864
771.6116, 713.7018
772.0938, 713.6982
772.5759, 716.9621
773.0580, 719.7224
773.5401, 720.5699
774.0222, 720.3319
774.5043, 718.9118
774.9865, 717.1143
775.4686, 716.6126
775.9507, 717.7434
776.4328, 719.0978
776.9149, 719.2814
777.3970, 718.5682
777.8792, 718.0516
778.3613, 717.6183
778.8434, 718.1906
779.3255, 720.9315
779.8076, 723.2025
780.2897, 721.6494
780.7719, 717.5449
781.2540, 716.5125
781.7361, 722.0250
782.2182, 725.3749
782.7003, 721.8066
783.1824, 717.4998
783.6646, 717.7370
784.1467, 721.4813
784.6288, 725.4626
785.1109, 728.3323
785.5930, 729.4918
786.0751, 726.9324
786.5573, 721.9598
787.0394, 720.3734
787.5215, 722.5500
788.0036, 724.6923
788.4857, 725.3677
788.9678, 724.8132
789.4500, 723.0723
789.9321, 719.8005
790.4142, 718.0922
790.8963, 718.9460
791.3784, 719.9965
791.8605, 721.4843
792.3427, 722.4275
792.8248, 721.4774
793.3069, 719.0413
793.7890, 717.1310
794.2711, 716.4508
794.7532, 717.0915
795.2354, 720.4271
795.7175, 724.8146
796.1996, 726.5425
796.6817, 725.2657
797.1638, 722.6846
797.6459, 719.5947
798.1281, 717.0125
798.6102, 717.7317
799.0923, 723.0222
799.5744, 726.2715
800.0565, 726.8279
800.5386, 726.3887
801.0208, 725.4190
801.5029, 723.9792
801.9850, 721.7750
802.4671, 718.7355
802.9492, 716.7097
803.4313, 715.8184
803.9135, 716.5226
804.3956, 720.8510
804.8777, 726.1270
805.3598, 728.4271
805.8419, 727.2961
806.3240, 724.9531
806.8062, 722.7842
807.2883, 721.0725
807.7704, 720.6588
808.2525, 721.4762
808.7346, 722.1565
809.2167, 722.5198
809.6989, 722.6039
810.1810, 722.3029
810.6631, 721.8359
811.1452, 721.8100
811.6273, 722.3278
812.1094, 723.0780
812.5916, 725.0766
813.0737, 726.1560
813.5558, 724.1674
814.0379, 721.3826
814.5200, 721.2181
815.0021, 724.0192
815.4843, 726.2249
815.9664, 724.4564
816.4485, 721.9195
816.9306, 722.8510
817.4127, 725.9156
817.8948, 727.6554
818.3770, 727.3692
818.8591, 726.3760
819.3412, 725.6444
819.8233, 725.2303
820.3054, 725.3167
820.7875, 725.9036
821.2697, 727.1142
821.7518, 729.7250
822.2339, 731.6757
822.7160, 731.8481
823.1981, 730.5536
823.6802, 727.8193
824.1624, 722.8674
824.6445, 720.2955
825.1266, 723.3063
825.6087, 726.4772
826.0908, 726.4261
826.5729, 724.8766
827.0551, 724.2256
827.5372, 724.9844
828.0193, 726.5731
828.5014, 729.0652
828.9835, 731.4523
829.4656, 731.7109
829.9478, 730.2654
830.4299, 729.1854
830.9120, 728.8447
831.3941, 728.3375
831.8762, 726.8592
832.3583, 725.1169
832.8404, 725.1817
833.3225, 728.1047
833.8046, 729.8061
834.2867, 729.6681
834.7689, 729.0709
835.2510, 727.6284
835.7331, 726.5325
836.2152, 727.4395
836.6973, 730.4475
837.1794, 733.3752
837.6616, 736.5217
838.1437, 738.3038
838.6258, 736.6920
839.1079, 733.7072
839.5900, 732.2449
840.0721, 732.3981
840.5543, 732.1973
841.0364, 730.3010
841.5185, 727.8484
842.0006, 726.7753
842.4827, 726.9066
842.9648, 727.1006
843.4470, 727.2376
843.9291, 727.7429
844.4112, 728.9648
844.8933, 730.3514
845.3754, 730.9088
845.8575, 730.4338
846.3397, 730.4222
846.8218, 731.4016
847.3039, 732.1262
847.7860, 731.9014
848.2681, 731.7011
848.7502, 732.9033
849.2324, 734.9703
849.7145, 735.4368
850.1966, 732.4278
850.6787, 729.7626
851.1608, 730.2076
851.6429, 731.7318
852.1251, 731.7229
852.6072, 730.6594
853.0893, 731.0272
853.5714, 733.8420
854.0535, 736.6275
854.5356, 735.7528
855.0178, 732.1687
855.4999, 730.2663
855.9820, 730.0784
856.4641, 730.3213
856.9462, 730.7276
857.4283, 730.9985
857.9105, 730.7285
858.3926, 731.0962
858.8747, 731.4379
859.3568, 731.3171
859.8389, 732.1088
860.3210, 732.1689
860.8032, 731.8716
861.2853, 731.1588
861.7674, 730.2946
862.2495, 729.7178
862.7316, 729.5234
863.2137, 729.3611
863.6959, 729.1278
864.1780, 728.8190
864.6601, 728.3576
865.1422, 727.8428
865.6243, 727.6758
866.1064, 727.7531
866.5886, 727.0706
867.0707, 724.6144
867.5528, 721.6891
868.0349, 720.5109
868.5170, 721.0059
868.9991, 723.2836
869.4813, 727.4721
869.9634, 730.4720
870.4455, 730.4988
870.9276, 728.6541
871.4097, 726.8469
871.8918, 725.0234
872.3740, 723.6394
872.8561, 722.8149
873.3382, 722.2465
873.8203, 722.6649
874.3024, 722.6703
874.7845, 720.3145
875.2667, 716.3715
875.7488, 714.5392
876.2309, 717.4980
876.7130, 719.2191
877.1951, 715.4404
877.6772, 711.4116
878.1594, 712.3346
878.6415, 716.4066
879.1236, 719.0961
879.6057, 718.9563
880.0878, 718.2695
880.5699, 719.1329
881.0521, 720.7931
881.5342, 722.1119
882.0163, 723.0279
882.4984, 723.1348
882.9805, 722.3720
883.4626, 721.6794
883.9448, 721.8832
884.4269, 722.4833
884.9090, 721.7244
885.3911, 719.0986
885.8732, 718.1414
886.3553, 719.5664
886.8375, 721.4640
887.3196, 723.4594
887.8017, 725.0563
888.2838, 725.1644
888.7659, 723.5674
889.2480, 723.2430
889.7302, 725.3020
890.2123, 727.2686
890.6944, 729.2792
891.1765, 730.3430
891.6586, 728.1450
892.1407, 724.4515
892.6229, 724.5370
893.1050, 731.1429
893.5871, 736.8326
894.0692, 736.0950
894.5513, 732.2579
895.0334, 727.5693
895.5156, 723.2793
895.9977, 722.0336
896.4798, 724.3444
896.9619, 727.8170
897.4440, 730.5366
897.9261, 732.6131
898.4083, 734.4922
898.8904, 736.0828
899.3725, 735.9832
899.8546, 733.7842
900.3367, 731.9748
900.8188, 731.9446
901.3010, 733.3674
901.7831, 735.8878
902.2652, 739.9832
902.7473, 741.9988
903.2294, 739.8597
903.7115, 739.3052
904.1937, 743.0334
904.6758, 747.9085
905.1579, 751.9650
905.6400, 754.9998
906.1221, 756.0691
906.6042, 753.1494
907.0864, 751.8048
907.5685, 753.3879
908.0506, 757.0021
908.5327, 763.7830
909.0148, 771.4234
909.4969, 776.0153
909.9791, 776.9148
910.4612, 778.1819
910.9433, 782.4217
911.4254, 788.3546
911.9075, 795.6506
912.3896, 803.3257
912.8718, 809.0154
913.3539, 812.8241
913.8360, 817.1959
914.3181, 823.4921
914.8002, 831.0182
915.2823, 838.0944
915.7645, 845.1453
916.2466, 856.8383
916.7287, 873.5800
917.2108, 886.3152
917.6929, 891.0760
918.1750, 895.8425
918.6572, 909.0267
919.1393, 928.9205
919.6214, 945.7776
920.1035, 958.2576
920.5856, 970.9645
921.0677, 983.5607
921.5499, 997.1957
922.0320, 1013.218
922.5141, 1030.252
922.9962, 1046.706
923.4783, 1062.549
923.9604, 1077.491
924.4426, 1089.885
924.9247, 1103.548
925.4068, 1120.640
925.8889, 1138.828
926.3710, 1156.716
926.8531, 1173.840
927.3353, 1189.297
927.8174, 1202.791
928.2995, 1215.068
928.7816, 1227.204
929.2637, 1237.906
929.7458, 1245.717
930.2280, 1251.074
930.7101, 1255.833
931.1922, 1259.849
931.6743, 1259.363
932.1564, 1250.927
932.6385, 1238.790
933.1207, 1231.766
933.6028, 1227.654
934.0849, 1216.462
934.5670, 1197.518
935.0491, 1174.581
935.5313, 1149.034
936.0134, 1122.982
936.4955, 1099.152
936.9776, 1077.187
937.4597, 1053.032
937.9418, 1025.318
938.4240, 1001.058
938.9061, 982.0169
939.3882, 964.7595
939.8703, 947.1341
940.3524, 929.6609
940.8345, 913.4288
941.3167, 898.5206
941.7988, 884.3972
942.2809, 870.9834
942.7630, 858.4723
943.2451, 846.1624
943.7272, 835.3797
944.2094, 828.0163
944.6915, 823.1845
945.1736, 817.7949
945.6557, 810.7330
946.1378, 804.3386
946.6199, 799.5266
947.1021, 795.5891
947.5842, 792.7438
948.0663, 790.1143
948.5484, 786.3697
949.0305, 781.4270
949.5126, 776.3990
949.9948, 771.9269
950.4769, 767.0760
950.9590, 762.8293
951.4411, 757.9638
951.9232, 753.4222
952.4053, 749.2813
952.8875, 745.4899
953.3696, 742.0609
953.8517, 739.3870
954.3338, 738.1714
954.8159, 737.8121
955.2980, 736.8917
955.7802, 735.3918
956.2623, 732.6370
956.7444, 728.5104
957.2265, 726.0079
957.7086, 727.1811
958.1907, 729.6391
958.6729, 728.7488
959.1550, 724.3779
959.6371, 722.3141
960.1192, 723.2590
960.6013, 723.4616
961.0834, 721.5662
961.5656, 719.6497
962.0477, 719.7952
962.5298, 717.8375
963.0119, 716.2777
963.4940, 715.9443
963.9761, 713.1270
964.4583, 713.1579
964.9404, 712.9880
965.4225, 710.8449
965.9046, 708.7463
966.3867, 708.8724
966.8688, 710.8994
967.3510, 712.5670
967.8331, 713.4632
968.3152, 714.2072
968.7973, 715.1389
969.2794, 715.7308
969.7615, 715.0667
970.2437, 714.1727
970.7258, 715.0906
971.2079, 717.7600
971.6900, 718.8185
972.1721, 715.2977
972.6542, 711.7067
973.1364, 710.5412
973.6185, 711.0529
974.1006, 712.9879
974.5827, 715.7559
975.0648, 718.5389
975.5469, 721.0040
976.0291, 722.5146
976.5112, 721.5518
976.9933, 720.2610
977.4754, 722.3234
977.9575, 726.1027
978.4396, 727.1510
978.9218, 725.7318
979.4039, 726.8064
979.8860, 732.9031
980.3681, 740.1340
980.8502, 743.3907
981.3323, 743.5510
981.8145, 742.7421
982.2966, 741.3469
982.7787, 743.1055
983.2608, 748.8389
983.7429, 755.0233
984.2250, 759.2582
984.7072, 764.3566
985.1893, 766.8279
985.6714, 772.3140
986.1535, 776.4144
986.6356, 778.6065
987.1177, 782.5153
987.5999, 789.2719
988.0820, 797.8673
988.5641, 807.9421
989.0462, 818.7045
989.5283, 827.0933
990.0104, 831.4905
990.4926, 838.8892
990.9747, 851.3246
991.4568, 862.7859
991.9389, 870.7805
992.4210, 877.5660
992.9031, 884.3735
993.3853, 891.6429
993.8674, 902.6439
994.3495, 922.0549
994.8316, 937.2125
995.3137, 944.4451
995.7958, 951.4673
996.2780, 961.4481
996.7601, 972.6600
997.2422, 983.3845
997.7243, 993.4984
998.2064, 1003.237
998.6885, 1011.918
999.1707, 1021.295
999.6528, 1033.682
1000.135, 1044.952
1000.617, 1052.229
1001.099, 1056.771
1001.581, 1060.567
1002.063, 1063.870
1002.545, 1065.480
1003.028, 1064.367
1003.510, 1062.221
1003.992, 1058.969
1004.474, 1055.963
1004.956, 1055.204
1005.438, 1055.483
1005.920, 1054.526
1006.402, 1051.700
1006.885, 1047.234
1007.367, 1040.496
1007.849, 1033.213
1008.331, 1027.821
1008.813, 1022.457
1009.295, 1014.289
1009.777, 1003.682
1010.259, 991.9211
1010.741, 979.6823
1011.224, 968.3389
1011.706, 959.3558
1012.188, 951.7098
1012.670, 944.9506
1013.152, 937.9062
1013.634, 926.4388
1014.116, 911.4916
1014.598, 899.4073
1015.081, 892.9518
1015.563, 888.2917
1016.045, 881.6856
1016.527, 873.3138
1017.009, 862.7224
1017.491, 850.6004
1017.973, 840.2065
1018.455, 831.9578
1018.937, 824.3408
1019.420, 816.5558
1019.902, 808.9095
1020.384, 801.7599
1020.866, 795.0551
1021.348, 788.1219
1021.830, 781.0115
1022.312, 775.7834
1022.794, 772.8538
1023.276, 769.8297
1023.759, 765.2279
1024.241, 760.4008
1024.723, 757.8187
1025.205, 753.2657
1025.687, 749.3187
1026.169, 746.8601
1026.651, 742.2523
1027.133, 741.3745
1027.616, 740.5423
1028.098, 737.2729
1028.580, 733.3030
1029.062, 731.9161
1029.544, 733.1920
1030.026, 733.8267
1030.508, 733.4844
1030.990, 733.8929
1031.473, 736.0918
1031.955, 737.3483
1032.437, 735.7427
1032.919, 732.3184
1033.401, 728.6813
1033.883, 724.5639
1034.365, 723.2424
1034.847, 726.2932
1035.329, 728.6725
1035.812, 729.6170
1036.294, 729.5323
1036.776, 728.2032
1037.258, 726.3116
1037.740, 725.2001
1038.222, 724.9569
1038.704, 724.8426
1039.186, 724.3349
1039.668, 724.8411
1040.151, 728.5296
1040.633, 731.0969
1041.115, 729.1198
1041.597, 724.4985
1042.079, 720.8171
1042.561, 718.2042
1043.043, 715.6016
1043.525, 711.5358
1044.008, 709.5611
1044.490, 712.3875
1044.972, 715.2941
1045.454, 715.2066
1045.936, 713.3142
1046.418, 711.4717
1046.900, 709.6338
1047.382, 709.5701
1047.865, 714.3488
1048.347, 716.8690
1048.829, 713.0245
1049.311, 708.9817
1049.793, 709.1112
1050.275, 711.6207
1050.757, 713.6285
1051.239, 714.8729
1051.721, 714.2664
1052.203, 709.3737
1052.686, 705.7002
1053.168, 705.9479
1053.650, 706.7672
1054.132, 705.3817
1054.614, 703.2098
1055.096, 702.9575
1055.578, 704.9466
1056.060, 706.7214
1056.543, 707.8779
1057.025, 708.3978
1057.507, 708.2134
1057.989, 707.4583
1058.471, 705.7249
1058.953, 703.7328
1059.435, 702.2605
1059.917, 701.4970
1060.400, 702.2122
1060.882, 706.6319
1061.364, 709.8264
1061.846, 709.3466
1062.328, 707.7483
1062.810, 706.5547
1063.292, 705.6369
1063.774, 703.9940
1064.256, 701.8583
1064.739, 702.1029
1065.221, 708.1602
1065.703, 712.6241
1066.185, 710.8465
1066.667, 708.0655
1067.149, 707.8802
1067.631, 709.1953
1068.113, 710.6155
1068.595, 711.6639
1069.078, 711.2803
1069.560, 707.8890
1070.042, 705.6552
1070.524, 707.6803
1071.006, 710.1901
1071.488, 710.0209
1071.970, 709.0207
1072.452, 709.9661
1072.935, 712.8126
1073.417, 715.4735
1073.899, 717.1000
1074.381, 718.9329
1074.863, 723.1576
1075.345, 726.0242
1075.827, 723.0413
1076.309, 718.5561
1076.792, 718.2718
1077.274, 721.7186
1077.756, 724.6014
1078.238, 725.4009
1078.720, 726.4296
1079.202, 728.7825
1079.684, 731.6713
1080.166, 735.0761
1080.648, 738.3973
1081.130, 740.8876
1081.613, 742.7756
1082.095, 744.9534
1082.577, 747.7097
1083.059, 750.2902
1083.541, 752.1370
1084.023, 754.0189
1084.505, 756.9773
1084.987, 759.6821
1085.469, 760.6459
1085.952, 760.3284
1086.434, 760.0563
1086.916, 760.1490
1087.398, 759.5939
1087.880, 758.0433
1088.362, 755.6553
1088.844, 751.3253
1089.326, 747.2733
1089.809, 745.9130
1090.291, 746.0275
1090.773, 745.1861
1091.255, 743.0248
1091.737, 741.2078
1092.219, 741.0974
1092.701, 740.3631
1093.183, 737.6650
1093.666, 734.4668
1094.148, 731.7051
1094.630, 729.2073
1095.112, 726.3855
1095.594, 723.3410
1096.076, 721.3029
1096.558, 721.3441
1097.040, 720.9968
1097.522, 719.7194
1098.005, 717.5428
1098.487, 712.9912
1098.969, 708.6074
1099.451, 708.3192
1099.933, 711.0759
1100.415, 711.1760
1100.897, 706.0052
1101.379, 702.3685
1101.861, 703.3906
1102.344, 704.5580
1102.826, 704.1819
1103.308, 702.8697
1103.790, 700.7950
1104.272, 698.3824
1104.754, 696.5446
1105.236, 695.3685
1105.718, 694.8459
1106.201, 695.2657
1106.683, 695.9415
1107.165, 697.3782
1107.647, 698.3128
1108.129, 697.1386
1108.611, 695.1340
1109.093, 694.7278
1109.575, 696.1663
1110.057, 697.7253
1110.540, 700.7247
1111.022, 701.6315
1111.504, 699.1407
1111.986, 695.3615
1112.468, 689.3373
1112.950, 683.8132
1113.432, 683.1390
1113.914, 686.9710
1114.396, 689.1042
1114.879, 687.9238
1115.361, 687.8278
1115.843, 689.6707
1116.325, 691.4514
1116.807, 692.6766
1117.289, 693.3471
1117.771, 693.0315
1118.253, 692.2325
1118.736, 693.1009
1119.218, 696.8367
1119.700, 698.2726
1120.182, 696.8121
1120.664, 693.9845
1121.146, 688.0460
1121.628, 684.8076
1122.110, 690.0571
1122.593, 699.0902
1123.075, 701.7404
1123.557, 697.4981
1124.039, 695.3785
1124.521, 696.1672
1125.003, 696.2148
1125.485, 694.7864
1125.967, 692.9708
1126.449, 690.8671
1126.932, 689.9033
1127.414, 692.5284
1127.896, 697.8485
1128.378, 699.4327
1128.860, 696.7328
1129.342, 695.9698
1129.824, 697.9504
1130.306, 698.9774
1130.788, 697.6230
1131.271, 695.4177
1131.753, 693.5808
1132.235, 692.4779
1132.717, 693.9097
1133.199, 697.4894
1133.681, 696.9791
1134.163, 692.4454
1134.645, 689.0635
1135.128, 688.0471
1135.610, 688.5421
1136.092, 690.0949
1136.574, 692.1465
1137.056, 694.3727
1137.538, 696.2158
1138.020, 695.0830
1138.502, 691.8373
1138.984, 690.1960
1139.467, 690.5262
1139.949, 691.8340
1140.431, 693.6357
1140.913, 694.8868
1141.395, 694.2640
1141.877, 693.1592
1142.359, 694.4674
1142.841, 696.6652
1143.323, 696.3723
1143.806, 694.1213
1144.288, 691.8594
1144.770, 690.2171
1145.252, 689.2676
1145.734, 688.9797
1146.216, 689.8109
1146.698, 694.1727
1147.180, 698.1190
1147.663, 695.4522
1148.145, 690.1131
1148.627, 688.7321
1149.109, 690.9975
1149.591, 693.0309
1150.073, 693.5367
1150.555, 692.8967
1151.037, 689.6662
1151.520, 687.4371
1152.002, 689.6880
1152.484, 692.9438
1152.966, 693.9045
1153.448, 693.4536
1153.930, 693.7081
1154.412, 694.8444
1154.894, 695.2050
1155.376, 693.9359
1155.859, 692.5251
1156.341, 690.6731
1156.823, 689.6894
1157.305, 691.5489
1157.787, 693.5501
1158.269, 692.0823
1158.751, 688.4281
1159.233, 687.4872
1159.715, 690.8110
1160.198, 692.2716
1160.680, 689.5964
1161.162, 687.8106
1161.644, 688.2158
1162.126, 689.1376
1162.608, 689.8701
1163.090, 690.3749
1163.572, 690.6918
1164.055, 690.7862
1164.537, 689.7298
1165.019, 686.2874
1165.501, 685.7252
1165.983, 688.9490
1166.465, 693.4533
1166.947, 699.1154
1167.429, 703.4796
1167.911, 704.1853
1168.394, 702.3668
1168.876, 700.4949
1169.358, 698.5795
1169.840, 699.2087
1170.322, 702.4564
1170.804, 702.4015
1171.286, 697.8946
1171.768, 694.2662
1172.250, 694.3233
1172.733, 696.1088
1173.215, 697.6132
1173.697, 698.5637
1174.179, 697.4557
1174.661, 699.1255
1175.143, 696.3239
1175.625, 699.7850
1176.107, 701.1990
1176.590, 699.5017
1177.072, 697.0021
1177.554, 694.9805
1178.036, 693.9697
1178.518, 695.3492
1179.000, 697.4506
1179.482, 697.9810
1179.964, 697.7206
1180.447, 698.3350
1180.929, 699.4958
1181.411, 699.4664
1181.893, 697.7587
1182.375, 696.1281
1182.857, 695.7209
1183.339, 695.4690
1183.821, 694.3770
1184.303, 693.5980
1184.786, 694.4977
1185.268, 696.0095
1185.750, 696.3114
1186.232, 695.6303
1186.714, 696.1793
1187.196, 699.2502
1187.678, 700.9276
1188.160, 699.3024
1188.642, 697.8691
1189.125, 697.2404
1189.607, 697.6127
1190.089, 700.2135
1190.571, 703.1843
1191.053, 703.0808
1191.535, 699.9451
1192.017, 697.4646
1192.499, 694.5394
1192.982, 696.3025
1193.464, 705.3554
1193.946, 711.8093
1194.428, 711.9144
1194.910, 709.0641
1195.392, 705.9113
1195.874, 702.6055
1196.356, 699.1789
1196.839, 695.7741
1197.321, 694.8503
1197.803, 696.2469
1198.285, 697.8282
1198.767, 699.1566
1199.249, 699.4877
1199.731, 698.5051
1200.213, 697.4799
1200.695, 697.6189
1201.177, 698.5961
1201.660, 700.1246
1202.142, 701.9686
1202.624, 704.3567
1203.106, 706.4636
1203.588, 705.9647
1204.070, 703.0571
1204.552, 700.4070
1205.034, 699.1957
1205.517, 698.5402
1205.999, 698.3732
1206.481, 697.9023
1206.963, 695.8192
1207.445, 693.8444
1207.927, 693.3362
1208.409, 694.3016
1208.891, 697.4587
1209.374, 702.3097
1209.856, 704.4596
1210.338, 701.3389
1210.820, 698.8117
1211.302, 697.7414
1211.784, 697.4428
1212.266, 698.2960
1212.748, 699.1985
1213.230, 699.5898
1213.713, 699.3400
1214.195, 697.8767
1214.677, 695.1712
1215.159, 694.6833
1215.641, 697.0533
1216.123, 698.8251
1216.605, 699.5852
1217.087, 700.3654
1217.569, 701.5378
1218.052, 702.9699
1218.534, 704.7116
1219.016, 705.9580
1219.498, 704.4630
1219.980, 701.0905
1220.462, 699.4139
1220.944, 699.3240
1221.426, 700.5455
1221.909, 702.7643
1222.391, 705.2406
1222.873, 707.5554
1223.355, 708.4877
1223.837, 706.5692
1224.319, 704.1417
1224.801, 703.4633
1225.283, 703.6943
1225.766, 704.1629
1226.248, 704.7084
1226.730, 705.0468
1227.212, 705.3428
1227.694, 706.3953
1228.176, 708.5270
1228.658, 709.6093
1229.140, 707.3300
1229.622, 706.2362
1230.104, 709.6784
1230.587, 712.3606
1231.069, 710.2855
1231.551, 706.7430
1232.033, 705.7838
1232.515, 706.4525
1232.997, 704.6849
1233.479, 705.4753
1233.961, 706.9230
1234.444, 705.6459
1234.926, 706.4474
1235.408, 708.4506
1235.890, 706.7845
1236.372, 706.8060
1236.854, 707.9981
1237.336, 710.0865
1237.818, 712.2068
1238.301, 711.9625
1238.783, 709.8898
1239.265, 707.4489
1239.747, 705.1262
1240.229, 704.8210
1240.711, 706.3469
1241.193, 706.8470
1241.675, 705.1026
1242.157, 704.0687
1242.640, 707.0915
1243.122, 710.4833
1243.604, 711.0071
1244.086, 710.4178
1244.568, 710.1719
1245.050, 710.1557
1245.532, 709.9788
1246.014, 709.6727
1246.496, 709.4338
1246.979, 710.3461
1247.461, 709.7712
1247.943, 712.7542
1248.425, 714.9713
1248.907, 716.9391
1249.389, 716.3202
1249.871, 710.0065
1250.353, 703.4402
1250.836, 702.9640
1251.318, 706.8168
1251.800, 708.5630
1252.282, 708.0172
1252.764, 708.2634
1253.246, 709.3171
1253.728, 710.1094
1254.210, 710.4599
1254.693, 710.6210
1255.175, 710.7203
1255.657, 711.6923
1256.139, 714.8507
1256.621, 718.2247
1257.103, 718.6058
1257.585, 717.3848
1258.067, 715.7889
1258.549, 714.8521
1259.031, 717.0754
1259.514, 721.4474
1259.996, 724.0664
1260.478, 723.7931
1260.960, 723.0142
1261.442, 722.1417
1261.924, 721.8651
1262.406, 723.1736
1262.888, 724.2337
1263.371, 723.8954
1263.853, 722.9738
1264.335, 721.9640
1264.817, 721.1630
1265.299, 721.4496
1265.781, 722.9459
1266.263, 723.2814
1266.745, 722.0809
1267.228, 721.6110
1267.710, 722.1196
1268.192, 723.2783
1268.674, 724.9901
1269.156, 727.2037
1269.638, 730.1270
1270.120, 731.9730
1270.602, 728.3701
1271.084, 722.4870
1271.567, 721.6424
1272.049, 723.9066
1272.531, 726.2278
1273.013, 727.5100
1273.495, 725.1820
1273.977, 719.6658
1274.459, 717.0099
1274.941, 720.5297
1275.423, 724.9229
1275.906, 729.3392
1276.388, 731.8915
1276.870, 730.3692
1277.352, 728.0049
1277.834, 727.2964
1278.316, 727.3373
1278.798, 726.3535
1279.280, 726.4254
1279.763, 726.9312
1280.245, 726.7101
1280.727, 728.2629
1281.209, 729.3790
1281.691, 729.7432
1282.173, 729.1893
1282.655, 729.0999
1283.137, 730.2083
1283.620, 731.3480
1284.102, 731.1008
1284.584, 730.2839
1285.066, 730.1735
##END=



