##NAMES=Cavansite
##RRUFFID=R050400
##IDEAL CHEMISTRY=CaV^4+^OSi_4_O_10_&#183;4H_2_O
##LOCALITY=Poona, India
##OWNER=RRUFF
##SOURCE=Eugene Schlepp
##DESCRIPTION=Spray of blue crystals
##STATUS=The identification of this mineral has been confirmed by X-ray diffraction and chemical analysis
##URL=rruff.info/R050400
##MEASURED CHEMISTRY=(Ca_0.99_Mg_0.01_)_Σ=1_(V^4+^_1.00_O)Si_4.00_O_10_·4H_2_O
93.48767, 2772.615
93.96979, 2879.934
94.45190, 2985.536
94.93402, 3075.316
95.41614, 3114.472
95.89825, 3121.687
96.38037, 3124.247
96.86249, 3121.937
97.34460, 3115.788
97.82672, 3111.124
98.30884, 3103.774
98.79095, 3092.447
99.27307, 3074.412
99.75519, 3050.767
100.2373, 3032.031
100.7194, 3019.505
101.2015, 3006.981
101.6837, 2991.616
102.1658, 2976.886
102.6479, 2964.539
103.1300, 2954.174
103.6121, 2947.411
104.0942, 2948.281
104.5764, 2953.014
105.0585, 2956.230
105.5406, 2954.316
106.0227, 2949.146
106.5048, 2946.654
106.9869, 2947.433
107.4691, 2948.423
107.9512, 2948.429
108.4333, 2947.431
108.9154, 2945.548
109.3975, 2942.255
109.8796, 2936.898
110.3618, 2933.719
110.8439, 2934.657
111.3260, 2935.931
111.8081, 2935.436
112.2902, 2933.164
112.7723, 2930.836
113.2544, 2930.937
113.7366, 2934.978
114.2187, 2938.965
114.7008, 2942.790
115.1829, 2946.582
115.6650, 2950.540
116.1471, 2954.751
116.6293, 2958.918
117.1114, 2962.355
117.5935, 2965.310
118.0756, 2967.221
118.5577, 2967.805
119.0398, 2967.200
119.5220, 2965.421
120.0041, 2961.580
120.4862, 2957.392
120.9683, 2956.472
121.4504, 2960.244
121.9325, 2964.733
122.4147, 2966.616
122.8968, 2965.670
123.3789, 2964.610
123.8610, 2964.843
124.3431, 2965.623
124.8252, 2966.343
125.3074, 2966.879
125.7895, 2967.156
126.2716, 2966.904
126.7537, 2965.554
127.2358, 2964.699
127.7179, 2964.955
128.2001, 2965.875
128.6822, 2966.914
129.1643, 2967.773
129.6464, 2968.456
130.1285, 2968.921
130.6107, 2968.868
131.0928, 2968.904
131.5749, 2969.188
132.0570, 2969.702
132.5391, 2970.446
133.0212, 2971.549
133.5033, 2973.283
133.9855, 2973.358
134.4676, 2970.325
134.9497, 2967.195
135.4318, 2965.632
135.9139, 2965.800
136.3960, 2966.778
136.8782, 2967.368
137.3603, 2967.261
137.8424, 2969.141
138.3245, 2974.300
138.8066, 2981.075
139.2887, 2988.749
139.7709, 2998.030
140.2530, 3004.667
140.7351, 3000.905
141.2172, 2987.870
141.6993, 2975.845
142.1814, 2969.695
142.6636, 2968.237
143.1457, 2967.140
143.6278, 2965.608
144.1099, 2964.157
144.5920, 2962.845
145.0741, 2961.727
145.5563, 2961.569
146.0384, 2963.995
146.5205, 2969.591
147.0026, 2972.785
147.4847, 2969.280
147.9668, 2965.208
148.4490, 2964.491
148.9311, 2967.777
149.4132, 2972.116
149.8953, 2972.669
150.3774, 2966.501
150.8595, 2962.502
151.3417, 2961.698
151.8238, 2962.679
152.3059, 2964.431
152.7880, 2966.536
153.2701, 2969.162
153.7522, 2972.733
154.2344, 2979.090
154.7165, 2984.251
155.1986, 2988.147
155.6807, 2990.764
156.1628, 2991.778
156.6449, 2990.885
157.1271, 2988.738
157.6092, 2988.066
158.0913, 2989.895
158.5734, 2991.736
159.0555, 2992.109
159.5376, 2991.842
160.0198, 2993.498
160.5019, 2999.404
160.9840, 3007.774
161.4661, 3012.068
161.9482, 3009.666
162.4303, 3006.177
162.9125, 3005.467
163.3946, 3007.419
163.8767, 3009.348
164.3588, 3009.734
164.8409, 3009.017
165.3230, 3007.815
165.8052, 3005.367
166.2873, 3003.261
166.7694, 3004.349
167.2515, 3009.910
167.7336, 3014.273
168.2157, 3013.621
168.6979, 3010.546
169.1800, 3007.832
169.6621, 3006.540
170.1442, 3006.462
170.6263, 3006.982
171.1084, 3007.971
171.5906, 3009.939
172.0727, 3013.934
172.5548, 3018.682
173.0369, 3022.324
173.5190, 3023.525
174.0011, 3022.648
174.4833, 3022.802
174.9654, 3025.530
175.4475, 3027.796
175.9296, 3028.435
176.4117, 3028.137
176.8938, 3028.212
177.3760, 3029.652
177.8581, 3032.485
178.3402, 3035.532
178.8223, 3040.223
179.3044, 3043.753
179.7865, 3043.957
180.2687, 3041.838
180.7508, 3040.410
181.2329, 3042.398
181.7150, 3048.231
182.1971, 3052.738
182.6792, 3054.552
183.1614, 3056.379
183.6435, 3059.984
184.1256, 3065.338
184.6077, 3071.045
185.0898, 3076.013
185.5719, 3080.116
186.0541, 3083.519
186.5362, 3086.347
187.0183, 3088.368
187.5004, 3088.492
187.9825, 3086.430
188.4646, 3085.323
188.9468, 3089.059
189.4289, 3096.501
189.9110, 3103.316
190.3931, 3108.967
190.8752, 3113.297
191.3573, 3115.568
191.8395, 3114.915
192.3216, 3114.530
192.8037, 3116.520
193.2858, 3120.527
193.7679, 3126.195
194.2500, 3135.919
194.7322, 3147.467
195.2143, 3153.025
195.6964, 3148.658
196.1785, 3144.007
196.6606, 3144.542
197.1427, 3148.808
197.6249, 3153.694
198.1070, 3157.557
198.5891, 3160.400
199.0712, 3162.120
199.5533, 3160.324
200.0354, 3160.119
200.5176, 3164.666
200.9997, 3172.349
201.4818, 3179.478
201.9639, 3182.794
202.4460, 3182.163
202.9281, 3183.120
203.4103, 3189.117
203.8924, 3193.588
204.3745, 3193.207
204.8566, 3189.368
205.3387, 3185.920
205.8208, 3186.505
206.3030, 3191.841
206.7851, 3194.583
207.2672, 3192.905
207.7493, 3190.697
208.2314, 3189.912
208.7135, 3190.124
209.1957, 3189.337
209.6778, 3185.455
210.1599, 3177.759
210.6420, 3172.756
211.1241, 3170.348
211.6062, 3170.051
212.0884, 3172.746
212.5705, 3177.776
213.0526, 3182.680
213.5347, 3185.182
214.0168, 3184.898
214.4989, 3185.278
214.9811, 3187.321
215.4632, 3189.203
215.9453, 3189.695
216.4274, 3188.754
216.9095, 3187.078
217.3916, 3184.967
217.8737, 3182.489
218.3559, 3181.068
218.8380, 3181.409
219.3201, 3182.397
219.8022, 3182.896
220.2843, 3182.834
220.7664, 3183.339
221.2486, 3185.656
221.7307, 3189.427
222.2128, 3192.905
222.6949, 3195.368
223.1770, 3197.682
223.6591, 3200.831
224.1413, 3204.900
224.6234, 3209.330
225.1055, 3213.759
225.5876, 3218.232
226.0697, 3222.921
226.5518, 3228.663
227.0340, 3234.188
227.5161, 3237.325
227.9982, 3237.520
228.4803, 3237.179
228.9624, 3236.250
229.4445, 3235.925
229.9267, 3238.342
230.4088, 3245.574
230.8909, 3254.899
231.3730, 3261.043
231.8551, 3263.268
232.3372, 3264.054
232.8194, 3263.005
233.3015, 3261.716
233.7836, 3262.256
234.2657, 3265.827
234.7478, 3271.176
235.2299, 3275.522
235.7121, 3278.648
236.1942, 3281.183
236.6763, 3283.131
237.1584, 3284.783
237.6405, 3286.462
238.1227, 3288.327
238.6048, 3290.258
239.0869, 3291.882
239.5690, 3292.776
240.0511, 3294.150
240.5332, 3296.100
241.0154, 3298.599
241.4975, 3301.582
241.9796, 3305.013
242.4617, 3308.966
242.9438, 3313.788
243.4259, 3321.421
243.9081, 3326.715
244.3902, 3326.425
244.8723, 3325.053
245.3544, 3327.839
245.8365, 3336.695
246.3186, 3347.945
246.8008, 3352.980
247.2829, 3344.835
247.7650, 3340.292
248.2471, 3341.211
248.7292, 3345.169
249.2113, 3350.791
249.6935, 3357.398
250.1756, 3363.781
250.6577, 3367.593
251.1398, 3367.624
251.6219, 3366.343
252.1040, 3361.942
252.5862, 3357.240
253.0683, 3355.242
253.5504, 3356.690
254.0325, 3359.359
254.5146, 3359.531
254.9967, 3354.739
255.4789, 3352.020
255.9610, 3353.124
256.4431, 3355.302
256.9252, 3356.269
257.4073, 3355.484
257.8894, 3353.685
258.3716, 3351.695
258.8537, 3349.054
259.3358, 3347.819
259.8179, 3349.412
260.3000, 3351.572
260.7821, 3352.381
261.2643, 3351.504
261.7464, 3349.650
262.2285, 3347.202
262.7106, 3343.715
263.1927, 3342.603
263.6748, 3346.887
264.1570, 3351.654
264.6391, 3352.163
265.1212, 3348.071
265.6033, 3343.115
266.0854, 3340.419
266.5675, 3340.241
267.0497, 3341.618
267.5318, 3346.021
268.0139, 3350.927
268.4960, 3354.151
268.9781, 3355.630
269.4602, 3357.104
269.9424, 3360.367
270.4245, 3364.864
270.9066, 3367.067
271.3887, 3364.405
271.8708, 3361.333
272.3529, 3361.924
272.8351, 3365.890
273.3172, 3369.039
273.7993, 3368.132
274.2814, 3364.690
274.7635, 3363.807
275.2456, 3367.246
275.7278, 3371.419
276.2099, 3373.398
276.6920, 3373.536
277.1741, 3374.893
277.6562, 3379.784
278.1383, 3386.219
278.6205, 3390.043
279.1026, 3390.502
279.5847, 3390.034
280.0668, 3389.581
280.5489, 3389.313
281.0310, 3390.418
281.5132, 3393.871
281.9953, 3398.371
282.4774, 3402.156
282.9595, 3405.253
283.4416, 3407.500
283.9237, 3407.687
284.4059, 3406.602
284.8880, 3407.558
285.3701, 3411.333
285.8522, 3417.631
286.3343, 3427.421
286.8164, 3440.463
287.2986, 3450.765
287.7807, 3454.355
288.2628, 3452.601
288.7449, 3449.489
289.2270, 3444.489
289.7091, 3440.162
290.1913, 3438.552
290.6734, 3439.238
291.1555, 3440.960
291.6376, 3443.806
292.1197, 3447.207
292.6018, 3449.702
293.0840, 3450.811
293.5661, 3451.983
294.0482, 3454.848
294.5303, 3458.419
295.0124, 3460.802
295.4945, 3460.603
295.9767, 3459.128
296.4588, 3458.565
296.9409, 3458.923
297.4230, 3460.197
297.9051, 3462.564
298.3872, 3465.812
298.8694, 3470.206
299.3515, 3476.744
299.8336, 3482.866
300.3157, 3484.379
300.7978, 3480.359
301.2799, 3477.356
301.7621, 3478.850
302.2442, 3482.038
302.7263, 3484.549
303.2084, 3485.888
303.6905, 3486.978
304.1726, 3488.754
304.6548, 3491.233
305.1369, 3493.851
305.6190, 3496.235
306.1011, 3498.975
306.5832, 3503.438
307.0653, 3509.551
307.5475, 3513.938
308.0296, 3512.345
308.5117, 3505.456
308.9938, 3501.578
309.4759, 3503.128
309.9580, 3506.522
310.4402, 3509.779
310.9223, 3512.767
311.4044, 3515.197
311.8865, 3516.181
312.3686, 3516.268
312.8507, 3517.862
313.3329, 3521.047
313.8150, 3525.776
314.2971, 3533.147
314.7792, 3541.753
315.2613, 3549.034
315.7434, 3553.666
316.2256, 3556.377
316.7077, 3558.691
317.1898, 3560.627
317.6719, 3562.115
318.1540, 3563.470
318.6361, 3564.252
319.1183, 3563.342
319.6004, 3559.650
320.0825, 3556.283
320.5646, 3557.653
321.0467, 3564.279
321.5288, 3572.419
322.0110, 3583.990
322.4931, 3594.678
322.9752, 3600.407
323.4573, 3600.443
323.9394, 3598.726
324.4215, 3598.735
324.9037, 3600.431
325.3858, 3601.837
325.8679, 3601.979
326.3500, 3602.443
326.8321, 3604.451
327.3142, 3607.858
327.7964, 3611.588
328.2785, 3615.744
328.7606, 3619.869
329.2427, 3621.292
329.7248, 3617.995
330.2069, 3615.265
330.6891, 3616.278
331.1712, 3620.115
331.6533, 3625.048
332.1354, 3631.134
332.6175, 3637.417
333.0996, 3641.678
333.5818, 3643.316
334.0639, 3644.919
334.5460, 3648.408
335.0281, 3652.365
335.5102, 3655.030
335.9923, 3655.634
336.4745, 3655.587
336.9566, 3656.504
337.4387, 3658.421
337.9208, 3660.563
338.4029, 3662.784
338.8850, 3665.066
339.3671, 3667.650
339.8492, 3670.637
340.3314, 3672.882
340.8135, 3672.710
341.2956, 3670.674
341.7777, 3670.321
342.2598, 3672.766
342.7419, 3676.419
343.2241, 3679.860
343.7062, 3683.185
344.1883, 3686.862
344.6704, 3692.622
345.1525, 3698.653
345.6346, 3700.359
346.1168, 3696.375
346.5989, 3691.705
347.0810, 3689.684
347.5631, 3689.498
348.0452, 3689.995
348.5273, 3690.782
349.0095, 3692.226
349.4916, 3695.050
349.9737, 3699.276
350.4558, 3703.573
350.9379, 3707.929
351.4200, 3711.555
351.9022, 3713.328
352.3843, 3712.906
352.8664, 3711.438
353.3485, 3708.862
353.8306, 3705.660
354.3127, 3703.777
354.7949, 3703.882
355.2770, 3705.284
355.7591, 3707.144
356.2412, 3709.410
356.7233, 3712.231
357.2054, 3716.851
357.6876, 3721.678
358.1697, 3723.195
358.6518, 3720.372
359.1339, 3718.503
359.6160, 3723.966
360.0981, 3734.990
360.5803, 3741.728
361.0624, 3740.322
361.5445, 3736.214
362.0266, 3732.726
362.5087, 3730.115
362.9908, 3729.951
363.4730, 3734.618
363.9551, 3741.410
364.4372, 3741.906
364.9193, 3731.467
365.4014, 3722.972
365.8835, 3723.468
366.3657, 3729.472
366.8478, 3734.094
367.3299, 3735.046
367.8120, 3733.857
368.2941, 3732.165
368.7762, 3729.025
369.2584, 3729.404
369.7405, 3737.685
370.2226, 3747.637
370.7047, 3753.588
371.1868, 3754.758
371.6689, 3752.583
372.1511, 3747.753
372.6332, 3740.116
373.1153, 3734.165
373.5974, 3729.848
374.0795, 3727.032
374.5616, 3725.829
375.0438, 3726.082
375.5259, 3727.614
376.0080, 3730.465
376.4901, 3734.185
376.9722, 3737.165
377.4543, 3740.109
377.9365, 3741.400
378.4186, 3740.151
378.9007, 3737.457
379.3828, 3734.023
379.8649, 3730.172
380.3470, 3726.808
380.8292, 3725.338
381.3113, 3726.748
381.7934, 3727.091
382.2755, 3724.956
382.7576, 3723.122
383.2397, 3723.836
383.7219, 3726.484
384.2040, 3728.625
384.6861, 3728.262
385.1682, 3725.595
385.6503, 3723.528
386.1324, 3721.900
386.6146, 3721.188
387.0967, 3721.949
387.5788, 3723.561
388.0609, 3725.534
388.5430, 3727.640
389.0251, 3729.345
389.5073, 3729.441
389.9894, 3727.030
390.4715, 3724.793
390.9536, 3721.625
391.4357, 3719.542
391.9178, 3720.647
392.4000, 3724.566
392.8821, 3728.564
393.3642, 3729.939
393.8463, 3728.599
394.3284, 3727.024
394.8105, 3722.794
395.2927, 3721.317
395.7748, 3726.679
396.2569, 3735.494
396.7390, 3742.232
397.2211, 3744.010
397.7032, 3742.427
398.1854, 3740.530
398.6675, 3737.673
399.1496, 3736.524
399.6317, 3738.652
400.1138, 3742.307
400.5959, 3747.224
401.0781, 3753.248
401.5602, 3757.621
402.0423, 3756.676
402.5244, 3750.987
403.0065, 3746.784
403.4886, 3744.702
403.9708, 3744.475
404.4529, 3746.738
404.9350, 3750.593
405.4171, 3753.504
405.8992, 3753.607
406.3813, 3752.518
406.8635, 3753.297
407.3456, 3756.281
407.8277, 3757.805
408.3098, 3754.319
408.7919, 3749.102
409.2740, 3747.775
409.7562, 3751.652
410.2383, 3756.771
410.7204, 3761.457
411.2025, 3765.563
411.6846, 3768.538
412.1667, 3770.043
412.6489, 3771.028
413.1310, 3772.863
413.6131, 3775.550
414.0952, 3777.308
414.5773, 3776.863
415.0594, 3776.020
415.5416, 3776.352
416.0237, 3777.914
416.5058, 3780.252
416.9879, 3783.402
417.4700, 3786.979
417.9521, 3788.906
418.4343, 3786.675
418.9164, 3786.039
419.3985, 3789.430
419.8806, 3795.099
420.3627, 3800.576
420.8448, 3805.074
421.3270, 3809.137
421.8091, 3813.749
422.2912, 3819.873
422.7733, 3823.379
423.2554, 3821.987
423.7375, 3820.155
424.2197, 3820.810
424.7018, 3823.486
425.1839, 3825.902
425.6660, 3826.400
426.1481, 3825.255
426.6302, 3824.267
427.1124, 3822.875
427.5945, 3822.455
428.0766, 3823.876
428.5587, 3825.992
429.0408, 3827.534
429.5229, 3828.170
430.0051, 3828.718
430.4872, 3830.583
430.9693, 3834.360
431.4514, 3836.996
431.9335, 3836.737
432.4156, 3836.846
432.8978, 3839.050
433.3799, 3842.731
433.8620, 3846.312
434.3441, 3849.155
434.8262, 3850.923
435.3083, 3849.905
435.7905, 3844.387
436.2726, 3840.836
436.7547, 3843.116
437.2368, 3847.587
437.7189, 3851.354
438.2010, 3853.874
438.6832, 3855.783
439.1653, 3857.633
439.6474, 3859.342
440.1295, 3860.407
440.6116, 3860.475
441.0938, 3860.389
441.5759, 3860.403
442.0580, 3860.731
442.5401, 3862.330
443.0222, 3866.647
443.5043, 3871.528
443.9865, 3875.060
444.4686, 3877.251
444.9507, 3878.432
445.4328, 3878.721
445.9149, 3878.092
446.3970, 3876.003
446.8792, 3871.110
447.3613, 3868.712
447.8434, 3872.233
448.3255, 3878.126
448.8076, 3881.604
449.2897, 3882.008
449.7719, 3882.722
450.2540, 3887.396
450.7361, 3896.375
451.2182, 3901.729
451.7003, 3901.708
452.1824, 3900.610
452.6646, 3899.242
453.1467, 3898.027
453.6288, 3897.558
454.1109, 3898.093
454.5930, 3899.237
455.0751, 3900.207
455.5573, 3900.802
456.0394, 3901.583
456.5215, 3901.977
457.0036, 3902.969
457.4857, 3905.321
457.9678, 3908.838
458.4500, 3912.805
458.9321, 3916.784
459.4142, 3920.705
459.8963, 3924.258
460.3784, 3927.658
460.8605, 3930.231
461.3427, 3930.801
461.8248, 3931.132
462.3069, 3933.253
462.7890, 3937.671
463.2711, 3942.485
463.7532, 3945.921
464.2354, 3948.039
464.7175, 3948.937
465.1996, 3947.309
465.6817, 3946.619
466.1638, 3950.282
466.6459, 3956.733
467.1281, 3962.060
467.6102, 3964.405
468.0923, 3965.539
468.5744, 3966.960
469.0565, 3968.707
469.5386, 3971.302
470.0208, 3975.267
470.5029, 3979.754
470.9850, 3983.318
471.4671, 3986.007
471.9492, 3987.961
472.4313, 3989.249
472.9135, 3989.807
473.3956, 3988.921
473.8777, 3986.830
474.3598, 3985.607
474.8419, 3986.956
475.3240, 3990.636
475.8062, 3994.118
476.2883, 3998.573
476.7704, 4001.530
477.2525, 4001.342
477.7346, 3999.913
478.2167, 3999.249
478.6989, 3999.978
479.1810, 4001.858
479.6631, 4004.658
480.1452, 4008.446
480.6273, 4012.692
481.1094, 4017.700
481.5916, 4022.804
482.0737, 4028.198
482.5558, 4033.426
483.0379, 4037.979
483.5200, 4041.722
484.0021, 4044.152
484.4843, 4043.634
484.9664, 4039.113
485.4485, 4036.501
485.9306, 4038.944
486.4127, 4041.953
486.8948, 4041.639
487.3770, 4038.709
487.8591, 4037.672
488.3412, 4042.691
488.8233, 4050.840
489.3054, 4057.050
489.7875, 4061.365
490.2697, 4062.391
490.7518, 4056.893
491.2339, 4049.010
491.7160, 4047.122
492.1981, 4053.082
492.6802, 4059.621
493.1624, 4065.110
493.6445, 4068.752
494.1266, 4067.944
494.6087, 4062.423
495.0908, 4057.740
495.5729, 4059.127
496.0551, 4066.521
496.5372, 4072.446
497.0193, 4076.081
497.5014, 4079.434
497.9835, 4083.679
498.4656, 4087.828
498.9478, 4090.292
499.4299, 4090.605
499.9120, 4089.890
500.3941, 4089.828
500.8762, 4090.821
501.3583, 4090.832
501.8405, 4088.157
502.3226, 4086.225
502.8047, 4085.616
503.2868, 4086.755
503.7689, 4090.749
504.2510, 4098.597
504.7331, 4107.654
505.2152, 4113.176
505.6974, 4114.892
506.1795, 4114.702
506.6616, 4110.588
507.1437, 4106.995
507.6258, 4107.264
508.1079, 4111.042
508.5901, 4115.960
509.0722, 4122.565
509.5543, 4128.829
510.0364, 4131.134
510.5185, 4129.532
511.0006, 4127.920
511.4828, 4127.795
511.9649, 4129.063
512.4470, 4131.748
512.9291, 4136.327
513.4113, 4140.393
513.8934, 4142.253
514.3755, 4143.915
514.8576, 4148.129
515.3397, 4154.712
515.8218, 4160.543
516.3040, 4163.175
516.7861, 4163.110
517.2682, 4163.987
517.7503, 4168.275
518.2324, 4170.351
518.7145, 4166.572
519.1967, 4162.241
519.6788, 4162.999
520.1609, 4169.345
520.6430, 4176.992
521.1251, 4181.728
521.6072, 4183.649
522.0894, 4185.281
522.5715, 4185.843
523.0536, 4187.412
523.5357, 4192.063
524.0178, 4197.353
524.4999, 4200.151
524.9821, 4199.506
525.4642, 4198.142
525.9463, 4198.363
526.4284, 4199.965
526.9105, 4201.588
527.3926, 4202.322
527.8748, 4205.373
528.3569, 4215.678
528.8390, 4230.601
529.3211, 4241.067
529.8032, 4245.755
530.2853, 4246.278
530.7675, 4240.286
531.2496, 4231.267
531.7317, 4226.553
532.2138, 4228.296
532.6959, 4232.446
533.1780, 4233.923
533.6602, 4231.969
534.1423, 4232.043
534.6244, 4234.800
535.1065, 4238.485
535.5886, 4242.532
536.0707, 4247.024
536.5529, 4252.391
537.0350, 4258.736
537.5171, 4265.340
537.9992, 4271.230
538.4813, 4276.625
538.9634, 4280.056
539.4456, 4278.435
539.9277, 4278.233
540.4098, 4283.525
540.8919, 4292.196
541.3740, 4300.103
541.8561, 4305.902
542.3383, 4309.720
542.8204, 4310.613
543.3025, 4308.997
543.7846, 4309.241
544.2667, 4313.215
544.7488, 4317.765
545.2310, 4319.681
545.7131, 4319.155
546.1952, 4316.834
546.6773, 4310.371
547.1594, 4304.407
547.6415, 4301.569
548.1237, 4301.663
548.6058, 4303.982
549.0879, 4308.257
549.5700, 4314.434
550.0521, 4322.917
550.5342, 4335.990
551.0164, 4344.124
551.4985, 4344.260
551.9806, 4343.362
552.4627, 4344.013
552.9448, 4345.976
553.4269, 4348.219
553.9091, 4350.228
554.3912, 4352.478
554.8733, 4356.010
555.3554, 4361.072
555.8375, 4365.749
556.3196, 4370.353
556.8018, 4373.748
557.2839, 4374.602
557.7660, 4373.763
558.2481, 4373.617
558.7302, 4375.107
559.2123, 4377.515
559.6945, 4380.070
560.1766, 4382.895
560.6587, 4387.031
561.1408, 4393.406
561.6229, 4399.153
562.1050, 4400.104
562.5872, 4395.210
563.0693, 4393.073
563.5514, 4395.242
564.0335, 4398.743
564.5156, 4403.071
564.9977, 4407.432
565.4799, 4410.019
565.9620, 4410.179
566.4441, 4410.388
566.9262, 4415.024
567.4083, 4425.625
567.8904, 4434.346
568.3726, 4439.238
568.8547, 4444.159
569.3368, 4452.094
569.8189, 4460.495
570.3010, 4464.489
570.7831, 4461.682
571.2653, 4457.375
571.7474, 4458.615
572.2295, 4464.534
572.7116, 4467.577
573.1937, 4465.323
573.6758, 4463.078
574.1580, 4465.727
574.6401, 4472.183
575.1222, 4478.186
575.6043, 4483.466
576.0864, 4488.082
576.5685, 4491.497
577.0507, 4494.394
577.5328, 4498.633
578.0149, 4504.492
578.4970, 4508.943
578.9791, 4508.226
579.4612, 4502.017
579.9434, 4499.003
580.4255, 4499.858
580.9076, 4503.312
581.3897, 4512.589
581.8718, 4522.597
582.3539, 4526.959
582.8361, 4524.688
583.3182, 4521.397
583.8003, 4522.708
584.2824, 4528.058
584.7645, 4533.363
585.2466, 4538.552
585.7288, 4543.896
586.2108, 4550.641
586.6929, 4557.036
587.1750, 4559.650
587.6572, 4556.895
588.1393, 4556.227
588.6214, 4563.060
589.1035, 4572.875
589.5856, 4580.101
590.0677, 4584.167
590.5499, 4585.885
591.0320, 4585.226
591.5141, 4583.459
591.9962, 4585.354
592.4783, 4595.710
592.9604, 4603.046
593.4426, 4607.170
593.9247, 4608.417
594.4068, 4604.683
594.8889, 4598.061
595.3710, 4594.234
595.8531, 4597.153
596.3353, 4604.660
596.8174, 4611.872
597.2995, 4618.601
597.7816, 4626.415
598.2637, 4639.097
598.7458, 4649.065
599.2280, 4647.952
599.7101, 4637.905
600.1922, 4630.723
600.6743, 4632.472
601.1564, 4636.456
601.6385, 4635.855
602.1207, 4632.770
602.6028, 4634.513
603.0849, 4643.796
603.5670, 4654.757
604.0491, 4659.499
604.5313, 4656.536
605.0134, 4656.475
605.4955, 4660.916
605.9776, 4665.999
606.4597, 4670.663
606.9418, 4675.218
607.4240, 4680.606
607.9061, 4686.924
608.3882, 4692.360
608.8703, 4694.687
609.3524, 4694.088
609.8345, 4692.106
610.3167, 4687.236
610.7988, 4684.843
611.2809, 4688.824
611.7630, 4696.400
612.2451, 4704.316
612.7272, 4712.650
613.2094, 4719.739
613.6915, 4726.142
614.1736, 4730.157
614.6557, 4726.383
615.1378, 4716.423
615.6199, 4712.573
616.1021, 4723.255
616.5842, 4742.539
617.0663, 4753.201
617.5484, 4746.944
618.0305, 4746.094
618.5126, 4756.367
618.9948, 4766.190
619.4769, 4767.586
619.9590, 4763.229
620.4411, 4760.496
620.9232, 4763.289
621.4053, 4768.550
621.8875, 4770.959
622.3696, 4770.597
622.8517, 4772.965
623.3338, 4780.254
623.8159, 4788.002
624.2980, 4792.791
624.7802, 4795.055
625.2623, 4795.860
625.7444, 4792.599
626.2265, 4791.411
626.7086, 4796.487
627.1907, 4804.798
627.6729, 4812.835
628.1550, 4819.615
628.6371, 4824.243
629.1192, 4825.685
629.6013, 4824.367
630.0834, 4823.742
630.5656, 4823.802
631.0477, 4824.595
631.5298, 4824.955
632.0119, 4826.811
632.4940, 4832.307
632.9761, 4840.954
633.4583, 4849.919
633.9404, 4858.499
634.4225, 4865.616
634.9046, 4868.437
635.3867, 4867.388
635.8688, 4868.118
636.3510, 4873.004
636.8331, 4878.817
637.3152, 4881.320
637.7973, 4880.064
638.2794, 4881.014
638.7615, 4886.985
639.2437, 4892.138
639.7258, 4892.001
640.2079, 4890.413
640.6900, 4893.956
641.1721, 4903.702
641.6542, 4913.438
642.1364, 4915.800
642.6185, 4911.562
643.1006, 4911.155
643.5827, 4915.868
644.0648, 4921.526
644.5469, 4927.044
645.0291, 4932.630
645.5112, 4938.656
645.9933, 4945.125
646.4754, 4951.251
646.9575, 4957.208
647.4396, 4962.252
647.9218, 4964.590
648.4039, 4965.073
648.8860, 4967.858
649.3681, 4974.968
649.8502, 4982.386
650.3323, 4983.463
650.8145, 4975.805
651.2966, 4972.832
651.7787, 4977.546
652.2608, 4983.250
652.7429, 4989.290
653.2250, 4994.547
653.7072, 4997.085
654.1893, 4996.618
654.6714, 4996.353
655.1535, 4999.206
655.6356, 5004.670
656.1177, 5011.992
656.5999, 5021.625
657.0820, 5028.726
657.5641, 5030.172
658.0462, 5028.628
658.5283, 5028.894
659.0104, 5031.102
659.4926, 5033.908
659.9747, 5037.127
660.4568, 5040.880
660.9389, 5046.256
661.4210, 5052.030
661.9031, 5055.190
662.3853, 5054.673
662.8674, 5053.569
663.3495, 5056.608
663.8316, 5064.110
664.3137, 5070.389
664.7958, 5074.963
665.2780, 5079.108
665.7601, 5083.274
666.2422, 5087.385
666.7243, 5090.592
667.2064, 5092.394
667.6885, 5097.251
668.1707, 5112.473
668.6528, 5128.409
669.1349, 5132.744
669.6170, 5127.049
670.0991, 5120.311
670.5812, 5116.605
671.0634, 5115.028
671.5455, 5113.827
672.0276, 5112.278
672.5097, 5114.025
672.9918, 5123.345
673.4739, 5131.326
673.9561, 5134.189
674.4382, 5134.625
674.9203, 5136.028
675.4024, 5139.232
675.8845, 5143.426
676.3666, 5149.409
676.8488, 5155.484
677.3309, 5156.917
677.8130, 5153.599
678.2951, 5151.391
678.7772, 5152.934
679.2593, 5157.358
679.7415, 5163.431
680.2236, 5172.197
680.7057, 5179.245
681.1878, 5185.602
681.6699, 5189.196
682.1520, 5186.069
682.6342, 5180.710
683.1163, 5180.072
683.5984, 5186.098
684.0805, 5194.368
684.5626, 5200.477
685.0447, 5204.773
685.5269, 5209.109
686.0090, 5213.450
686.4911, 5218.354
686.9732, 5224.792
687.4553, 5231.288
687.9374, 5234.892
688.4196, 5235.194
688.9017, 5237.067
689.3838, 5243.464
689.8659, 5249.460
690.3480, 5251.524
690.8301, 5251.308
691.3123, 5251.474
691.7944, 5253.010
692.2765, 5256.029
692.7586, 5260.800
693.2407, 5267.258
693.7228, 5274.869
694.2050, 5285.120
694.6871, 5292.554
695.1692, 5293.911
695.6513, 5292.440
696.1334, 5290.718
696.6155, 5288.843
697.0977, 5289.627
697.5798, 5295.327
698.0619, 5302.630
698.5440, 5309.062
699.0261, 5315.290
699.5082, 5324.255
699.9904, 5336.312
700.4725, 5345.152
700.9546, 5342.262
701.4367, 5329.052
701.9188, 5328.250
702.4009, 5348.330
702.8831, 5363.995
703.3652, 5366.604
703.8473, 5364.261
704.3294, 5361.018
704.8115, 5357.684
705.2936, 5356.620
705.7758, 5359.618
706.2579, 5364.384
706.7400, 5370.209
707.2221, 5376.167
707.7042, 5379.239
708.1863, 5378.981
708.6685, 5380.482
709.1506, 5389.188
709.6327, 5403.472
710.1148, 5410.550
710.5969, 5405.188
711.0790, 5402.154
711.5612, 5403.721
712.0433, 5407.726
712.5254, 5414.697
713.0075, 5423.079
713.4896, 5428.392
713.9717, 5427.331
714.4539, 5425.657
714.9360, 5429.069
715.4181, 5435.642
715.9002, 5440.994
716.3823, 5444.458
716.8644, 5447.443
717.3466, 5450.842
717.8287, 5454.735
718.3108, 5459.556
718.7929, 5466.247
719.2750, 5472.013
719.7571, 5477.106
720.2393, 5480.956
720.7214, 5482.326
721.2035, 5482.419
721.6856, 5483.565
722.1677, 5486.662
722.6498, 5490.129
723.1320, 5491.945
723.6141, 5493.412
724.0962, 5497.475
724.5783, 5504.233
725.0604, 5511.597
725.5425, 5518.663
726.0247, 5525.049
726.5068, 5529.978
726.9889, 5533.020
727.4710, 5535.943
727.9531, 5538.997
728.4352, 5541.688
728.9174, 5542.617
729.3995, 5543.685
729.8816, 5547.536
730.3637, 5554.681
730.8458, 5562.667
731.3279, 5570.712
731.8101, 5578.074
732.2922, 5583.328
732.7743, 5586.632
733.2564, 5588.505
733.7385, 5588.755
734.2206, 5590.472
734.7028, 5598.545
735.1849, 5613.830
735.6670, 5622.401
736.1491, 5616.822
736.6312, 5613.942
737.1133, 5617.952
737.5955, 5624.630
738.0776, 5631.536
738.5597, 5637.780
739.0418, 5641.288
739.5239, 5638.530
740.0060, 5635.658
740.4882, 5640.490
740.9703, 5651.093
741.4524, 5662.350
741.9345, 5673.146
742.4166, 5681.845
742.8987, 5687.055
743.3809, 5688.973
743.8630, 5688.177
744.3451, 5679.279
744.8272, 5677.578
745.3093, 5690.442
745.7914, 5703.795
746.2736, 5709.604
746.7557, 5710.354
747.2378, 5711.825
747.7199, 5715.672
748.2020, 5721.131
748.6841, 5728.759
749.1663, 5737.171
749.6484, 5744.219
750.1305, 5749.717
750.6126, 5753.625
751.0947, 5755.813
751.5768, 5757.035
752.0590, 5758.423
752.5411, 5759.629
753.0232, 5762.865
753.5053, 5769.381
753.9874, 5776.343
754.4695, 5784.778
754.9517, 5792.073
755.4338, 5794.168
755.9159, 5790.932
756.3980, 5789.246
756.8801, 5794.153
757.3622, 5800.482
757.8444, 5801.801
758.3265, 5800.728
758.8086, 5804.669
759.2907, 5815.155
759.7728, 5826.008
760.2549, 5830.941
760.7371, 5831.111
761.2192, 5833.705
761.7013, 5839.790
762.1834, 5845.550
762.6655, 5850.553
763.1476, 5854.852
763.6298, 5858.854
764.1119, 5862.260
764.5940, 5864.002
765.0761, 5862.525
765.5582, 5862.150
766.0403, 5864.667
766.5225, 5869.575
767.0046, 5877.727
767.4867, 5887.915
767.9688, 5896.288
768.4509, 5900.872
768.9330, 5903.493
769.4152, 5906.554
769.8973, 5909.962
770.3794, 5916.422
770.8615, 5927.689
771.3436, 5937.082
771.8257, 5940.000
772.3079, 5940.604
772.7900, 5945.819
773.2721, 5956.222
773.7542, 5963.547
774.2363, 5963.418
774.7184, 5963.403
775.2006, 5968.295
775.6827, 5975.118
776.1648, 5979.440
776.6469, 5980.824
777.1290, 5982.331
777.6111, 5986.390
778.0933, 5992.062
778.5754, 5997.341
779.0575, 6002.240
779.5396, 6006.826
780.0217, 6011.010
780.5038, 6015.241
780.9860, 6019.802
781.4681, 6024.706
781.9502, 6030.170
782.4323, 6036.741
782.9144, 6042.955
783.3965, 6050.389
783.8787, 6055.807
784.3608, 6055.183
784.8429, 6051.925
785.3250, 6052.018
785.8071, 6057.356
786.2892, 6064.985
786.7714, 6073.790
787.2535, 6082.581
787.7356, 6089.350
788.2177, 6094.044
788.6998, 6096.169
789.1819, 6095.214
789.6641, 6094.792
790.1462, 6099.580
790.6283, 6109.556
791.1104, 6118.531
791.5925, 6125.713
792.0746, 6133.164
792.5568, 6141.299
793.0389, 6149.777
793.5210, 6159.015
794.0031, 6168.438
794.4852, 6176.048
794.9673, 6180.548
795.4495, 6184.544
795.9316, 6190.675
796.4137, 6196.585
796.8958, 6198.088
797.3779, 6196.048
797.8600, 6195.234
798.3422, 6198.089
798.8243, 6203.351
799.3064, 6208.838
799.7885, 6214.480
800.2706, 6222.896
800.7527, 6235.611
801.2349, 6246.413
801.7170, 6253.813
802.1991, 6257.206
802.6812, 6252.607
803.1633, 6239.835
803.6454, 6236.037
804.1276, 6249.999
804.6097, 6264.461
805.0918, 6272.049
805.5739, 6277.765
806.0560, 6287.304
806.5381, 6300.574
807.0203, 6314.380
807.5024, 6327.609
807.9845, 6338.174
808.4666, 6341.436
808.9487, 6339.394
809.4308, 6339.657
809.9130, 6343.141
810.3951, 6348.683
810.8772, 6356.075
811.3593, 6364.016
811.8414, 6369.783
812.3235, 6372.539
812.8057, 6376.270
813.2878, 6383.302
813.7699, 6388.303
814.2520, 6386.596
814.7341, 6384.318
815.2162, 6387.507
815.6984, 6396.552
816.1805, 6408.489
816.6626, 6427.086
817.1447, 6443.085
817.6268, 6447.432
818.1089, 6445.640
818.5911, 6445.237
819.0732, 6447.881
819.5553, 6453.846
820.0374, 6463.688
820.5195, 6475.083
821.0016, 6482.903
821.4838, 6487.021
821.9659, 6492.259
822.4480, 6499.405
822.9301, 6505.947
823.4122, 6509.580
823.8943, 6512.744
824.3765, 6520.131
824.8586, 6532.674
825.3407, 6544.547
825.8228, 6558.380
826.3049, 6568.034
826.7870, 6565.466
827.2692, 6561.671
827.7513, 6570.494
828.2334, 6590.626
828.7155, 6607.729
829.1976, 6612.960
829.6797, 6614.176
830.1619, 6619.610
830.6440, 6627.923
831.1261, 6635.886
831.6082, 6643.160
832.0903, 6651.204
832.5724, 6661.076
833.0546, 6671.100
833.5367, 6677.628
834.0188, 6679.946
834.5009, 6683.524
834.9830, 6687.642
835.4651, 6694.610
835.9473, 6708.921
836.4294, 6723.586
836.9115, 6729.744
837.3936, 6727.899
837.8757, 6728.980
838.3578, 6735.978
838.8400, 6744.656
839.3221, 6755.969
839.8042, 6766.462
840.2863, 6771.594
840.7684, 6772.694
841.2505, 6775.210
841.7327, 6782.062
842.2148, 6789.361
842.6969, 6791.381
843.1790, 6790.335
843.6611, 6792.305
844.1432, 6797.615
844.6254, 6805.514
845.1075, 6816.008
845.5896, 6827.112
846.0717, 6836.553
846.5538, 6844.282
847.0359, 6848.384
847.5181, 6845.017
848.0002, 6845.509
848.4823, 6855.757
848.9644, 6867.104
849.4465, 6872.978
849.9286, 6875.159
850.4108, 6879.325
850.8929, 6887.213
851.3750, 6895.235
851.8571, 6902.494
852.3392, 6909.123
852.8214, 6916.068
853.3035, 6922.284
853.7856, 6924.827
854.2677, 6923.144
854.7498, 6921.847
855.2319, 6925.317
855.7141, 6932.306
856.1962, 6941.222
856.6783, 6951.484
857.1604, 6959.063
857.6425, 6962.851
858.1246, 6964.659
858.6068, 6965.364
859.0889, 6965.995
859.5710, 6970.728
860.0531, 6981.381
860.5352, 6991.475
861.0173, 7001.998
861.4995, 7010.276
861.9816, 7014.394
862.4637, 7016.063
862.9458, 7016.797
863.4279, 7016.532
863.9100, 7018.331
864.3922, 7023.792
864.8743, 7030.534
865.3564, 7038.980
865.8385, 7046.901
866.3206, 7050.745
866.8027, 7051.168
867.2849, 7052.720
867.7670, 7058.427
868.2491, 7064.568
868.7312, 7064.950
869.2133, 7062.064
869.6954, 7063.466
870.1776, 7069.495
870.6597, 7076.185
871.1418, 7081.858
871.6239, 7086.684
872.1060, 7091.029
872.5881, 7094.893
873.0703, 7096.332
873.5524, 7092.994
874.0345, 7093.569
874.5166, 7103.417
874.9987, 7113.867
875.4808, 7117.556
875.9630, 7116.322
876.4451, 7115.118
876.9272, 7113.053
877.4093, 7113.551
877.8914, 7121.077
878.3735, 7127.464
878.8557, 7125.144
879.3378, 7119.472
879.8199, 7119.575
880.3020, 7127.044
880.7841, 7135.319
881.2662, 7140.995
881.7484, 7144.144
882.2305, 7141.967
882.7126, 7137.940
883.1947, 7142.089
883.6768, 7154.827
884.1589, 7166.299
884.6411, 7170.021
885.1232, 7169.608
885.6053, 7172.290
886.0874, 7178.181
886.5695, 7183.032
887.0516, 7187.078
887.5338, 7188.042
888.0159, 7182.973
888.4980, 7177.891
888.9801, 7181.257
889.4622, 7193.043
889.9443, 7199.045
890.4265, 7192.942
890.9086, 7190.229
891.3907, 7194.952
891.8728, 7200.915
892.3549, 7203.399
892.8370, 7204.569
893.3192, 7209.903
893.8013, 7221.367
894.2834, 7230.354
894.7655, 7229.470
895.2476, 7227.428
895.7297, 7231.805
896.2119, 7240.082
896.6940, 7247.827
897.1761, 7254.101
897.6582, 7260.048
898.1403, 7266.519
898.6224, 7273.005
899.1046, 7278.022
899.5867, 7282.291
900.0688, 7290.999
900.5509, 7304.356
901.0330, 7311.165
901.5151, 7305.263
901.9973, 7295.207
902.4794, 7293.781
902.9615, 7301.000
903.4436, 7306.683
903.9257, 7310.093
904.4078, 7314.075
904.8900, 7319.915
905.3721, 7325.651
905.8542, 7329.715
906.3363, 7332.519
906.8184, 7334.622
907.3005, 7332.917
907.7827, 7338.327
908.2648, 7361.463
908.7469, 7381.651
909.2290, 7385.916
909.7111, 7383.221
910.1932, 7384.276
910.6754, 7390.673
911.1575, 7399.376
911.6396, 7409.930
912.1217, 7420.666
912.6038, 7431.673
913.0859, 7441.128
913.5681, 7444.140
914.0502, 7442.898
914.5323, 7446.837
915.0143, 7459.947
915.4965, 7473.955
915.9786, 7478.805
916.4607, 7476.526
916.9428, 7473.591
917.4249, 7470.142
917.9070, 7467.668
918.3892, 7466.545
918.8713, 7467.123
919.3534, 7470.194
919.8355, 7474.355
920.3176, 7474.074
920.7997, 7465.827
921.2819, 7467.626
921.7640, 7487.485
922.2461, 7501.967
922.7282, 7497.155
923.2103, 7486.292
923.6924, 7486.584
924.1746, 7497.221
924.6567, 7503.980
925.1388, 7503.919
925.6209, 7503.071
926.1030, 7501.235
926.5851, 7500.028
927.0673, 7500.051
927.5494, 7501.607
928.0315, 7506.085
928.5136, 7513.947
928.9957, 7519.381
929.4778, 7517.015
929.9600, 7513.370
930.4421, 7514.062
930.9242, 7516.923
931.4063, 7518.739
931.8884, 7518.995
932.3705, 7518.060
932.8527, 7515.919
933.3348, 7514.415
933.8169, 7516.722
934.2990, 7521.393
934.7811, 7524.427
935.2632, 7525.823
935.7454, 7526.826
936.2275, 7527.843
936.7096, 7528.950
937.1917, 7530.259
937.6738, 7531.653
938.1559, 7532.268
938.6381, 7531.680
939.1202, 7533.806
939.6023, 7539.477
940.0844, 7546.630
940.5665, 7555.778
941.0486, 7563.501
941.5308, 7562.704
942.0129, 7551.651
942.4950, 7551.212
942.9771, 7573.580
943.4592, 7588.067
943.9413, 7584.044
944.4235, 7577.401
944.9056, 7578.187
945.3877, 7583.616
945.8698, 7587.089
946.3519, 7587.355
946.8340, 7587.718
947.3162, 7587.808
947.7983, 7589.646
948.2804, 7596.194
948.7625, 7603.838
949.2446, 7608.394
949.7267, 7609.935
950.2089, 7610.896
950.6910, 7611.884
951.1731, 7614.175
951.6552, 7620.080
952.1373, 7626.886
952.6194, 7630.680
953.1016, 7632.540
953.5837, 7635.891
954.0658, 7641.501
954.5479, 7647.116
955.0300, 7650.676
955.5121, 7653.575
955.9943, 7658.831
956.4764, 7665.702
956.9585, 7671.244
957.4406, 7675.202
957.9227, 7678.465
958.4048, 7681.409
958.8870, 7684.380
959.3691, 7687.703
959.8512, 7691.486
960.3333, 7697.183
960.8154, 7705.279
961.2975, 7711.328
961.7797, 7713.995
962.2618, 7716.286
962.7439, 7720.174
963.2260, 7724.920
963.7081, 7729.163
964.1902, 7733.310
964.6724, 7734.642
965.1545, 7729.306
965.6366, 7727.674
966.1187, 7735.541
966.6008, 7744.713
967.0829, 7747.565
967.5651, 7746.759
968.0472, 7751.003
968.5293, 7764.474
969.0114, 7773.260
969.4935, 7771.634
969.9756, 7769.553
970.4578, 7770.458
970.9399, 7773.841
971.4220, 7779.309
971.9041, 7786.528
972.3862, 7794.751
972.8683, 7804.503
973.3505, 7813.334
973.8326, 7818.516
974.3147, 7823.587
974.7968, 7833.604
975.2789, 7845.089
975.7610, 7851.234
976.2432, 7851.036
976.7253, 7849.107
977.2074, 7846.886
977.6895, 7847.009
978.1716, 7854.076
978.6537, 7864.607
979.1359, 7873.013
979.6180, 7879.183
980.1001, 7885.069
980.5822, 7891.443
981.0643, 7897.678
981.5464, 7902.794
982.0286, 7907.668
982.5107, 7914.259
982.9928, 7922.338
983.4749, 7931.454
983.9570, 7941.329
984.4391, 7949.582
984.9213, 7954.825
985.4034, 7958.797
985.8855, 7964.143
986.3676, 7970.575
986.8497, 7974.778
987.3318, 7976.259
987.8140, 7981.588
988.2961, 7992.604
988.7782, 8005.162
989.2603, 8017.350
989.7424, 8028.088
990.2245, 8035.370
990.7067, 8039.229
991.1888, 8038.876
991.6709, 8031.244
992.1530, 8026.992
992.6351, 8029.340
993.1172, 8034.635
993.5994, 8040.213
994.0815, 8046.548
994.5636, 8055.487
995.0457, 8069.453
995.5278, 8078.998
996.0099, 8079.787
996.4921, 8081.797
996.9742, 8091.049
997.4563, 8099.485
997.9384, 8097.647
998.4205, 8089.067
998.9026, 8087.023
999.3848, 8096.018
999.8669, 8104.042
1000.349, 8109.855
1000.831, 8112.998
1001.313, 8111.180
1001.795, 8108.102
1002.277, 8107.826
1002.760, 8110.256
1003.242, 8112.599
1003.724, 8113.186
1004.206, 8115.750
1004.688, 8124.911
1005.170, 8133.912
1005.652, 8136.072
1006.134, 8135.396
1006.617, 8138.742
1007.099, 8146.444
1007.581, 8153.018
1008.063, 8154.740
1008.545, 8157.095
1009.027, 8166.525
1009.509, 8177.407
1009.991, 8181.807
1010.473, 8182.591
1010.956, 8187.788
1011.438, 8198.449
1011.920, 8207.014
1012.402, 8207.071
1012.884, 8205.820
1013.366, 8212.848
1013.848, 8224.544
1014.330, 8234.401
1014.813, 8242.430
1015.295, 8251.424
1015.777, 8261.949
1016.259, 8269.970
1016.741, 8271.079
1017.223, 8269.729
1017.705, 8274.797
1018.187, 8284.436
1018.669, 8292.393
1019.152, 8298.229
1019.634, 8303.116
1020.116, 8307.536
1020.598, 8311.032
1021.080, 8312.302
1021.562, 8313.691
1022.044, 8324.436
1022.526, 8343.006
1023.008, 8351.288
1023.491, 8347.499
1023.973, 8344.725
1024.455, 8348.299
1024.937, 8356.243
1025.419, 8366.834
1025.901, 8379.336
1026.383, 8390.894
1026.865, 8401.576
1027.348, 8409.682
1027.830, 8414.854
1028.312, 8418.563
1028.794, 8421.417
1029.276, 8423.073
1029.758, 8422.407
1030.240, 8420.283
1030.722, 8424.452
1031.204, 8437.272
1031.687, 8444.713
1032.169, 8441.926
1032.651, 8445.004
1033.133, 8464.968
1033.615, 8488.146
1034.097, 8495.479
1034.579, 8488.347
1035.061, 8488.496
1035.544, 8500.647
1036.026, 8507.209
1036.508, 8502.131
1036.990, 8500.071
1037.472, 8509.831
1037.954, 8524.033
1038.436, 8533.118
1038.918, 8537.237
1039.401, 8541.696
1039.883, 8547.850
1040.365, 8551.704
1040.847, 8551.299
1041.329, 8550.831
1041.811, 8550.935
1042.293, 8552.826
1042.775, 8558.676
1043.257, 8568.393
1043.740, 8577.603
1044.222, 8584.061
1044.704, 8593.573
1045.186, 8612.728
1045.668, 8627.806
1046.150, 8631.177
1046.632, 8628.335
1047.114, 8623.572
1047.596, 8617.678
1048.079, 8617.923
1048.561, 8629.739
1049.043, 8640.323
1049.525, 8646.324
1050.007, 8652.854
1050.489, 8664.615
1050.971, 8676.774
1051.453, 8682.854
1051.936, 8683.229
1052.418, 8684.095
1052.900, 8685.923
1053.382, 8689.227
1053.864, 8693.632
1054.346, 8700.128
1054.828, 8712.696
1055.310, 8725.381
1055.792, 8727.429
1056.275, 8721.501
1056.757, 8727.197
1057.239, 8758.443
1057.721, 8781.521
1058.203, 8781.241
1058.685, 8777.317
1059.167, 8779.322
1059.649, 8784.460
1060.131, 8789.911
1060.614, 8794.816
1061.096, 8797.024
1061.578, 8793.163
1062.060, 8794.022
1062.542, 8807.204
1063.024, 8821.580
1063.506, 8833.236
1063.988, 8840.935
1064.471, 8842.101
1064.953, 8838.298
1065.435, 8834.974
1065.917, 8833.104
1066.399, 8833.583
1066.881, 8837.760
1067.363, 8843.265
1067.845, 8848.017
1068.328, 8853.909
1068.810, 8864.264
1069.292, 8877.620
1069.774, 8889.315
1070.256, 8898.158
1070.738, 8904.835
1071.220, 8906.183
1071.702, 8909.454
1072.184, 8922.886
1072.667, 8937.215
1073.149, 8940.745
1073.631, 8936.891
1074.113, 8936.650
1074.595, 8943.027
1075.077, 8951.188
1075.559, 8959.558
1076.041, 8968.286
1076.523, 8981.073
1077.006, 8991.137
1077.488, 8987.281
1077.970, 8976.625
1078.452, 8976.374
1078.934, 8990.548
1079.416, 9004.814
1079.898, 9011.132
1080.380, 9018.167
1080.862, 9036.189
1081.345, 9051.880
1081.827, 9048.534
1082.309, 9035.620
1082.791, 9032.030
1083.273, 9041.051
1083.755, 9051.854
1084.237, 9062.345
1084.719, 9070.281
1085.202, 9072.283
1085.684, 9073.565
1086.166, 9078.735
1086.648, 9085.864
1087.130, 9091.091
1087.612, 9094.282
1088.094, 9099.395
1088.576, 9109.643
1089.058, 9118.490
1089.541, 9121.377
1090.023, 9123.744
1090.505, 9129.920
1090.987, 9137.615
1091.469, 9143.869
1091.951, 9148.393
1092.433, 9151.699
1092.915, 9152.572
1093.397, 9156.173
1093.880, 9166.111
1094.362, 9177.425
1094.844, 9189.030
1095.326, 9198.938
1095.808, 9202.998
1096.290, 9203.674
1096.772, 9209.577
1097.254, 9224.161
1097.737, 9236.506
1098.219, 9241.863
1098.701, 9245.457
1099.183, 9248.333
1099.665, 9251.694
1100.147, 9258.161
1100.629, 9265.494
1101.111, 9267.519
1101.594, 9262.574
1102.076, 9262.393
1102.558, 9275.167
1103.040, 9286.263
1103.522, 9290.038
1104.004, 9291.524
1104.486, 9292.316
1104.968, 9294.209
1105.450, 9301.284
1105.932, 9313.511
1106.415, 9320.481
1106.897, 9311.925
1107.379, 9310.214
1107.861, 9325.947
1108.343, 9342.128
1108.825, 9349.691
1109.307, 9353.007
1109.789, 9355.515
1110.272, 9358.432
1110.754, 9368.353
1111.236, 9393.983
1111.718, 9410.663
1112.200, 9410.856
1112.682, 9408.787
1113.164, 9407.424
1113.646, 9407.656
1114.129, 9411.385
1114.611, 9417.313
1115.093, 9420.556
1115.575, 9418.802
1116.057, 9421.611
1116.539, 9432.744
1117.021, 9442.813
1117.503, 9450.899
1117.985, 9456.163
1118.468, 9454.489
1118.950, 9451.608
1119.432, 9459.543
1119.914, 9479.496
1120.396, 9495.163
1120.878, 9504.626
1121.360, 9513.854
1121.842, 9523.790
1122.324, 9532.920
1122.807, 9540.246
1123.289, 9546.704
1123.771, 9553.243
1124.253, 9560.034
1124.735, 9569.292
1125.217, 9584.150
1125.699, 9589.518
1126.181, 9580.391
1126.664, 9575.516
1127.146, 9582.124
1127.628, 9592.957
1128.110, 9601.362
1128.592, 9608.908
1129.074, 9621.184
1129.556, 9639.141
1130.038, 9650.413
1130.521, 9654.124
1131.003, 9656.636
1131.485, 9659.005
1131.967, 9663.234
1132.449, 9671.171
1132.931, 9679.109
1133.413, 9679.303
1133.895, 9674.171
1134.377, 9683.705
1134.859, 9707.229
1135.342, 9720.662
1135.824, 9721.001
1136.306, 9724.619
1136.788, 9738.834
1137.270, 9751.656
1137.752, 9748.497
1138.234, 9738.771
1138.716, 9747.188
1139.199, 9769.605
1139.681, 9790.030
1140.163, 9806.870
1140.645, 9818.107
1141.127, 9823.387
1141.609, 9824.504
1142.091, 9822.265
1142.573, 9819.567
1143.056, 9820.294
1143.538, 9823.583
1144.020, 9827.832
1144.502, 9833.128
1144.984, 9840.464
1145.466, 9849.318
1145.948, 9856.475
1146.430, 9860.684
1146.912, 9866.520
1147.395, 9879.832
1147.877, 9894.688
1148.359, 9902.417
1148.841, 9908.826
1149.323, 9925.470
1149.805, 9946.854
1150.287, 9957.825
1150.769, 9956.447
1151.251, 9955.985
1151.734, 9963.356
1152.216, 9973.265
1152.698, 9983.969
1153.180, 9993.909
1153.662, 9999.821
1154.144, 10005.40
1154.626, 10017.42
1155.108, 10033.58
1155.591, 10043.89
1156.073, 10044.44
1156.555, 10047.53
1157.037, 10059.09
1157.519, 10071.96
1158.001, 10086.50
1158.483, 10098.13
1158.965, 10101.02
1159.448, 10099.91
1159.930, 10103.40
1160.412, 10112.12
1160.894, 10118.81
1161.376, 10119.87
1161.858, 10123.26
1162.340, 10130.92
1162.822, 10139.35
1163.304, 10147.49
1163.786, 10155.67
1164.269, 10165.83
1164.751, 10175.92
1165.233, 10177.73
1165.715, 10166.78
1166.197, 10168.45
1166.679, 10188.57
1167.161, 10204.68
1167.643, 10210.72
1168.126, 10216.96
1168.608, 10230.19
1169.090, 10245.47
1169.572, 10255.35
1170.054, 10260.63
1170.536, 10267.36
1171.018, 10275.77
1171.500, 10279.46
1171.983, 10277.58
1172.465, 10280.00
1172.947, 10290.17
1173.429, 10304.84
1173.911, 10322.11
1174.393, 10338.30
1174.875, 10344.45
1175.357, 10343.93
1175.839, 10349.84
1176.322, 10361.16
1176.804, 10374.21
1177.286, 10387.28
1177.768, 10393.60
1178.250, 10390.48
1178.732, 10390.94
1179.214, 10411.92
1179.696, 10437.16
1180.178, 10443.96
1180.661, 10441.27
1181.143, 10440.06
1181.625, 10442.04
1182.107, 10449.34
1182.589, 10460.99
1183.071, 10470.47
1183.553, 10473.71
1184.035, 10478.15
1184.518, 10488.75
1185.000, 10501.88
1185.482, 10519.89
1185.964, 10535.12
1186.446, 10534.42
1186.928, 10525.97
1187.410, 10531.97
1187.892, 10556.62
1188.375, 10571.03
1188.857, 10555.34
1189.339, 10548.42
1189.821, 10566.23
1190.303, 10585.10
1190.785, 10593.09
1191.267, 10596.88
1191.749, 10604.95
1192.231, 10615.16
1192.714, 10618.11
1193.196, 10608.78
1193.678, 10613.02
1194.160, 10638.20
1194.642, 10656.18
1195.124, 10658.81
1195.606, 10661.62
1196.088, 10674.42
1196.570, 10689.24
1197.053, 10694.20
1197.535, 10692.08
1198.017, 10698.09
1198.499, 10711.91
1198.981, 10720.14
1199.463, 10722.11
1199.945, 10721.92
1200.427, 10721.10
1200.910, 10727.04
1201.392, 10745.47
1201.874, 10767.69
1202.356, 10782.55
1202.838, 10791.61
1203.320, 10795.93
1203.802, 10797.96
1204.284, 10802.77
1204.766, 10810.73
1205.249, 10821.44
1205.731, 10834.22
1206.213, 10845.22
1206.695, 10852.05
1207.177, 10856.47
1207.659, 10858.93
1208.141, 10860.43
1208.623, 10858.25
1209.105, 10858.23
1209.588, 10872.15
1210.070, 10894.07
1210.552, 10903.31
1211.034, 10893.66
1211.516, 10890.46
1211.998, 10902.66
1212.480, 10917.60
1212.962, 10939.52
1213.445, 10954.99
1213.927, 10950.55
1214.409, 10941.24
1214.891, 10943.26
1215.373, 10954.33
1215.855, 10964.19
1216.337, 10971.53
1216.819, 10984.02
1217.302, 11004.77
1217.784, 11017.64
1218.266, 11018.16
1218.748, 11015.49
1219.230, 11014.11
1219.712, 11014.78
1220.194, 11018.36
1220.676, 11024.89
1221.158, 11035.78
1221.641, 11049.94
1222.123, 11062.32
1222.605, 11072.18
1223.087, 11075.64
1223.569, 11073.41
1224.051, 11076.39
1224.533, 11090.91
1225.015, 11108.13
1225.497, 11119.16
1225.980, 11128.05
1226.462, 11140.91
1226.944, 11153.42
1227.426, 11156.58
1227.908, 11156.12
1228.390, 11167.60
1228.872, 11190.33
1229.354, 11201.65
1229.837, 11187.55
1230.319, 11179.83
1230.801, 11194.68
1231.283, 11211.08
1231.765, 11220.61
1232.247, 11227.69
1232.729, 11234.77
1233.211, 11242.54
1233.693, 11252.67
1234.176, 11265.03
1234.658, 11273.62
1235.140, 11275.93
1235.622, 11282.69
1236.104, 11295.61
1236.586, 11309.00
1237.068, 11321.86
1237.550, 11331.38
1238.032, 11334.80
1238.515, 11336.51
1238.997, 11344.59
1239.479, 11356.74
1239.961, 11362.64
1240.443, 11364.18
1240.925, 11370.51
1241.407, 11381.31
1241.889, 11390.45
1242.372, 11396.55
1242.854, 11404.17
1243.336, 11416.76
1243.818, 11428.17
1244.300, 11429.48
1244.782, 11430.34
1245.264, 11441.92
1245.746, 11457.23
1246.229, 11467.70
1246.711, 11474.99
1247.193, 11484.52
1247.675, 11496.75
1248.157, 11506.33
1248.639, 11509.04
1249.121, 11514.85
1249.603, 11533.52
1250.085, 11543.99
1250.568, 11528.58
1251.050, 11517.13
1251.532, 11533.72
1252.014, 11561.86
1252.496, 11573.82
1252.978, 11571.09
1253.460, 11569.70
1253.942, 11569.08
1254.424, 11576.32
1254.907, 11592.02
1255.389, 11610.45
1255.871, 11629.80
1256.353, 11643.09
1256.835, 11645.40
1257.317, 11645.31
1257.799, 11656.00
1258.281, 11669.55
1258.764, 11667.98
1259.246, 11661.03
1259.728, 11667.22
1260.210, 11682.90
1260.692, 11695.81
1261.174, 11704.44
1261.656, 11716.93
1262.138, 11738.64
1262.620, 11752.40
1263.103, 11738.97
1263.585, 11731.00
1264.067, 11749.03
1264.549, 11771.14
1265.031, 11781.48
1265.513, 11786.66
1265.995, 11796.22
1266.477, 11809.65
1266.959, 11825.09
1267.442, 11845.21
1267.924, 11854.67
1268.406, 11849.85
1268.888, 11851.24
1269.370, 11863.02
1269.852, 11880.36
1270.334, 11901.90
1270.816, 11915.35
1271.299, 11904.38
1271.781, 11885.70
1272.263, 11896.57
1272.745, 11924.80
1273.227, 11941.26
1273.709, 11949.34
1274.191, 11962.64
1274.673, 11979.51
1275.156, 11984.82
1275.638, 11974.51
1276.120, 11968.04
1276.602, 11976.21
1277.084, 11990.15
1277.566, 12009.84
1278.048, 12028.63
1278.530, 12044.53
1279.012, 12055.63
1279.495, 12055.38
1279.977, 12050.43
1280.459, 12057.03
1280.941, 12074.63
1281.423, 12088.42
1281.905, 12099.77
1282.387, 12108.65
##END=



