##NAMES=Caysichite-(Y)
##RRUFFID=R080143
##IDEAL CHEMISTRY=(Ca,Yb,Er)_4_Y_4_Si_8_O_20_(CO_3_)_6_(OH)&#183;7H_2_O
##LOCALITY=Mt. Malos, Zomba District, Malawi
##OWNER=RRUFF
##SOURCE=Mark Feinglos
##DESCRIPTION=Pale tan colored blocky crystals removed from aegirine matrix
##STATUS=The identification of this mineral has been confirmed by single-crystal X-ray diffraction.
##URL=rruff.info/R080143
93.78320, 134.3610
94.26532, 134.6042
94.74744, 135.1648
95.22955, 135.7050
95.71167, 136.2913
96.19379, 136.2732
96.67590, 135.9164
97.15802, 135.2411
97.64014, 134.0829
98.12225, 132.6394
98.60437, 131.2370
99.08649, 129.9842
99.56860, 128.9285
100.0507, 128.1568
100.5328, 127.5608
101.0150, 126.7885
101.4971, 125.3709
101.9792, 123.2530
102.4613, 121.6672
102.9434, 121.5019
103.4255, 121.8390
103.9077, 122.0500
104.3898, 121.9211
104.8719, 121.6631
105.3540, 121.7014
105.8361, 122.1259
106.3182, 122.7064
106.8004, 123.7095
107.2825, 124.7259
107.7646, 125.2543
108.2467, 124.9648
108.7288, 123.9091
109.2109, 122.7758
109.6931, 121.2630
110.1752, 119.9545
110.6573, 118.9099
111.1394, 118.1818
111.6215, 117.8790
112.1036, 118.1494
112.5858, 119.1023
113.0679, 119.8519
113.5500, 120.2551
114.0321, 120.5712
114.5142, 120.9598
114.9964, 121.4466
115.4785, 122.0070
115.9606, 122.5406
116.4427, 123.0442
116.9248, 123.9004
117.4069, 125.6245
117.8891, 127.7337
118.3712, 129.1599
118.8533, 129.3822
119.3354, 129.3427
119.8175, 129.9412
120.2996, 131.1309
120.7818, 132.4764
121.2639, 133.7362
121.7460, 134.9127
122.2281, 135.9230
122.7102, 136.4753
123.1923, 137.0353
123.6745, 137.8421
124.1566, 138.9390
124.6387, 140.2086
125.1208, 141.5280
125.6029, 143.0078
126.0850, 144.2810
126.5672, 145.1742
127.0493, 145.9720
127.5314, 146.8988
128.0135, 148.0491
128.4956, 149.3467
128.9777, 150.6067
129.4599, 151.4723
129.9420, 152.7054
130.4241, 154.6676
130.9062, 156.9906
131.3883, 159.1551
131.8705, 160.8930
132.3526, 162.2400
132.8347, 163.4269
133.3168, 164.1139
133.7989, 165.0114
134.2810, 166.5445
134.7632, 168.6203
135.2453, 170.7437
135.7274, 172.6696
136.2095, 174.3769
136.6916, 175.8964
137.1737, 177.0949
137.6559, 178.1920
138.1380, 179.5379
138.6201, 181.2483
139.1022, 182.6594
139.5843, 183.1928
140.0664, 183.1816
140.5486, 183.0182
141.0307, 182.9114
141.5128, 182.7604
141.9949, 182.2415
142.4770, 181.1557
142.9591, 179.9615
143.4413, 178.8709
143.9234, 177.8372
144.4055, 176.7381
144.8876, 175.3963
145.3697, 173.8089
145.8518, 172.7458
146.3340, 172.3672
146.8161, 172.4322
147.2982, 173.2503
147.7803, 174.5537
148.2624, 175.6738
148.7445, 175.8628
149.2267, 174.7104
149.7088, 174.3602
150.1909, 175.0716
150.6730, 176.1694
151.1551, 177.4231
151.6372, 178.7392
152.1194, 179.9709
152.6015, 180.9100
153.0836, 181.3177
153.5657, 182.1095
154.0478, 183.7193
154.5299, 185.5075
155.0121, 186.7772
155.4942, 187.3307
155.9763, 187.5900
156.4584, 188.1750
156.9405, 189.0935
157.4227, 190.0408
157.9048, 190.9985
158.3869, 191.9255
158.8690, 192.6662
159.3511, 193.0225
159.8332, 193.4527
160.3154, 194.5780
160.7975, 196.4098
161.2796, 198.2505
161.7617, 199.5688
162.2438, 200.4233
162.7259, 201.4689
163.2081, 202.8917
163.6902, 204.5684
164.1723, 206.5062
164.6544, 208.7146
165.1365, 210.8414
165.6186, 212.5274
166.1008, 213.7145
166.5829, 214.6823
167.0650, 215.1111
167.5471, 215.5749
168.0292, 216.5286
168.5113, 218.0626
168.9935, 219.7829
169.4756, 221.0279
169.9577, 221.5872
170.4398, 222.0347
170.9219, 222.2747
171.4040, 222.5163
171.8862, 223.0324
172.3683, 223.9049
172.8504, 224.8672
173.3325, 225.2878
173.8146, 224.6728
174.2967, 224.0300
174.7789, 223.5987
175.2610, 223.0869
175.7431, 222.0324
176.2252, 220.1881
176.7073, 217.9017
177.1894, 216.3505
177.6716, 215.8868
178.1537, 215.6121
178.6358, 215.4099
179.1179, 215.2796
179.6000, 215.2483
180.0821, 215.3702
180.5643, 215.5446
181.0464, 215.4496
181.5285, 214.8778
182.0106, 214.3853
182.4927, 214.3298
182.9749, 214.6169
183.4570, 214.8067
183.9391, 214.6235
184.4212, 214.2484
184.9033, 214.0919
185.3854, 214.2619
185.8676, 214.4827
186.3497, 214.5394
186.8318, 214.4290
187.3139, 214.2699
187.7960, 214.3115
188.2781, 214.2207
188.7603, 213.5622
189.2424, 212.1180
189.7245, 210.3809
190.2066, 209.0760
190.6887, 208.4068
191.1708, 207.4047
191.6530, 205.3094
192.1351, 202.9277
192.6172, 201.0228
193.0993, 199.9375
193.5814, 199.1850
194.0635, 197.7556
194.5457, 195.2547
195.0278, 192.8441
195.5099, 190.6209
195.9920, 188.6599
196.4741, 187.1209
196.9562, 186.0952
197.4384, 185.3624
197.9205, 184.2627
198.4026, 182.4756
198.8847, 180.7344
199.3668, 179.1837
199.8489, 177.7118
200.3311, 176.1999
200.8132, 174.5892
201.2953, 172.8829
201.7774, 171.1125
202.2595, 168.7676
202.7416, 166.9410
203.2238, 166.1073
203.7059, 165.7756
204.1880, 165.2220
204.6701, 164.0483
205.1522, 162.4310
205.6344, 161.1692
206.1165, 160.6623
206.5986, 159.9973
207.0807, 158.8763
207.5628, 157.4680
208.0449, 156.1014
208.5271, 154.9628
209.0092, 153.9701
209.4913, 152.7988
209.9734, 151.3169
210.4555, 149.8573
210.9376, 148.3992
211.4198, 147.0337
211.9019, 146.1225
212.3840, 146.1136
212.8661, 146.4384
213.3482, 145.5172
213.8303, 142.6295
214.3125, 139.7655
214.7946, 138.2503
215.2767, 137.8355
215.7588, 137.1928
216.2409, 135.6169
216.7230, 133.5352
217.2052, 131.7704
217.6873, 130.4216
218.1694, 129.2204
218.6515, 127.9993
219.1336, 126.7541
219.6157, 125.4890
220.0979, 124.0893
220.5800, 122.7489
221.0621, 121.6764
221.5442, 120.9187
222.0263, 120.3331
222.5084, 119.9123
222.9906, 119.6990
223.4727, 119.1488
223.9548, 117.5605
224.4369, 115.8889
224.9190, 114.8839
225.4011, 114.6953
225.8833, 114.8592
226.3654, 114.9023
226.8475, 114.8452
227.3296, 114.5609
227.8117, 113.6813
228.2938, 112.7819
228.7760, 112.2353
229.2581, 112.1130
229.7402, 112.2232
230.2223, 112.3602
230.7044, 112.5840
231.1866, 112.6355
231.6687, 112.3730
232.1508, 112.0259
232.6329, 111.6949
233.1150, 111.4129
233.5971, 111.2020
234.0793, 111.1048
234.5614, 111.1751
235.0435, 111.2318
235.5256, 111.2649
236.0077, 111.2898
236.4898, 111.3067
236.9720, 111.3203
237.4541, 111.3478
237.9362, 111.4239
238.4183, 111.6106
238.9004, 111.6860
239.3825, 111.6702
239.8647, 111.5529
240.3468, 111.2981
240.8289, 110.9154
241.3110, 110.4694
241.7931, 110.0155
242.2752, 109.4824
242.7574, 109.1909
243.2395, 109.3477
243.7216, 109.5529
244.2037, 109.5295
244.6858, 109.2584
245.1679, 108.9241
245.6501, 108.7284
246.1322, 108.7065
246.6143, 108.7103
247.0964, 108.8271
247.5785, 108.9026
248.0606, 108.7745
248.5428, 108.4594
249.0249, 108.1714
249.5070, 108.1431
249.9891, 108.4341
250.4712, 108.5338
250.9533, 108.4547
251.4355, 108.1927
251.9176, 107.6803
252.3997, 106.9416
252.8818, 106.1392
253.3639, 105.3811
253.8460, 104.6792
254.3282, 104.1279
254.8103, 103.8873
255.2924, 103.6670
255.7745, 103.2058
256.2566, 102.5278
256.7387, 101.9474
257.2209, 101.7444
257.7030, 101.8491
258.1851, 101.7305
258.6672, 101.1965
259.1493, 100.5952
259.6314, 100.1212
260.1136, 99.77701
260.5957, 99.56503
261.0778, 99.51788
261.5599, 99.60715
262.0420, 99.70388
262.5241, 99.84350
263.0063, 99.94698
263.4884, 99.92197
263.9705, 99.78603
264.4526, 99.71320
264.9347, 99.88340
265.4168, 100.0933
265.8990, 99.95592
266.3811, 99.31449
266.8632, 98.65479
267.3453, 98.34386
267.8275, 98.34428
268.3096, 98.37488
268.7917, 98.42514
269.2738, 98.36901
269.7559, 97.97275
270.2380, 97.13615
270.7202, 96.49024
271.2023, 96.67058
271.6844, 97.53385
272.1665, 98.11337
272.6486, 98.18737
273.1307, 97.82307
273.6129, 96.99610
274.0950, 95.71151
274.5771, 94.62944
275.0592, 94.26768
275.5413, 94.51775
276.0234, 94.77133
276.5056, 94.99954
276.9877, 95.12424
277.4698, 95.07137
277.9519, 94.86822
278.4340, 94.65445
278.9161, 94.44726
279.3983, 94.28056
279.8804, 94.34799
280.3625, 94.85332
280.8446, 95.28716
281.3267, 95.30090
281.8088, 95.01789
282.2910, 94.72318
282.7731, 94.58132
283.2552, 94.54468
283.7373, 94.44881
284.2194, 94.25127
284.7015, 94.07380
285.1837, 93.93716
285.6658, 93.85857
286.1479, 93.86958
286.6300, 93.99122
287.1121, 94.20403
287.5942, 94.45866
288.0764, 94.73410
288.5585, 95.10898
289.0406, 95.73704
289.5227, 96.41990
290.0048, 96.92204
290.4869, 97.14150
290.9691, 97.23704
291.4512, 97.50912
291.9333, 98.04668
292.4154, 98.47620
292.8975, 98.68433
293.3796, 98.76031
293.8618, 98.69558
294.3439, 98.48958
294.8260, 98.32655
295.3081, 98.45371
295.7902, 98.91013
296.2723, 99.46958
296.7545, 100.4542
297.2366, 101.2743
297.7187, 101.4202
298.2008, 100.9187
298.6829, 100.3728
299.1650, 100.4547
299.6472, 101.2394
300.1293, 101.9346
300.6114, 102.4646
301.0935, 102.9156
301.5756, 103.3080
302.0577, 103.6483
302.5399, 103.9502
303.0220, 104.2135
303.5041, 104.4399
303.9862, 104.6924
304.4683, 105.2156
304.9504, 105.4554
305.4326, 104.9852
305.9147, 104.1245
306.3968, 103.4707
306.8789, 103.4308
307.3610, 103.8495
307.8431, 104.0714
308.3253, 104.0843
308.8074, 103.8896
309.2895, 103.4232
309.7716, 102.8072
310.2537, 102.1518
310.7358, 101.4837
311.2180, 100.8873
311.7001, 100.6403
312.1822, 101.0950
312.6643, 101.0897
313.1464, 100.0277
313.6285, 98.69573
314.1107, 97.74036
314.5928, 97.33260
315.0749, 97.13571
315.5570, 96.69095
316.0392, 95.95872
316.5213, 95.11766
317.0034, 93.88891
317.4855, 92.77785
317.9676, 92.13708
318.4497, 91.95403
318.9319, 91.91018
319.4140, 91.73048
319.8961, 91.41679
320.3782, 90.95436
320.8603, 90.04250
321.3424, 89.27080
321.8246, 89.07704
322.3067, 89.22763
322.7888, 89.11061
323.2709, 88.16007
323.7530, 86.53728
324.2351, 85.48746
324.7173, 85.35189
325.1994, 85.35152
325.6815, 85.28791
326.1636, 85.17720
326.6457, 85.04906
327.1278, 84.91695
327.6100, 84.77900
328.0921, 84.61652
328.5742, 84.37882
329.0563, 84.23076
329.5384, 84.27494
330.0205, 84.37769
330.5027, 84.47178
330.9848, 84.53621
331.4669, 84.47287
331.9490, 84.03430
332.4311, 83.05254
332.9132, 82.43757
333.3954, 82.71669
333.8775, 83.11721
334.3596, 83.19733
334.8417, 82.95131
335.3238, 82.69202
335.8059, 82.73991
336.2881, 83.10033
336.7702, 83.37969
337.2523, 83.47571
337.7344, 83.59592
338.2165, 83.83611
338.6986, 84.17212
339.1808, 84.54907
339.6629, 84.96551
340.1450, 85.38863
340.6271, 85.69990
341.1092, 85.88799
341.5913, 85.97475
342.0735, 85.86762
342.5556, 85.71185
343.0377, 85.71093
343.5198, 85.97414
344.0019, 86.31816
344.4840, 86.34701
344.9662, 85.90611
345.4483, 85.82979
345.9304, 86.86668
346.4125, 88.08309
346.8946, 88.80954
347.3767, 88.94539
347.8589, 88.86596
348.3410, 88.83898
348.8231, 88.86778
349.3052, 89.12101
349.7873, 89.87174
350.2694, 90.56775
350.7516, 90.69593
351.2337, 90.39803
351.7158, 90.28323
352.1979, 90.91517
352.6800, 92.02589
353.1621, 92.67661
353.6443, 92.66396
354.1264, 92.62106
354.6085, 92.89730
355.0906, 93.39152
355.5727, 93.97745
356.0548, 94.66139
356.5370, 95.36296
357.0191, 95.89072
357.5012, 96.20295
357.9833, 96.78722
358.4654, 98.14278
358.9475, 99.70086
359.4297, 100.7464
359.9118, 101.1439
360.3939, 101.3991
360.8760, 101.8324
361.3581, 102.4267
361.8402, 103.1005
362.3224, 103.8120
362.8045, 104.6350
363.2866, 105.7018
363.7687, 106.9810
364.2508, 108.1987
364.7329, 109.2658
365.2151, 110.2015
365.6972, 110.9817
366.1793, 111.5704
366.6614, 112.2321
367.1436, 113.2144
367.6257, 114.4363
368.1078, 115.6403
368.5899, 116.8570
369.0720, 118.0017
369.5541, 118.8919
370.0363, 119.5871
370.5184, 120.5188
371.0005, 122.0288
371.4826, 123.7693
371.9647, 124.9193
372.4468, 125.2318
372.9290, 125.6429
373.4111, 126.5923
373.8932, 127.8705
374.3753, 129.1001
374.8574, 130.1866
375.3395, 131.1839
375.8217, 132.1688
376.3038, 133.1565
376.7859, 133.9576
377.2680, 134.3620
377.7501, 134.7020
378.2322, 135.3062
378.7144, 136.1655
379.1965, 137.0041
379.6786, 137.6234
380.1607, 138.0336
380.6428, 138.4188
381.1249, 138.9455
381.6071, 139.2704
382.0892, 139.1519
382.5713, 138.7607
383.0534, 138.4326
383.5355, 138.3169
384.0176, 138.2923
384.4998, 138.0857
384.9819, 137.4237
385.4640, 137.0356
385.9461, 137.1955
386.4282, 137.4763
386.9103, 137.5399
387.3925, 137.3268
387.8746, 136.9427
388.3567, 136.5049
388.8388, 136.0314
389.3209, 135.3615
389.8030, 134.2335
390.2852, 133.2033
390.7673, 132.5604
391.2494, 132.1723
391.7315, 131.7431
392.2136, 131.0948
392.6957, 130.2986
393.1779, 129.6495
393.6600, 129.3978
394.1421, 128.9291
394.6242, 127.9501
395.1063, 126.8775
395.5884, 126.1193
396.0706, 125.7605
396.5527, 125.5691
397.0348, 125.2989
397.5169, 125.0233
397.9990, 124.3760
398.4811, 122.7831
398.9633, 121.3402
399.4454, 120.6034
399.9275, 120.3946
400.4096, 120.1892
400.8917, 119.6548
401.3738, 118.8351
401.8560, 117.8536
402.3381, 116.4389
402.8202, 115.4028
403.3023, 115.2624
403.7844, 115.4418
404.2665, 115.3791
404.7487, 114.9100
405.2308, 114.1798
405.7129, 113.2811
406.1950, 112.1907
406.6771, 111.2721
407.1592, 110.7034
407.6414, 110.2207
408.1235, 109.6040
408.6056, 108.8828
409.0877, 108.2384
409.5698, 107.7668
410.0519, 107.4485
410.5341, 107.3232
411.0162, 107.4952
411.4983, 107.4553
411.9804, 106.6548
412.4625, 105.4888
412.9446, 104.6353
413.4268, 104.3367
413.9089, 104.1396
414.3910, 103.6425
414.8731, 102.9184
415.3553, 102.3240
415.8374, 101.9881
416.3195, 101.8051
416.8016, 101.6509
417.2837, 101.5305
417.7658, 101.3741
418.2480, 101.2397
418.7301, 101.0199
419.2122, 100.5337
419.6943, 99.77493
420.1764, 98.98514
420.6585, 98.35113
421.1407, 97.86143
421.6228, 97.36658
422.1049, 96.80270
422.5870, 96.29680
423.0691, 95.93606
423.5512, 95.66166
424.0334, 95.37606
424.5155, 95.04403
424.9976, 94.66084
425.4797, 94.22605
425.9618, 93.78427
426.4439, 93.17933
426.9261, 92.18140
427.4082, 91.20165
427.8903, 90.49060
428.3724, 90.07597
428.8545, 89.92821
429.3366, 90.07925
429.8188, 90.49759
430.3009, 90.46986
430.7830, 89.36636
431.2651, 88.49633
431.7472, 88.20483
432.2293, 88.20494
432.7115, 88.14252
433.1936, 87.88671
433.6757, 87.57969
434.1578, 87.49706
434.6399, 87.75726
435.1220, 87.81889
435.6042, 87.45154
436.0863, 87.03280
436.5684, 86.77354
437.0505, 86.62878
437.5326, 86.38564
438.0147, 85.77670
438.4969, 84.99409
438.9790, 84.80521
439.4611, 85.48518
439.9432, 86.06399
440.4253, 86.14301
440.9074, 85.91451
441.3896, 85.46868
441.8717, 84.76665
442.3538, 84.17751
442.8359, 84.18701
443.3180, 84.66763
443.8001, 84.79002
444.2823, 84.20533
444.7644, 83.58224
445.2465, 83.66501
445.7286, 84.30288
446.2107, 84.87589
446.6928, 85.42671
447.1750, 85.69555
447.6571, 85.20125
448.1392, 84.03572
448.6213, 83.02764
449.1034, 82.60130
449.5855, 82.63976
450.0677, 82.86523
450.5498, 83.45153
451.0319, 83.83083
451.5140, 83.72800
451.9961, 83.39915
452.4782, 83.11891
452.9604, 82.94932
453.4425, 82.87178
453.9246, 82.86235
454.4067, 82.91492
454.8888, 83.12141
455.3709, 83.71330
455.8531, 84.18044
456.3352, 84.19915
456.8173, 83.99577
457.2994, 84.02987
457.7815, 84.51725
458.2636, 85.13061
458.7458, 85.10113
459.2279, 83.81398
459.7100, 83.18547
460.1921, 83.66003
460.6742, 84.38767
461.1563, 85.03564
461.6385, 85.50364
462.1206, 85.67505
462.6027, 85.32842
463.0848, 84.63704
463.5669, 84.56592
464.0491, 85.44619
464.5312, 86.27774
465.0133, 86.71000
465.4954, 86.93327
465.9775, 87.10269
466.4597, 87.24812
466.9418, 87.41698
467.4239, 87.64870
467.9060, 87.94201
468.3881, 88.30285
468.8702, 88.76527
469.3524, 89.23392
469.8345, 89.60622
470.3166, 89.91743
470.7987, 90.26460
471.2808, 90.78081
471.7629, 91.26019
472.2451, 91.38607
472.7272, 91.25772
473.2093, 91.41603
473.6914, 92.14941
474.1735, 93.17294
474.6556, 93.94124
475.1378, 94.40047
475.6199, 94.83939
476.1020, 95.18493
476.5841, 95.60632
477.0662, 96.36320
477.5483, 97.39963
478.0305, 98.34860
478.5126, 98.91829
478.9947, 99.14966
479.4768, 99.38573
479.9589, 99.36350
480.4410, 99.67760
480.9232, 100.6326
481.4053, 101.8432
481.8874, 103.0074
482.3695, 104.0127
482.8516, 104.7490
483.3337, 104.9889
483.8159, 104.6343
484.2980, 104.6260
484.7801, 105.2298
485.2622, 105.8992
485.7443, 106.5289
486.2264, 107.0760
486.7086, 107.4791
487.1907, 107.7005
487.6728, 107.8132
488.1549, 107.9509
488.6370, 108.1245
489.1191, 108.1288
489.6013, 107.8427
490.0834, 107.4513
490.5655, 107.2224
491.0476, 107.0984
491.5297, 106.6794
492.0118, 105.5143
492.4940, 104.1302
492.9761, 103.2777
493.4582, 102.9401
493.9403, 102.5564
494.4224, 101.8803
494.9045, 100.9389
495.3867, 99.73014
495.8688, 97.98239
496.3509, 96.65641
496.8330, 96.27443
497.3151, 96.24918
497.7972, 96.02125
498.2794, 95.50147
498.7615, 94.77455
499.2436, 93.86426
499.7257, 92.80003
500.2078, 92.07327
500.6899, 92.06945
501.1721, 91.93655
501.6542, 91.45661
502.1363, 90.82178
502.6184, 90.17161
503.1005, 89.57249
503.5826, 89.14063
504.0648, 89.10201
504.5469, 89.52088
505.0290, 89.68118
505.5111, 89.36623
505.9932, 89.05489
506.4753, 89.07038
506.9575, 89.17986
507.4396, 88.93787
507.9217, 88.07687
508.4038, 87.16931
508.8859, 87.07200
509.3680, 87.72578
509.8502, 88.05228
510.3323, 87.75015
510.8144, 87.16300
511.2965, 86.53894
511.7786, 85.89851
512.2607, 85.36135
512.7429, 85.04719
513.2250, 84.77760
513.7071, 84.33519
514.1892, 83.78120
514.6713, 83.41810
515.1534, 83.42278
515.6356, 83.55691
516.1177, 83.32143
516.5998, 82.39494
517.0819, 81.82441
517.5640, 82.10374
518.0461, 82.36525
518.5283, 81.92107
519.0104, 80.89734
519.4925, 79.86820
519.9746, 79.21435
520.4567, 78.82968
520.9388, 78.30910
521.4210, 77.51472
521.9031, 76.84389
522.3852, 76.47811
522.8673, 76.13056
523.3494, 75.58500
523.8315, 74.84438
524.3137, 74.06638
524.7958, 73.41025
525.2779, 72.81067
525.7600, 71.99548
526.2421, 70.87298
526.7242, 69.89077
527.2064, 69.41085
527.6885, 69.09311
528.1706, 68.46007
528.6527, 67.41292
529.1348, 66.43443
529.6169, 65.82679
530.0991, 65.42350
530.5812, 64.95605
531.0633, 64.39182
531.5454, 63.79950
532.0275, 63.20111
532.5096, 62.61757
532.9918, 62.21160
533.4739, 62.09002
533.9560, 61.97990
534.4381, 61.96355
534.9202, 61.85801
535.4023, 61.30829
535.8845, 60.33925
536.3666, 59.49360
536.8487, 59.36945
537.3308, 59.96338
537.8129, 60.34410
538.2951, 60.53933
538.7772, 60.45457
539.2593, 59.84032
539.7415, 59.07141
540.2236, 58.54645
540.7057, 58.36791
541.1878, 58.33526
541.6699, 58.23795
542.1520, 58.10032
542.6342, 58.16462
543.1163, 58.61730
543.5984, 58.85128
544.0805, 58.17323
544.5626, 57.06231
545.0447, 56.41669
545.5269, 56.46730
546.0090, 56.78246
546.4911, 57.31114
546.9732, 57.88654
547.4553, 58.12422
547.9374, 57.94169
548.4196, 57.68912
548.9017, 57.73093
549.3838, 58.07879
549.8659, 58.15833
550.3480, 57.66273
550.8301, 57.31385
551.3123, 57.46696
551.7944, 57.80673
552.2765, 57.92013
552.7586, 57.70867
553.2407, 57.40018
553.7228, 57.23767
554.2050, 57.21894
554.6871, 57.39946
555.1692, 57.92278
555.6513, 58.44698
556.1334, 58.87487
556.6155, 59.21947
557.0977, 59.48300
557.5798, 59.65576
558.0619, 59.82483
558.5440, 60.07041
559.0261, 60.37719
559.5082, 60.71280
559.9904, 61.09066
560.4725, 61.40572
560.9546, 61.51928
561.4367, 61.49311
561.9188, 61.64210
562.4009, 62.09557
562.8831, 62.56438
563.3652, 62.95674
563.8473, 63.29594
564.3294, 63.58650
564.8115, 63.84116
565.2936, 64.14814
565.7758, 64.62248
566.2579, 65.26723
566.7400, 65.68211
567.2221, 65.73303
567.7042, 65.69840
568.1863, 65.58068
568.6685, 65.42368
569.1506, 65.18549
569.6327, 64.89270
570.1148, 64.79076
570.5969, 65.35500
571.0790, 66.40805
571.5612, 66.73914
572.0433, 66.11199
572.5254, 65.40282
573.0075, 65.13899
573.4896, 65.02548
573.9717, 64.59190
574.4539, 63.72046
574.9360, 62.83520
575.4181, 62.15736
575.9002, 61.57573
576.3823, 60.90491
576.8644, 60.13618
577.3466, 59.46901
577.8287, 59.08770
578.3108, 58.89027
578.7929, 58.37252
579.2750, 56.99238
579.7571, 56.00361
580.2393, 55.75873
580.7214, 55.71806
581.2035, 55.47144
581.6856, 55.00070
582.1677, 54.52423
582.6498, 54.23904
583.1320, 54.04083
583.6141, 53.50103
584.0962, 52.44210
584.5783, 51.65270
585.0604, 51.63964
585.5425, 51.75159
586.0247, 51.34156
586.5068, 50.44556
586.9889, 49.74598
587.4710, 49.64417
587.9531, 49.82320
588.4352, 50.03734
588.9174, 50.23582
589.3995, 50.15627
589.8816, 49.63665
590.3637, 48.92817
590.8458, 48.47875
591.3279, 48.45784
591.8101, 48.20861
592.2922, 47.40712
592.7743, 46.69821
593.2564, 46.52772
593.7385, 46.68855
594.2206, 46.72810
594.7028, 46.43847
595.1849, 46.04690
595.6670, 46.00409
596.1491, 46.39698
596.6312, 46.47111
597.1133, 45.94154
597.5955, 45.39116
598.0776, 45.13037
598.5597, 45.07185
599.0418, 45.07920
599.5239, 45.19328
600.0060, 45.18883
600.4882, 44.78224
600.9703, 44.13205
601.4524, 43.62550
601.9345, 43.33981
602.4166, 43.13569
602.8987, 42.88421
603.3809, 42.59715
603.8630, 42.47089
604.3451, 42.64281
604.8272, 42.77429
605.3093, 42.79563
605.7914, 42.75195
606.2736, 42.68337
606.7557, 42.59849
607.2378, 42.49943
607.7199, 42.41460
608.2020, 42.30475
608.6841, 41.92928
609.1663, 41.14909
609.6484, 40.50605
610.1305, 40.22324
610.6126, 40.10451
611.0947, 39.98310
611.5768, 39.85532
612.0590, 39.81131
612.5411, 39.99325
613.0232, 40.20703
613.5053, 40.25330
613.9874, 40.13591
614.4695, 39.87196
614.9517, 39.44064
615.4338, 38.97650
615.9159, 38.68807
616.3980, 38.59090
616.8801, 38.64117
617.3622, 39.09635
617.8444, 39.40945
618.3265, 39.24445
618.8086, 38.81665
619.2907, 38.47778
619.7728, 38.35438
620.2549, 38.30007
620.7371, 38.10771
621.2192, 37.78566
621.7013, 37.54268
622.1834, 37.36513
622.6655, 37.32365
623.1476, 37.66504
623.6298, 38.10318
624.1119, 38.11584
624.5940, 37.50305
625.0761, 36.94545
625.5582, 36.83182
626.0403, 36.90285
626.5225, 36.82286
627.0046, 36.58067
627.4867, 36.38610
627.9688, 36.39221
628.4509, 36.49656
628.9330, 36.34149
629.4152, 35.63837
629.8973, 35.20756
630.3794, 35.25775
630.8615, 35.37704
631.3436, 35.28968
631.8257, 35.08015
632.3079, 35.03419
632.7900, 35.35474
633.2721, 35.71859
633.7542, 35.57034
634.2363, 34.98301
634.7184, 34.64429
635.2006, 34.72426
635.6827, 34.96710
636.1648, 35.25781
636.6469, 35.54306
637.1291, 35.50349
637.6112, 34.79510
638.0933, 34.17655
638.5754, 33.90374
639.0576, 33.84546
639.5397, 33.93262
640.0218, 34.10238
640.5039, 34.17825
640.9860, 33.99672
641.4681, 33.61856
641.9503, 33.35033
642.4324, 33.24825
642.9145, 33.11447
643.3966, 32.83136
643.8787, 32.56318
644.3608, 32.44418
644.8430, 32.45057
645.3251, 32.43885
645.8072, 32.26705
646.2893, 32.12586
646.7714, 32.30736
647.2535, 32.69068
647.7357, 32.86701
648.2178, 32.71161
648.6999, 32.40380
649.1820, 32.12907
649.6641, 31.88633
650.1462, 31.68543
650.6284, 31.54357
651.1105, 31.41907
651.5926, 31.35202
652.0747, 31.26958
652.5568, 31.02684
653.0389, 30.65017
653.5211, 30.41494
654.0032, 30.65268
654.4853, 31.14697
654.9674, 31.23703
655.4495, 30.88096
655.9316, 30.60292
656.4138, 30.63621
656.8959, 30.75215
657.3780, 30.63328
657.8601, 30.29028
658.3422, 29.96563
658.8243, 29.59623
659.3065, 29.35211
659.7886, 29.40849
660.2707, 29.62605
660.7528, 29.80066
661.2349, 29.86377
661.7170, 29.82794
662.1992, 29.68834
662.6813, 29.45104
663.1634, 29.26837
663.6455, 29.18392
664.1276, 29.06455
664.6097, 28.77844
665.0919, 28.49617
665.5740, 28.39934
666.0561, 28.49052
666.5382, 28.55826
667.0203, 28.42144
667.5024, 28.27827
667.9846, 28.40370
668.4667, 28.71550
668.9488, 28.92037
669.4309, 28.90994
669.9130, 28.76492
670.3951, 28.57925
670.8773, 28.34259
671.3594, 28.15099
671.8415, 28.07218
672.3236, 27.95881
672.8057, 27.63814
673.2878, 27.35029
673.7700, 27.43963
674.2521, 27.91592
674.7342, 28.31696
675.2163, 28.21286
675.6984, 27.82246
676.1805, 27.57135
676.6627, 27.45770
677.1448, 27.42102
677.6269, 27.45246
678.1090, 27.52424
678.5911, 27.63944
679.0732, 27.84840
679.5554, 27.75327
680.0375, 26.89542
680.5196, 26.26666
681.0017, 26.38964
681.4838, 26.88219
681.9659, 27.29990
682.4481, 27.51946
682.9302, 27.61723
683.4123, 27.62887
683.8944, 27.58354
684.3765, 27.61624
684.8586, 27.74779
685.3408, 27.82033
685.8229, 27.71443
686.3050, 27.59965
686.7871, 27.73695
687.2692, 28.11593
687.7513, 28.40133
688.2335, 28.35601
688.7156, 28.40336
689.1977, 28.96027
689.6798, 29.68661
690.1619, 30.00305
690.6440, 29.80179
691.1262, 29.48645
691.6083, 29.45141
692.0904, 29.66213
692.5725, 29.87942
693.0546, 30.10435
693.5367, 30.32984
694.0189, 30.53942
694.5010, 30.76281
694.9831, 31.01143
695.4652, 31.28952
695.9473, 31.62996
696.4294, 32.18288
696.9116, 32.66209
697.3937, 32.73107
697.8758, 32.62717
698.3579, 32.82438
698.8400, 33.41193
699.3221, 34.08584
699.8043, 34.55127
700.2864, 34.84349
700.7685, 35.24862
701.2506, 35.88160
701.7327, 36.38158
702.2148, 36.57363
702.6970, 36.69135
703.1791, 36.84540
703.6612, 37.04804
704.1433, 37.32784
704.6254, 37.83271
705.1075, 38.23145
705.5897, 38.27266
706.0718, 38.00292
706.5539, 37.48107
707.0360, 36.72778
707.5181, 35.82521
708.0002, 34.79936
708.4824, 33.71367
708.9645, 32.89791
709.4466, 32.55902
709.9287, 32.08896
710.4108, 31.33466
710.8929, 30.53432
711.3751, 29.74203
711.8572, 29.01264
712.3393, 28.48348
712.8214, 28.25410
713.3035, 28.09544
713.7856, 27.77563
714.2678, 27.39016
714.7499, 27.12826
715.2320, 27.01784
715.7141, 27.05107
716.1962, 27.26430
716.6783, 27.53821
717.1605, 27.49535
717.6426, 26.87104
718.1247, 26.44764
718.6068, 26.28697
719.0889, 26.25305
719.5710, 26.35932
720.0532, 26.52903
720.5353, 26.62989
721.0174, 26.61230
721.4995, 26.61225
721.9816, 26.74631
722.4637, 26.97254
722.9459, 27.25181
723.4280, 27.56706
723.9101, 27.74496
724.3922, 27.66238
724.8743, 27.52916
725.3564, 27.76459
725.8386, 28.52773
726.3207, 29.08874
726.8028, 29.26648
727.2849, 29.46320
727.7670, 29.88229
728.2491, 30.34736
728.7313, 30.58114
729.2134, 30.55281
729.6955, 30.61791
730.1776, 31.09473
730.6597, 31.78105
731.1418, 32.39462
731.6240, 32.93103
732.1061, 33.37831
732.5882, 33.71554
733.0703, 34.07663
733.5524, 34.63669
734.0345, 35.40623
734.5167, 36.12488
734.9988, 36.85548
735.4809, 37.44671
735.9631, 37.65299
736.4452, 37.87587
736.9273, 38.45779
737.4094, 39.38713
737.8915, 40.44780
738.3737, 41.60089
738.8558, 42.72913
739.3379, 43.72405
739.8200, 44.59342
740.3021, 45.36666
740.7842, 46.04999
741.2664, 46.69175
741.7485, 47.39143
742.2306, 48.03502
742.7127, 48.05248
743.1948, 47.19625
743.6769, 46.14656
744.1591, 44.92701
744.6412, 43.55310
745.1233, 41.92753
745.6054, 40.17714
746.0875, 38.53528
746.5696, 37.08013
747.0518, 35.75909
747.5339, 34.55998
748.0160, 33.47224
748.4981, 32.46094
748.9802, 31.53713
749.4623, 30.84026
749.9445, 30.45402
750.4266, 30.21564
750.9087, 29.80465
751.3908, 29.15008
751.8729, 28.66124
752.3550, 28.38598
752.8372, 28.21553
753.3193, 28.09559
753.8014, 28.06575
754.2835, 28.24567
754.7656, 28.63621
755.2477, 28.87279
755.7299, 28.67980
756.2120, 28.34627
756.6941, 28.08793
757.1762, 27.91691
757.6583, 27.84379
758.1404, 27.87130
758.6226, 27.99979
759.1047, 28.24678
759.5868, 28.58746
760.0689, 28.87406
760.5510, 29.13646
761.0331, 29.24706
761.5153, 28.90993
761.9974, 28.69472
762.4795, 29.12390
762.9616, 30.00707
763.4437, 30.73101
763.9258, 31.16408
764.4080, 31.43382
764.8901, 31.37720
765.3722, 31.32996
765.8543, 31.78939
766.3364, 32.65733
766.8185, 33.43929
767.3007, 33.87005
767.7828, 34.03060
768.2649, 34.05151
768.7470, 33.93270
769.2291, 33.65218
769.7112, 33.16492
770.1934, 32.62633
770.6755, 32.13138
771.1576, 31.61268
771.6397, 30.92624
772.1218, 30.02566
772.6039, 29.26486
773.0861, 28.78071
773.5682, 28.36288
774.0503, 27.85698
774.5324, 27.36761
775.0145, 27.10989
775.4966, 27.08847
775.9788, 27.02327
776.4609, 26.63162
776.9430, 26.08261
777.4251, 25.80672
777.9072, 25.79712
778.3893, 25.75317
778.8715, 25.60659
779.3536, 25.40348
779.8357, 25.14607
780.3178, 24.86255
780.7999, 24.74919
781.2820, 24.99235
781.7642, 25.13242
782.2463, 25.03755
782.7284, 24.93626
783.2105, 24.98157
783.6926, 25.12926
784.1747, 25.28012
784.6569, 25.40620
785.1390, 25.47620
785.6211, 25.49295
786.1032, 25.42286
786.5853, 25.11099
787.0674, 24.60289
787.5496, 24.28030
788.0317, 24.32378
788.5138, 24.51099
788.9959, 24.51184
789.4780, 24.30198
789.9601, 24.26469
790.4423, 24.55288
790.9244, 24.76795
791.4065, 24.77920
791.8886, 24.71331
792.3707, 24.64732
792.8528, 24.59171
793.3350, 24.56439
793.8171, 24.60748
794.2992, 24.63221
794.7813, 24.59335
795.2634, 24.49755
795.7455, 24.27088
796.2277, 23.97283
796.7098, 23.91404
797.1919, 24.31454
797.6740, 24.82988
798.1561, 24.69062
798.6382, 23.86040
799.1204, 23.35829
799.6025, 23.27938
800.0846, 23.43510
800.5667, 23.90582
801.0488, 24.43543
801.5309, 24.51302
802.0131, 24.07978
802.4952, 23.67632
802.9773, 23.19006
803.4594, 22.92471
803.9415, 23.07092
804.4236, 23.47393
804.9058, 24.12613
805.3879, 24.89960
805.8700, 25.27774
806.3521, 24.73024
806.8342, 23.86474
807.3163, 23.69996
807.7985, 24.04902
808.2806, 24.09516
808.7627, 23.68715
809.2448, 23.17170
809.7269, 22.74119
810.2090, 22.46671
810.6912, 22.61737
811.1733, 23.56557
811.6554, 24.05055
812.1375, 23.69004
812.6196, 23.29455
813.1017, 23.16120
813.5839, 23.17366
814.0660, 23.20096
814.5481, 23.22723
815.0302, 23.18406
815.5123, 22.97822
815.9944, 22.75254
816.4766, 22.64691
816.9587, 22.59545
817.4408, 22.42105
817.9229, 22.11989
818.4050, 21.95055
818.8871, 22.16956
819.3693, 22.59572
819.8514, 22.70382
820.3335, 22.47583
820.8156, 22.37105
821.2977, 22.49504
821.7798, 22.64098
822.2620, 22.67167
822.7441, 22.62348
823.2262, 22.61143
823.7083, 22.71064
824.1904, 22.66978
824.6725, 22.31372
825.1547, 22.00185
825.6368, 21.91400
826.1189, 21.96011
826.6010, 22.03689
827.0831, 22.11483
827.5652, 22.15633
828.0474, 22.13419
828.5295, 22.06524
829.0116, 21.95722
829.4937, 21.82041
829.9758, 21.67110
830.4579, 21.51614
830.9401, 21.37769
831.4222, 21.26789
831.9043, 21.19806
832.3864, 21.21953
832.8685, 21.36215
833.3506, 21.44129
833.8328, 21.41476
834.3149, 21.37565
834.7971, 21.36315
835.2792, 21.37491
835.7613, 21.41119
836.2434, 21.47943
836.7255, 21.52872
837.2076, 21.60155
837.6898, 21.59608
838.1719, 21.38056
838.6540, 21.10640
839.1361, 20.91851
839.6182, 20.86087
840.1003, 20.98399
840.5825, 21.43290
841.0646, 21.88119
841.5467, 21.81858
842.0288, 21.38408
842.5109, 21.01462
842.9930, 20.77106
843.4752, 20.52369
843.9573, 20.17771
844.4394, 19.84904
844.9215, 19.83148
845.4036, 20.23267
845.8857, 20.38590
846.3679, 20.16558
846.8500, 19.92003
847.3321, 19.77436
847.8142, 19.66481
848.2963, 19.50403
848.7784, 19.29822
849.2606, 19.17438
849.7427, 19.20321
850.2248, 19.26037
850.7069, 19.30710
851.1890, 19.35142
851.6711, 19.40542
852.1533, 19.46563
852.6354, 19.54853
853.1175, 19.68137
853.5996, 19.69635
854.0817, 19.28548
854.5638, 18.63141
855.0460, 18.19340
855.5281, 17.99572
856.0102, 18.02129
856.4923, 18.28108
856.9744, 18.60285
857.4565, 18.78321
857.9387, 18.82121
858.4208, 18.65530
858.9029, 18.16107
859.3850, 17.76471
859.8671, 17.59149
860.3492, 17.49338
860.8314, 17.35837
861.3135, 17.21178
861.7956, 17.12749
862.2777, 17.14234
862.7598, 17.15008
863.2419, 17.13290
863.7241, 17.09106
864.2062, 16.96226
864.6883, 16.83262
865.1704, 16.87940
865.6525, 17.12749
866.1346, 17.34729
866.6168, 17.36839
867.0989, 17.24667
867.5810, 16.99077
868.0631, 16.66482
868.5452, 16.54938
869.0273, 16.68392
869.5095, 16.73144
869.9916, 16.42493
870.4737, 15.93060
870.9558, 15.69414
871.4379, 15.76595
871.9200, 15.81002
872.4022, 15.82491
872.8843, 15.78514
873.3664, 15.61932
873.8485, 15.43808
874.3306, 15.42935
874.8127, 15.59896
875.2949, 15.71573
875.7770, 15.74198
876.2591, 15.74321
876.7412, 15.69494
877.2233, 15.66330
877.7054, 15.73386
878.1876, 15.87022
878.6697, 15.96855
879.1518, 15.99418
879.6339, 15.94207
880.1160, 15.71772
880.5981, 15.47015
881.0803, 15.49363
881.5624, 15.68841
882.0445, 15.62736
882.5266, 15.18483
883.0087, 14.75089
883.4908, 14.76144
883.9730, 15.09024
884.4551, 15.23325
884.9372, 15.17952
885.4193, 15.12044
885.9014, 15.08957
886.3835, 15.06052
886.8657, 15.01532
887.3478, 14.95851
887.8299, 14.90335
888.3120, 14.86021
888.7941, 14.79148
889.2762, 14.67832
889.7584, 14.56250
890.2405, 14.46054
890.7226, 14.35930
891.2047, 14.22569
891.6868, 14.06946
892.1689, 13.97246
892.6511, 14.00756
893.1332, 14.04567
893.6153, 13.96366
894.0974, 13.89374
894.5795, 14.05461
895.0616, 14.35247
895.5438, 14.46753
896.0259, 14.26902
896.5080, 14.02924
896.9901, 14.09065
897.4722, 14.30898
897.9543, 14.32946
898.4365, 14.18230
898.9186, 14.08769
899.4007, 14.10755
899.8828, 14.08226
900.3649, 13.83748
900.8470, 13.49399
901.3292, 13.55704
901.8113, 14.17308
902.2934, 14.43375
902.7755, 14.10282
903.2576, 13.79290
903.7397, 13.83794
904.2219, 14.06015
904.7040, 14.19350
905.1861, 14.23633
905.6682, 14.19131
906.1503, 13.98411
906.6324, 13.78695
907.1146, 13.61755
907.5967, 13.49367
908.0788, 13.46889
908.5609, 13.49827
909.0430, 13.45010
909.5251, 13.25868
910.0073, 13.08775
910.4894, 13.02084
910.9715, 13.02937
911.4536, 13.12880
911.9357, 13.26816
912.4178, 13.33681
912.9000, 13.31779
913.3821, 13.32248
913.8642, 13.48312
914.3463, 13.65375
914.8284, 13.45798
915.3105, 13.01269
915.7927, 12.90975
916.2748, 13.21775
916.7569, 13.48639
917.2390, 13.46730
917.7211, 13.28849
918.2032, 13.15855
918.6854, 13.08126
919.1675, 12.95939
919.6496, 12.75615
920.1317, 12.62331
920.6138, 12.60285
921.0959, 12.66241
921.5781, 12.82517
922.0602, 13.04937
922.5423, 13.12293
923.0244, 12.92242
923.5065, 12.80861
923.9886, 12.88353
924.4708, 12.94784
924.9529, 12.89781
925.4350, 12.79648
925.9171, 12.70844
926.3992, 12.64792
926.8813, 12.64351
927.3635, 12.72693
927.8456, 12.84509
928.3277, 13.07007
928.8098, 13.24085
929.2919, 13.13791
929.7740, 12.81981
930.2562, 12.44137
930.7383, 12.06851
931.2204, 11.85949
931.7025, 12.08316
932.1846, 12.51689
932.6667, 12.79951
933.1489, 12.92355
933.6310, 12.81400
934.1132, 12.47881
934.5953, 12.21981
935.0774, 12.28006
935.5595, 12.49464
936.0416, 12.44489
936.5237, 12.12743
937.0059, 11.99732
937.4880, 12.11963
937.9701, 12.14329
938.4522, 11.86893
938.9343, 11.58737
939.4164, 11.67317
939.8986, 12.09779
940.3807, 12.35731
940.8628, 12.39142
941.3449, 12.37784
941.8270, 12.34981
942.3091, 12.25633
942.7913, 12.00114
943.2734, 11.69555
943.7555, 11.51452
944.2376, 11.47385
944.7197, 11.49835
945.2018, 11.68430
945.6840, 11.79767
946.1661, 11.67616
946.6482, 11.50311
947.1303, 11.43945
947.6124, 11.47637
948.0945, 11.54416
948.5767, 11.63395
949.0588, 11.67716
949.5409, 11.53527
950.0230, 11.41034
950.5051, 11.53690
950.9872, 11.82115
951.4694, 12.14015
951.9515, 12.42317
952.4336, 12.49309
952.9157, 12.19033
953.3978, 11.72806
953.8799, 11.35133
954.3621, 11.07387
954.8442, 10.93290
955.3263, 10.92918
955.8084, 11.09496
956.2905, 11.44331
956.7726, 11.72609
957.2548, 11.62188
957.7369, 11.24782
958.2190, 11.14919
958.7011, 11.34306
959.1832, 11.45429
959.6653, 11.42156
960.1475, 11.31585
960.6296, 11.13203
961.1117, 10.99346
961.5938, 11.16611
962.0759, 11.71014
962.5580, 11.97006
963.0402, 11.79884
963.5223, 11.64952
964.0044, 11.62440
964.4865, 11.64203
964.9686, 11.65921
965.4507, 11.66931
965.9329, 11.64433
966.4150, 11.54270
966.8971, 11.51855
967.3792, 11.70752
967.8613, 11.82224
968.3434, 11.71720
968.8256, 11.51879
969.3077, 11.26211
969.7898, 11.01721
970.2719, 11.05258
970.7540, 11.62864
971.2361, 12.08137
971.7183, 12.11797
972.2004, 11.94465
972.6825, 11.53245
973.1646, 11.10889
973.6467, 11.08853
974.1288, 11.48511
974.6110, 11.77937
975.0931, 11.60456
975.5752, 11.31325
976.0573, 11.16907
976.5394, 11.15458
977.0215, 11.30997
977.5037, 11.56817
977.9858, 11.72852
978.4679, 11.72522
978.9500, 11.69965
979.4321, 11.80662
979.9142, 11.96713
980.3964, 11.99886
980.8785, 11.94558
981.3606, 11.97933
981.8427, 12.11619
982.3248, 12.25301
982.8069, 12.33764
983.2891, 12.34957
983.7712, 12.21695
984.2533, 11.97876
984.7354, 11.94580
985.2175, 12.12505
985.6996, 12.26661
986.1818, 12.31872
986.6639, 12.29664
987.1460, 12.17390
987.6281, 12.06748
988.1102, 12.26960
988.5923, 12.83615
989.0745, 13.33786
989.5566, 13.86517
990.0387, 14.02600
990.5208, 13.51796
991.0029, 12.95168
991.4850, 12.90306
991.9672, 13.22011
992.4493, 13.30075
992.9314, 12.95265
993.4135, 12.83232
993.8956, 13.13905
994.3777, 13.40613
994.8599, 13.44716
995.3420, 13.41679
995.8241, 13.48947
996.3062, 13.63111
996.7883, 13.63218
997.2704, 13.37478
997.7526, 13.15808
998.2347, 12.93110
998.7168, 12.85572
999.1989, 13.18773
999.6810, 13.60749
1000.163, 13.67066
1000.645, 13.39059
1001.127, 13.21929
1001.609, 13.38277
1002.092, 13.52944
1002.574, 13.52133
1003.056, 13.44027
1003.538, 13.22071
1004.020, 13.03019
1004.502, 13.20577
1004.984, 13.76072
1005.466, 14.22026
1005.949, 14.32666
1006.431, 14.26118
1006.913, 14.07681
1007.395, 13.85275
1007.877, 13.64392
1008.359, 13.48531
1008.841, 13.46950
1009.323, 13.60628
1009.805, 13.69610
1010.288, 13.48672
1010.770, 13.26715
1011.252, 13.45415
1011.734, 13.85363
1012.216, 14.16667
1012.698, 14.33951
1013.180, 14.29864
1013.662, 14.02973
1014.145, 13.85209
1014.627, 14.22778
1015.109, 14.79722
1015.591, 14.74265
1016.073, 14.26746
1016.555, 14.06313
1017.037, 14.18615
1017.519, 14.23876
1018.001, 14.01866
1018.484, 13.78743
1018.966, 13.94164
1019.448, 14.34009
1019.930, 14.44644
1020.412, 14.29317
1020.894, 14.17216
1021.376, 14.13485
1021.858, 14.18279
1022.341, 14.32865
1022.823, 14.47852
1023.305, 14.45530
1023.787, 14.28964
1024.269, 14.30630
1024.751, 14.51664
1025.233, 14.70063
1025.715, 14.82222
1026.198, 14.85283
1026.680, 14.75622
1027.162, 14.61142
1027.644, 14.57556
1028.126, 14.65215
1028.608, 14.67419
1029.090, 14.62825
1029.572, 14.59131
1030.054, 14.57917
1030.536, 14.57723
1031.019, 14.56509
1031.501, 14.57200
1031.983, 14.67575
1032.465, 14.90050
1032.947, 15.01633
1033.429, 14.95601
1033.911, 14.97375
1034.393, 15.19368
1034.876, 15.37419
1035.358, 15.28323
1035.840, 15.07331
1036.322, 15.13192
1036.804, 15.55241
1037.286, 15.78191
1037.768, 15.62154
1038.250, 15.63719
1038.733, 16.12894
1039.215, 16.61196
1039.697, 16.66412
1040.179, 16.47261
1040.661, 16.54941
1041.143, 17.05631
1041.625, 17.23107
1042.107, 16.60935
1042.589, 16.29569
1043.072, 16.72835
1043.554, 17.32255
1044.036, 17.75278
1044.518, 18.02173
1045.000, 18.13765
1045.482, 18.07799
1045.964, 17.95973
1046.446, 17.71027
1046.928, 17.51135
1047.411, 17.36685
1047.893, 17.32797
1048.375, 17.49822
1048.857, 17.78816
1049.339, 17.98844
1049.821, 18.06699
1050.303, 18.12284
1050.785, 18.17651
1051.268, 18.20217
1051.750, 18.12856
1052.232, 18.08092
1052.714, 18.16770
1053.196, 18.35457
1053.678, 18.56628
1054.160, 18.80047
1054.642, 18.99590
1055.125, 19.17901
1055.607, 19.26781
1056.089, 19.10691
1056.571, 18.95170
1057.053, 19.03561
1057.535, 19.28113
1058.017, 19.50942
1058.499, 19.69162
1058.981, 19.82086
1059.464, 19.77383
1059.946, 19.82968
1060.428, 20.16502
1060.910, 20.59425
1061.392, 21.01508
1061.874, 21.38957
1062.356, 21.64187
1062.838, 21.75017
1063.320, 21.96395
1063.803, 22.31700
1064.285, 22.86468
1064.767, 23.73742
1065.249, 24.71778
1065.731, 25.59033
1066.213, 26.43518
1066.695, 27.41231
1067.177, 28.55362
1067.660, 29.88303
1068.142, 31.62076
1068.624, 33.27164
1069.106, 34.49451
1069.588, 35.62597
1070.070, 36.85379
1070.552, 38.24287
1071.034, 39.88984
1071.516, 41.79768
1071.999, 43.82775
1072.481, 46.02759
1072.963, 48.19743
1073.445, 49.94786
1073.927, 51.92796
1074.409, 54.74647
1074.891, 58.13910
1075.373, 61.67987
1075.855, 65.26811
1076.338, 68.90453
1076.820, 72.73563
1077.302, 76.40901
1077.784, 79.81943
1078.266, 82.92479
1078.748, 85.49879
1079.230, 87.84978
1079.712, 90.60694
1080.195, 93.68227
1080.677, 95.98635
1081.159, 96.85112
1081.641, 97.41779
1082.123, 97.93506
1082.605, 98.63188
1083.087, 99.74586
1083.569, 101.0936
1084.052, 102.3830
1084.534, 103.6436
1085.016, 105.1881
1085.498, 107.1813
1085.980, 109.2889
1086.462, 111.1319
1086.944, 113.3108
1087.426, 116.4300
1087.908, 119.9651
1088.391, 123.1083
1088.873, 126.0521
1089.355, 129.6790
1089.837, 134.3386
1090.319, 139.2912
1090.801, 144.5289
1091.283, 149.6625
1091.765, 155.0801
1092.248, 159.8036
1092.730, 163.3919
1093.212, 165.3764
1093.694, 164.7708
1094.176, 161.1912
1094.658, 156.3000
1095.140, 150.5044
1095.622, 143.7689
1096.104, 135.5649
1096.587, 126.8312
1097.069, 118.0287
1097.551, 109.4274
1098.033, 101.4415
1098.515, 94.15505
1098.997, 87.09441
1099.479, 79.70741
1099.961, 73.09481
1100.443, 67.73808
1100.926, 63.12868
1101.408, 59.17161
1101.890, 55.63603
1102.372, 52.16376
1102.854, 48.75280
1103.336, 45.92294
1103.818, 44.13493
1104.300, 42.46296
1104.783, 40.57626
1105.265, 38.90519
1105.747, 37.81819
1106.229, 36.98339
1106.711, 35.91996
1107.193, 34.66890
1107.675, 33.74021
1108.157, 33.28984
1108.640, 32.97717
1109.122, 32.98824
1109.604, 32.84510
1110.086, 32.14021
1110.568, 31.37463
1111.050, 31.11338
1111.532, 31.21112
1112.014, 31.02342
1112.496, 30.26727
1112.979, 29.92778
1113.461, 30.47731
1113.943, 30.85518
1114.425, 30.77214
1114.907, 30.47288
1115.389, 29.90409
1115.871, 29.31797
1116.353, 29.37112
1116.835, 30.24906
1117.318, 30.64986
1117.800, 30.19608
1118.282, 29.96728
1118.764, 30.25536
1119.246, 30.59801
1119.728, 30.76009
1120.210, 30.80764
1120.692, 30.80042
1121.175, 30.74393
1121.657, 30.93647
1122.139, 31.55072
1122.621, 31.93410
1123.103, 31.97979
1123.585, 31.91936
1124.067, 31.82529
1124.549, 31.70835
1125.031, 31.56863
1125.514, 31.42279
1125.996, 31.35068
1126.478, 31.35777
1126.960, 31.40137
1127.442, 31.46950
1127.924, 31.61420
1128.406, 31.83841
1128.888, 32.22396
1129.370, 32.89772
1129.853, 33.64860
1130.335, 33.96743
1130.817, 33.85601
1131.299, 33.66484
1131.781, 33.38203
1132.263, 33.27372
1132.745, 33.39989
1133.227, 33.56520
1133.710, 33.64306
1134.192, 33.81347
1134.674, 34.38577
1135.156, 35.23626
1135.638, 35.85131
1136.120, 36.25891
1136.602, 36.77085
1137.084, 37.37840
1137.567, 37.46483
1138.049, 36.80645
1138.531, 36.29698
1139.013, 36.86395
1139.495, 37.93453
1139.977, 38.39895
1140.459, 38.44942
1140.941, 38.61573
1141.423, 38.89675
1141.906, 39.12234
1142.388, 39.26449
1142.870, 39.45772
1143.352, 39.79144
1143.834, 40.18817
1144.316, 40.67073
1144.798, 41.07361
1145.280, 40.88506
1145.762, 40.53530
1146.245, 41.06513
1146.727, 42.31849
1147.209, 43.24801
1147.691, 43.45039
1148.173, 43.39696
1148.655, 43.26814
1149.137, 43.23889
1149.619, 43.46643
1150.102, 43.87447
1150.584, 44.43915
1151.066, 45.08848
1151.548, 45.74700
1152.030, 46.37848
1152.512, 46.86093
1152.994, 47.04080
1153.476, 47.26408
1153.958, 47.82971
1154.441, 48.34843
1154.923, 48.40507
1155.405, 48.37541
1155.887, 48.76179
1156.369, 49.49311
1156.851, 50.14114
1157.333, 50.60527
1157.815, 51.07266
1158.297, 51.62071
1158.780, 52.12424
1159.262, 52.54382
1159.744, 52.90527
1160.226, 53.10442
1160.708, 53.30843
1161.190, 53.88005
1161.672, 54.85135
1162.154, 55.68275
1162.637, 56.27233
1163.119, 56.92551
1163.601, 57.79458
1164.083, 58.49414
1164.565, 58.81710
1165.047, 58.95982
1165.529, 59.00924
1166.011, 59.10933
1166.494, 59.92669
1166.976, 61.68565
1167.458, 63.04320
1167.940, 63.95380
1168.422, 64.66929
1168.904, 65.22487
1169.386, 65.71883
1169.868, 66.18311
1170.350, 66.74162
1170.833, 67.65467
1171.315, 68.82601
1171.797, 69.67788
1172.279, 70.22773
1172.761, 70.55090
1173.243, 70.71427
1173.725, 71.41575
1174.207, 72.91508
1174.689, 74.59435
1175.172, 75.91862
1175.654, 77.01559
1176.136, 78.04257
1176.618, 79.03897
1177.100, 80.10989
1177.582, 81.21351
1178.064, 82.15284
1178.546, 82.97710
1179.029, 84.09921
1179.511, 85.73785
1179.993, 87.52331
1180.475, 89.33224
1180.957, 90.95699
1181.439, 92.05985
1181.921, 92.97587
1182.403, 94.11575
1182.885, 95.43058
1183.368, 96.72116
1183.850, 97.94238
1184.332, 99.15577
1184.814, 100.1816
1185.296, 101.5777
1185.778, 104.0034
1186.260, 106.3654
1186.742, 107.7097
1187.225, 108.8596
1187.707, 110.8649
1188.189, 113.4933
1188.671, 115.7020
1189.153, 117.2652
1189.635, 118.9370
1190.117, 120.6087
1190.599, 122.6695
1191.082, 125.5822
1191.564, 128.3263
1192.046, 130.1736
1192.528, 131.7633
1193.010, 133.9698
1193.492, 136.7262
1193.974, 139.5624
1194.456, 142.5919
1194.938, 144.9353
1195.421, 146.3222
1195.903, 148.4444
1196.385, 151.8958
1196.867, 155.4891
1197.349, 158.3623
1197.831, 160.7929
1198.313, 163.1264
1198.795, 165.4867
1199.277, 168.5171
1199.760, 172.1178
1200.242, 175.7303
1200.724, 179.2603
1201.206, 182.5920
1201.688, 185.6883
1202.170, 188.6742
1202.652, 191.5712
1203.134, 194.6214
1203.617, 198.3610
1204.099, 202.2784
1204.581, 205.5317
1205.063, 208.4230
1205.545, 211.5651
1206.027, 214.9903
1206.509, 218.4243
1206.991, 221.7417
1207.474, 225.2753
1207.956, 229.3712
1208.438, 233.4795
1208.920, 237.3031
1209.402, 241.0408
1209.884, 244.8812
1210.366, 248.7132
1210.848, 252.0802
1211.330, 255.1011
1211.813, 259.0822
1212.295, 264.9465
1212.777, 270.1605
1213.259, 274.6128
1213.741, 278.4712
1214.223, 281.0947
1214.705, 284.2762
1215.187, 289.5903
1215.669, 295.8051
1216.152, 300.5054
1216.634, 303.8267
1217.116, 307.9780
1217.598, 313.0153
1218.080, 318.0039
1218.562, 322.8680
1219.044, 327.2404
1219.526, 330.9933
1220.009, 334.9958
1220.491, 340.0401
1220.973, 345.4156
1221.455, 349.6857
1221.937, 353.3962
1222.419, 357.9892
1222.901, 363.2104
1223.383, 368.3056
1223.865, 373.2110
1224.348, 378.1740
1224.830, 383.2938
1225.312, 388.4048
1225.794, 393.3761
1226.276, 398.3506
1226.758, 403.8566
1227.240, 409.0257
1227.722, 412.9750
1228.204, 416.1270
1228.687, 418.8495
1229.169, 421.3335
1229.651, 424.0342
1230.133, 427.2043
1230.615, 429.5095
1231.097, 429.4409
1231.579, 430.3750
1232.061, 434.1894
1232.544, 437.5820
1233.026, 438.7560
1233.508, 439.1696
1233.990, 440.5566
1234.472, 442.5229
1234.954, 443.3281
1235.436, 442.7909
1235.918, 442.2840
1236.401, 441.7828
1236.883, 441.8389
1237.365, 442.6343
1237.847, 442.1772
1238.329, 439.3565
1238.811, 436.0089
1239.293, 434.3096
1239.775, 433.4220
1240.257, 431.9200
1240.740, 429.7066
1241.222, 426.1004
1241.704, 421.6761
1242.186, 418.0672
1242.668, 415.3631
1243.150, 412.4090
1243.632, 408.6997
1244.114, 404.5625
1244.596, 399.6703
1245.079, 395.1039
1245.561, 391.7716
1246.043, 388.8334
1246.525, 386.2084
1247.007, 383.1153
1247.489, 377.8490
1247.971, 370.8274
1248.453, 365.6535
1248.936, 364.2497
1249.418, 360.7349
1249.900, 353.5343
1250.382, 347.2095
1250.864, 343.1729
1251.346, 339.0692
1251.828, 333.4266
1252.310, 327.4029
1252.792, 322.4918
1253.275, 318.5080
1253.757, 314.8978
1254.239, 311.5638
1254.721, 307.0747
1255.203, 301.5168
1255.685, 296.0148
1256.167, 290.8678
1256.649, 286.2920
1257.131, 282.3600
1257.614, 278.6094
1258.096, 274.4579
1258.578, 270.3402
1259.060, 266.8495
1259.542, 263.6033
1260.024, 260.2847
1260.506, 256.8291
1260.988, 253.0469
1261.471, 249.0816
1261.953, 245.5315
1262.435, 242.6455
1262.917, 239.7921
1263.399, 236.9032
1263.881, 233.8994
1264.363, 230.5908
1264.845, 227.3598
1265.328, 224.2702
1265.810, 221.5129
1266.292, 219.4493
1266.774, 217.8043
1267.256, 215.3607
1267.738, 211.9921
1268.220, 209.3524
1268.702, 207.4845
1269.184, 205.0556
1269.667, 201.8624
1270.149, 199.3292
1270.631, 198.0904
1271.113, 196.8466
1271.595, 194.2070
1272.077, 191.2214
1272.559, 189.6094
1273.041, 188.5540
1273.523, 186.7159
1274.006, 184.5712
1274.488, 183.0733
1274.970, 182.1785
1275.452, 181.3873
1275.934, 180.5656
1276.416, 179.4229
1276.898, 177.4899
1277.380, 175.7786
1277.863, 174.6037
1278.345, 173.6647
1278.827, 172.9760
1279.309, 172.3227
1279.791, 171.5414
1280.273, 170.6710
1280.755, 169.7783
1281.237, 168.8655
1281.719, 168.1853
1282.202, 167.7576
1282.684, 167.1958
1283.166, 166.4662
1283.648, 165.7825
1284.130, 165.2018
1284.612, 164.4475
1285.094, 163.2771
1285.576, 162.2479
1286.059, 162.3350
1286.541, 162.7174
1287.023, 162.5101
1287.505, 161.7287
##END=



