##NAMES=Caysichite-(Y)
##RRUFFID=R080143
##IDEAL CHEMISTRY=(Ca,Yb,Er)_4_Y_4_Si_8_O_20_(CO_3_)_6_(OH)&#183;7H_2_O
##LOCALITY=Mt. Malos, Zomba District, Malawi
##OWNER=RRUFF
##SOURCE=Mark Feinglos
##DESCRIPTION=Pale tan colored blocky crystals removed from aegirine matrix
##STATUS=The identification of this mineral has been confirmed by single-crystal X-ray diffraction.
##URL=rruff.info/R080143
91.00781, 23.89298
91.48993, 22.49939
91.97205, 21.94288
92.45416, 22.79922
92.93628, 24.46521
93.41840, 25.62268
93.90051, 26.01478
94.38263, 25.90606
94.86475, 25.54011
95.34686, 24.92127
95.82898, 24.46359
96.31110, 24.47963
96.79321, 24.95269
97.27533, 25.70709
97.75745, 26.57646
98.23956, 27.70014
98.72168, 29.78774
99.20380, 32.97558
99.68591, 36.63194
100.1680, 40.12778
100.6501, 43.40891
101.1323, 46.64640
101.6144, 49.86160
102.0965, 53.05492
102.5786, 56.07214
103.0607, 58.49398
103.5428, 61.12783
104.0250, 65.45182
104.5071, 71.95259
104.9892, 79.26682
105.4713, 86.81187
105.9534, 94.24037
106.4355, 102.6787
106.9177, 112.9798
107.3998, 124.3242
107.8819, 134.4568
108.3640, 141.7897
108.8461, 149.0671
109.3282, 157.6723
109.8104, 167.9655
110.2925, 178.9591
110.7746, 191.3532
111.2567, 204.7713
111.7388, 216.7780
112.2209, 225.7829
112.7031, 233.8755
113.1852, 242.6023
113.6673, 251.7771
114.1494, 261.9694
114.6315, 273.1778
115.1136, 285.4856
115.5958, 299.3705
116.0779, 315.6116
116.5600, 333.3331
117.0421, 351.4739
117.5242, 369.5738
118.0063, 388.2773
118.4885, 408.3031
118.9706, 429.8799
119.4527, 451.8158
119.9348, 473.3232
120.4169, 494.6426
120.8990, 516.5757
121.3812, 539.3433
121.8633, 562.8714
122.3454, 587.2516
122.8275, 613.4104
123.3096, 638.5399
123.7917, 659.3109
124.2739, 676.6516
124.7560, 693.9701
125.2381, 714.3912
125.7202, 736.1819
126.2023, 755.8997
126.6844, 772.1816
127.1666, 787.1378
127.6487, 803.2321
128.1308, 820.5486
128.6129, 839.0433
129.0950, 859.0217
129.5771, 880.3605
130.0593, 902.6315
130.5414, 924.9816
131.0235, 948.2645
131.5056, 973.8831
131.9877, 998.1136
132.4698, 1019.235
132.9520, 1040.804
133.4341, 1062.832
133.9162, 1085.225
134.3983, 1107.673
134.8804, 1130.207
135.3625, 1154.071
135.8447, 1179.809
136.3268, 1205.811
136.8089, 1230.937
137.2910, 1255.728
137.7731, 1277.502
138.2552, 1296.076
138.7374, 1311.738
139.2195, 1321.719
139.7016, 1326.057
140.1837, 1325.024
140.6658, 1319.095
141.1479, 1308.155
141.6301, 1292.655
142.1122, 1271.923
142.5943, 1243.349
143.0764, 1216.148
143.5585, 1189.761
144.0406, 1164.735
144.5228, 1142.136
145.0049, 1122.276
145.4870, 1104.593
145.9691, 1088.949
146.4512, 1074.527
146.9333, 1063.139
147.4155, 1055.239
147.8976, 1050.557
148.3797, 1047.335
148.8618, 1046.228
149.3439, 1046.069
149.8260, 1046.103
150.3082, 1047.896
150.7903, 1048.132
151.2724, 1046.528
151.7545, 1043.071
152.2366, 1038.130
152.7188, 1029.776
153.2009, 1020.857
153.6830, 1013.753
154.1651, 1011.294
154.6472, 1008.041
155.1293, 1002.418
155.6115, 994.0145
156.0936, 986.1647
156.5757, 979.1266
157.0578, 972.9995
157.5399, 967.9997
158.0220, 964.9406
158.5042, 962.3638
158.9863, 959.2967
159.4684, 955.1180
159.9505, 953.1359
160.4326, 955.6449
160.9147, 960.7939
161.3969, 965.8258
161.8790, 968.8658
162.3611, 972.2164
162.8432, 977.2264
163.3253, 984.3379
163.8074, 992.0917
164.2896, 999.2247
164.7717, 1006.491
165.2538, 1015.412
165.7359, 1028.844
166.2180, 1042.910
166.7001, 1054.567
167.1823, 1062.410
167.6644, 1069.392
168.1465, 1077.528
168.6286, 1086.294
169.1107, 1094.227
169.5928, 1101.483
170.0750, 1107.095
170.5571, 1110.252
171.0392, 1110.930
171.5213, 1108.838
172.0034, 1103.720
172.4855, 1095.592
172.9677, 1084.682
173.4498, 1069.647
173.9319, 1052.224
174.4140, 1034.825
174.8961, 1017.835
175.3782, 1001.378
175.8604, 985.1906
176.3425, 969.1875
176.8246, 953.3893
177.3067, 935.8331
177.7888, 918.3392
178.2709, 905.1285
178.7531, 899.2873
179.2352, 896.7010
179.7173, 890.6481
180.1994, 881.2643
180.6815, 872.6178
181.1636, 868.4340
181.6458, 867.9188
182.1279, 868.9460
182.6100, 871.7059
183.0921, 875.1802
183.5742, 877.0153
184.0563, 877.0978
184.5385, 877.1686
185.0206, 879.2010
185.5027, 882.8365
185.9848, 886.3323
186.4669, 889.9235
186.9490, 892.8490
187.4312, 892.7970
187.9133, 889.6484
188.3954, 884.3453
188.8775, 877.6685
189.3596, 869.7042
189.8417, 860.8583
190.3239, 851.4733
190.8060, 841.3820
191.2881, 829.9499
191.7702, 817.1365
192.2523, 803.6779
192.7344, 789.8326
193.2166, 775.6711
193.6987, 762.8619
194.1808, 752.3309
194.6629, 743.9425
195.1450, 735.3156
195.6271, 726.1940
196.1093, 717.4780
196.5914, 710.7488
197.0735, 706.1407
197.5556, 701.7776
198.0377, 696.3263
198.5198, 689.7120
199.0020, 685.5786
199.4841, 684.2062
199.9662, 684.7917
200.4483, 686.0497
200.9304, 687.9136
201.4125, 690.8112
201.8947, 695.9188
202.3768, 703.6697
202.8589, 707.6321
203.3410, 706.5767
203.8231, 703.3126
204.3052, 703.1202
204.7874, 706.4828
205.2695, 710.8361
205.7516, 715.4984
206.2337, 720.7456
206.7158, 724.3685
207.1979, 726.0590
207.6801, 726.4110
208.1622, 726.4459
208.6443, 725.9796
209.1264, 725.7672
209.6085, 726.5977
210.0906, 729.1641
210.5728, 729.5132
211.0549, 727.1884
211.5370, 722.9072
212.0191, 718.3008
212.5012, 713.3912
212.9833, 708.0352
213.4655, 702.5051
213.9476, 697.3145
214.4297, 690.0568
214.9118, 680.8065
215.3939, 669.4266
215.8760, 654.6039
216.3581, 634.6212
216.8403, 614.9759
217.3224, 598.7238
217.8045, 586.9297
218.2866, 574.8088
218.7687, 562.0682
219.2508, 549.0471
219.7330, 536.9221
220.2151, 525.5801
220.6972, 515.3450
221.1793, 506.6037
221.6614, 499.6765
222.1435, 493.1044
222.6257, 486.5351
223.1078, 480.3779
223.5899, 475.7361
224.0720, 473.3091
224.5541, 471.2723
225.0362, 468.7189
225.5184, 465.3807
226.0005, 462.1924
226.4826, 458.7929
226.9647, 455.6529
227.4468, 454.1185
227.9289, 454.9610
228.4111, 456.2651
228.8932, 457.0242
229.3753, 456.4224
229.8574, 457.2892
230.3395, 460.1918
230.8216, 464.4524
231.3038, 468.2482
231.7859, 471.1716
232.2680, 474.1860
232.7501, 477.7969
233.2322, 482.4890
233.7143, 486.6781
234.1965, 490.4450
234.6786, 493.7033
235.1607, 496.1839
235.6428, 497.3924
236.1249, 498.5263
236.6070, 500.2837
237.0892, 503.6958
237.5713, 505.3287
238.0534, 504.3590
238.5355, 501.8174
239.0176, 500.3442
239.4997, 500.2649
239.9819, 500.7665
240.4640, 501.5096
240.9461, 502.4457
241.4282, 503.7872
241.9103, 505.8068
242.3924, 508.1496
242.8746, 510.0645
243.3567, 511.9644
243.8388, 512.8177
244.3209, 511.9394
244.8030, 508.2601
245.2851, 505.7752
245.7673, 504.8524
246.2494, 504.9800
246.7315, 505.0197
247.2136, 504.6319
247.6957, 504.7012
248.1778, 505.6337
248.6600, 507.6928
249.1421, 509.9372
249.6242, 513.0497
250.1063, 516.0049
250.5884, 516.6756
251.0705, 514.1036
251.5527, 510.8487
252.0348, 507.7586
252.5169, 504.7722
252.9990, 502.0807
253.4811, 499.7701
253.9632, 497.6621
254.4454, 495.6024
254.9275, 494.0084
255.4096, 491.6169
255.8917, 487.6217
256.3738, 481.3602
256.8560, 476.8322
257.3381, 474.9068
257.8202, 473.9516
258.3023, 471.1249
258.7844, 465.1093
259.2665, 460.1783
259.7487, 457.9203
260.2308, 458.8051
260.7129, 459.2238
261.1950, 459.0668
261.6771, 458.5643
262.1592, 457.9105
262.6414, 456.8643
263.1235, 456.2938
263.6056, 456.5069
264.0877, 457.5490
264.5698, 458.8001
265.0519, 460.4243
265.5341, 462.0298
266.0162, 463.0989
266.4983, 463.4124
266.9804, 463.8573
267.4625, 464.7478
267.9446, 466.0658
268.4268, 467.1366
268.9089, 468.1086
269.3910, 468.5394
269.8731, 467.5835
270.3552, 464.6489
270.8373, 462.7858
271.3195, 462.9173
271.8016, 464.8336
272.2837, 466.4257
272.7658, 467.8028
273.2479, 468.6390
273.7300, 468.3148
274.2122, 466.5159
274.6943, 465.5577
275.1764, 466.0610
275.6585, 467.7768
276.1406, 469.4322
276.6227, 471.0206
277.1049, 472.5862
277.5870, 474.4915
278.0691, 476.8814
278.5512, 477.7942
279.0333, 476.3631
279.5154, 473.5274
279.9976, 472.3495
280.4797, 472.9279
280.9618, 474.6569
281.4439, 478.0186
281.9260, 483.0287
282.4081, 485.6026
282.8903, 484.6319
283.3724, 481.5807
283.8545, 479.8829
284.3366, 479.6276
284.8187, 479.7676
285.3008, 480.1049
285.7830, 480.5214
286.2651, 479.4030
286.7472, 476.2726
287.2293, 472.1849
287.7114, 469.1673
288.1935, 467.2079
288.6757, 465.0340
289.1578, 461.6864
289.6399, 457.4154
290.1220, 453.7762
290.6041, 450.9679
291.0862, 448.3537
291.5684, 444.8152
292.0505, 440.4587
292.5326, 436.4564
293.0147, 433.5336
293.4968, 431.3989
293.9789, 428.8619
294.4611, 425.7763
294.9432, 423.1485
295.4253, 422.6082
295.9074, 423.7192
296.3895, 424.5970
296.8716, 424.6321
297.3538, 423.8647
297.8359, 421.8752
298.3180, 418.5690
298.8001, 415.7674
299.2822, 415.7029
299.7643, 417.5154
300.2465, 418.9243
300.7286, 418.4630
301.2107, 417.6011
301.6928, 418.4421
302.1749, 420.9091
302.6570, 423.9400
303.1392, 426.8991
303.6213, 429.8111
304.1034, 432.7583
304.5855, 436.4543
305.0676, 439.4242
305.5497, 439.9681
306.0319, 438.3696
306.5140, 436.1258
306.9961, 434.1051
307.4782, 432.0491
307.9603, 429.7033
308.4424, 427.2545
308.9246, 424.0555
309.4067, 419.0437
309.8888, 412.7885
310.3709, 406.8179
310.8530, 402.8599
311.3351, 399.1047
311.8173, 393.6979
312.2994, 385.5994
312.7815, 377.9746
313.2636, 373.5621
313.7457, 370.9225
314.2278, 367.4345
314.7100, 361.3666
315.1921, 354.6051
315.6742, 348.0544
316.1563, 341.7470
316.6384, 336.1744
317.1205, 332.4938
317.6027, 329.5109
318.0848, 325.7311
318.5669, 320.2392
319.0490, 314.2614
319.5311, 307.7860
320.0132, 300.7646
320.4954, 295.0273
320.9775, 292.4638
321.4596, 290.7805
321.9417, 288.0726
322.4238, 282.6183
322.9059, 277.4843
323.3881, 273.2102
323.8702, 269.8406
324.3523, 267.2444
324.8344, 266.1417
325.3165, 265.3326
325.7986, 264.0971
326.2808, 262.0173
326.7629, 259.9421
327.2450, 257.5583
327.7271, 255.1255
328.2092, 253.6607
328.6913, 254.0293
329.1735, 254.6113
329.6556, 254.6926
330.1377, 253.4078
330.6198, 253.3202
331.1019, 255.4361
331.5840, 258.4420
332.0662, 259.8049
332.5483, 258.3495
333.0304, 256.9255
333.5125, 256.5176
333.9946, 257.3725
334.4767, 257.8409
334.9589, 257.5957
335.4410, 257.2754
335.9231, 257.7550
336.4052, 259.3314
336.8873, 260.8859
337.3694, 261.9327
337.8516, 262.5506
338.3336, 264.4342
338.8158, 268.0123
339.2979, 271.9695
339.7800, 275.0702
340.2621, 277.1193
340.7442, 279.5543
341.2263, 282.6638
341.7085, 286.2747
342.1906, 289.7589
342.6727, 293.1870
343.1548, 296.2418
343.6369, 298.4116
344.1190, 299.7711
344.6012, 302.1741
345.0833, 306.2734
345.5654, 310.5641
346.0475, 311.9969
346.5296, 310.7296
347.0117, 309.3276
347.4939, 309.8723
347.9760, 311.4212
348.4581, 310.5702
348.9402, 306.8405
349.4223, 302.5289
349.9044, 300.3283
350.3866, 299.7036
350.8687, 298.7850
351.3508, 296.4325
351.8329, 293.4853
352.3150, 291.1520
352.7971, 289.4204
353.2793, 288.1275
353.7614, 287.1500
354.2435, 286.4941
354.7256, 286.2236
355.2077, 286.7655
355.6898, 287.1822
356.1720, 286.2919
356.6541, 284.4203
357.1362, 282.9731
357.6183, 283.2893
358.1004, 284.0955
358.5826, 284.1852
359.0647, 283.0808
359.5468, 281.8959
360.0289, 280.9877
360.5110, 280.4333
360.9931, 280.3807
361.4753, 281.6188
361.9574, 282.7912
362.4395, 282.8388
362.9216, 281.3273
363.4037, 280.9242
363.8858, 283.4348
364.3680, 287.0590
364.8501, 289.9129
365.3322, 291.3275
365.8143, 292.1887
366.2964, 292.2719
366.7785, 291.6298
367.2607, 291.8918
367.7428, 294.2521
368.2249, 296.8748
368.7070, 298.6581
369.1891, 299.2650
369.6712, 299.4167
370.1534, 298.3991
370.6355, 296.9112
371.1176, 297.2860
371.5997, 301.2112
372.0818, 304.8128
372.5639, 306.3980
373.0461, 305.1177
373.5282, 304.6684
374.0103, 305.5632
374.4924, 306.7919
374.9745, 306.7344
375.4566, 305.0337
375.9388, 303.1765
376.4209, 301.6580
376.9030, 300.4174
377.3851, 298.7273
377.8672, 296.5019
378.3493, 294.0661
378.8315, 291.5969
379.3136, 289.0688
379.7957, 287.2270
380.2778, 286.6180
380.7599, 286.3564
381.2420, 283.9536
381.7242, 279.4514
382.2063, 274.6695
382.6884, 270.7437
383.1705, 267.5073
383.6526, 264.5830
384.1347, 261.9793
384.6169, 259.4956
385.0990, 256.9607
385.5811, 254.3768
386.0632, 251.8753
386.5453, 249.2689
387.0274, 246.8802
387.5096, 245.4298
387.9917, 244.9162
388.4738, 244.2747
388.9559, 241.8495
389.4380, 239.0652
389.9201, 237.9185
390.4023, 240.6049
390.8844, 243.3238
391.3665, 243.2385
391.8486, 240.9705
392.3307, 238.7939
392.8128, 237.4839
393.2950, 236.8499
393.7771, 236.7950
394.2592, 237.4074
394.7413, 238.3039
395.2234, 239.9228
395.7055, 241.6318
396.1877, 242.4552
396.6698, 241.2267
397.1519, 239.9873
397.6340, 238.9616
398.1161, 238.0095
398.5982, 238.7829
399.0804, 243.4360
399.5625, 248.6191
400.0446, 251.8931
400.5267, 251.8871
401.0088, 251.9696
401.4909, 252.2930
401.9731, 252.9046
402.4552, 254.0943
402.9373, 256.3717
403.4194, 258.3991
403.9015, 259.2466
404.3836, 258.2178
404.8658, 258.9530
405.3479, 262.0193
405.8300, 266.0631
406.3121, 269.1132
406.7942, 271.0501
407.2763, 272.7543
407.7585, 274.2301
408.2406, 275.6780
408.7227, 278.4936
409.2048, 282.8266
409.6869, 287.1385
410.1690, 289.9294
410.6512, 291.4340
411.1333, 292.9058
411.6154, 294.5727
412.0975, 296.3244
412.5796, 297.9376
413.0617, 299.4725
413.5439, 301.2441
414.0260, 304.0280
414.5081, 306.9563
414.9902, 308.5281
415.4723, 308.5324
415.9544, 308.4604
416.4366, 309.8382
416.9187, 311.8516
417.4008, 313.2745
417.8829, 312.8069
418.3650, 312.3485
418.8471, 313.2670
419.3293, 315.3154
419.8114, 317.0532
420.2935, 318.0214
420.7756, 318.3548
421.2577, 318.0311
421.7398, 316.5570
422.2220, 315.3958
422.7041, 315.0715
423.1862, 315.2261
423.6683, 315.2099
424.1504, 315.0633
424.6325, 314.6163
425.1147, 313.8406
425.5968, 312.7279
426.0789, 311.2878
426.5610, 309.3735
427.0431, 307.2659
427.5252, 305.1230
428.0074, 302.6272
428.4895, 300.8816
428.9716, 300.2708
429.4537, 300.4188
429.9358, 300.2102
430.4179, 299.6431
430.9001, 298.7282
431.3822, 297.3760
431.8643, 295.5789
432.3464, 293.7811
432.8285, 291.9003
433.3106, 290.2922
433.7928, 289.5264
434.2749, 289.5220
434.7570, 289.6159
435.2391, 289.6902
435.7212, 289.6716
436.2033, 289.3672
436.6855, 288.8018
437.1676, 288.1819
437.6497, 287.4767
438.1318, 286.8671
438.6139, 286.7563
439.0960, 287.3786
439.5782, 287.8760
440.0603, 287.6172
440.5424, 286.7219
441.0245, 285.4259
441.5066, 282.9677
441.9887, 280.8358
442.4709, 280.2542
442.9530, 281.1774
443.4351, 281.6949
443.9172, 280.8757
444.3993, 279.4893
444.8814, 278.1203
445.3636, 277.4222
445.8457, 275.9850
446.3278, 272.8332
446.8099, 268.8132
447.2920, 265.9648
447.7741, 265.5373
448.2563, 264.9136
448.7384, 263.1135
449.2205, 259.8210
449.7026, 257.8174
450.1847, 257.6606
450.6668, 258.1209
451.1490, 258.0990
451.6311, 257.4939
452.1132, 256.7605
452.5953, 255.8292
453.0774, 254.9088
453.5595, 254.6039
454.0417, 254.9704
454.5238, 255.4198
455.0059, 255.6800
455.4880, 255.7579
455.9701, 255.5739
456.4522, 255.0551
456.9344, 254.7435
457.4165, 255.4565
457.8986, 256.8699
458.3807, 258.0243
458.8628, 258.3640
459.3449, 258.6043
459.8271, 259.5812
460.3092, 261.1942
460.7913, 263.0190
461.2734, 265.1800
461.7555, 267.2145
462.2376, 268.6416
462.7198, 269.2359
463.2019, 269.9160
463.6840, 271.4251
464.1661, 273.1434
464.6482, 274.3209
465.1303, 273.7578
465.6125, 273.6740
466.0946, 274.9521
466.5767, 277.4352
467.0588, 279.5034
467.5409, 281.0469
468.0230, 282.1474
468.5052, 282.7459
468.9873, 282.4256
469.4694, 282.5860
469.9515, 282.9807
470.4336, 284.0622
470.9157, 286.7924
471.3979, 291.7933
471.8800, 296.2461
472.3621, 299.2722
472.8442, 301.1910
473.3263, 303.5944
473.8084, 306.4970
474.2906, 309.7651
474.7727, 313.3285
475.2548, 317.1783
475.7369, 321.2985
476.2190, 325.7199
476.7011, 330.3239
477.1833, 334.7484
477.6654, 339.2605
478.1475, 344.6143
478.6296, 352.5137
479.1117, 360.4398
479.5938, 365.2177
480.0760, 367.3304
480.5581, 369.8506
481.0402, 374.5145
481.5223, 380.3705
482.0044, 386.8576
482.4865, 394.1904
482.9687, 401.1137
483.4508, 406.8571
483.9329, 412.0457
484.4150, 417.4893
484.8971, 424.1224
485.3792, 430.2489
485.8614, 435.9359
486.3435, 441.1133
486.8256, 444.1794
487.3077, 443.5880
487.7898, 442.6691
488.2719, 443.6068
488.7541, 447.8952
489.2362, 449.1557
489.7183, 447.0108
490.2004, 442.2778
490.6825, 435.5524
491.1646, 426.5714
491.6468, 418.0286
492.1289, 410.8727
492.6110, 404.5854
493.0931, 397.0100
493.5752, 388.1328
494.0573, 379.4399
494.5395, 371.8608
495.0216, 365.1988
495.5037, 358.8489
495.9858, 352.8550
496.4679, 347.2048
496.9500, 342.2191
497.4322, 337.5873
497.9143, 332.8838
498.3964, 326.8944
498.8785, 321.7142
499.3606, 319.0082
499.8427, 318.3186
500.3249, 317.6818
500.8070, 316.3324
501.2891, 314.9040
501.7712, 313.6440
502.2533, 312.3880
502.7354, 311.8486
503.2176, 312.1648
503.6997, 313.1848
504.1818, 314.9202
504.6639, 318.4224
505.1460, 320.5659
505.6281, 320.2205
506.1103, 318.2777
506.5924, 318.5113
507.0745, 321.5582
507.5566, 324.5187
508.0387, 325.4478
508.5208, 324.5138
509.0030, 325.4482
509.4851, 328.5162
509.9672, 331.9666
510.4493, 334.1682
510.9314, 335.2436
511.4135, 335.5060
511.8957, 334.7614
512.3778, 333.7242
512.8599, 333.0449
513.3420, 332.7364
513.8242, 332.8275
514.3063, 333.8354
514.7884, 334.9023
515.2705, 335.3213
515.7526, 335.0428
516.2347, 334.6313
516.7169, 334.6571
517.1990, 334.4293
517.6811, 333.3894
518.1632, 330.3182
518.6453, 327.9572
519.1274, 328.0609
519.6096, 328.7497
520.0917, 326.4253
520.5738, 319.1466
521.0559, 312.0931
521.5380, 306.6626
522.0201, 302.7500
522.5023, 298.4978
522.9844, 293.8209
523.4665, 288.9998
523.9486, 284.3390
524.4307, 279.7947
524.9128, 274.6752
525.3950, 268.8613
525.8771, 262.8766
526.3592, 257.2266
526.8413, 251.9988
527.3234, 247.3190
527.8055, 243.4301
528.2877, 239.9986
528.7698, 236.3820
529.2519, 232.7917
529.7340, 229.9848
530.2161, 229.2061
530.6982, 228.8341
531.1804, 227.5602
531.6625, 225.1040
532.1446, 222.6623
532.6267, 220.4503
533.1088, 218.5397
533.5909, 217.0308
534.0731, 215.8503
534.5552, 215.1877
535.0373, 215.3701
535.5194, 216.0260
536.0015, 216.1959
536.4836, 215.6551
536.9658, 215.0862
537.4479, 214.7927
537.9300, 214.7471
538.4121, 214.0541
538.8942, 212.4455
539.3763, 211.3282
539.8585, 212.4232
540.3406, 215.2597
540.8227, 217.0345
541.3048, 217.2489
541.7869, 216.9161
542.2690, 217.1915
542.7512, 217.9123
543.2333, 218.6700
543.7154, 219.1953
544.1975, 219.7726
544.6796, 220.4279
545.1617, 221.2698
545.6439, 222.7533
546.1260, 225.6067
546.6081, 228.7670
547.0902, 231.6908
547.5723, 234.3111
548.0544, 236.5939
548.5366, 238.1898
549.0187, 239.6631
549.5008, 241.5223
549.9829, 244.0168
550.4650, 246.4042
550.9471, 248.3864
551.4293, 250.3506
551.9114, 253.4494
552.3935, 257.9625
552.8756, 262.2496
553.3577, 265.5127
553.8398, 268.0461
554.3220, 271.1781
554.8041, 274.9315
555.2862, 279.0631
555.7683, 283.3877
556.2504, 287.9776
556.7325, 293.0950
557.2147, 298.7990
557.6968, 304.8781
558.1789, 311.4165
558.6610, 318.1769
559.1431, 324.7426
559.6252, 331.0938
560.1074, 337.0739
560.5895, 341.9419
561.0716, 346.2790
561.5537, 351.9115
562.0358, 360.7976
562.5179, 369.5756
563.0001, 377.0768
563.4822, 383.2025
563.9643, 388.7558
564.4464, 393.4620
564.9285, 397.9934
565.4106, 402.8938
565.8928, 408.2289
566.3749, 413.7608
566.8570, 419.7331
567.3391, 425.4572
567.8212, 429.6278
568.3033, 432.4814
568.7855, 435.5242
569.2676, 439.6772
569.7497, 443.9229
570.2318, 447.2485
570.7139, 449.4848
571.1960, 450.1701
571.6782, 448.3358
572.1603, 445.2704
572.6424, 442.1473
573.1245, 439.0982
573.6066, 435.0380
574.0887, 428.8463
574.5709, 421.8592
575.0530, 415.0734
575.5351, 408.9159
576.0172, 402.4357
576.4993, 395.8123
576.9814, 388.7579
577.4636, 380.7447
577.9457, 371.2010
578.4278, 362.2604
578.9099, 354.6848
579.3920, 348.1661
579.8741, 341.5194
580.3563, 334.7533
580.8384, 328.1301
581.3205, 321.9529
581.8026, 315.9805
582.2847, 309.5965
582.7668, 302.7357
583.2490, 296.3829
583.7311, 291.7275
584.2132, 287.9542
584.6953, 283.9385
585.1774, 279.3355
585.6595, 274.7411
586.1416, 269.9562
586.6237, 265.5171
587.1058, 262.1530
587.5880, 261.4594
588.0701, 260.3060
588.5522, 257.7118
589.0343, 254.0003
589.5164, 250.6165
589.9985, 247.6353
590.4807, 244.8416
590.9628, 242.0787
591.4449, 239.3377
591.9270, 237.0336
592.4091, 235.1945
592.8912, 233.6611
593.3734, 232.5098
593.8555, 231.5932
594.3376, 230.0851
594.8197, 227.6947
595.3018, 225.4592
595.7839, 225.1224
596.2661, 225.7095
596.7482, 225.3280
597.2303, 222.2348
597.7124, 219.0105
598.1945, 217.2708
598.6766, 216.6183
599.1588, 215.9195
599.6409, 215.0431
600.1230, 213.8889
600.6051, 211.9997
601.0872, 209.2651
601.5693, 208.1876
602.0515, 209.9186
602.5336, 211.7492
603.0157, 211.8806
603.4978, 209.9510
603.9799, 208.5542
604.4620, 207.8532
604.9442, 207.3882
605.4263, 206.4818
605.9084, 205.2415
606.3905, 204.4347
606.8726, 204.4117
607.3547, 204.5302
607.8369, 203.7025
608.3190, 202.3598
608.8011, 201.5781
609.2832, 202.2519
609.7653, 203.3348
610.2474, 204.5341
610.7296, 205.7296
611.2117, 206.1020
611.6938, 204.6787
612.1759, 203.0084
612.6580, 201.7501
613.1401, 200.8406
613.6223, 200.6952
614.1044, 201.8473
614.5865, 203.0457
615.0686, 203.0580
615.5507, 201.7180
616.0328, 200.5739
616.5150, 199.6356
616.9971, 199.3010
617.4792, 200.6984
617.9613, 203.4061
618.4434, 205.4503
618.9255, 206.0383
619.4077, 205.8142
619.8898, 205.3227
620.3719, 204.6078
620.8540, 203.7987
621.3361, 202.5881
621.8182, 201.6305
622.3004, 201.4648
622.7825, 202.0972
623.2646, 202.5022
623.7467, 201.9444
624.2288, 201.5670
624.7109, 202.0760
625.1931, 204.0069
625.6752, 204.9221
626.1573, 204.5388
626.6394, 203.6174
627.1215, 202.6938
627.6036, 201.7547
628.0858, 201.7851
628.5679, 203.1698
629.0500, 204.9785
629.5321, 205.9236
630.0142, 206.1311
630.4963, 205.9500
630.9785, 205.1225
631.4606, 204.3658
631.9427, 204.5242
632.4248, 205.3116
632.9069, 205.8109
633.3890, 205.3860
633.8712, 204.8188
634.3533, 204.2328
634.8354, 203.5959
635.3175, 203.9181
635.7996, 206.1508
636.2817, 208.2787
636.7639, 209.0715
637.2460, 208.1070
637.7281, 208.1460
638.2102, 209.6206
638.6923, 210.8679
639.1744, 209.4738
639.6566, 205.9771
640.1387, 203.5155
640.6208, 202.7664
641.1029, 203.0340
641.5850, 204.0582
642.0671, 205.4765
642.5493, 206.5855
643.0314, 207.0579
643.5135, 207.1743
643.9956, 207.1624
644.4777, 206.9217
644.9598, 206.1402
645.4420, 204.2404
645.9241, 202.3095
646.4062, 200.4683
646.8883, 198.7564
647.3704, 198.1295
647.8525, 199.0832
648.3347, 200.0440
648.8168, 199.8847
649.2989, 198.6560
649.7810, 198.2832
650.2631, 198.8742
650.7452, 199.4724
651.2274, 198.9306
651.7095, 197.7520
652.1916, 197.0368
652.6737, 197.1282
653.1558, 197.1812
653.6379, 196.4937
654.1201, 195.4197
654.6022, 194.4244
655.0843, 193.7435
655.5664, 193.0399
656.0485, 191.9900
656.5306, 190.9059
657.0128, 190.5602
657.4949, 191.7510
657.9770, 192.1053
658.4591, 190.6292
658.9412, 187.9316
659.4233, 186.8990
659.9055, 187.6779
660.3876, 188.4904
660.8697, 188.1707
661.3518, 187.2052
661.8339, 186.8611
662.3160, 187.1067
662.7982, 187.3349
663.2803, 186.8125
663.7624, 186.2416
664.2445, 186.5748
664.7266, 188.2062
665.2087, 189.0054
665.6909, 187.4194
666.1730, 185.2014
666.6551, 183.8258
667.1372, 183.7987
667.6193, 183.7975
668.1014, 183.7602
668.5836, 183.8038
669.0657, 184.0052
669.5478, 184.3288
670.0299, 185.4092
670.5120, 187.8477
670.9941, 190.2677
671.4763, 189.4733
671.9584, 186.3297
672.4405, 184.1887
672.9226, 185.3870
673.4047, 187.5291
673.8868, 188.8189
674.3690, 189.3419
674.8511, 189.4484
675.3332, 188.1583
675.8153, 187.5121
676.2974, 188.8192
676.7795, 192.2091
677.2617, 194.5074
677.7438, 195.4001
678.2259, 195.7025
678.7080, 195.7643
679.1901, 195.5726
679.6722, 195.1221
680.1544, 194.2687
680.6365, 193.9545
681.1186, 195.5249
681.6007, 198.2728
682.0828, 200.5193
682.5649, 202.0295
683.0471, 202.8836
683.5292, 202.2529
684.0113, 201.3332
684.4934, 201.6303
684.9755, 204.5822
685.4576, 207.1731
685.9398, 208.0138
686.4219, 208.2517
686.9040, 209.9061
687.3861, 214.3358
687.8682, 217.2870
688.3503, 217.3203
688.8325, 216.0363
689.3146, 218.1556
689.7967, 223.7312
690.2788, 228.2000
690.7609, 228.7663
691.2430, 227.7607
691.7252, 229.7425
692.2073, 234.1269
692.6894, 238.1906
693.1715, 239.7159
693.6536, 240.8699
694.1357, 243.0191
694.6179, 246.2344
695.1000, 250.1988
695.5821, 256.1760
696.0642, 261.6535
696.5463, 265.1764
697.0284, 266.2486
697.5106, 268.6877
697.9927, 272.7027
698.4748, 277.6185
698.9569, 283.0086
699.4390, 288.8491
699.9211, 294.8497
700.4033, 301.0403
700.8854, 307.0273
701.3675, 312.3401
701.8496, 317.2141
702.3317, 322.1015
702.8138, 327.2568
703.2960, 331.9028
703.7781, 336.6213
704.2602, 340.2242
704.7423, 341.2553
705.2244, 337.9985
705.7065, 333.9677
706.1887, 329.5063
706.6708, 324.3473
707.1529, 317.6060
707.6350, 309.0236
708.1171, 300.2817
708.5992, 291.4837
709.0814, 283.1749
709.5635, 276.3950
710.0456, 270.9806
710.5277, 266.2849
711.0098, 262.1221
711.4919, 258.4270
711.9741, 255.3071
712.4562, 252.6792
712.9383, 250.0924
713.4204, 246.6451
713.9025, 243.9084
714.3846, 242.8199
714.8668, 243.2722
715.3489, 243.6222
715.8310, 243.7905
716.3131, 244.0186
716.7952, 244.3927
717.2773, 244.9173
717.7595, 245.6753
718.2416, 246.6571
718.7237, 248.0143
719.2058, 250.5592
719.6879, 253.3067
720.1700, 254.2283
720.6522, 253.0134
721.1343, 252.2983
721.6164, 253.8681
722.0985, 256.4250
722.5806, 259.0197
723.0627, 261.6764
723.5449, 263.8777
724.0270, 264.9511
724.5091, 266.2069
724.9912, 269.0850
725.4733, 274.0283
725.9554, 278.0879
726.4376, 280.8040
726.9197, 283.2473
727.4018, 287.1179
727.8839, 291.9057
728.3660, 295.8350
728.8481, 298.0277
729.3303, 300.3657
729.8124, 305.1828
730.2945, 310.9918
730.7766, 315.4743
731.2587, 316.3617
731.7408, 317.7665
732.2230, 320.7477
732.7051, 324.8011
733.1872, 329.0611
733.6693, 333.3753
734.1514, 338.2096
734.6335, 343.6669
735.1157, 349.7121
735.5978, 356.4814
736.0799, 363.8861
736.5620, 371.1510
737.0441, 377.4470
737.5262, 383.7964
738.0084, 391.5082
738.4905, 400.3641
738.9726, 409.6169
739.4547, 419.8078
739.9368, 429.4955
740.4189, 438.5068
740.9011, 446.6824
741.3832, 452.7328
741.8653, 457.7587
742.3474, 458.6891
742.8295, 453.7274
743.3116, 443.3835
743.7938, 431.4673
744.2759, 417.9589
744.7580, 403.4494
745.2401, 387.4475
745.7222, 371.2912
746.2043, 356.8039
746.6865, 344.0053
747.1686, 332.5033
747.6507, 322.4842
748.1328, 313.2264
748.6149, 303.8338
749.0970, 293.9069
749.5792, 286.7685
750.0613, 284.1713
750.5434, 282.2239
751.0255, 277.8456
751.5076, 270.5938
751.9897, 266.8737
752.4719, 267.1129
752.9540, 268.7482
753.4361, 269.6631
753.9182, 270.1299
754.4003, 270.6646
754.8824, 271.3103
755.3646, 272.1893
755.8467, 273.5494
756.3288, 275.0858
756.8109, 276.3865
757.2930, 276.7179
757.7751, 278.3627
758.2573, 282.6389
758.7394, 287.1281
759.2215, 289.1445
759.7036, 288.1439
760.1857, 288.6472
760.6678, 291.0959
761.1500, 294.9373
761.6321, 300.1211
762.1142, 306.0557
762.5963, 311.2803
763.0784, 315.1469
763.5605, 318.9662
764.0427, 323.3095
764.5248, 328.2809
765.0069, 334.0121
765.4890, 341.6534
765.9711, 348.5326
766.4532, 354.3099
766.9354, 359.4239
767.4175, 364.8278
767.8996, 370.8749
768.3817, 375.1112
768.8638, 377.1750
769.3459, 377.2253
769.8281, 375.3009
770.3102, 371.5276
770.7923, 366.1450
771.2744, 358.3952
771.7565, 350.3750
772.2386, 343.2263
772.7208, 336.7825
773.2029, 330.7541
773.6850, 325.2263
774.1671, 319.9081
774.6492, 314.4811
775.1313, 309.3577
775.6135, 305.5732
776.0956, 303.3395
776.5777, 301.1251
777.0598, 298.4725
777.5419, 295.7001
778.0240, 293.1535
778.5062, 290.9070
778.9883, 289.1937
779.4704, 288.8022
779.9525, 288.3071
780.4346, 286.8825
780.9167, 284.6975
781.3989, 282.1425
781.8810, 278.5324
782.3631, 275.5185
782.8452, 273.7133
783.3273, 272.6206
783.8094, 270.4666
784.2916, 267.0552
784.7737, 264.5694
785.2558, 264.0128
785.7379, 264.5418
786.2200, 265.0855
786.7021, 265.4576
787.1843, 265.0160
787.6664, 262.2913
788.1485, 259.7905
788.6306, 259.3319
789.1127, 260.3351
789.5948, 260.5866
790.0770, 259.8463
790.5591, 258.3066
791.0412, 255.6223
791.5233, 252.2950
792.0054, 250.2346
792.4875, 249.4819
792.9697, 248.6933
793.4518, 246.8560
793.9339, 245.0192
794.4160, 245.5014
794.8981, 247.5479
795.3802, 248.6496
795.8624, 246.7387
796.3445, 244.4758
796.8266, 243.1930
797.3087, 242.6860
797.7908, 241.6713
798.2729, 239.9134
798.7551, 238.0561
799.2372, 236.1689
799.7193, 234.3468
800.2014, 232.8450
800.6835, 231.6759
801.1656, 230.9332
801.6478, 230.6950
802.1299, 230.9021
802.6120, 232.2603
803.0941, 234.1144
803.5762, 234.3776
804.0583, 230.3426
804.5405, 226.4613
805.0226, 224.6477
805.5047, 224.4075
805.9868, 223.9002
806.4689, 223.1151
806.9510, 222.0754
807.4332, 220.6653
807.9153, 219.0913
808.3974, 218.1106
808.8795, 217.6066
809.3616, 216.9065
809.8438, 215.1724
810.3259, 213.5240
810.8080, 213.2342
811.2901, 213.8437
811.7722, 213.8203
812.2543, 212.3763
812.7365, 210.6522
813.2186, 208.6347
813.7007, 206.5876
814.1828, 205.7511
814.6649, 206.3365
815.1470, 206.3568
815.6292, 204.7223
816.1113, 202.4679
816.5934, 201.7550
817.0755, 202.1320
817.5576, 202.1144
818.0397, 200.3390
818.5219, 198.6317
819.0040, 198.0965
819.4861, 198.3935
819.9682, 198.3820
820.4503, 197.7811
820.9324, 197.2191
821.4146, 196.7823
821.8967, 196.5128
822.3788, 196.7224
822.8609, 197.3564
823.3430, 197.5475
823.8251, 196.7499
824.3073, 195.6644
824.7894, 195.0779
825.2715, 194.8488
825.7536, 194.6425
826.2357, 194.3771
826.7178, 194.0735
827.2000, 193.7173
827.6821, 193.3315
828.1642, 192.9770
828.6463, 192.6766
829.1284, 192.2885
829.6105, 191.7197
830.0927, 191.1481
830.5748, 190.9189
831.0569, 190.9621
831.5390, 191.0457
832.0211, 191.1720
832.5032, 191.1782
832.9854, 190.9407
833.4675, 190.5116
833.9496, 189.9733
834.4317, 189.1253
834.9138, 188.4456
835.3959, 187.8647
835.8781, 187.5661
836.3602, 188.0947
836.8423, 189.4381
837.3244, 190.0157
837.8065, 189.3833
838.2886, 188.3826
838.7708, 187.9592
839.2529, 187.8533
839.7350, 187.5706
840.2171, 186.5855
840.6992, 186.2109
841.1813, 187.7954
841.6635, 189.6629
842.1456, 190.0313
842.6277, 188.4290
843.1098, 186.6892
843.5919, 184.8216
844.0740, 183.0584
844.5562, 181.8201
845.0383, 180.9249
845.5204, 179.7838
846.0025, 178.2558
846.4846, 176.8595
846.9667, 175.8371
847.4489, 175.2003
847.9310, 175.0656
848.4131, 175.8265
848.8952, 176.0160
849.3773, 175.4394
849.8594, 174.5190
850.3416, 173.5406
850.8237, 172.5030
851.3058, 171.2087
851.7879, 169.5997
852.2700, 168.4053
852.7521, 168.4766
853.2343, 169.1344
853.7164, 169.6246
854.1985, 169.8599
854.6806, 170.0408
855.1627, 170.5020
855.6448, 170.6545
856.1270, 170.1450
856.6091, 168.9554
857.0912, 167.8298
857.5733, 166.7289
858.0554, 165.9565
858.5375, 165.9158
859.0197, 166.2797
859.5018, 166.5351
859.9839, 166.6026
860.4660, 166.0514
860.9481, 164.1193
861.4302, 161.9890
861.9124, 160.1048
862.3945, 158.5628
862.8766, 157.5639
863.3587, 157.1169
863.8408, 157.3064
864.3229, 158.4913
864.8051, 160.1219
865.2872, 160.2532
865.7693, 159.1481
866.2514, 158.3415
866.7335, 159.0869
867.2156, 159.9371
867.6978, 159.7216
868.1799, 158.7641
868.6620, 157.7971
869.1441, 156.6999
869.6262, 156.0071
870.1083, 155.8772
870.5905, 156.1174
871.0726, 156.3887
871.5547, 156.6928
872.0368, 156.9782
872.5189, 157.2702
873.0010, 157.4361
873.4832, 157.3100
873.9653, 156.9560
874.4474, 156.4640
874.9295, 155.6775
875.4116, 155.0666
875.8937, 154.7154
876.3759, 154.6065
876.8580, 154.9126
877.3401, 155.8683
877.8222, 155.6803
878.3043, 153.9713
878.7864, 152.2262
879.2686, 152.1541
879.7507, 153.1120
880.2328, 154.1169
880.7149, 155.0895
881.1970, 155.4545
881.6791, 154.5191
882.1613, 153.1864
882.6434, 151.9850
883.1255, 150.8810
883.6076, 150.3607
884.0897, 150.5907
884.5718, 150.8732
885.0540, 150.7617
885.5361, 150.3289
886.0182, 149.8679
886.5003, 149.3482
886.9824, 148.5267
887.4645, 146.3201
887.9467, 144.5962
888.4288, 145.1137
888.9109, 147.5908
889.3930, 148.5338
889.8751, 147.3053
890.3572, 145.6582
890.8394, 143.9012
891.3215, 142.2980
891.8036, 141.9539
892.2857, 142.6080
892.7678, 142.8072
893.2499, 141.4912
893.7321, 140.0012
894.2142, 139.2769
894.6963, 139.0938
895.1784, 139.0352
895.6605, 139.2842
896.1426, 139.2603
896.6248, 138.8541
897.1069, 138.2251
897.5890, 137.6196
898.0711, 137.0179
898.5532, 136.2193
899.0353, 135.1154
899.5175, 134.1254
899.9996, 133.3870
900.4817, 133.1035
900.9638, 133.7312
901.4459, 136.1147
901.9280, 137.0857
902.4102, 135.3962
902.8923, 133.3761
903.3744, 132.8295
903.8565, 133.7966
904.3386, 133.7318
904.8207, 132.6061
905.3029, 131.1025
905.7850, 129.2655
906.2671, 127.6736
906.7492, 127.0951
907.2313, 127.5053
907.7134, 127.9553
908.1956, 128.2536
908.6777, 128.4570
909.1598, 128.6597
909.6419, 128.7839
910.1240, 128.2313
910.6061, 126.9855
911.0883, 126.2394
911.5704, 126.9256
912.0525, 127.8815
912.5346, 127.2743
913.0167, 125.8141
913.4988, 125.0407
913.9810, 126.6721
914.4631, 127.5244
914.9452, 126.3947
915.4273, 124.5478
915.9094, 123.9362
916.3915, 124.7014
916.8737, 124.7440
917.3558, 123.6183
917.8379, 122.4153
918.3200, 122.5128
918.8021, 123.2776
919.2842, 123.8542
919.7664, 124.1171
920.2485, 123.9891
920.7306, 122.5210
921.2127, 121.4884
921.6948, 122.3171
922.1769, 125.2444
922.6591, 126.1284
923.1412, 124.7867
923.6233, 123.2130
924.1054, 123.0612
924.5875, 123.3732
925.0696, 122.3956
925.5518, 120.4488
926.0339, 119.4584
926.5160, 121.6690
926.9981, 123.2877
927.4802, 122.7557
927.9623, 120.8076
928.4445, 119.6109
928.9266, 119.1914
929.4087, 119.2887
929.8908, 120.0939
930.3729, 120.8259
930.8550, 120.0732
931.3372, 118.5679
931.8193, 117.6423
932.3014, 117.9781
932.7835, 118.4563
933.2656, 119.3542
933.7477, 119.8785
934.2299, 119.1073
934.7120, 116.8610
935.1941, 114.9322
935.6762, 113.3625
936.1583, 112.5554
936.6404, 113.4865
937.1226, 115.1079
937.6047, 116.1675
938.0868, 116.5393
938.5689, 116.2954
939.0510, 114.4786
939.5331, 113.1118
940.0153, 113.1446
940.4974, 114.3298
940.9795, 115.0520
941.4616, 115.3154
941.9437, 115.0466
942.4258, 113.8506
942.9080, 112.5228
943.3901, 112.1173
943.8722, 112.3176
944.3543, 112.4444
944.8364, 112.6272
945.3185, 112.1860
945.8007, 110.4153
946.2828, 108.5897
946.7649, 108.8156
947.2470, 111.0147
947.7291, 111.9273
948.2112, 111.0058
948.6934, 109.6682
949.1755, 108.8521
949.6576, 108.5824
950.1397, 109.1098
950.6218, 110.7071
951.1039, 111.4556
951.5861, 110.4448
952.0682, 109.5563
952.5503, 109.9250
953.0324, 111.2608
953.5145, 111.4197
953.9966, 110.4897
954.4788, 109.5646
954.9609, 109.1783
955.4430, 109.1217
955.9251, 109.4902
956.4072, 110.0520
956.8893, 110.1740
957.3715, 109.4079
957.8536, 108.8635
958.3357, 108.8349
958.8178, 108.8604
959.2999, 107.7981
959.7820, 106.0520
960.2642, 105.6683
960.7463, 107.2390
961.2284, 108.9500
961.7105, 109.8703
962.1926, 110.0887
962.6747, 109.4550
963.1569, 107.6207
963.6390, 106.8146
964.1211, 107.3167
964.6032, 108.0688
965.0853, 108.3340
965.5674, 108.3693
966.0496, 109.2117
966.5317, 110.6059
967.0138, 111.3609
967.4959, 109.7415
967.9780, 108.4871
968.4601, 109.5273
968.9423, 111.7752
969.4244, 112.6118
969.9065, 111.6023
970.3886, 111.1292
970.8707, 111.7366
971.3528, 112.5843
971.8350, 112.3349
972.3171, 111.5802
972.7992, 111.4520
973.2813, 112.2985
973.7634, 113.1423
974.2455, 113.9775
974.7277, 114.3395
975.2098, 113.6668
975.6919, 111.9300
976.1740, 111.5983
976.6561, 112.7100
977.1382, 114.3799
977.6204, 116.8281
978.1025, 119.0007
978.5846, 119.0620
979.0667, 117.7588
979.5488, 117.3152
980.0309, 119.6870
980.5131, 121.2627
980.9952, 121.2704
981.4773, 120.4408
981.9594, 119.7998
982.4415, 119.3692
982.9236, 119.3365
983.4058, 119.7463
983.8879, 120.4968
984.3700, 122.0353
984.8521, 123.5276
985.3342, 124.0332
985.8163, 123.1219
986.2985, 122.8694
986.7806, 123.3858
987.2627, 124.3686
987.7448, 125.8515
988.2269, 127.6122
988.7090, 129.0388
989.1912, 130.1406
989.6733, 130.9490
990.1554, 131.3567
990.6375, 131.6170
991.1196, 131.3277
991.6017, 131.1662
992.0839, 132.4794
992.5660, 135.8397
993.0481, 138.0068
993.5302, 138.4321
994.0123, 138.3684
994.4944, 139.2400
994.9766, 140.5647
995.4587, 141.6503
995.9408, 142.3919
996.4229, 142.9238
996.9050, 143.0618
997.3871, 143.2270
997.8693, 143.5705
998.3514, 144.0878
998.8335, 144.8554
999.3156, 145.8436
999.7977, 146.5541
1000.280, 146.6329
1000.762, 146.5143
1001.244, 146.1526
1001.726, 146.0002
1002.208, 146.8516
1002.690, 149.9469
1003.173, 152.1697
1003.655, 153.3201
1004.137, 153.7945
1004.619, 153.9539
1005.101, 153.7599
1005.583, 152.6025
1006.065, 150.5344
1006.547, 149.6182
1007.029, 152.2607
1007.512, 155.2901
1007.994, 156.9452
1008.476, 157.4111
1008.958, 157.3723
1009.440, 156.7282
1009.922, 156.1586
1010.404, 155.7967
1010.886, 155.7550
1011.369, 156.4801
1011.851, 157.5516
1012.333, 158.2221
1012.815, 158.0640
1013.297, 158.1200
1013.779, 158.8468
1014.261, 159.5199
1014.743, 159.3521
1015.225, 158.4493
1015.708, 159.3229
1016.190, 161.8423
1016.672, 163.8432
1017.154, 163.2076
1017.636, 162.1626
1018.118, 162.5524
1018.600, 163.8462
1019.082, 164.0370
1019.565, 162.0526
1020.047, 161.7987
1020.529, 164.4701
1021.011, 167.6420
1021.493, 167.5720
1021.975, 165.6093
1022.457, 164.5643
1022.939, 164.9608
1023.421, 165.7827
1023.904, 167.3273
1024.386, 168.4147
1024.868, 168.1745
1025.350, 166.8591
1025.832, 166.8981
1026.314, 168.2811
1026.796, 170.0654
1027.278, 172.3355
1027.760, 174.1348
1028.243, 173.6686
1028.725, 172.3280
1029.207, 172.4650
1029.689, 175.9123
1030.171, 178.5383
1030.653, 180.1721
1031.135, 181.2352
1031.617, 181.7946
1032.100, 182.1536
1032.582, 183.6266
1033.064, 186.1236
1033.546, 187.7958
1034.028, 186.4030
1034.510, 185.2845
1034.992, 186.3739
1035.474, 188.8839
1035.957, 190.5590
1036.439, 191.3774
1036.921, 192.0528
1037.403, 192.6660
1037.885, 193.5287
1038.367, 195.1052
1038.849, 197.0819
1039.331, 199.1015
1039.813, 201.2452
1040.296, 202.9221
1040.778, 204.1014
1041.260, 204.8360
1041.742, 205.0622
1042.224, 204.8849
1042.706, 204.5535
1043.188, 204.1158
1043.670, 203.7440
1044.152, 203.3082
1044.635, 203.2044
1045.117, 203.7936
1045.599, 204.7108
1046.081, 205.5397
1046.563, 206.3069
1047.045, 206.9370
1047.527, 207.4674
1048.009, 207.4535
1048.492, 205.8846
1048.974, 203.9967
1049.456, 203.3849
1049.938, 203.9604
1050.420, 203.5857
1050.902, 201.5326
1051.384, 199.5138
1051.866, 197.8019
1052.349, 196.5587
1052.831, 196.5500
1053.313, 197.2386
1053.795, 197.0680
1054.277, 195.4859
1054.759, 193.7679
1055.241, 192.2404
1055.723, 191.0169
1056.205, 190.1280
1056.688, 189.5744
1057.170, 189.6681
1057.652, 190.4088
1058.134, 190.6079
1058.616, 188.8889
1059.098, 187.1795
1059.580, 187.5983
1060.062, 189.2375
1060.544, 190.3967
1061.027, 190.6720
1061.509, 190.6138
1061.991, 189.8676
1062.473, 189.8442
1062.955, 191.9815
1063.437, 195.8331
1063.919, 200.7985
1064.401, 206.6759
1064.884, 212.5796
1065.366, 216.0406
1065.848, 222.0960
1066.330, 232.8691
1066.812, 246.4521
1067.294, 258.4571
1067.776, 269.0510
1068.258, 281.0535
1068.740, 295.0084
1069.223, 310.2140
1069.705, 326.5099
1070.187, 343.6539
1070.669, 361.5467
1071.151, 380.2331
1071.633, 399.9982
1072.115, 420.7433
1072.597, 443.8569
1073.079, 469.7377
1073.562, 498.5516
1074.044, 530.9194
1074.526, 566.5225
1075.008, 605.5593
1075.490, 648.8961
1075.972, 694.0240
1076.454, 741.0819
1076.936, 788.7845
1077.419, 837.7956
1077.901, 886.9961
1078.383, 933.6735
1078.865, 977.3810
1079.347, 1012.945
1079.829, 1034.405
1080.311, 1050.622
1080.793, 1064.100
1081.275, 1075.358
1081.758, 1083.986
1082.240, 1089.775
1082.722, 1097.463
1083.204, 1107.484
1083.686, 1121.031
1084.168, 1141.903
1084.650, 1165.093
1085.132, 1185.646
1085.615, 1203.430
1086.097, 1223.346
1086.579, 1244.699
1087.061, 1270.596
1087.543, 1301.287
1088.025, 1337.539
1088.507, 1378.819
1088.989, 1426.395
1089.471, 1483.551
1089.953, 1553.352
1090.436, 1624.239
1090.918, 1697.953
1091.400, 1767.176
1091.882, 1833.631
1092.364, 1892.129
1092.846, 1921.374
1093.328, 1921.197
1093.810, 1891.924
1094.293, 1826.665
1094.775, 1741.594
1095.257, 1632.813
1095.739, 1514.144
1096.221, 1399.571
1096.703, 1288.528
1097.185, 1183.258
1097.667, 1083.345
1098.150, 988.9396
1098.632, 901.9924
1099.114, 820.4095
1099.596, 740.1451
1100.078, 663.3442
1100.560, 596.4276
1101.042, 541.0776
1101.524, 492.2042
1102.006, 449.3278
1102.489, 411.6763
1102.971, 377.2802
1103.453, 346.5771
1103.935, 321.0677
1104.417, 300.5814
1104.899, 282.9449
1105.381, 268.0198
1105.863, 255.0189
1106.345, 244.0881
1106.828, 234.5531
1107.310, 225.1317
1107.792, 216.0501
1108.274, 208.3568
1108.756, 202.3473
1109.238, 197.0685
1109.720, 192.3244
1110.202, 188.0180
1110.685, 184.1157
1111.167, 180.6073
1111.649, 177.8991
1112.131, 175.8982
1112.613, 173.5305
1113.095, 170.2548
1113.577, 166.7188
1114.059, 162.9505
1114.542, 159.4856
1115.024, 157.0915
1115.506, 156.1224
1115.988, 154.0980
1116.470, 150.8841
1116.952, 147.9637
1117.434, 146.6284
1117.916, 145.8682
1118.398, 144.7627
1118.880, 143.3427
1119.363, 141.6565
1119.845, 139.1455
1120.327, 137.6891
1120.809, 137.6935
1121.291, 137.8981
1121.773, 137.0160
1122.255, 135.4866
1122.737, 134.0522
1123.220, 132.7234
1123.702, 131.2496
1124.184, 128.7760
1124.666, 127.3637
1125.148, 127.8010
1125.630, 128.8364
1126.112, 128.3629
1126.594, 126.8295
1127.077, 125.5997
1127.559, 124.8696
1128.041, 124.2054
1128.523, 123.5094
1129.005, 122.6720
1129.487, 121.4936
1129.969, 120.2238
1130.451, 119.7898
1130.933, 120.0530
1131.416, 119.8669
1131.898, 118.7450
1132.380, 117.8780
1132.862, 118.6487
1133.344, 119.5068
1133.826, 118.9680
1134.308, 117.1479
1134.790, 116.5933
1135.272, 117.3321
1135.755, 118.1216
1136.237, 118.4894
1136.719, 118.6495
1137.201, 118.9153
1137.683, 119.0355
1138.165, 118.5384
1138.647, 117.1055
1139.129, 116.5744
1139.612, 117.0820
1140.094, 117.5861
1140.576, 117.1245
1141.058, 116.5498
1141.540, 117.3974
1142.022, 118.8810
1142.504, 119.2879
1142.986, 117.3006
1143.469, 116.2020
1143.951, 116.2601
1144.433, 116.5998
1144.915, 116.5896
1145.397, 116.2764
1145.879, 115.5261
1146.361, 114.5097
1146.843, 113.8986
1147.325, 114.4772
1147.807, 114.6385
1148.290, 114.1157
1148.772, 113.2526
1149.254, 112.1577
1149.736, 111.1191
1150.218, 111.2036
1150.700, 112.3374
1151.182, 112.7626
1151.664, 110.7114
1152.147, 109.1201
1152.629, 108.8632
1153.111, 109.4317
1153.593, 110.2029
1154.075, 111.0062
1154.557, 111.1038
1155.039, 110.3577
1155.521, 109.3939
1156.004, 108.4497
1156.486, 107.4545
1156.968, 106.1199
1157.450, 104.8258
1157.932, 105.1229
1158.414, 106.7136
1158.896, 107.3535
1159.378, 106.3152
1159.860, 105.1487
1160.343, 104.9608
1160.825, 104.9455
1161.307, 104.4008
1161.789, 103.4630
1162.271, 103.3752
1162.753, 104.0954
1163.235, 104.6534
1163.717, 104.6613
1164.199, 104.5078
1164.682, 104.3877
1165.164, 104.3476
1165.646, 104.6031
1166.128, 105.2178
1166.610, 104.5109
1167.092, 102.4223
1167.574, 100.7924
1168.056, 100.5900
1168.539, 101.1520
1169.021, 102.3578
1169.503, 103.7287
1169.985, 104.6040
1170.467, 104.9602
1170.949, 104.7914
1171.431, 104.0503
1171.913, 103.2411
1172.396, 102.5840
1172.878, 102.1253
1173.360, 101.8573
1173.842, 101.8340
1174.324, 102.2331
1174.806, 103.4092
1175.288, 103.9362
1175.770, 103.6921
1176.252, 103.2580
1176.734, 103.0308
1177.217, 102.9156
1177.699, 102.6566
1178.181, 102.4154
1178.663, 102.7687
1179.145, 104.4749
1179.627, 104.8365
1180.109, 103.2748
1180.591, 101.9136
1181.074, 103.6588
1181.556, 106.3229
1182.038, 106.5194
1182.520, 104.6963
1183.002, 103.7702
1183.484, 104.8418
1183.966, 105.4155
1184.448, 105.0901
1184.931, 104.5174
1185.413, 104.5974
1185.895, 104.8400
1186.377, 104.1421
1186.859, 102.6394
1187.341, 102.1246
1187.823, 103.6985
1188.305, 104.6519
1188.787, 104.3098
1189.270, 103.5844
1189.752, 103.7110
1190.234, 104.3400
1190.716, 104.9367
1191.198, 105.4376
1191.680, 105.8041
1192.162, 105.8546
1192.644, 106.1449
1193.126, 106.9316
1193.609, 107.7747
1194.091, 107.9215
1194.573, 107.6202
1195.055, 107.1423
1195.537, 106.4934
1196.019, 106.5878
1196.501, 108.1753
1196.983, 109.5355
1197.466, 110.2163
1197.948, 110.3179
1198.430, 109.5614
1198.912, 108.5120
1199.394, 108.3782
1199.876, 109.4916
1200.358, 110.7299
1200.840, 112.2285
1201.323, 113.1079
1201.805, 112.7746
1202.287, 112.0138
1202.769, 112.8858
1203.251, 114.4785
1203.733, 114.6120
1204.215, 112.2972
1204.697, 110.9849
1205.179, 111.7354
1205.661, 112.5997
1206.144, 112.7231
1206.626, 112.4233
1207.108, 112.2846
1207.590, 112.3059
1208.072, 112.4911
1208.554, 112.8439
1209.036, 113.3834
1209.518, 114.3231
1210.001, 114.9782
1210.483, 114.7767
1210.965, 114.2572
1211.447, 114.9405
1211.929, 116.2862
1212.411, 117.1237
1212.893, 116.9837
1213.375, 116.5894
1213.858, 115.7541
1214.340, 115.2995
1214.822, 115.8451
1215.304, 116.9730
1215.786, 117.9709
1216.268, 118.7003
1216.750, 118.7445
1217.232, 117.3350
1217.714, 116.7074
1218.197, 117.2740
1218.679, 118.0593
1219.161, 118.5685
1219.643, 118.7795
1220.125, 118.4780
1220.607, 117.8741
1221.089, 117.4433
1221.571, 117.2328
1222.053, 117.4683
1222.536, 118.3221
1223.018, 119.1774
1223.500, 119.7751
1223.982, 120.0041
1224.464, 119.0910
1224.946, 117.7010
1225.428, 117.3532
1225.910, 119.7549
1226.393, 121.0738
1226.875, 121.0944
1227.357, 120.5234
1227.839, 119.5435
1228.321, 118.5114
1228.803, 117.9397
1229.285, 117.7864
1229.767, 117.9697
1230.250, 118.6361
1230.732, 119.3300
1231.214, 120.0573
1231.696, 120.7741
1232.178, 121.6264
1232.660, 122.3087
1233.142, 121.9849
1233.624, 121.2190
1234.106, 121.4416
1234.589, 123.6852
1235.071, 124.5954
1235.553, 123.9150
1236.035, 122.8746
1236.517, 122.0519
1236.999, 121.6914
1237.481, 122.5592
1237.963, 124.0185
1238.445, 124.5302
1238.928, 123.5383
1239.410, 123.3272
1239.892, 124.0485
1240.374, 124.8466
1240.856, 125.0626
1241.338, 125.0632
1241.820, 125.1113
1242.302, 125.2168
1242.785, 125.3245
1243.267, 125.3224
1243.749, 126.1854
1244.231, 128.0168
1244.713, 129.1400
1245.195, 127.1704
1245.677, 125.2134
1246.159, 126.1970
1246.641, 128.5741
1247.124, 129.2982
1247.606, 128.1395
1248.088, 128.2795
1248.570, 129.8197
1249.052, 130.8679
1249.534, 128.9943
1250.016, 127.5158
1250.498, 129.2281
1250.980, 132.0641
1251.463, 133.3221
1251.945, 133.0157
1252.427, 132.3745
1252.909, 131.5174
1253.391, 131.1510
1253.873, 132.6991
1254.355, 133.6341
1254.837, 132.2403
1255.320, 130.2075
1255.802, 129.3459
1256.284, 129.5188
1256.766, 129.9604
1257.248, 130.6363
1257.730, 131.5465
1258.212, 133.3050
1258.694, 134.4044
1259.177, 134.0967
1259.659, 133.5530
1260.141, 134.1500
1260.623, 135.4959
1261.105, 136.2585
1261.587, 136.4951
1262.069, 136.7198
1262.551, 137.1442
1263.033, 137.5648
1263.516, 137.9530
1263.998, 138.3365
1264.480, 138.9285
1264.962, 139.4507
1265.444, 139.2214
1265.926, 138.3869
1266.408, 137.5307
1266.890, 136.6622
1267.372, 135.9839
1267.855, 135.4168
1268.337, 135.3625
1268.819, 136.8868
1269.301, 138.6254
1269.783, 138.1951
1270.265, 136.4397
1270.747, 135.8527
1271.229, 137.0961
1271.712, 138.1451
1272.194, 138.9592
1272.676, 139.2271
1273.158, 138.1407
1273.640, 136.9263
1274.122, 136.6667
1274.604, 137.1499
1275.086, 137.9354
1275.568, 139.0854
1276.051, 140.0838
1276.533, 140.9253
1277.015, 141.3298
1277.497, 140.7675
1277.979, 140.1172
1278.461, 140.0942
1278.943, 140.1686
1279.425, 139.4968
1279.907, 138.1046
1280.390, 137.9453
1280.872, 138.9037
1281.354, 139.7923
1281.836, 139.9499
1282.318, 139.9358
1282.800, 139.9307
1283.282, 139.8451
1283.764, 139.5201
1284.247, 139.0360
1284.729, 138.9253
1285.211, 139.0545
1285.693, 138.9228
1286.175, 137.7086
1286.657, 137.2497
1287.139, 138.1465
1287.621, 138.9344
1288.104, 138.0048
1288.586, 136.4505
1289.068, 137.0932
1289.550, 138.9010
1290.032, 139.4573
1290.514, 136.9328
1290.996, 135.4983
1291.478, 135.3652
1291.960, 135.4423
1292.443, 134.9026
1292.925, 134.3320
1293.407, 134.4778
1293.889, 135.0773
1294.371, 135.8378
1294.853, 136.9268
1295.335, 136.7841
1295.817, 135.3663
1296.299, 134.3674
1296.782, 134.9876
1297.264, 135.7989
1297.746, 135.8866
1298.228, 135.4753
1298.710, 134.7789
1299.192, 133.8356
1299.674, 132.9024
1300.156, 132.0749
1300.639, 132.0205
1301.121, 133.6057
1301.603, 134.6499
1302.085, 133.2478
1302.567, 132.0020
1303.049, 132.1013
1303.531, 133.5246
##END=



