##NAMES=Cebaite-(Ce)
##RRUFFID=R060248
##IDEAL CHEMISTRY=Ba_3_Ce_2_(CO_3_)_5_F_2_
##LOCALITY=Baiyun-Obo mine, Inner Mongolia, China
##OWNER=RRUFF
##SOURCE=William W. Pinch
##DESCRIPTION=Gemmy yellow to orange-yellow massive; some cleavage evident, associated with green aegirine
##STATUS=The identification of this mineral is confirmed by single-crystal X-ray diffraction and chemical analysis.
##URL=rruff.info/R060248
##MEASURED CHEMISTRY=(Ba_2.95_Sr_0.02_Ca_0.01_)_Σ=2.98_(Ce_0.98_La_0.60_Nd_0.27_Pr_0.10_)_Σ=1.95_(CO_3_)_5.01_F_2.16_
89.60352, 97.01975
90.08563, 97.33978
90.56775, 97.36511
91.04987, 96.71252
91.53198, 96.11977
92.01410, 96.89803
92.49622, 98.96883
92.97833, 100.8326
93.46045, 100.9521
93.94257, 99.70205
94.42468, 98.33143
94.90680, 96.97648
95.38892, 95.84164
95.87103, 95.79032
96.35315, 97.04103
96.83527, 98.49990
97.31738, 98.47135
97.79950, 96.90080
98.28162, 95.62953
98.76373, 95.28394
99.24585, 95.86387
99.72797, 98.07325
100.2101, 102.8932
100.6922, 108.4412
101.1743, 109.9078
101.6564, 106.1042
102.1385, 101.4865
102.6207, 98.52865
103.1028, 97.63783
103.5849, 97.26733
104.0670, 97.51103
104.5491, 98.24710
105.0313, 98.50535
105.5134, 97.96326
105.9955, 97.28011
106.4776, 96.98013
106.9597, 97.46419
107.4418, 97.76044
107.9240, 97.55528
108.4061, 96.71143
108.8882, 96.43873
109.3703, 97.21518
109.8524, 98.38474
110.3345, 99.24693
110.8167, 99.66075
111.2988, 99.88584
111.7809, 99.89318
112.2630, 99.50782
112.7451, 99.42590
113.2272, 99.78506
113.7094, 100.4969
114.1915, 101.4242
114.6736, 102.5635
115.1557, 103.8867
115.6378, 105.3754
116.1199, 107.0517
116.6021, 108.8855
117.0842, 110.7694
117.5663, 112.7903
118.0484, 115.2083
118.5305, 118.6842
119.0126, 122.3481
119.4948, 125.3671
119.9769, 126.0858
120.4590, 127.5540
120.9411, 131.8946
121.4232, 138.8869
121.9053, 146.8155
122.3875, 154.6806
122.8696, 162.7916
123.3517, 171.5781
123.8338, 180.9364
124.3159, 191.2307
124.7980, 202.9517
125.2802, 216.1782
125.7623, 229.9599
126.2444, 243.8134
126.7265, 257.6096
127.2086, 271.0041
127.6907, 284.1496
128.1729, 296.7418
128.6550, 308.0941
129.1371, 318.1322
129.6192, 327.2132
130.1013, 335.4310
130.5834, 342.8812
131.0656, 350.9381
131.5477, 360.3721
132.0298, 371.0653
132.5119, 382.3973
132.9940, 394.3602
133.4761, 406.9249
133.9583, 420.8170
134.4404, 436.1351
134.9225, 451.7480
135.4046, 466.5906
135.8867, 480.7072
136.3688, 495.1532
136.8510, 510.1756
137.3331, 525.5156
137.8152, 541.5023
138.2973, 558.4851
138.7794, 575.2702
139.2615, 591.3792
139.7437, 606.8930
140.2258, 620.6901
140.7079, 632.2938
141.1900, 641.7328
141.6721, 650.9175
142.1542, 659.6381
142.6364, 668.3246
143.1185, 677.4667
143.6006, 687.1871
144.0827, 696.9471
144.5648, 706.3843
145.0469, 715.4355
145.5291, 725.2824
146.0112, 736.7350
146.4933, 748.6422
146.9754, 759.5817
147.4575, 768.8425
147.9396, 777.8317
148.4218, 786.7281
148.9039, 794.4863
149.3860, 804.5780
149.8681, 818.1920
150.3502, 833.8842
150.8323, 848.8812
151.3145, 862.0792
151.7966, 875.3408
152.2787, 889.3759
152.7608, 904.0965
153.2429, 919.6155
153.7250, 937.1397
154.2072, 955.6336
154.6893, 972.1966
155.1714, 982.6147
155.6535, 985.6642
156.1356, 987.2687
156.6177, 985.4500
157.0999, 986.0892
157.5820, 991.3021
158.0641, 1000.124
158.5462, 1008.631
159.0283, 1015.622
159.5104, 1022.101
159.9926, 1028.723
160.4747, 1036.357
160.9568, 1043.466
161.4389, 1049.078
161.9210, 1053.370
162.4031, 1058.353
162.8853, 1065.013
163.3674, 1072.552
163.8495, 1080.241
164.3316, 1087.016
164.8137, 1094.529
165.2958, 1104.095
165.7780, 1115.701
166.2601, 1126.973
166.7422, 1136.902
167.2243, 1145.834
167.7064, 1154.080
168.1885, 1160.875
168.6707, 1167.727
169.1528, 1175.936
169.6349, 1185.670
170.1170, 1195.398
170.5991, 1204.715
171.0812, 1213.403
171.5634, 1220.939
172.0455, 1226.127
172.5276, 1230.663
173.0097, 1236.612
173.4918, 1244.464
173.9739, 1251.791
174.4561, 1256.193
174.9382, 1258.567
175.4203, 1261.065
175.9024, 1265.883
176.3845, 1271.102
176.8666, 1274.048
177.3488, 1274.342
177.8309, 1272.852
178.3130, 1270.212
178.7951, 1266.496
179.2772, 1262.080
179.7593, 1256.354
180.2415, 1250.172
180.7236, 1245.195
181.2057, 1241.823
181.6878, 1239.172
182.1699, 1236.374
182.6520, 1233.398
183.1342, 1229.693
183.6163, 1224.511
184.0984, 1218.278
184.5805, 1212.394
185.0626, 1207.014
185.5447, 1202.028
186.0269, 1197.152
186.5090, 1192.400
186.9911, 1187.822
187.4732, 1183.109
187.9553, 1178.443
188.4374, 1175.091
188.9196, 1173.614
189.4017, 1173.123
189.8838, 1171.531
190.3659, 1168.765
190.8480, 1166.050
191.3301, 1164.423
191.8123, 1163.776
192.2944, 1162.999
192.7765, 1161.541
193.2586, 1160.027
193.7407, 1160.683
194.2228, 1163.742
194.7050, 1167.294
195.1871, 1169.373
195.6692, 1170.007
196.1513, 1171.744
196.6334, 1175.341
197.1155, 1180.354
197.5977, 1185.386
198.0798, 1190.529
198.5619, 1195.198
199.0440, 1198.134
199.5261, 1199.124
200.0082, 1201.761
200.4904, 1207.216
200.9725, 1215.064
201.4546, 1222.715
201.9367, 1230.037
202.4188, 1237.520
202.9009, 1245.776
203.3831, 1255.027
203.8652, 1263.725
204.3473, 1271.460
204.8294, 1278.283
205.3115, 1284.701
205.7936, 1290.616
206.2758, 1296.344
206.7579, 1302.486
207.2400, 1309.315
207.7221, 1315.140
208.2042, 1319.516
208.6863, 1322.480
209.1685, 1324.437
209.6506, 1325.057
210.1327, 1325.305
210.6148, 1326.297
211.0969, 1328.199
211.5790, 1330.394
212.0612, 1333.367
212.5433, 1337.183
213.0254, 1337.655
213.5075, 1333.838
213.9896, 1327.925
214.4717, 1322.360
214.9538, 1316.850
215.4360, 1312.380
215.9181, 1309.721
216.4002, 1309.146
216.8823, 1306.250
217.3644, 1300.187
217.8465, 1292.740
218.3287, 1286.086
218.8108, 1280.656
219.2929, 1274.909
219.7750, 1267.946
220.2571, 1259.383
220.7392, 1253.006
221.2214, 1249.377
221.7035, 1247.310
222.1856, 1245.337
222.6677, 1243.607
223.1498, 1241.679
223.6319, 1239.287
224.1141, 1236.221
224.5962, 1234.197
225.0783, 1233.814
225.5604, 1233.957
226.0425, 1232.993
226.5246, 1230.047
227.0068, 1227.690
227.4889, 1226.677
227.9710, 1227.120
228.4531, 1228.026
228.9352, 1229.425
229.4173, 1231.248
229.8995, 1233.518
230.3816, 1236.896
230.8637, 1239.533
231.3458, 1240.552
231.8279, 1239.490
232.3100, 1239.953
232.7922, 1242.564
233.2743, 1246.183
233.7564, 1249.398
234.2385, 1251.985
234.7206, 1254.542
235.2027, 1257.271
235.6849, 1260.247
236.1670, 1262.897
236.6491, 1264.876
237.1312, 1266.819
237.6133, 1269.505
238.0954, 1273.047
238.5776, 1277.209
239.0597, 1282.199
239.5418, 1288.197
240.0239, 1293.241
240.5060, 1296.297
240.9881, 1299.247
241.4703, 1304.624
241.9524, 1313.812
242.4345, 1322.866
242.9166, 1330.347
243.3987, 1335.796
243.8808, 1343.589
244.3630, 1354.910
244.8451, 1367.616
245.3272, 1379.070
245.8093, 1388.340
246.2914, 1398.126
246.7735, 1409.238
247.2557, 1421.870
247.7378, 1434.174
248.2199, 1445.424
248.7020, 1457.128
249.1841, 1471.162
249.6662, 1488.811
250.1484, 1506.184
250.6305, 1522.133
251.1126, 1536.334
251.5947, 1552.123
252.0768, 1569.248
252.5589, 1587.953
253.0411, 1608.858
253.5232, 1633.075
254.0053, 1656.512
254.4874, 1677.914
254.9695, 1697.312
255.4516, 1718.140
255.9338, 1740.340
256.4159, 1764.042
256.8980, 1789.260
257.3801, 1816.968
257.8622, 1844.440
258.3444, 1871.114
258.8265, 1897.124
259.3086, 1922.175
259.7907, 1945.423
260.2728, 1968.303
260.7549, 1991.720
261.2371, 2016.239
261.7192, 2040.398
262.2013, 2064.493
262.6834, 2088.348
263.1655, 2107.624
263.6476, 2121.399
264.1298, 2132.423
264.6119, 2143.660
265.0940, 2156.266
265.5761, 2164.836
266.0582, 2168.553
266.5403, 2167.537
267.0225, 2162.305
267.5046, 2152.629
267.9867, 2139.175
268.4688, 2122.202
268.9509, 2101.172
269.4330, 2078.214
269.9152, 2053.858
270.3973, 2027.617
270.8794, 1998.180
271.3615, 1965.122
271.8436, 1930.179
272.3257, 1895.183
272.8079, 1860.092
273.2900, 1824.194
273.7721, 1786.648
274.2542, 1748.415
274.7363, 1712.135
275.2184, 1678.504
275.7006, 1644.496
276.1827, 1607.983
276.6648, 1568.298
277.1469, 1532.669
277.6290, 1502.258
278.1111, 1475.411
278.5933, 1448.679
279.0754, 1421.693
279.5575, 1395.483
280.0396, 1370.294
280.5217, 1346.320
281.0038, 1323.797
281.4860, 1302.800
281.9681, 1283.088
282.4502, 1264.354
282.9323, 1246.601
283.4144, 1229.566
283.8965, 1212.896
284.3787, 1196.792
284.8608, 1182.020
285.3429, 1168.709
285.8250, 1156.425
286.3071, 1144.648
286.7892, 1133.381
287.2714, 1122.559
287.7535, 1112.105
288.2356, 1101.982
288.7177, 1092.665
289.1998, 1084.129
289.6819, 1076.043
290.1641, 1067.974
290.6462, 1059.969
291.1283, 1052.366
291.6104, 1045.629
292.0925, 1039.364
292.5746, 1032.534
293.0568, 1025.059
293.5389, 1017.587
294.0210, 1010.626
294.5031, 1004.214
294.9852, 998.6974
295.4673, 994.8996
295.9495, 991.6769
296.4316, 986.6700
296.9137, 979.9437
297.3958, 972.9337
297.8779, 966.7239
298.3600, 961.1924
298.8422, 955.8836
299.3243, 950.6365
299.8064, 945.5836
300.2885, 941.1337
300.7706, 937.1926
301.2527, 932.9399
301.7349, 926.9259
302.2170, 920.3923
302.6991, 915.8791
303.1812, 914.7500
303.6633, 914.0992
304.1454, 910.8376
304.6276, 905.4162
305.1097, 899.3346
305.5918, 892.4575
306.0739, 885.8762
306.5560, 881.2258
307.0381, 879.1119
307.5203, 877.6940
308.0024, 875.6670
308.4845, 873.1733
308.9666, 870.5452
309.4487, 867.8287
309.9308, 865.1231
310.4130, 862.4602
310.8951, 859.8012
311.3772, 857.5123
311.8593, 856.0631
312.3414, 855.1360
312.8235, 854.2011
313.3057, 852.5905
313.7878, 851.2383
314.2699, 850.7016
314.7520, 851.0230
315.2341, 851.8839
315.7162, 854.3861
316.1984, 856.9173
316.6805, 857.6531
317.1626, 854.4547
317.6447, 850.8160
318.1268, 847.7520
318.6089, 845.2958
319.0911, 843.8405
319.5732, 844.4046
320.0553, 845.5494
320.5374, 846.1631
321.0195, 845.6779
321.5016, 845.0104
321.9838, 844.4216
322.4659, 843.8488
322.9480, 842.9705
323.4301, 841.6663
323.9122, 840.0781
324.3943, 838.2330
324.8765, 835.1706
325.3586, 833.2116
325.8407, 833.5811
326.3228, 835.2452
326.8049, 835.5801
327.2870, 833.4750
327.7692, 830.8309
328.2513, 828.2852
328.7334, 826.0834
329.2155, 823.4659
329.6976, 820.1380
330.1797, 816.4774
330.6619, 813.1146
331.1440, 810.1025
331.6261, 807.2927
332.1082, 804.7556
332.5903, 802.6536
333.0724, 799.9479
333.5546, 796.1038
334.0367, 792.1380
334.5188, 789.1579
335.0009, 787.2584
335.4830, 786.1561
335.9651, 786.2979
336.4473, 787.4692
336.9294, 786.7125
337.4115, 783.2665
337.8936, 779.4100
338.3757, 777.0912
338.8578, 776.6419
339.3399, 776.0089
339.8221, 774.8933
340.3042, 773.4494
340.7863, 772.2610
341.2684, 771.3876
341.7505, 770.4319
342.2326, 768.9368
342.7148, 766.9245
343.1969, 765.6168
343.6790, 765.2586
344.1611, 765.3290
344.6432, 764.8107
345.1253, 763.7050
345.6075, 762.8831
346.0896, 763.0691
346.5717, 763.9329
347.0538, 764.0560
347.5359, 763.3486
348.0180, 762.2219
348.5002, 760.8643
348.9823, 759.4055
349.4644, 758.4246
349.9465, 758.4775
350.4286, 758.9672
350.9107, 758.9490
351.3929, 758.4365
351.8750, 757.5175
352.3571, 756.2128
352.8392, 754.5855
353.3213, 752.6612
353.8034, 750.1422
354.2856, 747.8182
354.7677, 746.4258
355.2498, 745.9005
355.7319, 745.9207
356.2140, 746.7021
356.6961, 747.7234
357.1783, 748.5120
357.6604, 749.0268
358.1425, 749.1253
358.6246, 748.1532
359.1067, 746.7043
359.5888, 745.9352
360.0710, 747.0480
360.5531, 748.4296
361.0352, 749.1666
361.5173, 749.1334
361.9994, 748.8213
362.4815, 748.1526
362.9637, 747.4050
363.4458, 746.8770
363.9279, 746.6779
364.4100, 746.6888
364.8921, 746.8621
365.3742, 747.2054
365.8564, 747.8160
366.3385, 749.7261
366.8206, 751.2513
367.3027, 751.3801
367.7848, 747.6852
368.2669, 745.4183
368.7491, 745.7477
369.2312, 747.7826
369.7133, 748.9671
370.1954, 748.5645
370.6775, 748.1299
371.1596, 748.2303
371.6418, 748.9788
372.1239, 750.0148
372.6060, 751.6010
373.0881, 753.2909
373.5702, 754.3466
374.0523, 754.3271
374.5345, 754.7194
375.0166, 756.1652
375.4987, 758.6343
375.9808, 759.9626
376.4629, 759.7154
376.9450, 759.2405
377.4272, 759.7649
377.9093, 761.3535
378.3914, 763.3879
378.8735, 766.1503
379.3556, 768.9896
379.8377, 769.7293
380.3199, 768.1823
380.8020, 766.7344
381.2841, 767.2380
381.7662, 769.3177
382.2483, 770.8522
382.7304, 771.5889
383.2126, 772.0596
383.6947, 773.3115
384.1768, 775.1028
384.6589, 776.1874
385.1410, 775.4997
385.6231, 773.9319
386.1053, 772.9539
386.5874, 772.6033
387.0695, 772.4759
387.5516, 772.3035
388.0337, 772.1049
388.5158, 771.9142
388.9980, 771.7318
389.4801, 771.5633
389.9622, 771.5989
390.4443, 771.7176
390.9264, 771.4172
391.4085, 769.7785
391.8907, 767.9720
392.3728, 767.0301
392.8549, 767.4689
393.3370, 767.9313
393.8191, 767.7184
394.3012, 767.1624
394.7834, 766.8254
395.2655, 767.6685
395.7476, 768.0452
396.2297, 766.9437
396.7118, 764.0300
397.1939, 761.9653
397.6761, 761.6979
398.1582, 762.1688
398.6403, 762.4932
399.1224, 763.1287
399.6045, 762.9944
400.0866, 761.3672
400.5688, 758.6530
401.0509, 757.3710
401.5330, 758.7531
402.0151, 760.0753
402.4972, 759.9903
402.9793, 757.9362
403.4615, 755.8757
403.9436, 753.5959
404.4257, 751.5216
404.9078, 750.6298
405.3899, 751.2939
405.8720, 751.6299
406.3542, 750.5692
406.8363, 748.3369
407.3184, 748.5898
407.8005, 751.9186
408.2826, 755.2390
408.7647, 754.9321
409.2469, 751.3181
409.7290, 748.7927
410.2111, 748.4722
410.6932, 749.3274
411.1753, 749.5543
411.6574, 749.1779
412.1396, 748.4163
412.6217, 747.1957
413.1038, 745.7511
413.5859, 744.4330
414.0680, 743.2414
414.5501, 742.4083
415.0323, 742.1254
415.5144, 742.3519
415.9965, 743.0007
416.4786, 744.7549
416.9607, 746.3682
417.4428, 746.8204
417.9250, 746.1664
418.4071, 745.1080
418.8892, 743.3817
419.3713, 741.7434
419.8534, 740.8847
420.3355, 741.3026
420.8177, 741.9239
421.2998, 742.9635
421.7819, 743.9516
422.2640, 743.8900
422.7461, 740.9954
423.2282, 738.4362
423.7104, 737.4882
424.1925, 738.6805
424.6746, 739.6901
425.1567, 740.8380
425.6388, 741.5413
426.1209, 741.1865
426.6031, 738.6613
427.0852, 736.8955
427.5673, 736.5208
428.0494, 737.2328
428.5315, 737.4019
429.0136, 736.8115
429.4958, 736.0812
429.9779, 735.5327
430.4600, 735.1782
430.9421, 734.7682
431.4242, 734.1550
431.9063, 733.7402
432.3885, 734.3810
432.8706, 736.0886
433.3527, 737.6057
433.8348, 738.6570
434.3169, 739.1602
434.7990, 738.4578
435.2812, 736.5536
435.7633, 734.9122
436.2454, 735.4049
436.7275, 737.0866
437.2096, 737.5680
437.6917, 735.9689
438.1739, 734.0956
438.6560, 734.2054
439.1381, 735.6308
439.6202, 736.6068
440.1023, 735.5013
440.5844, 734.0551
441.0666, 733.8895
441.5487, 735.1630
442.0308, 736.2512
442.5129, 736.4045
442.9950, 735.9486
443.4771, 735.1937
443.9593, 733.2667
444.4414, 732.0764
444.9235, 732.5692
445.4056, 734.2733
445.8877, 735.5318
446.3698, 735.7609
446.8520, 735.7740
447.3341, 735.8839
447.8162, 736.1596
448.2983, 736.2649
448.7804, 735.9070
449.2625, 735.5681
449.7447, 735.8325
450.2268, 736.9122
450.7089, 738.1464
451.1910, 739.6035
451.6731, 741.1260
452.1552, 741.7814
452.6374, 741.4608
453.1195, 740.6841
453.6016, 739.6226
454.0837, 738.3083
454.5658, 737.1630
455.0479, 736.1545
455.5301, 735.5624
456.0122, 736.1223
456.4943, 737.6339
456.9764, 738.7946
457.4585, 738.6371
457.9406, 738.1261
458.4228, 739.3533
458.9049, 742.0925
459.3870, 744.2424
459.8691, 743.7323
460.3512, 741.9310
460.8333, 740.5334
461.3155, 739.9316
461.7976, 739.5262
462.2797, 738.8718
462.7618, 738.1454
463.2439, 737.6727
463.7260, 737.5513
464.2082, 737.7272
464.6903, 738.5456
465.1724, 740.0016
465.6545, 740.5389
466.1366, 738.5836
466.6187, 736.4196
467.1009, 735.5437
467.5830, 737.3444
468.0651, 738.6624
468.5472, 739.1283
469.0293, 739.2038
469.5114, 739.8920
469.9936, 741.6025
470.4757, 743.1452
470.9578, 744.2479
471.4399, 744.9065
471.9220, 744.6818
472.4041, 743.3320
472.8863, 741.8209
473.3684, 740.8585
473.8505, 740.4464
474.3326, 740.9722
474.8147, 742.8458
475.2968, 744.9933
475.7790, 745.1885
476.2611, 743.7362
476.7432, 742.6678
477.2253, 743.3979
477.7074, 745.0097
478.1895, 746.0801
478.6717, 746.5837
479.1538, 746.9326
479.6359, 747.7355
480.1180, 748.4630
480.6001, 748.3512
481.0822, 746.4879
481.5644, 744.9626
482.0465, 745.2588
482.5286, 746.6847
483.0107, 747.7365
483.4928, 747.6772
483.9749, 747.3802
484.4571, 747.0951
484.9392, 746.7951
485.4213, 746.8206
485.9034, 747.3210
486.3855, 748.0632
486.8676, 748.9242
487.3498, 750.1236
487.8319, 750.9972
488.3140, 751.3947
488.7961, 751.4726
489.2782, 751.5839
489.7603, 751.7072
490.2425, 751.9110
490.7246, 752.2850
491.2067, 752.7994
491.6888, 753.1243
492.1709, 753.2820
492.6530, 753.1658
493.1352, 752.5967
493.6173, 751.6645
494.0994, 750.7762
494.5815, 750.1478
495.0636, 749.3137
495.5457, 747.1456
496.0279, 744.1946
496.5100, 742.0889
496.9921, 742.2229
497.4742, 743.1556
497.9563, 743.4168
498.4384, 743.0159
498.9206, 743.2369
499.4027, 745.7301
499.8848, 748.5532
500.3669, 750.0941
500.8490, 749.0648
501.3311, 748.2815
501.8133, 748.7598
502.2954, 749.8185
502.7775, 750.1690
503.2596, 748.3712
503.7417, 747.3832
504.2238, 748.2574
504.7060, 750.9360
505.1881, 752.3751
505.6702, 752.0406
506.1523, 751.3168
506.6344, 751.1086
507.1165, 751.4755
507.5987, 751.8352
508.0808, 752.0101
508.5629, 752.4566
509.0450, 754.5974
509.5271, 758.2093
510.0092, 760.1340
510.4914, 758.2433
510.9735, 754.6119
511.4556, 753.6433
511.9377, 755.0795
512.4199, 756.6243
512.9020, 756.7421
513.3841, 756.0559
513.8662, 755.2061
514.3483, 754.2072
514.8304, 753.4160
515.3126, 752.9354
515.7947, 752.8221
516.2768, 753.1400
516.7589, 754.3487
517.2410, 755.5144
517.7231, 756.4102
518.2053, 757.0342
518.6874, 757.4208
519.1695, 758.0417
519.6516, 757.9488
520.1337, 756.3431
520.6158, 752.3218
521.0980, 751.0748
521.5801, 753.9677
522.0622, 757.9000
522.5443, 759.6931
523.0264, 758.9831
523.5085, 758.3256
523.9907, 758.0698
524.4728, 758.1649
524.9549, 758.6075
525.4370, 759.3871
525.9191, 760.1342
526.4012, 760.7637
526.8834, 761.2137
527.3655, 761.1685
527.8476, 760.6429
528.3297, 760.2939
528.8118, 760.8301
529.2939, 761.7638
529.7761, 762.4594
530.2582, 762.6230
530.7403, 762.8600
531.2224, 763.8243
531.7045, 765.0115
532.1866, 765.5961
532.6688, 763.8141
533.1509, 762.9388
533.6330, 764.7269
534.1151, 769.0146
534.5972, 771.5738
535.0793, 771.3976
535.5615, 770.4301
536.0436, 769.5180
536.5257, 768.6263
537.0078, 767.8722
537.4899, 767.1672
537.9720, 766.7636
538.4542, 767.2253
538.9363, 768.6462
539.4184, 769.5028
539.9005, 769.2245
540.3826, 768.4695
540.8647, 768.6901
541.3469, 769.7913
541.8290, 771.0019
542.3111, 771.9406
542.7932, 772.7107
543.2753, 773.5053
543.7574, 774.3252
544.2396, 774.9285
544.7217, 774.5480
545.2038, 774.1315
545.6859, 774.7610
546.1680, 777.4980
546.6501, 779.7662
547.1323, 780.5402
547.6144, 780.2783
548.0965, 779.8030
548.5786, 778.4034
549.0607, 777.7339
549.5428, 778.5048
550.0250, 780.5184
550.5071, 781.5519
550.9892, 780.9869
551.4713, 780.5773
551.9534, 781.5283
552.4355, 784.0692
552.9177, 785.5822
553.3998, 785.9315
553.8819, 785.6461
554.3640, 785.3688
554.8461, 785.0260
555.3282, 784.0516
555.8104, 781.9025
556.2925, 779.7849
556.7746, 779.7054
557.2567, 781.0974
557.7388, 782.1961
558.2209, 781.5345
558.7031, 780.6009
559.1852, 780.4603
559.6673, 781.1479
560.1494, 782.3650
560.6315, 785.7320
561.1136, 788.4062
561.5958, 788.1576
562.0779, 781.6475
562.5600, 778.1423
563.0421, 780.0291
563.5242, 784.0645
564.0063, 786.1127
564.4885, 784.9437
564.9706, 784.6874
565.4527, 786.4981
565.9348, 789.5417
566.4169, 790.9688
566.8990, 790.6180
567.3812, 789.8490
567.8633, 789.1543
568.3454, 788.5952
568.8275, 788.5099
569.3096, 788.9111
569.7917, 789.2833
570.2739, 789.1318
570.7560, 788.6832
571.2381, 788.1765
571.7202, 787.4758
572.2023, 787.2916
572.6844, 788.9617
573.1666, 791.2305
573.6487, 792.2336
574.1308, 789.2770
574.6129, 787.1954
575.0950, 788.2628
575.5771, 791.8265
576.0593, 793.6561
576.5414, 792.8290
577.0235, 791.2442
577.5056, 789.0648
577.9877, 785.9767
578.4698, 785.9351
578.9520, 789.9242
579.4341, 794.5032
579.9162, 796.2862
580.3983, 795.4725
580.8804, 795.3804
581.3625, 796.7186
581.8447, 798.1091
582.3268, 796.8817
582.8089, 794.0761
583.2910, 792.6396
583.7731, 794.8418
584.2552, 797.9849
584.7373, 799.8217
585.2194, 800.5817
585.7015, 801.1152
586.1837, 801.5527
586.6658, 802.0716
587.1479, 802.7921
587.6300, 803.7442
588.1121, 804.7221
588.5942, 805.5320
589.0764, 806.4785
589.5585, 807.8631
590.0406, 810.2852
590.5227, 811.5381
591.0048, 810.9095
591.4869, 809.8795
591.9691, 811.0967
592.4512, 814.6737
592.9333, 817.9637
593.4154, 820.2330
593.8975, 821.7957
594.3796, 823.2625
594.8618, 824.6074
595.3439, 825.7260
595.8260, 825.6049
596.3081, 825.7706
596.7902, 828.2733
597.2723, 833.1260
597.7545, 838.1689
598.2366, 842.4628
598.7187, 846.2616
599.2008, 849.7151
599.6829, 852.5422
600.1650, 855.6867
600.6472, 859.3591
601.1293, 863.3550
601.6114, 867.4304
602.0935, 871.3978
602.5756, 875.7491
603.0577, 880.5002
603.5399, 885.7430
604.0220, 892.1812
604.5041, 899.9201
604.9862, 907.2139
605.4683, 912.6701
605.9504, 917.2715
606.4326, 924.2888
606.9147, 933.5378
607.3968, 943.0743
607.8789, 950.6631
608.3610, 958.0165
608.8431, 967.5768
609.3253, 980.1132
609.8074, 991.9084
610.2895, 999.8069
610.7716, 1006.521
611.2537, 1014.752
611.7358, 1026.550
612.2180, 1037.895
612.7001, 1048.711
613.1822, 1058.777
613.6643, 1067.910
614.1464, 1075.812
614.6285, 1083.151
615.1107, 1090.161
615.5928, 1096.773
616.0749, 1102.929
616.5570, 1108.656
617.0391, 1113.426
617.5212, 1116.544
618.0034, 1118.446
618.4855, 1120.278
618.9676, 1122.070
619.4497, 1123.784
619.9318, 1125.673
620.4139, 1127.322
620.8961, 1128.161
621.3782, 1127.897
621.8603, 1127.468
622.3424, 1127.363
622.8245, 1127.283
623.3066, 1126.883
623.7888, 1125.576
624.2709, 1124.628
624.7530, 1124.323
625.2351, 1124.395
625.7172, 1124.256
626.1993, 1123.928
626.6815, 1123.283
627.1636, 1122.160
627.6457, 1120.711
628.1278, 1119.892
628.6099, 1119.707
629.0920, 1118.770
629.5742, 1115.955
630.0563, 1111.841
630.5384, 1107.231
631.0205, 1102.177
631.5026, 1097.151
631.9847, 1093.468
632.4669, 1089.485
632.9490, 1083.441
633.4311, 1074.498
633.9132, 1064.855
634.3953, 1054.186
634.8774, 1043.547
635.3596, 1034.101
635.8417, 1026.652
636.3238, 1019.084
636.8059, 1011.236
637.2880, 1003.063
637.7701, 994.1464
638.2523, 984.1989
638.7344, 975.0657
639.2165, 967.7293
639.6986, 961.4107
640.1807, 953.7930
640.6628, 944.9904
641.1450, 936.7335
641.6271, 930.4423
642.1092, 925.1107
642.5913, 919.6804
643.0734, 914.0267
643.5555, 908.8766
644.0377, 904.9492
644.5198, 901.3640
645.0019, 897.5029
645.4840, 893.2025
645.9661, 888.7502
646.4482, 883.5524
646.9304, 878.6610
647.4125, 875.3961
647.8946, 874.2267
648.3767, 873.0396
648.8588, 871.6481
649.3409, 869.9509
649.8231, 867.6875
650.3052, 864.8605
650.7873, 861.6832
651.2694, 857.7410
651.7515, 853.9083
652.2336, 851.5331
652.7158, 850.4127
653.1979, 849.6816
653.6800, 849.1678
654.1621, 848.6812
654.6442, 848.2037
655.1263, 847.7270
655.6085, 846.8509
656.0906, 844.3567
656.5727, 842.4216
657.0548, 842.3419
657.5369, 844.7946
658.0190, 846.2745
658.5012, 846.5972
658.9833, 846.2875
659.4654, 845.7817
659.9475, 845.0822
660.4296, 844.1328
660.9117, 842.8672
661.3939, 841.6105
661.8760, 840.6376
662.3581, 839.9989
662.8402, 839.8258
663.3223, 840.2556
663.8044, 841.0283
664.2866, 842.6517
664.7687, 844.4366
665.2508, 844.9522
665.7329, 841.5422
666.2150, 839.1631
666.6971, 839.9943
667.1793, 843.3635
667.6614, 845.7540
668.1435, 846.8356
668.6256, 847.6671
669.1077, 848.6308
669.5898, 849.7252
670.0720, 850.9714
670.5541, 852.3899
671.0362, 853.7315
671.5183, 854.2018
672.0004, 854.5947
672.4825, 856.8645
672.9647, 861.2885
673.4468, 865.8542
673.9289, 868.7328
674.4110, 871.2634
674.8931, 874.8968
675.3752, 880.7685
675.8574, 886.0273
676.3395, 889.1213
676.8216, 891.6335
677.3037, 895.3674
677.7858, 900.9167
678.2679, 906.2993
678.7501, 911.1990
679.2322, 915.9431
679.7143, 921.6292
680.1964, 928.1558
680.6785, 933.9358
681.1606, 938.4918
681.6428, 941.8444
682.1249, 943.3007
682.6070, 943.3553
683.0891, 943.7587
683.5712, 944.8347
684.0533, 947.0847
684.5355, 950.9617
685.0176, 956.3848
685.4997, 962.8271
685.9818, 972.4205
686.4639, 980.7604
686.9460, 985.5606
687.4282, 986.2131
687.9103, 988.9697
688.3924, 995.0138
688.8745, 1000.530
689.3566, 1002.130
689.8387, 1000.190
690.3209, 999.3525
690.8030, 999.9561
691.2851, 1000.866
691.7672, 1001.631
692.2493, 1001.726
692.7314, 999.7946
693.2136, 994.5421
693.6957, 990.3775
694.1778, 989.7359
694.6599, 991.7153
695.1420, 995.2178
695.6241, 1000.347
696.1063, 1006.616
696.5884, 1014.097
697.0705, 1022.598
697.5526, 1031.703
698.0347, 1041.514
698.5168, 1051.582
698.9990, 1062.079
699.4811, 1072.489
699.9632, 1082.154
700.4453, 1090.823
700.9274, 1096.613
701.4095, 1098.605
701.8917, 1097.223
702.3738, 1091.656
702.8559, 1082.665
703.3380, 1073.898
703.8201, 1067.669
704.3022, 1061.329
704.7844, 1053.590
705.2665, 1044.279
705.7486, 1034.527
706.2307, 1022.305
706.7128, 1012.594
707.1949, 1008.576
707.6771, 1010.399
708.1592, 1012.331
708.6413, 1014.215
709.1234, 1017.217
709.6055, 1021.907
710.0876, 1028.539
710.5698, 1038.439
711.0519, 1052.013
711.5340, 1065.985
712.0161, 1077.011
712.4982, 1087.783
712.9803, 1101.262
713.4625, 1119.411
713.9446, 1137.464
714.4267, 1158.062
714.9088, 1175.945
715.3909, 1185.521
715.8730, 1185.107
716.3552, 1181.145
716.8373, 1174.404
717.3194, 1164.363
717.8015, 1149.109
718.2836, 1129.179
718.7657, 1109.409
719.2479, 1090.895
719.7300, 1073.878
720.2121, 1059.372
720.6942, 1046.479
721.1763, 1032.800
721.6584, 1014.785
722.1406, 998.4787
722.6227, 986.6974
723.1048, 978.9823
723.5869, 973.3158
724.0690, 969.8131
724.5511, 967.9503
725.0333, 967.7155
725.5154, 969.0208
725.9975, 971.6143
726.4796, 975.6122
726.9617, 979.9589
727.4438, 983.8151
727.9260, 987.7465
728.4081, 993.7020
728.8902, 1001.282
729.3723, 1007.286
729.8544, 1011.670
730.3365, 1012.253
730.8187, 1006.341
731.3008, 993.3165
731.7829, 980.2990
732.2650, 968.7715
732.7471, 957.3342
733.2292, 944.7425
733.7114, 930.3137
734.1935, 919.4479
734.6756, 912.7402
735.1577, 907.2995
735.6398, 899.8699
736.1219, 891.4817
736.6041, 886.3621
737.0862, 885.1096
737.5683, 885.0936
738.0504, 884.5231
738.5325, 883.7149
739.0146, 883.1228
739.4968, 883.1748
739.9789, 882.5612
740.4610, 880.1083
740.9431, 877.2723
741.4252, 875.5045
741.9073, 875.2507
742.3895, 874.9459
742.8716, 874.4258
743.3537, 873.9365
743.8358, 873.5671
744.3179, 873.4178
744.8000, 874.6866
745.2822, 878.3549
745.7643, 881.6318
746.2464, 880.3704
746.7285, 876.6798
747.2106, 874.2110
747.6927, 875.0905
748.1749, 876.4396
748.6570, 877.7658
749.1391, 878.8115
749.6212, 878.9847
750.1033, 877.6299
750.5854, 876.6949
751.0676, 876.6631
751.5497, 877.1370
752.0318, 876.9343
752.5139, 876.0881
752.9960, 875.9470
753.4781, 877.4692
753.9603, 879.4720
754.4424, 880.3011
754.9245, 880.1907
755.4066, 879.7964
755.8887, 878.8356
756.3708, 878.2545
756.8530, 878.5734
757.3351, 879.6976
757.8172, 881.1201
758.2993, 883.4708
758.7814, 885.0019
759.2635, 884.9409
759.7457, 883.6406
760.2278, 882.9463
760.7099, 882.8700
761.1920, 883.1389
761.6741, 884.0330
762.1563, 884.9808
762.6384, 884.5456
763.1205, 883.0574
763.6026, 882.2942
764.0847, 884.1544
764.5668, 886.2734
765.0490, 887.0787
765.5311, 886.5126
766.0132, 886.4509
766.4953, 887.4602
766.9774, 888.3475
767.4595, 888.5588
767.9417, 888.1295
768.4238, 887.6446
768.9059, 887.0652
769.3880, 886.9583
769.8701, 888.0787
770.3522, 889.8049
770.8344, 891.2982
771.3165, 892.4686
771.7986, 892.7065
772.2807, 889.7280
772.7628, 887.1475
773.2449, 887.9871
773.7271, 893.3783
774.2092, 896.6227
774.6913, 896.5819
775.1734, 895.6262
775.6555, 895.1885
776.1376, 895.3364
776.6198, 894.3038
777.1019, 891.9290
777.5840, 890.0648
778.0661, 890.8398
778.5482, 893.0410
779.0303, 894.7273
779.5125, 895.7008
779.9946, 896.0355
780.4767, 894.9437
780.9588, 893.7960
781.4409, 893.6175
781.9230, 894.7849
782.4052, 896.2490
782.8873, 898.3700
783.3694, 900.2416
783.8515, 900.8127
784.3336, 900.0612
784.8157, 900.6722
785.2979, 902.8732
785.7800, 905.2376
786.2621, 906.5190
786.7442, 907.0154
787.2263, 906.9679
787.7084, 906.2485
788.1906, 906.1768
788.6727, 908.3977
789.1548, 910.8900
789.6369, 911.7977
790.1190, 909.8593
790.6011, 909.5330
791.0833, 911.1163
791.5654, 913.8429
792.0475, 917.8857
792.5296, 922.9647
793.0117, 924.6554
793.4938, 922.3553
793.9760, 918.7833
794.4581, 915.5291
794.9402, 913.0252
795.4223, 912.0020
795.9044, 912.7945
796.3865, 914.0721
796.8687, 916.1437
797.3508, 917.9886
797.8329, 918.6680
798.3150, 917.3001
798.7971, 917.2462
799.2792, 918.9832
799.7614, 921.0151
800.2435, 921.7264
800.7256, 921.3913
801.2077, 921.5049
801.6898, 922.3306
802.1719, 922.8371
802.6541, 921.3448
803.1362, 919.4092
803.6183, 918.8509
804.1004, 920.4865
804.5825, 922.0598
805.0646, 923.4035
805.5468, 924.2564
806.0289, 924.1658
806.5110, 922.5887
806.9931, 922.5082
807.4752, 924.2522
807.9573, 926.5695
808.4395, 928.5186
808.9216, 929.9706
809.4037, 930.2399
809.8858, 929.0362
810.3679, 928.3754
810.8500, 930.7430
811.3322, 933.6848
811.8143, 934.7867
812.2964, 932.4261
812.7785, 931.4946
813.2606, 932.9893
813.7427, 935.0322
814.2249, 935.8058
814.7070, 935.1998
815.1891, 936.6923
815.6712, 940.7897
816.1533, 944.3494
816.6354, 942.6673
817.1176, 939.0236
817.5997, 939.2352
818.0818, 944.7964
818.5639, 949.1127
819.0460, 947.8788
819.5281, 945.0429
820.0103, 943.4181
820.4924, 943.1213
820.9745, 944.0750
821.4566, 946.7901
821.9387, 949.6436
822.4208, 951.3543
822.9030, 952.0067
823.3851, 951.6864
823.8672, 950.3746
824.3493, 949.1698
824.8314, 948.8253
825.3135, 949.1306
825.7957, 950.0209
826.2778, 951.5681
826.7599, 953.0509
827.2420, 955.2534
827.7241, 956.4720
828.2062, 955.3531
828.6884, 951.5574
829.1705, 950.0801
829.6526, 951.2052
830.1347, 953.1224
830.6168, 954.5104
831.0989, 955.6903
831.5811, 957.6976
832.0632, 960.4564
832.5453, 962.2904
833.0274, 961.0507
833.5095, 959.4566
833.9916, 959.1916
834.4738, 960.4973
834.9559, 962.2726
835.4380, 965.0585
835.9201, 967.2119
836.4022, 967.5560
836.8843, 966.4691
837.3665, 966.3407
837.8486, 967.1544
838.3307, 968.5169
838.8128, 970.8082
839.2949, 973.0808
839.7770, 974.1146
840.2592, 974.1049
840.7413, 974.5052
841.2234, 976.4724
841.7055, 978.1917
842.1876, 979.0589
842.6697, 979.1570
843.1519, 978.7351
843.6340, 977.5854
844.1161, 977.3398
844.5982, 979.2100
845.0803, 982.0859
845.5624, 983.9218
846.0446, 984.8452
846.5267, 985.2887
847.0088, 985.0668
847.4909, 984.8242
847.9730, 984.8538
848.4551, 985.1328
848.9373, 985.5388
849.4194, 986.2034
849.9015, 986.6888
850.3836, 986.7271
850.8657, 986.7139
851.3478, 987.5537
851.8300, 989.1998
852.3121, 991.4217
852.7942, 994.5980
853.2763, 997.5722
853.7584, 998.9512
854.2405, 999.5095
854.7227, 1000.611
855.2048, 1003.824
855.6869, 1005.943
856.1690, 1006.083
856.6511, 1005.358
857.1332, 1005.414
857.6154, 1006.284
858.0975, 1007.388
858.5796, 1008.569
859.0617, 1010.162
859.5438, 1013.184
860.0259, 1016.750
860.5081, 1019.077
860.9902, 1018.822
861.4723, 1019.437
861.9544, 1022.874
862.4365, 1027.406
862.9186, 1031.389
863.4008, 1035.199
863.8829, 1037.228
864.3650, 1037.150
864.8471, 1036.144
865.3292, 1035.437
865.8113, 1034.762
866.2935, 1032.976
866.7756, 1029.819
867.2577, 1027.569
867.7398, 1028.616
868.2219, 1030.577
868.7040, 1031.405
869.1862, 1030.391
869.6683, 1030.675
870.1504, 1032.869
870.6325, 1035.275
871.1146, 1036.991
871.5967, 1038.021
872.0789, 1038.275
872.5610, 1037.778
873.0431, 1036.948
873.5252, 1035.519
874.0073, 1034.303
874.4894, 1033.884
874.9716, 1034.313
875.4537, 1035.762
875.9358, 1039.378
876.4179, 1042.746
876.9000, 1045.217
877.3821, 1046.894
877.8643, 1048.177
878.3464, 1049.058
878.8285, 1049.822
879.3106, 1050.340
879.7927, 1051.044
880.2748, 1053.035
880.7570, 1055.667
881.2391, 1057.330
881.7212, 1057.103
882.2033, 1056.158
882.6854, 1054.177
883.1675, 1051.949
883.6497, 1050.839
884.1318, 1051.002
884.6139, 1051.346
885.0960, 1051.665
885.5781, 1052.076
886.0602, 1052.695
886.5424, 1053.547
887.0245, 1054.694
887.5066, 1056.180
887.9887, 1057.863
888.4708, 1060.381
888.9529, 1062.631
889.4351, 1063.423
889.9172, 1062.055
890.3993, 1061.239
890.8814, 1061.158
891.3635, 1061.166
891.8456, 1060.235
892.3278, 1058.947
892.8099, 1059.036
893.2920, 1060.679
893.7741, 1062.701
894.2562, 1065.594
894.7383, 1067.614
895.2205, 1066.612
895.7026, 1061.946
896.1847, 1061.290
896.6668, 1066.538
897.1489, 1071.438
897.6310, 1072.262
898.1132, 1070.261
898.5953, 1070.168
899.0774, 1071.791
899.5595, 1073.882
900.0416, 1076.398
900.5237, 1078.499
901.0059, 1079.048
901.4880, 1078.598
901.9701, 1079.440
902.4522, 1082.984
902.9343, 1085.490
903.4164, 1085.890
903.8986, 1085.179
904.3807, 1085.493
904.8628, 1086.712
905.3449, 1088.149
905.8270, 1089.827
906.3091, 1091.136
906.7913, 1090.667
907.2734, 1089.875
907.7555, 1090.724
908.2376, 1096.791
908.7197, 1099.192
909.2018, 1095.828
909.6840, 1091.328
910.1661, 1090.408
910.6482, 1092.772
911.1303, 1094.536
911.6124, 1095.395
912.0945, 1096.024
912.5767, 1096.697
913.0588, 1097.612
913.5409, 1098.965
914.0230, 1100.779
914.5051, 1102.961
914.9872, 1106.212
915.4694, 1108.824
915.9515, 1109.881
916.4336, 1109.598
916.9157, 1109.594
917.3978, 1109.853
917.8799, 1110.163
918.3621, 1110.426
918.8442, 1110.664
919.3263, 1110.895
919.8084, 1111.119
920.2905, 1111.350
920.7726, 1110.627
921.2548, 1111.352
921.7369, 1114.843
922.2190, 1119.206
922.7011, 1120.250
923.1832, 1118.172
923.6653, 1117.393
924.1475, 1119.383
924.6296, 1121.252
925.1117, 1119.074
925.5938, 1115.417
926.0759, 1113.555
926.5580, 1114.732
927.0402, 1116.422
927.5223, 1118.680
928.0044, 1120.911
928.4865, 1122.816
928.9686, 1124.389
929.4507, 1124.820
929.9329, 1124.082
930.4150, 1123.141
930.8971, 1122.609
931.3792, 1122.327
931.8613, 1121.675
932.3434, 1120.834
932.8256, 1121.711
933.3077, 1126.960
933.7898, 1131.043
934.2719, 1132.111
934.7540, 1130.970
935.2361, 1130.127
935.7183, 1129.584
936.2004, 1129.675
936.6825, 1130.875
937.1646, 1132.156
937.6467, 1132.468
938.1288, 1132.192
938.6110, 1131.925
939.0931, 1131.571
939.5752, 1131.629
940.0573, 1132.199
940.5394, 1133.102
941.0215, 1134.389
941.5037, 1135.965
941.9858, 1136.749
942.4679, 1136.649
942.9500, 1135.921
943.4321, 1133.395
943.9142, 1131.332
944.3964, 1132.398
944.8785, 1137.186
945.3606, 1139.964
945.8427, 1139.001
946.3248, 1138.340
946.8069, 1140.014
947.2891, 1143.252
947.7712, 1144.596
948.2533, 1144.311
948.7354, 1144.098
949.2175, 1145.085
949.6996, 1146.184
950.1818, 1146.633
950.6639, 1146.649
951.1460, 1146.722
951.6281, 1147.315
952.1102, 1147.027
952.5923, 1145.250
953.0745, 1143.454
953.5566, 1144.104
954.0387, 1146.475
954.5208, 1147.911
955.0029, 1147.947
955.4850, 1147.432
955.9672, 1146.607
956.4493, 1145.706
956.9314, 1144.834
957.4135, 1143.960
957.8956, 1143.472
958.3777, 1143.338
958.8599, 1143.711
959.3420, 1144.876
959.8241, 1146.526
960.3062, 1148.200
960.7883, 1149.727
961.2704, 1150.358
961.7526, 1148.725
962.2347, 1147.229
962.7168, 1147.058
963.1989, 1147.698
963.6810, 1148.053
964.1631, 1147.958
964.6453, 1148.368
965.1274, 1149.576
965.6095, 1150.801
966.0916, 1150.716
966.5737, 1150.055
967.0558, 1150.203
967.5380, 1151.556
968.0201, 1152.768
968.5022, 1153.583
968.9843, 1153.860
969.4664, 1153.246
969.9485, 1151.773
970.4307, 1151.756
970.9128, 1153.252
971.3949, 1155.211
971.8770, 1157.957
972.3591, 1160.130
972.8412, 1159.423
973.3234, 1156.754
973.8055, 1154.737
974.2876, 1154.100
974.7697, 1154.368
975.2518, 1155.589
975.7339, 1157.492
976.2161, 1160.085
976.6982, 1163.225
977.1803, 1164.722
977.6624, 1163.956
978.1445, 1163.121
978.6266, 1164.802
979.1088, 1166.916
979.5909, 1167.086
980.0730, 1164.392
980.5551, 1163.353
981.0372, 1164.652
981.5193, 1166.524
982.0015, 1168.552
982.4836, 1170.309
982.9657, 1169.301
983.4478, 1166.329
983.9299, 1165.132
984.4120, 1170.082
984.8942, 1174.687
985.3763, 1174.654
985.8584, 1172.262
986.3405, 1172.433
986.8226, 1176.500
987.3047, 1178.152
987.7869, 1176.142
988.2690, 1173.506
988.7511, 1174.359
989.2332, 1177.006
989.7153, 1178.492
990.1974, 1178.386
990.6796, 1177.755
991.1617, 1176.955
991.6438, 1175.803
992.1259, 1174.044
992.6080, 1171.846
993.0901, 1170.329
993.5723, 1169.499
994.0544, 1168.827
994.5365, 1167.760
995.0186, 1167.094
995.5007, 1167.924
995.9828, 1169.718
996.4650, 1171.531
996.9471, 1173.626
997.4292, 1174.786
997.9113, 1174.471
998.3934, 1173.882
998.8755, 1174.591
999.3577, 1176.275
999.8398, 1177.126
1000.322, 1177.028
1000.804, 1176.216
1001.286, 1173.277
1001.768, 1171.049
1002.250, 1172.564
1002.732, 1177.398
1003.215, 1178.919
1003.697, 1176.079
1004.179, 1173.872
1004.661, 1174.097
1005.143, 1175.414
1005.625, 1175.675
1006.107, 1175.197
1006.589, 1174.614
1007.072, 1173.861
1007.554, 1173.570
1008.036, 1174.428
1008.518, 1175.416
1009.000, 1175.539
1009.482, 1174.623
1009.964, 1175.713
1010.446, 1178.911
1010.928, 1181.428
1011.411, 1180.350
1011.893, 1178.374
1012.375, 1178.022
1012.857, 1179.088
1013.339, 1180.210
1013.821, 1181.485
1014.303, 1182.036
1014.785, 1181.077
1015.268, 1180.251
1015.750, 1183.699
1016.232, 1189.671
1016.714, 1191.960
1017.196, 1188.799
1017.678, 1185.176
1018.160, 1183.896
1018.642, 1183.486
1019.124, 1182.778
1019.607, 1181.719
1020.089, 1181.367
1020.571, 1181.753
1021.053, 1182.662
1021.535, 1184.582
1022.017, 1186.391
1022.499, 1185.857
1022.981, 1184.021
1023.464, 1183.256
1023.946, 1185.247
1024.428, 1187.154
1024.910, 1189.105
1025.392, 1190.261
1025.874, 1189.205
1026.356, 1186.298
1026.838, 1183.738
1027.320, 1181.705
1027.803, 1180.877
1028.285, 1183.611
1028.767, 1186.129
1029.249, 1185.239
1029.731, 1181.295
1030.213, 1178.333
1030.695, 1176.382
1031.177, 1175.482
1031.660, 1175.979
1032.142, 1176.851
1032.624, 1176.250
1033.106, 1174.921
1033.588, 1174.382
1034.070, 1175.618
1034.552, 1175.997
1035.034, 1174.285
1035.516, 1172.194
1035.999, 1170.516
1036.481, 1169.301
1036.963, 1169.504
1037.445, 1170.969
1037.927, 1171.889
1038.409, 1170.176
1038.891, 1168.458
1039.373, 1168.752
1039.855, 1170.383
1040.338, 1171.788
1040.820, 1173.281
1041.302, 1172.941
1041.784, 1169.858
1042.266, 1167.238
1042.748, 1170.547
1043.230, 1176.223
1043.712, 1177.169
1044.195, 1172.648
1044.677, 1169.081
1045.159, 1169.143
1045.641, 1170.403
1046.123, 1172.600
1046.605, 1175.096
1047.087, 1175.134
1047.569, 1173.055
1048.052, 1172.027
1048.534, 1173.377
1049.016, 1175.246
1049.498, 1176.417
1049.980, 1177.208
1050.462, 1177.881
1050.944, 1178.257
1051.426, 1179.379
1051.908, 1181.364
1052.391, 1183.587
1052.873, 1185.995
1053.355, 1188.231
1053.837, 1188.686
1054.319, 1188.337
1054.801, 1190.279
1055.283, 1198.461
1055.765, 1205.186
1056.247, 1208.108
1056.730, 1210.308
1057.212, 1215.217
1057.694, 1222.940
1058.176, 1234.988
1058.658, 1251.574
1059.140, 1269.051
1059.622, 1284.124
1060.104, 1299.279
1060.587, 1316.516
1061.069, 1335.456
1061.551, 1353.246
1062.033, 1369.619
1062.515, 1386.625
1062.997, 1405.170
1063.479, 1423.516
1063.961, 1436.748
1064.443, 1449.537
1064.926, 1468.706
1065.408, 1495.880
1065.890, 1528.897
1066.372, 1568.289
1066.854, 1611.313
1067.336, 1655.487
1067.818, 1702.411
1068.300, 1757.286
1068.782, 1819.351
1069.265, 1884.868
1069.747, 1959.318
1070.229, 2027.739
1070.711, 2091.056
1071.193, 2138.597
1071.675, 2155.359
1072.157, 2139.557
1072.639, 2107.783
1073.122, 2060.224
1073.604, 2014.021
1074.086, 1977.227
1074.568, 1953.848
1075.050, 1948.182
1075.532, 1959.888
1076.014, 1984.941
1076.496, 2022.251
1076.979, 2071.680
1077.461, 2132.869
1077.943, 2206.312
1078.425, 2293.083
1078.907, 2392.532
1079.389, 2505.425
1079.871, 2634.416
1080.353, 2763.393
1080.835, 2899.253
1081.318, 3019.998
1081.800, 3114.075
1082.282, 3184.585
1082.764, 3241.234
1083.246, 3284.229
1083.728, 3312.740
1084.210, 3330.371
1084.692, 3325.911
1085.174, 3276.659
1085.656, 3211.633
1086.139, 3157.326
1086.621, 3112.142
1087.103, 3092.162
1087.585, 3097.806
1088.067, 3123.861
1088.549, 3176.319
1089.031, 3239.814
1089.513, 3322.304
1089.996, 3401.330
1090.478, 3419.203
1090.960, 3374.807
1091.442, 3248.623
1091.924, 3023.368
1092.406, 2754.638
1092.888, 2480.114
1093.370, 2216.225
1093.853, 1991.054
1094.335, 1806.547
1094.817, 1655.836
1095.299, 1549.176
1095.781, 1465.265
1096.263, 1399.812
1096.745, 1349.836
1097.227, 1309.025
1097.709, 1276.799
1098.192, 1251.207
1098.674, 1232.156
1099.156, 1216.412
1099.638, 1202.100
1100.120, 1190.060
1100.602, 1181.266
1101.084, 1175.343
1101.566, 1170.230
1102.048, 1165.953
1102.531, 1161.366
1103.013, 1155.660
1103.495, 1150.220
1103.977, 1146.602
1104.459, 1144.239
1104.941, 1142.573
1105.423, 1142.347
1105.905, 1139.922
1106.388, 1134.447
1106.870, 1129.517
1107.352, 1127.767
1107.834, 1127.916
1108.316, 1127.743
1108.798, 1127.363
1109.280, 1127.090
1109.762, 1127.099
1110.245, 1127.189
1110.727, 1127.685
1111.209, 1127.710
1111.691, 1125.794
1112.173, 1122.633
1112.655, 1121.315
1113.137, 1121.738
1113.619, 1121.585
1114.101, 1118.050
1114.583, 1115.525
1115.066, 1116.683
1115.548, 1119.439
1116.030, 1119.830
1116.512, 1118.007
1116.994, 1116.976
1117.476, 1117.234
1117.958, 1117.588
1118.440, 1116.852
1118.923, 1116.055
1119.405, 1116.079
1119.887, 1116.796
1120.369, 1117.291
1120.851, 1117.562
1121.333, 1117.720
1121.815, 1117.970
1122.297, 1117.586
1122.780, 1114.396
1123.262, 1110.858
1123.744, 1110.401
1124.226, 1114.494
1124.708, 1116.090
1125.190, 1114.371
1125.672, 1112.486
1126.154, 1111.928
1126.636, 1111.983
1127.119, 1111.143
1127.601, 1109.986
1128.083, 1109.674
1128.565, 1110.925
1129.047, 1112.295
1129.529, 1114.218
1130.011, 1115.173
1130.493, 1113.412
1130.975, 1110.002
1131.458, 1108.596
1131.940, 1108.813
1132.422, 1109.221
1132.904, 1109.357
1133.386, 1109.320
1133.868, 1108.621
1134.350, 1108.301
1134.832, 1110.120
1135.315, 1113.611
1135.797, 1114.132
1136.279, 1111.740
1136.761, 1109.670
1137.243, 1110.712
1137.725, 1111.746
1138.207, 1110.582
1138.689, 1108.638
1139.172, 1108.502
1139.654, 1110.230
1140.136, 1111.232
1140.618, 1111.173
1141.100, 1111.192
1141.582, 1112.931
1142.064, 1114.466
1142.546, 1114.081
1143.028, 1112.103
1143.510, 1110.298
1143.993, 1108.545
1144.475, 1108.072
1144.957, 1109.406
1145.439, 1110.869
1145.921, 1110.150
1146.403, 1108.933
1146.885, 1109.311
1147.367, 1111.597
1147.850, 1112.249
1148.332, 1110.696
1148.814, 1109.591
1149.296, 1110.083
1149.778, 1110.792
1150.260, 1108.841
1150.742, 1106.187
1151.224, 1106.163
1151.707, 1110.335
1152.189, 1112.469
1152.671, 1111.436
1153.153, 1110.217
1153.635, 1110.272
1154.117, 1110.915
1154.599, 1110.928
1155.081, 1110.406
1155.563, 1109.444
1156.046, 1107.317
1156.528, 1106.721
1157.010, 1109.043
1157.492, 1110.922
1157.974, 1109.730
1158.456, 1106.564
1158.938, 1104.783
1159.420, 1104.213
1159.902, 1104.323
1160.385, 1105.547
1160.867, 1106.543
1161.349, 1107.451
1161.831, 1107.547
1162.313, 1105.386
1162.795, 1101.663
1163.277, 1100.583
1163.759, 1101.905
1164.242, 1104.022
1164.724, 1106.948
1165.206, 1109.472
1165.688, 1111.625
1166.170, 1112.745
1166.652, 1111.286
1167.134, 1107.654
1167.616, 1106.244
1168.099, 1107.168
1168.581, 1108.509
1169.063, 1109.989
1169.545, 1110.613
1170.027, 1108.868
1170.509, 1106.516
1170.991, 1106.641
1171.473, 1109.115
1171.955, 1110.298
1172.438, 1109.777
1172.920, 1109.138
1173.402, 1109.733
1173.884, 1110.386
1174.366, 1110.050
1174.848, 1109.232
1175.330, 1109.257
1175.812, 1110.132
1176.294, 1110.943
1176.777, 1111.563
1177.259, 1111.861
1177.741, 1111.637
1178.223, 1111.128
1178.705, 1110.130
1179.187, 1108.971
1179.669, 1109.446
1180.151, 1111.749
1180.634, 1112.482
1181.116, 1110.518
1181.598, 1108.458
1182.080, 1109.089
1182.562, 1110.485
1183.044, 1110.822
1183.526, 1110.098
1184.008, 1109.672
1184.490, 1109.480
1184.973, 1110.359
1185.455, 1112.977
1185.937, 1115.445
1186.419, 1115.936
1186.901, 1115.181
1187.383, 1113.597
1187.865, 1111.185
1188.347, 1109.714
1188.829, 1109.205
1189.312, 1109.670
1189.794, 1111.434
1190.276, 1113.483
1190.758, 1114.676
1191.240, 1115.473
1191.722, 1116.651
1192.204, 1118.546
1192.686, 1118.555
1193.169, 1116.386
1193.651, 1113.989
1194.133, 1111.878
1194.615, 1110.558
1195.097, 1111.217
1195.579, 1112.796
1196.061, 1113.682
1196.543, 1113.351
1197.026, 1114.269
1197.508, 1116.884
1197.990, 1118.148
1198.472, 1115.358
1198.954, 1111.469
1199.436, 1109.981
1199.918, 1109.979
1200.400, 1110.083
1200.882, 1110.257
1201.365, 1109.855
1201.847, 1108.676
1202.329, 1107.973
1202.811, 1108.804
1203.293, 1110.316
1203.775, 1111.869
1204.257, 1113.231
1204.739, 1113.978
1205.221, 1114.040
1205.704, 1113.554
1206.186, 1112.481
1206.668, 1111.027
1207.150, 1108.178
1207.632, 1105.989
1208.114, 1107.933
1208.596, 1112.175
1209.078, 1114.372
1209.561, 1113.267
1210.043, 1112.745
1210.525, 1112.988
1211.007, 1113.509
1211.489, 1114.365
1211.971, 1114.960
1212.453, 1114.346
1212.935, 1112.954
1213.417, 1111.850
1213.900, 1110.784
1214.382, 1111.377
1214.864, 1114.030
1215.346, 1116.175
1215.828, 1114.839
1216.310, 1112.572
1216.792, 1112.293
1217.274, 1111.308
1217.756, 1110.718
1218.239, 1111.252
1218.721, 1110.821
1219.203, 1112.367
1219.685, 1113.764
1220.167, 1112.537
1220.649, 1110.809
1221.131, 1110.616
1221.613, 1111.702
1222.096, 1113.058
1222.578, 1114.938
1223.060, 1115.452
1223.542, 1114.258
1224.024, 1113.302
1224.506, 1115.241
1224.988, 1117.341
1225.470, 1116.638
1225.953, 1114.053
1226.435, 1113.197
1226.917, 1114.473
1227.399, 1114.643
1227.881, 1113.228
1228.363, 1112.069
1228.845, 1113.053
1229.327, 1114.674
1229.809, 1116.258
1230.292, 1117.400
1230.774, 1117.041
1231.256, 1115.037
1231.738, 1113.268
1232.220, 1111.926
1232.702, 1111.520
1233.184, 1113.550
1233.666, 1115.628
1234.148, 1116.072
1234.631, 1115.268
1235.113, 1113.835
1235.595, 1111.764
1236.077, 1111.215
1236.559, 1112.507
1237.041, 1114.131
1237.523, 1115.556
1238.005, 1116.361
1238.488, 1115.615
1238.970, 1114.306
1239.452, 1114.823
1239.934, 1116.910
1240.416, 1116.885
1240.898, 1114.250
1241.380, 1112.401
1241.862, 1114.883
1242.344, 1117.258
1242.827, 1117.131
1243.309, 1115.681
1243.791, 1114.981
1244.273, 1114.966
1244.755, 1115.429
1245.237, 1116.343
1245.719, 1117.034
1246.201, 1117.129
1246.683, 1116.855
1247.166, 1115.915
1247.648, 1115.148
1248.130, 1116.603
1248.612, 1119.500
1249.094, 1121.064
1249.576, 1120.986
1250.058, 1120.875
1250.540, 1121.885
1251.023, 1122.292
1251.505, 1121.419
1251.987, 1120.133
1252.469, 1119.917
1252.951, 1120.323
1253.433, 1120.385
1253.915, 1119.982
1254.397, 1119.051
1254.880, 1116.613
1255.362, 1115.327
1255.844, 1115.978
1256.326, 1117.417
1256.808, 1118.448
1257.290, 1118.986
1257.772, 1118.710
1258.254, 1117.676
1258.736, 1116.652
1259.219, 1115.274
1259.701, 1115.387
1260.183, 1117.765
1260.665, 1120.197
1261.147, 1119.531
1261.629, 1117.734
1262.111, 1117.291
1262.593, 1118.174
1263.075, 1118.490
1263.558, 1117.867
1264.040, 1117.911
1264.522, 1119.025
1265.004, 1119.946
1265.486, 1118.675
1265.968, 1117.255
1266.450, 1118.165
1266.932, 1117.572
1267.415, 1117.531
1267.897, 1118.803
1268.379, 1118.237
1268.861, 1120.024
1269.343, 1121.781
1269.825, 1121.287
1270.307, 1120.432
1270.789, 1120.632
1271.271, 1121.408
1271.754, 1121.945
1272.236, 1122.212
1272.718, 1121.270
1273.200, 1119.049
1273.682, 1117.724
1274.164, 1120.296
1274.646, 1122.039
1275.128, 1120.066
1275.610, 1116.987
1276.093, 1117.379
1276.575, 1120.348
1277.057, 1122.390
1277.539, 1123.209
1278.021, 1123.580
1278.503, 1123.865
1278.985, 1123.583
1279.467, 1122.258
1279.950, 1121.020
1280.432, 1121.737
1280.914, 1123.448
1281.396, 1123.924
1281.878, 1123.251
1282.360, 1122.849
1282.842, 1123.453
1283.324, 1123.681
1283.807, 1123.367
1284.289, 1122.691
1284.771, 1120.949
1285.253, 1119.568
1285.735, 1121.583
1286.217, 1125.770
1286.699, 1126.950
1287.181, 1123.754
1287.663, 1121.796
1288.146, 1121.599
1288.628, 1122.176
1289.110, 1123.467
1289.592, 1124.450
1290.074, 1124.001
1290.556, 1122.656
1291.038, 1121.439
1291.520, 1120.275
1292.002, 1120.692
1292.485, 1122.710
1292.967, 1124.677
1293.449, 1125.725
1293.931, 1126.198
1294.413, 1125.772
1294.895, 1125.236
1295.377, 1125.507
1295.859, 1126.444
1296.342, 1126.995
1296.824, 1127.232
1297.306, 1127.600
1297.788, 1128.946
1298.270, 1129.311
1298.752, 1127.695
1299.234, 1126.291
1299.716, 1127.688
1300.198, 1130.497
1300.681, 1130.710
1301.163, 1129.341
1301.645, 1129.185
1302.127, 1130.480
##END=



