##NAMES=Celestine
##RRUFFID=R040007
##IDEAL CHEMISTRY=SrS^6+^O_4_
##LOCALITY=Coahuila, Mexico
##OWNER=RRUFF
##SOURCE=University of Arizona Mineral Museum
##DESCRIPTION=Blue tabular crystals
##STATUS=The identification of this mineral has been confirmed by X-ray diffraction and chemical analysis
##URL=rruff.info/R040007
##MEASURED CHEMISTRY=(Sr_0.95_Ba_0.04_Ca_0.01_)_Σ=1_S_1.00_O_4_; = Light bands. (Sr_0.99_Ba_0.01_)_Σ=1_S_1.00_O_4_; trace amounts of Ca = Dark bands
114.6194, 73.88164
115.1015, 76.40625
115.5836, 77.76560
116.0657, 78.89211
116.5478, 80.03816
117.0300, 81.23905
117.5121, 82.40871
117.9942, 83.20859
118.4763, 84.02984
118.9584, 85.37038
119.4405, 87.56160
119.9227, 90.25835
120.4048, 93.24031
120.8869, 96.49617
121.3690, 100.0489
121.8511, 104.4197
122.3332, 109.1259
122.8154, 113.1509
123.2975, 115.4703
123.7796, 117.0527
124.2617, 118.7658
124.7438, 120.5025
125.2259, 122.9003
125.7081, 127.5337
126.1902, 133.6925
126.6723, 138.0307
127.1544, 137.9583
127.6365, 135.6784
128.1186, 134.3391
128.6008, 135.0045
129.0829, 136.3901
129.5650, 136.8036
130.0471, 136.2770
130.5292, 135.0474
131.0113, 133.1966
131.4935, 130.7825
131.9756, 127.9853
132.4577, 124.7587
132.9398, 121.2301
133.4219, 117.9079
133.9040, 114.8056
134.3862, 111.6376
134.8683, 107.8481
135.3504, 103.4376
135.8325, 99.74030
136.3146, 97.24244
136.7967, 95.86882
137.2789, 95.03770
137.7610, 95.00366
138.2431, 94.90009
138.7252, 93.28325
139.2073, 89.78255
139.6894, 86.56208
140.1716, 84.49623
140.6537, 83.75764
141.1358, 82.68704
141.6179, 81.07638
142.1000, 79.31396
142.5821, 78.14943
143.0643, 77.66338
143.5464, 77.56099
144.0285, 77.76848
144.5106, 78.42051
144.9927, 79.03848
145.4748, 79.66579
145.9570, 80.24907
146.4391, 80.58995
146.9212, 80.55539
147.4033, 80.44617
147.8854, 80.40450
148.3675, 80.53167
148.8497, 80.56125
149.3318, 80.37915
149.8139, 80.05740
150.2960, 79.96745
150.7781, 80.29972
151.2602, 80.72236
151.7424, 81.05361
152.2245, 80.90594
152.7066, 81.10326
153.1887, 82.05363
153.6708, 83.64009
154.1529, 84.51458
154.6351, 83.81841
155.1172, 82.84198
155.5993, 82.44975
156.0814, 83.22792
156.5635, 84.08749
157.0456, 85.05769
157.5278, 86.12151
158.0099, 86.49728
158.4920, 85.47607
158.9741, 83.95430
159.4562, 82.72685
159.9383, 81.96343
160.4205, 81.53487
160.9026, 81.44403
161.3847, 81.69826
161.8668, 82.12154
162.3489, 82.64227
162.8310, 83.30184
163.3132, 84.14833
163.7953, 84.83830
164.2774, 85.99321
164.7595, 88.26664
165.2416, 91.93243
165.7237, 95.09563
166.2059, 96.46275
166.6880, 96.81270
167.1701, 97.33006
167.6522, 98.60452
168.1343, 100.1715
168.6164, 101.7896
169.0985, 103.4963
169.5807, 104.9787
170.0628, 106.3509
170.5449, 107.3628
171.0270, 107.5013
171.5091, 105.9401
171.9912, 103.6700
172.4734, 101.6393
172.9555, 100.0178
173.4376, 98.47323
173.9197, 96.53063
174.4018, 94.39315
174.8839, 92.63673
175.3661, 91.66079
175.8482, 91.24702
176.3303, 91.17962
176.8124, 91.50317
177.2945, 91.97246
177.7766, 92.32191
178.2588, 92.58691
178.7409, 92.89994
179.2230, 93.38493
179.7051, 93.97409
180.1872, 94.56251
180.6693, 95.18855
181.1515, 95.71431
181.6336, 95.88342
182.1157, 95.73317
182.5978, 95.52775
183.0799, 95.44176
183.5620, 95.44032
184.0442, 95.44106
184.5263, 95.45271
185.0084, 95.42593
185.4905, 95.00322
185.9726, 94.22237
186.4547, 93.97118
186.9369, 95.30340
187.4190, 97.86418
187.9011, 100.0912
188.3832, 101.5885
188.8653, 102.6695
189.3474, 104.0486
189.8296, 105.7489
190.3117, 107.4690
190.7938, 108.7243
191.2759, 109.6388
191.7580, 111.3126
192.2401, 114.4964
192.7223, 118.3454
193.2044, 120.0854
193.6865, 119.5083
194.1686, 118.5803
194.6507, 119.5778
195.1328, 122.3643
195.6150, 123.8169
196.0971, 122.8332
196.5792, 120.0413
197.0613, 117.7878
197.5434, 116.0929
198.0255, 114.8472
198.5077, 114.3949
198.9898, 114.8059
199.4719, 114.2075
199.9540, 111.9997
200.4361, 108.4283
200.9182, 104.6298
201.4004, 100.5624
201.8825, 96.46527
202.3646, 92.44371
202.8467, 88.47980
203.3288, 85.05397
203.8109, 82.36681
204.2931, 80.35149
204.7752, 78.49291
205.2573, 76.84629
205.7394, 75.22475
206.2215, 73.34676
206.7036, 71.13117
207.1858, 69.18822
207.6679, 67.74323
208.1500, 66.75684
208.6321, 65.54160
209.1142, 63.90156
209.5963, 62.39788
210.0785, 61.78913
210.5606, 62.39423
211.0427, 62.70573
211.5248, 62.28942
212.0069, 61.16512
212.4890, 60.17110
212.9712, 59.29523
213.4533, 58.56557
213.9354, 58.08126
214.4175, 57.96593
214.8996, 57.69474
215.3817, 57.04459
215.8639, 56.01888
216.3460, 55.33297
216.8281, 54.96520
217.3102, 54.96526
217.7923, 55.56870
218.2744, 57.26994
218.7565, 58.27649
219.2387, 57.89656
219.7208, 56.08128
220.2029, 55.09154
220.6850, 55.30813
221.1671, 55.90828
221.6492, 55.92562
222.1314, 55.00262
222.6135, 54.32978
223.0956, 54.29681
223.5777, 54.94285
224.0598, 55.16182
224.5419, 54.65427
225.0241, 54.05271
225.5062, 54.14143
225.9883, 55.48820
226.4704, 56.30584
226.9525, 56.03786
227.4346, 54.62244
227.9168, 53.57069
228.3989, 52.92394
228.8810, 52.59460
229.3631, 52.51357
229.8452, 52.72435
230.3273, 53.12033
230.8095, 53.85596
231.2916, 54.96967
231.7737, 55.28832
232.2558, 54.37938
232.7379, 53.12515
233.2200, 52.41523
233.7022, 52.43087
234.1843, 52.65302
234.6664, 53.12929
235.1485, 53.86612
235.6306, 54.03719
236.1127, 53.24309
236.5949, 52.29296
237.0770, 51.99487
237.5591, 52.76900
238.0412, 53.37219
238.5233, 53.50586
239.0054, 53.17065
239.4876, 53.05554
239.9697, 53.24650
240.4518, 53.56252
240.9339, 53.88480
241.4160, 54.36650
241.8981, 54.53800
242.3803, 54.18354
242.8624, 53.32521
243.3445, 52.81188
243.8266, 52.72092
244.3087, 52.87954
244.7908, 53.17646
245.2730, 53.72439
245.7551, 54.18826
246.2372, 54.54753
246.7193, 54.79567
247.2014, 54.80259
247.6835, 54.33337
248.1657, 53.90529
248.6478, 53.99955
249.1299, 55.08744
249.6120, 55.64439
250.0941, 55.25936
250.5762, 54.09304
251.0584, 53.46631
251.5405, 53.62556
252.0226, 54.00250
252.5047, 54.19224
252.9868, 54.06304
253.4689, 54.08127
253.9511, 54.42194
254.4332, 54.97569
254.9153, 55.03860
255.3974, 54.26704
255.8795, 53.53833
256.3616, 53.43578
256.8438, 54.18654
257.3259, 55.01929
257.8080, 56.14686
258.2901, 57.29422
258.7722, 57.23573
259.2543, 55.19870
259.7365, 53.25216
260.2186, 52.61139
260.7007, 53.77970
261.1828, 54.79021
261.6649, 55.64199
262.1470, 56.23337
262.6292, 56.13905
263.1113, 54.92762
263.5934, 53.90603
264.0755, 53.88097
264.5576, 55.28587
265.0397, 56.10363
265.5219, 56.13961
266.0040, 55.66485
266.4861, 55.27560
266.9682, 54.98043
267.4503, 54.75911
267.9324, 54.61466
268.4146, 54.55472
268.8967, 54.49761
269.3788, 54.35344
269.8609, 54.30350
270.3430, 54.89223
270.8251, 56.46910
271.3073, 57.50911
271.7894, 57.06282
272.2715, 54.90316
272.7536, 53.82499
273.2357, 54.15366
273.7178, 55.10317
274.2000, 55.45881
274.6821, 55.07808
275.1642, 54.73022
275.6463, 54.77562
276.1284, 55.21566
276.6105, 55.16309
277.0927, 54.45225
277.5748, 53.60841
278.0569, 53.29866
278.5390, 53.56349
279.0211, 54.04026
279.5032, 54.73765
279.9854, 55.59467
280.4675, 56.07375
280.9496, 56.11836
281.4317, 55.97723
281.9138, 55.95598
282.3959, 56.06742
282.8781, 55.92432
283.3602, 55.23730
283.8423, 54.24379
284.3244, 54.05486
284.8065, 54.74936
285.2886, 55.72976
285.7708, 56.67625
286.2529, 57.56152
286.7350, 57.77708
287.2171, 56.90339
287.6992, 55.47865
288.1813, 55.04078
288.6635, 55.61678
289.1456, 56.57293
289.6277, 57.73543
290.1098, 58.98938
290.5919, 59.45667
291.0740, 58.81375
291.5562, 57.60702
292.0383, 56.82496
292.5204, 56.45191
293.0025, 56.30363
293.4846, 56.44460
293.9667, 56.74079
294.4489, 56.64086
294.9310, 55.96688
295.4131, 55.18292
295.8952, 55.04087
296.3773, 55.45571
296.8594, 55.86923
297.3416, 56.05410
297.8237, 56.00705
298.3058, 55.56440
298.7879, 54.60588
299.2700, 53.79269
299.7521, 54.14934
300.2343, 55.36341
300.7164, 56.41954
301.1985, 56.74013
301.6806, 56.64074
302.1627, 56.65637
302.6448, 56.82241
303.1270, 56.82380
303.6091, 55.97790
304.0912, 54.76261
304.5733, 54.13296
305.0554, 55.00506
305.5375, 56.38124
306.0197, 57.16995
306.5018, 57.39011
306.9839, 57.42892
307.4660, 57.73246
307.9481, 57.99236
308.4302, 57.72770
308.9124, 56.14486
309.3945, 54.62275
309.8766, 54.54424
310.3587, 55.65803
310.8408, 56.64496
311.3229, 56.50091
311.8051, 55.93041
312.2872, 55.67382
312.7693, 56.09778
313.2514, 56.53903
313.7335, 56.58364
314.2156, 56.33072
314.6978, 56.07300
315.1799, 55.71544
315.6620, 55.54644
316.1441, 55.87993
316.6262, 57.02526
317.1083, 57.96380
317.5905, 58.17350
318.0726, 57.89489
318.5547, 57.54759
319.0368, 57.05700
319.5189, 56.70757
320.0010, 56.68230
320.4832, 57.05134
320.9653, 57.45012
321.4474, 57.95797
321.9295, 58.38174
322.4116, 58.49550
322.8937, 58.02899
323.3759, 57.46136
323.8580, 56.73034
324.3401, 55.81266
324.8222, 55.52164
325.3043, 56.84504
325.7864, 58.37134
326.2686, 59.01223
326.7507, 57.61777
327.2328, 56.49180
327.7149, 55.98402
328.1970, 56.05731
328.6791, 56.21434
329.1613, 56.45867
329.6434, 56.77239
330.1255, 57.15514
330.6076, 57.81249
331.0897, 58.24282
331.5718, 58.43151
332.0540, 58.38616
332.5361, 58.08593
333.0182, 57.11712
333.5003, 56.43473
333.9824, 56.50588
334.4645, 57.68671
334.9467, 58.56164
335.4288, 59.21087
335.9109, 59.49087
336.3930, 58.97355
336.8751, 57.05555
337.3572, 55.76663
337.8394, 55.96693
338.3215, 57.75269
338.8036, 58.67125
339.2857, 58.45140
339.7678, 57.83643
340.2499, 57.68697
340.7320, 58.12330
341.2141, 58.30761
341.6963, 57.97300
342.1784, 57.24832
342.6605, 56.69881
343.1426, 56.31913
343.6247, 56.15945
344.1068, 56.29842
344.5890, 56.72515
345.0711, 57.31984
345.5532, 58.15330
346.0353, 59.01288
346.5174, 59.39883
346.9995, 59.31931
347.4817, 59.10568
347.9638, 58.82880
348.4459, 58.56218
348.9280, 58.67710
349.4101, 59.28941
349.8922, 59.90556
350.3744, 59.74847
350.8565, 59.00117
351.3386, 58.36973
351.8207, 58.31988
352.3028, 58.55688
352.7849, 58.46999
353.2671, 58.04372
353.7492, 57.87007
354.2313, 58.91320
354.7134, 60.49969
355.1955, 61.41449
355.6776, 60.59394
356.1598, 59.55062
356.6419, 60.12048
357.1240, 61.94561
357.6061, 63.10390
358.0882, 61.68649
358.5703, 59.37816
359.0525, 57.83976
359.5346, 57.56831
360.0167, 57.83854
360.4988, 58.61656
360.9809, 59.63464
361.4630, 60.29613
361.9452, 59.85699
362.4273, 59.36337
362.9094, 59.52694
363.3915, 60.62579
363.8736, 61.43214
364.3557, 61.22044
364.8379, 60.60198
365.3200, 60.29157
365.8021, 60.99957
366.2842, 61.49352
366.7663, 61.11794
367.2484, 59.85038
367.7306, 59.34698
368.2127, 60.83945
368.6948, 62.51202
369.1769, 63.16961
369.6590, 61.28761
370.1411, 60.23270
370.6233, 60.68971
371.1054, 62.16937
371.5875, 62.78109
372.0696, 61.86784
372.5517, 60.87938
373.0338, 60.45259
373.5160, 60.88829
373.9981, 60.98853
374.4802, 60.53080
374.9623, 59.91598
375.4444, 59.85365
375.9265, 60.57924
376.4087, 61.19397
376.8908, 61.37011
377.3729, 61.12929
377.8550, 61.16776
378.3371, 61.58390
378.8192, 62.01604
379.3014, 62.05038
379.7835, 61.66573
380.2656, 61.34413
380.7477, 61.13540
381.2298, 61.08212
381.7119, 61.46760
382.1941, 62.30247
382.6762, 62.89986
383.1583, 62.48196
383.6404, 61.37501
384.1225, 60.91656
384.6046, 61.31044
385.0868, 62.08868
385.5689, 62.86693
386.0510, 63.58167
386.5331, 64.01012
387.0152, 63.72194
387.4973, 63.22460
387.9795, 63.43473
388.4616, 64.35895
388.9437, 65.06992
389.4258, 64.52966
389.9079, 63.40496
390.3900, 62.65739
390.8722, 62.70791
391.3543, 63.07936
391.8364, 63.48818
392.3185, 63.94456
392.8006, 64.49934
393.2827, 65.56699
393.7649, 66.49067
394.2470, 66.71743
394.7291, 65.90450
395.2112, 65.10827
395.6933, 64.50093
396.1754, 64.18111
396.6576, 64.29692
397.1397, 65.38438
397.6218, 66.43707
398.1039, 67.13638
398.5860, 67.44750
399.0681, 67.63850
399.5503, 67.61821
400.0324, 67.55690
400.5145, 67.58955
400.9966, 68.02537
401.4787, 68.10383
401.9608, 67.42881
402.4430, 66.32478
402.9251, 66.13234
403.4072, 67.46776
403.8893, 68.78170
404.3714, 69.28748
404.8535, 68.69257
405.3357, 68.60429
405.8178, 69.30306
406.2999, 70.13631
406.7820, 69.96230
407.2641, 68.52721
407.7462, 67.56232
408.2284, 67.68328
408.7105, 68.69350
409.1926, 69.68639
409.6747, 70.67121
410.1568, 71.57294
410.6389, 72.26960
411.1211, 72.79922
411.6032, 73.49567
412.0853, 74.57303
412.5674, 75.52036
413.0495, 75.21970
413.5316, 73.95157
414.0138, 73.14825
414.4959, 74.06054
414.9780, 75.75795
415.4601, 76.79288
415.9422, 77.06628
416.4243, 77.16814
416.9065, 77.43358
417.3886, 77.87225
417.8707, 78.50349
418.3528, 79.71283
418.8349, 80.75660
419.3170, 80.84542
419.7992, 80.24100
420.2813, 80.15828
420.7634, 81.74117
421.2455, 83.61767
421.7276, 84.82891
422.2097, 84.93501
422.6919, 85.10084
423.1740, 85.44655
423.6561, 86.06639
424.1382, 87.11687
424.6203, 88.71080
425.1024, 90.62356
425.5846, 93.04793
426.0667, 96.03194
426.5488, 98.37875
427.0309, 99.54244
427.5130, 100.5753
427.9951, 102.1396
428.4773, 104.0725
428.9594, 106.9237
429.4415, 110.9149
429.9236, 115.7400
430.4057, 120.6545
430.8878, 125.4815
431.3700, 130.8567
431.8521, 136.7987
432.3342, 143.3071
432.8163, 151.8419
433.2984, 162.6634
433.7805, 174.6096
434.2627, 186.3159
434.7448, 197.8782
435.2269, 210.2646
435.7090, 224.1035
436.1911, 238.7568
436.6732, 252.5366
437.1554, 265.6700
437.6375, 279.5589
438.1196, 295.7520
438.6017, 313.1287
439.0838, 329.4324
439.5659, 344.0887
440.0480, 359.7369
440.5302, 378.3745
441.0123, 399.7159
441.4944, 423.2845
441.9765, 449.4019
442.4586, 477.2513
442.9407, 506.9818
443.4229, 538.1619
443.9050, 569.6304
444.3871, 599.3588
444.8692, 629.8358
445.3513, 662.5733
445.8334, 697.9224
446.3156, 735.5116
446.7977, 773.4254
447.2798, 813.5941
447.7619, 859.3973
448.2440, 912.8828
448.7261, 969.7742
449.2083, 1029.548
449.6904, 1092.672
450.1725, 1154.941
450.6546, 1217.318
451.1367, 1276.765
451.6188, 1331.749
452.1010, 1384.367
452.5831, 1426.291
453.0652, 1457.512
453.5473, 1477.927
454.0294, 1488.517
454.5115, 1489.577
454.9937, 1478.039
455.4758, 1446.861
455.9579, 1400.314
456.4400, 1360.665
456.9221, 1327.450
457.4042, 1302.232
457.8864, 1287.927
458.3685, 1282.729
458.8506, 1282.221
459.3327, 1288.965
459.8148, 1293.801
460.2969, 1291.595
460.7791, 1279.686
461.2612, 1249.248
461.7433, 1190.312
462.2254, 1113.897
462.7075, 1026.734
463.1896, 927.7163
463.6718, 829.8285
464.1539, 736.8320
464.6360, 650.1186
465.1181, 572.7146
465.6002, 506.9702
466.0823, 448.7704
466.5645, 398.2410
467.0466, 355.0156
467.5287, 317.7471
468.0108, 287.7672
468.4929, 262.4770
468.9750, 241.3135
469.4572, 224.9977
469.9393, 210.3492
470.4214, 197.6837
470.9035, 186.5201
471.3856, 176.3974
471.8677, 167.3439
472.3499, 159.2068
472.8320, 151.8635
473.3141, 145.3247
473.7962, 139.5342
474.2783, 134.5059
474.7604, 130.1314
475.2426, 126.7224
475.7247, 124.0379
476.2068, 120.5546
476.6889, 116.0773
477.1710, 111.6006
477.6531, 108.1715
478.1353, 105.6244
478.6174, 103.5508
479.0995, 102.1145
479.5816, 100.7477
480.0637, 98.72371
480.5458, 96.19841
481.0280, 93.78562
481.5101, 91.39444
481.9922, 89.52564
482.4743, 88.97464
482.9564, 90.17204
483.4385, 90.61286
483.9207, 88.47569
484.4028, 85.40469
484.8849, 83.12156
485.3670, 82.67116
485.8491, 82.30272
486.3312, 81.90964
486.8134, 81.40303
487.2955, 80.34791
487.7776, 78.23200
488.2597, 76.21442
488.7418, 74.69866
489.2239, 73.68752
489.7061, 73.29631
490.1882, 73.76273
490.6703, 74.49921
491.1524, 74.94664
491.6345, 75.12393
492.1166, 74.77939
492.5988, 73.67827
493.0809, 72.19791
493.5630, 71.35182
494.0451, 71.11630
494.5272, 70.99038
495.0093, 70.56094
495.4915, 70.03989
495.9736, 70.03906
496.4557, 70.61749
496.9378, 71.11302
497.4199, 70.80055
497.9020, 70.05562
498.3842, 69.44556
498.8663, 69.09431
499.3484, 68.97971
499.8305, 69.44157
500.3126, 70.15333
500.7947, 70.28416
501.2769, 68.74008
501.7590, 67.22619
502.2411, 66.64399
502.7232, 67.20294
503.2053, 67.57755
503.6874, 67.57630
504.1696, 67.33225
504.6517, 66.90167
505.1338, 65.88428
505.6159, 65.40682
506.0980, 65.75118
506.5801, 66.57620
507.0623, 67.08650
507.5444, 67.20113
508.0265, 67.27744
508.5086, 67.47461
508.9907, 67.76083
509.4728, 67.91148
509.9550, 67.94023
510.4371, 67.73753
510.9192, 67.01558
511.4013, 65.94326
511.8834, 65.22231
512.3655, 65.02466
512.8477, 64.97079
513.3298, 64.54152
513.8119, 63.90875
514.2940, 63.48069
514.7761, 63.59119
515.2582, 63.86456
515.7404, 63.95038
516.2225, 63.89542
516.7046, 64.06762
517.1867, 64.85200
517.6688, 65.76447
518.1509, 66.54778
518.6331, 67.29961
519.1152, 67.58743
519.5973, 66.75340
520.0794, 65.63646
520.5615, 65.33929
521.0436, 66.77288
521.5258, 67.57591
522.0079, 67.10953
522.4900, 65.69909
522.9721, 64.95158
523.4542, 65.00136
523.9363, 65.35225
524.4185, 65.96227
524.9006, 66.82678
525.3827, 66.89278
525.8648, 66.04800
526.3469, 64.98696
526.8290, 64.38401
527.3112, 64.19403
527.7933, 64.24052
528.2754, 64.51662
528.7575, 64.94732
529.2396, 65.68118
529.7217, 66.53778
530.2039, 66.97688
530.6860, 66.37717
531.1681, 65.52212
531.6502, 64.93084
532.1323, 64.62609
532.6144, 64.43926
533.0966, 64.36653
533.5787, 64.34261
534.0608, 64.30664
534.5429, 64.07417
535.0250, 64.12141
535.5071, 64.78585
535.9893, 65.63644
536.4714, 66.03450
536.9535, 65.82541
537.4356, 65.44572
537.9177, 64.89307
538.3998, 64.23296
538.8820, 63.87171
539.3641, 63.80451
539.8462, 64.06569
540.3283, 64.97626
540.8104, 66.36392
541.2925, 66.89697
541.7747, 66.42767
542.2568, 65.69737
542.7389, 65.41192
543.2210, 65.47960
543.7031, 65.74496
544.1852, 66.40830
544.6674, 66.85673
545.1495, 66.22846
545.6316, 64.92185
546.1137, 63.93160
546.5958, 63.71892
547.0779, 63.93108
547.5601, 64.62861
548.0422, 65.82575
548.5243, 66.50859
549.0064, 65.70407
549.4885, 64.85912
549.9706, 64.94186
550.4528, 66.98916
550.9349, 67.96844
551.4170, 67.37885
551.8991, 66.13297
552.3812, 65.63486
552.8633, 66.11539
553.3455, 66.39217
553.8276, 66.13616
554.3097, 65.50665
554.7918, 64.91077
555.2739, 64.35826
555.7560, 64.07564
556.2382, 64.48306
556.7203, 65.21046
557.2024, 65.33788
557.6845, 64.80863
558.1666, 64.27248
558.6487, 64.25102
559.1309, 64.55128
559.6130, 64.96986
560.0951, 65.62273
560.5772, 66.06252
561.0593, 65.88197
561.5414, 65.37212
562.0236, 65.05018
562.5057, 65.07779
562.9878, 65.26357
563.4699, 65.67578
563.9520, 66.26985
564.4341, 66.61108
564.9163, 66.65274
565.3984, 66.50391
565.8805, 66.16031
566.3626, 65.55643
566.8447, 65.12627
567.3268, 64.84803
567.8090, 64.78210
568.2911, 65.09633
568.7732, 65.74574
569.2553, 66.31518
569.7374, 66.74821
570.2195, 67.01824
570.7017, 66.96452
571.1838, 66.70299
571.6659, 66.60041
572.1480, 66.82191
572.6301, 67.28965
573.1122, 68.15761
573.5944, 69.34361
574.0765, 70.12606
574.5586, 69.90232
575.0407, 69.38909
575.5228, 68.99841
576.0049, 68.80251
576.4871, 68.67537
576.9692, 68.75227
577.4513, 68.80007
577.9334, 68.51840
578.4155, 67.50813
578.8976, 67.20758
579.3798, 68.11376
579.8619, 69.56759
580.3440, 69.75858
580.8261, 68.56563
581.3082, 67.67403
581.7903, 68.00017
582.2725, 69.09235
582.7546, 69.60301
583.2367, 69.57103
583.7188, 69.48318
584.2009, 69.75581
584.6830, 70.15880
585.1652, 70.28405
585.6473, 69.99566
586.1294, 70.01205
586.6115, 71.21028
587.0936, 72.73349
587.5757, 73.66395
588.0578, 72.90138
588.5399, 72.55083
589.0220, 73.42638
589.5042, 74.93652
589.9863, 75.67626
590.4684, 75.02815
590.9505, 74.60298
591.4326, 74.88220
591.9147, 75.77370
592.3969, 76.39709
592.8790, 76.65248
593.3611, 77.06917
593.8432, 78.14750
594.3253, 79.72395
594.8074, 80.97871
595.2896, 81.85963
595.7717, 82.62369
596.2538, 83.50685
596.7359, 84.45530
597.2180, 85.29842
597.7001, 85.71902
598.1823, 86.58250
598.6644, 88.82674
599.1465, 91.84698
599.6286, 94.61574
600.1107, 96.16369
600.5928, 98.03621
601.0750, 100.6719
601.5571, 104.0632
602.0392, 107.9657
602.5213, 112.7523
603.0034, 117.5865
603.4855, 122.0760
603.9677, 126.2286
604.4498, 130.3172
604.9319, 134.2029
605.4140, 138.5538
605.8961, 143.8467
606.3782, 150.1003
606.8604, 157.0802
607.3425, 164.8732
607.8246, 173.0867
608.3067, 181.3812
608.7888, 189.6989
609.2709, 197.6946
609.7531, 204.6304
610.2352, 211.9131
610.7173, 220.5132
611.1994, 230.2363
611.6815, 240.5920
612.1636, 251.2238
612.6458, 262.7382
613.1279, 275.5311
613.6100, 289.5031
614.0921, 304.4357
614.5742, 320.3050
615.0563, 337.4018
615.5385, 356.0639
616.0206, 376.7567
616.5027, 397.2203
616.9848, 417.2236
617.4669, 437.6239
617.9490, 459.7808
618.4312, 483.1036
618.9133, 504.1186
619.3954, 522.5096
619.8775, 537.9324
620.3596, 549.1444
620.8417, 557.2122
621.3239, 564.3203
621.8060, 571.6701
622.2881, 578.2813
622.7702, 584.6335
623.2523, 590.0636
623.7344, 591.9265
624.2166, 593.4528
624.6987, 587.3995
625.1808, 570.1925
625.6629, 541.4003
626.1450, 508.6423
626.6271, 468.9207
627.1093, 429.5274
627.5914, 395.0608
628.0735, 365.6137
628.5556, 339.6877
629.0377, 317.3340
629.5198, 298.7426
630.0020, 284.3968
630.4841, 273.8803
630.9662, 265.8754
631.4483, 259.9790
631.9304, 256.6349
632.4125, 256.3896
632.8947, 259.0140
633.3768, 264.0476
633.8589, 272.2243
634.3410, 281.8034
634.8231, 292.3538
635.3052, 303.7864
635.7874, 315.7330
636.2695, 328.1004
636.7516, 341.0267
637.2337, 355.4268
637.7158, 371.7030
638.1979, 382.9671
638.6801, 389.5034
639.1622, 390.4362
639.6443, 384.3066
640.1264, 371.5592
640.6085, 354.7679
641.0906, 333.6963
641.5728, 311.7833
642.0549, 290.7072
642.5370, 271.6430
643.0191, 256.4285
643.5012, 245.9790
643.9833, 238.6760
644.4655, 234.2463
644.9476, 232.0589
645.4297, 230.8545
645.9118, 229.9275
646.3939, 230.3961
646.8760, 232.6125
647.3582, 236.4630
647.8403, 241.6084
648.3224, 248.1322
648.8045, 255.9316
649.2866, 264.9417
649.7687, 275.2630
650.2509, 287.3179
650.7330, 301.3156
651.2151, 315.9250
651.6972, 329.2896
652.1793, 342.7928
652.6614, 359.9295
653.1436, 381.1318
653.6257, 402.2450
654.1078, 421.1024
654.5899, 437.3074
655.0720, 451.0516
655.5541, 464.0981
656.0363, 470.7136
656.5184, 469.1028
657.0005, 460.0175
657.4826, 444.1091
657.9647, 420.0439
658.4468, 391.5924
658.9290, 357.1791
659.4111, 319.7597
659.8932, 286.1555
660.3753, 256.4413
660.8574, 229.8914
661.3395, 206.1138
661.8217, 185.4037
662.3038, 169.1225
662.7859, 156.9388
663.2680, 146.5632
663.7501, 136.8444
664.2322, 128.0838
664.7144, 120.4416
665.1965, 113.9292
665.6786, 108.5005
666.1607, 104.7263
666.6428, 101.5957
667.1249, 98.51826
667.6071, 95.44210
668.0892, 92.37196
668.5713, 89.05208
669.0534, 85.98469
669.5355, 83.63496
670.0176, 82.01814
670.4998, 81.04683
670.9819, 80.90654
671.4640, 80.90977
671.9461, 79.94456
672.4282, 78.24532
672.9103, 76.63725
673.3925, 75.31628
673.8746, 74.26516
674.3567, 73.73935
674.8388, 73.46622
675.3209, 72.86168
675.8030, 71.21651
676.2852, 69.67842
676.7673, 68.62555
677.2494, 68.05087
677.7315, 67.85793
678.2136, 68.43834
678.6957, 68.81079
679.1779, 68.55299
679.6600, 67.69742
680.1421, 67.10975
680.6242, 66.79512
681.1063, 66.66811
681.5884, 66.78417
682.0706, 67.04003
682.5527, 67.14453
683.0348, 67.08659
683.5169, 66.77147
683.9990, 65.75011
684.4811, 64.61460
684.9633, 64.07848
685.4454, 64.48158
685.9275, 64.84716
686.4096, 64.72966
686.8917, 64.46113
687.3738, 64.41099
687.8560, 64.76979
688.3381, 65.02992
688.8202, 65.14690
689.3023, 65.17137
689.7844, 65.23225
690.2665, 65.34784
690.7487, 65.19572
691.2308, 64.57460
691.7129, 63.81683
692.1950, 63.55077
692.6771, 63.65650
693.1592, 63.69427
693.6414, 63.26611
694.1235, 62.83712
694.6056, 62.93120
695.0877, 63.38527
695.5698, 63.50701
696.0519, 62.54052
696.5341, 61.72720
697.0162, 61.72091
697.4983, 62.50621
697.9804, 62.71983
698.4625, 62.07433
698.9446, 61.44793
699.4268, 61.42738
699.9089, 61.97078
700.3910, 62.21754
700.8731, 62.15449
701.3552, 61.96480
701.8373, 61.77245
702.3195, 61.57210
702.8016, 61.28770
703.2837, 60.86195
703.7658, 60.68978
704.2479, 61.57547
704.7300, 62.53484
705.2122, 62.56853
705.6943, 60.39379
706.1764, 59.12703
706.6585, 59.53885
707.1406, 60.55550
707.6227, 60.82964
708.1049, 60.06701
708.5870, 59.85892
709.0691, 60.64321
709.5512, 61.71080
710.0333, 61.60629
710.5154, 60.57287
710.9976, 59.92725
711.4797, 60.33920
711.9618, 61.05404
712.4439, 61.50231
712.9260, 61.64090
713.4081, 61.37847
713.8903, 60.16729
714.3724, 59.06618
714.8545, 58.48286
715.3366, 58.37669
715.8187, 58.35799
716.3008, 58.44339
716.7830, 58.57991
717.2651, 58.72163
717.7472, 58.89269
718.2293, 59.36308
718.7114, 60.15786
719.1935, 60.83570
719.6757, 60.96204
720.1578, 60.83018
720.6399, 61.11094
721.1220, 61.78602
721.6041, 62.25756
722.0862, 61.93910
722.5684, 61.39552
723.0505, 61.06944
723.5326, 61.09343
724.0147, 60.93604
724.4968, 60.16309
724.9789, 59.49792
725.4611, 59.48521
725.9432, 60.43007
726.4253, 60.78035
726.9074, 60.40288
727.3895, 59.80938
727.8716, 59.43851
728.3538, 59.30421
728.8359, 59.56519
729.3180, 60.34095
729.8001, 61.08196
730.2822, 61.27724
730.7643, 61.14141
731.2465, 60.94490
731.7286, 60.67285
732.2107, 60.49020
732.6928, 60.44576
733.1749, 60.51845
733.6570, 60.69024
734.1392, 61.08094
734.6213, 61.27633
735.1034, 61.14757
735.5855, 60.87482
736.0676, 60.94280
736.5497, 61.30828
737.0319, 61.27050
737.5140, 60.38292
737.9961, 59.28136
738.4782, 58.68526
738.9603, 58.54857
739.4424, 58.75202
739.9246, 59.68132
740.4067, 60.50228
740.8888, 60.79681
741.3709, 60.64321
741.8530, 60.45541
742.3351, 60.23843
742.8173, 60.02556
743.2994, 59.82146
743.7815, 59.62770
744.2636, 59.31976
744.7457, 58.85441
745.2278, 58.87301
745.7100, 60.36931
746.1921, 62.35931
746.6742, 62.76589
747.1563, 61.76572
747.6384, 60.61585
748.1205, 59.89216
748.6027, 59.39618
749.0848, 58.92242
749.5669, 58.44704
750.0490, 58.48104
750.5311, 59.60717
751.0132, 60.66465
751.4954, 61.02726
751.9775, 60.61181
752.4596, 60.88034
752.9417, 62.01287
753.4238, 62.95310
753.9059, 62.69127
754.3881, 61.63741
754.8702, 60.74981
755.3523, 60.10411
755.8344, 59.74390
756.3165, 59.80013
756.7986, 60.10490
757.2808, 60.58971
757.7629, 61.38754
758.2450, 61.83427
758.7271, 61.60189
759.2092, 61.16892
759.6913, 60.81395
760.1735, 60.50683
760.6556, 60.46641
761.1377, 60.77487
761.6198, 61.10259
762.1019, 60.97375
762.5840, 60.55647
763.0662, 60.37835
763.5483, 60.52032
764.0304, 60.93058
764.5125, 61.81508
764.9946, 62.82671
765.4767, 63.59702
765.9589, 64.31612
766.4410, 64.30172
766.9231, 62.66113
767.4052, 60.72160
767.8873, 59.92899
768.3694, 60.64525
768.8516, 61.13522
769.3337, 61.17213
769.8158, 61.02858
770.2979, 61.13128
770.7800, 61.40076
771.2621, 61.55356
771.7443, 61.51649
772.2264, 61.33906
772.7085, 60.83066
773.1906, 60.27554
773.6727, 60.09772
774.1548, 60.83096
774.6370, 61.44525
775.1191, 61.84177
775.6012, 61.99392
776.0833, 61.73234
776.5654, 60.84452
777.0475, 60.54133
777.5297, 61.31876
778.0118, 62.29671
778.4939, 61.30773
778.9760, 59.02398
779.4581, 58.06901
779.9402, 60.28172
780.4224, 62.86687
780.9045, 63.62031
781.3866, 63.13563
781.8687, 62.51612
782.3508, 61.82056
782.8329, 61.30094
783.3151, 60.91750
783.7972, 60.76044
784.2793, 61.17978
784.7614, 62.34942
785.2435, 63.09000
785.7256, 62.94931
786.2077, 62.37360
786.6898, 62.31568
787.1719, 62.62048
787.6541, 62.72178
788.1362, 62.01617
788.6183, 61.36596
789.1004, 61.61913
789.5825, 62.37774
790.0646, 62.63681
790.5468, 61.71289
791.0289, 60.81442
791.5110, 60.12286
791.9931, 59.63782
792.4752, 59.35109
792.9573, 59.23899
793.4395, 59.57046
793.9216, 60.71635
794.4037, 62.07134
794.8858, 62.29270
795.3679, 61.70665
795.8500, 61.33898
796.3322, 62.09314
796.8143, 62.80859
797.2964, 62.67265
797.7785, 61.94064
798.2606, 61.55479
798.7427, 61.72823
799.2249, 62.09938
799.7070, 62.75889
800.1891, 63.49124
800.6712, 63.36505
801.1533, 62.36553
801.6354, 61.75166
802.1176, 62.36920
802.5997, 63.36392
803.0818, 63.48916
803.5639, 62.92699
804.0460, 62.23071
804.5281, 61.20977
805.0103, 60.56274
805.4924, 60.76731
805.9745, 61.65062
806.4566, 62.35205
806.9387, 62.81403
807.4208, 63.19003
807.9030, 63.50834
808.3851, 63.77720
808.8672, 64.09602
809.3493, 64.43389
809.8314, 64.50536
810.3135, 63.98099
810.7957, 63.30279
811.2778, 62.82447
811.7599, 62.55630
812.2420, 62.52723
812.7241, 63.18751
813.2062, 63.59615
813.6884, 63.23287
814.1705, 62.41395
814.6526, 62.13279
815.1347, 62.45310
815.6168, 63.09544
816.0989, 64.16820
816.5811, 65.30487
817.0632, 65.63181
817.5453, 65.27912
818.0274, 64.77502
818.5095, 64.37896
818.9916, 63.91801
819.4738, 63.08137
819.9559, 62.08551
820.4380, 61.52053
820.9201, 61.88808
821.4022, 62.19528
821.8843, 62.21249
822.3665, 62.09335
822.8486, 62.27501
823.3307, 62.76600
823.8128, 63.23416
824.2949, 63.61249
824.7770, 63.84626
825.2592, 63.89266
825.7413, 63.73315
826.2234, 63.32778
826.7055, 62.06179
827.1876, 61.20297
827.6697, 61.54570
828.1519, 62.59360
828.6340, 63.17329
829.1161, 63.06464
829.5982, 63.01693
830.0803, 63.26340
830.5624, 63.50549
831.0446, 62.91778
831.5267, 61.71470
832.0088, 61.03748
832.4909, 61.51954
832.9730, 62.18128
833.4551, 61.87247
833.9373, 61.21785
834.4194, 61.22353
834.9015, 63.44202
835.3836, 64.62094
835.8657, 63.85535
836.3478, 62.26320
836.8300, 61.53428
837.3121, 61.75471
837.7942, 62.13874
838.2763, 62.68399
838.7584, 62.96812
839.2405, 61.93301
839.7227, 60.28906
840.2048, 59.57738
840.6869, 60.70284
841.1690, 61.74160
841.6511, 61.52179
842.1332, 60.84214
842.6154, 60.69212
843.0975, 61.47716
843.5796, 61.95895
844.0617, 62.01475
844.5438, 61.89619
845.0259, 61.79202
845.5081, 61.75286
845.9902, 62.17266
846.4723, 63.21069
846.9544, 64.05545
847.4365, 63.87358
847.9186, 63.18398
848.4008, 62.48820
848.8829, 61.71517
849.3650, 61.40556
849.8471, 61.85192
850.3292, 62.53216
850.8113, 63.11660
851.2935, 63.61505
851.7756, 63.96519
852.2577, 64.18427
852.7398, 64.10172
853.2219, 63.27571
853.7040, 62.16038
854.1862, 61.38148
854.6683, 61.01004
855.1504, 61.16569
855.6325, 62.59956
856.1146, 64.02168
856.5967, 64.51363
857.0789, 63.95769
857.5610, 63.64058
858.0431, 63.62706
858.5252, 63.65975
859.0073, 63.62845
859.4894, 63.50590
859.9716, 63.06494
860.4537, 62.35122
860.9358, 61.87605
861.4179, 62.21439
861.9000, 62.69774
862.3821, 62.80752
862.8643, 62.54549
863.3464, 62.51337
863.8285, 63.00697
864.3106, 63.30348
864.7927, 63.04630
865.2748, 62.40920
865.7570, 62.18261
866.2391, 62.35344
866.7212, 62.72663
867.2033, 63.57624
867.6854, 64.27800
868.1675, 63.87352
868.6497, 62.75881
869.1318, 62.08048
869.6139, 62.80012
870.0960, 63.27943
870.5781, 62.88675
871.0602, 62.07328
871.5424, 62.05648
872.0245, 62.93597
872.5066, 63.64712
872.9887, 63.91930
873.4708, 63.87752
873.9529, 63.52705
874.4351, 63.03185
874.9172, 62.76229
875.3993, 63.00922
875.8814, 63.24375
876.3635, 63.26461
876.8456, 63.16041
877.3278, 63.02757
877.8099, 62.76271
878.2920, 62.84698
878.7741, 63.44411
879.2562, 64.09573
879.7383, 64.02805
880.2205, 63.55526
880.7026, 63.64112
881.1847, 64.54734
881.6668, 65.48382
882.1489, 66.07725
882.6310, 66.36211
883.1132, 66.33632
883.5953, 65.87790
884.0774, 65.45616
884.5595, 65.00993
885.0416, 64.71268
885.5237, 64.84458
886.0059, 65.28941
886.4880, 65.17809
886.9701, 64.50529
887.4522, 64.02428
887.9343, 64.41444
888.4164, 65.14685
888.8986, 65.86781
889.3807, 66.54635
889.8628, 66.97565
890.3449, 66.94400
890.8270, 66.92503
891.3091, 67.04211
891.7913, 67.31541
892.2734, 68.02693
892.7555, 69.13753
893.2376, 69.91655
893.7197, 69.45806
894.2018, 68.90269
894.6840, 69.85120
895.1661, 71.70012
895.6482, 72.76097
896.1303, 71.58659
896.6124, 70.74574
897.0945, 70.97679
897.5767, 71.72791
898.0588, 71.70222
898.5409, 70.85551
899.0230, 70.42220
899.5051, 70.71426
899.9872, 71.45299
900.4694, 72.76195
900.9515, 74.14741
901.4336, 74.71327
901.9157, 73.62498
902.3978, 72.87370
902.8799, 73.42718
903.3621, 74.25140
903.8442, 74.47356
904.3263, 74.00325
904.8084, 73.37278
905.2905, 72.54016
905.7726, 71.85072
906.2548, 71.69784
906.7369, 71.87312
907.2190, 72.05626
907.7011, 72.21082
908.1832, 72.41501
908.6653, 72.90132
909.1475, 73.25681
909.6296, 73.18407
910.1117, 72.69575
910.5938, 72.52557
911.0759, 72.74873
911.5580, 72.89314
912.0402, 72.56469
912.5223, 72.05299
913.0044, 71.91084
913.4865, 72.09750
913.9686, 72.47655
914.4507, 73.22285
914.9329, 73.89197
915.4150, 74.24754
915.8971, 74.39192
916.3792, 74.57239
916.8613, 74.78498
917.3434, 75.03981
917.8256, 75.33651
918.3077, 75.67962
918.7898, 76.07823
919.2719, 76.52862
919.7540, 77.04899
920.2361, 77.73966
920.7183, 78.27174
921.2004, 78.46733
921.6825, 78.44045
922.1646, 78.29537
922.6467, 77.93477
923.1288, 77.76271
923.6110, 77.79028
924.0931, 77.98106
924.5752, 78.48045
925.0573, 79.07072
925.5394, 79.20872
926.0215, 78.86173
926.5037, 78.42496
926.9858, 78.07281
927.4679, 77.73225
927.9500, 77.20897
928.4321, 76.55086
928.9142, 76.68938
929.3964, 77.91861
929.8785, 78.81602
930.3606, 78.52858
930.8427, 77.69437
931.3248, 77.86324
931.8069, 78.74619
932.2891, 79.39855
932.7712, 79.02876
933.2533, 78.74130
933.7354, 79.27450
934.2175, 80.11339
934.6996, 80.20060
935.1818, 79.21769
935.6639, 78.60789
936.1460, 78.61442
936.6281, 78.86128
937.1102, 78.81295
937.5923, 78.63294
938.0745, 78.73812
938.5566, 79.29317
939.0387, 79.68401
939.5208, 79.25134
940.0029, 78.81481
940.4850, 79.04919
940.9672, 80.07388
941.4493, 80.77614
941.9314, 81.12248
942.4135, 81.27364
942.8956, 81.10241
943.3777, 80.90656
943.8599, 81.45177
944.3420, 82.58060
944.8241, 83.48073
945.3062, 83.68050
945.7883, 83.64919
946.2704, 83.45506
946.7526, 83.19555
947.2347, 83.08321
947.7168, 83.09845
948.1989, 83.44968
948.6810, 84.30119
949.1631, 85.25983
949.6453, 85.82240
950.1274, 86.06355
950.6095, 86.04301
951.0916, 85.43497
951.5737, 85.33351
952.0558, 86.53984
952.5380, 88.03122
953.0201, 89.01043
953.5022, 89.40300
953.9843, 89.93904
954.4664, 90.67241
954.9485, 91.06819
955.4307, 89.98045
955.9128, 88.70403
956.3949, 89.36106
956.8770, 91.82918
957.3591, 93.43179
957.8412, 92.08552
958.3234, 91.12157
958.8055, 91.67446
959.2876, 93.36548
959.7697, 94.90125
960.2518, 96.28419
960.7339, 97.31934
961.2161, 97.72376
961.6982, 98.15250
962.1803, 99.66560
962.6624, 101.5745
963.1445, 102.8142
963.6266, 102.1847
964.1088, 102.2844
964.5909, 103.5112
965.0730, 105.1441
965.5551, 106.3004
966.0372, 107.0922
966.5193, 108.8775
967.0015, 111.7525
967.4836, 114.3063
967.9657, 114.7719
968.4478, 114.9233
968.9299, 116.2226
969.4120, 118.7859
969.8942, 121.5359
970.3763, 124.5071
970.8584, 127.4713
971.3405, 130.3220
971.8226, 133.1613
972.3047, 136.2209
972.7869, 139.5582
973.2690, 143.4866
973.7511, 148.6200
974.2332, 153.6499
974.7153, 158.2875
975.1974, 162.2104
975.6796, 164.9094
976.1617, 165.5254
976.6438, 167.3879
977.1259, 170.7157
977.6080, 174.9493
978.0901, 179.2076
978.5723, 183.9677
979.0544, 190.0997
979.5365, 197.6794
980.0186, 207.1892
980.5007, 218.4818
980.9828, 232.0329
981.4650, 247.7255
981.9471, 265.7007
982.4291, 286.4321
982.9113, 309.3834
983.3934, 340.7001
983.8755, 380.7187
984.3576, 433.5681
984.8397, 504.0427
985.3218, 592.2933
985.8040, 697.5675
986.2861, 833.3766
986.7682, 967.3820
987.2503, 1101.951
987.7324, 1227.330
988.2145, 1328.898
988.6967, 1408.303
989.1788, 1487.793
989.6609, 1568.939
990.1430, 1654.210
990.6251, 1742.548
991.1072, 1839.369
991.5894, 1949.386
992.0715, 2072.270
992.5536, 2207.288
993.0357, 2352.433
993.5178, 2510.957
993.9999, 2676.993
994.4821, 2861.981
994.9642, 3080.767
995.4463, 3339.021
995.9284, 3662.677
996.4105, 4050.059
996.8926, 4517.920
997.3748, 5078.096
997.8569, 5724.331
998.3390, 6460.372
998.8211, 7320.152
999.3032, 8214.200
999.7853, 9186.615
1000.267, 9888.701
1000.750, 10074.33
1001.232, 9757.683
1001.714, 8779.409
1002.196, 7226.523
1002.678, 5712.006
1003.160, 4372.422
1003.642, 3279.197
1004.124, 2480.634
1004.607, 1923.273
1005.089, 1506.166
1005.571, 1222.751
1006.053, 1009.738
1006.535, 855.7406
1007.017, 739.8481
1007.499, 648.5760
1007.981, 576.3950
1008.463, 516.0360
1008.946, 469.8477
1009.428, 429.6566
1009.910, 395.8492
1010.392, 366.1378
1010.874, 339.2847
1011.356, 315.2133
1011.838, 295.4873
1012.320, 279.8012
1012.802, 265.9036
1013.285, 253.2938
1013.767, 241.5979
1014.249, 230.7452
1014.731, 220.7442
1015.213, 212.0869
1015.695, 204.9201
1016.177, 198.2716
1016.659, 192.0756
1017.142, 186.0316
1017.624, 179.5776
1018.106, 173.2505
1018.588, 167.7469
1019.070, 163.2547
1019.552, 159.1128
1020.034, 155.2088
1020.516, 151.5728
1020.998, 148.2270
1021.481, 145.1515
1021.963, 142.2980
1022.445, 139.6712
1022.927, 137.4117
1023.409, 136.1660
1023.891, 134.6385
1024.373, 131.5365
1024.855, 127.7089
1025.338, 124.6459
1025.820, 122.6236
1026.302, 120.8428
1026.784, 119.2885
1027.266, 117.8646
1027.748, 116.3407
1028.230, 114.9297
1028.712, 114.3317
1029.194, 114.5147
1029.677, 113.8896
1030.159, 110.7392
1030.641, 107.8819
1031.123, 106.4889
1031.605, 106.0757
1032.087, 104.8646
1032.569, 102.9278
1033.051, 101.4505
1033.534, 100.9322
1034.016, 100.6937
1034.498, 100.4779
1034.980, 99.99989
1035.462, 98.79752
1035.944, 96.19570
1036.426, 94.73962
1036.908, 94.80939
1037.391, 94.97569
1037.873, 94.07820
1038.355, 92.56081
1038.837, 91.55687
1039.319, 90.98705
1039.801, 90.50394
1040.283, 90.17599
1040.765, 89.61702
1041.247, 88.34770
1041.729, 86.98639
1042.212, 86.61700
1042.694, 87.25790
1043.176, 87.88195
1043.658, 88.38349
1044.140, 88.60169
1044.622, 88.35743
1045.104, 87.79147
1045.586, 86.96260
1046.069, 85.85118
1046.551, 84.83742
1047.033, 83.78135
1047.515, 83.24631
1047.997, 83.66059
1048.479, 84.48808
1048.961, 84.42415
1049.443, 83.82371
1049.926, 83.63187
1050.408, 84.63424
1050.890, 85.27706
1051.372, 84.70022
1051.854, 83.78795
1052.336, 83.16559
1052.818, 82.82945
1053.300, 82.88350
1053.782, 83.33080
1054.265, 83.67440
1054.747, 83.44237
1055.229, 83.05534
1055.711, 82.79265
1056.193, 82.67183
1056.675, 82.74938
1057.157, 83.24883
1057.639, 83.27042
1058.121, 82.47150
1058.604, 81.65962
1059.086, 82.34868
1059.568, 83.73185
1060.050, 84.09499
1060.532, 83.08362
1061.014, 82.14128
1061.496, 81.74350
1061.978, 81.67266
1062.461, 82.00939
1062.943, 82.57349
1063.425, 82.16866
1063.907, 80.96407
1064.389, 80.71489
1064.871, 82.73344
1065.353, 84.75565
1065.835, 84.87895
1066.318, 84.08205
1066.800, 83.63556
1067.282, 83.72863
1067.764, 83.76384
1068.246, 83.71089
1068.728, 83.73855
1069.210, 84.10966
1069.692, 84.56804
1070.174, 84.74195
1070.656, 84.64137
1071.139, 84.34859
1071.621, 83.29356
1072.103, 82.90224
1072.585, 83.59194
1073.067, 84.77926
1073.549, 85.55657
1074.031, 86.04851
1074.513, 86.90536
1074.996, 88.22164
1075.478, 89.60838
1075.960, 91.27016
1076.442, 92.48031
1076.924, 92.30778
1077.406, 91.15911
1077.888, 91.56216
1078.370, 93.58530
1078.853, 95.73253
1079.335, 97.47350
1079.817, 99.15768
1080.299, 101.1130
1080.781, 103.3097
1081.263, 105.7076
1081.745, 108.4668
1082.227, 111.0575
1082.709, 113.3893
1083.192, 115.7643
1083.674, 118.4367
1084.156, 121.2982
1084.638, 123.8561
1085.120, 126.3374
1085.602, 129.5827
1086.084, 134.8058
1086.566, 139.7202
1087.048, 143.1610
1087.531, 146.6744
1088.013, 152.4998
1088.495, 160.3988
1088.977, 166.8603
1089.459, 171.6736
1089.941, 177.4643
1090.423, 187.3976
1090.905, 197.7314
1091.387, 205.5658
1091.870, 211.6478
1092.352, 219.5824
1092.834, 229.9670
1093.316, 238.4258
1093.798, 244.1470
1094.280, 247.0236
1094.762, 246.8551
1095.244, 243.8078
1095.727, 237.7547
1096.209, 228.3633
1096.691, 217.7578
1097.173, 205.4770
1097.655, 193.7243
1098.137, 183.0453
1098.619, 173.9862
1099.101, 168.4985
1099.583, 165.7052
1100.066, 163.0702
1100.548, 159.4184
1101.030, 156.4071
1101.512, 154.3316
1101.994, 153.2169
1102.476, 153.2670
1102.958, 154.4283
1103.440, 155.6894
1103.922, 157.1395
1104.405, 159.7670
1104.887, 165.5522
1105.369, 171.2372
1105.851, 174.5884
1106.333, 176.7716
1106.815, 179.9405
1107.297, 184.1419
1107.779, 189.2930
1108.262, 195.6048
1108.744, 201.3279
1109.226, 204.9867
1109.708, 207.2351
1110.190, 208.9473
1110.672, 210.0051
1111.154, 209.2037
1111.636, 206.5450
1112.119, 202.0471
1112.601, 195.4201
1113.083, 187.5632
1113.565, 179.2507
1114.047, 170.7146
1114.529, 162.3047
1115.011, 153.8356
1115.493, 146.3844
1115.975, 140.3232
1116.458, 135.0989
1116.940, 130.7028
1117.422, 126.8047
1117.904, 121.8599
1118.386, 116.4148
1118.868, 112.1548
1119.350, 110.1476
1119.832, 108.6035
1120.314, 106.9107
1120.797, 105.2855
1121.279, 103.9565
1121.761, 102.9170
1122.243, 101.3468
1122.725, 99.31966
1123.207, 97.96614
1123.689, 98.49582
1124.171, 99.36989
1124.654, 99.65491
1125.136, 99.58769
1125.618, 99.66537
1126.100, 99.99193
1126.582, 99.78887
1127.064, 98.91883
1127.546, 98.35497
1128.028, 99.55634
1128.510, 101.0201
1128.993, 100.8418
1129.475, 99.38547
1129.957, 98.95232
1130.439, 99.95390
1130.921, 101.2650
1131.403, 102.8121
1131.885, 104.2742
1132.367, 104.8200
1132.849, 105.1947
1133.332, 106.8243
1133.814, 109.8995
1134.296, 112.4572
1134.778, 113.8272
1135.260, 114.9662
1135.742, 115.8339
1136.224, 117.0466
1136.706, 120.3679
1137.189, 125.0863
1137.671, 129.1931
1138.153, 131.9079
1138.635, 135.4223
1139.117, 140.9087
1139.599, 147.0447
1140.081, 153.3074
1140.563, 159.6452
1141.046, 166.1582
1141.528, 172.9122
1142.010, 180.5671
1142.492, 189.4353
1142.974, 199.0387
1143.456, 209.4916
1143.938, 220.2220
1144.420, 230.4553
1144.902, 240.2032
1145.385, 251.3517
1145.867, 263.8332
1146.349, 277.3726
1146.831, 291.9550
1147.313, 307.2527
1147.795, 322.5184
1148.277, 338.2351
1148.759, 355.1489
1149.241, 373.0993
1149.724, 392.9423
1150.206, 414.7617
1150.688, 437.0456
1151.170, 456.4409
1151.652, 476.8403
1152.134, 502.3416
1152.616, 532.1168
1153.098, 561.9669
1153.581, 592.2399
1154.063, 620.7777
1154.545, 647.4390
1155.027, 671.4845
1155.509, 693.1780
1155.991, 710.3495
1156.473, 719.8597
1156.955, 721.6431
1157.438, 718.1167
1157.920, 709.5114
1158.402, 696.9464
1158.884, 680.2383
1159.366, 661.0605
1159.848, 642.3470
1160.330, 622.8177
1160.812, 599.8433
1161.294, 572.6955
1161.776, 545.6746
1162.259, 520.5122
1162.741, 493.6138
1163.223, 462.4139
1163.705, 429.9094
1164.187, 402.4515
1164.669, 379.1653
1165.151, 357.6007
1165.633, 337.4598
1166.116, 317.7553
1166.598, 297.3991
1167.080, 278.2011
1167.562, 260.8126
1168.044, 245.2104
1168.526, 231.2666
1169.008, 219.0450
1169.490, 208.6782
1169.973, 200.9074
1170.455, 193.4439
1170.937, 184.9815
1171.419, 177.2200
1171.901, 171.5124
1172.383, 167.6679
1172.865, 163.5494
1173.347, 159.4341
1173.829, 156.5017
1174.312, 156.6751
1174.794, 156.5781
1175.276, 154.0667
1175.758, 151.2170
1176.240, 150.1298
1176.722, 150.7519
1177.204, 150.7852
1177.686, 150.2689
1178.168, 150.3415
1178.651, 152.6416
1179.133, 154.6916
1179.615, 154.5647
1180.097, 153.7435
1180.579, 154.5603
1181.061, 157.0336
1181.543, 158.4845
1182.025, 158.7375
1182.508, 160.0612
1182.990, 164.8158
1183.472, 170.4807
1183.954, 175.7894
1184.436, 180.6147
1184.918, 184.8474
1185.400, 188.4291
1185.882, 192.0567
1186.365, 195.7625
1186.847, 200.2664
1187.329, 207.8971
1187.811, 215.1318
1188.293, 219.2061
1188.775, 220.4217
1189.257, 220.1742
1189.739, 218.4896
1190.221, 214.8914
1190.703, 209.1286
1191.186, 202.1414
1191.668, 194.5865
1192.150, 186.4690
1192.632, 177.3333
1193.114, 167.4454
1193.596, 159.0800
1194.078, 152.3565
1194.560, 145.9483
1195.043, 139.5230
1195.525, 133.4191
1196.007, 127.7636
1196.489, 122.7925
1196.971, 118.7745
1197.453, 115.7074
1197.935, 113.2216
1198.417, 111.4081
1198.900, 109.3511
1199.382, 106.6075
1199.864, 103.8424
1200.346, 101.6897
1200.828, 99.92389
1201.310, 98.27158
1201.792, 96.66908
1202.274, 95.60615
1202.756, 95.16809
1203.239, 94.52471
1203.721, 93.10849
1204.203, 91.69514
1204.685, 91.38277
1205.167, 91.47842
1205.649, 91.01585
1206.131, 89.80147
1206.613, 88.56424
1207.095, 87.25963
1207.578, 86.20433
1208.060, 85.64598
1208.542, 85.33488
1209.024, 85.03381
1209.506, 84.79170
1209.988, 84.78092
1210.470, 85.25858
1210.952, 84.75307
1211.435, 83.09470
1211.917, 81.81770
1212.399, 82.08791
1212.881, 83.01817
1213.363, 84.06995
1213.845, 84.99612
1214.327, 85.31102
1214.809, 84.80129
1215.292, 84.42394
1215.774, 84.19939
1216.256, 84.00065
1216.738, 83.81443
1217.220, 83.54054
1217.702, 82.88541
1218.184, 82.11624
1218.666, 81.83952
1219.148, 82.26231
1219.630, 82.37877
1220.113, 82.12383
1220.595, 81.79338
1221.077, 81.69477
1221.559, 81.56422
1222.041, 80.89252
1222.523, 80.06890
1223.005, 80.12998
1223.487, 81.44386
1223.970, 81.81458
1224.452, 81.01883
1224.934, 80.16410
1225.416, 80.28569
1225.898, 80.59869
1226.380, 80.36928
1226.862, 79.80521
1227.344, 79.58379
1227.827, 79.78633
1228.309, 79.84093
1228.791, 79.70250
1229.273, 79.33340
1229.755, 78.34128
1230.237, 77.43938
1230.719, 77.31762
1231.201, 77.73073
1231.683, 77.95885
1232.166, 78.00573
1232.648, 77.70155
1233.130, 76.99874
1233.612, 76.44926
1234.094, 76.65514
1234.576, 77.03258
1235.058, 77.29443
1235.540, 77.35825
1236.022, 76.89603
1236.505, 75.88925
1236.987, 75.53166
1237.469, 76.00252
1237.951, 76.65041
1238.433, 77.12193
1238.915, 77.45866
1239.397, 77.63515
1239.879, 77.71105
1240.362, 77.90395
1240.844, 78.17580
1241.326, 77.73982
1241.808, 76.40553
1242.290, 75.51391
1242.772, 76.44554
1243.254, 77.59698
1243.736, 78.24027
1244.219, 78.42488
1244.701, 78.02515
1245.183, 77.20123
1245.665, 77.15395
1246.147, 78.13902
1246.629, 78.96023
1247.111, 78.92577
1247.593, 78.56074
1248.075, 78.03940
1248.557, 77.44215
1249.040, 76.81638
1249.522, 76.26098
1250.004, 76.27887
1250.486, 76.97861
1250.968, 77.72515
1251.450, 78.72393
1251.932, 79.00323
1252.414, 77.98008
1252.897, 76.37297
1253.379, 75.66283
1253.861, 75.64430
1254.343, 75.90563
1254.825, 76.41561
1255.307, 76.49872
1255.789, 75.29830
1256.271, 74.68591
1256.754, 75.53831
1257.236, 76.74055
1257.718, 75.86337
1258.200, 73.93102
1258.682, 72.94224
1259.164, 73.28313
1259.646, 73.57315
1260.128, 73.55035
1260.610, 73.56335
1261.093, 73.73501
1261.575, 73.94634
1262.057, 74.06844
1262.539, 74.08583
1263.021, 73.93327
1263.503, 73.58824
1263.985, 73.39069
1264.467, 73.45991
1264.949, 73.29758
1265.432, 72.72110
1265.914, 71.95802
1266.396, 70.98703
1266.878, 70.20166
1267.360, 70.27865
1267.842, 71.27747
1268.324, 71.45229
1268.806, 70.67139
1269.289, 70.14855
1269.771, 70.25570
1270.253, 70.63118
1270.735, 71.17125
1271.217, 71.61847
1271.699, 71.58483
1272.181, 71.18925
1272.663, 71.28257
1273.146, 71.84871
1273.628, 71.85825
1274.110, 70.87272
1274.592, 70.06642
1275.074, 70.56767
1275.556, 71.32449
1276.038, 71.64559
1276.520, 71.62756
1277.002, 71.60052
1277.484, 71.58619
1277.967, 71.76884
1278.449, 72.25405
1278.931, 72.56834
##END=



