##NAMES=Celsian
##RRUFFID=R060152
##IDEAL CHEMISTRY=BaAl_2_Si_2_O_8_
##LOCALITY=Benallt mine, Lleyn, Wales
##OWNER=RRUFF
##SOURCE=Marcus Origlieri
##DESCRIPTION=Colorless to white elongated prismatic crystals
##STATUS=The identification of this mineral is confirmed by single-crystal X-ray diffraction and chemical analysis.
##URL=rruff.info/R060152
##MEASURED CHEMISTRY=(Ba_0.98_K_0.02_[box]_0.02_)_Î£=1_Al_2.00_Si_2.00_O_8_
90.26367, 15.19602
90.74579, 15.15922
91.22791, 15.17150
91.71002, 15.22832
92.19214, 15.29031
92.67426, 15.40822
93.15637, 15.51750
93.63850, 15.43429
94.12061, 14.94734
94.60273, 14.26621
95.08485, 13.88423
95.56696, 13.82261
96.04908, 13.93991
96.53120, 14.17693
97.01331, 14.51707
97.49543, 14.70568
97.97755, 14.50585
98.45966, 13.95249
98.94178, 13.71402
99.42390, 13.88434
99.90602, 14.24065
100.3881, 14.37017
100.8703, 14.24323
101.3524, 13.99089
101.8345, 13.61065
102.3166, 13.02204
102.7987, 12.68485
103.2808, 12.71976
103.7630, 13.02736
104.2451, 13.15493
104.7272, 12.99168
105.2093, 12.79635
105.6914, 12.75173
106.1735, 13.00227
106.6557, 13.15324
107.1378, 13.10683
107.6199, 12.85337
108.1020, 12.72057
108.5841, 12.76894
109.0662, 12.90583
109.5484, 13.04858
110.0305, 13.10385
110.5126, 13.25894
110.9947, 13.54642
111.4768, 13.97711
111.9590, 14.50373
112.4411, 15.13995
112.9232, 15.87036
113.4053, 16.65605
113.8874, 17.33771
114.3695, 18.20291
114.8517, 19.33671
115.3338, 20.72425
115.8159, 22.43978
116.2980, 24.64597
116.7801, 27.22075
117.2622, 29.87219
117.7444, 32.33318
118.2265, 34.95063
118.7086, 37.97965
119.1907, 41.74213
119.6728, 45.57388
120.1549, 48.92589
120.6371, 51.96789
121.1192, 55.40328
121.6013, 59.81409
122.0834, 64.74355
122.5655, 69.66698
123.0477, 74.38217
123.5298, 79.06660
124.0119, 83.81686
124.4940, 88.64112
124.9761, 93.67667
125.4582, 99.06833
125.9404, 104.7142
126.4225, 110.3718
126.9046, 116.2173
127.3867, 121.9344
127.8688, 126.9084
128.3509, 131.0913
128.8331, 134.9987
129.3152, 138.8311
129.7973, 142.7410
130.2794, 147.3746
130.7615, 152.8230
131.2436, 159.2001
131.7258, 167.0437
132.2079, 176.5843
132.6900, 186.9752
133.1721, 197.4076
133.6542, 207.8440
134.1364, 217.2769
134.6185, 225.9939
135.1006, 233.9075
135.5827, 237.9341
136.0648, 237.4280
136.5469, 233.4654
137.0291, 228.3523
137.5112, 222.0435
137.9933, 214.8913
138.4754, 206.6370
138.9575, 197.0306
139.4396, 188.2756
139.9218, 180.5928
140.4039, 173.9883
140.8860, 168.6814
141.3681, 164.7681
141.8502, 162.0604
142.3323, 160.6429
142.8145, 160.9248
143.2966, 161.3747
143.7787, 161.6935
144.2608, 161.8953
144.7429, 162.6010
145.2251, 163.7837
145.7072, 165.5072
146.1893, 167.8940
146.6714, 171.4393
147.1535, 174.8965
147.6356, 177.9073
148.1178, 180.3301
148.5999, 183.1973
149.0820, 186.7610
149.5641, 190.6545
150.0462, 194.4120
150.5283, 197.7421
151.0105, 201.1787
151.4926, 203.0168
151.9747, 204.8828
152.4568, 206.7293
152.9389, 208.4673
153.4210, 210.1954
153.9032, 212.0845
154.3853, 214.2141
154.8674, 216.4124
155.3495, 218.5544
155.8316, 220.4359
156.3138, 222.7643
156.7959, 225.3275
157.2780, 228.4073
157.7601, 232.5317
158.2422, 238.7437
158.7243, 245.3557
159.2065, 251.6155
159.6886, 257.2514
160.1707, 262.8043
160.6528, 268.0714
161.1349, 273.3192
161.6170, 279.2652
162.0992, 287.9533
162.5813, 296.3512
163.0634, 302.5229
163.5455, 306.1137
164.0276, 307.3900
164.5097, 305.2264
164.9919, 300.4462
165.4740, 296.2367
165.9561, 293.6439
166.4382, 292.5440
166.9203, 292.8750
167.4025, 295.9805
167.8846, 299.1085
168.3667, 301.2664
168.8488, 302.3158
169.3309, 301.2496
169.8130, 296.8038
170.2952, 290.0726
170.7773, 282.4529
171.2594, 273.2972
171.7415, 264.2167
172.2236, 256.3948
172.7057, 249.7952
173.1879, 244.0323
173.6700, 239.1898
174.1521, 234.9437
174.6342, 230.7301
175.1163, 226.1476
175.5984, 221.5205
176.0806, 217.1691
176.5627, 213.0654
177.0448, 209.4621
177.5269, 206.5042
178.0090, 204.2208
178.4911, 202.6063
178.9733, 201.9659
179.4554, 201.9166
179.9375, 201.9931
180.4196, 202.2224
180.9017, 202.2465
181.3839, 201.4435
181.8660, 200.0531
182.3481, 198.8929
182.8302, 198.3806
183.3123, 198.3707
183.7944, 198.4822
184.2766, 198.6696
184.7587, 199.1738
185.2408, 200.5433
185.7229, 202.6259
186.2050, 204.5697
186.6871, 205.5706
187.1693, 206.0289
187.6514, 207.4078
188.1335, 209.8844
188.6156, 212.9239
189.0977, 215.6092
189.5798, 217.9815
190.0620, 221.0569
190.5441, 225.5211
191.0262, 231.2507
191.5083, 237.2287
191.9904, 243.3441
192.4725, 250.0331
192.9547, 258.2276
193.4368, 268.0293
193.9189, 278.3190
194.4010, 289.0334
194.8831, 300.0676
195.3652, 310.1519
195.8474, 319.9294
196.3295, 327.5969
196.8116, 330.0275
197.2937, 327.3076
197.7758, 319.0229
198.2579, 303.2566
198.7401, 279.8359
199.2222, 256.8452
199.7043, 234.5441
200.1864, 213.6988
200.6685, 195.9819
201.1507, 181.6041
201.6328, 169.8226
202.1149, 160.4712
202.5970, 153.6560
203.0791, 148.1658
203.5612, 144.0933
204.0434, 141.1926
204.5255, 139.0225
205.0076, 137.7403
205.4897, 136.6481
205.9718, 135.2076
206.4539, 133.2652
206.9361, 131.9553
207.4182, 131.5777
207.9003, 131.8083
208.3824, 131.5441
208.8645, 130.6127
209.3466, 129.6372
209.8288, 129.0252
210.3109, 128.8806
210.7930, 128.5916
211.2751, 127.8986
211.7572, 127.0751
212.2393, 127.2356
212.7215, 128.7319
213.2036, 130.4286
213.6857, 131.6269
214.1678, 132.2414
214.6499, 132.5978
215.1321, 132.5168
215.6142, 132.2154
216.0963, 132.6566
216.5784, 133.9827
217.0605, 135.7613
217.5426, 137.7921
218.0248, 140.1727
218.5069, 142.4287
218.9890, 144.3870
219.4711, 146.1824
219.9532, 148.6104
220.4353, 152.2067
220.9175, 155.5950
221.3996, 157.9674
221.8817, 159.1645
222.3638, 159.7014
222.8459, 159.5401
223.3280, 158.7375
223.8102, 157.5675
224.2923, 155.8294
224.7744, 154.0010
225.2565, 152.2667
225.7386, 150.2462
226.2208, 149.2284
226.7029, 149.3441
227.1850, 150.5553
227.6671, 152.7051
228.1492, 155.9895
228.6313, 159.9282
229.1135, 164.2981
229.5956, 169.4350
230.0777, 174.3232
230.5598, 178.8421
231.0419, 183.0653
231.5240, 187.4871
232.0062, 192.3530
232.4883, 197.0895
232.9704, 201.2559
233.4525, 204.2998
233.9346, 207.9805
234.4167, 212.5194
234.8989, 217.7898
235.3810, 223.1515
235.8631, 228.4731
236.3452, 234.1491
236.8273, 240.4830
237.3095, 247.6297
237.7916, 255.0408
238.2737, 262.6542
238.7558, 270.5312
239.2379, 279.0771
239.7200, 288.4336
240.2022, 298.2716
240.6843, 308.4746
241.1664, 318.9009
241.6485, 330.0603
242.1306, 342.3744
242.6127, 355.4859
243.0949, 367.6102
243.5770, 378.6556
244.0591, 388.9049
244.5412, 398.5710
245.0233, 408.5398
245.5054, 416.2133
245.9876, 421.8548
246.4697, 425.1005
246.9518, 424.9682
247.4339, 421.5650
247.9160, 414.6059
248.3981, 403.5196
248.8803, 386.0415
249.3624, 369.6336
249.8445, 354.3809
250.3266, 340.2814
250.8087, 327.2567
251.2909, 315.2604
251.7730, 304.5767
252.2551, 295.4072
252.7372, 287.5551
253.2193, 281.6141
253.7014, 278.1136
254.1836, 276.3284
254.6657, 274.7860
255.1478, 273.7926
255.6299, 272.5065
256.1120, 270.7873
256.5941, 269.1441
257.0763, 265.4192
257.5584, 259.2220
258.0405, 251.1519
258.5226, 242.4722
259.0047, 233.1193
259.4868, 223.1285
259.9690, 212.2272
260.4511, 199.8588
260.9332, 189.2201
261.4153, 180.6013
261.8974, 173.3250
262.3795, 166.3138
262.8617, 159.2221
263.3438, 153.0859
263.8259, 148.3380
264.3080, 145.1861
264.7901, 142.1026
265.2722, 139.0106
265.7544, 136.0771
266.2365, 133.6380
266.7186, 131.8225
267.2007, 130.1140
267.6829, 128.3106
268.1650, 126.3600
268.6471, 124.9345
269.1292, 124.1579
269.6113, 123.6698
270.0934, 123.0190
270.5756, 122.1460
271.0577, 121.3114
271.5398, 120.5654
272.0219, 119.9038
272.5040, 119.4307
272.9861, 119.2125
273.4683, 119.0506
273.9504, 118.6633
274.4325, 117.9680
274.9146, 117.5118
275.3967, 117.3925
275.8788, 117.6133
276.3610, 118.4490
276.8431, 120.1893
277.3252, 121.6415
277.8073, 121.5032
278.2894, 119.6362
278.7715, 117.7797
279.2537, 116.2344
279.7358, 114.9644
280.2179, 113.7932
280.7000, 112.7161
281.1821, 111.7476
281.6642, 110.8721
282.1464, 110.0893
282.6285, 109.4540
283.1106, 108.9460
283.5927, 108.6140
284.0748, 108.7253
284.5569, 109.3394
285.0391, 109.8504
285.5212, 109.6546
286.0033, 108.8354
286.4854, 108.3921
286.9675, 108.4557
287.4496, 108.9390
287.9318, 109.7343
288.4139, 110.8524
288.8960, 112.1048
289.3781, 113.4849
289.8602, 114.9497
290.3424, 116.2934
290.8245, 117.5100
291.3066, 118.5796
291.7887, 119.3671
292.2708, 119.9087
292.7530, 120.5052
293.2351, 121.3041
293.7172, 122.2850
294.1993, 123.3775
294.6814, 124.5956
295.1635, 125.8708
295.6457, 127.0808
296.1278, 128.2536
296.6099, 129.5010
297.0920, 130.8738
297.5741, 132.3352
298.0562, 133.7498
298.5384, 135.0891
299.0205, 136.5618
299.5026, 138.3974
299.9847, 140.5214
300.4668, 142.8014
300.9489, 145.0440
301.4311, 147.4478
301.9132, 150.3260
302.3953, 153.6877
302.8774, 157.1062
303.3595, 160.5062
303.8416, 163.7158
304.3238, 166.5416
304.8059, 169.0385
305.2880, 170.9358
305.7701, 172.1533
306.2522, 172.6122
306.7343, 171.7599
307.2165, 168.8794
307.6986, 164.5854
308.1807, 159.6042
308.6628, 153.8642
309.1449, 147.7709
309.6270, 141.2281
310.1092, 134.4077
310.5913, 128.0733
311.0734, 122.5376
311.5555, 117.6991
312.0376, 113.6033
312.5197, 110.3722
313.0019, 107.5489
313.4840, 104.7373
313.9661, 102.1049
314.4482, 99.96486
314.9304, 98.74743
315.4125, 97.84978
315.8946, 96.92821
316.3767, 95.91796
316.8588, 94.99674
317.3409, 94.20520
317.8231, 93.54671
318.3052, 93.02754
318.7873, 93.01221
319.2694, 92.81306
319.7515, 91.95264
320.2336, 90.33974
320.7158, 89.11080
321.1979, 88.89049
321.6800, 89.06538
322.1621, 89.08424
322.6442, 88.69406
323.1263, 88.28484
323.6085, 88.01964
324.0906, 87.87681
324.5727, 87.50100
325.0548, 86.61463
325.5369, 85.63006
326.0190, 84.79857
326.5012, 83.97843
326.9833, 83.50022
327.4654, 83.58398
327.9475, 84.08498
328.4296, 84.42088
328.9117, 84.52368
329.3939, 84.52024
329.8760, 84.44969
330.3581, 84.22819
330.8402, 84.09045
331.3223, 84.04768
331.8044, 84.08207
332.2866, 84.15868
332.7687, 84.26621
333.2508, 84.42544
333.7329, 84.62354
334.2150, 84.83210
334.6971, 85.23904
335.1793, 85.95154
335.6614, 86.76404
336.1435, 87.36674
336.6256, 87.63097
337.1077, 88.04904
337.5899, 88.76571
338.0720, 89.77517
338.5541, 90.76233
339.0362, 91.74236
339.5183, 92.69199
340.0005, 93.58077
340.4826, 94.41692
340.9647, 95.17280
341.4468, 95.75336
341.9289, 96.29564
342.4110, 97.33347
342.8932, 98.91568
343.3753, 100.6105
343.8574, 102.1522
344.3395, 103.5515
344.8216, 104.7772
345.3037, 105.7995
345.7859, 106.6953
346.2680, 107.5088
346.7501, 108.2601
347.2322, 109.1754
347.7143, 110.3891
348.1964, 111.8680
348.6786, 113.5844
349.1607, 115.5993
349.6428, 117.6071
350.1249, 119.1928
350.6070, 120.4893
351.0891, 121.9513
351.5713, 123.8642
352.0534, 125.9807
352.5355, 128.0533
353.0176, 130.0502
353.4997, 131.8400
353.9818, 133.3360
354.4640, 134.5447
354.9461, 135.5073
355.4282, 136.3136
355.9103, 136.7611
356.3924, 136.5436
356.8745, 135.7690
357.3567, 134.8750
357.8388, 134.5489
358.3209, 133.9704
358.8030, 132.2880
359.2851, 129.0233
359.7672, 125.5673
360.2494, 122.6285
360.7315, 120.0071
361.2136, 117.3806
361.6957, 114.5424
362.1779, 111.7063
362.6600, 108.9979
363.1421, 106.4456
363.6242, 103.8660
364.1063, 100.8706
364.5884, 97.94338
365.0706, 95.60451
365.5527, 94.24564
366.0348, 93.18473
366.5169, 92.32586
366.9990, 91.65972
367.4811, 91.10544
367.9633, 90.78037
368.4454, 90.47776
368.9275, 90.07901
369.4096, 89.41756
369.8917, 88.89004
370.3738, 88.52892
370.8560, 88.30416
371.3381, 88.12901
371.8202, 87.92708
372.3023, 87.87450
372.7844, 88.01778
373.2665, 88.32542
373.7487, 88.95684
374.2308, 89.97879
374.7129, 91.25804
375.1950, 92.70737
375.6771, 94.46467
376.1592, 95.95069
376.6414, 96.92969
377.1235, 97.46836
377.6056, 98.38226
378.0877, 99.83871
378.5698, 101.1511
379.0519, 101.5305
379.5341, 100.9661
380.0162, 100.8408
380.4983, 101.5001
380.9804, 102.5917
381.4625, 103.2936
381.9446, 103.6219
382.4268, 103.8762
382.9089, 104.1505
383.3910, 104.4905
383.8731, 105.0712
384.3553, 105.9171
384.8374, 106.9376
385.3195, 107.9815
385.8016, 109.0993
386.2837, 110.4676
386.7658, 112.2229
387.2480, 114.2234
387.7301, 116.3997
388.2122, 118.7325
388.6943, 121.0159
389.1764, 123.0355
389.6585, 124.9218
390.1407, 126.8359
390.6228, 129.0714
391.1049, 130.9888
391.5870, 132.1571
392.0691, 132.6495
392.5512, 132.6861
393.0334, 132.9983
393.5155, 132.4496
393.9976, 130.1184
394.4797, 125.4576
394.9618, 120.4925
395.4439, 115.3477
395.9261, 110.4138
396.4082, 106.2275
396.8903, 103.0205
397.3724, 100.4007
397.8545, 98.34753
398.3366, 96.87190
398.8188, 95.52094
399.3009, 93.95689
399.7830, 92.71526
400.2651, 92.16839
400.7472, 93.06850
401.2293, 93.51299
401.7115, 93.10873
402.1936, 92.21559
402.6757, 91.96623
403.1578, 92.68737
403.6399, 93.49186
404.1220, 93.97750
404.6042, 94.06284
405.0863, 94.31186
405.5684, 94.72346
406.0505, 95.29407
406.5326, 95.99632
407.0147, 96.81998
407.4969, 97.90561
407.9790, 99.39758
408.4611, 101.1645
408.9432, 102.6042
409.4254, 103.6721
409.9075, 104.8133
410.3896, 106.5373
410.8717, 108.6855
411.3538, 110.5438
411.8359, 111.9596
412.3181, 113.1260
412.8002, 114.3078
413.2823, 115.4561
413.7644, 116.4649
414.2465, 117.1544
414.7286, 117.7178
415.2108, 118.4421
415.6929, 119.3374
416.1750, 120.2474
416.6571, 120.9927
417.1392, 121.6902
417.6213, 122.5164
418.1035, 123.3833
418.5856, 124.5415
419.0677, 126.1662
419.5498, 128.2153
420.0319, 130.4675
420.5140, 133.0061
420.9962, 135.6255
421.4783, 138.1427
421.9604, 140.3274
422.4425, 142.9484
422.9246, 146.2934
423.4067, 150.1046
423.8889, 154.0784
424.3710, 158.5489
424.8531, 162.7696
425.3352, 166.4210
425.8173, 169.5011
426.2994, 172.8051
426.7816, 177.0689
427.2637, 180.7797
427.7458, 183.0374
428.2279, 183.9714
428.7100, 183.1063
429.1921, 180.1673
429.6743, 175.5904
430.1564, 170.4170
430.6385, 164.6476
431.1206, 158.2654
431.6028, 150.9583
432.0849, 142.7417
432.5670, 135.3967
433.0491, 128.8820
433.5312, 123.3310
434.0133, 119.0918
434.4955, 116.0086
434.9776, 112.9882
435.4597, 109.6267
435.9418, 106.3622
436.4239, 104.1469
436.9060, 102.8845
437.3882, 101.8291
437.8703, 100.4989
438.3524, 99.09229
438.8345, 97.87655
439.3166, 96.87731
439.7987, 96.08006
440.2809, 95.51891
440.7630, 95.14098
441.2451, 94.86961
441.7272, 94.66816
442.2093, 94.56860
442.6914, 94.53471
443.1736, 94.59128
443.6557, 94.89782
444.1378, 95.59039
444.6199, 96.50276
445.1020, 97.53752
445.5841, 98.71426
446.0663, 99.94170
446.5484, 101.1482
447.0305, 102.4117
447.5126, 103.8765
447.9947, 105.7446
448.4768, 107.5447
448.9590, 109.1356
449.4411, 110.5030
449.9232, 112.0101
450.4053, 113.6939
450.8874, 115.4825
451.3695, 117.2468
451.8517, 118.8989
452.3338, 120.9969
452.8159, 123.6999
453.2980, 126.7139
453.7801, 129.4125
454.2622, 131.7355
454.7444, 134.2878
455.2265, 137.3264
455.7086, 140.8136
456.1907, 144.4634
456.6729, 148.3218
457.1550, 152.3425
457.6371, 156.7940
458.1192, 161.4329
458.6013, 165.7775
459.0834, 169.6079
459.5656, 173.2085
460.0477, 176.7783
460.5298, 180.3477
461.0119, 183.8176
461.4940, 187.4724
461.9761, 190.8715
462.4583, 193.8359
462.9404, 196.4142
463.4225, 197.9973
463.9046, 197.9383
464.3867, 196.9326
464.8688, 195.6416
465.3510, 194.3317
465.8331, 192.6243
466.3152, 190.0424
466.7973, 186.9255
467.2794, 184.5052
467.7615, 182.9686
468.2437, 181.9981
468.7258, 181.5176
469.2079, 181.5602
469.6900, 182.0048
470.1721, 183.1577
470.6542, 184.3715
471.1364, 185.1848
471.6185, 185.8780
472.1006, 185.0095
472.5827, 182.1416
473.0648, 177.6660
473.5469, 172.5137
474.0291, 166.6243
474.5112, 160.7776
474.9933, 155.2790
475.4754, 150.1694
475.9575, 145.5685
476.4396, 141.4571
476.9218, 138.0217
477.4039, 135.7111
477.8860, 134.2501
478.3681, 133.0217
478.8503, 131.7505
479.3324, 130.7289
479.8145, 130.1796
480.2966, 130.1074
480.7787, 130.5327
481.2608, 131.6985
481.7430, 133.1940
482.2251, 134.6929
482.7072, 136.1009
483.1893, 137.8469
483.6714, 139.9893
484.1535, 142.5890
484.6357, 145.7001
485.1178, 149.2299
485.5999, 153.4101
486.0820, 158.2957
486.5641, 163.8387
487.0462, 170.0328
487.5284, 176.4798
488.0105, 184.1269
488.4926, 193.4276
488.9747, 204.3447
489.4568, 216.6086
489.9389, 229.9891
490.4211, 244.9594
490.9032, 261.9662
491.3853, 281.1405
491.8674, 301.4139
492.3495, 322.5444
492.8316, 344.4848
493.3138, 367.5758
493.7959, 391.7559
494.2780, 415.3468
494.7601, 437.3163
495.2422, 457.9276
495.7243, 476.8589
496.2065, 494.2913
496.6886, 511.0915
497.1707, 527.8682
497.6528, 544.9017
498.1349, 562.5167
498.6170, 580.4536
499.0992, 599.7487
499.5813, 621.4012
500.0634, 644.9907
500.5455, 669.6826
501.0276, 694.1932
501.5097, 720.5353
501.9919, 750.1186
502.4740, 783.2458
502.9561, 816.9286
503.4382, 851.7952
503.9203, 886.9177
504.4025, 922.1390
504.8846, 958.3321
505.3667, 992.2144
505.8488, 1024.464
506.3309, 1053.504
506.8130, 1077.169
507.2952, 1096.736
507.7773, 1105.406
508.2594, 1101.550
508.7415, 1084.742
509.2236, 1050.302
509.7057, 997.6506
510.1879, 935.1552
510.6700, 865.0452
511.1521, 789.9955
511.6342, 715.9037
512.1163, 643.4463
512.5984, 575.6287
513.0806, 515.2473
513.5627, 462.1242
514.0448, 415.8990
514.5269, 378.0260
515.0090, 345.6540
515.4911, 317.6446
515.9733, 293.6595
516.4554, 272.5979
516.9375, 254.2821
517.4196, 238.2995
517.9017, 224.5691
518.3839, 213.6130
518.8660, 203.5384
519.3481, 194.3197
519.8302, 185.8737
520.3123, 178.2878
520.7944, 171.4535
521.2766, 165.6101
521.7587, 160.9604
522.2408, 157.3274
522.7229, 153.9359
523.2050, 150.8543
523.6871, 147.7707
524.1693, 144.3743
524.6514, 140.7750
525.1335, 137.6513
525.6156, 135.0104
526.0977, 132.7385
526.5798, 130.7835
527.0620, 129.0746
527.5441, 127.4781
528.0262, 126.0743
528.5083, 124.5397
528.9904, 122.3083
529.4725, 119.6736
529.9547, 117.3689
530.4368, 116.1074
530.9189, 115.0304
531.4010, 113.5471
531.8831, 111.6265
532.3652, 109.8859
532.8474, 108.4279
533.3295, 107.2508
533.8116, 106.3518
534.2937, 105.9282
534.7758, 105.4685
535.2579, 104.9013
535.7401, 104.3234
536.2222, 103.8774
536.7043, 103.5336
537.1865, 103.3827
537.6686, 103.4655
538.1507, 103.7553
538.6328, 104.0897
539.1149, 104.4471
539.5970, 105.0173
540.0792, 106.0744
540.5613, 107.4846
541.0434, 108.4952
541.5255, 109.0464
542.0076, 109.5156
542.4897, 110.0663
542.9719, 110.8358
543.4540, 112.2020
543.9361, 114.6526
544.4182, 117.0122
544.9003, 118.1451
545.3824, 118.4662
545.8646, 118.8991
546.3467, 119.7199
546.8288, 120.8208
547.3109, 122.1923
547.7930, 123.8227
548.2751, 125.5727
548.7573, 127.3785
549.2394, 129.3359
549.7215, 131.5405
550.2036, 134.3002
550.6857, 136.6152
551.1678, 138.4399
551.6500, 139.8756
552.1321, 141.0617
552.6142, 142.0311
553.0963, 142.6176
553.5784, 142.8445
554.0605, 142.6145
554.5427, 141.6750
555.0248, 140.0314
555.5069, 137.7522
555.9890, 134.7984
556.4711, 131.2841
556.9532, 127.2459
557.4354, 122.6901
557.9175, 118.2099
558.3996, 114.2355
558.8817, 110.6271
559.3638, 107.2383
559.8459, 104.0489
560.3281, 101.1130
560.8102, 98.45861
561.2923, 96.09624
561.7744, 94.06327
562.2565, 92.57508
562.7386, 91.19167
563.2208, 89.73888
563.7029, 88.27715
564.1850, 87.16586
564.6671, 86.55920
565.1492, 86.04886
565.6313, 85.41182
566.1135, 84.63004
566.5956, 84.07755
567.0777, 83.81184
567.5598, 83.58467
568.0419, 83.04945
568.5240, 82.29300
569.0062, 81.75131
569.4883, 81.54727
569.9704, 81.51012
570.4525, 81.51637
570.9346, 81.52644
571.4167, 81.43952
571.8989, 80.95884
572.3810, 80.57079
572.8631, 80.75448
573.3452, 81.41096
573.8273, 81.86705
574.3094, 81.58334
574.7916, 81.25355
575.2737, 81.25276
575.7558, 81.69161
576.2379, 82.22915
576.7200, 82.99364
577.2021, 83.73301
577.6843, 84.17931
578.1664, 84.13988
578.6485, 84.38438
579.1306, 85.04888
579.6127, 85.97731
580.0948, 86.94396
580.5770, 87.94543
581.0591, 88.80009
581.5412, 89.34531
582.0233, 89.73770
582.5054, 90.30218
582.9875, 91.02336
583.4697, 91.84991
583.9518, 92.74474
584.4340, 93.71854
584.9161, 94.79124
585.3982, 95.96953
585.8803, 97.20598
586.3624, 98.64314
586.8445, 100.0438
587.3267, 101.1868
587.8088, 101.7204
588.2909, 102.3884
588.7730, 103.2894
589.2551, 104.3715
589.7372, 105.5787
590.2194, 107.0244
590.7015, 108.3751
591.1836, 109.5284
591.6657, 110.5153
592.1478, 111.5801
592.6299, 112.7794
593.1121, 113.5635
593.5942, 113.5175
594.0763, 112.7759
594.5584, 111.7653
595.0405, 110.5009
595.5226, 109.1227
596.0048, 107.8030
596.4869, 106.4397
596.9690, 104.8513
597.4511, 102.9587
597.9332, 100.9458
598.4153, 98.64098
598.8975, 96.36901
599.3796, 94.53819
599.8617, 93.35368
600.3438, 92.51264
600.8259, 92.12431
601.3080, 92.06306
601.7902, 91.84114
602.2723, 91.27321
602.7544, 90.85746
603.2365, 90.79539
603.7186, 91.08057
604.2007, 91.46681
604.6829, 91.99958
605.1650, 92.39010
605.6471, 92.22115
606.1292, 91.66736
606.6113, 91.49844
607.0934, 91.83309
607.5756, 92.35226
608.0577, 92.74687
608.5398, 93.09769
609.0219, 93.53652
609.5040, 94.16068
609.9861, 94.81700
610.4683, 95.43157
610.9504, 96.01694
611.4325, 96.60889
611.9146, 97.02054
612.3967, 97.63950
612.8788, 98.77772
613.3610, 100.3516
613.8431, 101.4364
614.3252, 101.8157
614.8073, 102.0627
615.2894, 102.5910
615.7715, 103.4497
616.2537, 103.5386
616.7358, 102.7876
617.2179, 101.6039
617.7000, 100.3434
618.1821, 98.98135
618.6642, 97.44517
619.1464, 95.66381
619.6285, 93.82481
620.1106, 92.09097
620.5927, 90.42943
621.0748, 88.79118
621.5569, 87.11680
622.0391, 85.47987
622.5212, 83.76348
623.0033, 82.08070
623.4854, 80.77493
623.9675, 80.11248
624.4496, 79.63879
624.9318, 79.30580
625.4139, 79.10811
625.8960, 78.66910
626.3781, 77.89054
626.8602, 77.11124
627.3423, 76.54079
627.8245, 76.17475
628.3066, 75.88609
628.7887, 75.68620
629.2708, 75.46577
629.7529, 75.05244
630.2350, 74.53722
630.7172, 74.12907
631.1993, 73.89871
631.6815, 73.71033
632.1636, 73.44712
632.6457, 73.15352
633.1278, 72.89649
633.6099, 72.66151
634.0920, 72.50667
634.5742, 72.59221
635.0563, 72.79772
635.5384, 72.64243
636.0205, 71.64829
636.5026, 70.98006
636.9847, 71.12267
637.4669, 72.00567
637.9490, 72.46509
638.4311, 72.43992
638.9132, 72.28936
639.3953, 72.19909
639.8774, 72.17848
640.3596, 72.33859
640.8417, 72.70242
641.3238, 72.97079
641.8059, 72.71381
642.2880, 72.23354
642.7701, 71.98087
643.2523, 72.13132
643.7344, 72.29649
644.2165, 72.27892
644.6986, 72.15791
645.1807, 72.03928
645.6628, 71.78394
646.1450, 71.73876
646.6271, 72.06495
647.1092, 72.60210
647.5913, 72.93764
648.0734, 73.03735
648.5555, 73.03400
649.0377, 72.93896
649.5198, 72.77966
650.0019, 72.64503
650.4840, 72.53413
650.9661, 72.54890
651.4482, 72.83702
651.9304, 73.26591
652.4125, 73.65253
652.8946, 73.98478
653.3767, 74.16700
653.8588, 74.01225
654.3409, 73.75659
654.8231, 73.55333
655.3052, 73.33971
655.7873, 73.44714
656.2694, 74.35971
656.7515, 75.39638
657.2336, 75.86922
657.7158, 75.37919
658.1979, 75.21055
658.6800, 75.55655
659.1621, 76.15318
659.6442, 76.53306
660.1263, 76.69134
660.6085, 76.86264
661.0906, 77.10418
661.5727, 77.41121
662.0548, 77.76038
662.5369, 78.16630
663.0190, 78.68569
663.5012, 79.40884
663.9833, 80.21140
664.4654, 81.02479
664.9475, 81.83693
665.4296, 82.62730
665.9117, 83.25555
666.3939, 83.97652
666.8760, 84.94775
667.3581, 86.21130
667.8402, 87.44144
668.3223, 88.54607
668.8044, 89.78296
669.2866, 91.41175
669.7687, 93.46355
670.2508, 95.27206
670.7329, 96.78072
671.2150, 98.15776
671.6971, 99.58530
672.1793, 101.0533
672.6614, 102.4836
673.1435, 103.8092
673.6256, 105.2570
674.1077, 107.2221
674.5898, 109.3982
675.0720, 111.2854
675.5541, 112.2102
676.0362, 113.4352
676.5183, 115.4917
677.0004, 118.0858
677.4825, 120.4235
677.9647, 122.3278
678.4468, 124.2939
678.9290, 126.5610
679.4111, 128.9798
679.8932, 130.9149
680.3753, 132.3445
680.8574, 133.5083
681.3395, 134.5832
681.8217, 135.4818
682.3038, 136.1190
682.7859, 136.4680
683.2680, 136.1584
683.7501, 134.8921
684.2322, 132.8946
684.7144, 130.2155
685.1965, 126.8050
685.6786, 123.2250
686.1607, 119.4472
686.6428, 115.7135
687.1249, 112.1367
687.6071, 108.6450
688.0892, 105.5473
688.5713, 102.9138
689.0534, 100.5644
689.5355, 98.23804
690.0176, 95.93217
690.4998, 94.03928
690.9819, 92.66769
691.4640, 91.62652
691.9461, 90.84757
692.4282, 90.22025
692.9103, 89.49477
693.3925, 88.29845
693.8746, 87.30508
694.3567, 87.11416
694.8388, 87.42067
695.3209, 87.50841
695.8030, 87.04837
696.2852, 86.52750
696.7673, 85.99770
697.2494, 85.48469
697.7315, 85.15433
698.2136, 85.03130
698.6957, 85.01006
699.1779, 85.05385
699.6600, 85.16271
700.1421, 85.37011
700.6242, 85.67037
701.1063, 85.93000
701.5884, 85.94884
702.0706, 85.93153
702.5527, 86.19721
703.0348, 86.76577
703.5169, 87.23120
703.9990, 87.18838
704.4811, 87.11159
704.9633, 87.33365
705.4454, 87.98783
705.9275, 88.67534
706.4096, 89.37464
706.8917, 90.12695
707.3738, 90.96561
707.8560, 91.87301
708.3381, 92.93071
708.8202, 94.18513
709.3023, 95.44925
709.7844, 96.37986
710.2665, 97.12244
710.7487, 98.18401
711.2308, 99.85964
711.7129, 101.4247
712.1950, 102.3955
712.6771, 102.8719
713.1592, 103.0053
713.6414, 102.4735
714.1235, 102.0252
714.6056, 101.9286
715.0877, 102.0052
715.5698, 101.9200
716.0519, 101.6668
716.5341, 101.2663
717.0162, 100.7206
717.4983, 100.0342
717.9804, 99.07526
718.4625, 97.87944
718.9446, 97.06638
719.4268, 97.24385
719.9089, 97.76527
720.3910, 97.70496
720.8731, 97.20855
721.3552, 96.89236
721.8373, 97.24809
722.3195, 97.70809
722.8016, 97.98622
723.2837, 98.06104
723.7658, 98.10143
724.2479, 98.10420
724.7300, 98.09455
725.2122, 98.11290
725.6943, 98.16225
726.1765, 98.00179
726.6586, 97.60156
727.1407, 97.16647
727.6228, 97.00923
728.1049, 96.90731
728.5870, 96.24528
729.0692, 94.96197
729.5513, 93.65189
730.0334, 92.72454
730.5155, 91.97487
730.9976, 91.20096
731.4797, 90.25784
731.9619, 89.61874
732.4440, 89.32590
732.9261, 89.40416
733.4082, 89.95363
733.8903, 91.16069
734.3724, 92.18111
734.8546, 92.89574
735.3367, 93.58559
735.8188, 94.50585
736.3009, 95.68652
736.7830, 97.34756
737.2651, 99.65923
737.7473, 102.0527
738.2294, 104.0165
738.7115, 105.6577
739.1936, 107.1073
739.6757, 107.9122
740.1578, 109.1647
740.6400, 111.5068
741.1221, 114.3890
741.6042, 116.8744
742.0863, 118.7715
742.5684, 120.6709
743.0505, 122.5845
743.5327, 124.6552
744.0148, 127.3331
744.4969, 130.5497
744.9790, 133.7038
745.4611, 136.5194
745.9432, 139.2384
746.4254, 142.2026
746.9075, 145.3398
747.3896, 148.4327
747.8717, 151.5357
748.3538, 154.4265
748.8359, 157.2533
749.3181, 159.8724
749.8002, 161.5702
750.2823, 162.0439
750.7644, 162.1851
751.2465, 162.5574
751.7286, 162.7792
752.2108, 160.8161
752.6929, 156.6400
753.1750, 151.6353
753.6571, 146.2308
754.1392, 140.6794
754.6213, 135.3561
755.1035, 130.2250
755.5856, 125.3666
756.0677, 120.4384
756.5498, 116.0616
757.0319, 112.8546
757.5140, 110.8952
757.9962, 108.2398
758.4783, 104.1539
758.9604, 100.2661
759.4425, 97.26797
759.9246, 95.16745
760.4067, 93.35702
760.8889, 91.85416
761.3710, 90.56939
761.8531, 89.55315
762.3352, 88.67276
762.8173, 87.62674
763.2994, 86.41395
763.7816, 85.31721
764.2637, 84.35523
764.7458, 83.70274
765.2279, 83.69057
765.7100, 84.61683
766.1921, 84.74758
766.6743, 83.59705
767.1564, 82.14035
767.6385, 80.92738
768.1206, 79.94786
768.6027, 79.26173
769.0848, 78.90141
769.5670, 78.63113
770.0491, 78.18473
770.5312, 77.67786
771.0133, 77.38097
771.4954, 77.34489
771.9775, 77.28408
772.4597, 76.98178
772.9418, 76.59750
773.4240, 76.23241
773.9061, 75.79694
774.3882, 75.69093
774.8703, 76.20357
775.3524, 76.72754
775.8345, 76.68753
776.3167, 76.02341
776.7988, 75.56269
777.2809, 75.38620
777.7630, 75.27839
778.2451, 75.00149
778.7272, 74.62617
779.2094, 74.28989
779.6915, 74.02573
780.1736, 73.78268
780.6557, 73.31802
781.1378, 72.97569
781.6199, 73.12387
782.1021, 74.48917
782.5842, 75.17871
783.0663, 74.89084
783.5484, 74.26057
784.0305, 74.05434
784.5126, 74.29585
784.9948, 74.07034
785.4769, 73.18649
785.9590, 72.21978
786.4411, 71.86343
786.9232, 71.89889
787.4053, 71.93700
787.8875, 71.89724
788.3696, 71.81123
788.8517, 71.68362
789.3338, 71.52325
789.8159, 71.33065
790.2980, 71.00035
790.7802, 70.84880
791.2623, 70.97844
791.7444, 71.16639
792.2265, 71.09390
792.7086, 70.77675
793.1907, 70.50436
793.6729, 70.33174
794.1550, 70.17429
794.6371, 69.82353
795.1192, 69.45238
795.6013, 69.36704
796.0834, 69.82825
796.5656, 70.22507
797.0477, 70.33995
797.5298, 70.27290
798.0119, 70.13663
798.4940, 69.82423
798.9761, 69.72679
799.4583, 69.96080
799.9404, 70.25754
800.4225, 70.19925
800.9046, 69.85233
801.3867, 69.61568
801.8688, 69.57676
802.3510, 69.63787
802.8331, 69.77766
803.3152, 69.93230
803.7973, 70.00594
804.2794, 69.89439
804.7615, 69.83384
805.2437, 69.97535
805.7258, 70.13289
806.2079, 70.07291
806.6900, 69.69069
807.1721, 69.52073
807.6542, 69.65458
808.1364, 69.91148
808.6185, 70.06182
809.1006, 70.13804
809.5827, 70.26633
810.0648, 70.52801
810.5469, 70.66297
811.0291, 70.31120
811.5112, 69.79925
811.9933, 69.51022
812.4754, 69.80274
812.9575, 69.86546
813.4396, 69.47531
813.9218, 69.02559
814.4039, 69.00341
814.8860, 69.43967
815.3681, 69.81631
815.8502, 70.08363
816.3323, 70.25985
816.8145, 70.38692
817.2966, 70.43260
817.7787, 70.28242
818.2608, 69.79362
818.7429, 69.50871
819.2251, 69.86610
819.7072, 70.45181
820.1893, 70.86781
820.6714, 71.11855
821.1536, 71.14116
821.6357, 70.89312
822.1178, 70.49033
822.5999, 69.96799
823.0820, 69.37038
823.5641, 69.00134
824.0463, 68.89913
824.5284, 68.97327
825.0105, 69.26881
825.4926, 69.62998
825.9747, 69.88930
826.4568, 70.03061
826.9390, 70.01582
827.4211, 69.63992
827.9032, 69.25813
828.3853, 69.11842
828.8674, 69.28107
829.3495, 69.41158
829.8317, 69.51186
830.3138, 69.55895
830.7959, 69.51066
831.2780, 69.39680
831.7601, 69.26291
832.2422, 69.11311
832.7244, 69.00373
833.2065, 69.02225
833.6886, 69.06107
834.1707, 69.01151
834.6528, 68.80408
835.1349, 68.78919
835.6171, 69.06176
836.0992, 69.36626
836.5813, 69.52918
837.0634, 69.56037
837.5455, 69.61937
838.0276, 69.70799
838.5098, 69.76250
838.9919, 69.68470
839.4740, 69.57764
839.9561, 69.57435
840.4382, 69.68015
840.9203, 69.73827
841.4025, 69.70358
841.8846, 69.59402
842.3667, 69.35268
842.8488, 68.98770
843.3309, 68.99369
843.8130, 69.44245
844.2952, 69.86338
844.7773, 69.96311
845.2594, 69.84495
845.7415, 69.69163
846.2236, 69.51981
846.7057, 69.42128
847.1879, 69.46207
847.6700, 69.57764
848.1521, 69.80959
848.6342, 70.11925
849.1163, 70.21860
849.5984, 70.03471
850.0806, 69.76732
850.5627, 69.44439
851.0448, 69.10539
851.5269, 68.85287
852.0090, 68.69484
852.4911, 68.70536
852.9733, 69.06768
853.4554, 69.47158
853.9375, 69.60210
854.4196, 69.55333
854.9017, 69.55827
855.3839, 69.88472
855.8660, 70.01085
856.3481, 69.74362
856.8302, 69.26779
857.3123, 68.97302
857.7944, 68.86204
858.2766, 68.88277
858.7587, 69.04934
859.2408, 69.28182
859.7229, 69.50923
860.2050, 69.70847
860.6871, 69.82178
861.1693, 69.76586
861.6514, 69.72575
862.1335, 69.85832
862.6156, 70.00374
863.0977, 69.94778
863.5798, 69.62319
864.0620, 69.25375
864.5441, 68.78992
865.0262, 68.43830
865.5083, 68.55809
865.9904, 68.99996
866.4726, 69.29869
866.9547, 69.36150
867.4368, 69.35117
867.9189, 69.35205
868.4011, 69.35293
868.8832, 69.34753
869.3653, 69.35068
869.8474, 69.29378
870.3295, 69.13695
870.8116, 68.98547
871.2938, 68.91833
871.7759, 68.93288
872.2580, 69.03019
872.7401, 69.21267
873.2222, 69.32925
873.7043, 69.15092
874.1865, 68.92093
874.6686, 68.92200
875.1507, 69.17847
875.6328, 69.32955
876.1149, 69.11165
876.5970, 68.96817
877.0792, 69.13940
877.5613, 69.56654
878.0434, 69.55294
878.5255, 69.07727
879.0076, 68.72339
879.4897, 69.06926
879.9719, 69.58689
880.4540, 69.32496
880.9361, 68.55183
881.4182, 68.19409
881.9003, 69.28780
882.3824, 70.13769
882.8646, 69.94948
883.3467, 69.12450
883.8288, 68.62691
884.3109, 68.46392
884.7930, 68.61565
885.2751, 69.20456
885.7573, 69.86741
886.2394, 69.96074
886.7215, 69.64523
887.2036, 69.29965
887.6857, 68.94875
888.1678, 68.77053
888.6500, 69.07401
889.1321, 69.49232
889.6142, 69.50312
890.0963, 68.82039
890.5784, 68.53467
891.0605, 68.83202
891.5427, 69.24134
892.0248, 69.12072
892.5069, 68.67153
892.9890, 68.53067
893.4711, 68.81773
893.9532, 69.12334
894.4354, 69.21827
894.9175, 69.17965
895.3996, 69.02921
895.8817, 68.71258
896.3638, 68.57616
896.8459, 68.67100
897.3281, 68.84139
897.8102, 69.03381
898.2923, 69.22595
898.7744, 69.18124
899.2565, 68.93842
899.7386, 68.92103
900.2208, 69.84135
900.7029, 70.71516
901.1850, 70.66951
901.6671, 69.82172
902.1492, 69.22690
902.6313, 69.04078
903.1135, 69.05344
903.5956, 69.26768
904.0777, 69.60473
904.5598, 69.85036
905.0419, 70.01415
905.5240, 70.17898
906.0062, 70.39024
906.4883, 70.59260
906.9704, 70.77402
907.4525, 70.90317
907.9346, 70.93043
908.4167, 70.44739
908.8989, 70.47169
909.3810, 71.37334
909.8631, 72.44092
910.3452, 72.69021
910.8273, 72.18340
911.3094, 71.87581
911.7916, 71.89567
912.2737, 72.00460
912.7558, 72.03207
913.2380, 72.00066
913.7201, 71.88761
914.2022, 71.63716
914.6843, 71.62119
915.1664, 72.10524
915.6486, 72.56651
916.1307, 72.69235
916.6128, 72.51024
917.0949, 72.49355
917.5770, 72.64229
918.0591, 72.83715
918.5413, 73.05882
919.0234, 73.24664
919.5055, 73.31550
919.9876, 73.28734
920.4697, 73.26334
920.9518, 73.25697
921.4340, 73.26598
921.9161, 73.22124
922.3982, 73.22887
922.8803, 73.63408
923.3624, 74.41901
923.8445, 75.13168
924.3267, 75.66669
924.8088, 76.02340
925.2909, 76.07186
925.7730, 75.99397
926.2551, 76.06125
926.7372, 76.41392
927.2194, 76.79442
927.7015, 77.16595
928.1836, 77.56422
928.6657, 78.03829
929.1478, 78.58726
929.6299, 79.06139
930.1121, 79.44492
930.5942, 79.85036
931.0763, 80.37366
931.5584, 80.96877
932.0405, 81.58576
932.5226, 82.21117
933.0048, 82.93635
933.4869, 83.96445
933.9690, 84.85268
934.4511, 85.36645
934.9332, 85.61480
935.4153, 86.10856
935.8975, 86.84755
936.3796, 87.77202
936.8617, 89.03256
937.3438, 90.25734
937.8259, 90.93226
938.3080, 91.31344
938.7902, 91.89686
939.2723, 93.11080
939.7544, 94.13992
940.2365, 94.85680
940.7186, 95.39671
941.2007, 95.86018
941.6829, 96.26729
942.1650, 96.91715
942.6471, 97.89764
943.1292, 98.78716
943.6113, 99.19141
944.0934, 99.32193
944.5756, 99.33420
945.0577, 99.19689
945.5398, 99.29881
946.0219, 99.84686
946.5040, 100.3334
946.9861, 100.4918
947.4683, 100.3650
947.9504, 100.1086
948.4325, 99.75253
948.9146, 99.56746
949.3967, 99.97041
949.8788, 100.3645
950.3610, 100.2528
950.8431, 99.77589
951.3252, 99.35751
951.8073, 98.98669
952.2894, 98.80178
952.7715, 98.90750
953.2537, 99.07677
953.7358, 98.80020
954.2179, 98.23897
954.7000, 98.04337
955.1821, 98.37050
955.6642, 98.97803
956.1464, 99.75780
956.6285, 100.7011
957.1106, 101.8308
957.5927, 103.1779
958.0748, 104.5208
958.5569, 105.7711
959.0391, 107.2712
959.5212, 109.4903
960.0033, 112.0919
960.4855, 113.8739
960.9676, 115.0094
961.4497, 116.4352
961.9318, 118.9832
962.4139, 121.6329
962.8961, 123.7995
963.3782, 125.6636
963.8603, 127.7785
964.3424, 130.1732
964.8245, 132.6075
965.3066, 135.0153
965.7888, 137.5231
966.2709, 140.3326
966.7530, 143.3930
967.2351, 146.5745
967.7172, 149.9364
968.1993, 153.2086
968.6815, 156.4619
969.1636, 159.4696
969.6457, 162.1513
970.1278, 164.5013
970.6099, 166.5054
971.0920, 168.1905
971.5742, 169.0900
972.0563, 168.5899
972.5384, 167.2894
973.0205, 165.8129
973.5026, 164.1847
973.9847, 162.4138
974.4669, 160.1120
974.9490, 158.1558
975.4311, 156.5608
975.9132, 155.5149
976.3953, 155.5751
976.8774, 156.6720
977.3596, 157.6508
977.8417, 158.1444
978.3238, 158.9238
978.8059, 160.7354
979.2880, 163.2073
979.7701, 165.9362
980.2523, 168.8131
980.7344, 172.1570
981.2165, 176.0355
981.6986, 180.3325
982.1807, 185.2532
982.6628, 190.5706
983.1450, 195.4629
983.6271, 199.8746
984.1092, 203.4672
984.5913, 206.7183
985.0734, 208.4046
985.5555, 207.8313
986.0377, 205.0879
986.5198, 200.7475
987.0019, 194.4988
987.4840, 187.5724
987.9661, 179.9132
988.4482, 172.3108
988.9304, 165.8261
989.4125, 160.2603
989.8946, 155.2717
990.3767, 150.7734
990.8588, 147.0425
991.3409, 144.4473
991.8231, 142.4650
992.3052, 140.7844
992.7873, 139.4300
993.2694, 138.4462
993.7515, 137.8436
994.2336, 137.2795
994.7158, 136.3665
995.1979, 135.5700
995.6800, 135.9007
996.1621, 136.7226
996.6442, 136.5562
997.1263, 134.0586
997.6085, 131.8327
998.0906, 130.2125
998.5727, 128.8409
999.0548, 127.1974
999.5369, 125.3435
1000.019, 123.6217
1000.501, 122.0538
1000.983, 120.9714
1001.465, 120.9344
1001.948, 121.2131
1002.430, 121.2627
1002.912, 121.0448
1003.394, 120.8554
1003.876, 120.5568
1004.358, 120.7592
1004.840, 121.8229
1005.322, 123.3774
1005.804, 124.8288
1006.287, 126.1845
1006.769, 127.4960
1007.251, 128.7047
1007.733, 129.9691
1008.215, 131.3521
1008.697, 132.8260
1009.179, 134.4330
1009.661, 136.1924
1010.144, 137.7566
1010.626, 139.1250
1011.108, 140.3934
1011.590, 141.7623
1012.072, 143.0020
1012.554, 144.0375
1013.036, 144.7945
1013.518, 144.8145
1014.000, 143.7391
1014.483, 142.4828
1014.965, 141.3179
1015.447, 140.0182
1015.929, 138.1226
1016.411, 135.6713
1016.893, 132.7471
1017.375, 129.2168
1017.857, 125.6737
1018.340, 122.5450
1018.822, 119.5136
1019.304, 116.1958
1019.786, 112.4989
1020.268, 109.2274
1020.750, 106.3963
1021.232, 103.8875
1021.714, 101.6643
1022.196, 99.68709
1022.679, 97.97226
1023.161, 96.47185
1023.643, 95.07088
1024.125, 93.79263
1024.607, 92.52339
1025.089, 91.17412
1025.571, 89.90121
1026.053, 88.95857
1026.536, 88.32388
1027.018, 87.67423
1027.500, 86.96696
1027.982, 86.36060
1028.464, 86.11979
1028.946, 85.91476
1029.428, 85.43841
1029.910, 84.67803
1030.392, 84.16288
1030.875, 84.00532
1031.357, 83.63713
1031.839, 82.72973
1032.321, 81.68278
1032.803, 81.22298
1033.285, 81.17410
1033.767, 81.19569
1034.249, 81.28871
1034.732, 81.22743
1035.214, 80.94753
1035.696, 80.50308
1036.178, 79.79685
1036.660, 78.84190
1037.142, 78.52459
1037.624, 78.82818
1038.106, 79.09630
1038.589, 78.80835
1039.071, 78.39204
1039.553, 78.09251
1040.035, 77.93324
1040.517, 77.94097
1040.999, 78.13474
1041.481, 78.43347
1041.963, 78.84208
1042.445, 79.31472
1042.927, 79.84067
1043.410, 80.37753
1043.892, 80.78035
1044.374, 81.00343
1044.856, 81.46701
1045.338, 82.47610
1045.820, 83.62400
1046.302, 84.76871
1046.784, 85.89295
1047.267, 86.89185
1047.749, 87.78008
1048.231, 88.64083
1048.713, 89.47261
1049.195, 90.33149
1049.677, 91.29591
1050.159, 92.30695
1050.641, 93.28963
1051.124, 94.23741
1051.606, 95.18716
1052.088, 96.17444
1052.570, 97.04495
1053.052, 97.63039
1053.534, 98.05987
1054.016, 98.70679
1054.498, 99.46487
1054.980, 99.81580
1055.463, 99.34194
1055.945, 98.68291
1056.427, 97.98201
1056.909, 97.21568
1057.391, 96.32954
1057.873, 95.33601
1058.355, 94.34250
1058.837, 93.36695
1059.319, 92.36226
1059.802, 91.30305
1060.284, 90.21986
1060.766, 89.16573
1061.248, 88.13295
1061.730, 86.93647
1062.212, 85.51781
1062.694, 84.23376
1063.176, 83.21722
1063.659, 82.41911
1064.141, 81.91675
1064.623, 81.52756
1065.105, 80.91709
1065.587, 79.81805
1066.069, 78.91545
1066.551, 78.30761
1067.033, 77.84073
1067.516, 77.42198
1067.998, 77.04728
1068.480, 76.75343
1068.962, 76.51794
1069.444, 76.22277
1069.926, 75.67799
1070.408, 75.19863
1070.890, 75.00808
1071.372, 74.95162
1071.854, 74.82008
1072.337, 74.61797
1072.819, 74.26911
1073.301, 73.74429
1073.783, 73.31287
1074.265, 73.38240
1074.747, 73.56614
1075.229, 73.40275
1075.711, 72.90455
1076.194, 72.70459
1076.676, 72.99782
1077.158, 73.17955
1077.640, 73.03561
1078.122, 72.80052
1078.604, 72.97488
1079.086, 73.34797
1079.568, 73.43098
1080.051, 73.01812
1080.533, 72.73759
1081.015, 72.82974
1081.497, 73.10414
1081.979, 73.58813
1082.461, 74.18900
1082.943, 74.17136
1083.425, 73.63729
1083.907, 73.34978
1084.390, 73.74790
1084.872, 74.38586
1085.354, 75.22937
1085.836, 76.01413
1086.318, 76.38538
1086.800, 76.17780
1087.282, 76.24014
1087.764, 76.60658
1088.247, 77.07043
1088.729, 77.56036
1089.211, 77.99014
1089.693, 78.14712
1090.175, 78.14131
1090.657, 78.42012
1091.139, 79.28589
1091.621, 80.02454
1092.104, 80.55634
1092.586, 80.90334
1093.068, 80.96526
1093.550, 80.89535
1094.032, 81.16307
1094.514, 81.82324
1094.996, 82.17249
1095.478, 81.41821
1095.960, 80.86511
1096.443, 81.13733
1096.925, 81.88354
1097.407, 82.08225
1097.889, 81.78445
1098.371, 81.35567
1098.853, 80.88189
1099.335, 80.33743
1099.817, 79.62070
1100.299, 78.88537
1100.782, 78.31821
1101.264, 77.92807
1101.746, 77.15594
1102.228, 75.94865
1102.710, 75.03316
1103.192, 74.95486
1103.674, 75.11537
1104.156, 74.96628
1104.639, 74.54736
1105.121, 73.89873
1105.603, 72.81092
1106.085, 71.94380
1106.567, 71.30484
1107.049, 70.86397
1107.531, 70.65404
1108.013, 70.59443
1108.495, 70.58228
1108.978, 70.57732
1109.460, 70.43880
1109.942, 69.91566
1110.424, 69.53061
1110.906, 69.41710
1111.388, 69.40744
1111.870, 69.25524
1112.352, 69.01022
1112.834, 68.94997
1113.317, 69.08640
1113.799, 69.07650
1114.281, 68.49493
1114.763, 67.95828
1115.245, 67.79013
1115.727, 67.87957
1116.209, 67.96852
1116.691, 68.05996
1117.174, 68.26373
1117.656, 68.65865
1118.138, 68.86247
1118.620, 68.35612
1119.102, 67.66103
1119.584, 67.19242
1120.066, 66.97091
1120.548, 67.00410
1121.031, 67.36385
1121.513, 67.44987
1121.995, 66.93694
1122.477, 66.26088
1122.959, 65.83259
1123.441, 65.63006
1123.923, 65.64553
1124.405, 65.98296
1124.887, 66.23673
1125.370, 66.40446
1125.852, 66.47777
1126.334, 66.41301
1126.816, 66.27799
1127.298, 66.16164
1127.780, 66.09501
1128.262, 66.15443
1128.744, 66.63314
1129.227, 66.83079
1129.709, 66.60316
1130.191, 66.22464
1130.673, 65.83492
1131.155, 65.49434
1131.637, 65.53651
1132.119, 65.88772
1132.601, 66.09792
1133.083, 65.74174
1133.566, 65.45248
1134.048, 65.52593
1134.530, 65.70226
1135.012, 65.59145
1135.494, 65.23226
1135.976, 65.05618
1136.458, 65.09892
1136.940, 65.15904
1137.422, 65.09290
1137.905, 65.00764
1138.387, 64.94299
1138.869, 64.91383
1139.351, 64.96133
1139.833, 65.08768
1140.315, 65.29338
1140.797, 65.60582
1141.279, 65.80495
1141.762, 65.52601
1142.244, 65.17856
1142.726, 65.19918
1143.208, 65.56499
1143.690, 65.57107
1144.172, 65.13279
1144.654, 64.82751
1145.136, 64.83424
1145.619, 65.03060
1146.101, 65.51198
1146.583, 65.96204
1147.065, 65.90866
1147.547, 65.11830
1148.029, 64.74546
1148.511, 64.92435
1148.993, 65.14080
1149.475, 65.20794
1149.958, 65.13528
1150.440, 64.80531
1150.922, 64.38470
1151.404, 64.18952
1151.886, 64.43019
1152.368, 64.57618
1152.850, 64.55611
1153.332, 64.52097
1153.814, 64.60664
1154.297, 64.72329
1154.779, 64.62098
1155.261, 64.35524
1155.743, 64.08491
1156.225, 63.75587
1156.707, 63.60286
1157.189, 63.67952
1157.671, 63.86919
1158.154, 64.10777
1158.636, 64.37532
1159.118, 64.67754
1159.600, 64.95802
1160.082, 64.95572
1160.564, 64.08697
1161.046, 63.52425
1161.528, 63.71702
1162.010, 64.20639
1162.493, 64.53332
1162.975, 64.70022
1163.457, 64.70567
1163.939, 64.56070
1164.421, 64.38024
1164.903, 64.24413
1165.385, 64.06602
1165.867, 63.66630
1166.349, 63.29352
1166.832, 63.48853
1167.314, 64.18839
1167.796, 64.54804
1168.278, 64.47520
1168.760, 64.16921
1169.242, 63.29376
1169.724, 62.69851
1170.206, 63.20234
1170.689, 64.30471
1171.171, 64.77559
1171.653, 64.62666
1172.135, 64.43724
1172.617, 64.30350
1173.099, 64.23486
1173.581, 64.33676
1174.063, 64.42584
1174.546, 64.33138
1175.028, 64.09338
1175.510, 63.86181
1175.992, 63.62760
1176.474, 63.59611
1176.956, 63.85394
1177.438, 64.18179
1177.920, 64.45102
1178.402, 64.63741
1178.885, 64.73072
1179.367, 64.72964
1179.849, 64.48343
1180.331, 63.94749
1180.813, 63.62904
1181.295, 63.70884
1181.777, 64.05591
1182.259, 64.78226
1182.742, 65.54684
1183.224, 66.00526
1183.706, 66.13728
1184.188, 65.74468
1184.670, 64.72489
1185.152, 63.89485
1185.634, 63.65491
1186.116, 63.71626
1186.599, 63.90336
1187.081, 64.11476
1187.563, 64.22500
1188.045, 64.24737
1188.527, 63.94784
1189.009, 63.23366
1189.491, 62.77354
1189.973, 63.10157
1190.455, 63.67321
1190.938, 63.85976
1191.420, 63.80830
1191.902, 63.76048
1192.384, 63.80707
1192.866, 63.65330
1193.348, 63.22894
1193.830, 62.94819
1194.312, 63.22185
1194.794, 63.67337
1195.277, 63.81856
1195.759, 63.77079
1196.241, 63.75729
1196.723, 63.82452
1197.205, 63.93550
1197.687, 64.13111
1198.169, 64.18609
1198.651, 63.69317
1199.134, 63.12484
1199.616, 63.19496
1200.098, 63.69533
1200.580, 64.10568
1201.062, 64.39152
1201.544, 64.43655
1202.026, 64.18942
1202.508, 63.89204
1202.990, 63.72347
1203.473, 63.65284
1203.955, 63.63808
1204.437, 63.68506
1204.919, 63.83868
1205.401, 64.25916
1205.883, 64.36673
1206.365, 64.05051
1206.847, 63.69527
1207.329, 63.67458
1207.812, 63.82893
1208.294, 64.03732
1208.776, 64.24931
1209.258, 64.26701
1209.740, 63.94617
1210.222, 63.78846
1210.704, 63.86900
1211.186, 64.03687
1211.669, 64.21722
1212.151, 64.34203
1212.633, 64.22401
1213.115, 63.93613
1213.597, 63.95266
1214.079, 64.47888
1214.561, 64.76958
1215.043, 64.69349
1215.526, 64.48002
1216.008, 64.35018
1216.490, 64.23751
1216.972, 63.99006
1217.454, 63.65180
1217.936, 63.59376
1218.418, 63.90385
1218.900, 64.23178
1219.382, 64.53033
1219.865, 64.79681
1220.347, 64.88531
1220.829, 65.04214
1221.311, 65.85954
1221.793, 67.15762
1222.275, 67.24712
1222.757, 65.69578
1223.239, 64.53802
1223.722, 64.19069
1224.204, 64.20378
1224.686, 64.25528
1225.168, 64.28858
1225.650, 64.21646
1226.132, 64.05005
1226.614, 63.98190
1227.096, 64.04027
1227.578, 64.03206
1228.061, 63.89447
1228.543, 63.78469
1229.025, 63.86055
1229.507, 64.05146
1229.989, 64.36906
1230.471, 64.76878
1230.953, 64.85365
1231.435, 64.55521
1231.917, 64.62153
1232.400, 65.31985
1232.882, 65.93739
1233.364, 65.64648
1233.846, 65.08324
1234.328, 64.86173
1234.810, 64.91835
1235.292, 64.61685
1235.774, 63.93314
1236.257, 63.51800
1236.739, 63.55161
1237.221, 63.77589
1237.703, 64.13068
1238.185, 64.45193
1238.667, 64.57674
1239.149, 64.54937
1239.631, 64.56078
1240.114, 64.60562
1240.596, 64.52445
1241.078, 64.26965
1241.560, 63.93666
1242.042, 63.25969
1242.524, 62.87853
1243.006, 63.43068
1243.488, 64.56867
1243.970, 64.94851
1244.453, 64.65600
1244.935, 64.32883
1245.417, 64.08886
1245.899, 64.00133
1246.381, 64.30095
1246.863, 64.54761
1247.345, 64.43497
1247.827, 64.12760
1248.309, 64.25938
1248.792, 64.69797
1249.274, 64.81981
1249.756, 64.41959
1250.238, 64.08035
1250.720, 64.16755
1251.202, 64.27984
1251.684, 64.23368
1252.166, 64.11301
1252.649, 64.14587
1253.131, 64.28591
1253.613, 64.37157
1254.095, 64.34176
1254.577, 64.45983
1255.059, 65.14835
1255.541, 65.45003
1256.023, 64.84682
1256.505, 63.89742
1256.988, 63.83141
1257.470, 64.28986
1257.952, 64.47993
1258.434, 64.20010
1258.916, 64.16531
1259.398, 64.63120
1259.880, 64.99871
1260.362, 65.05648
1260.844, 64.94212
1261.327, 64.85061
1261.809, 64.75420
1262.291, 64.55914
1262.773, 64.22988
1263.255, 64.16791
1263.737, 64.42747
1264.219, 64.84163
1264.701, 65.43716
1265.184, 65.93593
1265.666, 65.95734
1266.148, 65.70206
1266.630, 65.28680
1267.112, 64.73417
1267.594, 64.68917
1268.076, 65.22320
1268.558, 65.71778
1269.041, 66.00975
1269.523, 66.14069
1270.005, 66.11068
1270.487, 65.97300
1270.969, 65.72221
1271.451, 65.39880
1271.933, 65.23048
1272.415, 65.21568
1272.897, 65.11094
1273.380, 64.81577
1273.862, 64.67278
1274.344, 65.30317
1274.826, 65.78126
1275.308, 65.33919
1275.790, 64.37212
1276.272, 64.25594
1276.754, 64.83088
1277.237, 65.26209
1277.719, 65.37556
1278.201, 65.32832
1278.683, 65.13521
1279.165, 64.84270
1279.647, 64.33716
1280.129, 63.89491
1280.611, 64.33416
1281.094, 65.27391
1281.576, 65.63004
1282.058, 65.20928
1282.540, 64.79452
1283.022, 64.56204
1283.504, 64.46678
1283.986, 64.52200
1284.468, 64.66194
1284.950, 64.76295
1285.432, 64.88915
1285.915, 65.24706
1286.397, 65.83638
1286.879, 65.98232
1287.361, 65.48586
1287.843, 65.09046
1288.325, 64.97459
1288.807, 64.95649
1289.289, 64.79161
1289.772, 64.63966
1290.254, 64.72151
1290.736, 65.00137
1291.218, 65.13856
1291.700, 65.12007
1292.182, 65.04568
1292.664, 64.91678
1293.146, 64.89042
1293.629, 65.30092
1294.111, 65.66490
1294.593, 65.52576
1295.075, 65.13432
1295.557, 65.01685
1296.039, 65.14351
1296.521, 65.14958
1297.003, 64.99878
1297.485, 64.98025
1297.968, 65.45619
1298.450, 65.84512
1298.932, 65.97204
1299.414, 65.88226
1299.896, 65.56126
1300.378, 65.09110
1300.860, 64.62306
1301.342, 64.21300
1301.824, 64.11725
1302.307, 64.37220
##END=



