##NAMES=Cerite-(Ce)
##RRUFFID=R060708
##IDEAL CHEMISTRY=(Ce,La,Ca)_9_(Mg,Fe^3+^)(SiO_4_)_3_(SiO_3_OH)_4_(OH)_3_
##LOCALITY=Bastnas, Riddarhyttan, Sweden
##OWNER=RRUFF
##SOURCE=Bob Jenkins
##DESCRIPTION=Pink thin but massive crystalline coating
##STATUS=The identification of this mineral is confirmed by single-crystal X-ray diffraction and chemical analysis.
##URL=rruff.info/R060708
##MEASURED CHEMISTRY=(Ce_4.01_Nd_1.78_La_1.76_Ca_0.73_Pr_0.48_Y_0.14_Sm^+2^_0.10_Eu^+2^_0.09_)_Σ=9.09_(Mg_0.78_Fe_0.23_)_Σ=1.01_(Si_1.07_O_4_)_6.000_(SiO_3_OH)(OH_1.66_F_1.31_Cl_0.03_)_Σ=3.00_; OH by stoichiometry
149.486, 17826.020
149.968, 17850.410
150.450, 17886.881
150.932, 17937.211
151.414, 17985.449
151.896, 18035.410
152.378, 18083.260
152.861, 18125.141
153.343, 18147.600
153.825, 18179.350
154.307, 18233.971
154.789, 18325.680
155.271, 18399.881
155.753, 18439.631
156.235, 18459.391
156.717, 18482.561
157.200, 18499.141
157.682, 18531.180
158.164, 18590.520
158.646, 18692.520
159.128, 18794.520
159.610, 18884.350
160.092, 18964.051
160.574, 19040.641
161.057, 19107.730
161.539, 19175.391
162.021, 19250.539
162.503, 19344.330
162.985, 19433.301
163.467, 19508.740
163.949, 19570.221
164.431, 19621.311
164.913, 19656.869
165.396, 19685.410
165.878, 19715.359
166.360, 19760.439
166.842, 19800.641
167.324, 19815.119
167.806, 19804.760
168.288, 19808.830
168.770, 19864.551
169.253, 19948.650
169.735, 20027.080
170.217, 20093.260
170.699, 20143.170
171.181, 20165.160
171.663, 20154.730
172.145, 20147.051
172.627, 20174.230
173.109, 20225.551
173.592, 20277.250
174.074, 20315.400
174.556, 20347.600
175.038, 20384.760
175.520, 20430.900
176.002, 20473.480
176.484, 20494.699
176.966, 20498.840
177.449, 20503.189
177.931, 20520.961
178.413, 20545.711
178.895, 20565.119
179.377, 20574.100
179.859, 20581.520
180.341, 20600.930
180.823, 20631.410
181.305, 20663.311
181.788, 20688.730
182.270, 20709.859
182.752, 20734.830
183.234, 20770.539
183.716, 20806.949
184.198, 20822.160
184.680, 20815.770
185.162, 20801.260
185.645, 20786.051
186.127, 20771.340
186.609, 20762.391
187.091, 20756.449
187.573, 20758.010
188.055, 20789.510
188.537, 20856.320
189.019, 20922.119
189.501, 20941.180
189.984, 20917.289
190.466, 20894.160
190.948, 20895.230
191.430, 20913.881
191.912, 20906.471
192.394, 20866.770
192.876, 20821.500
193.358, 20809.609
193.840, 20831.600
194.323, 20861.160
194.805, 20893.020
195.287, 20926.359
195.769, 20937.980
196.251, 20920.801
196.733, 20894.131
197.215, 20894.500
197.697, 20924.350
198.180, 20962.080
198.662, 20968.500
199.144, 20974.326
199.626, 21045.119
200.108, 21100.141
200.590, 21140.238
201.072, 21120.709
201.554, 21178.176
202.036, 21204.785
202.519, 21230.137
203.001, 21298.438
203.483, 21287.582
203.965, 21355.203
204.447, 21385.760
204.929, 21402.730
205.411, 21453.109
205.893, 21505.830
206.376, 21535.240
206.858, 21535.301
207.340, 21540.619
207.822, 21556.980
208.304, 21582.900
208.786, 21612.381
209.268, 21651.830
209.750, 21682.961
210.232, 21685.770
210.714, 21651.721
211.197, 21623.920
211.679, 21609.100
212.161, 21607.920
212.643, 21627.680
213.125, 21681.910
213.607, 21737.529
214.089, 21757.211
214.572, 21724.930
215.054, 21701.811
215.536, 21705.980
216.018, 21738.439
216.500, 21751.221
216.982, 21731.180
217.464, 21704.561
217.946, 21702.471
218.428, 21729.580
218.911, 21768.420
219.393, 21820.750
219.875, 21890.801
220.357, 21931.830
220.839, 21929.359
221.321, 21910.641
221.803, 21915.199
222.285, 21953.230
222.767, 21995.779
223.250, 22036.770
223.732, 22079.750
224.214, 22109.461
224.696, 22125.211
225.178, 22129.420
225.660, 22123.100
226.142, 22094.029
226.624, 22076.689
227.107, 22085.789
227.589, 22131.770
228.071, 22169.721
228.553, 22199.010
229.035, 22219.949
229.517, 22231.391
229.999, 22222.240
230.481, 22220.480
230.963, 22239.029
231.445, 22290.520
231.928, 22330.430
232.410, 22353.631
232.892, 22367.000
233.374, 22388.180
233.856, 22428.039
234.338, 22459.971
234.820, 22469.779
235.303, 22437.650
235.785, 22428.340
236.267, 22453.660
236.749, 22500.869
237.231, 22530.279
237.713, 22534.490
238.195, 22531.619
238.677, 22527.711
239.159, 22513.100
239.641, 22520.980
240.124, 22569.250
240.606, 22640.939
241.088, 22670.070
241.570, 22628.000
242.052, 22581.881
242.534, 22566.670
243.016, 22592.119
243.498, 22629.061
243.981, 22685.660
244.463, 22752.830
244.945, 22791.051
245.427, 22785.410
245.909, 22768.119
246.391, 22755.270
246.873, 22742.930
247.355, 22742.529
247.837, 22763.760
248.320, 22798.561
248.802, 22804.670
249.284, 22766.471
249.766, 22720.650
250.248, 22690.109
250.730, 22685.631
251.212, 22675.369
251.694, 22659.949
252.176, 22638.811
252.659, 22601.670
253.141, 22536.070
253.623, 22474.029
254.105, 22439.830
254.587, 22453.779
255.069, 22449.391
255.551, 22414.510
256.033, 22355.260
256.516, 22304.980
256.998, 22264.100
257.480, 22230.891
257.962, 22204.961
258.444, 22188.641
258.926, 22171.020
259.408, 22150.260
259.890, 22125.930
260.372, 22097.461
260.855, 22057.881
261.337, 22023.039
261.819, 22008.881
262.301, 22029.430
262.783, 22026.869
263.265, 21985.480
263.747, 21913.420
264.229, 21862.881
264.711, 21846.900
265.194, 21829.619
265.676, 21779.699
266.158, 21684.840
266.640, 21605.359
267.122, 21556.100
267.604, 21529.850
268.086, 21483.949
268.569, 21408.141
269.051, 21334.211
269.533, 21289.980
270.015, 21284.520
270.497, 21268.240
270.979, 21223.160
271.461, 21162.949
271.943, 21107.920
272.425, 21087.150
272.908, 21058.066
273.390, 21021.113
273.872, 20952.707
274.354, 20924.908
274.836, 20880.844
275.318, 20844.830
275.800, 20829.320
276.282, 20749.020
276.764, 20657.551
277.247, 20591.910
277.729, 20553.670
278.211, 20528.770
278.693, 20519.270
279.175, 20518.920
279.657, 20503.760
280.139, 20469.801
280.621, 20438.430
281.103, 20434.029
281.586, 20457.529
282.068, 20453.699
282.550, 20405.170
283.032, 20331.250
283.514, 20288.189
283.996, 20279.070
284.478, 20277.779
284.960, 20269.949
285.443, 20255.449
285.925, 20228.320
286.407, 20185.250
286.889, 20132.740
287.371, 20081.160
287.853, 20030.199
288.335, 19990.789
288.817, 19979.260
289.299, 19990.410
289.782, 19987.109
290.264, 19960.670
290.746, 19922.721
291.228, 19893.670
291.710, 19873.160
292.192, 19855.910
292.674, 19842.029
293.156, 19829.301
293.638, 19807.211
294.121, 19770.230
294.603, 19732.801
295.085, 19727.160
295.567, 19748.529
296.049, 19756.051
296.531, 19708.410
297.013, 19628.600
297.496, 19574.830
297.978, 19560.980
298.460, 19561.850
298.942, 19547.260
299.424, 19520.070
299.906, 19492.000
300.388, 19461.211
300.870, 19435.619
301.352, 19432.631
301.835, 19457.320
302.317, 19490.131
302.799, 19518.961
303.281, 19540.100
303.763, 19544.680
304.245, 19509.949
304.727, 19461.520
305.209, 19436.570
305.691, 19442.840
306.174, 19448.010
306.656, 19425.699
307.138, 19381.500
307.620, 19328.150
308.102, 19265.930
308.584, 19200.971
309.066, 19140.850
309.548, 19086.920
310.030, 19029.930
310.513, 18959.910
310.995, 18882.721
311.477, 18808.730
311.959, 18743.270
312.441, 18681.770
312.923, 18621.141
313.405, 18560.699
313.887, 18505.680
314.370, 18466.109
314.852, 18430.490
315.334, 18384.180
315.816, 18311.490
316.298, 18236.141
316.780, 18166.250
317.262, 18102.619
317.744, 18047.520
318.226, 18015.490
318.709, 17987.529
319.191, 17945.850
319.673, 17861.289
320.155, 17786.289
320.637, 17745.750
321.119, 17737.750
321.601, 17718.619
322.083, 17658.740
322.565, 17593.801
323.048, 17549.529
323.530, 17551.711
324.012, 17550.990
324.494, 17531.971
324.976, 17498.109
325.458, 17479.539
325.940, 17512.820
326.422, 17539.650
326.905, 17527.730
327.387, 17412.660
327.869, 17332.789
328.351, 17314.600
328.833, 17341.480
329.315, 17345.061
329.797, 17300.730
330.279, 17255.971
330.762, 17232.730
331.244, 17256.580
331.726, 17259.199
332.208, 17231.340
332.690, 17184.160
333.172, 17145.330
333.654, 17115.439
334.136, 17094.039
334.618, 17081.090
335.100, 17077.250
335.583, 17081.670
336.065, 17097.881
336.547, 17119.869
337.029, 17135.500
337.511, 17139.711
337.993, 17150.260
338.475, 17174.770
338.957, 17213.801
339.440, 17251.990
339.922, 17289.439
340.404, 17325.061
340.886, 17356.680
341.368, 17382.939
341.850, 17413.221
342.332, 17451.740
342.814, 17497.631
343.297, 17538.500
343.779, 17573.850
344.261, 17610.029
344.743, 17652.211
345.225, 17701.000
345.707, 17761.381
346.189, 17837.311
346.671, 17925.221
347.153, 18022.141
347.635, 18127.891
348.118, 18234.289
348.600, 18333.199
349.082, 18426.699
349.564, 18524.051
350.046, 18628.340
350.528, 18736.250
351.010, 18843.340
351.492, 18949.711
351.975, 19062.740
352.457, 19183.449
352.939, 19313.561
353.421, 19461.840
353.903, 19640.311
354.385, 19811.000
354.867, 19925.000
355.349, 19999.551
355.832, 20083.080
356.314, 20211.461
356.796, 20357.311
357.278, 20490.170
357.760, 20602.840
358.242, 20724.301
358.724, 20889.381
359.206, 21074.539
359.688, 21241.051
360.171, 21354.020
360.653, 21458.670
361.135, 21577.250
361.617, 21711.830
362.099, 21858.080
362.581, 22029.920
363.063, 22207.051
363.545, 22368.420
364.027, 22502.859
364.510, 22625.820
364.992, 22740.369
365.474, 22846.680
365.956, 22947.211
366.438, 23035.150
366.920, 23121.230
367.402, 23213.311
367.884, 23344.631
368.366, 23445.250
368.849, 23489.369
369.331, 23491.811
369.813, 23523.859
370.295, 23633.551
370.777, 23725.180
371.259, 23751.539
371.741, 23666.160
372.224, 23603.859
372.706, 23566.961
373.188, 23551.570
373.670, 23554.789
374.152, 23592.490
374.634, 23614.240
375.116, 23599.939
375.598, 23546.461
376.080, 23474.439
376.562, 23379.330
377.045, 23273.131
377.527, 23176.551
378.009, 23091.789
378.491, 22997.230
378.973, 22883.000
379.455, 22752.561
379.937, 22634.170
380.419, 22528.891
380.902, 22428.160
381.384, 22320.949
381.866, 22209.340
382.348, 22102.900
382.830, 22003.590
383.312, 21911.689
383.794, 21836.170
384.276, 21775.551
384.759, 21707.270
385.241, 21611.660
385.723, 21496.029
386.205, 21377.289
386.687, 21253.391
387.169, 21135.760
387.651, 21052.240
388.133, 20988.789
388.615, 20904.020
389.098, 20764.301
389.580, 20597.580
390.062, 20431.320
390.544, 20265.400
391.026, 20101.529
391.508, 19944.789
391.990, 19790.859
392.472, 19631.439
392.954, 19456.641
393.437, 19284.590
393.919, 19127.949
394.401, 18988.900
394.883, 18843.391
395.365, 18691.770
395.847, 18528.000
396.329, 18347.311
396.811, 18112.650
397.293, 17900.850
397.776, 17740.910
398.258, 17620.910
398.740, 17476.561
399.222, 17277.051
399.704, 17073.039
400.186, 16886.900
400.668, 16737.090
401.151, 16568.039
401.633, 16360.510
402.115, 16141.940
402.597, 15962.320
403.079, 15845.300
403.561, 15723.160
404.043, 15569.050
404.525, 15378.130
405.007, 15217.100
405.490, 15095.280
405.972, 14986.550
406.454, 14859.120
406.936, 14709.040
407.418, 14568.350
407.900, 14443.860
408.382, 14334.610
408.864, 14237.530
409.346, 14153.930
409.828, 14067.310
410.311, 13963.670
410.793, 13846.530
411.275, 13725.620
411.757, 13596.890
412.239, 13477.180
412.721, 13401.850
413.203, 13360.360
413.685, 13305.160
414.168, 13188.940
414.650, 13050.690
415.132, 12952.600
415.614, 12901.650
416.096, 12852.940
416.578, 12765.110
417.060, 12655.850
417.542, 12554.040
418.025, 12471.210
418.507, 12399.140
418.989, 12335.640
419.471, 12280.240
419.953, 12223.900
420.435, 12172.810
420.917, 12114.260
421.399, 12038.250
421.881, 11922.020
422.364, 11817.090
422.846, 11740.230
423.328, 11683.020
423.810, 11624.960
424.292, 11553.450
424.774, 11489.390
425.256, 11444.410
425.738, 11432.130
426.220, 11395.710
426.703, 11319.420
427.185, 11228.930
427.667, 11157.940
428.149, 11116.420
428.631, 11072.900
429.113, 11016.770
429.595, 10949.980
430.077, 10902.620
430.560, 10881.360
431.042, 10860.490
431.524, 10816.270
432.006, 10747.120
432.488, 10687.560
432.970, 10643.000
433.452, 10608.790
433.934, 10581.380
434.417, 10560.510
434.899, 10527.370
435.381, 10458.060
435.863, 10369.450
436.345, 10309.800
436.827, 10283.740
437.309, 10265.750
437.791, 10225.990
438.273, 10175.420
438.755, 10137.290
439.238, 10128.250
439.720, 10129.210
440.202, 10115.710
440.684, 10092.230
441.166, 10089.020
441.648, 10044.372
442.130, 10050.360
442.612, 10044.058
443.095, 10026.122
443.577, 9961.717
444.059, 9957.317
444.541, 9928.873
445.023, 9912.332
445.505, 9892.861
445.987, 9877.232
446.469, 9859.576
446.952, 9839.229
447.434, 9818.975
447.916, 9797.167
448.398, 9776.749
448.880, 9761.606
449.362, 9760.604
449.844, 9748.124
450.326, 9716.393
450.808, 9670.489
451.290, 9634.440
451.773, 9609.916
452.255, 9591.431
452.737, 9580.575
453.219, 9579.026
453.701, 9559.224
454.183, 9517.152
454.665, 9463.258
455.147, 9405.968
455.630, 9346.858
456.112, 9300.930
456.594, 9281.176
457.076, 9276.888
457.558, 9263.586
458.040, 9241.548
458.522, 9218.731
459.004, 9206.193
459.487, 9196.136
459.969, 9173.857
460.451, 9130.791
460.933, 9084.801
461.415, 9053.770
461.897, 9032.141
462.379, 9006.423
462.861, 8962.521
463.343, 8918.727
463.826, 8890.245
464.308, 8881.939
464.790, 8864.382
465.272, 8810.962
465.754, 8752.080
466.236, 8716.950
466.718, 8742.414
467.200, 8754.521
467.682, 8739.245
468.165, 8700.587
468.647, 8656.897
469.129, 8589.509
469.611, 8540.119
470.093, 8535.123
470.575, 8598.183
471.057, 8623.639
471.539, 8600.938
472.022, 8552.727
472.504, 8510.125
472.986, 8473.014
473.468, 8441.852
473.950, 8416.799
474.432, 8398.067
474.914, 8391.441
475.396, 8397.786
475.878, 8399.603
476.361, 8375.409
476.843, 8335.630
477.325, 8311.940
477.807, 8315.289
478.289, 8319.736
478.771, 8291.794
479.253, 8242.583
479.735, 8199.513
480.217, 8184.844
480.700, 8175.377
481.182, 8148.271
481.664, 8102.210
482.146, 8067.040
482.628, 8070.325
483.110, 8083.248
483.592, 8081.569
484.074, 8030.787
484.556, 7998.153
485.039, 8017.238
485.521, 8065.763
486.003, 8076.354
486.485, 8008.465
486.967, 7944.478
487.449, 7915.682
487.931, 7932.127
488.414, 7926.277
488.896, 7890.970
489.378, 7843.510
489.860, 7797.497
490.342, 7751.238
490.824, 7721.498
491.306, 7716.844
491.788, 7726.796
492.270, 7723.776
492.753, 7707.816
493.235, 7682.817
493.717, 7642.699
494.199, 7595.704
494.681, 7569.270
495.163, 7567.290
495.645, 7568.454
496.127, 7551.451
496.609, 7522.076
497.092, 7492.442
497.574, 7469.206
498.056, 7444.539
498.538, 7411.404
499.020, 7371.536
499.502, 7333.304
499.984, 7297.091
500.466, 7265.634
500.948, 7241.942
501.431, 7228.646
501.913, 7215.301
502.395, 7203.500
502.877, 7189.438
503.359, 7168.366
503.841, 7136.884
504.323, 7102.497
504.805, 7061.440
505.288, 7016.763
505.770, 6991.782
506.252, 6996.028
506.734, 6999.380
507.216, 6977.688
507.698, 6926.795
508.180, 6905.898
508.662, 6924.946
509.145, 6954.380
509.627, 6950.849
510.109, 6918.164
510.591, 6885.975
511.073, 6867.818
511.555, 6854.088
512.037, 6824.372
512.519, 6781.042
513.001, 6743.053
513.484, 6725.253
513.966, 6718.118
514.448, 6711.513
514.930, 6703.589
515.412, 6696.823
515.894, 6697.291
516.376, 6698.305
516.858, 6690.598
517.341, 6661.066
517.823, 6632.975
518.305, 6611.993
518.787, 6598.108
519.269, 6589.532
519.751, 6589.295
520.233, 6591.166
520.715, 6592.667
521.197, 6594.727
521.680, 6593.579
522.162, 6588.096
522.644, 6580.822
523.126, 6576.507
523.608, 6576.149
524.090, 6571.301
524.572, 6558.433
525.054, 6540.316
525.536, 6519.998
526.019, 6497.746
526.501, 6486.427
526.983, 6508.600
527.465, 6545.385
527.947, 6557.238
528.429, 6537.643
528.911, 6507.965
529.393, 6479.979
529.875, 6455.274
530.358, 6436.373
530.840, 6418.626
531.322, 6412.425
531.804, 6437.738
532.286, 6484.117
532.768, 6503.806
533.250, 6452.051
533.732, 6398.470
534.214, 6374.148
534.697, 6386.707
535.179, 6413.947
535.661, 6476.214
536.143, 6537.192
536.625, 6552.553
537.107, 6502.092
537.589, 6468.265
538.071, 6468.052
538.554, 6490.821
539.036, 6504.959
539.518, 6509.917
540.000, 6512.556
540.482, 6513.444
540.964, 6514.654
541.446, 6525.968
541.928, 6548.230
542.411, 6569.500
542.893, 6580.053
543.375, 6581.734
543.857, 6576.895
544.339, 6563.302
544.821, 6548.148
545.303, 6535.771
545.785, 6525.403
546.268, 6515.140
546.750, 6508.553
547.232, 6498.169
547.714, 6478.875
548.196, 6449.670
548.678, 6423.518
549.160, 6402.048
549.642, 6383.928
550.124, 6368.105
550.606, 6353.007
551.089, 6345.420
551.571, 6352.020
552.053, 6360.569
552.535, 6343.646
553.017, 6297.330
553.499, 6257.654
553.981, 6240.816
554.463, 6238.734
554.945, 6224.001
555.428, 6196.685
555.910, 6167.490
556.392, 6139.503
556.874, 6116.401
557.356, 6107.633
557.838, 6117.596
558.320, 6126.592
558.802, 6117.861
559.284, 6099.387
559.767, 6082.313
560.249, 6070.715
560.731, 6061.161
561.213, 6050.525
561.695, 6040.298
562.177, 6037.082
562.659, 6044.185
563.141, 6056.445
563.624, 6075.255
564.106, 6105.130
564.588, 6115.413
565.070, 6097.499
565.552, 6072.406
566.034, 6060.253
566.516, 6061.870
566.998, 6069.998
567.481, 6086.673
567.963, 6104.145
568.445, 6101.882
568.927, 6083.829
569.409, 6076.408
569.891, 6103.680
570.373, 6144.363
570.855, 6165.217
571.338, 6167.755
571.820, 6173.026
572.302, 6201.093
572.784, 6234.190
573.266, 6257.730
573.748, 6269.032
574.230, 6269.760
574.712, 6246.465
575.194, 6217.087
575.677, 6206.569
576.159, 6239.851
576.641, 6263.082
577.123, 6269.800
577.605, 6260.802
578.087, 6236.682
578.569, 6189.211
579.051, 6147.682
579.533, 6130.467
580.016, 6136.624
580.498, 6134.842
580.980, 6125.039
581.462, 6107.856
581.944, 6083.179
582.426, 6051.447
582.908, 6012.480
583.390, 5961.953
583.872, 5914.679
584.355, 5889.911
584.837, 5879.043
585.319, 5863.786
585.801, 5843.058
586.283, 5809.736
586.765, 5749.964
587.247, 5666.720
587.729, 5601.561
588.211, 5581.358
588.694, 5566.014
589.176, 5534.323
589.658, 5477.054
590.140, 5431.268
590.622, 5402.232
591.104, 5378.292
591.586, 5344.164
592.068, 5297.836
592.551, 5259.229
593.033, 5233.901
593.515, 5216.346
593.997, 5196.153
594.479, 5173.537
594.961, 5149.501
595.443, 5124.221
595.925, 5097.839
596.407, 5064.934
596.890, 5026.621
597.372, 5003.092
597.854, 4971.384
598.336, 4956.846
598.818, 4964.557
599.300, 4966.868
599.782, 4964.068
600.265, 4940.849
600.747, 4943.997
601.229, 4936.578
601.711, 4928.726
602.193, 4935.585
602.675, 4915.336
603.157, 4920.517
603.639, 4938.500
604.121, 4938.690
604.604, 4931.698
605.086, 4920.803
605.568, 4906.654
606.050, 4890.840
606.532, 4873.294
607.014, 4857.553
607.496, 4844.497
607.978, 4835.775
608.460, 4837.073
608.943, 4853.919
609.425, 4865.028
609.907, 4850.419
610.389, 4823.185
610.871, 4801.810
611.353, 4799.886
611.835, 4795.401
612.317, 4779.772
612.799, 4756.370
613.282, 4739.949
613.764, 4735.379
614.246, 4730.719
614.728, 4720.046
615.210, 4703.438
615.692, 4698.799
616.174, 4709.538
616.656, 4718.714
617.138, 4707.548
617.621, 4681.303
618.103, 4664.736
618.585, 4662.206
619.067, 4664.991
619.549, 4666.815
620.031, 4666.837
620.513, 4663.612
620.995, 4658.474
621.477, 4647.711
621.960, 4626.191
622.442, 4597.017
622.924, 4569.061
623.406, 4535.873
623.888, 4512.776
624.370, 4510.432
624.852, 4530.004
625.334, 4535.821
625.817, 4520.924
626.299, 4503.520
626.781, 4499.481
627.263, 4511.080
627.745, 4499.184
628.227, 4457.095
628.709, 4409.765
629.191, 4390.826
629.674, 4393.121
630.156, 4391.455
630.638, 4377.764
631.120, 4359.998
631.602, 4343.980
632.084, 4329.957
632.566, 4318.468
633.048, 4313.882
633.531, 4308.091
634.013, 4294.288
634.495, 4273.144
634.977, 4260.594
635.459, 4264.109
635.941, 4270.810
636.423, 4276.005
636.905, 4280.028
637.387, 4280.225
637.870, 4275.649
638.352, 4269.100
638.834, 4262.925
639.316, 4257.141
639.798, 4252.828
640.280, 4251.798
640.762, 4247.636
641.244, 4226.385
641.726, 4195.188
642.209, 4171.586
642.691, 4169.880
643.173, 4171.993
643.655, 4166.476
644.137, 4155.088
644.619, 4143.906
645.101, 4126.422
645.583, 4117.437
646.065, 4129.729
646.548, 4166.415
647.030, 4179.798
647.512, 4156.776
647.994, 4130.311
648.476, 4124.498
648.958, 4141.517
649.440, 4151.091
649.922, 4151.273
650.404, 4144.604
650.887, 4129.961
651.369, 4110.420
651.851, 4096.037
652.333, 4090.389
652.815, 4088.806
653.297, 4087.200
653.779, 4086.409
654.261, 4088.177
654.744, 4098.318
655.226, 4106.240
655.708, 4108.972
656.190, 4106.285
656.672, 4096.830
657.154, 4070.541
657.636, 4050.874
658.118, 4050.723
658.601, 4072.137
659.083, 4074.380
659.565, 4052.864
660.047, 4028.635
660.529, 4021.227
661.011, 4027.177
661.493, 4031.770
661.975, 4033.953
662.458, 4031.446
662.940, 4018.689
663.422, 4000.627
663.904, 3984.427
664.386, 3964.472
664.868, 3957.735
665.350, 3984.323
665.832, 4028.399
666.314, 4055.693
666.797, 4051.800
667.279, 4040.096
667.761, 4021.925
668.243, 3998.630
668.725, 3978.094
669.207, 3958.939
669.689, 3947.059
670.171, 3949.408
670.653, 3962.559
671.135, 3966.705
671.618, 3961.613
672.100, 3953.390
672.582, 3945.092
673.064, 3937.788
673.546, 3934.132
674.028, 3935.958
674.510, 3935.439
674.992, 3930.303
675.474, 3920.144
675.957, 3904.629
676.439, 3869.339
676.921, 3848.065
677.403, 3849.995
677.885, 3863.522
678.367, 3869.099
678.849, 3866.879
679.331, 3853.790
679.814, 3820.456
680.296, 3781.871
680.778, 3791.313
681.260, 3843.586
681.742, 3887.433
682.224, 3887.304
682.706, 3866.856
683.188, 3855.702
683.670, 3853.409
684.153, 3847.822
684.635, 3823.964
685.117, 3801.127
685.599, 3793.517
686.081, 3807.240
686.563, 3818.178
687.045, 3825.350
687.528, 3829.014
688.010, 3827.966
688.492, 3820.041
688.974, 3818.740
689.456, 3826.746
689.938, 3837.357
690.420, 3840.519
690.902, 3837.757
691.384, 3837.188
691.867, 3843.233
692.349, 3847.890
692.831, 3841.545
693.313, 3827.367
693.795, 3812.387
694.277, 3789.886
694.759, 3776.722
695.241, 3787.975
695.723, 3818.077
696.206, 3831.302
696.688, 3817.128
697.170, 3799.279
697.652, 3784.467
698.134, 3772.754
698.616, 3765.385
699.098, 3763.311
699.580, 3760.492
700.062, 3747.233
700.545, 3730.345
701.027, 3733.997
701.509, 3760.468
701.991, 3782.304
702.473, 3767.913
702.955, 3742.403
703.437, 3734.677
703.919, 3760.113
704.402, 3778.664
704.884, 3777.205
705.366, 3763.870
705.848, 3747.355
706.330, 3722.624
706.812, 3706.020
707.294, 3700.871
707.776, 3702.523
708.258, 3705.174
708.741, 3708.743
709.223, 3702.847
709.705, 3679.282
710.187, 3650.739
710.669, 3638.244
711.151, 3638.437
711.633, 3639.312
712.115, 3631.023
712.597, 3624.975
713.080, 3631.505
713.562, 3648.774
714.044, 3659.107
714.526, 3656.269
715.008, 3648.417
715.490, 3637.737
715.972, 3623.916
716.455, 3608.377
716.937, 3588.379
717.419, 3575.238
717.901, 3581.223
718.383, 3601.952
718.865, 3619.752
719.347, 3633.564
719.829, 3639.717
720.311, 3628.082
720.794, 3609.595
721.276, 3599.364
721.758, 3605.635
722.240, 3606.372
722.722, 3583.096
723.204, 3554.915
723.686, 3544.644
724.168, 3566.669
724.651, 3580.379
725.133, 3580.345
725.615, 3573.172
726.097, 3571.612
726.579, 3575.753
727.061, 3574.498
727.543, 3561.129
728.025, 3546.183
728.507, 3551.016
728.990, 3568.708
729.472, 3578.539
729.954, 3558.700
730.436, 3538.966
730.918, 3540.012
731.400, 3557.364
731.882, 3568.043
732.364, 3564.941
732.846, 3557.101
733.328, 3544.240
733.811, 3527.108
734.293, 3520.744
734.775, 3526.931
735.257, 3535.587
735.739, 3541.298
736.221, 3544.454
736.703, 3547.511
737.185, 3550.424
737.667, 3548.645
738.150, 3528.435
738.632, 3508.042
739.114, 3509.401
739.596, 3541.925
740.078, 3563.691
740.560, 3552.409
741.042, 3532.996
741.524, 3525.140
742.007, 3535.869
742.489, 3540.131
742.971, 3535.170
743.453, 3528.416
743.935, 3528.868
744.417, 3535.743
744.899, 3543.823
745.381, 3552.219
745.864, 3560.542
746.346, 3570.942
746.828, 3580.414
747.310, 3583.586
747.792, 3570.087
748.274, 3560.777
748.756, 3569.987
749.238, 3587.320
749.721, 3591.125
750.203, 3575.913
750.685, 3557.176
751.167, 3537.654
751.649, 3516.652
752.131, 3483.747
752.613, 3439.079
753.095, 3419.817
753.577, 3458.206
754.060, 3516.297
754.542, 3535.037
755.024, 3522.932
755.506, 3512.044
755.988, 3519.217
756.470, 3531.196
756.952, 3542.231
757.434, 3551.854
757.916, 3559.212
758.399, 3560.751
758.881, 3565.500
759.363, 3581.275
759.845, 3606.752
760.327, 3606.240
760.809, 3577.412
761.291, 3550.061
761.773, 3551.077
762.255, 3567.226
762.738, 3574.268
763.220, 3571.037
763.702, 3565.889
764.184, 3561.254
764.666, 3558.655
765.148, 3558.988
765.630, 3561.892
766.112, 3569.847
766.594, 3587.655
767.077, 3604.972
767.559, 3612.719
768.041, 3608.809
768.523, 3612.861
769.005, 3626.900
769.487, 3641.992
769.969, 3646.601
770.451, 3645.332
770.934, 3649.725
771.416, 3663.491
771.898, 3676.423
772.380, 3676.536
772.862, 3674.628
773.344, 3682.661
773.826, 3720.700
774.308, 3742.840
774.791, 3738.395
775.273, 3725.121
775.755, 3726.615
776.237, 3744.839
776.719, 3762.606
777.201, 3777.148
777.683, 3790.957
778.165, 3807.905
778.648, 3827.196
779.130, 3846.730
779.612, 3865.317
780.094, 3884.713
780.576, 3906.762
781.058, 3929.825
781.540, 3950.788
782.022, 3964.745
782.504, 3981.818
782.987, 4002.389
783.469, 4026.949
783.951, 4060.772
784.433, 4105.002
784.915, 4136.023
785.397, 4140.173
785.879, 4134.752
786.361, 4148.735
786.843, 4178.879
787.326, 4214.333
787.808, 4255.139
788.290, 4294.905
788.772, 4328.596
789.254, 4357.928
789.736, 4388.570
790.218, 4424.769
790.700, 4457.355
791.182, 4483.446
791.665, 4504.308
792.147, 4522.792
792.629, 4538.201
793.111, 4565.382
793.593, 4624.308
794.075, 4692.308
794.557, 4723.860
795.039, 4726.996
795.521, 4737.342
796.004, 4787.135
796.486, 4836.500
796.968, 4861.914
797.450, 4863.503
797.932, 4868.901
798.414, 4876.527
798.896, 4892.085
799.378, 4920.758
799.860, 4960.007
800.343, 4996.211
800.825, 5029.244
801.307, 5053.802
801.789, 5059.353
802.271, 5057.826
802.753, 5062.143
803.235, 5073.048
803.718, 5092.769
804.200, 5130.929
804.682, 5170.550
805.164, 5203.586
805.646, 5230.071
806.128, 5248.241
806.610, 5254.817
807.092, 5260.908
807.574, 5274.974
808.057, 5294.906
808.539, 5305.376
809.021, 5306.807
809.503, 5310.685
809.985, 5327.801
810.467, 5350.321
810.949, 5370.684
811.431, 5388.243
811.914, 5405.719
812.396, 5422.499
812.878, 5440.497
813.360, 5458.762
813.842, 5476.057
814.324, 5508.649
814.806, 5559.250
815.288, 5612.887
815.770, 5652.451
816.253, 5686.409
816.735, 5743.271
817.217, 5823.753
817.699, 5897.356
818.181, 5930.492
818.663, 5956.178
819.145, 6002.749
819.627, 6078.948
820.109, 6144.973
820.592, 6194.406
821.074, 6238.640
821.556, 6278.432
822.038, 6312.642
822.520, 6379.783
823.002, 6482.230
823.484, 6589.135
823.966, 6668.153
824.448, 6735.986
824.931, 6819.713
825.413, 6922.042
825.895, 7023.830
826.377, 7116.287
826.859, 7204.366
827.341, 7286.924
827.823, 7360.778
828.305, 7451.531
828.787, 7564.608
829.270, 7684.080
829.752, 7807.138
830.234, 7928.390
830.716, 8019.415
831.198, 8078.431
831.680, 8148.161
832.162, 8281.086
832.644, 8430.605
833.127, 8546.220
833.609, 8616.755
834.091, 8701.715
834.573, 8818.851
835.055, 8951.072
835.537, 9090.875
836.019, 9238.674
836.501, 9391.588
836.984, 9552.679
837.466, 9709.096
837.948, 9838.201
838.430, 9957.621
838.912, 10109.470
839.394, 10295.030
839.876, 10473.260
840.358, 10584.940
840.841, 10708.970
841.323, 10910.130
841.805, 11210.520
842.287, 11469.770
842.769, 11677.430
843.251, 11867.850
843.733, 12057.030
844.215, 12245.770
844.697, 12439.610
845.180, 12639.400
845.662, 12854.250
846.144, 13097.340
846.626, 13357.090
847.108, 13628.530
847.590, 13910.650
848.072, 14180.780
848.554, 14397.990
849.036, 14633.630
849.519, 14927.110
850.001, 15277.250
850.483, 15597.860
850.965, 15887.410
851.447, 16161.030
851.929, 16414.471
852.411, 16661.109
852.893, 16933.740
853.375, 17229.539
853.858, 17523.750
854.340, 17812.971
854.822, 18084.369
855.304, 18328.971
855.786, 18547.051
856.268, 18749.221
856.750, 18932.900
857.232, 19105.930
857.714, 19275.029
858.197, 19433.500
858.679, 19548.939
859.161, 19622.750
859.643, 19677.820
860.125, 19748.270
860.607, 19786.350
861.089, 19745.980
861.571, 19634.961
862.054, 19497.820
862.536, 19337.520
863.018, 19160.689
863.500, 18974.699
863.982, 18772.090
864.464, 18533.881
864.946, 18257.170
865.428, 17953.570
865.911, 17619.180
866.393, 17269.240
866.875, 16932.580
867.357, 16600.221
867.839, 16261.980
868.321, 15910.480
868.803, 15552.040
869.285, 15176.930
869.767, 14802.360
870.250, 14465.710
870.732, 14176.640
871.214, 13895.410
871.696, 13612.810
872.178, 13332.230
872.660, 13054.780
873.142, 12785.140
873.624, 12532.500
874.106, 12311.140
874.589, 12095.490
875.071, 11861.100
875.553, 11626.270
876.035, 11420.560
876.517, 11255.330
876.999, 11093.890
877.481, 10933.860
877.963, 10774.340
878.445, 10603.820
878.928, 10428.470
879.410, 10297.080
879.892, 10233.580
880.374, 10163.360
880.856, 9994.967
881.338, 9793.961
881.820, 9640.484
882.302, 9583.518
882.784, 9519.129
883.267, 9444.074
883.749, 9355.792
884.231, 9242.447
884.713, 9103.675
885.195, 9000.991
885.677, 8943.398
886.159, 8893.308
886.641, 8804.941
887.124, 8708.300
887.606, 8646.299
888.088, 8631.946
888.570, 8610.679
889.052, 8570.458
889.534, 8513.827
890.016, 8432.829
890.498, 8323.170
890.981, 8265.683
891.463, 8267.778
891.945, 8269.228
892.427, 8213.619
892.909, 8130.711
893.391, 8068.062
893.873, 8027.479
894.355, 7997.344
894.838, 7959.313
895.320, 7941.622
895.802, 7881.568
896.284, 7879.542
896.766, 7863.429
897.248, 7833.992
897.730, 7751.289
898.212, 7737.364
898.694, 7695.876
899.177, 7668.031
899.659, 7607.606
900.141, 7569.888
900.623, 7514.596
901.105, 7458.260
901.587, 7405.199
902.069, 7358.193
902.551, 7322.297
903.033, 7306.539
903.516, 7277.922
903.998, 7223.387
904.480, 7159.763
904.962, 7121.958
905.444, 7104.217
905.926, 7085.540
906.408, 7055.360
906.890, 7028.856
907.372, 7026.291
907.855, 7030.030
908.337, 7014.206
908.819, 6960.303
909.301, 6916.027
909.783, 6885.227
910.265, 6860.688
910.747, 6833.758
911.229, 6805.454
911.711, 6779.216
912.194, 6755.376
912.676, 6736.142
913.158, 6727.887
913.640, 6722.366
914.122, 6713.098
914.604, 6700.540
915.086, 6676.116
915.568, 6629.483
916.051, 6587.884
916.533, 6576.271
917.015, 6589.745
917.497, 6575.642
917.979, 6535.053
918.461, 6499.180
918.943, 6496.157
919.425, 6502.927
919.907, 6501.247
920.390, 6490.557
920.872, 6478.155
921.354, 6457.518
921.836, 6446.866
922.318, 6454.663
922.800, 6475.257
923.282, 6489.765
923.764, 6498.013
924.247, 6499.324
924.729, 6488.446
925.211, 6475.950
925.693, 6471.820
926.175, 6473.157
926.657, 6473.852
927.139, 6476.951
927.621, 6472.390
928.104, 6455.966
928.586, 6435.234
929.068, 6420.279
929.550, 6411.545
930.032, 6414.617
930.514, 6434.021
930.996, 6450.731
931.478, 6444.749
931.960, 6426.713
932.443, 6407.542
932.925, 6385.708
933.407, 6373.760
933.889, 6377.535
934.371, 6383.998
934.853, 6382.306
935.335, 6373.021
935.817, 6369.248
936.299, 6371.124
936.782, 6378.478
937.264, 6397.692
937.746, 6417.625
938.228, 6429.622
938.710, 6433.030
939.192, 6425.567
939.674, 6394.499
940.156, 6372.259
940.638, 6373.095
941.121, 6389.703
941.603, 6395.446
942.085, 6390.988
942.567, 6383.014
943.049, 6372.348
943.531, 6362.149
944.013, 6361.531
944.495, 6362.477
944.977, 6348.833
945.460, 6299.220
945.942, 6260.605
946.424, 6236.927
946.906, 6225.613
947.388, 6225.689
947.870, 6235.588
948.352, 6248.381
948.834, 6265.297
949.317, 6270.510
949.799, 6242.609
950.281, 6201.320
950.763, 6164.937
951.245, 6134.669
951.727, 6116.009
952.209, 6114.379
952.691, 6113.940
953.174, 6106.517
953.656, 6091.602
954.138, 6061.858
954.620, 6019.403
955.102, 5983.481
955.584, 5972.411
956.066, 5966.558
956.548, 5956.973
957.031, 5941.905
957.513, 5914.047
957.995, 5864.293
958.477, 5825.046
958.959, 5807.667
959.441, 5800.868
959.923, 5779.646
960.405, 5748.507
960.887, 5722.990
961.370, 5715.477
961.852, 5700.747
962.334, 5652.773
962.816, 5595.457
963.298, 5559.392
963.780, 5556.998
964.262, 5541.762
964.744, 5508.306
965.226, 5474.861
965.709, 5471.420
966.191, 5478.488
966.673, 5443.816
967.155, 5363.355
967.637, 5299.204
968.119, 5300.311
968.601, 5310.654
969.083, 5294.958
969.565, 5257.022
970.048, 5243.393
970.530, 5259.577
971.012, 5262.772
971.494, 5226.905
971.976, 5174.233
972.458, 5132.145
972.940, 5102.424
973.422, 5087.332
973.904, 5103.531
974.387, 5115.333
974.869, 5112.845
975.351, 5102.984
975.833, 5092.717
976.315, 5081.491
976.797, 5080.654
977.279, 5093.537
977.761, 5104.226
978.244, 5093.774
978.726, 5073.047
979.208, 5052.852
979.690, 5033.595
980.172, 5023.305
980.654, 5030.168
981.136, 5036.875
981.618, 5036.992
982.101, 5029.954
982.583, 5005.833
983.065, 4966.716
983.547, 4936.889
984.029, 4935.592
984.511, 4944.384
984.993, 4958.956
985.475, 4972.482
985.957, 4964.124
986.440, 4918.677
986.922, 4880.771
987.404, 4857.368
987.886, 4842.595
988.368, 4829.450
988.850, 4817.370
989.332, 4802.916
989.814, 4783.372
990.296, 4772.252
990.779, 4792.345
991.261, 4813.645
991.743, 4808.741
992.225, 4773.407
992.707, 4749.729
993.189, 4739.697
993.671, 4731.689
994.153, 4719.806
994.635, 4704.256
995.118, 4686.501
995.600, 4665.655
996.082, 4638.164
996.564, 4572.386
997.046, 4537.570
997.528, 4573.616
998.010, 4640.211
998.492, 4661.452
998.974, 4636.581
999.457, 4583.942
999.939, 4498.062
1000.421, 4420.491
1000.903, 4403.758
1001.385, 4414.546
1001.867, 4412.569
1002.349, 4385.638
1002.831, 4364.893
1003.314, 4358.702
1003.796, 4349.024
1004.278, 4323.398
1004.760, 4284.831
1005.242, 4245.009
1005.724, 4205.237
1006.206, 4172.229
1006.688, 4152.200
1007.171, 4139.063
1007.653, 4131.722
1008.135, 4128.618
1008.617, 4126.632
1009.099, 4130.965
1009.581, 4117.431
1010.063, 4077.631
1010.545, 4029.439
1011.027, 3992.549
1011.510, 3965.847
1011.992, 3951.873
1012.474, 3955.744
1012.956, 3947.967
1013.438, 3902.776
1013.920, 3856.178
1014.402, 3831.066
1014.884, 3826.429
1015.367, 3811.433
1015.849, 3786.090
1016.331, 3761.267
1016.813, 3743.417
1017.295, 3729.227
1017.777, 3720.925
1018.259, 3713.720
1018.741, 3694.557
1019.223, 3652.618
1019.706, 3612.921
1020.188, 3576.916
1020.670, 3546.999
1021.152, 3528.061
1021.634, 3518.180
1022.116, 3512.461
1022.598, 3510.809
1023.080, 3505.589
1023.563, 3492.466
1024.045, 3473.555
1024.527, 3448.689
1025.009, 3417.989
1025.491, 3388.276
1025.973, 3358.620
1026.455, 3335.862
1026.937, 3329.294
1027.419, 3325.719
1027.901, 3301.337
1028.384, 3264.853
1028.866, 3236.596
1029.348, 3241.939
1029.830, 3227.290
1030.312, 3172.560
1030.794, 3113.740
1031.276, 3102.774
1031.758, 3131.665
1032.241, 3127.519
1032.723, 3082.972
1033.205, 3041.982
1033.687, 3050.061
1034.169, 3064.089
1034.651, 3047.104
1035.133, 2999.423
1035.615, 2971.385
1036.098, 2968.059
1036.580, 2965.971
1037.062, 2955.707
1037.544, 2943.576
1038.026, 2939.968
1038.508, 2943.051
1038.990, 2948.103
1039.472, 2944.034
1039.954, 2910.172
1040.437, 2916.903
1040.919, 2913.808
1041.401, 2901.375
1041.883, 2851.657
1042.365, 2850.090
1042.847, 2829.223
1043.329, 2807.570
1043.811, 2812.775
1044.293, 2768.484
1044.776, 2773.231
1045.258, 2754.831
1045.740, 2729.379
1046.222, 2721.808
1046.704, 2716.291
1047.186, 2710.823
1047.668, 2702.943
1048.150, 2683.305
1048.633, 2659.605
1049.115, 2648.759
1049.597, 2657.286
1050.079, 2666.639
1050.561, 2679.328
1051.043, 2681.768
1051.525, 2661.601
1052.007, 2621.473
1052.490, 2598.537
1052.972, 2592.159
1053.454, 2592.270
1053.936, 2599.410
1054.418, 2604.668
1054.900, 2598.612
1055.382, 2586.102
1055.864, 2577.493
1056.346, 2573.457
1056.828, 2568.754
1057.311, 2556.781
1057.793, 2530.894
1058.275, 2548.752
1058.757, 2555.993
1059.239, 2553.183
1059.721, 2510.229
1060.203, 2519.114
1060.685, 2507.223
1061.168, 2494.470
1061.650, 2499.211
1062.132, 2501.861
1062.614, 2508.793
1063.096, 2518.711
1063.578, 2520.606
1064.060, 2508.784
1064.542, 2492.484
1065.025, 2475.305
1065.507, 2459.055
1065.989, 2446.308
1066.471, 2437.113
1066.953, 2429.043
1067.435, 2420.854
1067.917, 2419.703
1068.399, 2439.832
1068.881, 2465.035
1069.364, 2469.177
1069.846, 2455.665
1070.328, 2439.898
1070.810, 2420.231
1071.292, 2408.293
1071.774, 2409.397
1072.256, 2414.299
1072.738, 2405.970
1073.220, 2387.843
1073.703, 2377.532
1074.185, 2377.682
1074.667, 2381.405
1075.149, 2387.811
1075.631, 2393.189
1076.113, 2394.807
1076.595, 2393.088
1077.077, 2390.772
1077.559, 2387.882
1078.042, 2384.981
1078.524, 2382.104
1079.006, 2379.827
1079.488, 2380.785
1079.970, 2382.162
1080.452, 2379.333
1080.934, 2365.134
1081.416, 2359.869
1081.899, 2367.325
1082.381, 2375.137
1082.863, 2369.805
1083.345, 2358.000
1083.827, 2363.038
1084.309, 2380.702
1084.791, 2387.946
1085.273, 2355.621
1085.755, 2333.711
1086.238, 2345.171
1086.720, 2369.874
1087.202, 2372.560
1087.684, 2354.842
1088.166, 2339.083
1088.648, 2328.176
1089.130, 2325.662
1089.612, 2340.826
1090.094, 2360.671
1090.577, 2377.640
1091.059, 2390.666
1091.541, 2388.437
1092.023, 2367.186
1092.505, 2350.303
1092.987, 2346.143
1093.469, 2351.136
1093.951, 2370.365
1094.434, 2392.010
1094.916, 2395.064
1095.398, 2358.924
1095.880, 2339.034
1096.362, 2345.664
1096.844, 2356.141
1097.326, 2351.862
1097.808, 2338.481
1098.291, 2339.958
1098.773, 2353.010
1099.255, 2360.519
1099.737, 2349.352
1100.219, 2337.216
1100.701, 2329.235
1101.183, 2324.432
1101.665, 2321.677
1102.147, 2320.974
1102.630, 2323.438
1103.112, 2329.531
1103.594, 2331.725
1104.076, 2314.592
1104.558, 2298.868
1105.040, 2307.481
1105.522, 2336.277
1106.004, 2341.146
1106.486, 2316.220
1106.969, 2297.224
1107.451, 2295.475
1107.933, 2300.171
1108.415, 2297.977
1108.897, 2292.726
1109.379, 2289.630
1109.861, 2289.754
1110.343, 2293.073
1110.826, 2302.595
1111.308, 2308.456
1111.790, 2303.272
1112.272, 2291.833
1112.754, 2283.961
1113.236, 2280.489
1113.718, 2283.785
1114.200, 2305.950
1114.682, 2319.910
1115.165, 2317.152
1115.647, 2306.509
1116.129, 2293.251
1116.611, 2278.190
1117.093, 2273.242
1117.575, 2278.115
1118.057, 2280.724
1118.539, 2266.966
1119.021, 2255.013
1119.504, 2259.875
1119.986, 2273.290
1120.468, 2274.567
1120.950, 2261.923
1121.432, 2256.743
1121.914, 2263.330
1122.396, 2272.331
1122.878, 2275.979
1123.361, 2276.758
1123.843, 2277.319
1124.325, 2277.830
1124.807, 2274.087
1125.289, 2263.384
1125.771, 2258.786
1126.253, 2267.014
1126.735, 2278.986
1127.218, 2279.620
1127.700, 2274.279
1128.182, 2272.211
1128.664, 2277.257
1129.146, 2279.728
1129.628, 2275.112
1130.110, 2274.801
1130.592, 2291.172
1131.074, 2314.620
1131.557, 2308.168
1132.039, 2281.640
1132.521, 2269.612
1133.003, 2300.620
1133.485, 2329.355
1133.967, 2348.044
1134.449, 2357.453
1134.931, 2356.723
1135.413, 2346.634
1135.896, 2330.929
1136.378, 2310.872
1136.860, 2298.520
1137.342, 2308.372
1137.824, 2320.830
1138.306, 2327.996
1138.788, 2329.779
1139.270, 2321.908
1139.752, 2303.511
1140.235, 2303.881
1140.717, 2328.624
1141.199, 2355.225
1141.681, 2366.607
1142.163, 2369.238
1142.645, 2366.005
1143.127, 2357.815
1143.609, 2350.251
1144.092, 2341.930
1144.574, 2344.406
1145.056, 2365.754
1145.538, 2386.052
1146.020, 2375.322
1146.502, 2352.063
1146.984, 2339.881
1147.466, 2344.989
1147.948, 2350.400
1148.431, 2356.318
1148.913, 2360.841
1149.395, 2360.530
1149.877, 2361.092
1150.359, 2380.761
1150.841, 2407.328
1151.323, 2416.521
1151.805, 2387.877
1152.287, 2365.309
1152.770, 2350.116
1153.252, 2344.590
1153.734, 2354.148
1154.216, 2374.015
1154.698, 2393.089
1155.180, 2409.717
1155.662, 2417.607
1156.144, 2407.229
1156.627, 2396.792
1157.109, 2389.142
1157.591, 2384.057
1158.073, 2381.610
1158.555, 2381.583
1159.037, 2381.518
1159.519, 2381.708
1160.001, 2387.580
1160.484, 2416.396
1160.966, 2434.081
1161.448, 2420.215
1161.930, 2392.402
1162.412, 2384.858
1162.894, 2394.959
1163.376, 2396.402
1163.858, 2383.891
1164.340, 2379.648
1164.823, 2412.895
1165.305, 2445.891
1165.787, 2452.100
1166.269, 2438.823
1166.751, 2437.175
1167.233, 2446.673
1167.715, 2444.755
1168.197, 2420.611
1168.679, 2400.923
1169.162, 2414.791
1169.644, 2438.567
1170.126, 2451.357
1170.608, 2452.894
1171.090, 2444.613
1171.572, 2425.402
1172.054, 2415.933
1172.536, 2426.521
1173.019, 2447.944
1173.501, 2483.708
1173.983, 2518.681
1174.465, 2529.723
1174.947, 2508.855
1175.429, 2503.105
1175.911, 2515.573
1176.393, 2521.259
1176.875, 2490.220
1177.358, 2457.287
1177.840, 2474.101
1178.322, 2516.133
1178.804, 2532.906
1179.286, 2501.749
1179.768, 2487.177
1180.250, 2492.269
1180.732, 2506.430
1181.214, 2529.206
1181.697, 2550.159
1182.179, 2550.699
1182.661, 2536.954
1183.143, 2531.998
1183.625, 2544.567
1184.107, 2554.915
1184.589, 2560.933
1185.071, 2565.104
1185.554, 2571.865
1186.036, 2577.579
1186.518, 2573.950
1187.000, 2562.244
1187.482, 2556.150
1187.964, 2561.354
1188.446, 2565.139
1188.928, 2563.526
1189.411, 2564.047
1189.893, 2582.553
1190.375, 2608.623
1190.857, 2622.309
1191.339, 2621.427
1191.821, 2620.820
1192.303, 2625.159
1192.785, 2627.186
1193.267, 2623.992
1193.750, 2618.973
1194.232, 2614.729
1194.714, 2614.254
1195.196, 2625.808
1195.678, 2653.148
1196.160, 2675.917
1196.642, 2689.292
1197.124, 2697.985
1197.606, 2703.051
1198.089, 2705.444
1198.571, 2706.858
1199.053, 2707.456
1199.535, 2706.627
1200.017, 2701.682
1200.499, 2704.847
1200.981, 2725.762
1201.463, 2743.367
1201.945, 2742.658
1202.428, 2733.004
1202.910, 2744.403
1203.392, 2769.285
1203.874, 2786.418
1204.356, 2781.465
1204.838, 2782.924
1205.320, 2796.942
1205.802, 2817.290
1206.285, 2845.064
1206.767, 2874.748
1207.249, 2882.963
1207.731, 2874.680
1208.213, 2866.145
1208.695, 2853.958
1209.177, 2859.246
1209.659, 2897.442
1210.141, 2933.538
1210.624, 2927.915
1211.106, 2895.781
1211.588, 2894.318
1212.070, 2918.146
1212.552, 2939.790
1213.034, 2948.547
1213.516, 2949.852
1213.998, 2939.590
1214.480, 2931.028
1214.963, 2941.920
1215.445, 2965.854
1215.927, 2981.602
1216.409, 2989.156
1216.891, 2995.081
1217.373, 3002.832
1217.855, 3008.277
1218.337, 3009.930
1218.820, 3010.344
1219.302, 3009.950
1219.784, 3011.529
1220.266, 3028.471
1220.748, 3059.424
1221.230, 3079.034
1221.712, 3057.742
1222.194, 3050.551
1222.677, 3075.694
1223.159, 3111.296
1223.641, 3121.861
1224.123, 3116.595
1224.605, 3117.760
1225.087, 3127.913
1225.569, 3145.671
1226.051, 3185.349
1226.533, 3211.765
1227.016, 3212.771
1227.498, 3201.819
1227.980, 3200.041
1228.462, 3205.017
1228.944, 3213.030
1229.426, 3223.740
1229.908, 3230.001
1230.390, 3222.151
1230.872, 3221.863
1231.355, 3237.216
1231.837, 3260.300
1232.319, 3278.314
1232.801, 3292.133
1233.283, 3302.037
1233.765, 3307.295
1234.247, 3316.616
1234.729, 3333.921
1235.212, 3351.127
1235.694, 3367.691
1236.176, 3378.954
1236.658, 3367.338
1237.140, 3346.736
1237.622, 3344.524
1238.104, 3370.275
1238.586, 3390.931
1239.068, 3399.328
1239.551, 3412.087
1240.033, 3440.907
1240.515, 3470.177
1240.997, 3466.425
1241.479, 3446.509
1241.961, 3439.131
1242.443, 3452.972
1242.925, 3469.065
1243.407, 3485.954
1243.890, 3506.538
1244.372, 3534.751
1244.854, 3563.145
1245.336, 3580.744
1245.818, 3589.365
1246.300, 3589.072
1246.782, 3572.814
1247.264, 3574.878
1247.747, 3599.117
1248.229, 3623.607
1248.711, 3637.459
1249.193, 3644.960
1249.675, 3642.594
1250.157, 3641.824
1250.639, 3665.174
1251.121, 3726.108
1251.604, 3755.241
1252.086, 3749.058
1252.568, 3737.808
1253.050, 3734.198
1253.532, 3738.524
1254.014, 3753.588
1254.496, 3775.840
1254.978, 3802.692
1255.460, 3837.564
1255.943, 3848.292
1256.425, 3833.565
1256.907, 3826.211
1257.389, 3850.166
1257.871, 3882.086
1258.353, 3914.209
1258.835, 3936.545
1259.317, 3933.510
1259.799, 3900.047
1260.281, 3890.879
1260.764, 3905.111
1261.246, 3926.254
1261.728, 3952.717
1262.210, 3974.262
1262.692, 3983.135
1263.174, 3985.866
1263.656, 3987.224
1264.138, 3987.549
1264.621, 4001.222
1265.103, 4026.597
1265.585, 4048.819
1266.067, 4051.223
1266.549, 4059.485
1267.031, 4092.498
1267.513, 4127.242
1267.995, 4140.003
1268.478, 4135.326
1268.960, 4143.724
1269.442, 4163.206
1269.924, 4180.560
1270.406, 4184.159
1270.888, 4192.680
1271.370, 4211.155
1271.852, 4232.424
1272.334, 4249.984
1272.817, 4264.697
1273.299, 4280.403
1273.781, 4296.233
1274.263, 4309.278
1274.745, 4320.177
1275.227, 4323.132
1275.709, 4312.290
1276.191, 4307.584
1276.673, 4334.605
1277.156, 4376.179
1277.638, 4404.267
1278.120, 4420.248
1278.602, 4432.460
1279.084, 4441.539
1279.566, 4447.507
1280.048, 4447.998
1280.530, 4456.508
1281.013, 4495.436
1281.495, 4540.225
1281.977, 4558.657
1282.459, 4560.710
1282.941, 4575.163
1283.423, 4609.215
1283.905, 4629.247
1284.387, 4632.794
1284.870, 4632.650
1285.352, 4635.095
1285.834, 4641.360
1286.316, 4655.140
1286.798, 4672.436
1287.280, 4684.693
1287.762, 4691.259
1288.244, 4706.471
##END=



