##NAMES=Cerianite-(Ce)
##RRUFFID=R050379
##IDEAL CHEMISTRY=CeO_2_
##LOCALITY=Sierra de Bermejillo, Durango, Mexico
##OWNER=RRUFF
##SOURCE=University of Arizona Mineral Museum
##DESCRIPTION=Black crystals or grains, exhibiting a greasy luster
##STATUS=The identification of this mineral has been confirmed by single-crystal X-ray diffraction.
##URL=rruff.info/R050379
92.52344, 239.0959
93.00555, 238.5745
93.48767, 238.9257
93.96979, 245.0324
94.45190, 250.2982
94.93402, 253.5380
95.41614, 252.2950
95.89825, 248.4346
96.38037, 244.3517
96.86249, 239.9880
97.34460, 235.2245
97.82672, 229.9341
98.30884, 224.9518
98.79095, 220.3792
99.27307, 215.9129
99.75519, 211.4919
100.2373, 207.9008
100.7194, 205.0476
101.2015, 201.7009
101.6837, 197.1651
102.1658, 192.5999
102.6479, 188.7439
103.1300, 185.5662
103.6121, 183.0461
104.0942, 181.3956
104.5764, 180.3325
105.0585, 179.6213
105.5406, 179.3454
106.0227, 179.3508
106.5048, 179.1830
106.9869, 178.7471
107.4691, 178.1378
107.9512, 177.3770
108.4333, 176.4952
108.9154, 175.5682
109.3975, 174.5873
109.8796, 173.4876
110.3618, 172.7171
110.8439, 172.5547
111.3260, 172.4697
111.8081, 172.2447
112.2902, 171.8497
112.7723, 171.3824
113.2544, 170.9850
113.7366, 170.7451
114.2187, 170.4079
114.7008, 169.9393
115.1829, 169.3978
115.6650, 168.8119
116.1471, 168.1882
116.6293, 167.5687
117.1114, 167.0732
117.5935, 166.8128
118.0756, 166.4529
118.5577, 165.8138
119.0398, 165.0057
119.5220, 164.2851
120.0041, 163.7751
120.4862, 163.4312
120.9683, 163.1267
121.4504, 162.8961
121.9325, 162.6443
122.4147, 162.2923
122.8968, 161.8340
123.3789, 161.3364
123.8610, 160.8522
124.3431, 160.3341
124.8252, 159.7282
125.3074, 159.0134
125.7895, 158.2058
126.2716, 157.2809
126.7537, 156.0124
127.2358, 155.0727
127.7179, 154.8783
128.2001, 155.0300
128.6822, 154.9898
129.1643, 154.3972
129.6464, 153.3025
130.1285, 152.3789
130.6107, 151.7627
131.0928, 151.1981
131.5749, 150.6664
132.0570, 150.1466
132.5391, 149.6016
133.0212, 148.9926
133.5034, 148.2924
133.9855, 147.7257
134.4676, 147.3164
134.9497, 146.9902
135.4318, 146.6952
135.9139, 146.4312
136.3960, 146.2505
136.8782, 146.2367
137.3603, 146.4345
137.8424, 146.5759
138.3245, 146.6848
138.8066, 146.7146
139.2887, 146.5705
139.7709, 146.2008
140.2530, 145.7771
140.7351, 145.5020
141.2172, 145.3576
141.6993, 145.2908
142.1814, 145.3875
142.6636, 145.5721
143.1457, 145.5242
143.6278, 144.9536
144.1099, 144.3881
144.5920, 144.2765
145.0741, 144.6214
145.5563, 145.1162
146.0384, 145.5683
146.5205, 145.9965
147.0026, 146.2168
147.4847, 145.8374
147.9668, 145.4705
148.4490, 145.5736
148.9311, 146.2078
149.4132, 146.9350
149.8953, 147.0224
150.3774, 145.9707
150.8595, 145.2950
151.3417, 145.1804
151.8238, 145.3713
152.3059, 145.7210
152.7880, 146.1621
153.2701, 146.6532
153.7522, 147.0847
154.2344, 147.3752
154.7165, 147.6892
155.1986, 148.1398
155.6807, 148.5896
156.1628, 148.8434
156.6449, 148.7906
157.1271, 148.5148
157.6092, 148.3534
158.0913, 148.2632
158.5734, 148.3024
159.0555, 148.6084
159.5376, 149.0774
160.0198, 149.4164
160.5019, 149.4112
160.9840, 149.1824
161.4661, 149.1906
161.9482, 149.6184
162.4303, 150.0806
162.9125, 150.3305
163.3946, 150.3740
163.8767, 150.3200
164.3588, 150.1126
164.8409, 149.8852
165.3230, 149.8852
165.8052, 150.3290
166.2873, 150.8570
166.7694, 150.9109
167.2515, 150.3201
167.7336, 149.8428
168.2157, 150.0791
168.6979, 150.5758
169.1800, 150.7889
169.6621, 150.4202
170.1442, 149.6694
170.6263, 149.0742
171.1084, 148.6150
171.5906, 148.3815
172.0727, 148.6065
172.5548, 148.9981
173.0369, 149.1221
173.5190, 148.6585
174.0011, 147.7029
174.4833, 147.0671
174.9654, 147.0096
175.4475, 147.0510
175.9296, 147.1589
176.4117, 147.2914
176.8938, 147.4016
177.3760, 147.4547
177.8581, 147.4498
178.3402, 147.4155
178.8223, 147.2037
179.3044, 147.1070
179.7865, 147.3453
180.2687, 147.8190
180.7508, 148.2076
181.2329, 148.1938
181.7150, 147.7183
182.1971, 147.7024
182.6792, 148.5747
183.1614, 149.4807
183.6435, 149.8439
184.1256, 149.6776
184.6077, 149.4880
185.0898, 149.7316
185.5719, 150.4511
186.0541, 151.1299
186.5362, 151.8066
187.0183, 152.4090
187.5004, 152.8886
187.9825, 153.2443
188.4646, 153.4231
188.9468, 153.1409
189.4289, 152.5639
189.9110, 152.4273
190.3931, 153.2567
190.8752, 154.5161
191.3573, 155.4039
191.8395, 155.8314
192.3216, 155.9666
192.8037, 155.6612
193.2858, 155.1443
193.7679, 154.9824
194.2500, 155.6760
194.7322, 156.9467
195.2143, 157.9102
195.6964, 158.4793
196.1785, 158.8121
196.6606, 158.7883
197.1427, 158.6185
197.6249, 158.7795
198.1070, 159.7457
198.5891, 161.4126
199.0712, 162.7239
199.5533, 163.5521
200.0354, 164.1091
200.5176, 164.2627
200.9997, 164.2010
201.4818, 164.3174
201.9639, 164.9991
202.4460, 166.2691
202.9281, 167.1833
203.4103, 167.2969
203.8924, 167.4319
204.3745, 167.9918
204.8566, 168.8086
205.3387, 169.4025
205.8208, 169.3138
206.3030, 168.4445
206.7851, 167.8037
207.2672, 167.5283
207.7493, 167.3247
208.2314, 167.0682
208.7135, 166.7777
209.1957, 166.5729
209.6778, 166.5950
210.1599, 166.9125
210.6420, 166.8747
211.1241, 166.2532
211.6062, 165.5507
212.0884, 164.9050
212.5705, 164.3828
213.0526, 164.1360
213.5347, 164.3846
214.0168, 165.2154
214.4989, 165.5215
214.9811, 164.7483
215.4632, 163.9273
215.9453, 163.7766
216.4274, 164.3159
216.9095, 165.0634
217.3916, 165.6643
217.8737, 166.0996
218.3559, 166.3933
218.8380, 166.3370
219.3201, 166.2779
219.8022, 166.5573
220.2843, 167.2008
220.7664, 167.9113
221.2486, 168.4437
221.7307, 168.8454
222.2128, 169.3010
222.6949, 169.9536
223.1770, 170.6122
223.6591, 170.9973
224.1413, 171.0579
224.6234, 171.1512
225.1055, 171.5996
225.5876, 172.2588
226.0697, 172.8766
226.5518, 173.2920
227.0340, 173.6767
227.5161, 174.3262
227.9982, 175.3197
228.4803, 176.3007
228.9624, 177.0592
229.4445, 177.6745
229.9267, 178.2349
230.4088, 178.7368
230.8909, 179.2234
231.3730, 179.8018
231.8551, 180.5490
232.3372, 181.1861
232.8194, 181.4352
233.3015, 181.5743
233.7836, 181.9772
234.2657, 182.8820
234.7478, 184.0044
235.2299, 184.6478
235.7121, 184.5130
236.1942, 184.5024
236.6763, 184.8876
237.1584, 185.5087
237.6405, 186.2773
238.1227, 187.1996
238.6048, 188.0968
239.0869, 188.4466
239.5690, 187.7637
240.0511, 187.3864
240.5332, 187.8963
241.0154, 188.6447
241.4975, 188.9435
241.9796, 188.4946
242.4617, 187.5991
242.9438, 187.0277
243.4259, 187.0924
243.9081, 186.9951
244.3902, 186.5220
244.8723, 185.9246
245.3544, 185.4831
245.8365, 185.2987
246.3186, 185.2040
246.8008, 184.8007
247.2829, 183.7922
247.7650, 182.8858
248.2471, 182.1412
248.7292, 181.4894
249.2113, 180.8850
249.6935, 180.3077
250.1756, 179.7362
250.6577, 179.1304
251.1398, 178.5190
251.6219, 177.8209
252.1040, 176.7689
252.5862, 175.7786
253.0683, 175.3847
253.5504, 175.6999
254.0325, 176.1758
254.5146, 175.8894
254.9967, 174.1864
255.4789, 172.8976
255.9610, 172.2551
256.4431, 171.8926
256.9252, 171.5408
257.4073, 171.1251
257.8894, 170.6479
258.3716, 170.0974
258.8537, 169.4065
259.3358, 168.8402
259.8179, 168.4594
260.3000, 168.1646
260.7821, 167.8386
261.2643, 167.4677
261.7464, 167.1836
262.2285, 167.1492
262.7106, 167.4346
263.1927, 167.6684
263.6748, 167.8979
264.1570, 168.0383
264.6391, 167.9718
265.1212, 167.6971
265.6033, 167.3779
266.0854, 167.1555
266.5675, 167.0398
267.0497, 166.9672
267.5318, 166.9827
268.0139, 167.0088
268.4960, 166.9333
268.9781, 166.7625
269.4602, 166.7048
269.9424, 167.0059
270.4245, 167.5851
270.9066, 167.8605
271.3887, 167.4319
271.8708, 166.9902
272.3529, 167.0945
272.8351, 167.7190
273.3172, 168.4723
273.7993, 169.1798
274.2814, 169.8290
274.7635, 170.4072
275.2456, 170.7959
275.7278, 171.2428
276.2099, 171.9803
276.6920, 172.9730
277.1741, 173.9299
277.6562, 174.7140
278.1383, 175.3673
278.6205, 175.9702
279.1026, 176.4524
279.5847, 177.0466
280.0668, 177.8510
280.5489, 178.8803
281.0310, 180.2704
281.5132, 182.3350
281.9953, 184.5078
282.4774, 185.9959
282.9595, 186.7265
283.4416, 187.2303
283.9237, 187.6195
284.4059, 187.9848
284.8880, 188.7568
285.3701, 190.1839
285.8522, 191.8655
286.3343, 193.3642
286.8164, 194.6897
287.2986, 196.0374
287.7807, 197.5520
288.2628, 199.1787
288.7449, 200.7081
289.2270, 202.0641
289.7091, 203.4156
290.1913, 204.9473
290.6734, 206.6065
291.1555, 208.2476
291.6376, 209.8542
292.1197, 211.3793
292.6018, 212.6977
293.0840, 213.7142
293.5661, 214.7158
294.0482, 215.9488
294.5303, 217.2945
295.0124, 218.5548
295.4945, 219.6468
295.9767, 220.6011
296.4588, 221.6018
296.9409, 222.8358
297.4230, 223.4662
297.9051, 222.5624
298.3872, 220.9539
298.8694, 219.5619
299.3515, 218.6861
299.8336, 218.0559
300.3157, 217.4762
300.7978, 217.0415
301.2799, 216.0479
301.7621, 213.8432
302.2442, 211.1154
302.7263, 208.3744
303.2084, 205.6885
303.6905, 203.0971
304.1726, 200.6167
304.6548, 198.2527
305.1369, 196.0068
305.6190, 193.9426
306.1011, 191.9419
306.5832, 189.8541
307.0653, 187.6819
307.5475, 185.6918
308.0296, 184.2551
308.5117, 183.3102
308.9938, 182.0111
309.4759, 179.8144
309.9580, 177.7840
310.4402, 176.7496
310.9223, 176.5125
311.4044, 176.2886
311.8865, 175.5133
312.3686, 174.3301
312.8507, 173.3547
313.3329, 172.6439
313.8150, 172.0704
314.2971, 171.6424
314.7792, 171.2735
315.2613, 170.7845
315.7434, 169.9984
316.2256, 169.1013
316.7077, 168.5371
317.1898, 168.4310
317.6719, 168.2955
318.1540, 167.8442
318.6361, 167.2756
319.1183, 166.7956
319.6004, 166.4651
320.0825, 166.2351
320.5646, 166.0300
321.0467, 165.8377
321.5288, 165.7505
322.0110, 165.9668
322.4931, 166.1970
322.9752, 166.1643
323.4573, 165.8198
323.9394, 165.4612
324.4215, 165.4064
324.9037, 165.6479
325.3858, 165.8054
325.8679, 165.7957
326.3500, 165.6919
326.8321, 165.4466
327.3142, 165.1111
327.7964, 164.9666
328.2785, 165.2993
328.7606, 166.0115
329.2427, 166.6533
329.7248, 167.2583
330.2069, 167.6817
330.6891, 167.7780
331.1712, 167.6535
331.6533, 167.5144
332.1354, 167.3499
332.6175, 167.2812
333.0996, 167.6526
333.5818, 168.6414
334.0639, 169.5009
334.5460, 169.6152
335.0281, 169.4701
335.5102, 169.6093
335.9923, 170.2158
336.4745, 171.0448
336.9566, 171.8063
337.4387, 172.4847
337.9208, 173.3254
338.4029, 174.7307
338.8850, 176.0879
339.3671, 176.7229
339.8492, 176.5449
340.3314, 176.2320
340.8135, 176.2292
341.2956, 176.5136
341.7777, 176.9745
342.2598, 177.7110
342.7419, 178.4502
343.2241, 178.8935
343.7062, 179.1071
344.1883, 179.4216
344.6704, 179.9370
345.1525, 180.6709
345.6346, 181.7592
346.1168, 183.3407
346.5989, 184.8433
347.0810, 185.7040
347.5631, 186.2028
348.0452, 186.8170
348.5273, 187.7104
349.0095, 188.7305
349.4916, 189.7988
349.9737, 190.9179
350.4558, 191.7859
350.9379, 192.1024
351.4200, 192.1631
351.9022, 192.4223
352.3843, 192.8837
352.8664, 193.5889
353.3485, 194.6181
353.8306, 195.9267
354.3127, 197.3688
354.7949, 198.9857
355.2770, 200.5973
355.7591, 201.9668
356.2412, 203.1003
356.7233, 204.2219
357.2054, 205.4268
357.6876, 206.6643
358.1697, 207.8253
358.6518, 208.8790
359.1339, 209.9742
359.6160, 211.1765
360.0981, 212.5218
360.5803, 214.1497
361.0624, 216.4695
361.5445, 218.7806
362.0266, 220.3625
362.5087, 221.3042
362.9908, 222.3292
363.4730, 223.8217
363.9551, 225.6975
364.4372, 227.6697
364.9193, 229.7242
365.4014, 231.8699
365.8835, 234.1074
366.3657, 236.4272
366.8478, 238.8616
367.3299, 241.4359
367.8120, 244.0235
368.2941, 246.4267
368.7762, 248.6080
369.2584, 250.7780
369.7405, 252.7704
370.2226, 254.8665
370.7047, 257.3652
371.1868, 260.3084
371.6689, 263.4891
372.1511, 266.8462
372.6332, 270.3895
373.1153, 273.3114
373.5974, 275.2596
374.0795, 277.0291
374.5616, 278.7675
375.0438, 280.6281
375.5259, 282.9797
376.0080, 286.0428
376.4901, 289.6527
376.9722, 293.2268
377.4543, 297.0113
377.9365, 300.4357
378.4186, 303.2592
378.9007, 305.7767
379.3828, 308.2165
379.8649, 310.6635
380.3470, 313.2104
380.8292, 316.0130
381.3113, 319.2618
381.7934, 322.2144
382.2755, 324.6546
382.7576, 327.0320
383.2397, 329.6171
383.7219, 332.3832
384.2040, 335.1060
384.6861, 337.5935
385.1682, 339.8674
385.6503, 342.1768
386.1324, 344.5484
386.6146, 346.9250
387.0967, 349.4261
387.5788, 351.8661
388.0609, 354.0468
388.5430, 355.8744
389.0251, 357.3788
389.5073, 358.5867
389.9894, 359.2950
390.4715, 360.1277
390.9536, 361.3247
391.4357, 362.4767
391.9178, 363.3502
392.4000, 363.9105
392.8821, 364.2388
393.3642, 364.3785
393.8463, 364.3232
394.3284, 364.2619
394.8105, 364.2749
395.2927, 364.1759
395.7748, 363.9800
396.2569, 363.6233
396.7390, 362.9555
397.2211, 361.8307
397.7032, 360.5071
398.1854, 359.7419
398.6675, 359.9673
399.1496, 359.4235
399.6317, 356.8935
400.1138, 353.8393
400.5959, 351.3626
401.0781, 349.6514
401.5602, 348.0907
402.0423, 346.1412
402.5244, 343.8383
403.0065, 341.5029
403.4886, 339.1190
403.9708, 336.8004
404.4529, 334.7004
404.9350, 332.7340
405.4171, 330.6322
405.8992, 328.1679
406.3813, 325.5705
406.8635, 323.1535
407.3456, 320.9132
407.8277, 318.8568
408.3098, 316.9857
408.7919, 315.2968
409.2740, 313.8070
409.7562, 312.6042
410.2383, 311.3585
410.7204, 309.7682
411.2025, 307.9624
411.6846, 306.3018
412.1667, 304.8757
412.6489, 303.5973
413.1310, 302.3266
413.6131, 301.0508
414.0952, 300.0573
414.5773, 299.6140
415.0594, 299.3268
415.5416, 298.7294
416.0237, 297.8612
416.5058, 297.2679
416.9879, 297.3833
417.4700, 298.0473
417.9521, 298.3747
418.4343, 298.0888
418.9164, 297.8576
419.3985, 297.7721
419.8806, 297.8771
420.3627, 298.3234
420.8448, 299.1544
421.3270, 300.0747
421.8091, 300.6059
422.2912, 300.4395
422.7733, 300.7946
423.2554, 302.0750
423.7375, 303.4774
424.2197, 304.3808
424.7018, 304.9406
425.1839, 305.7738
425.6660, 307.3385
426.1481, 309.5375
426.6302, 311.7710
427.1124, 313.8927
427.5945, 316.2301
428.0766, 319.0563
428.5587, 321.9881
429.0408, 324.6534
429.5229, 326.9390
430.0051, 329.0482
430.4872, 331.1629
430.9693, 333.1349
431.4514, 335.6911
431.9335, 339.5448
432.4156, 343.4113
432.8978, 346.4978
433.3799, 349.1684
433.8620, 352.4643
434.3441, 357.1699
434.8262, 362.8034
435.3083, 367.9108
435.7905, 372.2248
436.2726, 376.7063
436.7547, 381.6412
437.2368, 386.9638
437.7189, 392.6664
438.2010, 398.7570
438.6832, 405.1110
439.1653, 411.8248
439.6474, 418.7695
440.1295, 425.2237
440.6116, 430.7456
441.0938, 436.3723
441.5759, 442.8358
442.0580, 450.0469
442.5401, 457.9933
443.0222, 467.3378
443.5043, 476.9214
443.9865, 485.7210
444.4686, 493.7319
444.9507, 501.1964
445.4328, 507.9802
445.9149, 514.5345
446.3970, 521.8983
446.8792, 530.2364
447.3613, 538.6645
447.8434, 547.1144
448.3255, 555.4505
448.8076, 563.4496
449.2897, 571.1249
449.7719, 578.7347
450.2540, 586.5640
450.7361, 594.6656
451.2182, 602.3427
451.7003, 609.5403
452.1824, 616.4490
452.6646, 623.0497
453.1467, 629.4648
453.6288, 635.9744
454.1109, 642.7200
454.5930, 649.2158
455.0751, 654.5798
455.5573, 658.7770
456.0394, 661.7601
456.5215, 663.2455
457.0036, 663.9714
457.4857, 664.4934
457.9678, 664.6926
458.4500, 664.0449
458.9321, 662.1385
459.4142, 659.0433
459.8963, 655.1812
460.3784, 650.6652
460.8605, 645.1117
461.3427, 638.2988
461.8248, 630.5742
462.3069, 622.0824
462.7890, 612.8642
463.2711, 603.3528
463.7532, 594.2875
464.2354, 585.5300
464.7175, 575.7318
465.1996, 564.2682
465.6817, 552.4811
466.1638, 541.2321
466.6459, 530.4006
467.1281, 519.6783
467.6102, 508.9282
468.0923, 498.3179
468.5744, 488.0862
469.0565, 478.1588
469.5386, 468.6595
470.0208, 459.7480
470.5029, 451.1317
470.9850, 442.2453
471.4671, 432.8635
471.9492, 424.2103
472.4313, 417.0084
472.9135, 410.4028
473.3956, 403.3979
473.8777, 395.9614
474.3598, 388.7332
474.8419, 382.2965
475.3240, 376.5341
475.8062, 370.4139
476.2883, 363.1724
476.7704, 356.5343
477.2525, 351.1788
477.7346, 346.4812
478.2167, 341.8361
478.6989, 337.0157
479.1810, 332.0180
479.6631, 326.6620
480.1452, 320.7621
480.6273, 315.6343
481.1094, 311.9691
481.5916, 308.3976
482.0737, 304.4450
482.5558, 300.2859
483.0379, 296.2818
483.5200, 292.5991
484.0021, 289.0854
484.4843, 285.4642
484.9664, 281.7171
485.4485, 277.8613
485.9306, 273.5614
486.4127, 269.4546
486.8948, 266.0158
487.3770, 263.1804
487.8591, 260.5507
488.3412, 257.9922
488.8233, 255.4695
489.3054, 252.9578
489.7875, 250.4879
490.2697, 247.8523
490.7518, 244.8198
491.2339, 241.6447
491.7160, 238.7746
492.1981, 236.2547
492.6802, 233.9512
493.1624, 232.0158
493.6445, 230.2076
494.1266, 228.1227
494.6087, 225.6908
495.0908, 223.2044
495.5729, 220.8337
496.0551, 218.5966
496.5372, 216.9145
497.0193, 216.7397
497.5014, 215.9378
497.9835, 213.2470
498.4656, 209.7412
498.9478, 206.9359
499.4299, 205.3234
499.9120, 204.3100
500.3941, 203.0284
500.8762, 201.2905
501.3583, 200.0034
501.8405, 200.1227
502.3226, 199.7218
502.8047, 197.7415
503.2868, 194.7914
503.7689, 192.0160
504.2510, 189.9442
504.7331, 188.3707
505.2152, 186.9537
505.6974, 185.7001
506.1795, 184.5424
506.6616, 183.5256
507.1437, 182.5566
507.6258, 181.6372
508.1079, 180.7261
508.5901, 179.6582
509.0722, 178.1442
509.5543, 176.5313
510.0364, 175.3470
510.5185, 174.5914
511.0006, 173.9492
511.4828, 173.3325
511.9649, 172.6923
512.4470, 171.8949
512.9291, 170.8552
513.4113, 169.9622
513.8934, 169.4599
514.3755, 169.0701
514.8576, 168.5078
515.3397, 167.7524
515.8218, 166.9245
516.3040, 166.0803
516.7861, 165.2517
517.2682, 164.6815
517.7503, 164.5827
518.2324, 164.4857
518.7145, 164.4716
519.1967, 164.3654
519.6788, 163.9145
520.1609, 163.1328
520.6430, 162.3566
521.1251, 161.9501
521.6072, 161.8983
522.0894, 161.7364
522.5715, 161.3756
523.0536, 161.0448
523.5357, 160.8694
524.0178, 160.7411
524.4999, 160.5020
524.9821, 160.0974
525.4642, 159.7381
525.9463, 159.6153
526.4284, 159.7021
526.9105, 159.9149
527.3926, 160.3008
527.8748, 160.6340
528.3569, 160.6573
528.8390, 160.4772
529.3211, 160.4669
529.8032, 160.8535
530.2853, 161.2005
530.7675, 161.0464
531.2496, 160.7219
531.7317, 161.0021
532.2138, 162.1225
532.6959, 163.4037
533.1780, 163.9893
533.6602, 163.7456
534.1423, 163.6235
534.6244, 163.6299
535.1065, 163.7263
535.5886, 163.8465
536.0707, 164.0612
536.5529, 164.5450
537.0350, 165.3543
537.5171, 166.2421
537.9992, 166.7491
538.4813, 166.7579
538.9634, 166.9951
539.4456, 167.6641
539.9277, 168.3808
540.4098, 168.9819
540.8919, 169.4954
541.3740, 169.9942
541.8561, 170.5202
542.3383, 171.0128
542.8204, 171.3627
543.3025, 171.5872
543.7846, 171.8603
544.2667, 172.2335
544.7488, 172.6479
545.2310, 173.0644
545.7131, 173.4787
546.1952, 173.8315
546.6773, 174.1760
547.1594, 174.3965
547.6415, 174.3139
548.1237, 174.0492
548.6058, 173.9352
549.0879, 174.1133
549.5700, 174.3683
550.0521, 174.3391
550.5342, 173.9328
551.0164, 173.5174
551.4985, 173.1380
551.9806, 172.7099
552.4627, 172.2315
552.9448, 171.6673
553.4269, 170.8932
553.9091, 169.8288
554.3912, 168.7489
554.8733, 168.2904
555.3554, 168.6246
555.8375, 168.3553
556.3196, 166.9312
556.8018, 165.2744
557.2839, 163.9311
557.7660, 162.8335
558.2481, 161.8055
558.7302, 160.8547
559.2123, 159.8686
559.6945, 158.6563
560.1766, 157.2896
560.6587, 156.1395
561.1408, 155.3667
561.6229, 154.6815
562.1050, 153.6986
562.5872, 152.3601
563.0693, 151.1391
563.5514, 150.0794
564.0335, 149.1042
564.5156, 148.2219
564.9977, 147.3923
565.4799, 146.5498
565.9620, 145.6704
566.4441, 144.7606
566.9262, 143.8091
567.4083, 142.7681
567.8904, 141.8790
568.3726, 141.3089
568.8547, 140.7226
569.3368, 139.9872
569.8189, 139.1629
570.3010, 138.3490
570.7831, 137.5658
571.2653, 136.8448
571.7474, 136.2370
572.2295, 135.7318
572.7116, 135.2725
573.1937, 134.9545
573.6758, 134.4215
574.1580, 133.1274
574.6401, 131.3272
575.1222, 130.0255
575.6043, 129.6503
576.0864, 129.4128
576.5685, 128.9573
577.0507, 128.3806
577.5328, 127.8234
578.0149, 127.3252
578.4970, 126.8967
578.9791, 126.5598
579.4612, 126.3199
579.9434, 126.0422
580.4255, 125.7796
580.9076, 125.4135
581.3897, 124.8151
581.8718, 124.1538
582.3539, 123.6287
582.8361, 123.2748
583.3182, 122.9582
583.8003, 122.5479
584.2824, 122.0533
584.7645, 121.5189
585.2466, 120.8728
585.7288, 120.3939
586.2108, 120.4200
586.6929, 120.6005
587.1750, 120.3752
587.6572, 119.5864
588.1393, 118.9125
588.6214, 118.8200
589.1035, 118.9383
589.5856, 118.7142
590.0677, 118.1388
590.5499, 117.6676
591.0320, 117.6232
591.5141, 117.8628
591.9962, 117.8590
592.4783, 117.5185
592.9604, 117.0455
593.4426, 116.2705
593.9247, 115.5088
594.4068, 114.9617
594.8889, 114.6315
595.3710, 114.4268
595.8531, 114.2961
596.3353, 114.2449
596.8174, 114.3566
597.2995, 114.7050
597.7816, 114.7706
598.2637, 114.2518
598.7458, 113.6097
599.2280, 113.2419
599.7101, 113.1071
600.1922, 112.9760
600.6743, 112.7484
601.1564, 112.5197
601.6385, 112.3956
602.1207, 112.3365
602.6028, 112.1915
603.0849, 111.9006
603.5670, 111.6354
604.0491, 111.6437
604.5313, 111.9974
605.0134, 112.1708
605.4955, 112.1488
605.9776, 111.9903
606.4597, 111.5750
606.9418, 111.0939
607.4240, 110.7586
607.9061, 110.6388
608.3882, 110.7228
608.8703, 111.1914
609.3524, 111.9775
609.8345, 112.0646
610.3167, 111.1218
610.7988, 110.2776
611.2809, 110.2514
611.7630, 110.5820
612.2451, 110.5999
612.7272, 110.1571
613.2094, 109.8562
613.6915, 110.2053
614.1736, 110.7166
614.6557, 110.6692
615.1378, 110.0991
615.6199, 109.6373
616.1021, 109.6746
616.5842, 110.0586
617.0663, 110.3596
617.5484, 110.5367
618.0305, 110.6978
618.5126, 110.8856
618.9948, 111.0188
619.4769, 111.0013
619.9590, 110.8941
620.4411, 110.8400
620.9232, 110.9160
621.4053, 111.0561
621.8875, 111.1729
622.3696, 111.2662
622.8517, 111.2840
623.3338, 111.1342
623.8159, 111.0721
624.2980, 111.4546
624.7802, 112.1124
625.2623, 112.4769
625.7444, 112.3320
626.2265, 112.0798
626.7086, 111.8374
627.1907, 111.6293
627.6729, 111.4725
628.1550, 111.3783
628.6371, 111.4115
629.1192, 111.6637
629.6013, 112.0814
630.0834, 112.1980
630.5656, 111.7180
631.0477, 111.4286
631.5298, 111.5968
632.0119, 111.8528
632.4940, 111.9416
632.9761, 111.8513
633.4583, 111.6868
633.9404, 111.4301
634.4225, 111.2027
634.9046, 111.2632
635.3867, 111.5850
635.8688, 111.8156
636.3510, 111.8423
636.8331, 111.7441
637.3152, 111.5770
637.7973, 111.3260
638.2794, 111.2148
638.7615, 111.4208
639.2437, 111.5720
639.7258, 111.4738
640.2079, 111.2432
640.6900, 111.0308
641.1721, 110.8830
641.6542, 110.7951
642.1364, 110.7890
642.6185, 110.8496
643.1006, 110.7590
643.5827, 110.4166
644.0648, 110.1451
644.5469, 110.0572
645.0291, 110.0945
645.5112, 110.2906
645.9933, 110.6407
646.4754, 110.8178
646.9575, 110.4160
647.4396, 109.9542
647.9218, 110.1481
648.4039, 110.8308
648.8860, 111.1963
649.3681, 110.8959
649.8502, 110.3422
650.3323, 110.1736
650.8145, 110.5081
651.2966, 110.6883
651.7787, 110.6728
652.2608, 110.5578
652.7429, 110.3033
653.2250, 109.9954
653.7072, 109.6775
654.1893, 109.3756
654.6714, 109.2663
655.1535, 109.6859
655.6356, 110.4299
656.1177, 110.7986
656.5999, 110.7486
657.0820, 110.4869
657.5641, 109.9632
658.0462, 109.4165
658.5283, 109.3542
659.0104, 109.8610
659.4926, 110.2935
659.9747, 110.7106
660.4568, 110.8886
660.9389, 110.5017
661.4210, 109.7984
661.9031, 109.2649
662.3853, 109.0911
662.8674, 109.1339
663.3495, 109.2407
663.8316, 109.4242
664.3137, 109.4458
664.7958, 109.2052
665.2780, 108.9838
665.7601, 108.9738
666.2422, 109.0169
666.7243, 108.9225
667.2064, 108.6587
667.6885, 108.3646
668.1707, 108.1291
668.6528, 107.8824
669.1349, 107.5070
669.6170, 107.0365
670.0991, 106.6482
670.5812, 106.4356
671.0634, 106.2666
671.5455, 105.8920
672.0276, 105.2296
672.5097, 104.6856
672.9918, 104.5353
673.4739, 104.1997
673.9561, 103.2925
674.4382, 102.1969
674.9203, 101.4225
675.4024, 101.0992
675.8845, 100.9020
676.3666, 100.6359
676.8488, 100.2935
677.3309, 99.83130
677.8130, 99.25051
678.2951, 98.66035
678.7772, 98.10006
679.2593, 97.57313
679.7415, 97.07198
680.2236, 96.57085
680.7057, 96.19061
681.1878, 96.08559
681.6699, 95.93087
682.1520, 95.59946
682.6342, 95.11354
683.1163, 94.49539
683.5984, 93.75596
684.0805, 92.98830
684.5626, 92.25471
685.0447, 91.56797
685.5269, 90.97557
686.0090, 90.46384
686.4911, 90.14458
686.9732, 90.23389
687.4553, 90.39385
687.9374, 90.00294
688.4196, 89.00123
688.9017, 88.14513
689.3838, 87.58071
689.8659, 87.16431
690.3480, 86.88995
690.8301, 86.68051
691.3123, 86.46438
691.7944, 86.20177
692.2765, 85.77063
692.7586, 84.92519
693.2407, 83.72034
693.7228, 83.00212
694.2050, 82.94068
694.6871, 82.89342
695.1692, 82.64689
695.6513, 82.29836
696.1334, 81.92873
696.6155, 81.54026
697.0977, 81.20122
697.5798, 81.04633
698.0619, 80.83770
698.5440, 80.28472
699.0261, 79.56973
699.5082, 79.10371
699.9904, 78.99170
700.4725, 78.97144
700.9546, 78.76077
701.4367, 78.37322
701.9188, 78.00771
702.4009, 77.70987
702.8831, 77.34438
703.3652, 76.75176
703.8473, 76.17210
704.3294, 75.80390
704.8115, 75.62884
705.2936, 75.47086
705.7758, 75.24112
706.2579, 75.02261
706.7400, 74.92850
707.2221, 74.88888
707.7042, 74.71231
708.1863, 74.36382
708.6685, 74.04004
709.1506, 73.94135
709.6327, 74.01937
710.1148, 73.90901
710.5969, 73.55006
711.0790, 73.10879
711.5612, 72.50012
712.0433, 71.91158
712.5254, 71.45973
713.0075, 71.13345
713.4896, 70.88517
713.9717, 70.73878
714.4539, 70.58517
714.9360, 70.30598
715.4181, 69.95007
715.9002, 69.60998
716.3823, 69.30437
716.8644, 69.08480
717.3466, 69.00804
717.8287, 69.01848
718.3108, 68.90139
718.7929, 68.54870
719.2750, 68.27406
719.7571, 68.09587
720.2393, 67.98325
720.7214, 68.02600
721.2035, 68.10069
721.6856, 67.96267
722.1677, 67.50471
722.6498, 66.97404
723.1320, 66.45433
723.6141, 66.04649
724.0962, 66.08363
724.5783, 66.54350
725.0604, 66.85077
725.5425, 66.68229
726.0247, 66.21384
726.5068, 65.77908
726.9889, 65.31607
727.4710, 65.08082
727.9531, 64.90182
728.4352, 64.74273
728.9174, 65.38215
729.3995, 65.68872
729.8816, 65.68027
730.3637, 64.41334
730.8458, 64.77148
731.3279, 64.47837
731.8101, 64.15852
732.2922, 64.74538
732.7743, 63.66149
733.2564, 64.46304
733.7385, 64.59726
734.2206, 64.51012
734.7028, 64.22711
735.1849, 63.71986
735.6670, 63.44699
736.1491, 63.65442
736.6312, 63.78544
737.1133, 63.69448
737.5955, 63.53324
738.0776, 63.45396
738.5597, 63.44519
739.0418, 63.36207
739.5239, 63.04898
740.0060, 62.72504
740.4882, 62.72164
740.9703, 62.91628
741.4524, 62.86639
741.9345, 62.48220
742.4166, 62.19635
742.8987, 62.42027
743.3809, 63.00047
743.8630, 63.15419
744.3451, 62.56650
744.8272, 62.12225
745.3093, 61.89479
745.7914, 61.78912
746.2736, 61.77502
746.7557, 61.84155
747.2378, 62.00068
747.7199, 62.28896
748.2020, 62.52523
748.6841, 62.51461
749.1663, 62.38591
749.6484, 62.38490
750.1305, 62.50590
750.6126, 62.54873
751.0947, 62.40068
751.5768, 62.18667
752.0590, 62.13520
752.5411, 62.28204
753.0232, 62.43000
753.5053, 62.67499
753.9874, 62.78770
754.4695, 62.55666
754.9517, 62.25299
755.4338, 62.17702
755.9159, 62.35728
756.3980, 62.58384
756.8801, 62.86729
757.3622, 63.06083
757.8444, 62.87980
758.3265, 62.51577
758.8086, 62.48180
759.2907, 62.88999
759.7728, 63.35648
760.2549, 63.50809
760.7371, 63.39157
761.2192, 63.27301
761.7013, 63.09955
762.1834, 63.06818
762.6655, 63.27046
763.1476, 63.56946
763.6298, 63.92426
764.1119, 64.29790
764.5940, 64.60224
765.0761, 64.85178
765.5582, 64.96144
766.0403, 64.75686
766.5225, 64.47930
767.0046, 64.35683
767.4867, 64.41939
767.9688, 64.68966
768.4509, 65.18640
768.9330, 65.72660
769.4152, 65.96272
769.8973, 65.87937
770.3794, 65.94677
770.8615, 66.22699
771.3436, 66.50838
771.8257, 66.68140
772.3079, 66.81694
772.7900, 67.03124
773.2721, 67.33281
773.7542, 67.59241
774.2363, 67.79090
774.7184, 67.94353
775.2006, 67.93105
775.6827, 67.94092
776.1648, 68.33186
776.6469, 69.07607
777.1290, 69.66909
777.6111, 69.63966
778.0933, 69.30977
778.5754, 69.48526
779.0575, 70.14110
779.5396, 70.55981
780.0217, 70.58477
780.5038, 70.41139
780.9860, 70.10988
781.4681, 69.74949
781.9502, 69.63290
782.4323, 69.82978
782.9144, 70.15136
783.3965, 70.69866
783.8787, 71.26024
784.3608, 71.82595
784.8429, 72.28884
785.3250, 72.42931
785.8071, 72.17662
786.2892, 71.88631
786.7714, 71.85926
787.2535, 72.00018
787.7356, 72.18153
788.2177, 72.37932
788.6998, 72.47724
789.1819, 72.43047
789.6641, 72.28491
790.1462, 72.06839
790.6283, 71.78211
791.1104, 71.69356
791.5925, 71.90705
792.0746, 72.14503
792.5568, 72.57981
793.0389, 72.83439
793.5210, 72.48535
794.0031, 71.71427
794.4852, 71.15260
794.9673, 71.02347
795.4495, 71.06512
795.9316, 71.28621
796.4137, 71.48386
796.8958, 71.32608
797.3779, 70.86546
797.8600, 70.42924
798.3422, 70.18637
798.8243, 70.04803
799.3064, 69.85733
799.7885, 69.60799
800.2706, 69.49214
800.7527, 69.57825
801.2349, 69.58736
801.7170, 69.37134
802.1991, 69.05747
802.6812, 68.80830
803.1633, 68.62344
803.6454, 68.46523
804.1276, 68.50529
804.6097, 68.36032
805.0918, 67.59611
805.5739, 66.77744
806.0560, 66.63366
806.5381, 67.05803
807.0203, 67.28407
807.5024, 66.82032
807.9845, 66.10101
808.4666, 65.73172
808.9487, 65.62545
809.4308, 65.42998
809.9130, 65.10123
810.3951, 64.81422
810.8772, 64.69444
811.3593, 64.61262
811.8414, 64.27775
812.3235, 63.55646
812.8057, 63.07740
813.2878, 63.02903
813.7699, 62.99008
814.2520, 62.84046
814.7341, 62.65039
815.2162, 62.47311
815.6984, 62.32081
816.1805, 62.22700
816.6626, 62.34539
817.1447, 62.38173
817.6268, 61.99807
818.1089, 61.44273
818.5911, 61.10937
819.0732, 61.03884
819.5553, 61.07025
820.0374, 61.11352
820.5195, 61.11409
821.0016, 60.89186
821.4838, 60.43402
821.9659, 60.27183
822.4480, 60.55621
822.9301, 60.74895
823.4122, 60.51077
823.8943, 60.08046
824.3765, 59.89738
824.8586, 60.03373
825.3407, 60.03350
825.8228, 59.68172
826.3049, 59.43457
826.7870, 59.49318
827.2692, 59.70275
827.7513, 59.99135
828.2334, 60.28224
828.7155, 60.35921
829.1976, 60.03247
829.6797, 59.58224
830.1619, 59.24541
830.6440, 59.04476
831.1261, 59.14319
831.6082, 59.50615
832.0903, 59.68089
832.5724, 59.39031
833.0546, 58.85360
833.5367, 58.49384
834.0188, 58.33146
834.5009, 58.18670
834.9830, 58.00368
835.4651, 57.95700
835.9473, 58.26152
836.4294, 58.61527
836.9115, 58.68065
837.3936, 58.46773
837.8757, 58.21290
838.3578, 57.80266
838.8400, 57.54472
839.3221, 57.72773
839.8042, 57.99066
840.2863, 57.90368
840.7684, 57.55233
841.2505, 57.35009
841.7327, 57.51239
842.2148, 57.77959
842.6969, 57.87962
843.1790, 57.83241
843.6611, 57.66878
844.1432, 57.39880
844.6254, 57.11478
845.1075, 56.85352
845.5896, 56.59264
846.0717, 56.26541
846.5538, 55.87084
847.0359, 55.83603
847.5181, 56.42509
848.0002, 56.85528
848.4823, 56.88171
848.9644, 56.78627
849.4465, 56.69944
849.9286, 56.64895
850.4108, 56.73692
850.8929, 57.14696
851.3750, 57.31416
851.8571, 56.79144
852.3392, 56.16622
852.8214, 55.92563
853.3035, 55.96322
853.7856, 56.01882
854.2677, 55.99928
854.7498, 55.90370
855.2319, 55.68243
855.7141, 55.40968
856.1962, 55.25282
856.6783, 55.20339
857.1604, 55.22678
857.6425, 55.32427
858.1246, 55.34918
858.6068, 55.16606
859.0889, 54.83111
859.5710, 54.53176
860.0531, 54.18441
860.5352, 54.10791
861.0173, 54.56536
861.4995, 54.96221
861.9816, 54.94859
862.4637, 54.76868
862.9458, 54.78217
863.4279, 55.03359
863.9100, 55.11298
864.3922, 54.76483
864.8743, 54.39272
865.3564, 54.13560
865.8385, 54.01955
866.3206, 54.23029
866.8027, 54.63543
867.2849, 54.68785
867.7670, 54.00459
868.2491, 53.12167
868.7312, 52.71885
869.2133, 52.67924
869.6954, 52.70552
870.1776, 52.76477
870.6597, 52.81384
871.1418, 52.83413
871.6239, 52.83234
872.1060, 52.82711
872.5881, 52.81771
873.0703, 52.68427
873.5524, 52.35740
874.0345, 52.08697
874.5166, 51.96455
874.9987, 51.87125
875.4808, 51.67747
875.9630, 51.43502
876.4451, 51.30787
876.9272, 51.36631
877.4093, 51.40872
877.8914, 51.41786
878.3735, 51.37651
878.8557, 51.20321
879.3378, 51.00285
879.8199, 50.96715
880.3020, 51.11785
880.7841, 51.23315
881.2662, 51.13655
881.7484, 50.94930
882.2305, 50.80764
882.7126, 50.69615
883.1947, 50.57262
883.6768, 50.43441
884.1589, 50.31776
884.6411, 50.24770
885.1232, 50.20541
885.6053, 50.14931
886.0874, 50.07807
886.5695, 50.07302
887.0516, 50.18720
887.5338, 50.13227
888.0159, 49.71344
888.4980, 49.21352
888.9801, 48.94673
889.4622, 48.91315
889.9443, 49.04043
890.4265, 49.60698
890.9086, 49.93166
891.3907, 49.76105
891.8728, 49.51735
892.3549, 49.46976
892.8370, 49.53850
893.3192, 49.56297
893.8013, 49.51852
894.2834, 49.33809
894.7655, 48.75637
895.2476, 48.24624
895.7297, 48.36134
896.2119, 48.76530
896.6940, 48.79562
897.1761, 48.40172
897.6582, 48.14672
898.1403, 48.47246
898.6224, 48.99157
899.1046, 49.00484
899.5867, 48.64648
900.0688, 48.55861
900.5509, 48.79293
901.0330, 48.93229
901.5151, 48.76949
901.9973, 48.47379
902.4794, 48.28713
902.9615, 48.20966
903.4436, 48.16578
903.9257, 48.17220
904.4078, 48.16870
904.8900, 48.14263
905.3721, 48.10456
905.8542, 48.08750
906.3363, 48.06293
906.8184, 47.92934
907.3005, 47.58989
907.7827, 47.37900
908.2648, 47.35165
908.7469, 47.44598
909.2290, 47.70642
909.7111, 48.02810
910.1932, 48.34045
910.6754, 48.60266
911.1575, 48.68640
911.6396, 48.40417
912.1217, 48.10741
912.6038, 48.19758
913.0859, 48.38226
913.5681, 48.11691
914.0502, 47.52874
914.5323, 47.26245
915.0144, 47.59442
915.4965, 48.07496
915.9786, 48.13737
916.4607, 47.91338
916.9428, 47.88344
917.4249, 48.03328
917.9070, 48.18204
918.3892, 48.29144
918.8713, 48.32081
919.3534, 48.21603
919.8355, 48.04512
920.3176, 48.02303
920.7997, 48.18956
921.2819, 48.36416
921.7640, 48.57679
922.2461, 48.73397
922.7282, 48.78274
923.2103, 48.77064
923.6924, 48.78169
924.1746, 48.80891
924.6567, 48.68264
925.1388, 48.12361
925.6209, 47.79409
926.1030, 47.91938
926.5851, 48.20861
927.0673, 48.58826
927.5494, 48.94518
928.0315, 49.05796
928.5136, 48.86292
928.9957, 48.77597
929.4778, 49.20689
929.9600, 49.64083
930.4421, 49.62494
930.9242, 49.35120
931.4063, 49.06197
931.8884, 48.83602
932.3705, 48.75031
932.8527, 48.85414
933.3348, 49.06649
933.8169, 49.39419
934.2990, 49.72237
934.7811, 49.63800
935.2632, 49.19632
935.7454, 48.89640
936.2275, 48.90226
936.7096, 49.04325
937.1917, 49.17265
937.6738, 49.27227
938.1559, 49.24555
938.6381, 49.06632
939.1202, 48.98055
939.6023, 49.02884
940.0844, 49.12203
940.5665, 49.23389
941.0486, 49.34014
941.5308, 49.39944
942.0129, 49.40760
942.4950, 49.41531
942.9771, 49.42340
943.4592, 49.42936
943.9413, 49.35284
944.4235, 49.35167
944.9056, 49.63329
945.3877, 50.03817
945.8698, 50.20149
946.3519, 50.02442
946.8340, 49.85139
947.3162, 49.75485
947.7983, 49.70144
948.2804, 49.74337
948.7625, 49.77376
949.2446, 49.61762
949.7267, 49.32322
950.2089, 49.13066
950.6910, 49.14592
951.1731, 49.28753
951.6552, 49.51787
952.1373, 49.81836
952.6194, 50.32824
953.1016, 50.85780
953.5837, 50.85484
954.0658, 50.24112
954.5479, 49.67358
955.0300, 49.71269
955.5121, 50.07298
955.9943, 50.27388
956.4764, 50.33665
956.9585, 50.34411
957.4406, 50.30455
957.9227, 50.16307
958.4048, 49.88181
958.8870, 49.64593
959.3691, 49.72282
959.8512, 50.06978
960.3333, 50.35500
960.8154, 50.57868
961.2975, 50.71992
961.7797, 50.74968
962.2618, 50.78953
962.7439, 50.96075
963.2260, 51.13745
963.7081, 51.01167
964.1902, 50.46878
964.6724, 50.24211
965.1545, 50.54000
965.6366, 50.80971
966.1187, 50.92467
966.6008, 50.96843
967.0829, 50.94587
967.5651, 50.90703
968.0472, 51.02232
968.5293, 51.39967
969.0114, 51.66941
969.4935, 51.72975
969.9756, 51.73507
970.4578, 51.70730
970.9399, 51.69254
971.4220, 51.76617
971.9041, 51.90379
972.3862, 51.97422
972.8683, 51.92431
973.3505, 51.81879
973.8326, 51.50912
974.3147, 51.32167
974.7968, 51.68853
975.2789, 52.34004
975.7610, 52.80037
976.2432, 52.96244
976.7253, 52.98212
977.2074, 52.91723
977.6895, 52.82800
978.1716, 52.76097
978.6537, 52.72472
979.1359, 52.72306
979.6180, 52.76551
980.1001, 52.90241
980.5822, 53.14446
981.0643, 53.37279
981.5464, 53.45070
982.0286, 53.44734
982.5107, 53.54089
982.9928, 53.70058
983.4749, 53.73403
983.9570, 53.62920
984.4391, 53.65252
984.9213, 53.95140
985.4034, 54.36471
985.8855, 54.66704
986.3676, 54.86843
986.8497, 55.07075
987.3318, 55.28793
987.8140, 55.31195
988.2961, 55.06420
988.7782, 54.78296
989.2603, 54.58515
989.7424, 54.52619
990.2245, 54.75629
990.7067, 55.33637
991.1888, 55.70884
991.6709, 55.83093
992.1530, 55.84539
992.6351, 55.70819
993.1172, 55.58089
993.5994, 55.51526
994.0815, 55.57685
994.5636, 56.03969
995.0457, 57.32071
995.5278, 57.82049
996.0099, 56.74342
996.4921, 55.93118
996.9742, 56.00525
997.4563, 56.39256
997.9384, 56.66221
998.4205, 56.83289
998.9026, 57.03125
999.3848, 57.28228
999.8669, 57.53317
1000.349, 57.90943
1000.831, 58.12516
1001.313, 57.84636
1001.795, 57.47356
1002.277, 57.48383
1002.760, 57.83727
1003.242, 58.14572
1003.724, 58.29028
1004.206, 58.36509
1004.688, 58.34862
1005.170, 58.34472
1005.652, 58.43445
1006.134, 58.59017
1006.617, 58.78949
1007.099, 59.00948
1007.581, 59.18756
1008.063, 59.30531
1008.545, 59.34156
1009.027, 59.26402
1009.509, 59.10768
1009.991, 58.86276
1010.473, 58.58650
1010.956, 58.36648
1011.438, 58.23759
1011.920, 58.26462
1012.402, 58.55925
1012.884, 58.86134
1013.366, 58.73959
1013.848, 58.44822
1014.330, 58.52840
1014.813, 58.89999
1015.295, 59.14373
1015.777, 59.13404
1016.259, 59.04225
1016.741, 58.98674
1017.223, 59.00539
1017.705, 59.24404
1018.187, 59.61218
1018.669, 59.73871
1019.152, 59.63633
1019.634, 59.65611
1020.116, 59.92604
1020.598, 60.23369
1021.080, 60.36311
1021.562, 60.36216
1022.044, 60.35044
1022.526, 60.32961
1023.008, 60.31921
1023.491, 60.32119
1023.973, 60.29632
1024.455, 60.21953
1024.937, 60.19484
1025.419, 60.36051
1025.901, 60.66215
1026.383, 60.84094
1026.865, 60.88677
1027.348, 60.95565
1027.830, 61.06037
1028.312, 61.22415
1028.794, 61.49041
1029.276, 61.70798
1029.758, 61.66768
1030.240, 61.40874
1030.722, 61.24352
1031.204, 61.19345
1031.687, 61.11218
1032.169, 60.88971
1032.651, 60.95881
1033.133, 61.68243
1033.615, 62.50927
1034.097, 62.67248
1034.579, 62.22731
1035.061, 62.03481
1035.544, 62.23527
1036.026, 62.32426
1036.508, 62.24164
1036.990, 62.07460
1037.472, 61.80255
1037.954, 61.52924
1038.436, 61.38380
1038.918, 61.36476
1039.401, 61.43545
1039.883, 61.60535
1040.365, 61.85046
1040.847, 62.28172
1041.329, 62.63842
1041.811, 62.79336
1042.293, 62.82343
1042.775, 62.81067
1043.257, 62.75618
1043.740, 62.69660
1044.222, 62.56106
1044.704, 62.53063
1045.186, 62.78753
1045.668, 62.95025
1046.150, 62.75604
1046.632, 62.43919
1047.114, 62.27360
1047.596, 62.26051
1048.079, 62.28156
1048.561, 62.33514
1049.043, 62.40859
1049.525, 62.43325
1050.007, 62.55413
1050.489, 63.05747
1050.971, 63.55391
1051.453, 63.44020
1051.936, 62.79341
1052.418, 62.49591
1052.900, 62.92767
1053.382, 63.30468
1053.864, 63.50001
1054.346, 63.58221
1054.828, 63.56592
1055.310, 63.47167
1055.792, 63.28589
1056.275, 63.03225
1056.757, 62.82952
1057.239, 62.68778
1057.721, 62.63234
1058.203, 62.68863
1058.685, 62.81167
1059.167, 63.05896
1059.649, 63.30282
1060.131, 63.39213
1060.614, 63.33770
1061.096, 63.25056
1061.578, 63.12906
1062.060, 63.05833
1062.542, 63.07258
1063.024, 63.13977
1063.506, 63.26355
1063.988, 63.41510
1064.471, 63.57226
1064.953, 63.72779
1065.435, 63.89419
1065.917, 64.13145
1066.399, 64.17750
1066.881, 63.72009
1067.363, 63.28405
1067.845, 63.17039
1068.328, 63.24306
1068.810, 63.32398
1069.292, 63.44248
1069.774, 63.83579
1070.256, 64.68224
1070.738, 65.14211
1071.220, 64.44606
1071.702, 63.73595
1072.184, 63.69815
1072.667, 63.96576
1073.149, 64.23407
1073.631, 64.43663
1074.113, 64.50402
1074.595, 64.39968
1075.077, 64.38801
1075.559, 64.68313
1076.041, 64.98672
1076.523, 65.10764
1077.006, 65.17664
1077.488, 65.38808
1077.970, 65.63736
1078.452, 65.61832
1078.934, 65.26005
1079.416, 65.03547
1079.898, 65.34079
1080.380, 65.59475
1080.862, 65.32974
1081.345, 65.02855
1081.827, 65.16689
1082.309, 65.58591
1082.791, 65.98300
1083.273, 66.28408
1083.755, 66.41085
1084.237, 66.11629
1084.719, 65.94469
1085.202, 66.30289
1085.684, 66.74310
1086.166, 66.83704
1086.648, 66.80057
1087.130, 67.04515
1087.612, 67.58617
1088.094, 68.04896
1088.576, 68.39717
1089.058, 68.43917
1089.541, 67.68362
1090.023, 67.02424
1090.505, 67.25609
1090.987, 67.86304
1091.469, 68.13221
1091.951, 68.05228
1092.433, 68.02769
1092.915, 68.15171
1093.397, 68.42842
1093.880, 69.02996
1094.362, 69.58690
1094.844, 69.99845
1095.326, 70.15730
1095.808, 69.71864
1096.290, 68.95204
1096.772, 68.71416
1097.254, 69.32885
1097.737, 69.87160
1098.219, 70.08778
1098.701, 70.09234
1099.183, 69.64181
1099.665, 69.26250
1100.147, 69.54711
1100.629, 70.23521
1101.111, 70.69195
1101.594, 70.79904
1102.076, 70.89560
1102.558, 71.23972
1103.040, 71.35684
1103.522, 70.73505
1104.004, 70.19566
1104.486, 70.46635
1104.968, 71.13615
1105.450, 71.49365
1105.932, 71.47639
1106.415, 71.52593
1106.897, 71.76066
1107.379, 72.01301
1107.861, 72.30733
1108.343, 72.54593
1108.825, 72.76478
1109.307, 72.84270
1109.789, 72.42198
1110.272, 71.64394
1110.754, 71.52872
1111.236, 72.68179
1111.718, 73.49867
1112.200, 73.72643
1112.682, 73.74209
1113.164, 73.48223
1113.646, 73.23278
1114.129, 73.22843
1114.611, 73.44363
1115.093, 73.81498
1115.575, 74.47138
1116.057, 74.87612
1116.539, 74.83513
1117.021, 74.83801
1117.503, 75.05132
1117.985, 75.23907
1118.468, 75.02920
1118.950, 74.82462
1119.432, 75.58829
1119.914, 77.49062
1120.396, 78.22639
1120.878, 77.10027
1121.360, 76.29446
1121.842, 76.08062
1122.324, 76.19730
1122.807, 76.64966
1123.289, 77.19738
1123.771, 77.53238
1124.253, 77.68063
1124.735, 77.88160
1125.217, 78.20842
1125.699, 78.29462
1126.181, 77.98360
1126.664, 77.88449
1127.146, 78.25724
1127.628, 78.77768
1128.110, 79.15844
1128.592, 79.44718
1129.074, 79.83719
1129.556, 80.37756
1130.038, 80.38680
1130.521, 79.75286
1131.003, 79.37862
1131.485, 79.47081
1131.967, 79.87936
1132.449, 80.57986
1132.931, 81.23851
1133.413, 81.20110
1133.895, 80.63562
1134.377, 80.85390
1134.859, 81.82102
1135.342, 82.42348
1135.824, 82.51476
1136.306, 82.25425
1136.788, 81.69595
1137.270, 81.32845
1137.752, 81.73350
1138.234, 82.56862
1138.716, 83.02357
1139.199, 83.16186
1139.681, 83.18378
1140.163, 83.14528
1140.645, 83.27440
1141.127, 83.61816
1141.609, 83.99825
1142.091, 84.29683
1142.573, 84.53879
1143.056, 84.73202
1143.538, 84.90710
1144.020, 85.12684
1144.502, 85.37955
1144.984, 85.63956
1145.466, 85.89872
1145.948, 86.11138
1146.430, 86.26391
1146.912, 86.53616
1147.395, 87.17699
1147.877, 87.91373
1148.359, 88.54400
1148.841, 89.00399
1149.323, 89.12062
1149.805, 89.02258
1150.287, 88.96111
1150.769, 89.01332
1151.251, 89.20325
1151.734, 89.58311
1152.216, 89.99998
1152.698, 90.41822
1153.180, 90.76198
1153.662, 90.88784
1154.144, 90.95017
1154.626, 91.18806
1155.108, 91.55151
1155.591, 91.78276
1156.073, 91.78689
1156.555, 91.83112
1157.037, 91.91237
1157.519, 92.18098
1158.001, 93.04088
1158.483, 93.77595
1158.965, 93.61733
1159.448, 93.06541
1159.930, 93.00594
1160.412, 93.50687
1160.894, 94.07400
1161.376, 94.77709
1161.858, 95.34722
1162.340, 95.62977
1162.822, 95.94503
1163.304, 96.57099
1163.786, 97.11303
1164.269, 97.11991
1164.751, 96.76299
1165.233, 96.63306
1165.715, 96.77385
1166.197, 96.96728
1166.679, 97.27198
1167.161, 97.45950
1167.643, 97.45882
1168.126, 97.37711
1168.608, 97.20114
1169.090, 97.16679
1169.572, 97.68972
1170.054, 98.66493
1170.536, 99.27827
1171.018, 99.52199
1171.500, 99.55540
1171.983, 99.37882
1172.465, 99.38197
1172.947, 99.70498
1173.429, 100.1521
1173.911, 100.5899
1174.393, 100.9110
1174.875, 100.7267
1175.357, 100.2791
1175.839, 100.5956
1176.322, 101.5133
1176.804, 102.3689
1177.286, 103.0122
1177.768, 103.3255
1178.250, 103.2687
1178.732, 103.1914
1179.214, 103.4838
1179.696, 103.8617
1180.178, 103.8874
1180.661, 103.7846
1181.143, 103.2416
1181.625, 104.3304
1182.107, 105.0862
1182.589, 105.5270
1183.071, 104.7094
1183.553, 105.5167
1184.035, 105.6729
1184.518, 105.8029
1185.000, 106.8391
1185.482, 106.2045
1185.964, 107.2262
1186.446, 107.5868
1186.928, 108.2499
1187.410, 108.2578
1187.892, 108.4680
1188.375, 109.3345
1188.857, 109.8374
1189.339, 109.7698
1189.821, 110.4522
1190.303, 109.7946
1190.785, 110.3129
1191.267, 110.5390
1191.749, 110.8862
1192.231, 111.1589
1192.714, 111.2147
1193.196, 110.9331
1193.678, 110.9223
1194.160, 111.3154
1194.642, 111.5951
1195.124, 111.5842
1195.606, 111.6737
1196.088, 112.1063
1196.570, 112.7029
1197.053, 113.2102
1197.535, 113.6645
1198.017, 114.3432
1198.499, 115.2302
1198.981, 115.5887
1199.463, 115.3956
1199.945, 115.1881
1200.427, 115.1339
1200.910, 115.4748
1201.392, 116.4248
1201.874, 117.4372
1202.356, 117.5220
1202.838, 117.2317
1203.320, 117.9116
1203.802, 119.0994
1204.284, 119.8052
1204.766, 119.9668
1205.249, 119.6915
1205.731, 119.1085
1206.213, 118.8893
1206.695, 119.5953
1207.177, 120.4397
1207.659, 120.9117
1208.141, 121.1635
1208.623, 121.2080
1209.105, 121.1973
1209.588, 121.2848
1210.070, 121.4812
1210.552, 121.7246
1211.034, 121.9832
1211.516, 122.4775
1211.998, 123.5540
1212.480, 124.4452
1212.962, 124.8605
1213.445, 125.1699
1213.927, 125.5282
1214.409, 125.9133
1214.891, 126.2886
1215.373, 126.6678
1215.855, 127.1392
1216.337, 127.7826
1216.819, 128.1365
1217.302, 128.1305
1217.784, 128.0513
1218.266, 127.8835
1218.748, 128.0675
1219.230, 128.9338
1219.712, 129.8246
1220.194, 129.7857
1220.676, 129.2586
1221.158, 129.8360
1221.641, 131.2538
1222.123, 132.0916
1222.605, 132.3587
1223.087, 132.5484
1223.569, 132.8138
1224.051, 133.2535
1224.533, 133.9315
1225.015, 134.6219
1225.497, 135.1064
1225.980, 135.4735
1226.462, 135.7299
1226.944, 136.0064
1227.426, 136.4487
1227.908, 137.0628
1228.390, 137.9104
1228.872, 138.9301
1229.354, 139.7315
1229.837, 140.1167
1230.319, 140.4694
1230.801, 140.8707
1231.283, 141.3307
1231.765, 142.0239
1232.247, 142.6100
1232.729, 142.6170
1233.211, 142.4390
1233.693, 142.8351
1234.176, 143.7819
1234.658, 144.5536
1235.140, 145.0700
1235.622, 145.6740
1236.104, 146.4138
1236.586, 147.1265
1237.068, 147.7703
1237.550, 148.3364
1238.032, 148.7879
1238.515, 149.2710
1238.997, 150.1175
1239.479, 151.1494
1239.961, 151.5815
1240.443, 151.5485
1240.925, 151.6008
1241.407, 151.8042
1241.889, 152.1479
1242.372, 152.6274
1242.854, 153.2471
1243.336, 154.0248
1243.818, 154.8509
1244.300, 155.6617
1244.782, 156.4379
1245.264, 157.1589
1245.746, 157.8406
1246.229, 158.5711
1246.711, 159.2478
1247.193, 159.6189
1247.675, 159.6743
1248.157, 159.7483
1248.639, 159.7931
1249.121, 160.1250
1249.603, 161.0566
1250.085, 161.9270
1250.568, 162.5214
1251.050, 162.9893
1251.532, 163.3810
1252.014, 163.7587
1252.496, 164.2226
1252.978, 164.7716
1253.460, 165.3946
1253.942, 166.0871
1254.424, 167.0175
1254.907, 168.2155
1255.389, 168.9023
1255.871, 168.8708
1256.353, 168.9243
1256.835, 169.5897
1257.317, 170.3860
1257.799, 170.6337
1258.281, 170.6697
1258.764, 171.1802
1259.246, 171.8754
1259.728, 172.1233
1260.210, 172.1468
1260.692, 172.6374
1261.174, 173.6059
1261.656, 174.3984
1262.138, 174.7306
1262.620, 175.0051
1263.103, 175.2276
1263.585, 175.6732
1264.067, 176.6135
1264.549, 177.6584
1265.031, 178.6845
1265.513, 179.5553
1265.995, 180.0765
1266.477, 180.2912
1266.959, 180.4008
1267.442, 180.3193
1267.924, 180.5117
1268.406, 181.0475
1268.888, 181.5411
1269.370, 181.9184
1269.852, 182.2207
1270.334, 182.4450
1270.816, 182.8522
1271.299, 183.7697
1271.781, 184.9208
1272.263, 185.7477
1272.745, 186.3712
1273.227, 187.0512
1273.709, 187.7947
1274.191, 188.6823
1274.673, 189.6151
1275.156, 190.2058
1275.638, 190.3523
1276.120, 190.6065
1276.602, 191.3526
1277.084, 192.1268
1277.566, 192.6636
1278.048, 193.1971
1278.530, 193.7879
1279.012, 194.5077
1279.495, 195.5101
1279.977, 196.6551
1280.459, 197.5878
1280.941, 198.2871
1281.423, 199.1517
1281.905, 200.4534
1282.387, 200.8059
1282.869, 199.8133
1283.351, 199.8242
1283.834, 201.6572
1284.316, 203.2584
1284.798, 203.1679
1285.280, 202.6641
1285.762, 203.3020
1286.244, 205.1898
##END=



