##NAMES=Cerussite
##RRUFFID=R050023
##IDEAL CHEMISTRY=Pb^2+^CO_3_
##LOCALITY=Mammoth - St Anthony mine, Tiger, Pinal County, Arizona, USA
##OWNER=RRUFF
##SOURCE=Eugene Schlepp
##DESCRIPTION=Prismatic white single crystals
##STATUS=The identification of this mineral has been confirmed by X-ray diffraction and chemical analysis
##URL=rruff.info/R050023
##MEASURED CHEMISTRY=Pb_1.00_CO_3_ ; CO_2_ not measured but estimated by difference and stoichiometry
110.6104, 54.44895
111.0925, 58.81704
111.5746, 64.38097
112.0567, 70.39560
112.5388, 77.45865
113.0209, 84.49233
113.5031, 90.86828
113.9852, 92.79906
114.4673, 97.53371
114.9494, 108.4563
115.4315, 124.9589
115.9136, 141.0157
116.3958, 154.0770
116.8779, 165.6222
117.3600, 177.1212
117.8421, 187.7074
118.3242, 199.4001
118.8063, 213.4791
119.2885, 230.1059
119.7706, 248.1206
120.2527, 265.6688
120.7348, 284.1187
121.2169, 306.0688
121.6990, 334.5330
122.1812, 366.1276
122.6633, 397.0459
123.1454, 426.2213
123.6275, 456.3167
124.1096, 488.7556
124.5917, 523.8917
125.0739, 563.1678
125.5560, 608.4770
126.0381, 658.3569
126.5202, 711.2639
127.0023, 768.0020
127.4844, 826.3013
127.9666, 881.4631
128.4487, 933.5464
128.9308, 987.5099
129.4129, 1047.878
129.8950, 1114.218
130.3772, 1181.202
130.8593, 1248.450
131.3414, 1315.492
131.8235, 1379.932
132.3056, 1440.447
132.7877, 1501.431
133.2699, 1568.829
133.7520, 1643.209
134.2341, 1717.876
134.7162, 1788.745
135.1983, 1856.102
135.6804, 1929.706
136.1626, 2011.343
136.6447, 2095.604
137.1268, 2170.684
137.6089, 2233.471
138.0910, 2296.078
138.5731, 2363.062
139.0553, 2435.715
139.5374, 2510.365
140.0195, 2586.987
140.5016, 2665.326
140.9837, 2741.988
141.4658, 2819.570
141.9480, 2892.573
142.4301, 2956.065
142.9122, 3006.231
143.3943, 3054.606
143.8764, 3101.906
144.3585, 3147.806
144.8407, 3197.414
145.3228, 3254.882
145.8049, 3312.570
146.2870, 3362.962
146.7691, 3403.673
147.2512, 3439.473
147.7334, 3471.291
148.2155, 3500.197
148.6976, 3521.477
149.1797, 3530.364
149.6618, 3533.001
150.1439, 3537.452
150.6261, 3555.353
151.1082, 3564.571
151.5903, 3559.112
152.0724, 3535.985
152.5545, 3504.659
153.0366, 3464.117
153.5188, 3415.943
154.0009, 3363.479
154.4830, 3304.067
154.9651, 3242.245
155.4472, 3179.841
155.9293, 3121.339
156.4115, 3056.297
156.8936, 2974.175
157.3757, 2881.545
157.8578, 2799.892
158.3399, 2741.143
158.8221, 2692.199
159.3042, 2643.880
159.7863, 2587.903
160.2684, 2538.281
160.7505, 2502.191
161.2326, 2477.935
161.7148, 2455.049
162.1969, 2426.759
162.6790, 2398.470
163.1611, 2375.731
163.6432, 2358.554
164.1253, 2348.511
164.6075, 2348.301
165.0896, 2358.087
165.5717, 2370.350
166.0538, 2380.223
166.5359, 2390.078
167.0180, 2403.280
167.5002, 2419.367
167.9823, 2440.558
168.4644, 2471.122
168.9465, 2512.888
169.4286, 2553.474
169.9107, 2583.166
170.3929, 2604.829
170.8750, 2625.269
171.3571, 2644.711
171.8392, 2665.825
172.3213, 2694.190
172.8034, 2733.606
173.2856, 2769.054
173.7677, 2786.238
174.2498, 2787.538
174.7319, 2780.977
175.2140, 2766.798
175.6961, 2748.943
176.1783, 2735.317
176.6604, 2731.964
177.1425, 2725.231
177.6246, 2695.246
178.1067, 2644.779
178.5888, 2589.656
179.0710, 2544.282
179.5531, 2503.427
180.0352, 2455.534
180.5173, 2395.648
180.9994, 2330.194
181.4815, 2270.602
181.9637, 2216.253
182.4458, 2164.254
182.9279, 2112.927
183.4100, 2061.768
183.8921, 2007.626
184.3742, 1946.667
184.8564, 1883.304
185.3385, 1830.563
185.8206, 1788.530
186.3027, 1750.583
186.7848, 1706.100
187.2669, 1657.179
187.7491, 1618.456
188.2312, 1601.165
188.7133, 1598.376
189.1954, 1582.598
189.6775, 1552.022
190.1596, 1516.912
190.6418, 1488.182
191.1239, 1465.910
191.6060, 1447.264
192.0881, 1431.064
192.5702, 1417.438
193.0524, 1407.922
193.5345, 1403.037
194.0166, 1400.934
194.4987, 1399.749
194.9808, 1399.617
195.4629, 1398.344
195.9451, 1392.408
196.4272, 1381.956
196.9093, 1380.747
197.3914, 1391.322
197.8735, 1407.824
198.3556, 1419.583
198.8378, 1426.135
199.3199, 1430.745
199.8020, 1433.630
200.2841, 1434.352
200.7662, 1439.995
201.2483, 1452.274
201.7305, 1468.500
202.2126, 1482.203
202.6947, 1493.041
203.1768, 1502.632
203.6589, 1511.143
204.1410, 1517.949
204.6232, 1527.917
205.1053, 1542.643
205.5874, 1560.296
206.0695, 1574.205
206.5516, 1582.941
207.0337, 1591.688
207.5159, 1604.625
207.9980, 1622.641
208.4801, 1639.129
208.9622, 1651.987
209.4443, 1662.716
209.9264, 1680.417
210.4086, 1709.464
210.8907, 1736.776
211.3728, 1750.583
211.8549, 1746.595
212.3370, 1744.160
212.8191, 1746.360
213.3013, 1752.630
213.7834, 1759.097
214.2655, 1767.419
214.7476, 1773.271
215.2297, 1772.085
215.7118, 1761.126
216.1940, 1750.637
216.6761, 1742.469
217.1582, 1736.490
217.6403, 1730.895
218.1224, 1726.659
218.6045, 1721.600
219.0867, 1712.932
219.5688, 1698.280
220.0509, 1685.662
220.5330, 1676.304
221.0151, 1670.032
221.4972, 1670.399
221.9794, 1682.881
222.4615, 1695.898
222.9436, 1695.864
223.4257, 1675.155
223.9078, 1657.143
224.3899, 1649.109
224.8721, 1652.293
225.3542, 1647.340
225.8363, 1630.699
226.3184, 1609.264
226.8005, 1591.141
227.2827, 1579.034
227.7648, 1565.308
228.2469, 1547.988
228.7290, 1526.850
229.2111, 1504.204
229.6932, 1478.996
230.1754, 1453.404
230.6575, 1430.271
231.1396, 1411.808
231.6217, 1392.032
232.1038, 1367.822
232.5859, 1336.894
233.0681, 1314.352
233.5502, 1303.922
234.0323, 1299.247
234.5144, 1291.058
234.9965, 1277.911
235.4786, 1263.759
235.9608, 1249.766
236.4429, 1236.426
236.9250, 1221.511
237.4071, 1203.224
237.8892, 1184.590
238.3713, 1171.038
238.8535, 1166.718
239.3356, 1160.498
239.8177, 1148.054
240.2998, 1126.878
240.7819, 1108.986
241.2640, 1094.584
241.7462, 1083.059
242.2283, 1073.522
242.7104, 1067.242
243.1925, 1060.915
243.6746, 1054.141
244.1567, 1048.277
244.6389, 1036.822
245.1210, 1017.933
245.6031, 994.6187
246.0852, 972.0357
246.5673, 949.9492
247.0494, 928.9982
247.5316, 909.4396
248.0137, 891.4087
248.4958, 874.5016
248.9779, 860.1724
249.4600, 846.2255
249.9421, 828.7607
250.4243, 806.2348
250.9064, 782.7185
251.3885, 758.8223
251.8706, 732.6449
252.3527, 712.7132
252.8348, 701.8036
253.3170, 695.4385
253.7991, 685.1384
254.2812, 669.5543
254.7633, 652.8398
255.2454, 636.4703
255.7275, 620.8813
256.2097, 604.1512
256.6918, 584.6732
257.1739, 565.3431
257.6560, 551.7153
258.1381, 545.6989
258.6202, 541.4568
259.1024, 537.4655
259.5845, 534.6805
260.0666, 528.0613
260.5487, 516.1432
261.0308, 501.5108
261.5129, 488.2155
261.9951, 476.4966
262.4772, 465.8111
262.9593, 455.9352
263.4414, 446.5500
263.9235, 439.1409
264.4056, 433.8113
264.8878, 430.2894
265.3699, 429.0368
265.8520, 432.0523
266.3341, 431.5471
266.8162, 422.6794
267.2983, 403.3155
267.7805, 390.2163
268.2626, 385.2566
268.7447, 384.6245
269.2268, 381.9758
269.7089, 376.9409
270.1910, 371.2076
270.6732, 364.6453
271.1553, 356.8995
271.6374, 352.6986
272.1195, 353.2147
272.6016, 355.5532
273.0837, 355.0017
273.5659, 351.1554
274.0480, 346.5192
274.5301, 341.8348
275.0122, 337.1170
275.4943, 332.4515
275.9764, 327.7056
276.4586, 323.2621
276.9407, 319.6741
277.4228, 317.0093
277.9049, 314.9857
278.3870, 314.0370
278.8691, 314.0540
279.3513, 312.0575
279.8334, 307.3906
280.3155, 302.3999
280.7976, 301.2067
281.2798, 304.0630
281.7619, 305.0554
282.2440, 301.1454
282.7261, 293.0657
283.2082, 286.0623
283.6903, 280.0081
284.1725, 275.4998
284.6546, 273.9254
285.1367, 275.1888
285.6188, 276.4270
286.1009, 276.7655
286.5830, 276.2744
287.0652, 275.1642
287.5473, 273.4058
288.0294, 271.2658
288.5115, 269.3000
288.9936, 267.3709
289.4757, 264.3450
289.9579, 258.4377
290.4400, 251.4898
290.9221, 249.2884
291.4042, 252.1557
291.8863, 255.7496
292.3684, 255.4022
292.8506, 251.9138
293.3327, 248.7509
293.8148, 246.9726
294.2969, 246.1888
294.7790, 246.1876
295.2611, 246.9681
295.7433, 246.8354
296.2254, 243.1596
296.7075, 237.2390
297.1896, 232.8799
297.6717, 231.4908
298.1538, 231.8353
298.6360, 232.4851
299.1181, 233.4018
299.6002, 234.0613
300.0823, 234.6648
300.5644, 234.6649
301.0465, 232.8377
301.5287, 227.8586
302.0108, 222.1913
302.4929, 218.6838
302.9750, 217.0631
303.4571, 215.9630
303.9392, 213.6888
304.4214, 211.5880
304.9035, 211.8014
305.3856, 216.2755
305.8677, 220.8635
306.3498, 221.8226
306.8319, 219.7712
307.3141, 216.8795
307.7962, 214.1212
308.2783, 211.3127
308.7604, 208.1417
309.2425, 204.3625
309.7246, 200.7645
310.2068, 197.5975
310.6889, 194.9659
311.1710, 193.0934
311.6531, 192.8687
312.1352, 192.9649
312.6173, 192.1396
313.0995, 189.5806
313.5816, 187.9298
314.0637, 189.5061
314.5458, 192.7854
315.0279, 194.9091
315.5100, 194.9122
315.9922, 193.3736
316.4743, 190.1266
316.9564, 184.5728
317.4385, 179.7279
317.9206, 176.3856
318.4027, 174.3923
318.8849, 173.5333
319.3670, 175.2300
319.8491, 176.7511
320.3312, 176.6069
320.8133, 174.1808
321.2954, 173.2395
321.7776, 176.9036
322.2597, 181.4882
322.7418, 183.0654
323.2239, 178.4364
323.7060, 173.3790
324.1881, 168.3910
324.6703, 163.2867
325.1524, 161.0873
325.6345, 164.7130
326.1166, 169.9189
326.5987, 173.3311
327.0808, 174.2199
327.5630, 174.1420
328.0451, 173.0342
328.5272, 170.9357
329.0093, 168.5942
329.4914, 164.9463
329.9735, 162.0652
330.4557, 161.6740
330.9378, 167.1700
331.4199, 169.0293
331.9020, 164.6539
332.3841, 155.7703
332.8662, 150.9811
333.3484, 151.9994
333.8305, 154.5858
334.3126, 156.6467
334.7947, 158.2170
335.2768, 159.0927
335.7589, 159.2298
336.2411, 158.6828
336.7232, 157.3987
337.2053, 155.0675
337.6874, 152.9312
338.1695, 151.0745
338.6516, 149.2396
339.1338, 150.6925
339.6159, 156.7339
340.0980, 164.0808
340.5801, 166.9176
341.0622, 164.9152
341.5443, 161.5978
342.0265, 157.5335
342.5086, 153.0196
342.9907, 151.0292
343.4728, 152.0760
343.9549, 153.6982
344.4370, 152.4136
344.9192, 148.5686
345.4013, 145.3969
345.8834, 144.2099
346.3655, 144.4935
346.8476, 145.2275
347.3297, 146.4293
347.8119, 147.5089
348.2940, 147.5950
348.7761, 147.0637
349.2582, 147.1611
349.7403, 148.9675
350.2225, 150.8220
350.7046, 149.8060
351.1867, 146.2597
351.6688, 142.8764
352.1509, 141.6847
352.6331, 141.8663
353.1152, 142.2407
353.5973, 142.6156
354.0794, 142.9906
354.5615, 143.5977
355.0436, 144.2545
355.5258, 144.4062
356.0079, 142.9267
356.4900, 141.2639
356.9721, 140.8459
357.4542, 142.2540
357.9363, 143.6783
358.4185, 144.1724
358.9006, 143.9890
359.3827, 143.5653
359.8648, 142.2438
360.3469, 141.3819
360.8290, 142.2796
361.3112, 145.4792
361.7933, 147.1931
362.2754, 144.8723
362.7575, 140.9675
363.2396, 138.1305
363.7217, 137.5031
364.2039, 137.4936
364.6860, 137.8549
365.1681, 138.5773
365.6502, 139.3194
366.1323, 140.9657
366.6144, 142.0718
367.0966, 141.6237
367.5787, 137.8835
368.0608, 134.6574
368.5429, 131.3247
369.0250, 128.4185
369.5071, 128.9952
369.9893, 136.6476
370.4714, 143.5996
370.9535, 145.7555
371.4356, 140.2494
371.9177, 136.4189
372.3998, 134.6637
372.8820, 134.4967
373.3641, 135.2768
373.8462, 137.8857
374.3283, 139.1150
374.8104, 136.7704
375.2925, 130.2426
375.7747, 127.8968
376.2568, 131.3395
376.7389, 135.7421
377.2210, 133.2820
377.7031, 123.3187
378.1852, 115.8261
378.6674, 114.5542
379.1495, 118.1395
379.6316, 120.9243
380.1137, 122.8451
380.5958, 124.3281
381.0779, 125.9700
381.5601, 127.5904
382.0422, 127.9982
382.5243, 126.2795
383.0064, 124.0808
383.4885, 124.5105
383.9706, 127.2574
384.4528, 129.9944
384.9349, 131.6102
385.4170, 132.0781
385.8991, 131.0897
386.3812, 128.1587
386.8633, 125.1814
387.3455, 123.8877
387.8276, 123.8969
388.3097, 124.3275
388.7918, 125.4244
389.2739, 126.3248
389.7560, 126.0656
390.2382, 124.4553
390.7203, 123.1180
391.2024, 123.0942
391.6845, 123.7691
392.1666, 124.4378
392.6487, 124.6904
393.1309, 125.0612
393.6130, 126.5864
394.0951, 128.9959
394.5772, 129.1640
395.0593, 123.6171
395.5414, 117.2720
396.0236, 113.2535
396.5057, 112.8803
396.9878, 113.7908
397.4699, 117.1352
397.9520, 121.8040
398.4341, 124.2524
398.9163, 122.2408
399.3984, 120.3357
399.8805, 120.4824
400.3626, 124.1088
400.8447, 125.3511
401.3268, 122.6265
401.8090, 118.6862
402.2911, 117.7613
402.7732, 121.4364
403.2553, 123.9472
403.7374, 123.2753
404.2195, 119.6664
404.7017, 117.6734
405.1838, 117.5837
405.6659, 118.3365
406.1480, 119.1535
406.6301, 120.0435
407.1122, 120.7710
407.5944, 121.5067
408.0765, 121.8321
408.5586, 120.1246
409.0407, 116.4267
409.5228, 113.3814
410.0049, 113.0157
410.4871, 114.6765
410.9692, 116.8705
411.4513, 119.7165
411.9334, 122.0200
412.4155, 122.4129
412.8976, 121.1669
413.3798, 119.1024
413.8619, 115.0543
414.3440, 111.2437
414.8261, 110.3601
415.3082, 112.4466
415.7903, 114.9374
416.2725, 117.1130
416.7546, 118.4154
417.2367, 118.1661
417.7188, 114.0663
418.2009, 110.6693
418.6830, 110.6600
419.1652, 113.2458
419.6473, 115.5209
420.1294, 117.5384
420.6115, 118.2516
421.0937, 116.5504
421.5758, 109.7946
422.0579, 106.1051
422.5400, 109.4025
423.0221, 115.7870
423.5042, 118.8944
423.9864, 114.9879
424.4685, 111.7499
424.9506, 111.3631
425.4327, 114.1927
425.9148, 115.0538
426.3969, 112.6052
426.8791, 109.7170
427.3612, 109.1423
427.8433, 111.9070
428.3254, 113.6801
428.8075, 113.4857
429.2896, 112.0357
429.7718, 111.9957
430.2539, 113.6894
430.7360, 115.0801
431.2181, 114.4669
431.7002, 112.0595
432.1823, 111.1539
432.6645, 112.1974
433.1466, 113.7968
433.6287, 113.9121
434.1108, 112.8214
434.5929, 111.8941
435.0750, 111.6616
435.5572, 111.9661
436.0393, 112.8292
436.5214, 114.2090
437.0035, 115.2144
437.4856, 114.6048
437.9677, 113.3400
438.4499, 112.8384
438.9320, 113.9107
439.4141, 115.0601
439.8962, 115.2774
440.3783, 114.7450
440.8604, 113.9394
441.3426, 112.5723
441.8247, 111.3778
442.3068, 110.9081
442.7889, 111.4198
443.2710, 111.7032
443.7531, 111.6929
444.2353, 111.1895
444.7174, 109.9716
445.1995, 105.7707
445.6816, 103.3235
446.1637, 104.5128
446.6458, 108.8508
447.1280, 111.1332
447.6101, 109.6110
448.0922, 107.9622
448.5743, 108.4737
449.0564, 112.6625
449.5385, 114.9319
450.0207, 114.7762
450.5028, 112.9756
450.9849, 110.5001
451.4670, 106.9970
451.9491, 104.7627
452.4312, 105.2900
452.9134, 108.0969
453.3955, 109.2836
453.8776, 108.6973
454.3597, 107.5772
454.8418, 106.9450
455.3239, 106.7621
455.8061, 106.9199
456.2882, 107.4707
456.7703, 108.2327
457.2524, 109.6837
457.7345, 111.3752
458.2166, 111.4740
458.6988, 106.2044
459.1809, 100.1111
459.6630, 98.93884
460.1451, 103.9153
460.6272, 108.8987
461.1093, 109.4549
461.5915, 107.9096
462.0736, 107.1343
462.5557, 109.7489
463.0378, 111.6605
463.5199, 110.9657
464.0020, 107.9759
464.4842, 105.1295
464.9663, 101.8173
465.4484, 99.62599
465.9305, 99.55937
466.4126, 103.8741
466.8947, 106.3300
467.3769, 105.6377
467.8590, 103.6490
468.3411, 103.5585
468.8232, 106.6634
469.3053, 109.0150
469.7874, 109.0191
470.2696, 106.9155
470.7517, 107.8329
471.2338, 112.8948
471.7159, 117.5167
472.1980, 116.5637
472.6801, 110.2135
473.1623, 106.7277
473.6444, 107.8658
474.1265, 111.1341
474.6086, 112.6509
475.0907, 112.5476
475.5728, 111.6745
476.0550, 109.9278
476.5371, 107.8833
477.0192, 106.6247
477.5013, 106.1916
477.9834, 105.7588
478.4655, 104.2478
478.9477, 102.4887
479.4298, 101.5849
479.9119, 102.0293
480.3940, 103.1766
480.8761, 104.8172
481.3582, 106.9092
481.8404, 109.3197
482.3225, 114.1304
482.8046, 117.4937
483.2867, 116.8903
483.7688, 110.2076
484.2509, 106.1759
484.7331, 108.2740
485.2152, 111.9403
485.6973, 112.8640
486.1794, 109.0362
486.6615, 105.8835
487.1436, 104.2112
487.6258, 103.7802
488.1079, 103.5537
488.5900, 103.6433
489.0721, 103.6309
489.5542, 102.8350
490.0363, 101.2278
490.5185, 101.8477
491.0006, 105.2751
491.4827, 109.2349
491.9648, 110.2767
492.4470, 108.9731
492.9291, 108.5141
493.4112, 110.7046
493.8933, 113.7065
494.3754, 114.9058
494.8575, 114.3880
495.3397, 112.6240
495.8218, 108.6313
496.3039, 104.1523
496.7860, 101.1372
497.2681, 99.98141
497.7502, 99.65871
498.2324, 99.65180
498.7145, 100.1267
499.1966, 101.3106
499.6787, 105.5280
500.1608, 108.1802
500.6429, 106.5439
501.1251, 101.0115
501.6072, 98.13346
502.0893, 100.8984
502.5714, 104.1289
503.0535, 105.3850
503.5356, 103.7702
504.0178, 102.3927
504.4999, 101.6923
504.9820, 100.8332
505.4641, 97.67336
505.9462, 91.20055
506.4283, 88.06192
506.9105, 92.03778
507.3926, 100.4047
507.8747, 100.8509
508.3568, 92.91364
508.8389, 85.57272
509.3210, 86.81115
509.8032, 93.73428
510.2853, 98.39874
510.7674, 99.66707
511.2495, 99.28848
511.7316, 98.44575
512.2137, 97.30710
512.6959, 96.22990
513.1780, 95.46855
513.6601, 94.71957
514.1422, 93.69215
514.6243, 92.44668
515.1064, 91.40365
515.5886, 90.06580
516.0707, 89.44518
516.5528, 90.51588
517.0349, 95.39662
517.5170, 97.80019
517.9991, 94.78036
518.4813, 89.86408
518.9634, 87.54577
519.4455, 89.34048
519.9276, 91.18189
520.4097, 92.50972
520.8918, 93.25410
521.3740, 92.78455
521.8561, 90.64600
522.3382, 88.80087
522.8203, 88.93226
523.3024, 90.87542
523.7845, 91.57436
524.2667, 90.59645
524.7488, 89.39857
525.2309, 90.58517
525.7130, 93.22133
526.1951, 93.94963
526.6772, 90.36254
527.1594, 85.49713
527.6415, 82.43082
528.1236, 81.08484
528.6057, 81.07518
529.0878, 83.76892
529.5699, 86.68935
530.0521, 87.72613
530.5342, 86.16883
531.0163, 84.79506
531.4984, 84.99167
531.9805, 85.59806
532.4626, 85.38126
532.9448, 82.02129
533.4269, 80.47768
533.9090, 82.34492
534.3911, 86.54372
534.8732, 88.83754
535.3553, 88.90241
535.8375, 87.65538
536.3196, 84.88702
536.8017, 80.38443
537.2838, 78.29295
537.7659, 78.93371
538.2480, 80.87108
538.7302, 82.84299
539.2123, 84.84367
539.6944, 86.79868
540.1765, 88.90140
540.6586, 90.56989
541.1407, 90.44814
541.6229, 89.07435
542.1050, 88.37931
542.5871, 90.70418
543.0692, 93.31850
543.5513, 93.15329
544.0334, 90.08563
544.5156, 87.88600
544.9977, 89.62318
545.4798, 92.20528
545.9619, 93.10663
546.4440, 90.09136
546.9261, 88.00567
547.4083, 88.16886
547.8904, 89.54545
548.3725, 90.27956
548.8546, 90.14864
549.3367, 89.74759
549.8188, 89.19415
550.3010, 88.48828
550.7831, 87.36009
551.2652, 85.42889
551.7473, 84.34735
552.2294, 86.20316
552.7115, 90.54166
553.1937, 92.43863
553.6758, 91.18021
554.1579, 88.82566
554.6400, 87.28850
555.1221, 86.65764
555.6042, 87.33212
556.0864, 91.21954
556.5685, 94.68652
557.0506, 92.84533
557.5327, 87.20570
558.0148, 83.41290
558.4969, 85.60535
558.9791, 89.45428
559.4612, 92.67844
559.9433, 95.15349
560.4254, 96.31872
560.9075, 94.55869
561.3896, 92.28783
561.8718, 91.63524
562.3539, 93.65981
562.8360, 95.59312
563.3181, 97.61543
563.8002, 99.22831
564.2823, 98.90079
564.7645, 96.14830
565.2466, 93.64124
565.7287, 92.47144
566.2108, 92.42178
566.6929, 92.46669
567.1750, 92.59597
567.6572, 93.04493
568.1393, 94.40937
568.6214, 96.16449
569.1035, 97.36137
569.5856, 97.98755
570.0677, 97.53316
570.5499, 93.78902
571.0320, 89.05207
571.5141, 86.92365
571.9962, 92.17467
572.4783, 96.84621
572.9604, 96.88187
573.4426, 93.22642
573.9247, 90.95345
574.4068, 91.74113
574.8889, 93.31920
575.3710, 95.20913
575.8531, 97.81532
576.3353, 98.25577
576.8174, 95.32484
577.2995, 92.01010
577.7816, 91.63416
578.2637, 94.60596
578.7458, 95.88274
579.2280, 94.15564
579.7101, 91.48930
580.1922, 92.41988
580.6743, 96.16255
581.1564, 98.28536
581.6385, 94.74915
582.1207, 89.49650
582.6028, 87.99132
583.0849, 89.84987
583.5670, 91.94697
584.0491, 92.80061
584.5313, 92.92831
585.0134, 92.63847
585.4955, 91.83646
585.9776, 91.09182
586.4597, 89.89205
586.9418, 89.11209
587.4240, 89.85931
587.9061, 94.20010
588.3882, 96.82848
588.8703, 96.66553
589.3524, 94.56735
589.8345, 92.93298
590.3167, 91.76226
590.7988, 91.06535
591.2809, 91.01194
591.7630, 91.46378
592.2451, 91.99889
592.7272, 92.65372
593.2094, 92.49829
593.6915, 89.07307
594.1736, 84.62824
594.6557, 84.23746
595.1378, 89.73678
595.6199, 94.95228
596.1021, 94.80824
596.5842, 91.57188
597.0663, 88.46383
597.5485, 85.54629
598.0306, 84.04175
598.5127, 84.94878
598.9948, 87.76826
599.4769, 90.40930
599.9590, 94.51973
600.4412, 96.28617
600.9233, 93.39080
601.4054, 85.27750
601.8875, 81.50965
602.3696, 83.33905
602.8517, 86.51965
603.3339, 87.44769
603.8160, 86.30895
604.2981, 85.10291
604.7802, 83.82587
605.2623, 83.36064
605.7444, 85.74242
606.2266, 89.93925
606.7087, 93.06222
607.1908, 93.57814
607.6729, 93.17846
608.1550, 93.18993
608.6371, 93.40576
609.1193, 93.15410
609.6014, 91.25282
610.0835, 89.60561
610.5656, 89.50436
611.0477, 91.36806
611.5298, 91.93781
612.0120, 89.68638
612.4941, 87.53250
612.9762, 87.67493
613.4583, 91.07571
613.9404, 93.26626
614.4225, 93.91566
614.9047, 93.56454
615.3868, 92.20853
615.8689, 90.04636
616.3510, 90.08555
616.8331, 94.21430
617.3152, 99.65491
617.7974, 101.9641
618.2795, 101.7877
618.7616, 101.7733
619.2437, 104.3183
619.7258, 106.8723
620.2079, 107.0970
620.6901, 104.8995
621.1722, 103.3256
621.6543, 103.8921
622.1364, 105.1042
622.6185, 106.0330
623.1006, 106.6418
623.5828, 106.9207
624.0649, 106.7611
624.5470, 106.3712
625.0291, 105.9813
625.5112, 105.5914
625.9933, 105.2365
626.4755, 105.0168
626.9576, 104.7151
627.4397, 102.9391
627.9218, 100.1245
628.4039, 99.59504
628.8860, 106.1974
629.3682, 114.3565
629.8503, 115.5851
630.3324, 110.6835
630.8145, 105.7614
631.2966, 103.4038
631.7787, 103.0248
632.2609, 105.1646
632.7430, 111.3609
633.2251, 114.1796
633.7072, 108.5610
634.1893, 101.1725
634.6714, 97.55972
635.1536, 99.48105
635.6357, 101.4770
636.1178, 103.5915
636.5999, 105.1337
637.0820, 104.3142
637.5641, 101.0172
638.0463, 98.30782
638.5284, 97.36663
639.0105, 97.43713
639.4926, 97.02467
639.9747, 96.21507
640.4568, 95.51882
640.9390, 95.74703
641.4211, 95.89534
641.9032, 94.67818
642.3853, 92.01611
642.8674, 89.95979
643.3495, 89.94860
643.8317, 90.41911
644.3138, 90.31277
644.7959, 89.44727
645.2780, 87.96623
645.7601, 84.73095
646.2422, 81.87869
646.7244, 82.35500
647.2065, 86.93511
647.6886, 90.92102
648.1707, 93.67825
648.6528, 95.12874
649.1349, 94.74070
649.6171, 92.70352
650.0992, 90.37016
650.5813, 88.19390
651.0634, 86.17603
651.5455, 84.06005
652.0276, 81.97874
652.5098, 80.75256
652.9919, 81.34220
653.4740, 82.51175
653.9561, 83.55000
654.4382, 84.36673
654.9203, 85.15668
655.4025, 85.27077
655.8846, 85.91306
656.3667, 87.97672
656.8488, 91.94271
657.3309, 95.89564
657.8130, 99.70278
658.2952, 103.6468
658.7773, 107.8155
659.2594, 112.3234
659.7415, 118.2407
660.2236, 126.2748
660.7057, 135.1712
661.1879, 142.7815
661.6700, 149.6808
662.1521, 157.3924
662.6342, 167.1717
663.1163, 177.5527
663.5984, 187.0139
664.0806, 195.8851
664.5627, 206.9865
665.0448, 222.8200
665.5269, 239.2520
666.0090, 254.0537
666.4911, 266.4532
666.9733, 281.4686
667.4554, 297.8941
667.9375, 319.3298
668.4196, 351.8840
668.9017, 395.1297
669.3839, 430.6228
669.8660, 455.6787
670.3481, 477.2905
670.8302, 501.8998
671.3123, 529.2131
671.7944, 558.5656
672.2766, 588.6861
672.7587, 622.0504
673.2408, 671.3555
673.7229, 723.8923
674.2050, 755.8221
674.6871, 753.4946
675.1693, 736.9368
675.6514, 702.3550
676.1335, 655.4550
676.6156, 626.1246
677.0977, 617.4202
677.5798, 619.2177
678.0620, 625.4488
678.5441, 637.5120
679.0262, 670.2949
679.5083, 724.7474
679.9904, 789.0482
680.4725, 866.4403
680.9547, 943.3864
681.4368, 1003.756
681.9189, 1047.732
682.4010, 1049.765
682.8831, 972.4585
683.3652, 853.8469
683.8474, 731.3329
684.3295, 600.0117
684.8116, 485.9665
685.2937, 393.0564
685.7758, 319.1671
686.2579, 264.8287
686.7401, 233.6374
687.2222, 212.9864
687.7043, 202.8676
688.1864, 200.2483
688.6685, 198.4908
689.1506, 197.6218
689.6328, 198.0367
690.1149, 199.2134
690.5970, 202.2458
691.0791, 208.3912
691.5612, 217.7735
692.0433, 230.6702
692.5255, 247.2577
693.0076, 267.6523
693.4897, 296.2378
693.9718, 334.9493
694.4539, 359.5103
694.9360, 368.1818
695.4182, 360.4743
695.9003, 332.3903
696.3824, 277.6902
696.8645, 230.1886
697.3466, 189.9796
697.8287, 156.7264
698.3109, 130.7577
698.7930, 111.6525
699.2751, 97.42725
699.7572, 88.20284
700.2393, 82.59904
700.7214, 81.01098
701.2036, 81.73242
701.6857, 81.92154
702.1678, 80.29899
702.6499, 78.28553
703.1320, 76.01072
703.6141, 73.74049
704.0963, 72.13965
704.5784, 71.28736
705.0605, 70.98936
705.5426, 71.39931
706.0247, 72.32040
706.5068, 72.74475
706.9890, 72.57872
707.4711, 72.71682
707.9532, 73.78300
708.4353, 75.45702
708.9174, 77.26801
709.3995, 79.12186
709.8817, 79.98022
710.3638, 77.87193
710.8459, 75.25892
711.3280, 74.38057
711.8101, 75.60673
712.2922, 77.27802
712.7744, 79.48166
713.2565, 81.57145
713.7386, 83.12862
714.2207, 83.94580
714.7028, 84.73164
715.1849, 85.41504
715.6671, 86.20496
716.1492, 87.77179
716.6313, 89.94632
717.1134, 90.60692
717.5955, 89.03773
718.0776, 86.98625
718.5598, 86.43857
719.0419, 86.99709
719.5240, 87.88518
720.0061, 88.67365
720.4882, 89.92123
720.9703, 91.32610
721.4525, 93.42235
721.9346, 97.49043
722.4167, 108.2374
722.8988, 115.0082
723.3809, 114.8093
723.8630, 109.2616
724.3452, 104.3181
724.8273, 99.83722
725.3094, 97.07621
725.7915, 97.30637
726.2736, 99.47473
726.7557, 101.1092
727.2379, 102.2263
727.7200, 102.9569
728.2021, 103.1952
728.6842, 103.2172
729.1663, 103.2228
729.6484, 103.2283
730.1306, 103.2338
730.6127, 103.9049
731.0948, 103.9934
731.5769, 102.6992
732.0590, 99.53167
732.5411, 97.00182
733.0233, 95.24293
733.5054, 93.82272
733.9875, 92.16119
734.4696, 90.38475
734.9517, 89.54373
735.4338, 89.80807
735.9160, 90.63833
736.3981, 91.69932
736.8802, 92.90550
737.3623, 94.35647
737.8444, 97.25989
738.3266, 98.09941
738.8087, 93.54703
739.2908, 86.79308
739.7729, 82.51636
740.2551, 81.38671
740.7372, 81.96894
741.2193, 85.23206
741.7014, 89.17635
742.1835, 88.55032
742.6656, 83.28836
743.1478, 80.33055
743.6299, 82.93091
744.1120, 87.72015
744.5941, 89.80578
745.0762, 89.63954
745.5583, 88.68893
746.0405, 85.92986
746.5226, 84.21204
747.0047, 86.27904
747.4868, 91.26652
747.9689, 94.05695
748.4510, 93.52450
748.9332, 91.32415
749.4153, 87.17290
749.8974, 81.42231
750.3795, 77.98085
750.8616, 76.93129
751.3438, 77.55490
751.8259, 80.73072
752.3080, 84.97980
752.7901, 86.67857
753.2722, 85.81879
753.7543, 84.18118
754.2365, 82.05486
754.7186, 80.26089
755.2007, 79.47126
755.6828, 79.80296
756.1649, 80.86478
756.6470, 83.77592
757.1292, 86.36489
757.6113, 87.33240
758.0934, 86.46201
758.5755, 84.50093
759.0576, 80.87350
759.5397, 78.03017
760.0219, 79.59717
760.5040, 84.08771
760.9861, 86.47095
761.4682, 85.59413
761.9503, 84.52831
762.4324, 86.26267
762.9146, 88.94346
763.3967, 90.32882
763.8788, 88.68758
764.3609, 87.67459
764.8430, 88.68481
765.3251, 90.16212
765.8073, 90.22581
766.2894, 88.40051
766.7715, 87.00320
767.2536, 86.32236
767.7357, 86.26967
768.2178, 86.95914
768.7000, 88.21578
769.1821, 89.29852
769.6642, 89.97803
770.1463, 90.39702
770.6284, 90.71014
771.1105, 90.84713
771.5927, 90.67222
772.0748, 89.71551
772.5569, 88.95383
773.0390, 89.17142
773.5211, 89.64533
774.0032, 88.06121
774.4854, 83.42892
774.9675, 80.55773
775.4496, 81.36619
775.9317, 84.43343
776.4138, 86.53646
776.8959, 87.73441
777.3781, 88.44888
777.8602, 88.49955
778.3423, 88.47679
778.8244, 88.93807
779.3065, 89.77891
779.7886, 90.53354
780.2708, 91.23117
780.7529, 91.61876
781.2350, 91.45623
781.7171, 90.84801
782.1992, 90.99472
782.6813, 92.24923
783.1635, 92.82664
783.6456, 91.03065
784.1277, 87.97475
784.6098, 87.65251
785.0919, 89.82166
785.5740, 92.02875
786.0562, 93.88290
786.5383, 94.24648
787.0204, 90.81580
787.5025, 83.53848
787.9846, 79.21639
788.4667, 82.14217
788.9489, 85.87043
789.4310, 88.02329
789.9131, 88.56509
790.3952, 87.30300
790.8773, 83.62149
791.3594, 81.05564
791.8416, 83.68813
792.3237, 89.30433
792.8058, 91.81384
793.2879, 90.97388
793.7700, 89.43238
794.2521, 89.06301
794.7343, 88.75484
795.2164, 87.17138
795.6985, 83.41029
796.1806, 81.96575
796.6627, 85.38747
797.1448, 88.85150
797.6270, 88.79462
798.1091, 84.51305
798.5912, 82.70174
799.0733, 83.74762
799.5554, 85.33639
800.0375, 84.86952
800.5197, 83.42670
801.0018, 83.30691
801.4839, 84.99980
801.9660, 86.47218
802.4481, 85.83588
802.9302, 84.84538
803.4124, 85.10503
803.8945, 87.93493
804.3766, 89.52412
804.8587, 89.58923
805.3408, 88.78457
805.8229, 87.38151
806.3051, 85.38893
806.7872, 84.24998
807.2693, 84.13741
807.7514, 84.56902
808.2335, 85.10475
808.7156, 85.83412
809.1978, 87.13616
809.6799, 89.58103
810.1620, 90.92977
810.6441, 89.32072
811.1262, 86.68690
811.6083, 84.86555
812.0905, 83.71158
812.5726, 83.96172
813.0547, 86.16069
813.5368, 88.73357
814.0189, 89.19444
814.5010, 88.13077
814.9832, 89.54146
815.4653, 94.63602
815.9474, 99.41761
816.4295, 99.57940
816.9116, 97.54543
817.3937, 96.29158
817.8759, 96.70641
818.3580, 97.62441
818.8401, 99.14598
819.3222, 100.8481
819.8043, 102.2380
820.2864, 103.0751
820.7686, 104.7613
821.2507, 107.4856
821.7328, 110.8392
822.2149, 113.9204
822.6970, 117.1856
823.1791, 122.2300
823.6613, 130.0579
824.1434, 137.3727
824.6255, 141.2202
825.1076, 143.6493
825.5897, 146.8647
826.0718, 149.3213
826.5540, 155.7030
827.0361, 167.0910
827.5182, 181.2399
828.0003, 196.4073
828.4824, 212.4470
828.9645, 226.4195
829.4467, 236.9776
829.9288, 248.8834
830.4109, 268.4750
830.8930, 292.6294
831.3751, 316.6128
831.8572, 337.8105
832.3394, 361.4747
832.8215, 388.6858
833.3036, 420.1172
833.7857, 455.8841
834.2678, 494.0648
834.7499, 541.6027
835.2321, 600.5844
835.7142, 664.4886
836.1963, 731.6663
836.6784, 797.9313
837.1605, 849.7742
837.6426, 888.2126
838.1248, 893.5604
838.6069, 835.6111
839.0890, 743.1111
839.5711, 646.8907
840.0532, 543.4420
840.5353, 454.8683
841.0175, 384.4273
841.4996, 326.2391
841.9817, 275.0693
842.4638, 230.5517
842.9459, 196.7113
843.4280, 174.6136
843.9102, 159.6323
844.3923, 148.9979
844.8744, 141.2877
845.3565, 134.4689
845.8386, 128.1708
846.3207, 122.3932
846.8029, 117.5695
847.2850, 112.9975
847.7671, 107.8218
848.2492, 100.7508
848.7313, 96.89528
849.2134, 97.15330
849.6956, 98.41029
850.1777, 97.27512
850.6598, 94.52145
851.1419, 93.19222
851.6240, 93.82606
852.1061, 93.96806
852.5883, 89.84486
853.0704, 85.52084
853.5525, 85.20714
854.0346, 91.58418
854.5167, 95.57723
854.9988, 96.34595
855.4810, 95.12122
855.9631, 91.89869
856.4452, 86.60178
856.9273, 84.52615
857.4094, 86.00212
857.8915, 87.90684
858.3737, 87.59185
858.8558, 86.03445
859.3379, 84.21051
859.8200, 82.20121
860.3021, 80.71538
860.7842, 80.72802
861.2664, 80.74986
861.7485, 79.68612
862.2306, 77.26068
862.7127, 76.83331
863.1948, 78.88219
863.6769, 80.80872
864.1591, 80.15842
864.6412, 78.15983
865.1233, 77.86089
865.6054, 79.25037
866.0875, 80.84281
866.5696, 82.36778
867.0518, 83.30827
867.5339, 83.19212
868.0160, 81.92609
868.4981, 80.63158
868.9802, 79.19564
869.4623, 77.95549
869.9445, 76.93250
870.4266, 76.25269
870.9087, 76.84463
871.3908, 78.58014
871.8729, 80.02189
872.3550, 80.50159
872.8372, 80.16938
873.3193, 78.51611
873.8014, 75.91978
874.2835, 74.47053
874.7656, 75.68761
875.2477, 76.86264
875.7299, 77.18539
876.2120, 76.98899
876.6941, 77.84711
877.1762, 79.75333
877.6583, 81.13700
878.1404, 81.46307
878.6226, 80.73136
879.1047, 77.78627
879.5869, 73.77659
880.0690, 71.58329
880.5511, 74.07628
881.0332, 76.50531
881.5153, 77.59675
881.9974, 77.69469
882.4796, 77.38803
882.9617, 76.61678
883.4438, 75.69594
883.9259, 74.52872
884.4080, 73.61077
884.8901, 74.37675
885.3723, 75.97183
885.8544, 76.20462
886.3365, 72.49158
886.8186, 70.27863
887.3007, 73.79156
887.7828, 79.48389
888.2650, 82.39066
888.7471, 81.63729
889.2292, 79.92944
889.7113, 76.92078
890.1934, 74.28098
890.6755, 75.04704
891.1577, 77.97179
891.6398, 78.79846
892.1219, 76.26929
892.6040, 74.00361
893.0861, 75.75529
893.5682, 78.24840
894.0504, 78.08731
894.5325, 72.77368
895.0146, 70.23717
895.4967, 71.51690
895.9788, 73.65251
896.4609, 74.03095
896.9431, 72.99984
897.4252, 72.84312
897.9073, 73.68994
898.3894, 74.39951
898.8715, 73.05714
899.3536, 71.95846
899.8358, 73.66785
900.3179, 78.73043
900.8000, 82.11622
901.2821, 83.52413
901.7642, 82.85953
902.2463, 78.84681
902.7285, 72.43217
903.2106, 71.19978
903.6927, 74.96653
904.1748, 78.61731
904.6569, 78.68434
905.1390, 77.38818
905.6212, 77.05139
906.1033, 77.38187
906.5854, 76.88002
907.0675, 73.04919
907.5496, 70.94337
908.0317, 72.28802
908.5139, 75.93852
908.9960, 78.92408
909.4781, 81.22999
909.9602, 81.57687
910.4423, 78.41611
910.9244, 74.86144
911.4066, 75.34531
911.8887, 78.05104
912.3708, 79.64056
912.8529, 77.56951
913.3350, 76.09963
913.8171, 76.35563
914.2993, 77.31037
914.7814, 77.44344
915.2635, 76.62411
915.7456, 77.09294
916.2277, 79.57024
916.7098, 81.63052
917.1920, 79.04779
917.6741, 74.76428
918.1562, 73.50270
918.6383, 77.30197
919.1204, 80.23830
919.6025, 79.92463
920.0847, 78.61011
920.5668, 77.51891
921.0489, 76.50249
921.5310, 76.86069
922.0131, 78.64543
922.4952, 81.30656
922.9774, 85.47872
923.4595, 89.71552
923.9416, 91.90495
924.4237, 91.94565
924.9058, 90.69984
925.3879, 86.24546
925.8701, 82.95107
926.3522, 82.95832
926.8343, 85.81061
927.3164, 88.16373
927.7985, 90.16559
928.2806, 90.30033
928.7628, 86.27930
929.2449, 81.50293
929.7270, 81.62043
930.2091, 85.39068
930.6912, 89.45750
931.1733, 93.85712
931.6555, 96.66250
932.1376, 96.56018
932.6197, 94.79520
933.1018, 93.13234
933.5839, 91.48565
934.0660, 90.73058
934.5482, 91.38232
935.0303, 91.82961
935.5124, 88.97064
935.9945, 84.71471
936.4766, 82.49349
936.9587, 83.55294
937.4409, 85.32086
937.9230, 88.79398
938.4051, 91.24355
938.8872, 90.01122
939.3693, 83.96596
939.8514, 80.90898
940.3336, 81.06063
940.8157, 82.88628
941.2978, 86.57343
941.7799, 90.42051
942.2620, 91.41202
942.7441, 89.56737
943.2263, 88.36497
943.7084, 90.34112
944.1905, 91.93549
944.6726, 91.18353
945.1547, 88.73671
945.6368, 89.32410
946.1190, 93.20238
946.6011, 95.80359
947.0832, 94.62559
947.5653, 91.58266
948.0474, 88.11653
948.5295, 84.86491
949.0117, 83.31101
949.4938, 85.64731
949.9759, 87.62391
950.4580, 88.48624
950.9401, 88.55346
951.4222, 88.04505
951.9044, 86.93847
952.3865, 86.55766
952.8686, 87.23920
953.3507, 88.07574
953.8328, 88.21856
954.3149, 87.88434
954.7971, 87.10995
955.2792, 85.47157
955.7613, 85.18554
956.2434, 87.50439
956.7255, 90.11218
957.2076, 91.73346
957.6898, 92.38235
958.1719, 92.09502
958.6540, 90.89325
959.1361, 90.38754
959.6182, 92.51585
960.1003, 95.19142
960.5825, 97.21997
961.0646, 98.29427
961.5467, 96.95514
962.0288, 90.52386
962.5109, 85.35701
962.9930, 83.05080
963.4752, 82.91325
963.9573, 83.46346
964.4394, 84.72395
964.9215, 87.01579
965.4036, 91.06417
965.8857, 94.93320
966.3679, 96.51882
966.8500, 97.21885
967.3321, 99.00160
967.8142, 104.7575
968.2963, 106.4865
968.7784, 103.0264
969.2606, 97.78583
969.7427, 93.12373
970.2248, 89.55225
970.7069, 89.71785
971.1890, 93.76451
971.6711, 97.67260
972.1533, 98.59451
972.6354, 98.63385
973.1175, 99.23199
973.5996, 100.4211
974.0817, 100.7882
974.5638, 100.1675
975.0460, 99.24299
975.5281, 97.88079
976.0102, 96.77410
976.4923, 98.12302
976.9744, 101.0176
977.4565, 102.7850
977.9387, 100.0994
978.4208, 98.61710
978.9029, 102.0316
979.3850, 106.9513
979.8671, 108.2605
980.3492, 104.8489
980.8314, 104.9315
981.3135, 110.1364
981.7956, 115.6111
982.2777, 115.8342
982.7598, 113.0587
983.2419, 110.2869
983.7241, 107.9415
984.2062, 105.8172
984.6883, 102.7869
985.1704, 101.1484
985.6525, 102.2479
986.1346, 105.8205
986.6168, 109.3555
987.0989, 112.8332
987.5810, 115.6361
988.0631, 117.6812
988.5452, 118.6635
989.0273, 116.9638
989.5095, 114.0041
989.9916, 113.5342
990.4737, 119.5782
990.9558, 122.6138
991.4379, 120.0478
991.9200, 116.1216
992.4022, 118.8208
992.8843, 126.2119
993.3664, 129.6156
993.8485, 126.9308
994.3306, 123.2166
994.8127, 120.9743
995.2949, 119.9024
995.7770, 120.0094
996.2591, 121.4237
996.7412, 122.6775
997.2233, 123.7969
997.7054, 124.6177
998.1876, 124.5793
998.6697, 124.3537
999.1518, 126.3787
999.6339, 129.7844
1000.116, 131.1427
1000.598, 126.6376
1001.080, 122.4691
1001.562, 121.0779
1002.044, 121.2072
1002.527, 120.2935
1003.009, 118.1412
1003.491, 118.2951
1003.973, 121.9167
1004.455, 125.7551
1004.937, 125.8864
1005.419, 124.2178
1005.901, 123.0065
1006.384, 122.6221
1006.866, 122.9233
1007.348, 124.5340
1007.830, 125.7866
1008.312, 125.6013
1008.794, 124.2316
1009.276, 122.9164
1009.758, 121.7182
1010.240, 121.0945
1010.723, 122.6525
1011.205, 123.5473
1011.687, 120.7724
1012.169, 116.0621
1012.651, 114.1253
1013.133, 115.7504
1013.615, 118.1955
1014.097, 121.3173
1014.580, 124.4418
1015.062, 126.9943
1015.544, 128.7404
1016.026, 128.8052
1016.508, 126.5984
1016.990, 125.2898
1017.472, 127.3982
1017.954, 129.5960
1018.436, 129.6425
1018.919, 127.7099
1019.401, 127.4994
1019.883, 129.0115
1020.365, 132.0935
1020.847, 138.2475
1021.329, 144.6084
1021.811, 147.9545
1022.293, 149.2722
1022.776, 151.0264
1023.258, 152.5975
1023.740, 156.9798
1024.222, 166.2171
1024.704, 175.4410
1025.186, 175.9241
1025.668, 170.6626
1026.150, 170.3353
1026.632, 176.7198
1027.115, 183.8979
1027.597, 185.7093
1028.079, 189.3541
1028.561, 201.3694
1029.043, 221.1870
1029.525, 236.5032
1030.007, 246.7847
1030.489, 255.2367
1030.972, 265.6472
1031.454, 272.3103
1031.936, 264.7572
1032.418, 247.7091
1032.900, 231.4546
1033.382, 217.0068
1033.864, 206.4609
1034.346, 198.9875
1034.828, 196.3642
1035.311, 203.1412
1035.793, 217.5408
1036.275, 226.5757
1036.757, 229.2469
1037.239, 232.3578
1037.721, 236.2050
1038.203, 246.1133
1038.685, 269.5074
1039.167, 304.4283
1039.650, 330.1717
1040.132, 342.2381
1040.614, 362.3521
1041.096, 392.2841
1041.578, 442.5350
1042.060, 517.6526
1042.542, 627.1598
1043.024, 789.1636
1043.507, 997.7916
1043.989, 1282.799
1044.471, 1665.011
1044.953, 2107.214
1045.435, 2594.029
1045.917, 3121.699
1046.399, 3666.814
1046.881, 4228.146
1047.364, 4830.453
1047.846, 5459.392
1048.328, 6163.756
1048.810, 6993.993
1049.292, 7935.557
1049.774, 8883.884
1050.256, 9787.709
1050.738, 10837.68
1051.220, 12005.40
1051.703, 13509.34
1052.185, 15818.05
1052.667, 18586.49
1053.149, 21569.43
1053.631, 25182.45
1054.113, 26729.82
1054.595, 24612.16
1055.077, 21204.18
1055.559, 17256.30
1056.042, 12978.17
1056.524, 9573.489
1057.006, 7009.182
1057.488, 5013.962
1057.970, 3593.434
1058.452, 2538.673
1058.934, 1787.907
1059.416, 1287.561
1059.899, 934.0959
1060.381, 746.2268
1060.863, 608.7064
1061.345, 517.2174
1061.827, 453.2888
1062.309, 403.6211
1062.791, 364.7446
1063.273, 332.9680
1063.755, 307.5633
1064.238, 287.0645
1064.720, 274.6210
1065.202, 262.1158
1065.684, 247.0414
1066.166, 230.5950
1066.648, 214.8242
1067.130, 200.6634
1067.612, 191.6918
1068.094, 190.9518
1068.577, 191.1309
1069.059, 188.1294
1069.541, 183.6707
1070.023, 179.4199
1070.505, 175.4566
1070.987, 171.0112
1071.469, 165.8686
1071.951, 161.7849
1072.434, 161.5008
1072.916, 161.7800
1073.398, 157.3038
1073.880, 149.8899
1074.362, 146.1554
1074.844, 151.5378
1075.326, 153.5482
1075.808, 149.6183
1076.291, 143.6502
1076.773, 140.8841
1077.255, 140.5507
1077.737, 140.8803
1078.219, 141.6805
1078.701, 141.8637
1079.183, 140.4461
1079.665, 138.6382
1080.147, 136.6000
1080.630, 134.6735
1081.112, 135.4064
1081.594, 138.6880
1082.076, 141.1010
1082.558, 141.1435
1083.040, 140.2504
1083.522, 139.6716
1084.004, 138.9516
1084.486, 137.2197
1084.969, 132.9382
1085.451, 132.2581
1085.933, 136.2278
1086.415, 139.8699
1086.897, 138.0920
1087.379, 134.0878
1087.861, 133.7853
1088.343, 136.4620
1088.826, 138.5471
1089.308, 138.3824
1089.790, 137.8279
1090.272, 136.5609
1090.754, 135.8762
1091.236, 138.8262
1091.718, 144.3418
1092.200, 147.2534
1092.682, 146.6386
1093.165, 145.4317
1093.647, 144.8036
1094.129, 144.7824
1094.611, 145.3720
1095.093, 146.5451
1095.575, 148.8038
1096.057, 152.2555
1096.539, 153.8588
1097.022, 151.4102
1097.504, 148.7586
1097.986, 151.4421
1098.468, 155.7215
1098.950, 156.1981
1099.432, 150.2489
1099.914, 145.1343
1100.396, 140.7369
1100.879, 137.8245
1101.361, 137.5870
1101.843, 138.9656
1102.325, 139.8452
1102.807, 140.4790
1103.289, 141.8590
1103.771, 145.2114
1104.253, 148.2446
1104.735, 150.6975
1105.218, 152.5740
1105.700, 154.0583
1106.182, 154.9960
1106.664, 154.3671
1107.146, 152.0330
1107.628, 149.3697
1108.110, 147.0124
1108.592, 144.7360
1109.074, 142.2607
1109.557, 139.7690
1110.039, 138.3518
1110.521, 138.0176
1111.003, 137.0433
1111.485, 134.5739
1111.967, 132.4227
1112.449, 133.4318
1112.931, 135.0807
1113.414, 134.2974
1113.896, 130.0963
1114.378, 127.2360
1114.860, 125.9469
1115.342, 125.0070
1115.824, 123.9380
1116.306, 122.6245
1116.788, 120.1516
1117.271, 117.3818
1117.753, 116.2145
1118.235, 119.0733
1118.717, 120.9794
1119.199, 121.7703
1119.681, 121.3028
1120.163, 117.9553
1120.645, 113.4531
1121.127, 113.9335
1121.609, 119.0450
1122.092, 122.9751
1122.574, 122.3089
1123.056, 120.4227
1123.538, 117.7892
1124.020, 115.2484
1124.502, 114.7724
1124.984, 116.1055
1125.466, 116.8993
1125.949, 116.5902
1126.431, 116.8790
1126.913, 120.5976
1127.395, 123.9367
1127.877, 123.7076
1128.359, 120.3878
1128.841, 117.2294
1129.323, 114.1562
1129.806, 112.7401
1130.288, 114.3496
1130.770, 116.1175
1131.252, 113.9239
1131.734, 110.7094
1132.216, 110.7404
1132.698, 115.9683
1133.180, 118.9143
1133.662, 119.3951
1134.145, 118.2593
1134.627, 114.6559
1135.109, 110.6837
1135.591, 110.2842
1136.073, 112.2012
1136.555, 113.2650
1137.037, 110.6747
1137.519, 110.4013
1138.001, 113.8111
1138.484, 117.4256
1138.966, 116.9639
1139.448, 114.0623
1139.930, 112.5435
1140.412, 112.5419
1140.894, 113.1663
1141.376, 114.5496
1141.858, 115.9563
1142.341, 117.6360
1142.823, 118.7882
1143.305, 117.2840
1143.787, 113.8482
1144.269, 111.9071
1144.751, 112.1649
1145.233, 112.4249
1145.715, 110.6220
1146.198, 109.3303
1146.680, 110.0198
1147.162, 112.3235
1147.644, 114.8767
1148.126, 117.6027
1148.608, 119.3121
1149.090, 119.4911
1149.572, 119.0142
1150.054, 117.2497
1150.536, 116.0906
1151.019, 118.1181
1151.501, 123.8361
1151.983, 124.6772
1152.465, 120.4336
1152.947, 116.6266
1153.429, 116.2271
1153.911, 117.6040
1154.393, 120.8569
1154.876, 124.3065
1155.358, 124.5333
1155.840, 119.3656
1156.322, 117.6472
1156.804, 120.0642
1157.286, 123.0419
1157.768, 123.4766
1158.250, 122.9731
1158.733, 124.1678
1159.215, 126.2822
1159.697, 125.9775
1160.179, 120.6375
1160.661, 117.8191
1161.143, 118.9411
1161.625, 121.1986
1162.107, 121.2797
1162.589, 120.3157
1163.072, 120.5875
1163.554, 122.1112
1164.036, 122.0616
1164.518, 117.2510
1165.000, 115.2767
1165.482, 118.9300
1165.964, 124.7337
1166.446, 126.2549
1166.928, 125.0286
1167.411, 124.3684
1167.893, 124.8963
1168.375, 125.9729
1168.857, 128.4064
1169.339, 130.0201
1169.821, 129.6136
1170.303, 128.0520
1170.785, 128.2638
1171.268, 129.5215
1171.750, 129.1130
1172.232, 124.8965
1172.714, 122.3195
1173.196, 125.2361
1173.678, 128.9298
1174.160, 130.6738
1174.642, 130.7381
1175.125, 130.5538
1175.607, 130.1501
1176.089, 129.6625
1176.571, 127.8120
1177.053, 127.6737
1177.535, 133.0439
1178.017, 138.9138
1178.499, 140.2402
1178.981, 137.0987
1179.464, 135.2411
1179.946, 134.7072
1180.428, 134.8465
1180.910, 136.4448
1181.392, 137.2977
1181.874, 135.4811
1182.356, 132.5272
1182.838, 130.5567
1183.320, 129.5488
1183.803, 130.0716
1184.285, 132.2148
1184.767, 134.3497
1185.249, 134.9760
1185.731, 135.4546
1186.213, 136.9171
1186.695, 138.9390
1187.177, 139.9607
1187.660, 139.8165
1188.142, 141.8560
1188.624, 147.0159
1189.106, 151.0660
1189.588, 148.6445
1190.070, 144.8964
1190.552, 144.3999
1191.034, 146.7370
1191.516, 147.4409
1191.999, 146.3646
1192.481, 144.6548
1192.963, 142.0409
1193.445, 140.9594
1193.927, 146.4721
1194.409, 152.9665
1194.891, 154.1630
1195.373, 149.5632
1195.855, 145.7343
1196.338, 142.4685
1196.820, 141.6384
1197.302, 144.3200
1197.784, 149.0139
1198.266, 156.7321
1198.748, 164.0930
1199.230, 165.9410
1199.712, 160.5519
1200.195, 158.1379
1200.677, 158.9721
1201.159, 160.9353
1201.641, 163.4628
1202.123, 165.8266
1202.605, 168.0007
1203.087, 169.1231
1203.569, 167.2547
1204.052, 159.4846
1204.534, 157.8646
1205.016, 163.3257
1205.498, 169.2881
1205.980, 170.5161
1206.462, 170.4035
1206.944, 173.9846
1207.426, 179.1136
1207.908, 180.1935
1208.391, 173.9702
1208.873, 172.6518
1209.355, 177.6352
1209.837, 182.6630
1210.319, 181.7162
1210.801, 178.4440
1211.283, 176.6366
1211.765, 176.0813
1212.247, 175.6221
1212.730, 175.1645
1213.212, 174.5193
1213.694, 173.4701
1214.176, 173.2104
1214.658, 176.2451
1215.140, 179.7358
1215.622, 179.4316
1216.104, 176.1841
1216.587, 176.5043
1217.069, 182.7958
1217.551, 184.8009
1218.033, 179.8333
1218.515, 174.6774
1218.997, 177.6074
1219.479, 184.0329
1219.961, 189.7953
1220.443, 194.2200
1220.926, 195.3854
1221.408, 192.4748
1221.890, 189.3314
1222.372, 186.5905
1222.854, 184.8071
1223.336, 185.3780
1223.818, 186.8135
1224.300, 187.0147
1224.782, 185.7343
1225.265, 187.0339
1225.747, 191.7533
1226.229, 194.7790
1226.711, 193.8268
1227.193, 192.5391
1227.675, 197.4678
1228.157, 203.3279
1228.639, 202.5323
1229.122, 193.3772
1229.604, 190.1358
1230.086, 193.6934
1230.568, 197.0977
1231.050, 197.4101
1231.532, 196.9818
1232.014, 198.2229
1232.496, 200.4690
1232.979, 203.5543
1233.461, 207.8938
1233.943, 207.6941
1234.425, 202.3720
1234.907, 198.4248
1235.389, 199.4831
1235.871, 202.3039
1236.353, 203.9187
1236.835, 205.2308
1237.318, 207.8504
1237.800, 212.4043
1238.282, 213.2043
1238.764, 210.0300
1239.246, 207.5304
1239.728, 208.8264
1240.210, 211.1881
1240.692, 213.0017
1241.175, 214.1114
1241.657, 214.1603
1242.139, 212.8705
1242.621, 212.4498
1243.103, 212.8996
1243.585, 214.0437
1244.067, 216.8055
1244.549, 219.1253
1245.031, 219.3217
1245.514, 218.3576
1245.996, 217.2009
1246.478, 215.5920
1246.960, 217.8218
1247.442, 223.7487
1247.924, 229.1900
1248.406, 231.7070
1248.888, 232.6253
1249.370, 232.5098
1249.853, 231.2599
1250.335, 227.7958
1250.817, 222.3322
1251.299, 221.0101
1251.781, 223.9337
1252.263, 228.3563
1252.745, 233.5264
1253.227, 238.7531
1253.710, 244.8331
1254.192, 249.9134
1254.674, 250.6276
1255.156, 247.7939
1255.638, 247.7052
1256.120, 250.4753
1256.602, 252.7300
1257.084, 252.0018
1257.567, 251.2115
1258.049, 251.3224
1258.531, 251.8263
1259.013, 251.4545
1259.495, 250.8926
1259.977, 253.1081
1260.459, 258.0795
1260.941, 263.0036
1261.423, 266.9010
1261.906, 270.0926
1262.388, 272.6594
1262.870, 274.6056
1263.352, 275.7866
1263.834, 276.3759
1264.316, 275.8811
1264.798, 274.5899
1265.280, 276.3641
1265.762, 286.9254
1266.245, 292.4395
1266.727, 288.4508
1267.209, 283.2750
1267.691, 291.4901
1268.173, 304.7606
1268.655, 307.9044
1269.137, 300.3598
1269.619, 296.8166
1270.102, 300.7794
1270.584, 303.4655
1271.066, 302.6550
1271.548, 301.3657
1272.030, 303.5614
1272.512, 307.3101
1272.994, 310.1475
1273.476, 312.0282
1273.958, 315.7444
1274.441, 321.9645
1274.923, 326.9641
1275.405, 329.9551
1275.887, 331.2400
1276.369, 329.2100
1276.851, 327.1251
1277.333, 329.5187
1277.815, 335.1889
1278.297, 334.5918
1278.780, 327.1970
1279.262, 326.0262
1279.744, 335.1233
1280.226, 344.1404
1280.708, 342.9003
1281.190, 340.1759
1281.672, 343.5213
1282.154, 350.4698
1282.637, 349.7583
1283.119, 342.7528
1283.601, 343.8717
1284.083, 357.5958
1284.565, 369.0182
1285.047, 365.7913
1285.529, 361.6515
1286.011, 364.0078
1286.494, 369.9247
1286.976, 370.1746
1287.458, 366.8061
1287.940, 366.9796
1288.422, 372.5182
1288.904, 378.5894
1289.386, 387.0592
1289.868, 389.9442
1290.350, 381.8461
1290.833, 370.5103
1291.315, 372.9497
1291.797, 383.3217
1292.279, 389.3885
1292.761, 387.9740
1293.243, 392.0497
1293.725, 406.9237
1294.207, 416.1906
1294.689, 412.6752
1295.172, 405.5079
1295.654, 407.9220
1296.136, 414.9382
##END=



