##NAMES=Cerussite
##RRUFFID=R050023
##IDEAL CHEMISTRY=Pb^2+^CO_3_
##LOCALITY=Mammoth - St Anthony mine, Tiger, Pinal County, Arizona, USA
##OWNER=RRUFF
##SOURCE=Eugene Schlepp
##DESCRIPTION=Prismatic white single crystals
##STATUS=The identification of this mineral has been confirmed by X-ray diffraction and chemical analysis
##URL=rruff.info/R050023
##MEASURED CHEMISTRY=Pb_1.00_CO_3_ ; CO_2_ not measured but estimated by difference and stoichiometry
93.53876, 37.71600
94.02087, 34.02852
94.50299, 31.31206
94.98511, 31.71176
95.46722, 34.58754
95.94934, 37.71427
96.43146, 38.82382
96.91357, 37.24058
97.39569, 36.65729
97.87781, 38.11910
98.35992, 39.53400
98.84204, 39.51112
99.32416, 38.05752
99.80627, 36.35559
100.2884, 35.86343
100.7705, 37.05296
101.2526, 38.50594
101.7347, 40.00801
102.2169, 41.86473
102.6990, 44.70436
103.1811, 48.61521
103.6632, 52.55793
104.1453, 54.67964
104.6274, 54.09707
105.1096, 53.92211
105.5917, 54.79374
106.0738, 56.16002
106.5559, 57.06312
107.0380, 57.03264
107.5201, 56.98230
108.0023, 58.85479
108.4844, 62.78054
108.9665, 67.21564
109.4486, 71.59377
109.9307, 76.08624
110.4128, 81.29243
110.8950, 87.90948
111.3771, 94.74990
111.8592, 99.81676
112.3413, 102.7463
112.8234, 105.1460
113.3055, 107.2336
113.7877, 109.2052
114.2698, 112.8115
114.7519, 118.4888
115.2340, 126.5947
115.7161, 138.0459
116.1982, 154.1394
116.6804, 170.1329
117.1625, 180.2372
117.6446, 183.6057
118.1267, 188.2323
118.6088, 197.8218
119.0909, 209.8746
119.5731, 222.9086
120.0552, 236.6982
120.5373, 250.7709
121.0194, 263.9592
121.5015, 275.2282
121.9836, 288.6502
122.4658, 304.6272
122.9479, 323.5316
123.4300, 345.9091
123.9121, 372.0848
124.3942, 401.8319
124.8763, 434.4816
125.3585, 471.3159
125.8406, 509.7386
126.3227, 550.7491
126.8048, 592.2369
127.2869, 631.0338
127.7690, 664.4351
128.2512, 695.7287
128.7333, 737.3650
129.2154, 798.3454
129.6975, 859.4909
130.1796, 920.2825
130.6617, 978.3664
131.1439, 1029.575
131.6260, 1070.774
132.1081, 1103.684
132.5902, 1141.809
133.0723, 1205.341
133.5544, 1253.073
134.0366, 1269.734
134.5187, 1265.151
135.0008, 1255.991
135.4829, 1253.015
135.9650, 1256.057
136.4471, 1262.564
136.9293, 1271.921
137.4114, 1284.891
137.8935, 1303.060
138.3756, 1325.209
138.8577, 1348.314
139.3398, 1369.541
139.8220, 1388.867
140.3041, 1418.036
140.7862, 1457.222
141.2683, 1503.352
141.7504, 1553.897
142.2325, 1609.665
142.7147, 1674.104
143.1968, 1751.335
143.6789, 1841.569
144.1610, 1930.823
144.6431, 2022.477
145.1252, 2110.187
145.6074, 2188.049
146.0895, 2257.167
146.5716, 2326.132
147.0537, 2403.844
147.5358, 2489.591
148.0179, 2560.558
148.5001, 2609.970
148.9822, 2649.970
149.4643, 2691.812
149.9464, 2735.729
150.4285, 2769.998
150.9106, 2785.756
151.3928, 2781.757
151.8749, 2764.400
152.3570, 2727.246
152.8391, 2680.882
153.3212, 2632.448
153.8033, 2582.387
154.2855, 2534.246
154.7676, 2492.539
155.2497, 2455.358
155.7318, 2415.045
156.2139, 2365.305
156.6960, 2314.356
157.1782, 2272.408
157.6603, 2240.872
158.1424, 2212.288
158.6245, 2179.349
159.1066, 2144.947
159.5887, 2117.083
160.0709, 2100.115
160.5530, 2090.018
161.0351, 2080.561
161.5172, 2070.518
161.9993, 2065.425
162.4814, 2072.742
162.9636, 2087.731
163.4457, 2102.624
163.9278, 2108.300
164.4099, 2113.988
164.8920, 2140.062
165.3741, 2194.173
165.8563, 2247.041
166.3384, 2278.404
166.8205, 2296.415
167.3026, 2313.758
167.7847, 2334.294
168.2668, 2357.875
168.7490, 2385.302
169.2311, 2419.286
169.7132, 2451.142
170.1953, 2474.598
170.6774, 2493.400
171.1595, 2513.356
171.6417, 2537.964
172.1238, 2565.071
172.6059, 2589.308
173.0880, 2610.112
173.5701, 2628.975
174.0522, 2647.481
174.5344, 2664.770
175.0165, 2679.335
175.4986, 2690.966
175.9807, 2699.202
176.4628, 2703.341
176.9449, 2704.805
177.4271, 2698.636
177.9092, 2679.862
178.3913, 2654.382
178.8734, 2630.209
179.3555, 2611.386
179.8376, 2595.949
180.3197, 2578.146
180.8019, 2558.288
181.2840, 2535.069
181.7661, 2506.925
182.2482, 2476.146
182.7303, 2445.759
183.2124, 2417.335
183.6946, 2390.007
184.1767, 2360.522
184.6588, 2324.975
185.1409, 2294.848
185.6230, 2274.939
186.1051, 2260.611
186.5873, 2246.107
187.0694, 2228.409
187.5515, 2210.047
188.0336, 2197.829
188.5157, 2195.617
188.9978, 2193.400
189.4800, 2187.181
189.9621, 2180.558
190.4442, 2176.692
190.9263, 2176.879
191.4084, 2181.455
191.8905, 2191.800
192.3727, 2211.599
192.8548, 2230.989
193.3369, 2246.936
193.8190, 2262.388
194.3011, 2280.409
194.7832, 2302.240
195.2654, 2326.426
195.7475, 2349.568
196.2296, 2370.798
196.7117, 2392.974
197.1938, 2412.778
197.6759, 2435.405
198.1581, 2467.400
198.6402, 2510.733
199.1223, 2558.132
199.6044, 2595.401
200.0865, 2615.885
200.5686, 2639.327
201.0508, 2664.699
201.5329, 2694.752
202.0150, 2733.649
202.4971, 2782.015
202.9792, 2833.183
203.4613, 2876.108
203.9435, 2906.219
204.4256, 2937.925
204.9077, 2972.977
205.3898, 3008.923
205.8719, 3043.247
206.3540, 3075.863
206.8362, 3109.622
207.3183, 3149.345
207.8004, 3197.787
208.2825, 3244.531
208.7646, 3294.630
209.2467, 3339.552
209.7289, 3373.076
210.2110, 3394.983
210.6931, 3410.436
211.1752, 3425.893
211.6573, 3443.581
212.1395, 3452.312
212.6216, 3445.272
213.1037, 3435.774
213.5858, 3434.198
214.0679, 3437.935
214.5500, 3434.090
215.0322, 3406.942
215.5143, 3351.065
215.9964, 3308.599
216.4785, 3292.538
216.9606, 3277.441
217.4427, 3257.333
217.9249, 3230.248
218.4070, 3194.281
218.8891, 3146.447
219.3712, 3086.324
219.8533, 3029.693
220.3354, 2977.727
220.8176, 2928.347
221.2997, 2882.676
221.7818, 2839.215
222.2639, 2795.008
222.7460, 2747.977
223.2281, 2698.295
223.7103, 2652.088
224.1924, 2614.541
224.6745, 2574.710
225.1566, 2527.807
225.6387, 2477.587
226.1208, 2428.930
226.6030, 2384.429
227.0851, 2344.558
227.5672, 2312.118
228.0493, 2297.930
228.5314, 2276.229
229.0135, 2240.907
229.4957, 2197.055
229.9778, 2148.620
230.4599, 2097.065
230.9420, 2046.033
231.4241, 2004.658
231.9062, 1978.602
232.3884, 1953.431
232.8705, 1928.613
233.3526, 1903.094
233.8347, 1874.469
234.3168, 1842.270
234.7989, 1810.086
235.2811, 1784.975
235.7632, 1770.740
236.2453, 1754.489
236.7274, 1732.297
237.2095, 1709.787
237.6916, 1690.475
238.1738, 1675.099
238.6559, 1662.084
239.1380, 1649.370
239.6201, 1636.521
240.1022, 1625.587
240.5843, 1624.122
241.0665, 1618.480
241.5486, 1597.748
242.0307, 1564.175
242.5128, 1531.305
242.9949, 1513.832
243.4770, 1513.484
243.9592, 1507.427
244.4413, 1489.278
244.9234, 1471.044
245.4055, 1458.881
245.8876, 1450.515
246.3697, 1439.380
246.8519, 1419.153
247.3340, 1391.266
247.8161, 1370.367
248.2982, 1363.656
248.7803, 1354.308
249.2624, 1333.825
249.7446, 1307.450
250.2267, 1284.117
250.7088, 1269.197
251.1909, 1259.566
251.6730, 1246.644
252.1551, 1230.996
252.6373, 1210.354
253.1194, 1178.239
253.6015, 1143.738
254.0836, 1117.196
254.5657, 1103.019
255.0478, 1095.500
255.5300, 1085.963
256.0121, 1074.045
256.4942, 1061.552
256.9763, 1048.723
257.4584, 1035.673
257.9406, 1021.829
258.4227, 1007.024
258.9048, 993.1537
259.3869, 983.6505
259.8690, 978.8535
260.3511, 969.7355
260.8333, 950.4054
261.3154, 929.7076
261.7975, 914.3445
262.2796, 904.3244
262.7617, 894.6876
263.2438, 880.0306
263.7260, 861.8840
264.2081, 850.1478
264.6902, 849.5145
265.1723, 849.8221
265.6544, 843.7658
266.1365, 832.5669
266.6187, 820.0607
267.1008, 806.8199
267.5829, 793.7077
268.0650, 783.1297
268.5471, 776.0627
269.0292, 768.5632
269.5114, 754.7042
269.9935, 738.8370
270.4756, 729.2036
270.9577, 733.2997
271.4398, 740.0963
271.9219, 735.3933
272.4041, 718.7898
272.8862, 704.1910
273.3683, 699.8433
273.8504, 701.3488
274.3325, 699.8162
274.8146, 693.7645
275.2968, 686.6143
275.7789, 680.2712
276.2610, 674.6567
276.7431, 669.1108
277.2252, 662.7438
277.7073, 657.3218
278.1895, 656.9318
278.6716, 663.2549
279.1537, 666.0768
279.6358, 658.0437
280.1179, 644.9299
280.6000, 637.0052
281.0822, 636.8416
281.5643, 639.9504
282.0464, 642.0693
282.5285, 643.3715
283.0106, 641.3253
283.4927, 632.2854
283.9749, 621.8881
284.4570, 615.4943
284.9391, 613.3724
285.4212, 612.0414
285.9033, 608.5443
286.3854, 602.9810
286.8676, 599.4490
287.3497, 600.0845
287.8318, 600.4824
288.3139, 598.4221
288.7960, 594.3738
289.2781, 590.0763
289.7603, 586.7036
290.2424, 583.4669
290.7245, 576.9771
291.2066, 560.0556
291.6887, 548.9005
292.1708, 551.5591
292.6530, 559.3180
293.1351, 560.3934
293.6172, 550.7599
294.0993, 536.5928
294.5814, 529.0349
295.0635, 533.3886
295.5457, 534.5390
296.0278, 532.2998
296.5099, 527.2864
296.9920, 517.4656
297.4741, 504.0768
297.9562, 493.0027
298.4384, 490.8422
298.9205, 499.1691
299.4026, 505.5931
299.8847, 508.0442
300.3668, 510.7162
300.8489, 517.6379
301.3311, 525.8931
301.8131, 528.7800
302.2953, 521.0075
302.7774, 505.2796
303.2595, 495.6595
303.7416, 496.6434
304.2237, 497.4430
304.7058, 494.8529
305.1880, 491.3578
305.6701, 490.5460
306.1522, 493.8858
306.6343, 497.4646
307.1164, 493.5352
307.5985, 479.0625
308.0807, 468.4778
308.5628, 466.2614
309.0449, 467.5096
309.5270, 471.1615
310.0091, 476.5323
310.4912, 480.4886
310.9734, 478.3077
311.4555, 470.9204
311.9376, 469.3200
312.4197, 478.0002
312.9018, 487.2408
313.3839, 491.9514
313.8661, 492.5963
314.3482, 490.0342
314.8303, 481.7447
315.3124, 471.7585
315.7945, 468.1924
316.2766, 472.2178
316.7588, 475.7370
317.2409, 472.7933
317.7230, 467.1387
318.2051, 465.0896
318.6872, 468.4954
319.1693, 473.6562
319.6515, 479.8993
320.1336, 486.2083
320.6157, 487.6047
321.0978, 481.2338
321.5799, 471.0204
322.0620, 461.6226
322.5442, 451.8233
323.0263, 448.2852
323.5084, 458.6243
323.9905, 473.8398
324.4726, 482.1282
324.9547, 481.5470
325.4369, 477.1310
325.9190, 472.9401
326.4011, 468.9673
326.8832, 467.1602
327.3653, 469.0346
327.8474, 471.5788
328.3296, 473.5576
328.8117, 474.8383
329.2938, 475.2207
329.7759, 474.4390
330.2580, 472.9359
330.7401, 472.7493
331.2223, 476.2329
331.7044, 478.1118
332.1865, 476.8045
332.6686, 474.1038
333.1507, 471.4255
333.6328, 469.3572
334.1150, 468.5768
334.5971, 470.7372
335.0792, 478.7215
335.5613, 481.6011
336.0434, 475.9749
336.5255, 468.9092
337.0077, 463.4413
337.4898, 459.7571
337.9719, 456.6039
338.4540, 452.3654
338.9361, 447.6943
339.4182, 449.0446
339.9004, 461.8931
340.3825, 472.7277
340.8646, 477.3436
341.3467, 478.0572
341.8288, 477.4590
342.3109, 476.3222
342.7931, 475.1789
343.2752, 474.8543
343.7573, 475.4320
344.2394, 476.2767
344.7215, 477.7799
345.2036, 479.0490
345.6858, 478.9456
346.1679, 477.4909
346.6500, 476.7468
347.1321, 479.2378
347.6142, 483.4167
348.0963, 484.1454
348.5785, 479.5390
349.0606, 475.8252
349.5427, 479.6286
350.0248, 488.4909
350.5069, 495.1746
350.9890, 496.9044
351.4712, 497.2266
351.9533, 498.8849
352.4354, 501.6897
352.9175, 504.8706
353.3996, 508.6345
353.8817, 511.8960
354.3639, 511.1403
354.8460, 503.9811
355.3281, 498.7186
355.8102, 498.0269
356.2923, 499.8217
356.7744, 502.5754
357.2566, 505.7374
357.7387, 507.4799
358.2208, 505.4480
358.7029, 498.6404
359.1850, 493.5528
359.6671, 490.6370
360.1493, 488.7134
360.6314, 488.2401
361.1135, 488.3094
361.5956, 486.9796
362.0777, 482.9342
362.5598, 477.2081
363.0420, 473.7894
363.5241, 475.6989
364.0062, 474.9764
364.4883, 468.3767
364.9704, 460.5111
365.4525, 455.2011
365.9347, 453.2690
366.4168, 452.9238
366.8989, 452.4052
367.3810, 451.6988
367.8631, 451.1006
368.3452, 451.7172
368.8274, 451.0149
369.3095, 446.9297
369.7916, 440.6437
370.2737, 435.0300
370.7558, 431.7069
371.2379, 429.5896
371.7201, 426.8954
372.2022, 423.5608
372.6843, 420.3112
373.1664, 417.5353
373.6485, 414.9846
374.1306, 412.6492
374.6128, 411.0827
375.0949, 407.7422
375.5770, 399.1557
376.0591, 388.2459
376.5412, 380.8580
377.0233, 378.2575
377.5055, 378.7390
377.9876, 381.7190
378.4697, 387.5802
378.9518, 389.3047
379.4339, 383.1085
379.9160, 376.0749
380.3982, 372.9409
380.8803, 372.5461
381.3624, 370.8070
381.8445, 365.2831
382.3266, 357.7195
382.8087, 353.3670
383.2909, 355.9594
383.7730, 357.0596
384.2551, 355.9371
384.7372, 353.6363
385.2193, 350.3426
385.7014, 346.4719
386.1836, 343.4133
386.6657, 343.1810
387.1478, 346.0684
387.6299, 346.0148
388.1120, 339.0284
388.5941, 333.7033
389.0763, 334.8449
389.5584, 338.9502
390.0405, 340.2014
390.5226, 335.6361
391.0047, 328.6193
391.4868, 324.1268
391.9690, 322.2840
392.4511, 322.0671
392.9332, 324.5156
393.4153, 327.3733
393.8974, 328.4886
394.3795, 327.8471
394.8617, 326.7436
395.3438, 325.1799
395.8259, 323.7727
396.3080, 324.3466
396.7901, 327.2473
397.2722, 328.5193
397.7544, 324.3134
398.2365, 316.0906
398.7186, 311.7360
399.2007, 314.3178
399.6828, 317.2641
400.1649, 317.5981
400.6471, 316.7314
401.1292, 317.4914
401.6113, 320.8258
402.0934, 324.4441
402.5755, 324.8900
403.0576, 320.9541
403.5398, 317.3492
404.0219, 314.6987
404.5040, 311.7235
404.9861, 306.3230
405.4682, 299.9937
405.9503, 296.7106
406.4325, 299.4249
406.9146, 306.0286
407.3967, 308.8317
407.8788, 305.8601
408.3609, 303.0736
408.8430, 301.3461
409.3252, 300.4049
409.8073, 300.0860
410.2894, 300.3556
410.7715, 301.2163
411.2536, 303.5394
411.7357, 306.7244
412.2179, 307.2623
412.7000, 304.0600
413.1821, 300.2886
413.6642, 297.4004
414.1463, 295.5548
414.6284, 295.5417
415.1106, 299.0508
415.5927, 302.5374
416.0748, 303.5793
416.5569, 302.5094
417.0390, 299.6641
417.5211, 294.5959
418.0033, 289.9567
418.4854, 290.3849
418.9675, 298.5424
419.4496, 302.5246
419.9317, 298.2336
420.4138, 292.6604
420.8960, 290.2001
421.3781, 290.6867
421.8602, 292.1728
422.3423, 293.4810
422.8244, 294.6455
423.3065, 295.8083
423.7887, 296.9717
424.2708, 298.1355
424.7529, 299.8150
425.2350, 301.1587
425.7171, 300.9337
426.1992, 299.2514
426.6814, 298.0111
427.1635, 299.8742
427.6456, 304.4123
428.1277, 306.0956
428.6098, 303.7579
429.0919, 300.7723
429.5741, 298.9020
430.0562, 297.5012
430.5383, 295.4009
431.0204, 291.6230
431.5025, 288.6171
431.9846, 288.8749
432.4668, 291.6703
432.9489, 294.6976
433.4310, 297.6457
433.9131, 299.7352
434.3952, 299.9773
434.8773, 298.2346
435.3595, 295.5645
435.8416, 289.0972
436.3237, 284.3524
436.8058, 286.8363
437.2879, 293.8643
437.7701, 298.2620
438.2522, 296.2339
438.7343, 290.1428
439.2164, 285.8329
439.6985, 283.1524
440.1806, 282.7602
440.6628, 286.6454
441.1449, 290.8758
441.6270, 292.7272
442.1091, 292.4271
442.5912, 292.1206
443.0733, 293.9384
443.5555, 296.7974
444.0376, 295.7697
444.5197, 288.8452
445.0018, 283.6851
445.4839, 285.8820
445.9660, 289.8962
446.4482, 289.7760
446.9303, 284.2507
447.4124, 278.9704
447.8945, 277.1459
448.3766, 278.0644
448.8587, 280.7079
449.3409, 285.0665
449.8230, 289.7383
450.3051, 294.2527
450.7872, 298.2452
451.2693, 299.0749
451.7514, 294.3246
452.2336, 289.4919
452.7157, 285.0497
453.1978, 282.0884
453.6799, 283.2922
454.1620, 289.0565
454.6441, 295.1041
455.1263, 295.4207
455.6084, 288.4892
456.0905, 284.4375
456.5726, 286.1671
457.0547, 287.9603
457.5368, 287.9984
458.0190, 286.9937
458.5011, 286.4123
458.9832, 287.0160
459.4653, 287.5416
459.9474, 285.3677
460.4295, 280.4285
460.9117, 278.0207
461.3938, 280.2512
461.8759, 283.8379
462.3580, 285.5884
462.8401, 285.9478
463.3222, 287.3738
463.8044, 293.2778
464.2865, 298.3844
464.7686, 296.5683
465.2507, 289.4615
465.7328, 283.7142
466.2149, 282.2607
466.6971, 283.5020
467.1792, 284.4367
467.6613, 285.0416
468.1434, 285.3364
468.6255, 285.3269
469.1076, 285.0123
469.5898, 283.7455
470.0719, 282.1298
470.5540, 282.0621
471.0361, 285.1266
471.5182, 289.4914
472.0003, 289.5354
472.4825, 283.8048
472.9646, 277.7046
473.4467, 269.4694
473.9288, 263.4150
474.4109, 264.2155
474.8930, 271.2016
475.3752, 277.0106
475.8573, 276.1253
476.3394, 271.8985
476.8215, 269.7930
477.3036, 269.9524
477.7857, 271.5777
478.2679, 275.2475
478.7500, 279.3322
479.2321, 279.3954
479.7142, 273.4910
480.1963, 269.1086
480.6784, 269.1862
481.1606, 270.3731
481.6427, 269.3038
482.1248, 266.0604
482.6069, 263.1082
483.0890, 262.3442
483.5711, 263.3387
484.0533, 263.6834
484.5354, 263.0208
485.0175, 262.2641
485.4996, 260.9708
485.9817, 260.0431
486.4638, 260.2139
486.9460, 261.5467
487.4281, 263.6074
487.9102, 266.7832
488.3923, 270.3958
488.8744, 272.5576
489.3565, 273.3239
489.8387, 272.0029
490.3208, 266.4360
490.8029, 259.4930
491.2850, 257.4834
491.7671, 262.6515
492.2492, 266.1745
492.7314, 263.2455
493.2135, 258.1377
493.6956, 255.6820
494.1777, 256.2707
494.6598, 257.7655
495.1419, 258.7104
495.6241, 259.0522
496.1062, 258.4030
496.5883, 255.2222
497.0704, 253.2416
497.5525, 254.1509
498.0346, 255.4319
498.5168, 254.3765
498.9989, 251.0958
499.4810, 248.5960
499.9631, 250.5032
500.4452, 255.1323
500.9273, 255.0863
501.4095, 248.7419
501.8916, 244.8065
502.3737, 249.6806
502.8558, 257.6110
503.3379, 259.0453
503.8200, 252.1657
504.3022, 245.7852
504.7843, 242.9617
505.2664, 242.5094
505.7485, 244.4152
506.2306, 247.9686
506.7127, 249.6212
507.1949, 246.7471
507.6770, 240.4527
508.1591, 235.5392
508.6412, 231.2591
509.1233, 229.6657
509.6054, 233.0286
510.0876, 237.3020
510.5697, 240.0731
511.0518, 240.9323
511.5339, 240.1124
512.0161, 237.3062
512.4982, 233.2483
512.9803, 229.5585
513.4624, 226.0437
513.9445, 224.3895
514.4266, 226.4808
514.9088, 229.6341
515.3909, 230.1479
515.8730, 227.8085
516.3551, 225.7699
516.8372, 225.5389
517.3193, 225.6149
517.8015, 224.0357
518.2836, 221.3245
518.7657, 220.0351
519.2478, 221.6898
519.7299, 224.8346
520.2120, 225.8651
520.6942, 222.7067
521.1763, 221.4189
521.6584, 223.5516
522.1405, 225.8756
522.6226, 226.7917
523.1047, 226.4552
523.5869, 225.7392
524.0690, 225.2634
524.5511, 224.2855
525.0332, 220.7062
525.5153, 214.5562
525.9974, 210.9160
526.4796, 211.7319
526.9617, 214.2101
527.4438, 215.4645
527.9259, 215.6747
528.4080, 216.3823
528.8901, 218.8083
529.3723, 220.7944
529.8544, 220.1997
530.3365, 218.4082
530.8186, 218.6829
531.3007, 222.0538
531.7828, 225.6454
532.2650, 225.3079
532.7471, 220.3279
533.2292, 215.7886
533.7113, 210.0737
534.1934, 206.7905
534.6755, 208.6821
535.1577, 212.9714
535.6398, 215.9486
536.1219, 216.5166
536.6040, 216.1493
537.0861, 215.7934
537.5682, 215.5902
538.0504, 216.4470
538.5325, 218.7299
539.0146, 219.9588
539.4967, 217.8368
539.9788, 213.2251
540.4609, 210.4976
540.9431, 210.8774
541.4252, 211.2005
541.9073, 209.6080
542.3894, 208.4584
542.8715, 210.9443
543.3536, 216.6520
543.8358, 222.0421
544.3179, 224.5968
544.8000, 224.2775
545.2821, 219.5644
545.7642, 206.5794
546.2463, 199.9521
546.7285, 211.4450
547.2106, 224.7032
547.6927, 225.3628
548.1748, 214.1366
548.6569, 205.2563
549.1390, 207.1402
549.6211, 212.9126
550.1032, 215.7027
550.5853, 215.7694
551.0674, 214.8376
551.5496, 213.5023
552.0317, 211.9242
552.5138, 210.3487
552.9959, 208.7707
553.4780, 207.1947
553.9601, 204.5673
554.4423, 203.0493
554.9244, 204.6617
555.4065, 207.5980
555.8886, 208.6902
556.3707, 206.7210
556.8528, 204.4006
557.3350, 205.3679
557.8171, 209.1747
558.2992, 212.1385
558.7813, 213.7947
559.2634, 215.0391
559.7455, 216.6565
560.2277, 218.2498
560.7098, 218.6517
561.1919, 217.2800
561.6740, 215.7285
562.1561, 214.5438
562.6382, 213.3951
563.1204, 211.4263
563.6025, 208.9293
564.0846, 207.4652
564.5667, 208.1802
565.0488, 210.7936
565.5309, 214.5926
566.0131, 220.9407
566.4952, 225.0155
566.9773, 223.8687
567.4594, 221.8648
567.9415, 221.7756
568.4236, 223.3277
568.9058, 224.6288
569.3879, 225.1247
569.8700, 224.8092
570.3521, 222.9226
570.8342, 220.1314
571.3163, 218.7129
571.7985, 219.3860
572.2806, 221.4890
572.7627, 224.6164
573.2448, 229.1661
573.7269, 230.9939
574.2090, 227.4690
574.6912, 224.5267
575.1733, 223.9460
575.6554, 224.5574
576.1375, 225.1748
576.6196, 225.4682
577.1017, 225.4359
577.5839, 225.5743
578.0660, 225.3828
578.5481, 222.2809
579.0302, 215.6980
579.5123, 211.1331
579.9944, 211.7614
580.4766, 215.2936
580.9587, 217.1689
581.4408, 216.6608
581.9229, 217.7725
582.4050, 224.2586
582.8871, 229.6122
583.3693, 227.5532
583.8514, 221.1479
584.3335, 217.6799
584.8156, 220.5178
585.2977, 226.2707
585.7798, 229.9480
586.2620, 231.4736
586.7441, 231.4797
587.2262, 229.0121
587.7083, 226.6441
588.1904, 227.0933
588.6725, 228.2750
589.1547, 226.0574
589.6368, 217.7252
590.1189, 211.7364
590.6010, 214.3881
591.0831, 220.4616
591.5652, 223.3958
592.0474, 222.8154
592.5295, 221.6442
593.0116, 221.8716
593.4937, 222.6964
593.9758, 221.3465
594.4579, 216.1260
594.9401, 212.7839
595.4222, 213.2305
595.9043, 214.3978
596.3864, 216.0745
596.8685, 217.2318
597.3506, 214.9993
597.8328, 205.8574
598.3149, 197.8507
598.7970, 200.0656
599.2791, 208.9282
599.7612, 215.5441
600.2433, 218.2231
600.7255, 218.4863
601.2076, 217.3740
601.6897, 215.0183
602.1718, 212.4629
602.6539, 207.5268
603.1360, 205.5065
603.6182, 209.2463
604.1003, 214.0602
604.5824, 217.1057
605.0645, 217.9778
605.5466, 216.8244
606.0287, 212.7552
606.5109, 208.0380
606.9930, 206.0075
607.4751, 206.4822
607.9572, 208.4001
608.4393, 211.9281
608.9214, 215.1235
609.4036, 215.5878
609.8857, 213.3115
610.3678, 213.4873
610.8499, 220.3145
611.3320, 224.0505
611.8141, 218.6911
612.2963, 211.5234
612.7784, 210.7705
613.2605, 216.5855
613.7426, 222.3122
614.2247, 222.1696
614.7068, 219.0063
615.1890, 220.3209
615.6711, 226.3359
616.1532, 232.0288
616.6353, 236.4471
617.1174, 239.1136
617.5995, 238.8647
618.0817, 235.6260
618.5638, 233.2992
619.0459, 232.9266
619.5280, 232.4578
620.0101, 229.4759
620.4922, 226.7643
620.9744, 229.4257
621.4565, 237.3851
621.9386, 243.6113
622.4207, 240.3561
622.9028, 230.9184
623.3849, 228.9256
623.8671, 235.6509
624.3492, 242.6520
624.8313, 248.5720
625.3134, 252.3640
625.7955, 251.4493
626.2776, 246.1488
626.7598, 242.8191
627.2419, 243.3601
627.7240, 244.9581
628.2061, 246.9945
628.6882, 248.8804
629.1703, 250.0261
629.6525, 250.2099
630.1346, 249.0860
630.6167, 245.6805
631.0988, 240.7744
631.5809, 238.9292
632.0630, 240.7714
632.5452, 243.3786
633.0273, 247.2881
633.5094, 250.2154
633.9915, 248.7741
634.4736, 243.2561
634.9557, 239.3768
635.4379, 239.0040
635.9200, 239.7942
636.4021, 241.4838
636.8842, 243.0906
637.3663, 243.2597
637.8484, 241.6482
638.3306, 238.5064
638.8127, 233.4881
639.2948, 227.2629
639.7769, 224.2240
640.2590, 224.9741
640.7411, 226.8611
641.2233, 230.3032
641.7054, 233.4473
642.1875, 234.7406
642.6696, 234.2036
643.1517, 231.6577
643.6339, 223.0335
644.1160, 216.6969
644.5981, 220.1781
645.0802, 227.7555
645.5623, 230.0840
646.0444, 225.5942
646.5266, 220.1536
647.0087, 219.2435
647.4908, 221.9227
647.9729, 223.9314
648.4550, 225.2579
648.9371, 225.8903
649.4193, 225.6930
649.9014, 224.9252
650.3835, 223.4869
650.8656, 221.5467
651.3477, 220.3308
651.8298, 220.3273
652.3120, 220.7617
652.7941, 221.5713
653.2762, 222.4555
653.7583, 222.9346
654.2404, 222.9988
654.7225, 223.1890
655.2047, 224.1129
655.6868, 225.2651
656.1689, 223.9624
656.6510, 219.0827
657.1331, 218.9783
657.6152, 227.0850
658.0974, 237.9694
658.5795, 247.6388
659.0616, 256.1330
659.5437, 263.2563
660.0258, 265.3454
660.5079, 270.6288
660.9901, 284.0980
661.4722, 300.7342
661.9543, 315.0621
662.4364, 327.0096
662.9185, 340.1747
663.4006, 357.0902
663.8828, 376.3027
664.3649, 394.5618
664.8470, 411.7932
665.3291, 429.8744
665.8112, 447.6731
666.2933, 469.9344
666.7755, 500.1856
667.2576, 537.9943
667.7397, 580.6893
668.2218, 629.9561
668.7039, 681.0276
669.1860, 733.3142
669.6682, 786.6968
670.1503, 837.8857
670.6324, 890.6849
671.1145, 953.3245
671.5966, 1029.940
672.0787, 1120.074
672.5609, 1233.437
673.0430, 1364.447
673.5251, 1481.426
674.0072, 1589.652
674.4893, 1635.052
674.9714, 1577.010
675.4536, 1440.947
675.9357, 1288.604
676.4178, 1093.091
676.8999, 939.4360
677.3820, 852.4392
677.8641, 784.5346
678.3463, 707.2908
678.8284, 633.9009
679.3105, 590.7205
679.7926, 586.1744
680.2747, 600.0520
680.7568, 622.1185
681.2390, 646.4982
681.7211, 660.5541
682.2032, 663.5648
682.6853, 653.5825
683.1674, 628.8322
683.6495, 593.3536
684.1317, 552.2631
684.6138, 504.3516
685.0959, 457.8452
685.5780, 405.8938
686.0601, 363.1195
686.5422, 335.3381
687.0244, 317.0629
687.5065, 303.1915
687.9886, 292.8125
688.4707, 286.6656
688.9528, 287.3954
689.4349, 290.8530
689.9171, 291.5012
690.3992, 290.9366
690.8813, 294.7240
691.3634, 304.2737
691.8455, 314.4167
692.3276, 319.0519
692.8098, 319.6302
693.2919, 329.9186
693.7740, 356.0330
694.2561, 378.4840
694.7382, 398.7039
695.2203, 409.3936
695.7025, 403.2867
696.1846, 383.1842
696.6667, 359.5685
697.1488, 332.3972
697.6309, 306.2050
698.1130, 282.1294
698.5952, 261.2496
699.0773, 245.2059
699.5594, 233.8443
700.0415, 225.8983
700.5236, 220.6925
701.0057, 217.6460
701.4879, 214.6619
701.9700, 211.4420
702.4521, 216.0663
702.9342, 234.1904
703.4163, 247.2632
703.8984, 241.2858
704.3806, 223.9257
704.8627, 213.7998
705.3448, 213.3381
705.8269, 212.5140
706.3090, 209.2773
706.7911, 205.9815
707.2733, 203.0589
707.7554, 201.3765
708.2375, 202.9966
708.7196, 208.3176
709.2017, 213.3402
709.6838, 213.4134
710.1660, 210.5235
710.6481, 209.7762
711.1302, 211.1306
711.6123, 212.7340
712.0944, 214.0315
712.5765, 214.9541
713.0587, 215.5700
713.5408, 215.9476
714.0229, 214.4474
714.5050, 205.8967
714.9871, 202.6974
715.4692, 211.7177
715.9514, 222.8338
716.4335, 227.8993
716.9156, 227.2642
717.3977, 225.8512
717.8798, 224.7177
718.3619, 224.7913
718.8441, 227.7562
719.3262, 232.0612
719.8083, 234.6292
720.2904, 235.3983
720.7725, 237.1970
721.2546, 242.1150
721.7368, 248.4354
722.2189, 252.0219
722.7010, 252.6167
723.1831, 251.9296
723.6652, 248.7622
724.1473, 246.9861
724.6295, 250.4584
725.1116, 256.1194
725.5937, 257.5102
726.0758, 253.2722
726.5579, 249.4137
727.0400, 245.8891
727.5222, 244.1719
728.0043, 246.7851
728.4864, 251.1731
728.9685, 253.1135
729.4506, 251.5926
729.9327, 249.2657
730.4149, 248.9097
730.8970, 249.2982
731.3791, 246.9631
731.8612, 242.3112
732.3433, 239.2929
732.8254, 239.1228
733.3076, 240.5660
733.7897, 242.9203
734.2718, 245.8750
734.7539, 245.2094
735.2360, 237.4898
735.7181, 231.8847
736.2003, 230.7859
736.6824, 230.7323
737.1645, 229.5282
737.6466, 227.6312
738.1287, 226.7529
738.6108, 228.0931
739.0930, 228.6675
739.5751, 225.8959
740.0572, 222.0633
740.5393, 219.4363
741.0214, 218.2529
741.5035, 218.7994
741.9857, 221.2321
742.4678, 223.3611
742.9499, 220.7928
743.4320, 214.1414
743.9141, 212.6909
744.3962, 217.5831
744.8784, 222.2556
745.3605, 225.1343
745.8426, 225.0933
746.3247, 219.1158
746.8068, 205.8326
747.2889, 199.7987
747.7711, 206.6474
748.2532, 212.9480
748.7353, 215.8691
749.2174, 216.6942
749.6995, 215.6652
750.1816, 213.5943
750.6638, 212.9894
751.1459, 216.1259
751.6280, 219.0544
752.1101, 217.3301
752.5922, 213.0911
753.0743, 210.2000
753.5565, 209.0884
754.0386, 208.7077
754.5207, 208.4704
755.0028, 208.4532
755.4849, 209.0362
755.9670, 210.3963
756.4492, 210.5021
756.9313, 208.7168
757.4134, 207.1869
757.8955, 206.8335
758.3776, 207.2422
758.8597, 207.8402
759.3419, 208.6183
759.8240, 209.5778
760.3061, 211.9406
760.7882, 213.0232
761.2703, 210.3943
761.7524, 206.9125
762.2346, 205.7216
762.7167, 206.9073
763.1988, 208.3185
763.6809, 208.3619
764.1630, 208.7706
764.6451, 212.6354
765.1273, 218.2408
765.6094, 221.1769
766.0915, 220.9735
766.5736, 219.7253
767.0557, 218.6194
767.5378, 217.7286
768.0200, 217.2809
768.5021, 217.3815
768.9842, 217.2030
769.4663, 216.2877
769.9484, 216.0925
770.4305, 218.0068
770.9127, 220.4747
771.3948, 220.8430
771.8769, 218.8407
772.3590, 218.3897
772.8411, 222.9020
773.3232, 225.4789
773.8054, 220.8721
774.2875, 214.7073
774.7696, 213.8879
775.2517, 217.9396
775.7338, 220.5907
776.2159, 217.8088
776.6981, 213.4996
777.1802, 211.7821
777.6623, 211.9417
778.1444, 212.4324
778.6265, 213.0612
779.1086, 214.5523
779.5908, 217.5255
780.0729, 220.0028
780.5550, 217.1676
781.0371, 207.9694
781.5192, 204.6713
782.0013, 209.6194
782.4835, 214.2222
782.9656, 215.1135
783.4477, 214.1938
783.9298, 212.9985
784.4119, 211.4296
784.8940, 213.2630
785.3762, 223.6434
785.8583, 230.9828
786.3404, 230.6612
786.8225, 227.2236
787.3046, 224.0891
787.7867, 221.5102
788.2689, 218.4394
788.7510, 214.0242
789.2331, 210.3247
789.7152, 209.6312
790.1973, 210.4646
790.6794, 209.9664
791.1616, 208.5683
791.6437, 209.4892
792.1258, 214.1298
792.6079, 219.2348
793.0900, 220.2988
793.5721, 217.7000
794.0543, 214.7785
794.5364, 211.1930
795.0185, 209.6677
795.5006, 211.8557
795.9827, 214.5085
796.4648, 214.5097
796.9470, 212.0510
797.4291, 209.2155
797.9112, 202.9804
798.3933, 200.8073
798.8754, 207.1915
799.3575, 213.5877
799.8397, 214.3046
800.3218, 211.7276
800.8039, 211.2497
801.2860, 214.6118
801.7681, 216.3596
802.2502, 210.6839
802.7324, 204.9141
803.2145, 207.3647
803.6966, 214.2261
804.1787, 217.4324
804.6608, 215.2863
805.1429, 212.5306
805.6251, 213.4703
806.1072, 216.0130
806.5893, 214.9115
807.0714, 210.8548
807.5535, 209.5790
808.0356, 212.2325
808.5178, 214.8036
808.9999, 214.6996
809.4820, 212.5749
809.9641, 209.6633
810.4462, 204.7560
810.9283, 203.7533
811.4105, 209.8747
811.8926, 214.6469
812.3747, 213.7682
812.8568, 210.5670
813.3389, 208.5565
813.8210, 207.7885
814.3032, 207.6368
814.7853, 207.5300
815.2674, 208.6472
815.7495, 213.0773
816.2316, 217.5869
816.7137, 218.4525
817.1959, 216.7226
817.6780, 216.6260
818.1601, 220.3667
818.6422, 224.0311
819.1243, 223.3236
819.6064, 220.9732
820.0886, 220.7894
820.5707, 222.8846
821.0528, 226.7787
821.5349, 232.2676
822.0170, 238.5284
822.4991, 245.2482
822.9813, 251.7257
823.4634, 253.9158
823.9455, 251.4785
824.4276, 252.4675
824.9097, 259.0530
825.3918, 267.4648
825.8740, 275.4867
826.3561, 282.6962
826.8382, 287.2700
827.3203, 286.5018
827.8024, 289.3283
828.2845, 295.8914
828.7667, 305.9921
829.2488, 320.8645
829.7309, 338.3806
830.2130, 356.4202
830.6951, 374.8405
831.1772, 392.6562
831.6594, 404.4887
832.1415, 421.9739
832.6236, 450.8147
833.1057, 487.3271
833.5878, 528.2813
834.0699, 573.4875
834.5521, 623.6389
835.0342, 678.9721
835.5163, 739.7955
835.9984, 813.0458
836.4805, 888.7275
836.9626, 957.1475
837.4448, 1013.368
837.9269, 1046.224
838.4090, 1051.544
838.8911, 1025.803
839.3732, 960.1954
839.8553, 864.8303
840.3375, 772.2148
840.8196, 682.1691
841.3017, 605.2040
841.7838, 544.1476
842.2659, 491.0107
842.7480, 439.7430
843.2302, 392.9540
843.7123, 357.0430
844.1944, 334.0481
844.6765, 315.2166
845.1586, 302.7672
845.6407, 291.1911
846.1229, 275.4474
846.6050, 261.9469
847.0871, 259.2676
847.5692, 266.3698
848.0513, 269.4746
848.5334, 264.5231
849.0156, 258.3327
849.4977, 249.9729
849.9798, 243.5320
850.4619, 243.4247
850.9440, 247.4222
851.4261, 250.7893
851.9083, 252.1550
852.3904, 251.8320
852.8725, 248.0338
853.3546, 244.3363
853.8367, 245.5636
854.3188, 249.5058
854.8010, 251.1113
855.2831, 249.7209
855.7652, 248.9996
856.2473, 252.1264
856.7294, 255.9763
857.2115, 253.5249
857.6937, 246.7579
858.1758, 245.7914
858.6579, 251.3043
859.1400, 254.1959
859.6221, 249.9401
860.1042, 243.2818
860.5864, 240.9997
861.0685, 242.9397
861.5506, 244.3825
862.0327, 245.0958
862.5148, 246.3103
862.9969, 248.6799
863.4791, 250.9240
863.9612, 252.2521
864.4433, 252.6080
864.9254, 251.6688
865.4075, 248.0566
865.8896, 246.0294
866.3718, 246.6609
866.8539, 247.5139
867.3360, 248.3336
867.8181, 248.5600
868.3002, 247.0196
868.7823, 243.8820
869.2645, 242.0205
869.7466, 241.8069
870.2287, 243.4670
870.7108, 251.2380
871.1929, 257.4711
871.6750, 251.6984
872.1572, 239.4156
872.6393, 235.0993
873.1214, 243.8853
873.6035, 252.7854
874.0856, 251.5333
874.5677, 246.2450
875.0499, 242.2686
875.5320, 240.0908
876.0141, 241.0708
876.4962, 244.8196
876.9783, 248.0991
877.4604, 248.6877
877.9426, 247.8020
878.4247, 247.7301
878.9068, 247.8489
879.3889, 244.4690
879.8710, 237.9395
880.3531, 235.8024
880.8353, 241.3839
881.3174, 248.0591
881.7995, 247.5221
882.2816, 241.2538
882.7637, 238.9552
883.2458, 241.2534
883.7280, 242.8146
884.2101, 242.5117
884.6922, 242.3060
885.1743, 243.6652
885.6564, 245.6846
886.1385, 246.2333
886.6207, 244.6766
887.1028, 244.6380
887.5849, 248.2762
888.0670, 249.9121
888.5491, 246.3038
889.0313, 241.6524
889.5134, 239.4535
889.9955, 239.3212
890.4776, 239.4360
890.9597, 239.3259
891.4418, 240.1008
891.9240, 243.5884
892.4061, 246.1763
892.8882, 244.8692
893.3703, 242.0974
893.8524, 241.6087
894.3345, 243.6742
894.8167, 244.7150
895.2988, 241.4028
895.7809, 239.0196
896.2630, 241.9087
896.7451, 245.9724
897.2272, 246.9373
897.7094, 245.2798
898.1915, 242.8858
898.6736, 240.4075
899.1557, 239.6196
899.6378, 243.9742
900.1199, 249.1969
900.6021, 249.5987
901.0842, 246.8714
901.5663, 244.2668
902.0484, 242.6329
902.5305, 242.4943
903.0126, 244.4699
903.4948, 246.2816
903.9769, 242.8370
904.4590, 236.7549
904.9411, 237.3951
905.4232, 244.1792
905.9053, 250.0503
906.3875, 252.6865
906.8696, 252.7171
907.3517, 250.1518
907.8338, 246.4283
908.3159, 246.9996
908.7980, 251.9131
909.2802, 253.8082
909.7623, 251.5038
910.2444, 249.2915
910.7265, 249.1216
911.2086, 250.5377
911.6907, 253.2997
912.1729, 257.3560
912.6550, 258.6830
913.1371, 256.1963
913.6192, 254.4992
914.1013, 254.8504
914.5834, 255.1323
915.0656, 253.1691
915.5477, 250.6694
916.0298, 251.7856
916.5119, 257.7044
916.9940, 262.8730
917.4761, 269.4464
917.9583, 272.1947
918.4404, 265.6942
918.9225, 258.5774
919.4046, 257.9850
919.8867, 262.5149
920.3688, 266.9699
920.8510, 272.8549
921.3331, 274.4535
921.8152, 265.9653
922.2973, 258.7793
922.7794, 257.7204
923.2615, 261.0642
923.7437, 269.0932
924.2258, 280.2317
924.7079, 285.7058
925.1900, 278.0362
925.6721, 272.3610
926.1542, 277.6787
926.6364, 284.7371
927.1185, 285.7806
927.6006, 283.3474
928.0827, 283.1054
928.5648, 286.0564
929.0469, 287.8601
929.5291, 283.7335
930.0112, 280.3168
930.4933, 285.1785
930.9754, 291.8433
931.4575, 290.6143
931.9396, 283.8791
932.4218, 281.4506
932.9039, 286.7711
933.3860, 291.6051
933.8681, 287.3507
934.3502, 279.8481
934.8323, 275.8044
935.3145, 274.5939
935.7966, 274.9201
936.2787, 276.6209
936.7608, 280.5186
937.2429, 287.1454
937.7250, 294.4176
938.2072, 300.7120
938.6893, 305.4192
939.1714, 306.8232
939.6535, 305.3596
940.1356, 302.3781
940.6177, 298.3653
941.0999, 294.2130
941.5820, 290.3074
942.0641, 287.8880
942.5462, 290.5055
943.0283, 296.8030
943.5104, 298.9536
943.9926, 297.0470
944.4747, 297.2355
944.9568, 301.4810
945.4389, 305.4844
945.9210, 305.3513
946.4031, 302.1765
946.8853, 298.2047
947.3674, 293.4521
947.8495, 292.2022
948.3316, 295.0421
948.8137, 297.7269
949.2958, 298.6442
949.7780, 298.4844
950.2601, 297.4331
950.7422, 296.3643
951.2243, 300.7994
951.7064, 312.0035
952.1885, 320.7855
952.6707, 326.6819
953.1528, 327.8479
953.6349, 321.5993
954.1170, 314.0927
954.5991, 314.2260
955.0812, 321.5036
955.5634, 324.8495
956.0455, 323.2641
956.5276, 320.5003
957.0097, 315.6666
957.4918, 312.5242
957.9739, 313.7228
958.4561, 317.1544
958.9382, 319.6590
959.4203, 321.2929
959.9024, 321.0495
960.3845, 316.4789
960.8666, 315.0946
961.3488, 320.4606
961.8309, 325.8700
962.3130, 327.1790
962.7951, 325.7927
963.2772, 323.7935
963.7593, 320.2232
964.2415, 321.2471
964.7236, 333.6048
965.2057, 340.7521
965.6878, 335.1497
966.1699, 328.1702
966.6520, 327.2884
967.1342, 330.3092
967.6163, 332.0283
968.0984, 331.5232
968.5805, 332.9493
969.0626, 339.6415
969.5447, 344.0942
970.0269, 342.2409
970.5090, 339.4629
970.9911, 340.9495
971.4732, 344.6378
971.9553, 343.3660
972.4374, 332.2049
972.9196, 331.4758
973.4017, 357.6399
973.8838, 377.1998
974.3659, 372.9369
974.8480, 361.6511
975.3301, 356.6030
975.8123, 357.4518
976.2944, 360.7424
976.7765, 367.5385
977.2586, 371.3390
977.7407, 367.2285
978.2228, 364.0348
978.7050, 366.6809
979.1871, 371.2659
979.6692, 374.4837
980.1513, 376.0400
980.6334, 375.9196
981.1155, 372.9084
981.5977, 372.0350
982.0798, 376.5541
982.5619, 381.5065
983.0440, 385.1614
983.5261, 387.3691
984.0082, 387.1635
984.4904, 385.4326
984.9725, 385.4110
985.4546, 388.5565
985.9367, 391.6360
986.4188, 393.2859
986.9009, 394.7821
987.3831, 396.1505
987.8652, 398.2788
988.3473, 403.6798
988.8294, 410.9613
989.3115, 413.5635
989.7936, 406.6683
990.2758, 403.4191
990.7579, 413.7168
991.2400, 424.4630
991.7221, 427.2117
992.2042, 425.5490
992.6863, 424.0790
993.1685, 423.1057
993.6506, 420.1069
994.1327, 411.7453
994.6148, 408.7044
995.0969, 421.5305
995.5790, 435.0750
996.0612, 439.3436
996.5433, 437.9774
997.0254, 433.6606
997.5075, 428.6525
997.9896, 429.2303
998.4717, 439.5074
998.9539, 449.5594
999.4360, 457.5166
999.9181, 460.8085
1000.400, 453.2708
1000.882, 442.7698
1001.364, 439.0095
1001.847, 442.1682
1002.329, 447.2478
1002.811, 453.2718
1003.293, 458.7178
1003.775, 463.2015
1004.257, 466.5466
1004.739, 467.8348
1005.221, 468.3886
1005.703, 470.4548
1006.186, 473.4512
1006.668, 473.8991
1007.150, 469.3158
1007.632, 466.5945
1008.114, 471.8661
1008.596, 476.7275
1009.078, 474.0335
1009.560, 468.9291
1010.043, 467.9425
1010.525, 470.8284
1011.007, 473.1962
1011.489, 472.9673
1011.971, 474.9406
1012.453, 485.5756
1012.935, 494.0411
1013.417, 490.6265
1013.899, 483.7028
1014.382, 482.2432
1014.864, 486.2684
1015.346, 492.7634
1015.828, 502.4904
1016.310, 507.6499
1016.792, 500.6171
1017.274, 493.7022
1017.756, 491.9033
1018.239, 494.9046
1018.721, 504.8040
1019.203, 518.7015
1019.685, 529.2177
1020.167, 534.7372
1020.649, 536.4039
1021.131, 530.7336
1021.613, 526.0963
1022.095, 527.3156
1022.578, 530.4954
1023.060, 530.0872
1023.542, 528.9156
1024.024, 535.5367
1024.506, 552.9006
1024.988, 568.7054
1025.470, 579.8386
1025.952, 588.7158
1026.435, 594.5009
1026.917, 599.8402
1027.399, 603.2089
1027.881, 608.7562
1028.363, 626.7678
1028.845, 660.5022
1029.327, 689.3332
1029.809, 706.3250
1030.292, 722.3908
1030.774, 748.6277
1031.256, 766.7732
1031.738, 760.2911
1032.220, 738.8439
1032.702, 717.7690
1033.184, 697.6659
1033.666, 685.8508
1034.148, 688.1669
1034.630, 691.4226
1035.113, 693.5151
1035.595, 696.0193
1036.077, 697.4180
1036.559, 701.0163
1037.041, 711.9764
1037.523, 730.5290
1038.005, 751.7109
1038.487, 775.3191
1038.970, 801.6812
1039.452, 831.3945
1039.934, 863.1616
1040.416, 891.6461
1040.898, 925.2567
1041.380, 968.1639
1041.862, 1022.659
1042.344, 1115.142
1042.826, 1230.947
1043.309, 1414.816
1043.791, 1662.196
1044.273, 1990.728
1044.755, 2424.993
1045.237, 2924.814
1045.719, 3467.590
1046.201, 4040.288
1046.683, 4578.350
1047.166, 5054.834
1047.648, 5594.652
1048.130, 6175.186
1048.612, 6871.077
1049.094, 7650.715
1049.576, 8674.760
1050.058, 10042.79
1050.540, 11792.85
1051.022, 14009.17
1051.505, 16672.79
1051.987, 20066.66
1052.469, 24318.50
1052.951, 28648.57
1053.433, 33174.05
1053.915, 36115.39
1054.397, 36281.44
1054.879, 34185.54
1055.361, 30435.16
1055.844, 25208.53
1056.326, 20457.34
1056.808, 16151.15
1057.290, 12515.59
1057.772, 9587.605
1058.254, 7244.145
1058.736, 5433.972
1059.218, 4061.281
1059.701, 3046.481
1060.183, 2347.926
1060.665, 1865.616
1061.147, 1575.796
1061.629, 1375.218
1062.111, 1244.784
1062.593, 1158.085
1063.075, 1103.310
1063.557, 1065.511
1064.040, 1032.613
1064.522, 1004.401
1065.004, 982.5325
1065.486, 964.6221
1065.968, 942.8519
1066.450, 919.6105
1066.932, 906.0889
1067.414, 903.9848
1067.896, 902.5119
1068.379, 894.0964
1068.861, 884.2759
1069.343, 878.6304
1069.825, 875.9692
1070.307, 875.2733
1070.789, 875.9688
1071.271, 878.0536
1071.753, 880.6994
1072.236, 880.2784
1072.718, 874.2258
1073.200, 871.7246
1073.682, 885.3658
1074.164, 898.9720
1074.646, 896.1873
1075.128, 887.5491
1075.610, 887.0400
1076.093, 892.4630
1076.575, 892.8698
1077.057, 885.1197
1077.539, 880.8351
1078.021, 886.6781
1078.503, 894.9544
1078.985, 905.5508
1079.467, 913.9149
1079.949, 913.8819
1080.432, 910.5687
1080.914, 913.1631
1081.396, 922.3376
1081.878, 929.8007
1082.360, 929.5614
1082.842, 934.4989
1083.324, 952.3926
1083.806, 968.8223
1084.288, 976.1807
1084.771, 979.6271
1085.253, 984.7888
1085.735, 990.9878
1086.217, 994.8170
1086.699, 996.6216
1087.181, 994.4738
1087.663, 982.4048
1088.145, 979.0411
1088.628, 992.7844
1089.110, 1009.875
1089.592, 1020.779
1090.074, 1027.678
1090.556, 1035.474
1091.038, 1044.283
1091.520, 1050.057
1092.002, 1052.250
1092.484, 1054.125
1092.967, 1055.682
1093.449, 1060.771
1093.931, 1071.712
1094.413, 1085.660
1094.895, 1099.913
1095.377, 1113.174
1095.859, 1118.401
1096.341, 1117.219
1096.823, 1124.158
1097.306, 1139.057
1097.788, 1147.759
1098.270, 1146.108
1098.752, 1144.365
1099.234, 1151.049
1099.716, 1160.370
1100.198, 1160.581
1100.680, 1158.503
1101.163, 1170.045
1101.645, 1190.741
1102.127, 1211.181
1102.609, 1227.413
1103.091, 1232.376
1103.573, 1222.077
1104.055, 1211.150
1104.537, 1210.080
1105.020, 1215.570
1105.502, 1229.922
1105.984, 1245.042
1106.466, 1251.315
1106.948, 1250.199
1107.430, 1246.169
1107.912, 1240.475
1108.394, 1234.908
1108.876, 1227.214
1109.359, 1224.293
1109.841, 1231.143
1110.323, 1240.818
1110.805, 1251.367
1111.287, 1260.747
1111.769, 1264.800
1112.251, 1265.215
1112.733, 1272.091
1113.215, 1294.196
1113.698, 1302.731
1114.180, 1285.379
1114.662, 1272.823
1115.144, 1273.628
1115.626, 1278.540
1116.108, 1281.851
1116.590, 1284.695
1117.072, 1289.074
1117.555, 1294.998
1118.037, 1303.663
1118.519, 1316.587
1119.001, 1322.922
1119.483, 1320.443
1119.965, 1317.765
1120.447, 1318.601
1120.929, 1319.701
1121.411, 1317.385
1121.894, 1313.686
1122.376, 1313.519
1122.858, 1316.750
1123.340, 1323.910
1123.822, 1334.014
1124.304, 1343.165
1124.786, 1349.909
1125.268, 1350.640
1125.750, 1342.879
1126.233, 1335.703
1126.715, 1342.324
1127.197, 1353.073
1127.679, 1351.988
1128.161, 1347.294
1128.643, 1353.037
1129.125, 1367.143
1129.607, 1382.146
1130.090, 1395.236
1130.572, 1401.027
1131.054, 1391.324
1131.536, 1383.572
1132.018, 1389.694
1132.500, 1397.685
1132.982, 1397.443
1133.464, 1395.738
1133.947, 1400.358
1134.429, 1411.385
1134.911, 1427.016
1135.393, 1450.113
1135.875, 1467.103
1136.357, 1477.499
1136.839, 1480.109
1137.321, 1468.110
1137.803, 1457.918
1138.286, 1459.151
1138.768, 1467.196
1139.250, 1475.758
1139.732, 1484.783
1140.214, 1494.241
1140.696, 1504.434
1141.178, 1512.208
1141.660, 1516.821
1142.142, 1526.283
1142.625, 1543.467
1143.107, 1559.733
1143.589, 1568.056
1144.071, 1573.166
1144.553, 1584.247
1145.035, 1598.537
1145.517, 1606.263
1145.999, 1610.057
1146.482, 1618.422
1146.964, 1631.716
1147.446, 1647.825
1147.928, 1665.194
1148.410, 1674.622
1148.892, 1660.608
1149.374, 1650.818
1149.856, 1678.979
1150.339, 1714.590
1150.821, 1728.020
1151.303, 1727.667
1151.785, 1724.240
1152.267, 1722.417
1152.749, 1732.193
1153.231, 1759.653
1153.713, 1783.887
1154.195, 1800.411
1154.677, 1812.951
1155.160, 1818.346
1155.642, 1824.862
1156.124, 1839.124
1156.606, 1856.258
1157.088, 1869.627
1157.570, 1879.271
1158.052, 1884.642
1158.534, 1883.139
1159.017, 1890.713
1159.499, 1910.370
1159.981, 1924.356
1160.463, 1926.415
1160.945, 1929.771
1161.427, 1944.026
1161.909, 1965.854
1162.391, 1994.802
1162.874, 2024.912
1163.356, 2031.153
1163.838, 2022.254
1164.320, 2024.814
1164.802, 2040.718
1165.284, 2064.276
1165.766, 2092.436
1166.248, 2117.054
1166.730, 2131.741
1167.213, 2143.721
1167.695, 2159.736
1168.177, 2174.884
1168.659, 2178.608
1169.141, 2183.268
1169.623, 2206.863
1170.105, 2244.880
1170.587, 2281.638
1171.069, 2315.218
1171.552, 2340.668
1172.034, 2356.523
1172.516, 2364.991
1172.998, 2355.017
1173.480, 2354.694
1173.962, 2381.841
1174.444, 2415.938
1174.926, 2437.158
1175.409, 2446.805
1175.891, 2444.393
1176.373, 2427.113
1176.855, 2443.360
1177.337, 2494.185
1177.819, 2532.496
1178.301, 2549.839
1178.783, 2566.069
1179.266, 2590.917
1179.748, 2618.162
1180.230, 2643.336
1180.712, 2662.464
1181.194, 2664.041
1181.676, 2658.177
1182.158, 2659.812
1182.640, 2669.007
1183.122, 2684.957
1183.604, 2705.740
1184.087, 2726.598
1184.569, 2746.199
1185.051, 2762.274
1185.533, 2772.428
1186.015, 2780.681
1186.497, 2780.640
1186.979, 2787.971
1187.461, 2827.950
1187.944, 2872.391
1188.426, 2875.041
1188.908, 2844.780
1189.390, 2837.637
1189.872, 2862.090
1190.354, 2880.138
1190.836, 2891.772
1191.318, 2895.926
1191.801, 2891.027
1192.283, 2887.845
1192.765, 2892.647
1193.247, 2900.855
1193.729, 2907.167
1194.211, 2912.024
1194.693, 2913.546
1195.175, 2915.647
1195.657, 2933.298
1196.140, 2960.045
1196.622, 2976.248
1197.104, 2978.946
1197.586, 2976.071
1198.068, 2970.738
1198.550, 2964.169
1199.032, 2948.633
1199.514, 2943.126
1199.996, 2971.921
1200.479, 3001.114
1200.961, 3002.983
1201.443, 2988.768
1201.925, 2970.893
1202.407, 2953.099
1202.889, 2954.109
1203.371, 2983.238
1203.853, 3000.840
1204.336, 3002.709
1204.818, 3007.279
1205.300, 3019.535
1205.782, 3027.952
1206.264, 3025.428
1206.746, 3022.728
1207.228, 3034.577
1207.710, 3051.880
1208.193, 3051.814
1208.675, 3038.499
1209.157, 3017.120
1209.639, 2994.699
1210.121, 2993.290
1210.603, 3010.859
1211.085, 3023.736
1211.567, 3022.596
1212.049, 3014.435
1212.531, 2999.537
1213.014, 2984.225
1213.496, 2968.798
1213.978, 2957.480
1214.460, 2956.898
1214.942, 2959.482
1215.424, 2954.864
1215.906, 2945.394
1216.388, 2942.698
1216.871, 2950.889
1217.353, 2937.329
1217.835, 2893.252
1218.317, 2865.024
1218.799, 2860.206
1219.281, 2865.746
1219.763, 2877.438
1220.245, 2880.319
1220.728, 2857.987
1221.210, 2830.065
1221.692, 2838.356
1222.174, 2861.928
1222.656, 2854.659
1223.138, 2829.981
1223.620, 2816.224
1224.102, 2813.524
1224.584, 2809.265
1225.067, 2800.567
1225.549, 2796.359
1226.031, 2806.688
1226.513, 2809.774
1226.995, 2791.490
1227.477, 2773.337
1227.959, 2765.652
1228.441, 2760.550
1228.923, 2751.117
1229.406, 2741.063
1229.888, 2737.108
1230.370, 2738.620
1230.852, 2738.448
1231.334, 2736.366
1231.816, 2740.091
1232.298, 2749.554
1232.780, 2752.203
1233.263, 2745.225
##END=



