##NAMES=Cerussite
##RRUFFID=R050011
##IDEAL CHEMISTRY=Pb^2+^CO_3_
##LOCALITY=Daoping Lead and Zinc mine, Gongcheng, Guangxi, China
##OWNER=RRUFF
##SOURCE=Eugene Schlepp
##DESCRIPTION=Colorless hexagonal bipyramidal crystals
##STATUS=The identification of this mineral has been confirmed by X-ray diffraction and chemical analysis
##URL=rruff.info/R050011
##MEASURED CHEMISTRY=Pb_1.00_CO_3_ ; CO_2_ not measured but estimated by difference and stoichiometry
80.52161, 26.90095
81.00372, 25.89176
81.48584, 24.34550
81.96796, 23.13941
82.45007, 22.26861
82.93219, 22.32191
83.41431, 24.90008
83.89642, 28.14945
84.37854, 29.48245
84.86066, 27.55179
85.34277, 24.23489
85.82489, 22.42908
86.30701, 22.66793
86.78912, 22.95856
87.27124, 22.03328
87.75336, 20.68060
88.23547, 19.95172
88.71759, 20.58653
89.19971, 22.17091
89.68182, 23.15439
90.16394, 23.52869
90.64606, 23.17459
91.12817, 21.43838
91.61029, 19.04065
92.09241, 17.18576
92.57452, 16.73717
93.05664, 17.70218
93.53876, 19.41234
94.02087, 23.77989
94.50299, 27.19513
94.98511, 28.25547
95.46722, 27.26800
95.94934, 25.42392
96.43146, 23.76624
96.91357, 22.21700
97.39569, 21.31175
97.87781, 20.81354
98.35992, 20.97649
98.84204, 22.44070
99.32416, 25.00972
99.80627, 27.53184
100.2884, 28.47880
100.7705, 26.80217
101.2526, 26.16304
101.7347, 27.30236
102.2169, 28.97849
102.6990, 30.02567
103.1811, 30.17426
103.6632, 30.21134
104.1453, 31.47798
104.6274, 34.62005
105.1096, 37.35723
105.5917, 39.62826
106.0738, 41.33092
106.5559, 41.93159
107.0380, 40.98515
107.5201, 39.80006
108.0023, 41.38639
108.4844, 46.48536
108.9665, 50.81297
109.4486, 52.11847
109.9307, 51.45374
110.4128, 51.62455
110.8950, 53.78289
111.3771, 57.09320
111.8592, 59.80878
112.3413, 61.44498
112.8234, 63.88778
113.3055, 68.21512
113.7877, 74.37239
114.2698, 82.03454
114.7519, 92.79109
115.2340, 103.8438
115.7161, 111.7010
116.1982, 115.2446
116.6804, 117.6926
117.1625, 122.0771
117.6446, 128.5965
118.1267, 135.6100
118.6088, 142.0357
119.0909, 148.9214
119.5731, 157.3232
120.0552, 167.6201
120.5373, 179.1736
121.0194, 190.2477
121.5015, 199.1261
121.9836, 212.6835
122.4658, 236.0335
122.9479, 263.4483
123.4300, 289.9128
123.9121, 313.6210
124.3942, 335.1299
124.8763, 355.1255
125.3585, 371.7531
125.8406, 390.5080
126.3227, 414.0616
126.8048, 439.6115
127.2869, 463.9932
127.7690, 485.2219
128.2512, 504.5276
128.7333, 526.2642
129.2154, 553.6212
129.6975, 579.5238
130.1796, 605.6003
130.6617, 628.9099
131.1439, 644.8889
131.6260, 650.3452
132.1081, 646.5831
132.5902, 643.7773
133.0723, 643.8209
133.5544, 642.8984
134.0366, 640.0345
134.5187, 635.7039
135.0008, 630.4122
135.4829, 624.2243
135.9650, 617.3389
136.4471, 614.5944
136.9293, 616.1071
137.4114, 621.1133
137.8935, 629.5892
138.3756, 641.4290
138.8577, 656.6021
139.3398, 675.1665
139.8220, 697.1989
140.3041, 721.8905
140.7862, 750.2911
141.2683, 779.6517
141.7504, 809.3179
142.2325, 838.9044
142.7147, 867.6866
143.1968, 895.5054
143.6789, 922.0881
144.1610, 945.5908
144.6431, 962.0205
145.1252, 978.9971
145.6074, 1001.396
146.0895, 1028.897
146.5716, 1058.419
147.0537, 1089.986
147.5358, 1122.514
148.0179, 1140.828
148.5001, 1135.235
148.9822, 1122.932
149.4643, 1115.583
149.9464, 1113.799
150.4285, 1113.357
150.9106, 1111.852
151.3928, 1108.839
151.8749, 1102.324
152.3570, 1089.393
152.8391, 1074.596
153.3212, 1060.261
153.8033, 1046.435
154.2855, 1037.457
154.7676, 1039.717
155.2497, 1050.601
155.7318, 1058.717
156.2139, 1060.798
156.6960, 1060.006
157.1782, 1058.896
157.6603, 1057.191
158.1424, 1057.829
158.6245, 1065.418
159.1066, 1077.351
159.5887, 1087.389
160.0709, 1091.078
160.5530, 1093.047
161.0351, 1100.467
161.5172, 1114.541
161.9993, 1130.019
162.4814, 1145.256
162.9636, 1159.206
163.4457, 1169.374
163.9278, 1169.472
164.4099, 1166.671
164.8920, 1175.955
165.3741, 1201.860
165.8563, 1227.068
166.3384, 1239.163
166.8205, 1243.417
167.3026, 1248.226
167.7847, 1256.967
168.2668, 1268.436
168.7490, 1280.353
169.2311, 1293.273
169.7132, 1305.450
170.1953, 1317.348
170.6774, 1327.870
171.1595, 1334.663
171.6417, 1334.483
172.1238, 1330.782
172.6059, 1333.224
173.0880, 1346.021
173.5701, 1356.440
174.0522, 1353.579
174.5344, 1345.974
175.0165, 1346.774
175.4986, 1365.407
175.9807, 1394.705
176.4628, 1414.812
176.9449, 1421.737
177.4271, 1426.278
177.9092, 1434.031
178.3913, 1442.047
178.8734, 1445.394
179.3555, 1439.646
179.8376, 1429.587
180.3197, 1430.405
180.8019, 1449.631
181.2840, 1466.651
181.7661, 1476.518
182.2482, 1480.429
182.7303, 1478.411
183.2124, 1468.832
183.6946, 1455.989
184.1767, 1452.826
184.6588, 1464.795
185.1409, 1477.477
185.6230, 1487.690
186.1051, 1496.051
186.5873, 1504.025
187.0694, 1512.806
187.5515, 1520.084
188.0336, 1518.875
188.5157, 1502.633
188.9978, 1489.002
189.4800, 1480.435
189.9621, 1476.529
190.4442, 1477.917
190.9263, 1485.325
191.4084, 1495.682
191.8905, 1500.762
192.3727, 1494.451
192.8548, 1494.055
193.3369, 1505.169
193.8190, 1521.251
194.3011, 1536.337
194.7832, 1548.072
195.2654, 1557.740
195.7475, 1568.291
196.2296, 1581.965
196.7117, 1592.193
197.1938, 1597.134
197.6759, 1599.502
198.1581, 1600.363
198.6402, 1600.260
199.1223, 1601.507
199.6044, 1609.031
200.0865, 1627.086
200.5686, 1643.142
201.0508, 1654.214
201.5329, 1664.411
202.0150, 1676.920
202.4971, 1692.626
202.9792, 1709.749
203.4613, 1724.970
203.9435, 1735.486
204.4256, 1750.607
204.9077, 1773.891
205.3898, 1798.994
205.8719, 1822.115
206.3540, 1842.319
206.8362, 1860.567
207.3183, 1877.003
207.8004, 1887.338
208.2825, 1907.102
208.7646, 1946.178
209.2467, 1985.981
209.7289, 2016.319
210.2110, 2035.662
210.6931, 2048.281
211.1752, 2057.080
211.6573, 2058.121
212.1395, 2070.126
212.6216, 2102.463
213.1037, 2136.841
213.5858, 2165.524
214.0679, 2187.745
214.5500, 2206.210
215.0322, 2223.046
215.5143, 2237.814
215.9964, 2253.588
216.4785, 2276.229
216.9606, 2294.538
217.4427, 2301.427
217.9249, 2299.667
218.4070, 2297.422
218.8891, 2301.135
219.3712, 2310.875
219.8533, 2324.093
220.3354, 2347.270
220.8176, 2367.721
221.2997, 2380.736
221.7818, 2388.331
222.2639, 2395.374
222.7460, 2405.721
223.2281, 2418.601
223.7103, 2424.795
224.1924, 2419.549
224.6745, 2412.085
225.1566, 2402.381
225.6387, 2392.048
226.1208, 2384.125
226.6030, 2381.080
227.0851, 2380.176
227.5672, 2369.537
228.0493, 2340.713
228.5314, 2312.793
229.0135, 2291.149
229.4957, 2271.426
229.9778, 2247.510
230.4599, 2216.452
230.9420, 2182.488
231.4241, 2156.099
231.9062, 2141.473
232.3884, 2127.986
232.8705, 2117.348
233.3526, 2105.486
233.8347, 2088.095
234.3168, 2063.931
234.7989, 2036.036
235.2811, 2008.446
235.7632, 1977.187
236.2453, 1956.168
236.7274, 1951.608
237.2095, 1952.529
237.6916, 1952.457
238.1738, 1949.865
238.6559, 1946.284
239.1380, 1942.726
239.6201, 1937.910
240.1022, 1938.059
240.5843, 1948.415
241.0665, 1959.663
241.5486, 1968.511
242.0307, 1974.246
242.5128, 1976.810
242.9949, 1974.895
243.4770, 1967.847
243.9592, 1964.109
244.4413, 1962.750
244.9234, 1966.142
245.4055, 1979.649
245.8876, 1999.203
246.3697, 2014.267
246.8519, 2013.923
247.3340, 2001.227
247.8161, 2004.750
248.2982, 2039.140
248.7803, 2070.784
249.2624, 2089.509
249.7446, 2097.893
250.2267, 2099.325
250.7088, 2093.427
251.1909, 2084.208
251.6730, 2084.976
252.1551, 2103.940
252.6373, 2115.968
253.1194, 2107.334
253.6015, 2090.759
254.0836, 2080.625
254.5657, 2083.131
255.0478, 2089.964
255.5300, 2086.287
256.0121, 2068.205
256.4942, 2054.490
256.9763, 2060.638
257.4584, 2067.346
257.9406, 2057.487
258.4227, 2026.985
258.9048, 1993.200
259.3869, 1976.234
259.8690, 1977.007
260.3511, 1972.659
260.8333, 1957.985
261.3154, 1937.038
261.7975, 1911.883
262.2796, 1882.908
262.7617, 1852.358
263.2438, 1820.375
263.7260, 1787.513
264.2081, 1757.811
264.6902, 1733.445
265.1723, 1709.622
265.6544, 1680.854
266.1365, 1649.105
266.6187, 1621.594
267.1008, 1605.322
267.5829, 1594.918
268.0650, 1578.143
268.5471, 1552.803
269.0292, 1527.424
269.5114, 1509.401
269.9935, 1495.354
270.4756, 1479.503
270.9577, 1459.806
271.4398, 1438.167
271.9219, 1414.721
272.4041, 1389.234
272.8862, 1369.137
273.3683, 1360.642
273.8504, 1359.032
274.3325, 1354.913
274.8146, 1347.703
275.2968, 1338.228
275.7789, 1325.676
276.2610, 1310.935
276.7431, 1297.354
277.2252, 1285.729
277.7073, 1276.405
278.1895, 1270.258
278.6716, 1267.767
279.1537, 1265.360
279.6358, 1262.109
280.1179, 1258.038
280.6000, 1253.181
281.0822, 1247.515
281.5643, 1241.149
282.0464, 1233.643
282.5285, 1224.812
283.0106, 1217.729
283.4927, 1214.191
283.9749, 1211.636
284.4570, 1207.832
284.9391, 1202.593
285.4212, 1196.649
285.9033, 1190.353
286.3854, 1183.783
286.8676, 1178.371
287.3497, 1175.937
287.8318, 1172.790
288.3139, 1166.359
288.7960, 1157.665
289.2781, 1149.776
289.7603, 1144.575
290.2424, 1141.150
290.7245, 1135.730
291.2066, 1125.302
291.6887, 1116.720
292.1708, 1113.999
292.6530, 1112.620
293.1351, 1105.986
293.6172, 1091.892
294.0993, 1074.822
294.5814, 1062.832
295.0635, 1059.000
295.5457, 1054.783
296.0278, 1050.010
296.5099, 1045.037
296.9920, 1039.455
297.4741, 1033.612
297.9562, 1029.107
298.4384, 1027.817
298.9205, 1030.327
299.4026, 1032.031
299.8847, 1031.453
300.3668, 1031.565
300.8489, 1035.150
301.3310, 1040.218
301.8131, 1042.244
302.2953, 1037.713
302.7774, 1028.328
303.2595, 1022.904
303.7416, 1023.806
304.2237, 1025.480
304.7058, 1025.446
305.1880, 1026.043
305.6701, 1030.901
306.1522, 1041.532
306.6343, 1053.353
307.1164, 1057.316
307.5985, 1049.855
308.0807, 1047.813
308.5628, 1061.801
309.0449, 1076.820
309.5270, 1082.473
310.0091, 1078.454
310.4912, 1074.026
310.9734, 1077.332
311.4555, 1087.762
311.9376, 1098.774
312.4197, 1110.178
312.9018, 1121.770
313.3839, 1133.348
313.8661, 1145.011
314.3482, 1156.960
314.8303, 1170.876
315.3124, 1184.450
315.7945, 1191.831
316.2766, 1191.428
316.7588, 1194.118
317.2409, 1206.885
317.7230, 1226.274
318.2051, 1247.023
318.6872, 1270.170
319.1693, 1291.517
319.6515, 1305.444
320.1336, 1313.939
320.6157, 1327.021
321.0978, 1349.795
321.5799, 1375.712
322.0620, 1393.170
322.5442, 1400.350
323.0263, 1411.515
323.5084, 1434.188
323.9905, 1461.660
324.4726, 1486.414
324.9547, 1507.254
325.4369, 1523.213
325.9190, 1531.591
326.4011, 1531.342
326.8832, 1539.225
327.3653, 1562.362
327.8474, 1586.794
328.3296, 1606.964
328.8117, 1622.142
329.2938, 1630.828
329.7759, 1631.343
330.2580, 1626.220
330.7401, 1626.946
331.2223, 1640.535
331.7044, 1651.316
332.1865, 1657.194
332.6686, 1659.728
333.1507, 1659.703
333.6328, 1657.639
334.1150, 1655.428
334.5971, 1656.083
335.0792, 1661.017
335.5613, 1665.028
336.0434, 1670.850
336.5255, 1673.517
337.0077, 1668.159
337.4898, 1656.830
337.9719, 1646.021
338.4540, 1640.847
338.9361, 1640.823
339.4182, 1641.714
339.9004, 1644.070
340.3825, 1646.567
340.8646, 1646.483
341.3467, 1647.097
341.8288, 1653.864
342.3109, 1669.902
342.7931, 1687.687
343.2752, 1695.306
343.7573, 1691.421
344.2394, 1686.531
344.7215, 1677.767
345.2036, 1673.523
345.6858, 1683.345
346.1679, 1707.178
346.6500, 1729.427
347.1321, 1739.277
347.6142, 1740.063
348.0963, 1740.089
348.5785, 1739.197
349.0606, 1740.535
349.5427, 1746.620
350.0248, 1756.963
350.5069, 1770.834
350.9890, 1794.312
351.4712, 1816.434
351.9533, 1826.832
352.4354, 1827.297
352.9175, 1827.558
353.3996, 1832.656
353.8817, 1839.832
354.3639, 1841.235
354.8460, 1834.215
355.3281, 1828.397
355.8102, 1826.841
356.2923, 1827.185
356.7744, 1826.654
357.2566, 1824.670
357.7387, 1822.767
358.2208, 1823.625
358.7029, 1829.472
359.1850, 1824.518
359.6671, 1799.183
360.1493, 1774.284
360.6314, 1761.322
361.1135, 1756.040
361.5956, 1747.829
362.0777, 1730.175
362.5598, 1705.673
363.0420, 1683.850
363.5241, 1667.914
364.0062, 1649.453
364.4883, 1624.480
364.9704, 1598.734
365.4525, 1578.408
365.9347, 1564.299
366.4168, 1549.904
366.8989, 1526.700
367.3810, 1493.744
367.8631, 1464.913
368.3452, 1443.126
368.8274, 1422.720
369.3095, 1400.907
369.7916, 1378.023
370.2737, 1354.836
370.7558, 1329.545
371.2379, 1305.883
371.7201, 1292.321
372.2022, 1290.077
372.6843, 1286.279
373.1664, 1274.402
373.6485, 1258.540
374.1306, 1245.475
374.6128, 1236.480
375.0949, 1226.438
375.5770, 1212.171
376.0591, 1195.160
376.5412, 1178.210
377.0233, 1161.849
377.5055, 1145.867
377.9876, 1129.993
378.4697, 1114.280
378.9518, 1099.111
379.4339, 1082.507
379.9160, 1068.283
380.3982, 1060.943
380.8803, 1058.166
381.3624, 1053.317
381.8445, 1042.554
382.3266, 1028.158
382.8087, 1016.885
383.2909, 1013.153
383.7730, 1006.919
384.2551, 994.2029
384.7372, 981.3946
385.2193, 974.7006
385.7014, 974.4604
386.1836, 975.5128
386.6657, 972.8238
387.1478, 966.3512
387.6299, 957.0522
388.1120, 941.4282
388.5941, 926.8939
389.0763, 916.1840
389.5584, 908.0386
390.0405, 900.4366
390.5226, 892.3307
391.0047, 884.6796
391.4868, 878.5065
391.9690, 873.6995
392.4511, 872.0646
392.9332, 878.0522
393.4153, 883.7647
393.8974, 880.5741
394.3795, 868.5124
394.8617, 857.5135
395.3438, 854.0489
395.8259, 854.1981
396.3080, 850.9508
396.7901, 843.5283
397.2722, 836.3783
397.7544, 833.4448
398.2365, 833.3894
398.7186, 829.2045
399.2007, 814.7135
399.6828, 803.1212
400.1649, 801.8395
400.6471, 806.2936
401.1292, 809.1857
401.6113, 808.1246
402.0934, 804.4264
402.5755, 799.7190
403.0576, 793.0014
403.5398, 788.5342
404.0219, 789.8149
404.5040, 789.7535
404.9861, 782.2634
405.4682, 770.2764
405.9503, 761.4052
406.4325, 760.6177
406.9146, 766.1210
407.3967, 772.2825
407.8788, 781.5175
408.3609, 786.2370
408.8430, 782.1530
409.3252, 775.2704
409.8073, 769.9406
410.2894, 766.9000
410.7715, 764.6573
411.2536, 762.0482
411.7357, 759.1652
412.2179, 756.7882
412.7000, 755.4899
413.1821, 753.4489
413.6642, 746.9265
414.1463, 738.9183
414.6284, 736.1603
415.1106, 743.4563
415.5927, 751.9534
416.0748, 754.9641
416.5569, 753.8672
417.0390, 752.9562
417.5211, 753.7693
418.0033, 754.9808
418.4854, 754.6166
418.9675, 752.2788
419.4496, 749.5358
419.9317, 747.2362
420.4138, 743.8923
420.8960, 735.8713
421.3781, 725.4891
421.8602, 720.1765
422.3423, 725.2569
422.8244, 737.9662
423.3065, 746.2463
423.7887, 746.8297
424.2708, 747.9309
424.7529, 752.5198
425.2350, 756.5364
425.7171, 755.0173
426.1992, 748.1407
426.6814, 742.3635
427.1635, 746.3513
427.6456, 758.7781
428.1277, 762.3170
428.6098, 752.0244
429.0919, 742.3121
429.5741, 739.6863
430.0562, 742.5407
430.5383, 750.0637
431.0204, 765.0516
431.5025, 778.1944
431.9846, 779.1530
432.4668, 771.4072
432.9489, 768.1935
433.4310, 773.9194
433.9131, 781.4309
434.3952, 781.3893
434.8773, 772.6888
435.3595, 768.4834
435.8416, 773.0272
436.3237, 779.0574
436.8058, 782.1862
437.2879, 783.1183
437.7701, 784.6163
438.2522, 788.1823
438.7343, 792.5558
439.2164, 794.3817
439.6985, 791.4366
440.1806, 789.8721
440.6628, 791.2244
441.1449, 792.6590
441.6270, 792.2268
442.1091, 790.0821
442.5912, 787.4718
443.0733, 784.6706
443.5555, 782.4013
444.0376, 783.9042
444.5197, 790.4205
445.0018, 797.2775
445.4839, 806.2919
445.9660, 812.8356
446.4482, 810.1678
446.9303, 796.1393
447.4124, 783.5555
447.8945, 778.9918
448.3766, 781.6805
448.8587, 792.9000
449.3409, 813.6617
449.8230, 831.7078
450.3051, 836.4057
450.7872, 829.1108
451.2693, 825.7675
451.7514, 829.7684
452.2336, 833.4471
452.7157, 832.9191
453.1978, 831.0562
453.6799, 832.3681
454.1620, 837.9988
454.6441, 844.9216
455.1263, 849.0535
455.6084, 849.6279
456.0905, 851.7339
456.5726, 860.8481
457.0547, 865.7505
457.5368, 859.0257
458.0190, 846.7413
458.5011, 838.8402
458.9832, 839.8392
459.4653, 845.0313
459.9474, 848.1271
460.4295, 849.0898
460.9117, 849.6924
461.3938, 850.2448
461.8759, 850.5400
462.3580, 851.2290
462.8401, 851.8935
463.3222, 849.8601
463.8044, 840.9966
464.2865, 831.7921
464.7686, 829.0963
465.2507, 831.4229
465.7328, 832.4388
466.2149, 829.2582
466.6971, 823.8301
467.1792, 819.9248
467.6613, 818.0516
468.1434, 816.7982
468.6255, 817.2194
469.1076, 817.3365
469.5898, 815.6026
470.0719, 812.4487
470.5540, 809.7023
471.0361, 808.8212
471.5182, 808.2673
472.0003, 803.0754
472.4825, 791.6325
472.9646, 780.0306
473.4467, 765.8105
473.9288, 754.7013
474.4109, 753.5306
474.8930, 761.1533
475.3752, 765.7886
475.8573, 757.9404
476.3394, 743.9166
476.8215, 734.8388
477.3036, 731.0216
477.7857, 726.3438
478.2679, 716.7982
478.7500, 705.2650
479.2321, 699.4588
479.7142, 702.9329
480.1963, 702.5217
480.6784, 689.1721
481.1606, 675.2703
481.6427, 675.6259
482.1248, 688.4210
482.6069, 697.9195
483.0890, 691.7130
483.5711, 673.0990
484.0533, 660.2325
484.5354, 655.3065
485.0175, 652.8867
485.4996, 654.7382
485.9817, 656.6539
486.4638, 654.3887
486.9460, 647.9971
487.4281, 642.1134
487.9102, 641.4726
488.3923, 644.0680
488.8744, 643.9624
489.3565, 641.0238
489.8387, 635.6637
490.3208, 626.1898
490.8029, 615.3953
491.2850, 608.8696
491.7671, 607.2697
492.2492, 607.8425
492.7314, 610.5598
493.2135, 614.4864
493.6956, 619.3280
494.1777, 624.6318
494.6598, 628.8242
495.1419, 630.8842
495.6241, 630.6675
496.1062, 627.0472
496.5883, 614.3899
497.0704, 606.3768
497.5525, 608.5245
498.0346, 612.7178
498.5168, 611.3215
498.9989, 604.1490
499.4810, 597.6413
499.9631, 598.5457
500.4452, 604.3062
500.9273, 604.5619
501.4095, 597.9182
501.8916, 591.5413
502.3737, 587.6556
502.8558, 586.4654
503.3379, 589.0399
503.8200, 597.0921
504.3022, 601.6505
504.7843, 597.9604
505.2664, 589.7990
505.7485, 578.9377
506.2306, 566.8503
506.7127, 560.1668
507.1949, 564.1558
507.6770, 575.8237
508.1591, 581.9464
508.6412, 576.6525
509.1233, 574.3238
509.6054, 579.8188
510.0876, 585.2712
510.5697, 583.8867
511.0518, 576.3468
511.5339, 568.7601
512.0161, 565.4926
512.4982, 565.3411
512.9803, 565.4603
513.4624, 566.0881
513.9445, 565.4836
514.4266, 562.6553
514.9088, 558.5765
515.3909, 554.1342
515.8730, 549.1693
516.3551, 545.6887
516.8372, 545.7885
517.3193, 546.5267
517.8015, 543.9865
518.2836, 539.2496
518.7657, 537.9071
519.2478, 543.4618
519.7299, 551.7546
520.2120, 552.4719
520.6942, 539.5687
521.1763, 530.5628
521.6584, 528.5535
522.1405, 527.0825
522.6226, 521.0911
523.1047, 512.7496
523.5869, 508.8679
524.0690, 514.7779
524.5511, 522.9414
525.0332, 518.5693
525.5153, 501.7769
525.9974, 491.4914
526.4796, 494.2106
526.9617, 501.5043
527.4438, 505.7406
527.9259, 507.1273
528.4080, 505.6017
528.8901, 497.4760
529.3723, 490.0535
529.8544, 488.3652
530.3365, 490.3559
530.8186, 492.1096
531.3007, 492.2624
531.7828, 491.5222
532.2650, 490.8839
532.7471, 490.4631
533.2292, 489.4197
533.7113, 488.0457
534.1934, 485.6191
534.6755, 480.7875
535.1577, 475.2338
535.6398, 471.2890
536.1219, 469.6919
536.6040, 468.9110
537.0861, 466.9741
537.5682, 464.6856
538.0504, 465.0887
538.5325, 468.8154
539.0146, 473.2524
539.4967, 477.4609
539.9788, 480.7571
540.4609, 479.8539
540.9431, 470.1565
541.4252, 463.0203
541.9073, 462.3260
542.3894, 464.1779
542.8715, 464.3644
543.3536, 462.9131
543.8358, 463.6176
544.3179, 470.5276
544.8000, 481.0299
545.2821, 482.7499
545.7642, 472.0544
546.2463, 462.4995
546.7285, 456.3846
547.2106, 453.6562
547.6926, 455.7427
548.1747, 462.1071
548.6569, 467.4056
549.1390, 468.8973
549.6211, 468.4278
550.1032, 467.6201
550.5853, 466.5589
551.0674, 465.1130
551.5496, 463.0480
552.0317, 461.4882
552.5138, 462.4422
552.9959, 467.0954
553.4780, 470.2659
553.9601, 470.9360
554.4423, 471.4513
554.9244, 474.0049
555.4065, 476.6404
555.8886, 475.5293
556.3707, 469.1473
556.8528, 462.0972
557.3350, 460.7980
557.8171, 464.3638
558.2992, 465.0589
558.7813, 461.1509
559.2634, 457.6255
559.7455, 457.7870
560.2277, 460.9265
560.7098, 464.5906
561.1919, 471.1307
561.6740, 474.0633
562.1561, 468.0907
562.6382, 459.4991
563.1204, 454.1122
563.6025, 452.8994
564.0846, 455.3265
564.5667, 461.5643
565.0488, 470.1831
565.5309, 475.8185
566.0131, 478.5006
566.4952, 478.1086
566.9773, 471.3503
567.4594, 464.0668
567.9415, 459.5004
568.4236, 457.6294
568.9058, 457.4118
569.3879, 459.8994
569.8700, 462.5081
570.3521, 461.7618
570.8342, 458.8267
571.3163, 457.8494
571.7985, 460.1958
572.2806, 463.8595
572.7627, 466.5115
573.2448, 468.0786
573.7269, 469.3863
574.2090, 470.9104
574.6912, 471.6390
575.1733, 471.0620
575.6554, 469.6918
576.1375, 466.8692
576.6196, 462.9332
577.1017, 461.8379
577.5839, 470.3008
578.0660, 484.4400
578.5481, 490.3183
579.0302, 486.9286
579.5123, 482.4212
579.9944, 480.3217
580.4766, 479.3990
580.9587, 476.8467
581.4408, 471.6205
581.9229, 469.1781
582.4050, 471.2560
582.8871, 475.4661
583.3693, 482.2279
583.8514, 489.5971
584.3335, 493.6953
584.8156, 492.6865
585.2977, 489.2335
585.7798, 486.8227
586.2620, 485.2860
586.7441, 487.2905
587.2262, 495.1724
587.7083, 503.0071
588.1904, 509.9583
588.6725, 514.0027
589.1547, 509.8827
589.6368, 492.2360
590.1189, 478.8215
590.6010, 481.5930
591.0831, 491.5456
591.5652, 498.4701
592.0474, 501.0670
592.5295, 500.5832
593.0116, 497.5188
593.4937, 492.8362
593.9758, 489.1218
594.4579, 485.1772
594.9401, 485.0998
595.4222, 494.9607
595.9043, 503.5489
596.3864, 504.0717
596.8685, 498.8367
597.3506, 494.1703
597.8328, 492.5236
598.3149, 491.9524
598.7970, 490.8400
599.2791, 489.4152
599.7612, 488.8670
600.2433, 489.4296
600.7255, 488.2349
601.2076, 482.3724
601.6897, 472.6139
602.1718, 465.2415
602.6539, 460.0703
603.1360, 457.7915
603.6182, 460.6675
604.1003, 464.6602
604.5824, 467.6468
605.0645, 469.0241
605.5466, 468.0441
606.0287, 463.4020
606.5109, 457.3683
606.9930, 452.4700
607.4751, 448.9197
607.9572, 449.2278
608.4393, 454.9406
608.9214, 461.0104
609.4036, 462.0504
609.8857, 458.0308
610.3678, 455.8448
610.8499, 456.9993
611.3320, 457.8991
611.8141, 456.9051
612.2963, 455.7698
612.7784, 457.4948
613.2605, 461.5175
613.7426, 463.1230
614.2247, 457.7090
614.7068, 448.2199
615.1890, 441.8645
615.6711, 438.7505
616.1532, 436.0980
616.6353, 432.3749
617.1174, 430.2061
617.5995, 433.4897
618.0817, 442.3723
618.5638, 449.2601
619.0459, 453.8280
619.5280, 456.3967
620.0101, 455.8702
620.4922, 454.0077
620.9744, 452.6923
621.4565, 452.4213
621.9386, 453.0530
622.4207, 454.8309
622.9028, 457.2536
623.3849, 458.0211
623.8671, 456.7274
624.3492, 456.2917
624.8313, 458.4396
625.3134, 460.8501
625.7955, 460.4318
626.2776, 457.3717
626.7598, 454.5646
627.2419, 450.7871
627.7240, 449.1040
628.2061, 452.4272
628.6882, 458.2990
629.1703, 464.2019
629.6525, 468.9924
630.1346, 470.5049
630.6167, 465.0736
631.0988, 454.7717
631.5809, 452.0572
632.0630, 459.1124
632.5452, 465.2736
633.0273, 467.6249
633.5094, 467.4248
633.9915, 464.5985
634.4736, 459.4135
634.9557, 458.3108
635.4379, 464.8643
635.9200, 473.4076
636.4021, 483.0114
636.8842, 491.6905
637.3663, 496.1600
637.8484, 495.8886
638.3306, 493.4109
638.8127, 490.7090
639.2948, 488.0878
639.7769, 487.3672
640.2590, 488.4534
640.7411, 491.9197
641.2233, 499.5795
641.7054, 508.1144
642.1875, 513.7224
642.6696, 516.7047
643.1517, 520.7305
643.6339, 531.0743
644.1160, 537.8236
644.5981, 530.6107
645.0802, 518.2294
645.5623, 515.1161
646.0444, 523.6269
646.5266, 534.3677
647.0087, 538.5525
647.4908, 537.6832
647.9729, 539.0754
648.4550, 543.5476
648.9371, 546.8077
649.4193, 546.3141
649.9014, 545.8196
650.3835, 549.1411
650.8656, 555.8241
651.3477, 562.9705
651.8298, 570.7108
652.3120, 578.1447
652.7941, 584.8935
653.2762, 591.1083
653.7583, 597.0718
654.2404, 602.7599
654.7225, 607.7949
655.2047, 611.9073
655.6868, 615.0853
656.1689, 616.3806
656.6510, 614.9093
657.1331, 616.9002
657.6152, 623.1920
658.0974, 633.9142
658.5795, 652.6561
659.0616, 676.9078
659.5437, 694.7748
660.0258, 700.2365
660.5079, 705.4189
660.9901, 714.7986
661.4722, 725.6877
661.9543, 733.7321
662.4364, 739.9662
662.9185, 751.2192
663.4006, 773.3079
663.8828, 799.5208
664.3649, 813.6084
664.8470, 815.0458
665.3291, 821.7902
665.8112, 837.5039
666.2933, 856.7453
666.7755, 874.5686
667.2576, 892.6791
667.7397, 918.6520
668.2218, 965.1104
668.7039, 998.7974
669.1860, 1006.681
669.6682, 1004.880
670.1503, 1005.334
670.6324, 1007.530
671.1145, 1004.914
671.5966, 993.6057
672.0787, 980.8635
672.5609, 978.7663
673.0430, 985.3480
673.5251, 988.7128
674.0072, 989.3403
674.4893, 976.4421
674.9714, 940.7191
675.4536, 889.3109
675.9357, 840.4019
676.4178, 791.0944
676.8999, 750.4021
677.3820, 723.2509
677.8641, 699.9399
678.3463, 674.8232
678.8284, 650.4667
679.3105, 632.1266
679.7926, 621.4998
680.2747, 614.2591
680.7568, 606.8710
681.2390, 599.8431
681.7211, 594.9540
682.2032, 592.1395
682.6853, 589.0209
683.1674, 584.9368
683.6495, 578.7438
684.1317, 567.8748
684.6138, 550.5646
685.0959, 538.1258
685.5780, 535.6807
686.0601, 531.8418
686.5422, 521.3903
687.0244, 509.7278
687.5065, 503.3945
687.9886, 502.7155
688.4707, 501.3336
688.9528, 492.9360
689.4349, 484.0614
689.9171, 483.3354
690.3992, 488.3440
690.8813, 492.3222
691.3634, 493.3733
691.8455, 492.0435
692.3276, 488.3931
692.8098, 482.9330
693.2919, 480.4831
693.7740, 482.6574
694.2561, 484.3144
694.7382, 486.2840
695.2203, 485.7704
695.7025, 478.1440
696.1846, 466.0060
696.6667, 459.2942
697.1488, 464.6491
697.6309, 469.6243
698.1130, 466.2551
698.5952, 459.5349
699.0773, 455.1951
699.5594, 453.8854
700.0415, 454.3991
700.5236, 456.2230
701.0057, 458.1706
701.4879, 456.9660
701.9700, 452.3065
702.4521, 451.1370
702.9342, 455.1837
703.4163, 459.9737
703.8984, 463.7799
704.3806, 466.1545
704.8627, 465.8443
705.3448, 461.7237
705.8269, 458.3580
706.3090, 456.2187
706.7911, 455.1336
707.2733, 455.3077
707.7554, 456.3553
708.2375, 457.8860
708.7196, 459.7358
709.2017, 461.3728
709.6838, 462.6698
710.1660, 463.2843
710.6481, 461.6946
711.1302, 458.0688
711.6123, 455.2946
712.0944, 454.1873
712.5765, 455.3493
713.0587, 460.2748
713.5408, 469.3352
714.0229, 474.1936
714.5050, 471.8721
714.9871, 469.2773
715.4692, 465.6892
715.9514, 463.6364
716.4335, 467.3073
716.9156, 474.9523
717.3977, 478.2888
717.8798, 470.7017
718.3619, 462.4336
718.8441, 463.2014
719.3262, 468.2203
719.8083, 468.5915
720.2904, 463.8327
720.7725, 460.2310
721.2546, 462.2772
721.7368, 467.0984
722.2189, 467.3314
722.7010, 462.0894
723.1831, 458.2954
723.6652, 456.3518
724.1473, 456.2370
724.6295, 460.8692
725.1116, 466.1448
725.5937, 462.4021
726.0758, 444.9129
726.5579, 435.0328
727.0400, 442.6360
727.5222, 452.7522
728.0043, 458.6321
728.4864, 460.1505
728.9685, 456.8953
729.4506, 449.3243
729.9327, 441.8912
730.4149, 439.5041
730.8970, 439.7873
731.3791, 436.2888
731.8612, 429.6812
732.3433, 427.1039
732.8254, 431.1617
733.3076, 436.3534
733.7897, 437.2648
734.2718, 434.0781
734.7539, 428.8286
735.2360, 415.9597
735.7181, 410.4331
736.2003, 420.1080
736.6824, 431.5627
737.1645, 438.1510
737.6466, 439.7505
738.1287, 436.6605
738.6108, 426.5834
739.0930, 417.6863
739.5751, 415.4482
740.0572, 416.2390
740.5393, 415.4720
741.0214, 413.7369
741.5035, 415.1608
741.9857, 421.7033
742.4678, 428.7401
742.9499, 428.4425
743.4320, 421.5652
743.9141, 418.5648
744.3962, 419.6522
744.8784, 424.8353
745.3605, 436.8334
745.8426, 448.8813
746.3247, 450.6703
746.8068, 440.5642
747.2889, 435.5720
747.7711, 440.9615
748.2532, 444.2937
748.7353, 440.1617
749.2174, 434.5992
749.6995, 433.1615
750.1816, 435.6348
750.6638, 438.4719
751.1459, 439.9624
751.6280, 441.3066
752.1101, 444.8008
752.5922, 448.5195
753.0743, 447.6486
753.5565, 442.4933
754.0386, 438.6546
754.5207, 439.4846
755.0028, 443.0273
755.4849, 445.7178
755.9670, 447.5189
756.4492, 448.8644
756.9313, 450.0681
757.4134, 449.8198
757.8955, 445.1907
758.3776, 440.5479
758.8597, 444.1039
759.3419, 456.9050
759.8240, 465.3909
760.3061, 467.2354
760.7882, 466.0886
761.2703, 460.4209
761.7524, 454.3512
762.2346, 452.8151
762.7167, 455.5307
763.1988, 457.8054
763.6809, 456.6315
764.1630, 454.4909
764.6451, 454.2693
765.1273, 455.3119
765.6094, 456.1125
766.0915, 456.4314
766.5736, 456.3511
767.0557, 455.8797
767.5378, 455.2351
768.0200, 454.9952
768.5021, 455.3342
768.9842, 455.0145
769.4663, 453.8981
769.9484, 452.3600
770.4305, 450.1476
770.9127, 447.8785
771.3948, 446.4548
771.8769, 445.9166
772.3590, 445.6028
772.8411, 445.9271
773.3232, 445.8876
773.8054, 444.8403
774.2875, 443.4061
774.7696, 442.3108
775.2517, 441.5333
775.7338, 440.3904
776.2159, 438.0763
776.6981, 436.1661
777.1802, 436.8952
777.6623, 439.2629
778.1444, 441.4675
778.6265, 443.0796
779.1086, 442.8597
779.5908, 439.9545
780.0729, 435.9521
780.5550, 433.4051
781.0371, 432.1833
781.5192, 434.5995
782.0013, 443.1548
782.4835, 448.5245
782.9656, 445.1881
783.4477, 438.8201
783.9298, 436.2073
784.4119, 437.3562
784.8940, 440.6631
785.3762, 450.1693
785.8583, 456.5052
786.3404, 455.5612
786.8225, 451.6812
787.3046, 446.6100
787.7867, 442.0513
788.2689, 441.9791
788.7510, 449.3774
789.2331, 457.2898
789.7152, 459.9429
790.1973, 459.2957
790.6794, 457.2909
791.1616, 454.8673
791.6437, 454.8398
792.1258, 458.4270
792.6079, 462.9504
793.0900, 464.8387
793.5721, 464.3122
794.0543, 463.5094
794.5364, 462.4268
795.0185, 460.9093
795.5006, 458.4626
795.9827, 456.4847
796.4648, 456.1527
796.9470, 457.4780
797.4291, 460.5765
797.9112, 468.6354
798.3933, 473.8471
798.8754, 476.3466
799.3575, 475.4448
799.8397, 466.9207
800.3218, 455.8134
800.8039, 451.6967
801.2860, 457.4757
801.7681, 465.1399
802.2502, 471.7697
802.7324, 477.5765
803.2145, 483.8758
803.6966, 489.1603
804.1787, 490.3817
804.6608, 486.9811
805.1429, 480.8152
805.6251, 471.8766
806.1072, 463.3461
806.5893, 464.3736
807.0714, 473.2435
807.5535, 476.1069
808.0356, 470.2903
808.5178, 463.6596
808.9999, 461.1673
809.4820, 461.9107
809.9641, 463.9980
810.4462, 468.3504
810.9283, 470.4427
811.4105, 467.5641
811.8926, 466.8712
812.3747, 472.7027
812.8568, 481.0841
813.3389, 487.9983
813.8210, 493.3664
814.3032, 496.8983
814.7853, 498.3976
815.2674, 498.2177
815.7495, 495.9001
816.2316, 492.4109
816.7137, 485.6698
817.1959, 478.6163
817.6780, 480.0453
818.1601, 495.4391
818.6422, 511.4461
819.1243, 516.0118
819.6064, 514.4199
820.0886, 514.3976
820.5707, 515.8486
821.0528, 515.9025
821.5349, 513.6127
822.0170, 511.3059
822.4991, 511.7085
822.9813, 514.1359
823.4634, 515.4891
823.9455, 515.6888
824.4276, 516.3769
824.9097, 517.4922
825.3918, 521.2064
825.8740, 530.7782
826.3561, 542.9778
826.8382, 545.9914
827.3203, 531.3107
827.8024, 527.2296
828.2845, 543.9321
828.7667, 558.7935
829.2488, 560.3748
829.7309, 557.7524
830.2130, 561.8267
830.6951, 573.2577
831.1772, 585.2484
831.6594, 596.8376
832.1415, 607.8738
832.6236, 620.1197
833.1057, 630.4972
833.5878, 632.6482
834.0699, 630.0378
834.5521, 634.7064
835.0342, 653.1825
835.5163, 673.5284
835.9984, 684.4856
836.4805, 690.2950
836.9626, 699.4870
837.4448, 710.2237
837.9269, 713.6531
838.4090, 707.0152
838.8911, 696.2368
839.3732, 687.2739
839.8553, 679.4290
840.3375, 668.9813
840.8196, 655.8009
841.3017, 647.5337
841.7838, 646.4264
842.2659, 645.7993
842.7480, 640.8893
843.2302, 633.6044
843.7123, 628.5374
844.1944, 625.4684
844.6765, 625.3999
845.1586, 628.9084
845.6407, 634.5543
846.1229, 645.2578
846.6050, 655.5506
847.0871, 658.9174
847.5692, 655.9504
848.0513, 654.9561
848.5334, 657.8178
849.0156, 661.7589
849.4977, 667.0046
849.9798, 672.1814
850.4619, 676.6041
850.9440, 680.0623
851.4261, 681.6060
851.9083, 680.7184
852.3904, 681.6319
852.8725, 690.4587
853.3546, 699.6863
853.8367, 698.6703
854.3188, 692.7256
854.8010, 693.3322
855.2831, 702.3318
855.7652, 713.7189
856.2473, 723.2501
856.7294, 732.1579
857.2115, 744.0902
857.6937, 757.4794
858.1758, 763.9008
858.6579, 762.8705
859.1400, 764.1567
859.6221, 772.6740
860.1042, 782.9474
860.5864, 786.8878
861.0685, 784.7609
861.5506, 784.1409
862.0327, 784.3557
862.5148, 789.7466
862.9969, 805.6094
863.4791, 818.2020
863.9612, 813.3985
864.4433, 797.6657
864.9254, 795.1249
865.4075, 817.8445
865.8896, 828.4897
866.3718, 815.1493
866.8539, 804.5325
867.3360, 807.9122
867.8181, 817.5750
868.3002, 826.4111
868.7823, 833.4930
869.2645, 836.3312
869.7466, 828.7536
870.2287, 823.9850
870.7108, 833.6508
871.1929, 842.8013
871.6750, 833.1860
872.1572, 812.8718
872.6393, 803.8745
873.1214, 813.9649
873.6035, 824.2902
874.0856, 818.2087
874.5677, 807.7561
875.0499, 807.7671
875.5320, 813.5826
876.0141, 814.2825
876.4962, 808.4619
876.9783, 802.3123
877.4604, 799.6666
877.9426, 800.3143
878.4247, 806.6955
878.9068, 816.0840
879.3889, 817.0179
879.8710, 809.4135
880.3531, 801.7396
880.8353, 797.3874
881.3174, 795.0916
881.7995, 793.8096
882.2816, 793.0963
882.7637, 789.5435
883.2458, 782.5163
883.7280, 777.2767
884.2101, 774.3666
884.6922, 774.8607
885.1743, 781.2479
885.6564, 789.4036
886.1385, 789.4590
886.6207, 778.1279
887.1028, 773.7218
887.5849, 780.3286
888.0670, 787.3092
888.5491, 792.1273
889.0313, 796.0266
889.5134, 799.5977
889.9955, 803.0992
890.4776, 807.8428
890.9597, 815.5457
891.4418, 821.4881
891.9240, 827.4758
892.4061, 828.9167
892.8882, 817.0508
893.3703, 802.5905
893.8524, 801.3916
894.3345, 814.6202
894.8167, 827.4476
895.2988, 836.8478
895.7809, 840.8068
896.2630, 832.5756
896.7451, 822.7113
897.2272, 823.0881
897.7094, 831.4570
898.1915, 839.4590
898.6736, 844.1047
899.1557, 847.9399
899.6378, 852.8030
900.1199, 858.0920
900.6021, 863.7859
901.0842, 869.1071
901.5663, 872.6311
902.0484, 874.0558
902.5305, 873.3880
903.0126, 870.4770
903.4948, 866.4562
903.9769, 861.6530
904.4590, 857.2936
904.9411, 858.5404
905.4232, 864.7294
905.9053, 869.6395
906.3875, 871.2343
906.8696, 870.7635
907.3517, 868.7867
907.8338, 866.7435
908.3159, 870.0328
908.7980, 878.6918
909.2802, 885.8616
909.7623, 890.5280
910.2444, 896.1814
910.7265, 904.7924
911.2086, 914.3339
911.6907, 922.2482
912.1729, 928.5007
912.6550, 930.4422
913.1371, 924.7781
913.6192, 926.1449
914.1013, 942.0552
914.5834, 955.7394
915.0656, 953.8821
915.5477, 943.6707
916.0298, 942.0317
916.5119, 952.0106
916.9940, 959.1954
917.4761, 963.6406
917.9583, 965.1900
918.4404, 963.2056
918.9225, 958.8632
919.4046, 948.3671
919.8867, 935.9151
920.3688, 937.8635
920.8510, 965.8989
921.3331, 984.9815
921.8152, 981.9973
922.2973, 978.4219
922.7794, 986.0532
923.2615, 997.2788
923.7437, 1003.425
924.2258, 1003.852
924.7079, 1001.337
925.1900, 992.9525
925.6721, 987.9855
926.1542, 992.9087
926.6364, 1000.219
927.1185, 1003.665
927.6006, 1005.243
928.0827, 1009.823
928.5648, 1018.117
929.0469, 1025.127
929.5291, 1026.282
930.0112, 1027.201
930.4933, 1031.606
930.9754, 1038.543
931.4575, 1046.292
931.9396, 1055.546
932.4218, 1071.660
932.9039, 1096.296
933.3860, 1112.504
933.8681, 1096.695
934.3502, 1071.504
934.8323, 1066.903
935.3145, 1075.125
935.7966, 1080.606
936.2787, 1081.427
936.7608, 1083.005
937.2429, 1088.248
937.7250, 1094.405
938.2072, 1098.057
938.6893, 1100.171
939.1714, 1102.763
939.6535, 1105.862
940.1356, 1109.166
940.6177, 1112.718
941.0999, 1117.623
941.5820, 1124.859
942.0641, 1132.858
942.5462, 1139.091
943.0283, 1143.598
943.5104, 1146.219
943.9926, 1147.073
944.4747, 1147.503
944.9568, 1147.881
945.4389, 1149.363
945.9210, 1152.828
946.4031, 1158.505
946.8853, 1169.578
947.3674, 1185.973
947.8495, 1187.796
948.3316, 1171.704
948.8137, 1167.591
949.2958, 1189.248
949.7780, 1215.316
950.2601, 1220.632
950.7422, 1210.475
951.2243, 1214.933
951.7064, 1237.617
952.1885, 1250.670
952.6707, 1249.360
953.1528, 1245.698
953.6349, 1244.021
954.1170, 1245.404
954.5991, 1251.990
955.0812, 1263.429
955.5634, 1272.854
956.0455, 1280.276
956.5276, 1285.565
957.0097, 1288.806
957.4918, 1289.284
957.9739, 1283.561
958.4561, 1278.203
958.9382, 1284.746
959.4203, 1304.189
959.9024, 1321.862
960.3845, 1338.471
960.8666, 1351.801
961.3488, 1360.160
961.8309, 1367.020
962.3130, 1374.166
962.7951, 1381.356
963.2772, 1388.724
963.7593, 1397.186
964.2415, 1400.845
964.7236, 1392.727
965.2057, 1389.953
965.6878, 1401.398
966.1699, 1413.195
966.6520, 1413.388
967.1342, 1408.151
967.6163, 1412.437
968.0984, 1429.791
968.5805, 1443.716
969.0626, 1449.255
969.5447, 1456.935
970.0269, 1472.203
970.5090, 1488.008
970.9911, 1500.140
971.4732, 1508.379
971.9553, 1511.732
972.4374, 1507.783
972.9196, 1507.339
973.4017, 1512.558
973.8838, 1520.647
974.3659, 1534.688
974.8480, 1547.773
975.3301, 1550.837
975.8123, 1547.938
976.2944, 1552.903
976.7765, 1571.278
977.2586, 1586.183
977.7407, 1590.444
978.2228, 1594.591
978.7050, 1599.817
979.1871, 1609.738
979.6692, 1630.775
980.1513, 1659.524
980.6334, 1685.049
981.1155, 1707.217
981.5977, 1718.858
982.0798, 1704.065
982.5619, 1694.341
983.0440, 1714.963
983.5261, 1742.451
984.0082, 1746.896
984.4904, 1733.147
984.9725, 1730.367
985.4546, 1750.953
985.9367, 1768.713
986.4188, 1772.589
986.9009, 1772.894
987.3831, 1768.854
987.8652, 1769.286
988.3473, 1788.768
988.8294, 1822.823
989.3115, 1848.891
989.7936, 1857.819
990.2758, 1865.272
990.7579, 1876.912
991.2400, 1889.871
991.7221, 1902.466
992.2042, 1915.180
992.6863, 1929.853
993.1685, 1945.635
993.6506, 1958.151
994.1327, 1963.617
994.6148, 1972.419
995.0969, 1993.703
995.5790, 2015.031
996.0612, 2026.298
996.5433, 2033.548
997.0254, 2045.625
997.5075, 2062.041
997.9896, 2075.823
998.4717, 2085.204
998.9539, 2089.861
999.4360, 2082.877
999.9181, 2078.389
1000.400, 2087.271
1000.882, 2103.872
1001.364, 2122.797
1001.847, 2141.995
1002.329, 2157.212
1002.811, 2164.375
1003.293, 2175.758
1003.775, 2209.147
1004.257, 2235.843
1004.739, 2224.738
1005.221, 2202.473
1005.703, 2204.254
1006.186, 2228.841
1006.668, 2252.633
1007.150, 2267.273
1007.632, 2281.913
1008.114, 2305.153
1008.596, 2324.845
1009.078, 2326.970
1009.560, 2325.137
1010.043, 2339.804
1010.525, 2366.903
1011.007, 2381.543
1011.489, 2369.587
1011.971, 2369.451
1012.453, 2411.607
1012.935, 2454.681
1013.417, 2475.965
1013.899, 2482.531
1014.382, 2474.366
1014.864, 2460.083
1015.346, 2464.565
1015.828, 2500.083
1016.310, 2530.585
1016.792, 2536.192
1017.274, 2540.373
1017.756, 2556.648
1018.239, 2577.312
1018.721, 2594.537
1019.203, 2608.585
1019.685, 2623.582
1020.167, 2641.467
1020.649, 2655.200
1021.131, 2657.961
1021.613, 2661.777
1022.095, 2668.539
1022.578, 2682.031
1023.060, 2710.491
1023.542, 2747.426
1024.024, 2776.859
1024.506, 2795.170
1024.988, 2810.026
1025.470, 2814.738
1025.952, 2827.558
1026.435, 2866.474
1026.917, 2905.742
1027.399, 2920.779
1027.881, 2921.189
1028.363, 2928.150
1028.845, 2943.960
1029.327, 2969.972
1029.809, 3026.499
1030.292, 3065.383
1030.774, 3055.885
1031.256, 3042.712
1031.738, 3058.082
1032.220, 3090.201
1032.702, 3116.887
1033.184, 3136.227
1033.666, 3154.575
1034.148, 3172.809
1034.630, 3189.591
1035.113, 3202.647
1035.595, 3216.451
1036.077, 3233.777
1036.559, 3253.161
1037.041, 3271.595
1037.523, 3288.971
1038.005, 3310.661
1038.487, 3340.002
1038.970, 3368.188
1039.452, 3392.910
1039.934, 3418.861
1040.416, 3445.441
1040.898, 3476.295
1041.380, 3517.208
1041.862, 3567.124
1042.344, 3614.903
1042.826, 3654.642
1043.309, 3702.769
1043.791, 3744.431
1044.273, 3823.497
1044.755, 3961.199
1045.237, 4138.050
1045.719, 4342.977
1046.201, 4569.229
1046.683, 4785.928
1047.166, 4990.567
1047.648, 5193.982
1048.130, 5376.320
1048.612, 5613.462
1049.094, 5919.148
1049.576, 6308.634
1050.058, 6796.627
1050.540, 7372.371
1051.022, 8005.063
1051.505, 8690.651
1051.987, 9514.071
1052.469, 10532.93
1052.951, 11335.36
1053.433, 11863.68
1053.915, 11919.71
1054.397, 11324.62
1054.879, 10321.48
1055.361, 9293.774
1055.844, 8259.225
1056.326, 7411.638
1056.808, 6745.208
1057.290, 6202.843
1057.772, 5774.902
1058.254, 5425.309
1058.736, 5136.949
1059.218, 4902.305
1059.701, 4713.301
1060.183, 4571.545
1060.665, 4493.444
1061.147, 4469.511
1061.629, 4451.613
1062.111, 4434.299
1062.593, 4425.765
1063.075, 4429.069
1063.557, 4440.229
1064.040, 4456.452
1064.522, 4475.918
1065.004, 4493.028
1065.486, 4511.404
1065.968, 4543.955
1066.450, 4586.116
1066.932, 4616.734
1067.414, 4632.802
1067.896, 4657.970
1068.379, 4712.399
1068.861, 4766.658
1069.343, 4776.195
1069.825, 4773.489
1070.307, 4807.188
1070.789, 4863.151
1071.271, 4910.492
1071.753, 4945.206
1072.236, 4980.015
1072.718, 5021.250
1073.200, 5060.263
1073.682, 5085.689
1074.164, 5112.062
1074.646, 5157.032
1075.128, 5206.273
1075.610, 5238.711
1076.093, 5260.093
1076.575, 5289.029
1077.057, 5330.372
1077.539, 5383.177
1078.021, 5466.644
1078.503, 5535.345
1078.985, 5551.415
1079.467, 5561.838
1079.949, 5605.085
1080.432, 5667.174
1080.914, 5723.515
1081.396, 5770.990
1081.878, 5814.346
1082.360, 5846.212
1082.842, 5887.012
1083.324, 5947.024
1083.806, 6007.774
1084.288, 6060.632
1084.771, 6110.150
1085.253, 6161.596
1085.735, 6213.690
1086.217, 6259.837
1086.699, 6294.957
1087.181, 6337.191
1087.663, 6387.133
1088.145, 6444.044
1088.628, 6515.137
1089.110, 6578.094
1089.592, 6610.318
1090.074, 6631.397
1090.556, 6686.790
1091.038, 6778.176
1091.520, 6853.423
1092.002, 6911.484
1092.484, 6952.794
1092.967, 6973.083
1093.449, 7007.415
1093.931, 7075.682
1094.413, 7158.219
1094.895, 7234.020
1095.377, 7299.207
1095.859, 7329.672
1096.341, 7332.021
1096.823, 7357.083
1097.306, 7407.953
1097.788, 7473.616
1098.270, 7549.063
1098.752, 7617.650
1099.234, 7663.295
1099.716, 7705.736
1100.198, 7785.284
1100.680, 7878.271
1101.163, 7934.485
1101.645, 7963.098
1102.127, 7985.915
1102.609, 8010.994
1103.091, 8052.875
1103.573, 8119.549
1104.055, 8176.652
1104.537, 8187.471
1105.020, 8184.405
1105.502, 8192.385
1105.984, 8207.459
1106.466, 8220.592
1106.948, 8237.376
1107.430, 8277.746
1107.912, 8343.359
1108.394, 8390.720
1108.876, 8390.421
1109.359, 8386.564
1109.841, 8397.978
1110.323, 8407.966
1110.805, 8402.066
1111.287, 8391.889
1111.769, 8396.762
1112.251, 8412.109
1112.733, 8407.941
1113.215, 8363.479
1113.698, 8345.440
1114.180, 8385.941
1114.662, 8404.272
1115.144, 8368.622
1115.626, 8325.374
1116.108, 8303.559
1116.590, 8296.726
1117.072, 8295.322
1117.555, 8299.412
1118.037, 8287.210
1118.519, 8254.934
1119.001, 8226.696
1119.483, 8204.625
1119.965, 8193.038
1120.447, 8195.487
1120.929, 8197.674
1121.411, 8185.557
1121.894, 8160.894
1122.376, 8118.154
1122.858, 8066.278
1123.340, 8061.440
1123.822, 8094.877
1124.304, 8102.556
1124.786, 8074.174
1125.268, 8055.858
1125.750, 8074.744
1126.233, 8097.924
1126.715, 8083.744
1127.197, 8055.812
1127.679, 8042.045
1128.161, 8040.188
1128.643, 8053.920
1129.125, 8074.038
1129.607, 8076.891
1130.090, 8058.180
1130.572, 8041.981
1131.054, 8041.084
1131.536, 8044.232
1132.018, 8045.193
1132.500, 8048.569
1132.982, 8056.305
1133.464, 8069.139
1133.947, 8095.441
1134.429, 8127.792
1134.911, 8135.235
1135.393, 8100.808
1135.875, 8087.136
1136.357, 8109.039
1136.839, 8138.084
1137.321, 8175.377
1137.803, 8209.945
1138.286, 8233.042
1138.768, 8253.251
1139.250, 8284.584
1139.732, 8325.062
1140.214, 8356.096
1140.696, 8376.330
1141.178, 8399.106
1141.660, 8425.746
1142.142, 8448.815
1142.625, 8465.337
1143.107, 8487.127
1143.589, 8524.179
1144.071, 8567.790
1144.553, 8604.438
1145.035, 8634.888
1145.517, 8651.008
1145.999, 8664.566
1146.482, 8724.659
1146.964, 8821.521
1147.446, 8886.279
1147.928, 8895.277
1148.410, 8904.305
1148.892, 8962.730
1149.374, 9023.921
1149.856, 9028.740
1150.339, 9032.499
1150.821, 9112.440
1151.303, 9215.333
1151.785, 9247.306
1152.267, 9218.322
1152.749, 9220.358
1153.231, 9278.830
1153.713, 9355.718
1154.195, 9475.845
1154.677, 9567.460
1155.160, 9582.872
1155.642, 9592.137
1156.124, 9636.701
1156.606, 9702.193
1157.088, 9767.005
1157.570, 9832.469
1158.052, 9918.904
1158.534, 10038.19
1159.017, 10118.02
1159.499, 10145.49
1159.981, 10190.41
1160.463, 10276.59
1160.945, 10358.07
1161.427, 10400.65
1161.909, 10427.21
1162.391, 10474.98
1162.874, 10539.71
1163.356, 10608.80
1163.838, 10682.49
1164.320, 10759.17
1164.802, 10839.52
1165.284, 10933.35
1165.766, 11040.20
1166.248, 11122.69
1166.730, 11139.27
1167.213, 11166.89
1167.695, 11293.29
1168.177, 11433.68
1168.659, 11498.23
1169.141, 11540.98
1169.623, 11642.32
1170.105, 11785.46
1170.587, 11899.33
1171.069, 11967.78
1171.552, 12039.36
1172.034, 12126.57
1172.516, 12211.08
1172.998, 12283.69
1173.480, 12363.16
1173.962, 12462.77
1174.444, 12564.62
1174.926, 12648.40
1175.409, 12720.60
1175.891, 12804.13
1176.373, 12900.62
1176.855, 12981.64
1177.337, 13046.80
1177.819, 13126.48
1178.301, 13226.54
1178.783, 13345.67
1179.266, 13483.54
1179.748, 13606.99
1180.230, 13676.05
1180.712, 13716.13
1181.194, 13756.53
1181.676, 13803.72
1182.158, 13871.25
1182.640, 13952.74
1183.122, 14036.91
1183.604, 14119.90
1184.087, 14198.74
1184.569, 14272.86
1185.051, 14337.25
1185.533, 14384.72
1186.015, 14428.64
1186.497, 14467.24
1186.979, 14512.43
1187.461, 14566.66
1187.944, 14636.62
1188.426, 14745.76
1188.908, 14881.76
1189.390, 14963.83
1189.872, 14974.35
1190.354, 14993.64
1190.836, 15023.01
1191.318, 15056.96
1191.801, 15095.45
1192.283, 15127.60
1192.765, 15145.59
1193.247, 15165.95
1193.729, 15209.44
1194.211, 15270.77
1194.693, 15351.56
1195.175, 15434.95
1195.657, 15462.24
1196.140, 15454.63
1196.622, 15488.31
1197.104, 15566.18
1197.586, 15620.34
1198.068, 15618.31
1198.550, 15616.97
1199.032, 15648.02
1199.514, 15695.10
1199.996, 15772.25
1200.479, 15837.85
1200.961, 15834.28
1201.443, 15813.78
1201.925, 15874.79
1202.407, 16001.67
1202.889, 16043.37
1203.371, 15952.93
1203.853, 15930.33
1204.336, 16000.60
1204.818, 16057.90
1205.300, 16080.33
1205.782, 16093.68
1206.264, 16112.79
1206.746, 16119.38
1207.228, 16083.79
1207.710, 16035.38
1208.193, 16067.39
1208.675, 16140.41
1209.157, 16127.68
1209.639, 16055.73
1210.121, 16016.73
1210.603, 16021.68
1211.085, 16036.21
1211.567, 16047.07
1212.049, 16047.29
1212.531, 16034.36
1213.014, 16007.25
1213.496, 15955.63
1213.978, 15900.48
1214.460, 15850.34
1214.942, 15809.66
1215.424, 15790.86
1215.906, 15785.06
1216.388, 15758.18
1216.871, 15704.57
1217.353, 15667.44
1217.835, 15654.95
1218.317, 15618.14
1218.799, 15543.45
1219.281, 15493.47
1219.763, 15494.84
1220.245, 15521.22
1220.728, 15554.87
1221.210, 15573.41
1221.692, 15520.69
1222.174, 15434.36
1222.656, 15384.77
1223.138, 15366.56
1223.620, 15381.39
1224.102, 15409.96
1224.584, 15400.62
1225.067, 15343.97
1225.549, 15296.88
1226.031, 15279.80
1226.513, 15283.83
##END=



