##NAMES=Cerussite
##RRUFFID=R040069
##IDEAL CHEMISTRY=Pb^2+^CO_3_
##LOCALITY=Broken Hill, New South Wales, Australia
##OWNER=RRUFF
##SOURCE=University of Arizona Mineral Museum
##DESCRIPTION=Reticulated composite of colorless tabular crystals
##STATUS=The identification of this mineral has been confirmed by X-ray diffraction and chemical analysis
##URL=rruff.info/R040069
##MEASURED CHEMISTRY=Pb_1.04_C_0.98_O_3_
120.5639, 252.2981
121.0460, 267.7158
121.5281, 282.9572
122.0102, 298.4562
122.4924, 318.8122
122.9745, 345.2383
123.4566, 375.7581
123.9387, 410.4724
124.4208, 448.5386
124.9029, 488.1044
125.3851, 527.3271
125.8672, 566.0075
126.3493, 607.6461
126.8314, 652.8243
127.3135, 700.8599
127.7956, 751.1708
128.2778, 804.1026
128.7599, 862.1179
129.2420, 930.3444
129.7241, 1015.357
130.2062, 1084.393
130.6884, 1136.458
131.1705, 1175.715
131.6526, 1204.836
132.1347, 1223.643
132.6168, 1229.263
133.0989, 1215.691
133.5811, 1169.765
134.0632, 1133.567
134.5453, 1104.791
135.0274, 1085.146
135.5095, 1077.058
135.9916, 1080.526
136.4738, 1092.013
136.9559, 1105.598
137.4380, 1116.216
137.9201, 1138.743
138.4022, 1169.787
138.8843, 1213.243
139.3665, 1274.715
139.8486, 1355.365
140.3307, 1449.634
140.8128, 1545.944
141.2949, 1646.304
141.7770, 1746.964
142.2592, 1849.306
142.7413, 1950.884
143.2234, 2049.528
143.7055, 2144.013
144.1876, 2235.033
144.6697, 2325.121
145.1519, 2424.677
145.6340, 2509.021
146.1161, 2575.003
146.5982, 2623.867
147.0803, 2657.684
147.5624, 2677.737
148.0446, 2682.854
148.5267, 2666.772
149.0088, 2626.289
149.4909, 2574.976
149.9730, 2514.713
150.4551, 2445.736
150.9372, 2366.513
151.4194, 2272.970
151.9015, 2172.377
152.3836, 2087.361
152.8657, 2024.391
153.3478, 1965.001
153.8299, 1901.073
154.3121, 1835.158
154.7942, 1774.283
155.2763, 1722.847
155.7584, 1678.932
156.2405, 1635.644
156.7226, 1591.571
157.2048, 1549.655
157.6869, 1507.212
158.1690, 1466.507
158.6511, 1438.401
159.1332, 1433.420
159.6153, 1443.958
160.0975, 1444.260
160.5796, 1429.232
161.0617, 1409.823
161.5438, 1391.702
162.0259, 1374.934
162.5080, 1359.358
162.9902, 1344.332
163.4723, 1330.951
163.9544, 1320.986
164.4365, 1314.734
164.9186, 1311.745
165.4007, 1312.839
165.8829, 1317.894
166.3650, 1323.384
166.8471, 1328.656
167.3292, 1332.522
167.8113, 1332.686
168.2934, 1326.292
168.7756, 1318.719
169.2577, 1314.427
169.7398, 1313.450
170.2219, 1315.231
170.7040, 1321.271
171.1861, 1329.537
171.6683, 1336.362
172.1504, 1340.296
172.6325, 1343.444
173.1146, 1348.709
173.5967, 1356.491
174.0788, 1362.776
174.5610, 1367.250
175.0431, 1368.179
175.5252, 1361.811
176.0073, 1341.776
176.4894, 1319.462
176.9715, 1310.055
177.4537, 1315.651
177.9358, 1320.731
178.4179, 1317.387
178.9000, 1308.190
179.3821, 1295.639
179.8642, 1279.104
180.3464, 1260.576
180.8285, 1242.586
181.3106, 1225.307
181.7927, 1207.649
182.2748, 1185.961
182.7569, 1164.278
183.2391, 1148.438
183.7212, 1142.767
184.2033, 1140.685
184.6854, 1132.274
185.1675, 1115.788
185.6496, 1100.905
186.1318, 1093.232
186.6139, 1089.825
187.0960, 1087.964
187.5781, 1087.134
188.0602, 1087.219
188.5423, 1088.520
189.0245, 1091.529
189.5066, 1093.688
189.9887, 1092.408
190.4708, 1090.080
190.9529, 1088.639
191.4350, 1087.231
191.9172, 1089.028
192.3993, 1100.637
192.8814, 1124.823
193.3635, 1147.111
193.8456, 1158.637
194.3277, 1165.870
194.8099, 1174.637
195.2920, 1185.956
195.7741, 1200.543
196.2562, 1221.476
196.7383, 1251.214
197.2204, 1276.819
197.7026, 1284.618
198.1847, 1288.803
198.6668, 1304.458
199.1489, 1338.846
199.6310, 1379.013
200.1131, 1406.964
200.5953, 1419.970
201.0774, 1434.026
201.5595, 1455.389
202.0416, 1480.798
202.5237, 1507.981
203.0058, 1536.934
203.4880, 1566.366
203.9701, 1594.312
204.4522, 1620.409
204.9343, 1647.701
205.4164, 1679.017
205.8985, 1711.079
206.3807, 1740.906
206.8628, 1767.796
207.3449, 1793.231
207.8270, 1819.360
208.3091, 1846.488
208.7912, 1871.442
209.2734, 1892.160
209.7555, 1910.740
210.2376, 1929.368
210.7197, 1948.943
211.2018, 1965.710
211.6839, 1975.404
212.1661, 1977.858
212.6482, 1977.676
213.1303, 1979.837
213.6124, 1976.614
214.0945, 1959.026
214.5766, 1925.010
215.0588, 1888.528
215.5409, 1864.944
216.0230, 1854.043
216.5051, 1835.939
216.9872, 1801.933
217.4693, 1762.026
217.9515, 1724.157
218.4336, 1688.939
218.9157, 1655.188
219.3978, 1622.081
219.8799, 1589.645
220.3620, 1558.167
220.8442, 1527.187
221.3263, 1497.707
221.8084, 1471.214
222.2905, 1447.604
222.7726, 1423.135
223.2547, 1394.974
223.7369, 1363.507
224.2190, 1330.410
224.7011, 1292.971
225.1832, 1257.985
225.6653, 1232.515
226.1474, 1215.520
226.6296, 1197.263
227.1117, 1170.342
227.5938, 1137.831
228.0759, 1109.678
228.5580, 1088.821
229.0401, 1069.620
229.5223, 1045.840
230.0044, 1018.807
230.4865, 995.5717
230.9686, 983.1832
231.4507, 976.1850
231.9328, 961.7839
232.4150, 936.5408
232.8971, 910.3241
233.3792, 891.7498
233.8613, 878.6789
234.3434, 865.4877
234.8255, 848.9141
235.3077, 831.7847
235.7898, 819.4501
236.2719, 813.2823
236.7540, 805.8555
237.2361, 787.4302
237.7182, 763.1408
238.2004, 746.9103
238.6825, 748.6051
239.1646, 755.6236
239.6467, 754.3521
240.1288, 744.3574
240.6109, 732.3535
241.0931, 721.1085
241.5752, 711.1723
242.0573, 703.7617
242.5394, 702.6514
243.0215, 700.9586
243.5036, 691.9276
243.9858, 676.3934
244.4679, 661.8149
244.9500, 652.0756
245.4321, 646.2659
245.9142, 640.7891
246.3963, 635.8867
246.8785, 631.0315
247.3606, 625.9975
247.8427, 620.8097
248.3248, 615.7640
248.8069, 611.6364
249.2890, 606.9567
249.7712, 597.5182
250.2533, 579.9722
250.7354, 564.9278
251.2175, 557.9857
251.6996, 556.0865
252.1817, 552.9827
252.6639, 546.2095
253.1460, 538.3755
253.6281, 535.0927
254.1102, 539.0953
254.5923, 539.7233
255.0744, 531.9696
255.5566, 520.9225
256.0387, 513.4028
256.5208, 511.2493
257.0029, 511.0024
257.4850, 508.0116
257.9671, 501.0538
258.4492, 494.6902
258.9314, 489.0021
259.4135, 484.0150
259.8956, 480.6204
260.3777, 478.5996
260.8598, 475.3102
261.3419, 467.2213
261.8241, 452.4208
262.3062, 443.8751
262.7883, 448.2964
263.2704, 452.6031
263.7525, 448.6724
264.2346, 437.3127
264.7168, 424.3864
265.1989, 414.3061
265.6810, 407.0509
266.1631, 402.2071
266.6452, 402.8203
267.1273, 402.3030
267.6095, 397.0819
268.0916, 389.1064
268.5737, 382.6055
269.0558, 380.3375
269.5379, 381.4100
270.0201, 380.6904
270.5022, 375.5421
270.9843, 371.4219
271.4664, 369.8190
271.9485, 369.3185
272.4306, 368.1217
272.9128, 365.4240
273.3949, 361.7674
273.8770, 358.4557
274.3591, 355.4094
274.8412, 352.8887
275.3233, 351.4427
275.8055, 350.1416
276.2876, 347.7787
276.7697, 344.1640
277.2518, 340.8004
277.7339, 340.6465
278.2160, 345.9902
278.6982, 347.2135
279.1803, 338.6356
279.6624, 329.9339
280.1445, 326.6668
280.6266, 328.9027
281.1087, 332.5909
281.5909, 334.3597
282.0730, 334.1854
282.5551, 332.4658
283.0372, 328.1970
283.5193, 323.3123
284.0014, 317.5010
284.4836, 311.6874
284.9657, 308.2754
285.4478, 310.9314
285.9299, 317.1753
286.4120, 316.4931
286.8941, 305.0299
287.3763, 294.4098
287.8584, 290.9560
288.3405, 291.8149
288.8226, 292.7587
289.3047, 291.2892
289.7868, 290.2621
290.2690, 295.7444
290.7511, 309.0913
291.2332, 318.6877
291.7153, 317.6517
292.1974, 310.5198
292.6795, 302.8217
293.1617, 294.6241
293.6438, 287.2949
294.1259, 281.9695
294.6080, 278.5320
295.0901, 276.0803
295.5722, 274.0554
296.0544, 273.3513
296.5365, 276.3037
297.0186, 284.0836
297.5007, 288.5169
297.9828, 284.1471
298.4649, 274.7968
298.9471, 266.9417
299.4292, 261.8038
299.9113, 258.4222
300.3934, 255.6573
300.8755, 253.4197
301.3576, 253.1803
301.8398, 257.5366
302.3219, 262.3498
302.8040, 263.4911
303.2861, 261.0102
303.7682, 258.3659
304.2503, 258.3243
304.7325, 260.8740
305.2146, 262.6406
305.6967, 265.3045
306.1788, 265.6407
306.6609, 260.0163
307.1430, 251.0914
307.6252, 244.6270
308.1073, 243.8675
308.5894, 247.4916
309.0715, 250.6672
309.5536, 256.1724
310.0357, 257.7233
310.5179, 251.7266
311.0000, 242.9858
311.4821, 236.0121
311.9642, 232.3411
312.4463, 231.5120
312.9284, 233.4720
313.4106, 241.5528
313.8927, 244.8990
314.3748, 239.5305
314.8569, 233.3641
315.3390, 231.4089
315.8211, 233.6214
316.3033, 236.4337
316.7854, 236.2766
317.2675, 233.0339
317.7496, 231.1770
318.2317, 231.3613
318.7138, 232.3585
319.1960, 235.1483
319.6781, 238.2769
320.1602, 238.7105
320.6423, 233.4254
321.1244, 225.5809
321.6065, 224.1544
322.0887, 231.6796
322.5708, 238.5245
323.0529, 240.5345
323.5350, 240.0807
324.0171, 239.2725
324.4992, 238.5817
324.9814, 237.7004
325.4635, 235.9059
325.9456, 233.2973
326.4277, 231.7598
326.9098, 231.9445
327.3919, 233.3328
327.8741, 235.5576
328.3562, 238.7113
328.8383, 241.2094
329.3204, 241.9580
329.8025, 241.6935
330.2846, 242.0147
330.7668, 243.3308
331.2489, 243.9328
331.7310, 241.4270
332.2131, 235.9968
332.6952, 233.0613
333.1773, 235.1972
333.6595, 238.1711
334.1416, 239.2516
334.6237, 238.4930
335.1058, 236.6384
335.5879, 233.8230
336.0700, 230.4797
336.5522, 229.0397
337.0343, 231.2025
337.5164, 232.9325
337.9985, 233.3998
338.4806, 232.9800
338.9627, 231.7138
339.4449, 229.6710
339.9270, 227.9701
340.4091, 228.7081
340.8912, 233.6849
341.3733, 237.4820
341.8554, 239.2548
342.3376, 240.6968
342.8197, 243.3513
343.3018, 246.9139
343.7839, 249.4651
344.2660, 248.5255
344.7481, 244.1028
345.2303, 243.9188
345.7124, 252.8202
346.1945, 260.2594
346.6766, 262.0266
347.1587, 260.4362
347.6408, 259.4184
348.1230, 261.0054
348.6051, 263.7425
349.0872, 264.5237
349.5693, 262.7004
350.0514, 261.6571
350.5335, 262.5607
351.0157, 264.7282
351.4978, 268.3334
351.9799, 273.6852
352.4620, 277.6627
352.9441, 276.7444
353.4262, 272.2645
353.9084, 269.6518
354.3905, 270.2635
354.8726, 271.9804
355.3547, 272.5830
355.8368, 272.2899
356.3189, 272.5103
356.8011, 274.8647
357.2832, 277.0258
357.7653, 276.2336
358.2474, 272.6440
358.7295, 268.9374
359.2116, 266.7823
359.6938, 265.9180
360.1759, 264.7394
360.6580, 264.1597
361.1401, 262.2888
361.6222, 256.9863
362.1043, 250.5354
362.5865, 246.5297
363.0686, 246.2057
363.5507, 247.7026
364.0328, 247.9462
364.5149, 246.7573
364.9970, 244.5470
365.4792, 239.9852
365.9613, 235.6139
366.4434, 233.4230
366.9255, 233.0534
367.4076, 232.5426
367.8897, 230.0946
368.3719, 225.9239
368.8540, 223.0360
369.3361, 223.4743
369.8182, 222.2803
370.3003, 215.9286
370.7824, 207.9877
371.2646, 203.4189
371.7467, 204.5604
372.2288, 207.8434
372.7109, 207.8382
373.1930, 204.1864
373.6751, 201.9159
374.1573, 202.9711
374.6394, 205.3065
375.1215, 207.7956
375.6036, 210.3763
376.0857, 210.5339
376.5678, 205.3229
377.0500, 197.2314
377.5321, 190.4200
378.0142, 185.1622
378.4963, 182.3849
378.9784, 183.9448
379.4605, 189.1883
379.9427, 191.8297
380.4248, 189.3476
380.9069, 186.6710
381.3890, 186.8123
381.8711, 188.7070
382.3532, 189.8842
382.8354, 189.3292
383.3175, 187.2325
383.7996, 183.9290
384.2817, 177.5353
384.7638, 172.9368
385.2459, 170.8205
385.7281, 169.9649
386.2102, 169.8622
386.6923, 170.2191
387.1744, 170.6085
387.6565, 170.8376
388.1386, 170.9090
388.6208, 169.0075
389.1029, 160.9921
389.5850, 156.1898
390.0671, 160.7935
390.5492, 168.9660
391.0313, 171.9144
391.5135, 165.3359
391.9956, 155.3615
392.4777, 151.5146
392.9598, 154.4568
393.4419, 157.4620
393.9240, 159.6198
394.4062, 160.6227
394.8883, 159.9659
395.3704, 157.6924
395.8525, 155.3748
396.3346, 152.9905
396.8167, 151.3051
397.2989, 152.8258
397.7810, 158.0535
398.2631, 161.2406
398.7452, 156.8327
399.2273, 146.5957
399.7094, 141.9459
400.1916, 148.2599
400.6737, 154.1432
401.1558, 154.2533
401.6379, 150.9661
402.1200, 148.1779
402.6021, 147.2537
403.0843, 148.0560
403.5664, 150.6960
404.0485, 157.5869
404.5306, 160.3662
405.0127, 156.4681
405.4948, 151.2973
405.9770, 146.6235
406.4591, 143.3011
406.9412, 142.8763
407.4233, 147.3625
407.9054, 155.0146
408.3875, 156.3893
408.8697, 146.8717
409.3518, 139.8986
409.8339, 141.1503
410.3160, 145.4712
410.7981, 148.0416
411.2802, 147.7057
411.7624, 146.4683
412.2445, 146.6986
412.7266, 147.8504
413.2087, 146.2102
413.6908, 139.6796
414.1729, 133.4416
414.6551, 133.2867
415.1372, 137.8431
415.6193, 141.6638
416.1014, 143.9403
416.5835, 144.8844
417.0656, 143.6714
417.5478, 141.0126
418.0299, 139.6133
418.5120, 140.9071
418.9941, 143.9523
419.4762, 146.4419
419.9583, 149.5429
420.4405, 150.1585
420.9226, 145.1250
421.4047, 139.6556
421.8868, 138.5726
422.3689, 141.8764
422.8510, 145.9414
423.3332, 147.6349
423.8153, 147.0075
424.2974, 144.8749
424.7795, 138.4049
425.2616, 134.4415
425.7437, 136.4503
426.2259, 141.1050
426.7080, 144.4372
427.1901, 145.0957
427.6722, 144.5024
428.1543, 144.3253
428.6364, 144.5021
429.1186, 143.6450
429.6007, 140.5717
430.0828, 137.8281
430.5649, 137.9199
431.0470, 140.4508
431.5291, 143.6694
432.0113, 149.6205
432.4934, 154.2234
432.9755, 152.0841
433.4576, 144.4817
433.9397, 138.4016
434.4218, 137.6549
434.9040, 140.3008
435.3861, 140.9270
435.8682, 137.6214
436.3503, 135.2142
436.8324, 133.8619
437.3145, 133.5652
437.7967, 135.0143
438.2788, 137.8258
438.7609, 140.1183
439.2430, 139.9008
439.7251, 137.3883
440.2072, 137.0382
440.6894, 140.8978
441.1715, 143.9676
441.6536, 143.9205
442.1357, 142.8395
442.6178, 143.6463
443.0999, 147.4216
443.5821, 150.8428
444.0642, 149.9755
444.5463, 145.3845
445.0284, 140.9232
445.5105, 136.5260
445.9926, 133.7852
446.4748, 135.7559
446.9569, 141.2574
447.4390, 144.5625
447.9211, 142.8796
448.4032, 140.3059
448.8853, 140.1433
449.3675, 141.5125
449.8496, 141.2623
450.3317, 137.7639
450.8138, 133.2780
451.2959, 132.5672
451.7780, 139.1814
452.2602, 142.7316
452.7423, 141.2309
453.2244, 138.5234
453.7065, 136.8605
454.1886, 136.1866
454.6707, 135.2425
455.1529, 132.8986
455.6350, 129.8781
456.1171, 128.9377
456.5992, 130.5838
457.0813, 133.0217
457.5634, 137.1474
458.0455, 141.0140
458.5276, 143.1231
459.0098, 143.2906
459.4919, 141.6410
459.9740, 136.2525
460.4561, 129.4919
460.9382, 127.1173
461.4203, 129.9896
461.9025, 133.3360
462.3846, 133.6563
462.8667, 131.5418
463.3488, 130.8692
463.8309, 133.2146
464.3130, 134.9968
464.7952, 134.3717
465.2773, 132.9072
465.7594, 132.7389
466.2415, 134.3653
466.7236, 136.7045
467.2057, 138.6453
467.6879, 140.3001
468.1700, 140.6373
468.6521, 138.0916
469.1342, 135.8713
469.6163, 134.7991
470.0984, 134.6621
470.5806, 135.3422
471.0627, 137.0071
471.5448, 138.4454
472.0269, 137.6154
472.5090, 134.7099
472.9911, 132.9181
473.4733, 133.1109
473.9554, 134.1004
474.4375, 135.1935
474.9196, 136.2833
475.4017, 136.3362
475.8839, 135.2344
476.3660, 132.9771
476.8481, 127.6142
477.3302, 120.9950
477.8123, 118.8087
478.2944, 123.7868
478.7766, 131.9910
479.2587, 135.6627
479.7408, 132.1902
480.2229, 129.8951
480.7050, 129.0769
481.1871, 128.9802
481.6693, 130.0783
482.1514, 131.5760
482.6335, 131.5100
483.1156, 128.1970
483.5977, 123.6050
484.0798, 122.2908
484.5620, 124.7388
485.0441, 127.7460
485.5262, 131.2414
486.0083, 134.2299
486.4904, 135.9796
486.9725, 136.4779
487.4547, 135.4248
487.9368, 130.3947
488.4189, 125.2190
488.9010, 125.0813
489.3831, 129.3973
489.8652, 133.2872
490.3474, 134.1190
490.8295, 132.6342
491.3116, 130.8804
491.7937, 127.4661
492.2758, 125.8512
492.7579, 128.3791
493.2401, 130.8568
493.7222, 129.6066
494.2043, 125.2296
494.6864, 121.3343
495.1685, 120.8257
495.6506, 122.5932
496.1328, 122.4151
496.6149, 119.3600
497.0970, 117.4163
497.5791, 118.7690
498.0612, 121.2114
498.5433, 122.6015
499.0255, 122.7750
499.5076, 122.8171
499.9897, 123.4141
500.4718, 124.0793
500.9539, 124.0868
501.4360, 123.4425
501.9182, 122.5785
502.4003, 121.5758
502.8824, 120.7523
503.3645, 121.2732
503.8466, 126.6157
504.3287, 128.6210
504.8109, 123.1132
505.2930, 117.0220
505.7751, 116.6256
506.2572, 121.4537
506.7393, 126.2609
507.2214, 126.9873
507.7036, 124.3856
508.1857, 120.8336
508.6678, 115.3673
509.1499, 112.1329
509.6320, 114.5048
510.1141, 118.5708
510.5963, 120.0944
511.0784, 118.6378
511.5605, 117.4204
512.0426, 118.6017
512.5247, 120.4141
513.0068, 120.2319
513.4890, 118.1595
513.9711, 116.7020
514.4532, 117.6741
514.9353, 119.9001
515.4174, 119.2943
515.8995, 110.9546
516.3817, 106.6414
516.8638, 109.1670
517.3459, 113.6659
517.8280, 117.2754
518.3101, 119.5838
518.7922, 121.0940
519.2744, 122.2631
519.7565, 122.8128
520.2386, 121.8955
520.7207, 119.3880
521.2028, 115.9069
521.6849, 110.1574
522.1671, 104.8592
522.6492, 103.4536
523.1313, 106.1754
523.6134, 108.8446
524.0955, 110.8479
524.5776, 111.6849
525.0598, 109.6344
525.5419, 105.6605
526.0240, 103.9682
526.5061, 107.0262
526.9882, 112.4398
527.4703, 114.1657
527.9525, 109.1057
528.4346, 106.3080
528.9167, 107.9019
529.3988, 109.6235
529.8809, 108.9314
530.3630, 106.4032
530.8452, 103.9929
531.3273, 102.6118
531.8094, 102.1325
532.2915, 102.6063
532.7736, 104.0112
533.2557, 105.3978
533.7379, 106.8170
534.2200, 107.5949
534.7021, 106.2779
535.1842, 102.8450
535.6663, 101.2248
536.1484, 103.5535
536.6306, 106.1165
537.1127, 106.6209
537.5948, 105.8270
538.0769, 105.3322
538.5590, 105.7541
539.0411, 106.5764
539.5233, 107.0619
540.0054, 107.1912
540.4875, 107.0320
540.9696, 105.8818
541.4517, 105.3251
541.9338, 106.6479
542.4160, 108.7830
542.8981, 109.6931
543.3802, 108.1124
543.8623, 107.2319
544.3444, 111.5615
544.8265, 118.5317
545.3087, 120.6611
545.7908, 116.4022
546.2729, 111.4896
546.7550, 111.1951
547.2371, 115.0447
547.7192, 115.3250
548.2014, 107.9828
548.6835, 102.5551
549.1656, 102.1913
549.6477, 103.7520
550.1298, 104.1358
550.6119, 102.8728
551.0941, 101.4939
551.5762, 101.6297
552.0583, 102.7998
552.5404, 102.3106
553.0225, 99.38613
553.5046, 97.97052
553.9868, 100.3120
554.4689, 104.6381
554.9510, 108.8566
555.4331, 113.3794
555.9152, 115.2350
556.3973, 111.3506
556.8795, 105.9576
557.3616, 102.7056
557.8437, 101.5588
558.3258, 101.2843
558.8079, 101.2772
559.2900, 101.3567
559.7722, 101.0893
560.2543, 100.3744
560.7364, 99.56901
561.2185, 98.34238
561.7006, 97.34959
562.1827, 96.87347
562.6649, 96.87746
563.1470, 97.25501
563.6291, 98.03816
564.1112, 99.04912
564.5933, 100.3021
565.0754, 101.6572
565.5576, 102.5378
566.0397, 102.7810
566.5218, 102.8018
567.0039, 103.1199
567.4860, 103.7669
567.9681, 103.3647
568.4503, 99.73489
568.9324, 97.85747
569.4145, 100.8226
569.8966, 105.1109
570.3787, 106.5365
570.8608, 104.5508
571.3430, 102.2300
571.8251, 102.1214
572.3072, 104.0606
572.7893, 107.9717
573.2714, 114.4726
573.7535, 119.8322
574.2357, 122.9015
574.7178, 123.4904
575.1999, 120.7392
575.6820, 113.7340
576.1641, 108.2892
576.6462, 105.7150
577.1284, 105.2229
577.6105, 107.4997
578.0926, 111.3318
578.5747, 113.5965
579.0568, 112.6742
579.5389, 110.4584
580.0211, 111.3035
580.5032, 116.6487
580.9853, 117.8380
581.4674, 110.3002
581.9495, 103.5569
582.4316, 103.3477
582.9138, 107.4583
583.3959, 111.3972
583.8780, 114.4212
584.3601, 116.3785
584.8422, 117.1341
585.3243, 116.7589
585.8065, 114.7059
586.2886, 111.1055
586.7707, 108.4795
587.2528, 109.2418
587.7349, 112.6923
588.2170, 113.5772
588.6992, 109.1512
589.1813, 106.5102
589.6634, 108.2788
590.1455, 110.5698
590.6276, 110.0975
591.1097, 107.1636
591.5919, 104.7201
592.0740, 104.5121
592.5561, 105.6866
593.0382, 107.7630
593.5203, 110.4137
594.0024, 111.2242
594.4846, 109.0397
594.9667, 106.3058
595.4488, 106.1748
595.9309, 109.1145
596.4130, 111.4397
596.8951, 113.8903
597.3773, 114.9574
597.8594, 112.7720
598.3415, 109.6037
598.8236, 108.4302
599.3057, 109.8742
599.7878, 111.7127
600.2700, 111.8657
600.7521, 110.6883
601.2342, 109.1527
601.7163, 107.1314
602.1984, 106.1761
602.6805, 107.5246
603.1627, 109.8932
603.6448, 110.7299
604.1269, 109.7330
604.6090, 108.4782
605.0911, 106.9754
605.5732, 105.3871
606.0554, 102.8033
606.5375, 100.3841
607.0196, 100.6466
607.5017, 104.7353
607.9838, 110.4873
608.4659, 115.8039
608.9481, 120.6031
609.4302, 120.8426
609.9123, 114.2672
610.3944, 108.0268
610.8765, 106.2798
611.3586, 108.1566
611.8408, 111.4740
612.3229, 118.0043
612.8050, 122.1367
613.2871, 120.5926
613.7692, 117.1079
614.2513, 115.1961
614.7335, 114.7270
615.2156, 113.4979
615.6977, 110.0113
616.1798, 105.7726
616.6619, 104.4952
617.1440, 106.7109
617.6262, 108.1829
618.1083, 106.9997
618.5904, 106.9088
619.0725, 112.7384
619.5546, 121.7032
620.0367, 126.2608
620.5189, 122.5477
621.0010, 118.2827
621.4831, 117.0923
621.9652, 117.3504
622.4473, 116.7092
622.9294, 115.1112
623.4116, 114.6065
623.8937, 117.0240
624.3758, 121.2209
624.8579, 122.9259
625.3400, 121.3506
625.8221, 119.8293
626.3043, 118.6873
626.7864, 118.0286
627.2685, 117.9458
627.7506, 118.3837
628.2327, 119.1194
628.7148, 120.3563
629.1970, 121.5790
629.6791, 122.4023
630.1612, 123.0334
630.6433, 123.9668
631.1254, 125.2165
631.6075, 126.0477
632.0897, 125.6742
632.5718, 124.3966
633.0539, 124.3685
633.5360, 126.7791
634.0181, 127.3915
634.5002, 122.5526
634.9824, 117.9345
635.4645, 119.0957
635.9466, 125.0002
636.4287, 128.5183
636.9108, 125.6588
637.3929, 121.3779
637.8751, 119.0843
638.3572, 117.8517
638.8393, 115.4427
639.3214, 111.5204
639.8035, 108.4051
640.2856, 108.4415
640.7678, 111.3590
641.2499, 115.3092
641.7320, 122.5050
642.2141, 125.5786
642.6962, 117.9593
643.1783, 109.1713
643.6605, 107.5626
644.1426, 112.5090
644.6247, 116.2362
645.1068, 115.4685
645.5889, 113.4032
646.0710, 112.2679
646.5532, 111.5295
647.0353, 109.5485
647.5174, 106.1385
647.9995, 103.7195
648.4816, 105.1281
648.9637, 109.8285
649.4459, 112.9048
649.9280, 114.5734
650.4101, 113.9934
650.8922, 107.9805
651.3743, 101.9789
651.8564, 101.0937
652.3386, 105.0306
652.8207, 109.0916
653.3028, 112.7341
653.7849, 115.2757
654.2670, 115.6900
654.7491, 114.8694
655.2313, 114.1215
655.7134, 113.8551
656.1955, 114.2923
656.6776, 115.9973
657.1597, 118.5243
657.6418, 118.5396
658.1240, 114.9185
658.6061, 112.1732
659.0882, 109.9325
659.5703, 110.6132
660.0524, 118.4416
660.5345, 132.4904
661.0167, 142.4657
661.4988, 142.1054
661.9809, 141.7381
662.4630, 146.3889
662.9451, 154.6777
663.4272, 165.0361
663.9094, 176.8291
664.3915, 189.1829
664.8736, 201.0191
665.3557, 213.0502
665.8378, 227.7644
666.3199, 245.3688
666.8021, 264.3122
667.2842, 283.3263
667.7663, 304.7354
668.2484, 332.3333
668.7305, 365.2830
669.2126, 396.0108
669.6948, 422.4076
670.1769, 448.0813
670.6590, 469.6122
671.1411, 493.7259
671.6232, 528.0815
672.1053, 573.2818
672.5875, 627.8261
673.0696, 698.1243
673.5517, 765.8157
674.0338, 788.7073
674.5159, 766.8686
674.9980, 717.7222
675.4802, 634.7139
675.9623, 552.4034
676.4444, 500.0220
676.9265, 476.5185
677.4086, 467.1002
677.8907, 469.6987
678.3729, 487.6548
678.8550, 525.9337
679.3371, 576.3630
679.8192, 640.1644
680.3013, 710.8422
680.7834, 773.7161
681.2656, 827.1606
681.7477, 854.7704
682.2298, 830.8199
682.7119, 761.0558
683.1940, 659.8868
683.6761, 527.2982
684.1583, 400.0768
684.6404, 302.8354
685.1225, 234.0187
685.6046, 185.4129
686.0867, 168.2352
686.5688, 154.2078
687.0510, 142.9955
687.5331, 134.0620
688.0152, 127.5458
688.4973, 122.9613
688.9794, 119.2534
689.4615, 115.9759
689.9437, 113.8375
690.4258, 113.7625
690.9079, 115.0575
691.3900, 116.6496
691.8721, 118.4109
692.3542, 120.5470
692.8364, 123.2664
693.3185, 125.9937
693.8006, 127.6765
694.2827, 128.7624
694.7648, 126.9513
695.2469, 119.9704
695.7291, 113.1754
696.2112, 108.4876
696.6933, 105.6524
697.1754, 104.7728
697.6575, 106.2609
698.1396, 107.4679
698.6218, 107.5519
699.1039, 106.8029
699.5860, 104.2704
700.0681, 101.2791
700.5502, 101.4680
701.0323, 106.0282
701.5145, 110.8314
701.9966, 110.6723
702.4787, 105.9115
702.9608, 99.40501
703.4429, 89.97327
703.9250, 84.40201
704.4072, 86.25829
704.8893, 92.02198
705.3714, 97.90766
705.8535, 104.2348
706.3356, 107.2299
706.8177, 103.4563
707.2999, 100.2201
707.7820, 100.3074
708.2641, 102.2663
708.7462, 105.0235
709.2283, 107.9824
709.7104, 109.6956
710.1926, 108.1580
710.6747, 105.7311
711.1568, 106.5767
711.6389, 110.2060
712.1210, 114.7699
712.6031, 120.0980
713.0853, 122.8165
713.5674, 119.1327
714.0495, 110.1560
714.5316, 104.7925
715.0137, 104.9588
715.4958, 105.3710
715.9780, 105.0756
716.4601, 105.2539
716.9422, 106.7543
717.4243, 109.2970
717.9064, 112.1806
718.3885, 115.5583
718.8707, 118.4153
719.3528, 120.2915
719.8349, 121.1940
720.3170, 120.2489
720.7991, 118.1246
721.2813, 117.7450
721.7634, 120.8458
722.2455, 125.2416
722.7276, 126.5541
723.2097, 124.5931
723.6918, 124.6741
724.1740, 128.0240
724.6561, 130.6117
725.1382, 130.5210
725.6203, 128.3847
726.1024, 124.8493
726.5845, 119.0326
727.0667, 115.6322
727.5488, 116.5250
728.0309, 118.3013
728.5130, 120.3612
728.9951, 121.8333
729.4772, 121.0844
729.9594, 118.0669
730.4415, 115.6218
730.9236, 116.8660
731.4057, 119.7131
731.8878, 120.4662
732.3699, 119.4738
732.8521, 118.6191
733.3342, 118.4673
733.8163, 117.8749
734.2984, 115.4444
734.7805, 111.4917
735.2626, 109.1945
735.7448, 108.3507
736.2269, 109.6326
736.7090, 116.5364
737.1911, 122.4729
737.6732, 122.4900
738.1553, 118.0323
738.6375, 113.7956
739.1196, 109.7267
739.6017, 107.8177
740.0838, 111.8137
740.5659, 116.3624
741.0480, 115.1994
741.5302, 109.3213
742.0123, 103.2403
742.4944, 99.09302
742.9765, 96.97823
743.4586, 98.03834
743.9407, 101.5821
744.4229, 102.7563
744.9050, 101.0154
745.3871, 100.0572
745.8692, 102.0581
746.3513, 104.9308
746.8334, 104.9073
747.3156, 100.9650
747.7977, 98.85431
748.2798, 100.1294
748.7619, 101.2841
749.2440, 100.4377
749.7261, 99.72988
750.2083, 102.2351
750.6904, 107.7115
751.1725, 111.4306
751.6546, 109.1005
752.1367, 106.2967
752.6188, 108.4854
753.1010, 112.8913
753.5831, 113.9979
754.0652, 111.4478
754.5473, 110.0129
755.0294, 113.6461
755.5115, 119.4283
755.9937, 119.5234
756.4758, 113.6821
756.9579, 108.9165
757.4400, 105.8027
757.9221, 104.9639
758.4042, 107.9997
758.8864, 112.9576
759.3685, 114.3092
759.8506, 109.1162
760.3327, 106.5183
760.8148, 108.5917
761.2969, 111.0417
761.7791, 112.3383
762.2612, 112.6493
762.7433, 112.0450
763.2254, 110.5833
763.7075, 109.6173
764.1896, 111.0351
764.6718, 112.5007
765.1539, 110.8488
765.6360, 107.2702
766.1181, 104.6939
766.6002, 103.8716
767.0823, 103.8340
767.5645, 103.6427
768.0466, 103.5904
768.5287, 104.9685
769.0108, 107.9545
769.4929, 111.0586
769.9750, 114.7613
770.4572, 116.6189
770.9393, 113.7888
771.4214, 107.7215
771.9035, 104.4074
772.3856, 104.9760
772.8677, 106.2522
773.3499, 108.7482
773.8320, 111.2835
774.3141, 115.0361
774.7962, 117.7443
775.2783, 114.2325
775.7604, 102.8402
776.2426, 94.63137
776.7247, 100.1277
777.2068, 109.5540
777.6889, 112.0144
778.1710, 109.3654
778.6531, 107.1477
779.1353, 107.0202
779.6174, 107.9254
780.0995, 108.9650
780.5816, 110.0916
781.0637, 111.1806
781.5458, 112.2493
782.0280, 112.9672
782.5101, 113.2021
782.9922, 113.2273
783.4743, 113.1347
783.9564, 113.0300
784.4385, 113.4159
784.9207, 115.9825
785.4028, 116.3175
785.8849, 111.2677
786.3670, 107.3490
786.8491, 109.4959
787.3312, 114.1886
787.8134, 114.9911
788.2955, 110.1584
788.7776, 106.9321
789.2597, 111.6648
789.7418, 117.0985
790.2239, 115.7145
790.7061, 110.4812
791.1882, 107.8007
791.6703, 109.0796
792.1524, 110.9862
792.6345, 110.5680
793.1166, 108.8558
793.5988, 108.7232
794.0809, 109.9713
794.5630, 109.8799
795.0451, 107.8587
795.5272, 104.8577
796.0093, 101.0685
796.4915, 97.37091
796.9736, 96.73716
797.4557, 100.5342
797.9378, 104.2422
798.4199, 110.0915
798.9020, 112.9812
799.3842, 108.3726
799.8663, 100.9886
800.3484, 97.09446
800.8305, 97.44161
801.3126, 98.64868
801.7947, 100.3633
802.2769, 102.0953
802.7590, 103.2998
803.2411, 104.5197
803.7232, 107.0702
804.2053, 110.5959
804.6874, 112.6489
805.1696, 111.1139
805.6517, 108.4685
806.1338, 108.3610
806.6159, 109.6900
807.0980, 108.8110
807.5801, 105.6204
808.0623, 104.1616
808.5444, 106.9092
809.0265, 111.4696
809.5086, 113.2708
809.9907, 112.0382
810.4728, 111.1550
810.9550, 110.5706
811.4371, 110.5427
811.9192, 111.4713
812.4013, 112.6451
812.8834, 113.3125
813.3655, 113.4813
813.8477, 112.7932
814.3298, 109.9569
814.8119, 108.0592
815.2940, 107.6224
815.7761, 108.3348
816.2582, 110.9672
816.7404, 114.4735
817.2225, 116.1710
817.7046, 114.9056
818.1867, 112.6932
818.6688, 109.0871
819.1509, 106.4009
819.6331, 107.7448
820.1152, 111.9995
820.5973, 116.4841
821.0794, 120.1696
821.5615, 122.5325
822.0436, 122.4277
822.5258, 120.9145
823.0079, 121.0965
823.4900, 122.6833
823.9721, 122.6583
824.4542, 120.1389
824.9363, 119.1667
825.4185, 123.8325
825.9006, 131.6965
826.3827, 132.9011
826.8648, 124.5571
827.3469, 120.4943
827.8290, 123.0800
828.3111, 127.4143
828.7932, 130.1338
829.2753, 133.5064
829.7574, 142.2332
830.2396, 157.3282
830.7217, 171.5920
831.2038, 184.4229
831.6859, 196.4742
832.1680, 206.0347
832.6501, 216.3976
833.1323, 231.1224
833.6144, 249.9450
834.0965, 270.0502
834.5786, 288.7787
835.0607, 310.9642
835.5428, 344.5258
836.0250, 380.4597
836.5071, 409.7766
836.9892, 430.7698
837.4713, 444.6884
837.9534, 451.9754
838.4355, 445.4133
838.9177, 410.8448
839.3998, 356.8902
839.8819, 305.1440
840.3640, 256.7981
840.8461, 221.2419
841.3282, 201.6015
841.8104, 190.0882
842.2925, 180.1724
842.7746, 171.8740
843.2567, 165.8386
843.7388, 163.2897
844.2209, 156.6988
844.7031, 141.4316
845.1852, 130.1600
845.6673, 132.3434
846.1494, 141.7008
846.6315, 145.7502
847.1136, 143.0659
847.5958, 139.7048
848.0779, 133.6616
848.5600, 129.4618
849.0421, 129.9993
849.5242, 131.8033
850.0063, 131.2448
850.4885, 128.6188
850.9706, 126.9756
851.4527, 127.2881
851.9348, 128.7397
852.4169, 132.5061
852.8990, 135.9677
853.3812, 136.5578
853.8633, 134.6759
854.3454, 131.0263
854.8275, 125.9521
855.3096, 122.6043
855.7917, 125.2447
856.2739, 130.5748
856.7560, 133.8517
857.2381, 135.0254
857.7202, 133.4431
858.2023, 129.2951
858.6844, 125.7747
859.1666, 125.4550
859.6487, 127.2640
860.1308, 128.7836
860.6129, 130.0156
861.0950, 131.0490
861.5771, 131.9714
862.0593, 132.0937
862.5414, 130.9533
863.0235, 129.1017
863.5056, 127.1396
863.9877, 124.9046
864.4698, 124.9476
864.9520, 128.5209
865.4341, 131.9085
865.9162, 135.4051
866.3983, 137.3298
866.8804, 135.0423
867.3625, 129.9470
867.8447, 127.0500
868.3268, 128.4205
868.8089, 128.2189
869.2910, 122.2312
869.7731, 118.3450
870.2552, 123.3362
870.7374, 131.4381
871.2195, 134.5057
871.7016, 131.4649
872.1837, 127.9329
872.6658, 125.2811
873.1479, 124.0996
873.6301, 125.9919
874.1122, 128.7440
874.5943, 129.3216
875.0764, 128.1334
875.5585, 128.0210
876.0406, 130.4692
876.5228, 132.4397
877.0049, 129.0822
877.4870, 124.0948
877.9691, 125.2343
878.4512, 130.7426
878.9333, 132.9839
879.4155, 129.9932
879.8976, 126.4327
880.3797, 126.6219
880.8618, 128.8930
881.3439, 128.7664
881.8260, 126.4460
882.3082, 124.4381
882.7903, 122.9738
883.2724, 123.3229
883.7545, 126.6029
884.2366, 130.5616
884.7188, 131.2116
885.2009, 128.3666
885.6830, 126.5418
886.1651, 125.8853
886.6472, 125.9087
887.1293, 127.0177
887.6115, 127.9151
888.0936, 127.3834
888.5757, 125.7421
889.0578, 124.3801
889.5399, 123.0786
890.0220, 122.4703
890.5042, 124.3707
890.9863, 124.8081
891.4684, 119.1231
891.9505, 113.0742
892.4326, 115.2826
892.9147, 125.8246
893.3969, 131.9977
893.8790, 127.4513
894.3611, 122.9783
894.8432, 122.6299
895.3253, 123.3959
895.8074, 122.6094
896.2896, 120.9099
896.7717, 120.2753
897.2538, 121.3274
897.7359, 122.9417
898.2180, 125.9947
898.7001, 127.8675
899.1823, 124.4381
899.6644, 119.0858
900.1465, 117.1179
900.6286, 119.2172
901.1107, 123.3785
901.5928, 129.2769
902.0750, 133.8725
902.5571, 131.9075
903.0392, 126.8975
903.5213, 126.3791
904.0034, 129.5096
904.4855, 130.6783
904.9677, 127.9627
905.4498, 123.6600
905.9319, 119.2213
906.4140, 115.8699
906.8961, 118.2253
907.3782, 125.2874
907.8604, 129.0327
908.3425, 128.2390
908.8246, 128.8271
909.3067, 134.7657
909.7888, 140.9713
910.2709, 137.0675
910.7531, 123.1586
911.2352, 117.7581
911.7173, 122.3599
912.1994, 126.5722
912.6815, 127.7836
913.1636, 127.4542
913.6458, 126.3871
914.1279, 125.0803
914.6100, 125.5518
915.0921, 128.7152
915.5742, 131.0378
916.0563, 132.6022
916.5385, 132.9952
917.0206, 131.1035
917.5027, 128.8479
917.9848, 128.7817
918.4669, 130.8924
918.9490, 132.3036
919.4312, 131.2239
919.9133, 132.1096
920.3954, 138.3709
920.8775, 143.4688
921.3596, 142.2516
921.8417, 138.1898
922.3239, 137.4466
922.8060, 140.9837
923.2881, 143.9274
923.7702, 145.0313
924.2523, 145.7701
924.7344, 148.1290
925.2166, 149.1448
925.6987, 144.4006
926.1808, 136.1867
926.6629, 131.3233
927.1450, 132.2096
927.6271, 134.2364
928.1093, 135.4576
928.5914, 136.8938
929.0735, 139.6707
929.5556, 142.9187
930.0377, 146.0749
930.5198, 148.5577
931.0020, 148.3746
931.4841, 143.0562
931.9662, 138.4729
932.4483, 141.1942
932.9304, 145.8041
933.4125, 144.5306
933.8947, 139.9464
934.3768, 139.9688
934.8589, 146.1651
935.3410, 151.1043
935.8231, 147.7573
936.3052, 142.0769
936.7874, 143.0885
937.2695, 147.2408
937.7516, 146.1214
938.2337, 140.5146
938.7158, 138.0106
939.1979, 141.8236
939.6801, 147.4889
940.1622, 150.3145
940.6443, 151.0809
941.1264, 151.4264
941.6085, 151.3731
942.0906, 150.9865
942.5728, 150.2885
943.0549, 149.3302
943.5370, 148.1307
944.0191, 146.7893
944.5012, 145.1479
944.9833, 143.4376
945.4655, 143.6687
945.9476, 145.6965
946.4297, 145.6012
946.9118, 142.2045
947.3939, 140.6231
947.8760, 145.6580
948.3582, 153.4051
948.8403, 152.9099
949.3224, 143.8991
949.8045, 139.7495
950.2866, 141.4226
950.7687, 143.8573
951.2509, 145.2662
951.7330, 147.1627
952.2151, 151.5061
952.6972, 157.3204
953.1793, 159.6779
953.6614, 157.9091
954.1436, 156.1239
954.6257, 154.3308
955.1078, 153.3824
955.5899, 153.4397
956.0720, 155.1328
956.5541, 160.3069
957.0363, 168.4608
957.5184, 169.2387
958.0005, 158.2077
958.4826, 152.6018
958.9647, 156.9307
959.4468, 162.0404
959.9290, 163.1696
960.4111, 161.9848
960.8932, 161.0462
961.3753, 160.3107
961.8574, 160.2493
962.3395, 160.3118
962.8217, 162.1611
963.3038, 167.9416
963.7859, 173.2150
964.2680, 174.9749
964.7501, 174.3460
965.2322, 173.8802
965.7144, 174.1859
966.1965, 172.1249
966.6786, 163.8238
967.1607, 158.5053
967.6428, 158.9561
968.1249, 161.9211
968.6071, 167.0511
969.0892, 172.6211
969.5713, 173.5274
970.0534, 167.0711
970.5355, 163.6475
971.0176, 166.0266
971.4998, 168.9164
971.9819, 171.3825
972.4640, 173.1206
972.9461, 172.8469
973.4282, 171.5852
973.9103, 173.5845
974.3925, 182.9548
974.8746, 186.5436
975.3567, 175.7621
975.8388, 166.6514
976.3209, 167.2900
976.8030, 171.9338
977.2852, 174.6820
977.7673, 175.6136
978.2494, 177.5704
978.7315, 181.4353
979.2136, 185.6239
979.6957, 191.1172
980.1779, 195.3698
980.6600, 197.7250
981.1421, 197.6276
981.6242, 192.6539
982.1063, 183.9520
982.5884, 179.2212
983.0706, 181.8368
983.5527, 186.1330
984.0348, 193.7155
984.5169, 198.8877
984.9990, 195.4712
985.4811, 188.8461
985.9633, 186.8291
986.4454, 189.8674
986.9275, 192.2109
987.4096, 190.7138
987.8917, 190.2587
988.3738, 194.1679
988.8560, 198.2421
989.3381, 199.2776
989.8202, 198.5544
990.3023, 198.1302
990.7844, 198.3718
991.2665, 199.0092
991.7487, 201.2246
992.2308, 202.0385
992.7129, 198.5469
993.1950, 194.7246
993.6771, 192.2066
994.1592, 192.2708
994.6414, 198.0525
995.1235, 209.5169
995.6056, 218.4406
996.0877, 221.3400
996.5698, 221.1169
997.0519, 216.5774
997.5341, 211.8029
998.0162, 209.3793
998.4983, 209.6578
998.9804, 213.7426
999.4625, 221.5313
999.9446, 227.6320
1000.427, 228.3724
1000.909, 228.5712
1001.391, 231.5050
1001.873, 234.1261
1002.355, 233.2052
1002.837, 230.1045
1003.319, 227.2314
1003.802, 225.1905
1004.284, 225.0332
1004.766, 230.0850
1005.248, 233.4948
1005.730, 228.8408
1006.212, 223.6867
1006.694, 226.2558
1007.176, 233.0652
1007.659, 236.3975
1008.141, 234.6754
1008.623, 232.3199
1009.105, 230.8546
1009.587, 229.7029
1010.069, 227.6769
1010.551, 226.6466
1011.033, 229.8494
1011.515, 234.7590
1011.998, 235.0006
1012.480, 229.4852
1012.962, 228.6109
1013.444, 243.9028
1013.926, 255.3840
1014.408, 248.9525
1014.890, 239.3115
1015.372, 239.8300
1015.854, 246.3225
1016.337, 248.6984
1016.819, 245.0893
1017.301, 242.7882
1017.783, 246.1775
1018.265, 249.1158
1018.747, 248.5571
1019.229, 247.0327
1019.711, 244.9767
1020.194, 244.0936
1020.676, 248.5160
1021.158, 258.7429
1021.640, 264.9425
1022.122, 260.7659
1022.604, 256.5315
1023.086, 257.0237
1023.568, 257.6317
1024.051, 252.6624
1024.533, 246.5228
1025.015, 247.0655
1025.497, 255.2637
1025.979, 264.5996
1026.461, 275.0328
1026.943, 284.1797
1027.425, 290.8164
1027.907, 296.6599
1028.390, 301.5500
1028.872, 307.0400
1029.354, 316.6072
1029.836, 330.3245
1030.318, 340.0604
1030.800, 344.1876
1031.282, 344.4695
1031.764, 338.3956
1032.246, 331.6915
1032.729, 328.3548
1033.211, 325.8375
1033.693, 319.4343
1034.175, 309.2727
1034.657, 303.2242
1035.139, 302.8204
1035.621, 305.3648
1036.103, 312.0572
1036.586, 319.9172
1037.068, 329.5514
1037.550, 338.4327
1038.032, 340.4899
1038.514, 336.8960
1038.996, 344.7924
1039.478, 378.8361
1039.960, 399.9175
1040.443, 395.7337
1040.925, 394.6323
1041.407, 408.5726
1041.889, 428.6428
1042.371, 443.2016
1042.853, 454.9513
1043.335, 481.0277
1043.817, 523.5756
1044.299, 574.6475
1044.781, 621.3560
1045.264, 700.3613
1045.746, 819.7475
1046.228, 980.0422
1046.710, 1174.739
1047.192, 1411.424
1047.674, 1718.168
1048.156, 2083.347
1048.638, 2558.117
1049.121, 3142.941
1049.603, 3834.242
1050.085, 4637.920
1050.567, 5516.664
1051.049, 6421.315
1051.531, 7415.648
1052.013, 8683.521
1052.495, 10252.65
1052.978, 12005.17
1053.460, 14172.07
1053.942, 15067.90
1054.424, 14242.59
1054.906, 12313.73
1055.388, 9540.488
1055.870, 6489.383
1056.352, 4243.802
1056.834, 2779.557
1057.317, 1805.272
1057.799, 1322.246
1058.281, 1021.699
1058.763, 849.5734
1059.245, 740.3503
1059.727, 659.7605
1060.209, 601.2154
1060.691, 557.5541
1061.173, 526.7930
1061.656, 501.1125
1062.138, 481.0152
1062.620, 472.3094
1063.102, 473.9982
1063.584, 472.9011
1064.066, 463.2972
1064.548, 450.9457
1065.030, 441.1345
1065.513, 433.6035
1065.995, 428.1545
1066.477, 424.4839
1066.959, 421.8205
1067.441, 420.1251
1067.923, 420.3134
1068.405, 422.3425
1068.887, 423.2264
1069.370, 420.2472
1069.852, 416.0531
1070.334, 411.5974
1070.816, 409.5172
1071.298, 417.1848
1071.780, 429.3219
1072.262, 433.3812
1072.744, 428.0663
1073.226, 423.1003
1073.708, 423.9079
1074.191, 425.2748
1074.673, 420.6277
1075.155, 417.3583
1075.637, 425.7067
1076.119, 437.7380
1076.601, 440.3592
1077.083, 435.2078
1077.565, 435.0134
1078.047, 445.5162
1078.530, 453.1955
1079.012, 447.4004
1079.494, 443.0016
1079.976, 451.1319
1080.458, 461.6178
1080.940, 464.2075
1081.422, 461.3399
1081.904, 460.1659
1082.387, 461.7547
1082.869, 465.1131
1083.351, 472.1818
1083.833, 477.9706
1084.315, 481.9357
1084.797, 483.6134
1085.279, 479.7102
1085.761, 474.8887
1086.244, 477.3333
1086.726, 487.1552
1087.208, 494.4815
1087.690, 497.6639
1088.172, 501.7259
1088.654, 507.8077
1089.136, 513.2206
1089.618, 516.2251
1090.100, 519.1195
1090.583, 524.4695
1091.065, 531.7953
1091.547, 539.1057
1092.029, 547.0164
1092.511, 551.0997
1092.993, 550.6289
1093.475, 549.2755
1093.957, 547.5353
1094.439, 548.7194
1094.922, 556.0144
1095.404, 565.7568
1095.886, 570.0851
1096.368, 569.7145
1096.850, 572.3421
1097.332, 577.4783
1097.814, 578.7214
1098.296, 575.4750
1098.779, 576.1456
1099.261, 585.2170
1099.743, 595.8599
1100.225, 599.3731
1100.707, 599.4236
1101.189, 603.5140
1101.671, 610.0825
1102.153, 615.3918
1102.635, 619.5106
1103.118, 625.2748
1103.600, 633.0265
1104.082, 636.9460
1104.564, 630.5369
1105.046, 623.8994
1105.528, 628.7419
1106.010, 636.7406
1106.492, 639.1351
1106.974, 637.4811
1107.457, 633.3607
1107.939, 628.7327
1108.421, 629.6530
1108.903, 639.8308
1109.385, 650.2124
1109.867, 657.2618
1110.349, 662.9495
1110.831, 666.7414
1111.314, 671.0494
1111.796, 679.2850
1112.278, 689.5475
1112.760, 697.4911
1113.242, 702.9848
1113.724, 703.5561
1114.206, 693.1472
1114.688, 686.5985
1115.171, 687.7141
1115.653, 690.8131
1116.135, 693.4850
1116.617, 696.2938
1117.099, 700.1215
1117.581, 704.8301
1118.063, 709.4473
1118.545, 714.5987
1119.027, 716.8996
1119.510, 715.8700
1119.992, 712.2334
1120.474, 704.6393
1120.956, 703.4960
1121.438, 719.1977
1121.920, 741.7382
1122.402, 747.4521
1122.884, 738.9641
1123.366, 737.1562
1123.849, 741.1030
1124.331, 741.7485
1124.813, 738.3110
1125.295, 740.2066
1125.777, 752.0457
1126.259, 764.8151
1126.741, 769.5927
1127.223, 768.2410
1127.706, 758.9561
1128.188, 748.3447
1128.670, 750.1810
1129.152, 760.5397
1129.634, 766.3586
1130.116, 765.3101
1130.598, 766.5500
1131.080, 776.7341
1131.563, 785.6346
1132.045, 784.9924
1132.527, 782.8215
1133.009, 784.9678
1133.491, 788.9964
1133.973, 791.4092
1134.455, 792.8052
1134.937, 796.6743
1135.419, 804.8555
1135.901, 809.1240
1136.384, 804.4709
1136.866, 801.1154
1137.348, 801.6093
1137.830, 803.4482
1138.312, 804.4211
1138.794, 807.0969
1139.276, 817.4589
1139.758, 833.5950
1140.241, 833.6544
1140.723, 811.3737
1141.205, 802.8892
1141.687, 812.3470
1142.169, 823.2728
1142.651, 831.1958
1143.133, 833.3506
1143.615, 826.1997
1144.098, 817.3380
1144.580, 824.8242
1145.062, 843.3122
1145.544, 845.7041
1146.026, 836.5782
1146.508, 836.6005
1146.990, 847.0111
1147.472, 856.2715
1147.954, 859.6019
1148.437, 861.0281
1148.919, 863.3565
1149.401, 866.3509
1149.883, 869.8512
1150.365, 873.7858
1150.847, 877.1738
1151.329, 881.3799
1151.811, 891.4429
1152.293, 905.4026
1152.776, 910.7526
1153.258, 900.2002
1153.740, 892.5179
1154.222, 896.2968
1154.704, 901.1752
1155.186, 903.2408
1155.668, 904.3952
1156.150, 905.1785
1156.633, 906.6050
1157.115, 909.9249
1157.597, 915.0794
1158.079, 925.9603
1158.561, 948.8571
1159.043, 957.0644
1159.525, 942.6993
1160.007, 934.5916
1160.490, 944.4453
1160.972, 958.7803
1161.454, 966.0770
1161.936, 968.7703
1162.418, 971.5353
1162.900, 974.6968
1163.382, 980.8909
1163.864, 989.4142
1164.346, 995.9345
1164.828, 1000.289
1165.311, 1006.012
1165.793, 1014.639
1166.275, 1025.393
1166.757, 1040.144
1167.239, 1052.543
1167.721, 1051.278
1168.203, 1047.576
1168.685, 1056.572
1169.168, 1072.071
1169.650, 1082.780
1170.132, 1087.754
1170.614, 1091.173
1171.096, 1092.613
1171.578, 1098.920
1172.060, 1118.766
1172.542, 1134.538
1173.025, 1135.441
1173.507, 1135.415
1173.989, 1144.728
1174.471, 1158.006
1174.953, 1167.157
1175.435, 1172.655
1175.917, 1181.248
1176.399, 1194.081
1176.881, 1204.745
1177.364, 1213.330
1177.846, 1214.762
1178.328, 1206.377
1178.810, 1206.506
1179.292, 1230.044
1179.774, 1257.464
1180.256, 1249.947
1180.738, 1225.343
1181.220, 1237.440
1181.703, 1270.281
1182.185, 1280.095
1182.667, 1270.424
1183.149, 1270.743
1183.631, 1288.550
1184.113, 1307.049
1184.595, 1316.246
1185.077, 1324.195
1185.560, 1340.802
1186.042, 1352.571
1186.524, 1344.562
1187.006, 1331.291
1187.488, 1325.737
1187.970, 1328.807
1188.452, 1341.498
1188.934, 1366.304
1189.417, 1382.401
1189.899, 1384.673
1190.381, 1388.891
1190.863, 1398.652
1191.345, 1404.251
1191.827, 1399.955
1192.309, 1395.991
1192.791, 1402.522
1193.273, 1414.897
1193.755, 1422.404
1194.238, 1425.603
1194.720, 1427.703
1195.202, 1429.088
1195.684, 1431.365
1196.166, 1434.849
1196.648, 1440.013
1197.130, 1446.861
1197.612, 1453.074
1198.095, 1457.433
1198.577, 1459.273
1199.059, 1452.037
1199.541, 1447.933
1200.023, 1466.043
1200.505, 1489.289
1200.987, 1492.300
1201.469, 1479.122
1201.952, 1469.713
1202.434, 1466.772
1202.916, 1470.991
1203.398, 1495.804
1203.880, 1505.622
1204.362, 1488.524
1204.844, 1471.436
1205.326, 1464.751
1205.808, 1464.122
1206.291, 1464.889
1206.773, 1468.902
1207.255, 1486.591
1207.737, 1515.003
1208.219, 1509.344
1208.701, 1477.164
1209.183, 1476.571
1209.665, 1509.955
1210.147, 1530.192
1210.630, 1519.179
1211.112, 1505.233
1211.594, 1513.221
1212.076, 1521.281
1212.558, 1502.995
1213.040, 1480.810
1213.522, 1477.371
1214.004, 1482.676
1214.487, 1484.155
1214.969, 1481.099
1215.451, 1475.274
1215.933, 1465.763
1216.415, 1463.027
1216.897, 1475.667
1217.379, 1481.474
1217.861, 1477.612
1218.344, 1468.331
1218.826, 1452.729
1219.308, 1439.388
1219.790, 1436.983
1220.272, 1439.587
1220.754, 1433.415
1221.236, 1420.411
1221.718, 1411.927
1222.200, 1407.358
1222.682, 1406.068
1223.165, 1406.239
1223.647, 1400.783
1224.129, 1388.089
1224.611, 1374.932
1225.093, 1364.324
1225.575, 1358.034
1226.057, 1362.167
1226.539, 1365.443
1227.022, 1357.748
1227.504, 1347.071
1227.986, 1341.305
1228.468, 1339.064
1228.950, 1336.088
1229.432, 1332.155
1229.914, 1330.038
1230.396, 1331.044
1230.879, 1329.677
1231.361, 1324.747
1231.843, 1321.864
1232.325, 1322.877
1232.807, 1324.004
1233.289, 1322.824
1233.771, 1319.579
1234.253, 1311.708
1234.735, 1305.222
1235.218, 1318.825
1235.700, 1340.945
1236.182, 1346.988
1236.664, 1341.489
1237.146, 1337.830
1237.628, 1339.216
1238.110, 1345.572
1238.592, 1358.104
1239.074, 1368.275
1239.557, 1371.942
1240.039, 1373.957
1240.521, 1369.095
1241.003, 1371.837
1241.485, 1397.697
1241.967, 1425.342
1242.449, 1430.201
1242.931, 1419.329
1243.414, 1417.111
1243.896, 1423.823
1244.378, 1419.542
1244.860, 1405.568
1245.342, 1405.717
1245.824, 1421.534
1246.306, 1433.946
1246.788, 1436.061
1247.271, 1438.929
1247.753, 1452.753
1248.235, 1464.340
1248.717, 1454.950
1249.199, 1444.231
1249.681, 1449.782
1250.163, 1463.565
1250.645, 1483.438
1251.127, 1500.967
1251.609, 1498.006
1252.092, 1472.785
1252.574, 1453.315
1253.056, 1441.090
1253.538, 1432.261
1254.020, 1427.781
1254.502, 1422.623
1254.984, 1415.383
1255.466, 1408.746
1255.949, 1404.481
1256.431, 1400.201
1256.913, 1392.214
1257.395, 1383.587
1257.877, 1383.548
1258.359, 1384.923
1258.841, 1371.202
1259.323, 1350.385
1259.806, 1339.280
1260.288, 1337.866
1260.770, 1336.156
1261.252, 1331.497
1261.734, 1325.814
1262.216, 1314.437
1262.698, 1310.490
1263.180, 1326.766
1263.662, 1333.848
1264.145, 1316.590
1264.627, 1297.720
1265.109, 1295.836
1265.591, 1302.353
1266.073, 1301.947
1266.555, 1295.547
1267.037, 1284.853
1267.519, 1272.387
1268.001, 1270.549
1268.484, 1276.244
1268.966, 1274.970
1269.448, 1265.235
1269.930, 1258.427
1270.412, 1259.780
1270.894, 1260.600
1271.376, 1257.935
1271.858, 1251.901
##END=



