##NAMES=Cerussite
##RRUFFID=R060017
##IDEAL CHEMISTRY=Pb^2+^CO_3_
##LOCALITY=Gonessa, Sardinia, Italy
##OWNER=RRUFF
##SOURCE=American Museum of Natural History
##DESCRIPTION=White reticulated composite
##STATUS=The identification of this mineral has been confirmed by X-ray diffraction and chemical analysis
##URL=rruff.info/R060017
##MEASURED CHEMISTRY=Pb_1.00_CO_3_ C not measured but estimated by difference and stoichiometry
93.40625, 358.5723
93.88837, 344.2051
94.37048, 354.5805
94.85260, 384.6495
95.33472, 420.1572
95.81683, 458.7746
96.29895, 500.5172
96.78107, 545.0964
97.26318, 592.5668
97.74530, 644.5862
98.22742, 702.3871
98.70953, 766.1561
99.19165, 834.4050
99.67377, 908.0634
100.1559, 985.9843
100.6380, 1062.029
101.1201, 1137.150
101.6022, 1207.184
102.0844, 1264.841
102.5665, 1309.461
103.0486, 1345.405
103.5307, 1373.009
104.0128, 1391.432
104.4949, 1405.905
104.9771, 1414.521
105.4592, 1420.266
105.9413, 1430.203
106.4234, 1445.670
106.9055, 1463.423
107.3876, 1481.764
107.8698, 1499.410
108.3519, 1520.063
108.8340, 1543.537
109.3161, 1570.162
109.7982, 1600.331
110.2803, 1637.786
110.7624, 1676.640
111.2446, 1713.750
111.7267, 1746.045
112.2088, 1780.379
112.6909, 1818.966
113.1730, 1861.854
113.6551, 1902.651
114.1373, 1939.041
114.6194, 1973.488
115.1015, 2008.420
115.5836, 2049.866
116.0657, 2086.724
116.5478, 2113.997
117.0300, 2131.401
117.5121, 2145.708
117.9942, 2158.764
118.4763, 2170.286
118.9584, 2179.869
119.4405, 2184.836
119.9227, 2189.667
120.4048, 2196.796
120.8869, 2206.460
121.3690, 2218.647
121.8511, 2234.751
122.3332, 2253.449
122.8154, 2271.961
123.2975, 2286.130
123.7796, 2300.489
124.2617, 2319.712
124.7438, 2344.183
125.2259, 2373.876
125.7081, 2411.230
126.1902, 2453.572
126.6723, 2483.323
127.1544, 2497.933
127.6365, 2510.070
128.1186, 2526.643
128.6008, 2551.044
129.0829, 2577.746
129.5650, 2598.070
130.0471, 2612.381
130.5292, 2625.460
131.0113, 2643.132
131.4935, 2663.568
131.9756, 2678.829
132.4577, 2685.324
132.9398, 2685.726
133.4219, 2686.856
133.9040, 2688.719
134.3862, 2690.914
134.8683, 2693.495
135.3504, 2696.434
135.8325, 2697.793
136.3146, 2694.947
136.7967, 2688.887
137.2789, 2690.578
137.7610, 2701.283
138.2431, 2716.462
138.7252, 2730.196
139.2073, 2742.029
139.6894, 2754.806
140.1716, 2768.833
140.6537, 2783.703
141.1358, 2804.462
141.6179, 2833.305
142.1000, 2866.283
142.5821, 2895.381
143.0643, 2919.563
143.5464, 2942.764
144.0285, 2967.255
144.5106, 2994.596
144.9927, 3018.671
145.4748, 3037.952
145.9570, 3054.123
146.4391, 3071.285
146.9212, 3091.578
147.4033, 3110.481
147.8854, 3126.305
148.3675, 3140.147
148.8497, 3149.118
149.3318, 3154.271
149.8139, 3154.891
150.2960, 3146.753
150.7781, 3125.990
151.2602, 3099.337
151.7424, 3070.609
152.2245, 3042.101
152.7066, 3008.952
153.1887, 2970.001
153.6708, 2925.831
154.1529, 2879.788
154.6351, 2830.160
155.1172, 2779.388
155.5993, 2729.187
156.0814, 2679.210
156.5635, 2629.686
157.0456, 2578.145
157.5278, 2525.072
158.0099, 2479.631
158.4920, 2447.998
158.9741, 2422.456
159.4562, 2395.998
159.9383, 2363.296
160.4205, 2332.813
160.9026, 2307.005
161.3847, 2286.019
161.8668, 2269.457
162.3489, 2259.265
162.8310, 2252.797
163.3132, 2246.965
163.7953, 2238.527
164.2774, 2232.121
164.7595, 2230.401
165.2416, 2233.889
165.7237, 2239.496
166.2059, 2246.859
166.6880, 2255.171
167.1701, 2263.216
167.6522, 2269.381
168.1343, 2275.746
168.6164, 2284.052
169.0986, 2294.864
169.5807, 2305.980
170.0628, 2316.237
170.5449, 2325.784
171.0270, 2334.813
171.5091, 2344.075
171.9913, 2352.597
172.4734, 2359.314
172.9555, 2363.913
173.4376, 2367.478
173.9197, 2373.593
174.4018, 2379.992
174.8840, 2380.282
175.3661, 2366.258
175.8482, 2345.491
176.3303, 2328.325
176.8124, 2317.613
177.2945, 2307.501
177.7767, 2292.150
178.2588, 2271.942
178.7409, 2249.168
179.2230, 2224.159
179.7051, 2197.422
180.1872, 2170.518
180.6694, 2143.969
181.1515, 2116.347
181.6336, 2084.645
182.1157, 2049.505
182.5978, 2015.631
183.0799, 1986.208
183.5621, 1960.238
184.0442, 1935.774
184.5263, 1912.608
185.0084, 1890.163
185.4905, 1866.364
185.9726, 1841.404
186.4547, 1817.568
186.9369, 1796.811
187.4190, 1778.617
187.9011, 1761.850
188.3832, 1746.406
188.8653, 1731.903
189.3474, 1716.857
189.8296, 1701.073
190.3117, 1686.800
190.7938, 1676.388
191.2759, 1669.463
191.7580, 1663.010
192.2401, 1656.022
192.7223, 1649.188
193.2044, 1644.677
193.6865, 1642.608
194.1686, 1641.524
194.6507, 1639.935
195.1328, 1637.883
195.6150, 1637.038
196.0971, 1638.621
196.5792, 1641.491
197.0613, 1640.049
197.5434, 1633.268
198.0255, 1626.992
198.5077, 1628.140
198.9898, 1637.037
199.4719, 1644.518
199.9540, 1647.780
200.4361, 1647.804
200.9182, 1650.520
201.4004, 1656.705
201.8825, 1663.205
202.3646, 1666.636
202.8467, 1666.648
203.3288, 1666.298
203.8109, 1665.643
204.2931, 1665.037
204.7752, 1667.996
205.2573, 1675.434
205.7394, 1684.255
206.2215, 1690.973
206.7036, 1694.932
207.1858, 1700.010
207.6679, 1707.593
208.1500, 1717.442
208.6321, 1725.926
209.1142, 1732.913
209.5963, 1738.779
210.0785, 1743.769
210.5606, 1747.642
211.0427, 1751.368
211.5248, 1754.943
212.0069, 1758.403
212.4890, 1763.360
212.9712, 1770.579
213.4533, 1778.169
213.9354, 1784.299
214.4175, 1789.420
214.8996, 1791.799
215.3817, 1790.327
215.8639, 1785.003
216.3460, 1780.971
216.8281, 1778.986
217.3102, 1777.247
217.7923, 1773.285
218.2744, 1765.391
218.7566, 1759.605
219.2387, 1757.933
219.7208, 1760.448
220.2029, 1762.356
220.6850, 1764.104
221.1671, 1764.678
221.6493, 1762.323
222.1314, 1754.775
222.6135, 1749.532
223.0956, 1749.149
223.5777, 1753.894
224.0598, 1756.710
224.5420, 1757.746
225.0241, 1756.741
225.5062, 1753.040
225.9883, 1745.257
226.4704, 1737.793
226.9525, 1732.213
227.4347, 1728.611
227.9168, 1722.379
228.3989, 1711.844
228.8810, 1700.468
229.3631, 1692.287
229.8452, 1689.314
230.3274, 1685.421
230.8095, 1679.419
231.2916, 1671.278
231.7737, 1661.723
232.2558, 1649.208
232.7379, 1636.882
233.2201, 1628.310
233.7022, 1625.466
234.1843, 1622.544
234.6664, 1618.406
235.1485, 1613.072
235.6306, 1607.795
236.1128, 1602.195
236.5949, 1596.964
237.0770, 1592.871
237.5591, 1590.768
238.0412, 1588.123
238.5233, 1584.218
239.0055, 1579.040
239.4876, 1574.947
239.9697, 1572.963
240.4518, 1570.937
240.9339, 1566.782
241.4160, 1559.122
241.8982, 1552.089
242.3803, 1546.518
242.8624, 1542.347
243.3445, 1538.174
243.8266, 1533.857
244.3087, 1529.647
244.7909, 1525.939
245.2730, 1523.696
245.7551, 1519.963
246.2372, 1514.084
246.7193, 1506.166
247.2014, 1497.724
247.6836, 1488.579
248.1657, 1479.174
248.6478, 1469.841
249.1299, 1460.036
249.6120, 1451.424
250.0941, 1444.825
250.5762, 1439.851
251.0584, 1433.227
251.5405, 1424.421
252.0226, 1414.788
252.5047, 1405.208
252.9868, 1395.168
253.4689, 1386.320
253.9511, 1378.991
254.4332, 1373.022
254.9153, 1367.885
255.3974, 1364.646
255.8795, 1360.672
256.3617, 1353.783
256.8438, 1341.609
257.3259, 1332.859
257.8080, 1329.516
258.2901, 1330.010
258.7722, 1327.874
259.2544, 1321.686
259.7365, 1315.203
260.2186, 1310.436
260.7007, 1307.984
261.1828, 1305.438
261.6649, 1302.295
262.1471, 1299.065
262.6292, 1297.691
263.1113, 1299.617
263.5934, 1300.409
264.0755, 1296.881
264.5576, 1286.591
265.0398, 1281.072
265.5219, 1282.539
266.0040, 1287.631
266.4861, 1288.162
266.9682, 1282.352
267.4503, 1276.455
267.9325, 1273.691
268.4146, 1274.926
268.8967, 1275.088
269.3788, 1273.795
269.8609, 1271.847
270.3430, 1270.731
270.8252, 1270.564
271.3073, 1270.873
271.7894, 1271.804
272.2715, 1273.539
272.7536, 1273.739
273.2357, 1271.878
273.7179, 1269.211
274.2000, 1267.866
274.6821, 1268.285
275.1642, 1267.953
275.6463, 1265.360
276.1284, 1260.486
276.6106, 1258.121
277.0927, 1258.817
277.5748, 1260.817
278.0569, 1262.216
278.5390, 1263.062
279.0211, 1262.892
279.5032, 1260.924
279.9854, 1257.565
280.4675, 1256.365
280.9496, 1257.585
281.4317, 1260.127
281.9138, 1263.681
282.3959, 1268.371
282.8781, 1270.832
283.3602, 1269.587
283.8423, 1265.530
284.3244, 1262.421
284.8065, 1260.300
285.2886, 1258.737
285.7708, 1257.297
286.2529, 1255.995
286.7350, 1255.251
287.2171, 1255.135
287.6992, 1255.625
288.1813, 1257.160
288.6635, 1259.836
289.1456, 1261.779
289.6277, 1260.722
290.1098, 1257.212
290.5919, 1255.054
291.0740, 1255.023
291.5562, 1256.317
292.0383, 1257.709
292.5204, 1259.190
293.0025, 1260.328
293.4846, 1261.173
293.9667, 1261.526
294.4489, 1260.526
294.9310, 1257.905
295.4131, 1254.442
295.8952, 1250.490
296.3773, 1246.345
296.8594, 1243.705
297.3416, 1244.616
297.8237, 1247.616
298.3058, 1249.321
298.7879, 1249.412
299.2700, 1248.737
299.7521, 1247.555
300.2343, 1246.252
300.7164, 1246.127
301.1985, 1249.210
301.6806, 1253.382
302.1627, 1255.065
302.6448, 1254.040
303.1270, 1252.177
303.6091, 1250.470
304.0912, 1249.202
304.5733, 1248.894
305.0554, 1250.741
305.5375, 1253.125
306.0197, 1254.119
306.5018, 1253.782
306.9839, 1253.223
307.4660, 1252.978
307.9481, 1253.094
308.4302, 1253.724
308.9124, 1256.041
309.3945, 1257.779
309.8766, 1255.950
310.3587, 1251.339
310.8408, 1248.161
311.3229, 1250.439
311.8051, 1254.760
312.2872, 1257.576
312.7693, 1257.481
313.2514, 1256.742
313.7335, 1256.906
314.2156, 1257.528
314.6978, 1257.322
315.1799, 1253.344
315.6620, 1249.763
316.1441, 1250.206
316.6262, 1256.966
317.1083, 1263.031
317.5905, 1265.344
318.0726, 1264.955
318.5547, 1263.717
319.0368, 1260.360
319.5189, 1257.808
320.0010, 1257.982
320.4832, 1261.672
320.9653, 1264.782
321.4474, 1267.010
321.9295, 1267.783
322.4116, 1266.433
322.8937, 1257.925
323.3759, 1252.023
323.8580, 1253.384
324.3401, 1262.612
324.8222, 1268.640
325.3043, 1267.344
325.7864, 1263.624
326.2686, 1261.258
326.7507, 1261.524
327.2328, 1262.143
327.7149, 1263.000
328.1970, 1264.042
328.6791, 1264.896
329.1613, 1265.693
329.6434, 1266.172
330.1255, 1266.171
330.6076, 1265.065
331.0897, 1264.363
331.5718, 1264.075
332.0540, 1264.206
332.5361, 1264.865
333.0182, 1266.932
333.5003, 1268.367
333.9824, 1267.916
334.4645, 1264.030
334.9467, 1263.301
335.4288, 1267.606
335.9109, 1273.752
336.3930, 1275.992
336.8751, 1272.208
337.3572, 1269.600
337.8394, 1271.038
338.3215, 1276.802
338.8036, 1279.581
339.2857, 1278.462
339.7678, 1275.947
340.2499, 1274.678
340.7321, 1274.854
341.2142, 1275.244
341.6963, 1275.639
342.1784, 1276.025
342.6605, 1276.264
343.1426, 1276.282
343.6248, 1276.455
344.1069, 1277.213
344.5890, 1278.505
345.0711, 1279.638
345.5532, 1280.591
346.0353, 1281.184
346.5175, 1280.430
346.9996, 1278.355
347.4817, 1277.280
347.9638, 1279.529
348.4459, 1284.069
348.9280, 1287.026
349.4102, 1287.933
349.8923, 1288.021
350.3744, 1289.186
350.8565, 1290.984
351.3386, 1291.688
351.8207, 1289.211
352.3029, 1285.552
352.7850, 1284.381
353.2671, 1285.770
353.7492, 1287.209
354.2313, 1285.803
354.7134, 1283.049
355.1956, 1281.584
355.6777, 1282.896
356.1598, 1285.329
356.6419, 1288.125
357.1240, 1291.028
357.6061, 1292.628
358.0883, 1290.686
358.5704, 1287.681
359.0525, 1286.084
359.5346, 1286.724
360.0167, 1288.244
360.4988, 1290.323
360.9810, 1292.692
361.4631, 1294.744
361.9452, 1296.276
362.4273, 1297.349
362.9094, 1298.077
363.3915, 1298.555
363.8737, 1298.193
364.3558, 1295.011
364.8379, 1291.459
365.3200, 1290.428
365.8021, 1295.748
366.2842, 1300.542
366.7664, 1302.757
367.2485, 1302.341
367.7306, 1301.346
368.2127, 1298.674
368.6948, 1296.364
369.1769, 1295.755
369.6591, 1299.696
370.1412, 1301.914
370.6233, 1301.263
371.1054, 1298.564
371.5875, 1296.841
372.0696, 1295.961
372.5518, 1296.247
373.0339, 1298.201
373.5160, 1303.130
373.9981, 1305.852
374.4802, 1305.471
374.9623, 1303.621
375.4445, 1302.858
375.9266, 1303.349
376.4087, 1304.481
376.8908, 1306.391
377.3729, 1309.029
377.8550, 1310.274
378.3372, 1309.651
378.8193, 1308.870
379.3014, 1309.970
379.7835, 1313.086
380.2656, 1315.195
380.7477, 1315.322
381.2299, 1314.449
381.7120, 1315.439
382.1941, 1318.324
382.6762, 1320.825
383.1583, 1320.823
383.6404, 1319.028
384.1226, 1318.510
384.6047, 1319.878
385.0868, 1321.389
385.5689, 1320.587
386.0510, 1317.962
386.5331, 1315.359
387.0153, 1312.880
387.4974, 1311.253
387.9795, 1312.257
388.4616, 1315.901
388.9437, 1319.155
389.4258, 1318.661
389.9080, 1316.579
390.3901, 1316.129
390.8722, 1319.954
391.3543, 1323.771
391.8364, 1323.855
392.3185, 1321.123
392.8007, 1318.960
393.2828, 1319.031
393.7649, 1320.228
394.2470, 1322.060
394.7291, 1324.990
395.2112, 1326.944
395.6934, 1325.993
396.1755, 1323.834
396.6576, 1323.015
397.1397, 1326.159
397.6218, 1328.803
398.1039, 1329.058
398.5861, 1326.572
399.0682, 1325.044
399.5503, 1324.620
400.0324, 1325.433
400.5145, 1327.688
400.9966, 1335.183
401.4788, 1338.757
401.9609, 1335.890
402.4430, 1328.483
402.9251, 1323.839
403.4072, 1322.593
403.8893, 1323.177
404.3714, 1325.290
404.8535, 1329.587
405.3357, 1332.656
405.8178, 1334.161
406.2999, 1334.829
406.7820, 1335.673
407.2641, 1336.751
407.7462, 1337.662
408.2284, 1338.388
408.7105, 1338.849
409.1926, 1338.537
409.6747, 1337.373
410.1568, 1336.078
410.6389, 1334.735
411.1211, 1333.612
411.6032, 1334.546
412.0853, 1338.656
412.5674, 1343.342
413.0495, 1344.196
413.5316, 1341.912
414.0138, 1339.998
414.4959, 1340.300
414.9780, 1342.200
415.4601, 1345.628
415.9422, 1350.785
416.4243, 1354.358
416.9065, 1352.088
417.3886, 1346.840
417.8707, 1342.886
418.3528, 1341.310
418.8349, 1341.830
419.3170, 1345.413
419.7992, 1351.394
420.2813, 1356.470
420.7634, 1359.373
421.2455, 1360.851
421.7276, 1361.202
422.2097, 1359.868
422.6919, 1358.886
423.1740, 1359.665
423.6561, 1360.901
424.1382, 1360.611
424.6203, 1355.494
425.1024, 1351.846
425.5846, 1351.973
426.0667, 1356.162
426.5488, 1358.829
427.0309, 1359.549
427.5130, 1359.146
427.9951, 1358.042
428.4773, 1355.575
428.9594, 1353.870
429.4415, 1353.201
429.9236, 1353.333
430.4057, 1353.551
430.8878, 1353.613
431.3700, 1354.583
431.8521, 1357.575
432.3342, 1362.596
432.8163, 1365.334
433.2984, 1365.483
433.7805, 1364.463
434.2627, 1363.160
434.7448, 1361.747
435.2269, 1362.299
435.7090, 1366.579
436.1911, 1371.847
436.6732, 1371.671
437.1554, 1366.681
437.6375, 1362.026
438.1196, 1361.018
438.6017, 1362.587
439.0838, 1365.781
439.5659, 1371.011
440.0481, 1374.910
440.5302, 1372.482
441.0123, 1367.129
441.4944, 1364.568
441.9765, 1370.155
442.4586, 1376.753
442.9408, 1380.286
443.4229, 1380.877
443.9050, 1380.372
444.3871, 1378.197
444.8692, 1376.062
445.3513, 1375.168
445.8335, 1376.466
446.3156, 1377.650
446.7977, 1378.445
447.2798, 1378.844
447.7619, 1378.811
448.2440, 1377.648
448.7262, 1376.797
449.2083, 1376.541
449.6904, 1376.882
450.1725, 1377.775
450.6546, 1379.730
451.1367, 1381.592
451.6189, 1382.319
452.1010, 1381.393
452.5831, 1381.202
453.0652, 1382.229
453.5473, 1383.853
454.0294, 1384.632
454.5116, 1384.478
454.9937, 1384.226
455.4758, 1384.036
455.9579, 1384.010
456.4400, 1385.189
456.9221, 1387.766
457.4043, 1389.732
457.8864, 1388.045
458.3685, 1384.068
458.8506, 1381.903
459.3327, 1383.187
459.8148, 1385.674
460.2970, 1386.939
460.7791, 1387.221
461.2612, 1387.280
461.7433, 1387.271
462.2254, 1387.404
462.7076, 1387.731
463.1897, 1388.226
463.6718, 1389.465
464.1539, 1393.190
464.6360, 1397.197
465.1181, 1399.219
465.6003, 1397.025
466.0824, 1394.588
466.5645, 1392.174
467.0466, 1390.136
467.5287, 1389.790
468.0108, 1393.387
468.4930, 1396.777
468.9751, 1398.345
469.4572, 1397.453
469.9393, 1397.050
470.4214, 1397.418
470.9035, 1397.993
471.3857, 1398.048
471.8678, 1397.213
472.3499, 1396.983
472.8320, 1397.605
473.3141, 1399.017
473.7962, 1401.760
474.2784, 1406.294
474.7605, 1408.938
475.2426, 1405.265
475.7247, 1396.965
476.2068, 1395.293
476.6889, 1401.416
477.1711, 1409.206
477.6532, 1412.168
478.1353, 1411.361
478.6174, 1409.524
479.0995, 1406.572
479.5816, 1404.066
480.0638, 1404.004
480.5459, 1405.965
481.0280, 1408.430
481.5101, 1411.075
481.9922, 1413.515
482.4743, 1415.416
482.9565, 1416.725
483.4386, 1417.577
483.9207, 1418.222
484.4028, 1418.348
484.8849, 1417.620
485.3670, 1413.888
485.8492, 1411.653
486.3313, 1413.164
486.8134, 1417.389
487.2955, 1418.865
487.7776, 1414.789
488.2597, 1411.363
488.7419, 1411.229
489.2240, 1415.114
489.7061, 1419.177
490.1882, 1424.348
490.6703, 1428.344
491.1524, 1427.605
491.6346, 1421.193
492.1167, 1417.337
492.5988, 1418.244
493.0809, 1421.945
493.5630, 1423.713
494.0451, 1423.573
494.5273, 1422.431
495.0094, 1419.127
495.4915, 1415.450
495.9736, 1416.459
496.4557, 1422.612
496.9378, 1428.797
497.4200, 1429.914
497.9021, 1428.243
498.3842, 1427.304
498.8663, 1428.883
499.3484, 1430.444
499.8305, 1430.344
500.3127, 1428.995
500.7948, 1427.432
501.2769, 1425.250
501.7590, 1423.617
502.2411, 1423.286
502.7232, 1424.510
503.2054, 1425.532
503.6875, 1425.537
504.1696, 1425.619
504.6517, 1426.670
505.1338, 1430.092
505.6159, 1431.892
506.0981, 1431.081
506.5802, 1428.819
507.0623, 1427.969
507.5444, 1429.081
508.0265, 1429.748
508.5086, 1428.880
508.9908, 1426.707
509.4729, 1425.012
509.9550, 1423.763
510.4371, 1423.268
510.9192, 1423.691
511.4013, 1425.103
511.8835, 1428.492
512.3655, 1435.036
512.8477, 1440.363
513.3298, 1437.407
513.8119, 1429.204
514.2940, 1422.948
514.7761, 1423.930
515.2582, 1426.584
515.7404, 1425.823
516.2225, 1422.294
516.7046, 1421.095
517.1867, 1427.137
517.6688, 1434.427
518.1509, 1439.038
518.6331, 1439.512
519.1152, 1439.487
519.5973, 1439.275
520.0794, 1438.905
520.5615, 1438.375
521.0436, 1436.951
521.5258, 1436.465
522.0079, 1437.527
522.4900, 1439.752
522.9721, 1441.395
523.4542, 1442.430
523.9363, 1442.854
524.4185, 1442.546
524.9006, 1441.516
525.3827, 1440.231
525.8648, 1438.589
526.3469, 1437.274
526.8290, 1437.210
527.3112, 1438.174
527.7933, 1439.292
528.2754, 1440.513
528.7575, 1441.594
529.2396, 1442.752
529.7217, 1443.625
530.2039, 1443.135
530.6860, 1438.295
531.1681, 1433.709
531.6502, 1433.039
532.1323, 1436.377
532.6144, 1440.039
533.0966, 1443.228
533.5787, 1445.783
534.0608, 1447.599
534.5429, 1448.258
535.0250, 1448.739
535.5071, 1448.763
535.9893, 1448.765
536.4714, 1449.503
536.9535, 1451.794
537.4356, 1453.149
537.9177, 1452.377
538.3998, 1450.129
538.8820, 1451.161
539.3641, 1456.373
539.8462, 1460.703
540.3283, 1459.948
540.8104, 1455.010
541.2925, 1452.509
541.7747, 1452.972
542.2568, 1454.246
542.7389, 1453.293
543.2210, 1451.393
543.7031, 1451.911
544.1852, 1457.456
544.6674, 1463.035
545.1495, 1463.744
545.6316, 1460.854
546.1137, 1457.524
546.5958, 1453.789
547.0779, 1451.186
547.5601, 1450.940
548.0422, 1453.159
548.5243, 1455.324
549.0064, 1456.325
549.4885, 1457.515
549.9706, 1459.924
550.4528, 1465.805
550.9349, 1468.468
551.4170, 1466.544
551.8991, 1462.495
552.3812, 1459.537
552.8633, 1457.382
553.3455, 1457.798
553.8276, 1462.532
554.3097, 1469.402
554.7918, 1470.280
555.2739, 1465.170
555.7560, 1460.581
556.2382, 1461.063
556.7203, 1464.808
557.2024, 1468.381
557.6845, 1471.671
558.1666, 1473.666
558.6487, 1472.071
559.1309, 1469.210
559.6130, 1468.264
560.0951, 1471.132
560.5772, 1473.817
561.0593, 1473.859
561.5414, 1472.503
562.0236, 1471.947
562.5057, 1473.595
562.9878, 1475.168
563.4699, 1475.997
563.9520, 1476.130
564.4341, 1476.197
564.9163, 1475.678
565.3984, 1475.811
565.8805, 1477.665
566.3626, 1481.882
566.8447, 1483.616
567.3268, 1482.407
567.8090, 1480.069
568.2911, 1478.427
568.7732, 1477.441
569.2553, 1476.736
569.7374, 1475.977
570.2195, 1476.000
570.7017, 1478.859
571.1838, 1483.652
571.6659, 1487.456
572.1480, 1488.033
572.6301, 1487.656
573.1122, 1488.816
573.5944, 1491.200
574.0765, 1491.792
574.5586, 1487.048
575.0407, 1481.746
575.5228, 1478.800
576.0049, 1479.288
576.4871, 1480.172
576.9692, 1481.736
577.4513, 1483.247
577.9334, 1483.837
578.4155, 1482.456
578.8976, 1482.910
579.3798, 1486.710
579.8619, 1491.779
580.3440, 1492.031
580.8261, 1486.964
581.3082, 1483.662
581.7903, 1486.224
582.2725, 1492.447
582.7546, 1495.957
583.2367, 1496.893
583.7188, 1496.869
584.2009, 1495.889
584.6830, 1495.125
585.1652, 1496.678
585.6473, 1501.259
586.1294, 1505.058
586.6115, 1504.640
587.0936, 1502.815
587.5757, 1502.545
588.0579, 1507.570
588.5400, 1510.647
589.0221, 1509.088
589.5042, 1504.758
589.9863, 1502.036
590.4684, 1501.643
590.9506, 1501.691
591.4327, 1501.544
591.9148, 1501.358
592.3969, 1503.066
592.8790, 1507.351
593.3611, 1510.663
593.8433, 1509.760
594.3254, 1505.616
594.8075, 1503.810
595.2896, 1504.784
595.7717, 1506.007
596.2538, 1504.679
596.7360, 1501.930
597.2181, 1499.735
597.7002, 1498.660
598.1823, 1498.236
598.6644, 1497.795
599.1465, 1497.863
599.6287, 1499.344
600.1108, 1505.035
600.5929, 1509.559
601.0750, 1510.729
601.5571, 1508.871
602.0392, 1507.417
602.5214, 1505.893
603.0035, 1505.446
603.4856, 1506.927
603.9677, 1510.565
604.4498, 1512.672
604.9319, 1512.893
605.4141, 1512.677
605.8962, 1513.367
606.3783, 1514.824
606.8604, 1516.318
607.3425, 1517.939
607.8246, 1518.840
608.3068, 1517.159
608.7889, 1514.032
609.2710, 1511.896
609.7531, 1511.298
610.2352, 1512.363
610.7173, 1517.365
611.1995, 1524.278
611.6816, 1527.645
612.1637, 1521.350
612.6458, 1515.454
613.1279, 1514.606
613.6100, 1519.193
614.0922, 1521.107
614.5743, 1518.402
615.0564, 1515.642
615.5385, 1515.209
616.0206, 1517.292
616.5027, 1521.252
616.9849, 1527.880
617.4670, 1534.022
617.9491, 1535.419
618.4312, 1532.848
618.9133, 1530.158
619.3954, 1528.074
619.8776, 1526.182
620.3597, 1522.849
620.8418, 1519.329
621.3239, 1518.447
621.8060, 1523.751
622.2881, 1529.802
622.7703, 1534.235
623.2524, 1536.961
623.7345, 1537.803
624.2166, 1533.514
624.6987, 1530.333
625.1808, 1531.482
625.6630, 1537.399
626.1451, 1540.516
626.6272, 1539.213
627.1093, 1537.743
627.5914, 1539.907
628.0735, 1546.185
628.5557, 1548.392
629.0378, 1545.411
629.5199, 1541.116
630.0020, 1540.138
630.4841, 1541.627
630.9662, 1542.997
631.4484, 1543.791
631.9305, 1543.906
632.4126, 1542.480
632.8947, 1540.400
633.3768, 1539.402
633.8589, 1542.335
634.3411, 1544.432
634.8232, 1542.414
635.3053, 1537.272
635.7874, 1535.028
636.2695, 1538.541
636.7516, 1542.570
637.2338, 1545.421
637.7159, 1547.044
638.1980, 1548.522
638.6801, 1549.948
639.1622, 1550.838
639.6443, 1550.444
640.1265, 1548.936
640.6086, 1547.967
641.0907, 1547.638
641.5728, 1547.880
642.0549, 1549.216
642.5370, 1550.958
643.0192, 1551.787
643.5013, 1550.947
643.9834, 1549.964
644.4655, 1550.248
644.9476, 1550.997
645.4297, 1550.841
645.9119, 1547.415
646.3940, 1545.293
646.8761, 1546.838
647.3582, 1550.835
647.8403, 1552.514
648.3224, 1550.978
648.8046, 1548.897
649.2867, 1546.964
649.7688, 1545.247
650.2509, 1544.690
650.7330, 1545.348
651.2151, 1546.479
651.6973, 1547.773
652.1794, 1549.095
652.6615, 1549.815
653.1436, 1549.834
653.6257, 1550.409
654.1078, 1553.479
654.5900, 1557.176
655.0721, 1559.329
655.5542, 1558.438
656.0363, 1558.069
656.5184, 1559.861
657.0005, 1562.575
657.4827, 1564.548
657.9648, 1564.538
658.4469, 1565.804
658.9290, 1569.168
659.4111, 1573.771
659.8932, 1577.570
660.3754, 1580.489
660.8575, 1583.097
661.3396, 1585.407
661.8217, 1587.645
662.3038, 1590.396
662.7859, 1593.611
663.2681, 1597.033
663.7502, 1600.367
664.2323, 1603.895
664.7144, 1607.648
665.1965, 1611.674
665.6786, 1616.958
666.1608, 1624.423
666.6429, 1632.926
667.1250, 1641.885
667.6071, 1651.599
668.0892, 1660.907
668.5714, 1669.518
669.0535, 1678.206
669.5356, 1688.832
670.0177, 1702.732
670.4998, 1708.671
670.9819, 1703.633
671.4641, 1695.547
671.9462, 1695.919
672.4283, 1703.161
672.9104, 1711.398
673.3925, 1719.867
673.8746, 1726.986
674.3568, 1731.864
674.8389, 1734.086
675.3210, 1732.690
675.8031, 1722.139
676.2852, 1713.061
676.7673, 1708.731
677.2495, 1709.259
677.7316, 1714.417
678.2137, 1726.039
678.6958, 1739.450
679.1779, 1752.881
679.6600, 1766.581
680.1422, 1782.031
680.6243, 1799.347
681.1064, 1818.833
681.5885, 1849.200
682.0706, 1882.238
682.5527, 1890.036
683.0349, 1870.963
683.5170, 1836.486
683.9991, 1782.355
684.4812, 1724.202
684.9633, 1678.516
685.4454, 1650.098
685.9276, 1630.328
686.4097, 1618.550
686.8918, 1612.660
687.3739, 1610.655
687.8560, 1615.088
688.3381, 1618.139
688.8203, 1618.230
689.3024, 1617.836
689.7845, 1621.626
690.2666, 1629.957
690.7487, 1637.691
691.2308, 1643.495
691.7130, 1647.928
692.1951, 1650.934
692.6772, 1653.277
693.1593, 1657.803
693.6414, 1667.917
694.1235, 1679.073
694.6057, 1691.762
695.0878, 1703.456
695.5699, 1704.372
696.0520, 1682.168
696.5341, 1657.618
697.0162, 1637.662
697.4984, 1622.437
697.9805, 1610.510
698.4626, 1602.471
698.9447, 1596.576
699.4268, 1591.963
699.9089, 1588.638
700.3911, 1587.456
700.8732, 1588.549
701.3553, 1590.162
701.8374, 1590.923
702.3195, 1591.099
702.8016, 1590.913
703.2838, 1590.252
703.7659, 1590.236
704.2480, 1592.303
704.7301, 1594.943
705.2122, 1596.703
705.6943, 1596.738
706.1765, 1596.817
706.6586, 1597.339
707.1407, 1597.798
707.6228, 1597.470
708.1049, 1596.059
708.5870, 1595.001
709.0692, 1594.370
709.5513, 1594.423
710.0334, 1596.056
710.5155, 1598.960
710.9976, 1601.571
711.4797, 1603.856
711.9618, 1604.909
712.4439, 1602.298
712.9260, 1597.694
713.4081, 1595.077
713.8903, 1598.550
714.3724, 1601.770
714.8545, 1601.766
715.3366, 1599.116
715.8187, 1597.935
716.3008, 1598.612
716.7830, 1600.189
717.2651, 1602.696
717.7472, 1605.946
718.2293, 1608.329
718.7114, 1609.847
719.1935, 1610.597
719.6757, 1610.025
720.1578, 1608.930
720.6399, 1608.401
721.1220, 1608.541
721.6041, 1610.344
722.0862, 1617.019
722.5684, 1623.720
723.0505, 1626.618
723.5326, 1624.508
724.0147, 1622.044
724.4968, 1618.464
724.9789, 1615.970
725.4611, 1616.562
725.9432, 1621.917
726.4253, 1623.126
726.9074, 1618.925
727.3895, 1614.266
727.8716, 1615.604
728.3538, 1621.300
728.8359, 1624.336
729.3180, 1623.160
729.8001, 1621.309
730.2822, 1622.038
730.7643, 1624.087
731.2465, 1625.809
731.7286, 1627.103
732.2107, 1627.441
732.6928, 1625.605
733.1749, 1623.054
733.6570, 1622.035
734.1392, 1623.112
734.6213, 1624.528
735.1034, 1626.504
735.5855, 1628.127
736.0676, 1626.758
736.5497, 1622.658
737.0319, 1620.119
737.5140, 1621.252
737.9961, 1623.745
738.4782, 1624.926
738.9603, 1625.050
739.4424, 1624.755
739.9246, 1624.980
740.4067, 1624.250
740.8888, 1619.807
741.3709, 1613.299
741.8530, 1612.537
742.3351, 1623.664
742.8173, 1631.326
743.2994, 1629.721
743.7815, 1621.127
744.2636, 1618.699
744.7457, 1622.903
745.2278, 1626.731
745.7100, 1624.457
746.1921, 1619.735
746.6742, 1620.373
747.1563, 1625.643
747.6384, 1630.400
748.1205, 1632.151
748.6027, 1631.955
749.0848, 1629.972
749.5669, 1626.186
750.0490, 1622.812
750.5311, 1619.748
751.0132, 1617.521
751.4954, 1616.057
751.9775, 1615.225
752.4596, 1617.904
752.9417, 1624.917
753.4238, 1631.531
753.9059, 1633.822
754.3881, 1632.990
754.8702, 1632.100
755.3523, 1631.400
755.8344, 1630.212
756.3165, 1626.220
756.7986, 1622.676
757.2808, 1623.118
757.7629, 1629.635
758.2450, 1634.224
758.7271, 1634.148
759.2092, 1632.944
759.6913, 1633.002
760.1735, 1634.690
760.6556, 1636.253
761.1377, 1637.849
761.6198, 1638.600
762.1019, 1636.116
762.5840, 1631.877
763.0662, 1631.353
763.5483, 1636.043
764.0304, 1641.100
764.5125, 1642.245
764.9946, 1641.509
765.4767, 1641.155
765.9589, 1641.572
766.4410, 1642.649
766.9231, 1645.993
767.4052, 1648.991
767.8873, 1648.375
768.3694, 1642.713
768.8516, 1639.083
769.3337, 1638.305
769.8158, 1639.652
770.2979, 1643.422
770.7800, 1648.616
771.2621, 1651.322
771.7443, 1649.687
772.2264, 1647.341
772.7085, 1647.557
773.1906, 1649.011
773.6727, 1649.725
774.1548, 1647.430
774.6370, 1646.519
775.1191, 1648.485
775.6012, 1651.917
776.0833, 1654.738
776.5654, 1657.003
777.0475, 1658.556
777.5297, 1659.351
778.0118, 1659.500
778.4939, 1658.969
778.9760, 1657.907
779.4581, 1656.837
779.9402, 1655.574
780.4224, 1654.879
780.9045, 1655.616
781.3866, 1657.282
781.8687, 1658.958
782.3508, 1659.885
782.8329, 1661.461
783.3151, 1665.540
783.7972, 1669.796
784.2793, 1667.701
784.7614, 1657.398
785.2435, 1651.301
785.7256, 1653.961
786.2078, 1661.230
786.6899, 1665.867
787.1720, 1668.086
787.6541, 1668.372
788.1362, 1666.062
788.6183, 1662.895
789.1005, 1659.654
789.5826, 1656.493
790.0647, 1653.854
790.5468, 1650.395
791.0289, 1649.418
791.5110, 1652.683
791.9932, 1658.530
792.4753, 1661.352
792.9574, 1660.757
793.4395, 1660.984
793.9216, 1664.761
794.4037, 1668.878
794.8859, 1665.210
795.3680, 1656.317
795.8501, 1650.547
796.3322, 1653.947
796.8143, 1659.568
797.2964, 1664.712
797.7786, 1669.085
798.2607, 1671.693
798.7428, 1672.260
799.2249, 1671.425
799.7070, 1669.071
800.1891, 1665.557
800.6713, 1661.135
801.1534, 1655.802
801.6355, 1653.283
802.1176, 1656.193
802.5997, 1661.818
803.0818, 1667.460
803.5640, 1672.599
804.0461, 1675.626
804.5282, 1674.000
805.0103, 1671.959
805.4924, 1670.864
805.9745, 1670.815
806.4567, 1671.831
806.9388, 1674.337
807.4209, 1676.931
807.9030, 1679.336
808.3851, 1681.459
808.8672, 1683.328
809.3494, 1684.827
809.8315, 1684.966
810.3136, 1682.517
810.7957, 1679.162
811.2778, 1675.975
811.7599, 1673.243
812.2421, 1671.785
812.7242, 1672.789
813.2063, 1674.136
813.6884, 1675.170
814.1705, 1676.071
814.6526, 1677.566
815.1348, 1680.002
815.6169, 1681.639
816.0990, 1681.614
816.5811, 1680.857
817.0632, 1681.738
817.5453, 1683.820
818.0275, 1685.293
818.5096, 1684.729
818.9917, 1683.798
819.4738, 1683.203
819.9559, 1683.086
820.4380, 1683.816
820.9202, 1685.220
821.4023, 1687.941
821.8844, 1692.557
822.3665, 1698.268
822.8486, 1702.890
823.3307, 1706.355
823.8129, 1709.676
824.2950, 1712.911
824.7771, 1716.580
825.2592, 1722.339
825.7413, 1729.118
826.2234, 1734.628
826.7056, 1736.731
827.1877, 1738.638
827.6698, 1741.104
828.1519, 1744.323
828.6340, 1748.631
829.1161, 1753.965
829.5983, 1760.706
830.0804, 1769.646
830.5625, 1779.010
831.0446, 1784.033
831.5267, 1785.919
832.0089, 1791.300
832.4910, 1803.141
832.9731, 1817.707
833.4552, 1832.417
833.9373, 1847.401
834.4194, 1862.795
834.9016, 1877.738
835.3837, 1894.667
835.8658, 1914.930
836.3479, 1936.495
836.8300, 1957.712
837.3121, 1979.272
837.7943, 1992.508
838.2764, 1996.763
838.7585, 1989.971
839.2406, 1964.826
839.7227, 1927.347
840.2048, 1889.077
840.6870, 1850.309
841.1691, 1816.748
841.6512, 1790.789
842.1333, 1771.280
842.6154, 1757.248
843.0975, 1751.297
843.5797, 1744.127
844.0618, 1734.421
844.5439, 1725.184
845.0260, 1720.885
845.5081, 1720.547
845.9902, 1719.707
846.4724, 1717.816
846.9545, 1714.658
847.4366, 1707.770
847.9187, 1700.695
848.4008, 1697.676
848.8829, 1701.037
849.3651, 1704.152
849.8472, 1706.897
850.3293, 1708.453
850.8114, 1707.745
851.2935, 1704.425
851.7756, 1702.592
852.2578, 1702.497
852.7399, 1702.984
853.2220, 1703.039
853.7041, 1702.961
854.1862, 1703.093
854.6683, 1703.448
855.1505, 1704.443
855.6326, 1706.582
856.1147, 1709.152
856.5968, 1711.879
857.0789, 1714.857
857.5610, 1717.014
858.0432, 1718.548
858.5253, 1718.502
859.0074, 1715.168
859.4895, 1709.723
859.9716, 1705.718
860.4537, 1703.277
860.9359, 1703.601
861.4180, 1711.436
861.9001, 1718.994
862.3822, 1719.838
862.8643, 1714.100
863.3464, 1710.508
863.8286, 1710.998
864.3107, 1711.706
864.7928, 1711.206
865.2749, 1709.909
865.7570, 1709.814
866.2391, 1710.861
866.7213, 1711.879
867.2034, 1711.705
867.6855, 1711.651
868.1676, 1713.742
868.6497, 1717.143
869.1318, 1719.428
869.6140, 1718.864
870.0961, 1718.121
870.5782, 1717.501
871.0603, 1717.253
871.5424, 1718.207
872.0245, 1720.487
872.5067, 1722.822
872.9888, 1725.262
873.4709, 1726.894
873.9530, 1725.839
874.4351, 1722.991
874.9172, 1720.212
875.3994, 1716.973
875.8815, 1715.629
876.3636, 1719.338
876.8457, 1724.479
877.3278, 1725.979
877.8099, 1722.670
878.2921, 1719.190
878.7742, 1715.669
879.2563, 1712.781
879.7384, 1710.946
880.2205, 1710.411
880.7026, 1712.680
881.1848, 1718.751
881.6669, 1723.313
882.1490, 1720.991
882.6311, 1716.662
883.1132, 1714.744
883.5953, 1716.565
884.0775, 1718.095
884.5596, 1718.847
885.0417, 1720.166
885.5238, 1723.998
886.0059, 1729.576
886.4880, 1731.911
886.9702, 1730.882
887.4523, 1728.380
887.9344, 1723.548
888.4165, 1719.503
888.8986, 1720.036
889.3807, 1725.265
889.8629, 1728.068
890.3450, 1726.055
890.8271, 1723.603
891.3092, 1721.963
891.7913, 1721.240
892.2734, 1722.652
892.7556, 1726.063
893.2377, 1728.669
893.7198, 1728.158
894.2019, 1726.771
894.6840, 1726.736
895.1661, 1727.729
895.6483, 1728.875
896.1304, 1729.569
896.6125, 1730.867
897.0946, 1733.764
897.5767, 1736.915
898.0588, 1736.916
898.5410, 1733.608
899.0231, 1731.252
899.5052, 1730.847
899.9873, 1731.707
900.4694, 1733.570
900.9515, 1735.936
901.4337, 1738.051
901.9158, 1740.113
902.3979, 1741.112
902.8800, 1739.718
903.3621, 1737.861
903.8442, 1737.265
904.3264, 1738.230
904.8085, 1738.745
905.2906, 1738.715
905.7727, 1738.346
906.2548, 1737.300
906.7369, 1736.263
907.2191, 1736.702
907.7012, 1738.803
908.1833, 1740.429
908.6654, 1740.318
909.1475, 1739.709
909.6296, 1739.214
910.1118, 1738.845
910.5939, 1738.520
911.0760, 1738.072
911.5581, 1738.644
912.0402, 1741.763
912.5223, 1745.873
913.0045, 1747.911
913.4866, 1748.162
913.9687, 1747.539
914.4508, 1744.561
914.9329, 1742.846
915.4150, 1745.528
915.8972, 1750.395
916.3793, 1751.715
916.8614, 1748.586
917.3435, 1745.156
917.8256, 1741.655
918.3077, 1739.599
918.7899, 1743.132
919.2720, 1749.884
919.7541, 1754.153
920.2362, 1753.527
920.7183, 1752.012
921.2004, 1750.647
921.6826, 1749.846
922.1647, 1750.104
922.6468, 1752.081
923.1289, 1753.036
923.6110, 1752.754
924.0931, 1752.150
924.5753, 1752.040
925.0574, 1752.289
925.5395, 1752.747
926.0216, 1753.396
926.5037, 1753.696
926.9858, 1753.786
927.4680, 1753.069
927.9501, 1750.055
928.4322, 1745.136
928.9143, 1744.236
929.3964, 1748.270
929.8785, 1752.970
930.3607, 1756.840
930.8428, 1759.887
931.3249, 1761.869
931.8070, 1762.969
932.2891, 1763.813
932.7712, 1764.649
933.2534, 1765.313
933.7355, 1765.724
934.2176, 1765.909
934.6997, 1765.903
935.1818, 1765.578
935.6639, 1765.913
936.1461, 1767.639
936.6282, 1768.403
937.1103, 1762.737
937.5924, 1754.220
938.0745, 1751.297
938.5566, 1756.556
939.0388, 1762.116
939.5209, 1763.991
940.0030, 1764.661
940.4851, 1765.869
940.9672, 1767.694
941.4493, 1769.448
941.9315, 1771.126
942.4136, 1772.524
942.8957, 1773.598
943.3778, 1774.220
943.8599, 1773.380
944.3420, 1771.605
944.8242, 1771.584
945.3063, 1778.365
945.7884, 1783.170
946.2705, 1780.298
946.7526, 1773.070
947.2347, 1770.726
947.7169, 1774.222
948.1990, 1776.445
948.6811, 1775.227
949.1632, 1772.821
949.6453, 1772.029
950.1274, 1772.510
950.6096, 1773.918
951.0917, 1777.528
951.5738, 1778.942
952.0559, 1773.647
952.5380, 1767.985
953.0201, 1767.526
953.5023, 1773.302
953.9844, 1775.822
954.4665, 1774.678
954.9486, 1772.592
955.4307, 1770.534
955.9128, 1769.604
956.3950, 1772.270
956.8771, 1778.222
957.3591, 1782.590
957.8412, 1783.362
958.3234, 1782.696
958.8055, 1780.930
959.2876, 1778.435
959.7697, 1776.546
960.2518, 1775.253
960.7339, 1774.001
961.2161, 1771.881
961.6982, 1770.926
962.1803, 1774.902
962.6624, 1780.989
963.1445, 1784.805
963.6266, 1782.339
964.1088, 1781.898
964.5909, 1784.866
965.0730, 1788.659
965.5551, 1790.733
966.0372, 1791.193
966.5193, 1790.851
967.0015, 1789.748
967.4836, 1788.702
967.9657, 1788.450
968.4478, 1788.471
968.9299, 1787.896
969.4120, 1786.756
969.8942, 1787.952
970.3763, 1793.453
970.8584, 1797.241
971.3405, 1796.494
971.8226, 1793.173
972.3047, 1793.316
972.7869, 1795.844
973.2690, 1796.145
973.7511, 1789.726
974.2332, 1784.427
974.7153, 1786.018
975.1974, 1790.743
975.6796, 1793.194
976.1617, 1792.393
976.6438, 1791.303
977.1259, 1789.702
977.6080, 1789.057
978.0901, 1791.994
978.5723, 1796.669
979.0544, 1799.338
979.5365, 1799.645
980.0186, 1799.228
980.5007, 1796.422
980.9828, 1795.656
981.4650, 1800.668
981.9471, 1809.962
982.4292, 1813.622
982.9113, 1811.312
983.3934, 1806.595
983.8755, 1798.443
984.3577, 1792.226
984.8398, 1798.171
985.3219, 1810.614
985.8040, 1818.919
986.2861, 1817.168
986.7682, 1814.517
987.2504, 1811.263
987.7325, 1808.546
988.2146, 1807.813
988.6967, 1808.954
989.1788, 1809.900
989.6609, 1810.525
990.1431, 1811.155
990.6252, 1811.772
991.1073, 1812.750
991.5894, 1814.907
992.0715, 1818.154
992.5536, 1819.856
993.0358, 1819.156
993.5179, 1818.481
994.0000, 1818.585
994.4821, 1819.237
994.9642, 1820.665
995.4464, 1822.241
995.9285, 1821.534
996.4106, 1815.689
996.8927, 1811.176
997.3748, 1812.514
997.8569, 1816.347
998.3391, 1818.727
998.8212, 1818.806
999.3033, 1820.690
999.7854, 1824.952
1000.268, 1828.124
1000.750, 1826.002
1001.232, 1821.466
1001.714, 1819.099
1002.196, 1818.912
1002.678, 1818.705
1003.160, 1817.303
1003.642, 1816.228
1004.124, 1815.951
1004.607, 1816.319
1005.089, 1817.122
1005.571, 1818.314
1006.053, 1818.709
1006.535, 1817.505
1007.017, 1816.760
1007.499, 1819.162
1007.981, 1822.709
1008.464, 1824.952
1008.946, 1824.352
1009.428, 1825.463
1009.910, 1829.560
1010.392, 1832.779
1010.874, 1830.791
1011.356, 1825.828
1011.838, 1827.332
1012.320, 1834.122
1012.803, 1839.348
1013.285, 1838.826
1013.767, 1836.283
1014.249, 1832.213
1014.731, 1827.767
1015.213, 1825.371
1015.695, 1825.250
1016.177, 1826.120
1016.659, 1827.978
1017.142, 1829.900
1017.624, 1829.500
1018.106, 1829.004
1018.588, 1832.326
1019.070, 1840.999
1019.552, 1847.252
1020.034, 1848.608
1020.516, 1848.266
1020.999, 1847.035
1021.481, 1845.293
1021.963, 1844.989
1022.445, 1846.097
1022.927, 1848.571
1023.409, 1853.178
1023.891, 1858.213
1024.373, 1863.984
1024.855, 1868.958
1025.338, 1870.122
1025.820, 1865.560
1026.302, 1862.495
1026.784, 1861.337
1027.266, 1861.817
1027.748, 1863.744
1028.230, 1867.088
1028.712, 1871.884
1029.195, 1878.097
1029.677, 1885.593
1030.159, 1897.895
1030.641, 1907.333
1031.123, 1911.124
1031.605, 1910.260
1032.087, 1907.411
1032.569, 1902.702
1033.052, 1897.926
1033.534, 1893.587
1034.016, 1889.592
1034.498, 1884.658
1034.980, 1880.564
1035.462, 1879.628
1035.944, 1883.050
1036.426, 1886.961
1036.908, 1890.619
1037.391, 1896.818
1037.873, 1908.610
1038.355, 1924.134
1038.837, 1934.547
1039.319, 1943.010
1039.801, 1963.240
1040.283, 1992.855
1040.765, 2046.046
1041.247, 2125.957
1041.730, 2232.315
1042.212, 2380.974
1042.694, 2572.411
1043.176, 2731.349
1043.658, 2848.247
1044.140, 2936.913
1044.622, 2994.032
1045.104, 3043.777
1045.587, 3108.956
1046.069, 3193.423
1046.551, 3283.573
1047.033, 3375.863
1047.515, 3479.294
1047.997, 3593.121
1048.479, 3725.028
1048.961, 3869.016
1049.443, 4045.027
1049.926, 4306.462
1050.408, 4664.812
1050.890, 5121.443
1051.372, 5708.179
1051.854, 6373.855
1052.336, 7047.055
1052.818, 7719.604
1053.300, 8848.670
1053.782, 10442.10
1054.265, 11691.43
1054.747, 12279.93
1055.229, 12048.72
1055.711, 10417.62
1056.193, 7807.882
1056.675, 5748.528
1057.157, 4395.562
1057.639, 3431.722
1058.122, 2856.813
1058.604, 2531.604
1059.086, 2326.982
1059.568, 2213.021
1060.050, 2133.291
1060.532, 2081.007
1061.014, 2040.399
1061.496, 2010.070
1061.979, 1986.552
1062.461, 1969.487
1062.943, 1957.936
1063.425, 1946.758
1063.907, 1936.063
1064.389, 1927.247
1064.871, 1921.276
1065.353, 1916.459
1065.835, 1910.587
1066.318, 1905.635
1066.800, 1904.575
1067.282, 1909.755
1067.764, 1910.554
1068.246, 1906.110
1068.728, 1901.263
1069.210, 1900.899
1069.692, 1901.781
1070.174, 1897.799
1070.657, 1890.210
1071.139, 1884.291
1071.621, 1882.482
1072.103, 1881.615
1072.585, 1881.317
1073.067, 1881.436
1073.549, 1881.775
1074.031, 1882.335
1074.514, 1883.459
1074.996, 1885.264
1075.478, 1886.129
1075.960, 1884.804
1076.442, 1882.382
1076.924, 1878.370
1077.406, 1873.588
1077.888, 1873.747
1078.370, 1879.090
1078.853, 1884.855
1079.335, 1890.345
1079.817, 1893.450
1080.299, 1889.786
1080.781, 1883.203
1081.263, 1878.908
1081.745, 1878.566
1082.227, 1878.752
1082.709, 1879.858
1083.192, 1880.404
1083.674, 1878.040
1084.156, 1874.944
1084.638, 1878.305
1085.120, 1886.027
1085.602, 1890.997
1086.084, 1887.351
1086.566, 1884.403
1087.048, 1884.573
1087.531, 1886.195
1088.013, 1887.526
1088.495, 1888.574
1088.977, 1889.107
1089.459, 1889.122
1089.941, 1889.923
1090.423, 1895.147
1090.905, 1898.958
1091.388, 1896.088
1091.870, 1888.254
1092.352, 1882.425
1092.834, 1878.289
1093.316, 1878.883
1093.798, 1886.143
1094.280, 1893.908
1094.762, 1894.298
1095.245, 1891.228
1095.727, 1889.301
1096.209, 1889.333
1096.691, 1890.239
1097.173, 1892.526
1097.655, 1894.188
1098.137, 1894.208
1098.619, 1893.135
1099.101, 1891.794
1099.583, 1890.464
1100.066, 1889.852
1100.548, 1890.942
1101.030, 1891.430
1101.512, 1889.178
1101.994, 1887.746
1102.476, 1891.414
1102.958, 1899.469
1103.440, 1899.843
1103.923, 1893.232
1104.405, 1887.747
1104.887, 1889.298
1105.369, 1892.167
1105.851, 1893.603
1106.333, 1893.975
1106.815, 1893.605
1107.297, 1891.933
1107.780, 1894.572
1108.262, 1902.713
1108.744, 1909.649
1109.226, 1908.453
1109.708, 1903.592
1110.190, 1898.436
1110.672, 1893.539
1111.154, 1890.756
1111.636, 1890.285
1112.119, 1891.587
1112.601, 1895.094
1113.083, 1899.038
1113.565, 1901.165
1114.047, 1901.760
1114.529, 1900.957
1115.011, 1898.442
1115.493, 1897.028
1115.975, 1898.365
1116.458, 1899.343
1116.940, 1898.541
1117.422, 1896.526
1117.904, 1894.547
1118.386, 1892.917
1118.868, 1892.716
1119.350, 1895.068
1119.832, 1897.473
1120.315, 1899.147
1120.797, 1900.188
1121.279, 1900.185
1121.761, 1899.161
1122.243, 1901.092
1122.725, 1905.734
1123.207, 1909.616
1123.689, 1910.299
1124.172, 1909.878
1124.654, 1910.074
1125.136, 1909.844
1125.618, 1906.859
1126.100, 1899.715
1126.582, 1897.818
1127.064, 1902.268
1127.546, 1906.995
1128.028, 1906.124
1128.510, 1903.354
1128.993, 1901.959
1129.475, 1902.113
1129.957, 1903.587
1130.439, 1906.987
1130.921, 1909.890
1131.403, 1912.024
1131.885, 1913.186
1132.367, 1912.087
1132.850, 1910.319
1133.332, 1910.617
1133.814, 1913.342
1134.296, 1915.688
1134.778, 1917.210
1135.260, 1917.961
1135.742, 1917.691
1136.224, 1916.962
1136.707, 1917.604
1137.189, 1918.694
1137.671, 1917.351
1138.153, 1912.008
1138.635, 1908.032
1139.117, 1907.872
1139.599, 1909.347
1140.081, 1911.920
1140.563, 1915.235
1141.046, 1917.771
1141.528, 1919.618
1142.010, 1921.471
1142.492, 1924.702
1142.974, 1925.986
1143.456, 1920.386
1143.938, 1914.535
1144.420, 1914.786
1144.902, 1921.429
1145.385, 1926.801
1145.867, 1930.840
1146.349, 1932.700
1146.831, 1929.441
1147.313, 1926.238
1147.795, 1928.089
1148.277, 1931.787
1148.759, 1931.557
1149.242, 1926.077
1149.724, 1923.520
1150.206, 1924.384
1150.688, 1926.751
1151.170, 1930.468
1151.652, 1933.744
1152.134, 1935.797
1152.616, 1935.977
1153.099, 1931.331
1153.581, 1918.274
1154.063, 1913.524
1154.545, 1920.721
1155.027, 1930.187
1155.509, 1930.799
1155.991, 1927.406
1156.473, 1925.666
1156.955, 1925.994
1157.438, 1926.772
1157.920, 1928.117
1158.402, 1929.017
1158.884, 1929.065
1159.366, 1928.978
1159.848, 1930.611
1160.330, 1932.547
1160.812, 1931.606
1161.294, 1926.803
1161.777, 1924.823
1162.259, 1928.216
1162.741, 1932.310
1163.223, 1936.220
1163.705, 1938.905
1164.187, 1936.406
1164.669, 1931.069
1165.151, 1928.506
1165.634, 1930.619
1166.116, 1933.845
1166.598, 1938.948
1167.080, 1942.520
1167.562, 1942.301
1168.044, 1939.527
1168.526, 1938.441
1169.008, 1938.719
1169.490, 1939.184
1169.973, 1939.697
1170.455, 1939.868
1170.937, 1939.077
1171.419, 1938.467
1171.901, 1938.796
1172.383, 1940.021
1172.865, 1942.138
1173.347, 1944.880
1173.829, 1946.906
1174.312, 1947.508
1174.794, 1947.243
1175.276, 1945.681
1175.758, 1943.783
1176.240, 1941.684
1176.722, 1939.500
1177.204, 1943.046
1177.686, 1951.755
1178.169, 1957.740
1178.651, 1953.846
1179.133, 1948.326
1179.615, 1943.303
1180.097, 1940.460
1180.579, 1943.512
1181.061, 1952.545
1181.543, 1956.801
1182.026, 1955.549
1182.508, 1953.840
1182.990, 1956.627
1183.472, 1958.916
1183.954, 1956.350
1184.436, 1951.140
1184.918, 1947.708
1185.400, 1946.033
1185.882, 1947.983
1186.365, 1954.103
1186.847, 1960.032
1187.329, 1963.093
1187.811, 1963.823
1188.293, 1960.903
1188.775, 1956.002
1189.257, 1955.667
1189.739, 1960.402
1190.221, 1962.767
1190.704, 1960.998
1191.186, 1958.534
1191.668, 1957.947
1192.150, 1958.668
1192.632, 1960.846
1193.114, 1964.110
1193.596, 1965.890
1194.078, 1966.086
1194.561, 1965.292
1195.043, 1963.272
1195.525, 1961.705
1196.007, 1962.425
1196.489, 1964.365
1196.971, 1966.441
1197.453, 1968.572
1197.935, 1972.520
1198.417, 1978.891
1198.900, 1981.393
1199.382, 1976.086
1199.864, 1970.373
1200.346, 1973.568
1200.828, 1979.848
1201.310, 1982.409
1201.792, 1980.392
1202.274, 1977.742
1202.756, 1974.273
1203.239, 1972.024
1203.721, 1972.521
1204.203, 1973.574
1204.685, 1971.870
1205.167, 1969.657
1205.649, 1970.305
1206.131, 1974.659
1206.613, 1978.669
1207.096, 1982.540
1207.578, 1984.367
1208.060, 1981.488
1208.542, 1978.134
1209.024, 1979.432
1209.506, 1983.203
1209.988, 1986.091
1210.470, 1987.855
1210.953, 1988.600
1211.435, 1988.122
1211.917, 1988.623
1212.399, 1993.722
1212.881, 1998.431
1213.363, 1995.809
1213.845, 1989.668
1214.327, 1986.969
1214.809, 1988.384
1215.292, 1993.112
1215.774, 2001.809
1216.256, 2007.412
1216.738, 2000.024
1217.220, 1991.160
1217.702, 1993.386
1218.184, 2002.006
1218.666, 2006.696
1219.148, 2005.921
1219.631, 2004.932
1220.113, 2003.785
1220.595, 2004.025
1221.077, 2009.145
1221.559, 2014.164
1222.041, 2014.975
1222.523, 2012.056
1223.005, 2006.320
1223.488, 1996.093
1223.970, 1992.936
1224.452, 1998.197
1224.934, 2004.130
1225.416, 2003.682
1225.898, 2001.965
1226.380, 2004.124
1226.862, 2008.320
1227.344, 2008.533
1227.827, 2003.511
1228.309, 2003.318
1228.791, 2009.174
1229.273, 2014.843
1229.755, 2015.333
1230.237, 2013.377
1230.719, 2010.078
1231.201, 2006.190
1231.683, 2003.312
1232.166, 2001.421
1232.648, 2001.141
1233.130, 2002.567
1233.612, 2004.972
1234.094, 2009.645
1234.576, 2013.304
1235.058, 2011.847
1235.540, 2007.885
1236.023, 2008.806
1236.505, 2014.762
1236.987, 2015.223
1237.469, 2008.517
1237.951, 2002.288
1238.433, 2001.986
1238.915, 2004.650
1239.397, 2010.570
1239.880, 2017.320
1240.362, 2018.523
1240.844, 2014.714
1241.326, 2014.632
1241.808, 2019.882
1242.290, 2024.682
1242.772, 2025.008
1243.254, 2023.672
1243.736, 2021.424
1244.219, 2019.043
1244.701, 2017.503
1245.183, 2017.172
1245.665, 2022.425
1246.147, 2034.427
1246.629, 2042.512
1247.111, 2035.436
1247.593, 2029.192
1248.075, 2031.701
1248.558, 2038.735
1249.040, 2040.704
1249.522, 2038.625
1250.004, 2036.045
1250.486, 2033.521
1250.968, 2031.928
1251.450, 2031.424
1251.932, 2032.689
1252.415, 2036.881
1252.897, 2041.862
1253.379, 2042.224
1253.861, 2039.703
1254.343, 2038.821
1254.825, 2040.389
1255.307, 2042.604
1255.789, 2046.977
1256.271, 2048.283
1256.754, 2043.501
1257.236, 2037.125
1257.718, 2038.747
1258.200, 2044.524
1258.682, 2046.486
1259.164, 2042.899
1259.646, 2042.719
1260.128, 2049.501
1260.610, 2054.104
1261.093, 2053.128
1261.575, 2050.172
1262.057, 2050.200
1262.539, 2052.080
1263.021, 2054.356
1263.503, 2056.863
1263.985, 2059.421
1264.467, 2062.285
1264.950, 2064.289
1265.432, 2064.954
1265.914, 2065.128
1266.396, 2065.738
1266.878, 2066.563
1267.360, 2067.573
1267.842, 2068.717
1268.324, 2068.443
1268.807, 2066.434
1269.289, 2065.412
1269.771, 2066.115
1270.253, 2068.121
1270.735, 2072.028
1271.217, 2076.267
1271.699, 2079.872
1272.181, 2082.550
1272.663, 2081.561
1273.146, 2077.003
1273.628, 2073.896
1274.110, 2073.807
1274.592, 2074.350
1275.074, 2073.466
1275.556, 2072.918
1276.038, 2074.069
1276.520, 2076.440
1277.002, 2078.267
1277.485, 2079.625
1277.967, 2080.984
1278.449, 2082.436
1278.931, 2083.939
1279.413, 2085.128
1279.895, 2086.785
1280.377, 2089.450
1280.859, 2092.554
1281.342, 2095.218
1281.824, 2097.072
1282.306, 2096.628
1282.788, 2093.133
1283.270, 2090.780
1283.752, 2090.278
1284.234, 2092.206
1284.716, 2097.817
1285.198, 2104.248
1285.681, 2106.449
1286.163, 2105.636
1286.645, 2103.545
1287.127, 2100.286
1287.609, 2098.261
1288.091, 2097.351
1288.573, 2098.841
1289.055, 2104.092
1289.537, 2109.164
1290.020, 2106.618
1290.502, 2102.188
1290.984, 2103.789
1291.466, 2112.074
1291.948, 2114.704
1292.430, 2110.620
1292.912, 2109.058
1293.394, 2112.882
1293.877, 2117.653
1294.359, 2119.484
1294.841, 2120.166
1295.323, 2121.450
1295.805, 2121.377
1296.287, 2122.650
1296.769, 2120.583
1297.251, 2118.969
1297.734, 2118.168
1298.216, 2118.687
1298.698, 2121.793
1299.180, 2125.350
1299.662, 2128.213
1300.144, 2130.772
1300.626, 2134.456
1301.108, 2138.677
1301.590, 2141.727
1302.073, 2143.335
1302.555, 2143.105
1303.037, 2136.831
1303.519, 2134.782
1304.001, 2141.162
1304.483, 2149.594
1304.965, 2152.122
##END=



