##NAMES=Cervandonite-(Ce)
##RRUFFID=R110070
##IDEAL CHEMISTRY=(Ce^3+^,Nd^3+^,La^3+^)(Fe^3+^,Ti^4+^,Fe^2+^,Al)_3_O_2_(Si_2_O_7_)_0.8_(As^3+^O_3_)_1.2_(OH)_0.6_
##LOCALITY=Monte Cervandone, Val d'Ossola, Piedmont, Italy
##OWNER=RRUFF
##SOURCE=Renato & Adriana Pagano
##DESCRIPTION=Rosettes of black platy crystals associated with microcline, quartz and rutile
##STATUS=The identification of this mineral has been confirmed by single-crystal X-ray diffraction.
##URL=rruff.info/R110070
294.9097, 1545.059
295.3918, 1547.079
295.8739, 1552.086
296.3560, 1559.455
296.8381, 1566.445
297.3203, 1572.003
297.8024, 1576.188
298.2845, 1578.642
298.7666, 1579.200
299.2487, 1579.794
299.7308, 1583.321
300.2130, 1588.632
300.6951, 1592.379
301.1772, 1592.999
301.6593, 1591.406
302.1414, 1585.403
302.6235, 1575.285
303.1057, 1572.014
303.5878, 1596.403
304.0699, 1633.078
304.5520, 1652.610
305.0341, 1636.981
305.5162, 1608.046
305.9984, 1583.234
306.4805, 1563.393
306.9626, 1552.759
307.4447, 1560.035
307.9268, 1576.627
308.4089, 1591.986
308.8911, 1605.318
309.3732, 1613.756
309.8553, 1610.848
310.3374, 1600.011
310.8195, 1592.736
311.3016, 1601.423
311.7838, 1613.619
312.2659, 1616.659
312.7480, 1603.186
313.2301, 1592.160
313.7122, 1599.786
314.1943, 1618.082
314.6765, 1630.086
315.1586, 1619.243
315.6407, 1605.995
316.1228, 1604.225
316.6049, 1618.214
317.0870, 1632.944
317.5692, 1645.203
318.0513, 1653.366
318.5334, 1655.030
319.0155, 1638.122
319.4976, 1624.259
319.9797, 1625.992
320.4619, 1645.697
320.9440, 1660.904
321.4261, 1662.849
321.9082, 1657.980
322.3903, 1652.355
322.8724, 1642.426
323.3546, 1636.706
323.8367, 1638.483
324.3188, 1647.561
324.8009, 1657.652
325.2830, 1671.994
325.7651, 1684.366
326.2473, 1690.706
326.7294, 1685.959
327.2115, 1680.662
327.6936, 1673.281
328.1757, 1665.286
328.6578, 1663.490
329.1400, 1668.485
329.6221, 1679.281
330.1042, 1697.122
330.5863, 1741.340
331.0684, 1759.813
331.5505, 1735.164
332.0327, 1687.888
332.5148, 1664.277
332.9969, 1679.618
333.4790, 1698.203
333.9611, 1708.694
334.4432, 1709.732
334.9254, 1707.130
335.4075, 1697.677
335.8896, 1687.226
336.3717, 1683.757
336.8538, 1688.057
337.3359, 1697.977
337.8180, 1716.350
338.3001, 1742.815
338.7823, 1755.301
339.2644, 1749.938
339.7465, 1738.124
340.2286, 1730.751
340.7107, 1728.794
341.1928, 1725.876
341.6750, 1720.241
342.1571, 1713.013
342.6392, 1708.448
343.1213, 1706.453
343.6034, 1707.481
344.0855, 1713.656
344.5677, 1724.615
345.0498, 1733.162
345.5319, 1739.512
346.0140, 1741.203
346.4961, 1727.604
346.9782, 1699.639
347.4604, 1679.993
347.9425, 1688.591
348.4246, 1717.137
348.9067, 1735.613
349.3888, 1742.033
349.8709, 1740.475
350.3531, 1730.877
350.8352, 1716.064
351.3173, 1706.555
351.7994, 1712.085
352.2815, 1723.926
352.7636, 1726.042
353.2458, 1718.418
353.7279, 1710.885
354.2100, 1713.021
354.6921, 1720.706
355.1742, 1726.849
355.6563, 1729.162
356.1385, 1729.196
356.6206, 1728.209
357.1027, 1726.161
357.5848, 1722.962
358.0669, 1716.876
358.5490, 1710.428
359.0312, 1705.893
359.5133, 1703.532
359.9954, 1703.510
360.4775, 1708.088
360.9596, 1715.109
361.4417, 1719.910
361.9239, 1716.110
362.4060, 1713.112
362.8881, 1719.034
363.3702, 1737.988
363.8523, 1748.073
364.3344, 1731.840
364.8166, 1706.594
365.2987, 1691.953
365.7808, 1706.819
366.2629, 1718.804
366.7450, 1716.960
367.2271, 1701.195
367.7093, 1689.364
368.1914, 1684.335
368.6735, 1683.329
369.1556, 1684.624
369.6377, 1693.528
370.1198, 1697.756
370.6020, 1692.695
371.0841, 1682.008
371.5662, 1679.597
372.0483, 1693.632
372.5304, 1705.987
373.0125, 1708.428
373.4947, 1696.305
373.9768, 1687.238
374.4589, 1680.728
374.9410, 1677.567
375.4231, 1680.274
375.9052, 1691.907
376.3874, 1700.974
376.8695, 1703.836
377.3516, 1700.641
377.8337, 1695.328
378.3158, 1686.959
378.7979, 1678.982
379.2801, 1676.402
379.7622, 1679.637
380.2443, 1678.071
380.7264, 1667.193
381.2085, 1652.215
381.6906, 1649.018
382.1728, 1657.829
382.6549, 1666.066
383.1370, 1662.466
383.6191, 1650.532
384.1012, 1643.897
384.5833, 1643.796
385.0655, 1649.401
385.5476, 1664.290
386.0297, 1685.302
386.5118, 1700.155
386.9939, 1699.272
387.4760, 1690.339
387.9582, 1682.611
388.4403, 1676.238
388.9224, 1674.465
389.4045, 1688.648
389.8866, 1706.888
390.3687, 1711.393
390.8509, 1681.975
391.3330, 1652.562
391.8151, 1649.631
392.2972, 1668.100
392.7793, 1686.993
393.2614, 1697.151
393.7436, 1703.001
394.2257, 1708.092
394.7078, 1713.925
395.1899, 1716.613
395.6720, 1711.117
396.1541, 1702.209
396.6363, 1697.576
397.1184, 1704.085
397.6005, 1710.480
398.0826, 1712.554
398.5647, 1709.509
399.0468, 1707.193
399.5290, 1707.280
400.0111, 1707.684
400.4932, 1706.699
400.9753, 1702.357
401.4574, 1699.389
401.9395, 1700.086
402.4217, 1702.903
402.9038, 1699.482
403.3859, 1683.224
403.8680, 1670.429
404.3501, 1670.684
404.8322, 1689.709
405.3144, 1701.445
405.7965, 1703.988
406.2786, 1701.366
406.7607, 1699.814
407.2428, 1699.680
407.7249, 1698.533
408.2071, 1694.433
408.6892, 1688.381
409.1713, 1688.283
409.6534, 1695.188
410.1355, 1701.891
410.6176, 1701.045
411.0998, 1693.796
411.5819, 1686.929
412.0640, 1682.118
412.5461, 1677.621
413.0282, 1668.279
413.5103, 1655.455
413.9925, 1646.905
414.4746, 1650.927
414.9567, 1660.792
415.4388, 1665.404
415.9209, 1663.426
416.4030, 1660.901
416.8852, 1666.031
417.3673, 1673.500
417.8494, 1674.712
418.3315, 1657.878
418.8136, 1640.779
419.2957, 1637.554
419.7779, 1645.923
420.2600, 1650.286
420.7421, 1641.626
421.2242, 1627.423
421.7063, 1612.163
422.1884, 1591.087
422.6706, 1579.107
423.1527, 1589.462
423.6348, 1610.191
424.1169, 1618.840
424.5990, 1596.626
425.0811, 1576.805
425.5633, 1570.679
426.0454, 1580.564
426.5275, 1588.061
427.0096, 1593.625
427.4917, 1596.452
427.9738, 1594.954
428.4560, 1583.940
428.9381, 1580.248
429.4202, 1590.742
429.9023, 1608.795
430.3844, 1609.442
430.8665, 1586.131
431.3487, 1564.019
431.8308, 1557.642
432.3129, 1567.997
432.7950, 1573.668
433.2771, 1573.989
433.7592, 1570.820
434.2414, 1565.077
434.7235, 1557.122
435.2056, 1551.453
435.6877, 1550.946
436.1698, 1552.635
436.6519, 1548.027
437.1341, 1537.670
437.6162, 1530.952
438.0983, 1540.913
438.5804, 1557.726
439.0625, 1563.287
439.5446, 1552.476
440.0268, 1537.449
440.5089, 1527.951
440.9910, 1522.226
441.4731, 1516.820
441.9552, 1506.517
442.4373, 1498.811
442.9195, 1500.846
443.4016, 1512.442
443.8837, 1521.240
444.3658, 1519.883
444.8479, 1514.900
445.3300, 1511.462
445.8122, 1513.126
446.2943, 1512.998
446.7764, 1507.193
447.2585, 1498.641
447.7406, 1494.871
448.2227, 1499.042
448.7049, 1505.551
449.1870, 1515.221
449.6691, 1530.412
450.1512, 1533.131
450.6333, 1515.649
451.1154, 1494.139
451.5976, 1484.928
452.0797, 1492.571
452.5618, 1497.604
453.0439, 1496.644
453.5260, 1491.417
454.0081, 1487.222
454.4903, 1484.322
454.9724, 1480.708
455.4545, 1473.408
455.9366, 1463.579
456.4187, 1459.877
456.9008, 1463.244
457.3830, 1469.111
457.8651, 1473.376
458.3472, 1475.916
458.8293, 1475.822
459.3114, 1470.472
459.7935, 1464.720
460.2757, 1465.810
460.7578, 1472.502
461.2399, 1478.578
461.7220, 1480.527
462.2041, 1479.865
462.6862, 1478.089
463.1684, 1475.632
463.6505, 1471.222
464.1326, 1460.880
464.6147, 1449.272
465.0968, 1442.300
465.5789, 1451.119
466.0611, 1455.521
466.5432, 1445.373
467.0253, 1422.445
467.5074, 1407.151
467.9895, 1406.150
468.4716, 1409.883
468.9538, 1414.498
469.4359, 1422.391
469.9180, 1425.506
470.4001, 1421.054
470.8822, 1413.741
471.3643, 1411.665
471.8465, 1418.269
472.3286, 1419.629
472.8107, 1409.781
473.2928, 1391.568
473.7749, 1380.991
474.2570, 1378.786
474.7392, 1380.705
475.2213, 1384.982
475.7034, 1391.164
476.1855, 1396.520
476.6676, 1401.125
477.1497, 1403.678
477.6319, 1401.878
478.1140, 1396.460
478.5961, 1389.748
479.0782, 1380.902
479.5603, 1372.439
480.0424, 1366.778
480.5246, 1363.942
481.0067, 1364.227
481.4888, 1371.260
481.9709, 1379.548
482.4530, 1383.822
482.9352, 1381.418
483.4173, 1379.063
483.8994, 1383.014
484.3815, 1387.867
484.8636, 1385.375
485.3457, 1360.974
485.8279, 1342.096
486.3100, 1339.167
486.7921, 1352.365
487.2742, 1359.473
487.7563, 1355.746
488.2384, 1350.865
488.7206, 1350.307
489.2027, 1355.819
489.6848, 1361.422
490.1669, 1368.418
490.6490, 1374.034
491.1311, 1372.889
491.6133, 1363.944
492.0954, 1355.246
492.5775, 1347.998
493.0596, 1343.219
493.5417, 1347.332
494.0238, 1360.488
494.5060, 1371.199
494.9881, 1368.195
495.4702, 1356.290
495.9523, 1347.107
496.4344, 1342.181
496.9165, 1340.057
497.3987, 1339.385
497.8808, 1340.454
498.3629, 1343.847
498.8450, 1356.578
499.3271, 1366.017
499.8092, 1357.669
500.2914, 1335.839
500.7735, 1324.736
501.2556, 1347.379
501.7377, 1373.336
502.2198, 1383.975
502.7019, 1371.263
503.1841, 1359.001
503.6662, 1345.519
504.1483, 1335.989
504.6304, 1337.193
505.1125, 1358.786
505.5946, 1375.294
506.0768, 1381.502
506.5589, 1379.487
507.0410, 1379.801
507.5231, 1382.909
508.0052, 1386.976
508.4873, 1392.643
508.9695, 1399.878
509.4516, 1399.834
509.9337, 1391.186
510.4158, 1380.520
510.8979, 1374.562
511.3800, 1372.890
511.8622, 1374.491
512.3443, 1381.145
512.8264, 1387.892
513.3085, 1387.001
513.7906, 1380.235
514.2728, 1373.908
514.7549, 1372.015
515.2370, 1371.829
515.7191, 1369.875
516.2012, 1365.638
516.6833, 1365.641
517.1655, 1376.698
517.6476, 1391.303
518.1297, 1403.105
518.6118, 1412.716
519.0939, 1417.072
519.5760, 1412.633
520.0582, 1402.699
520.5403, 1394.978
521.0224, 1388.692
521.5045, 1385.922
521.9866, 1388.481
522.4688, 1396.360
522.9509, 1399.834
523.4330, 1395.713
523.9151, 1394.565
524.3972, 1408.516
524.8793, 1438.014
525.3615, 1455.559
525.8436, 1457.280
526.3257, 1450.725
526.8078, 1443.361
527.2899, 1436.333
527.7720, 1435.708
528.2542, 1448.297
528.7363, 1465.093
529.2184, 1475.098
529.7005, 1478.695
530.1826, 1478.486
530.6647, 1470.558
531.1469, 1462.860
531.6290, 1464.115
532.1111, 1478.126
532.5932, 1488.172
533.0753, 1480.524
533.5574, 1468.721
534.0396, 1466.929
534.5217, 1490.603
535.0038, 1509.148
535.4859, 1516.577
535.9680, 1515.812
536.4501, 1516.055
536.9323, 1518.286
537.4144, 1519.708
537.8965, 1517.608
538.3786, 1511.683
538.8607, 1515.971
539.3428, 1533.017
539.8250, 1552.265
540.3071, 1563.654
540.7892, 1567.773
541.2713, 1570.992
541.7534, 1573.462
542.2355, 1577.373
542.7177, 1588.629
543.1998, 1604.468
543.6819, 1615.781
544.1640, 1611.445
544.6461, 1605.419
545.1282, 1614.635
545.6104, 1636.105
546.0925, 1651.385
546.5746, 1639.772
547.0567, 1626.525
547.5388, 1631.175
548.0209, 1663.891
548.5031, 1689.072
548.9852, 1695.333
549.4673, 1692.540
549.9494, 1691.020
550.4315, 1691.015
550.9136, 1692.184
551.3958, 1694.185
551.8779, 1697.406
552.3600, 1703.315
552.8421, 1712.636
553.3242, 1722.225
553.8063, 1731.551
554.2885, 1740.266
554.7706, 1745.944
555.2527, 1748.663
555.7348, 1747.599
556.2169, 1738.554
556.6990, 1725.314
557.1812, 1717.680
557.6633, 1717.750
558.1454, 1721.527
558.6275, 1727.578
559.1096, 1734.284
559.5917, 1738.911
560.0739, 1739.311
560.5560, 1738.302
561.0381, 1738.371
561.5202, 1738.567
562.0023, 1734.715
562.4844, 1719.262
562.9666, 1705.063
563.4487, 1698.734
563.9308, 1702.175
564.4129, 1704.312
564.8950, 1706.609
565.3771, 1705.960
565.8593, 1699.395
566.3414, 1685.828
566.8235, 1669.772
567.3056, 1649.329
567.7877, 1629.893
568.2698, 1624.266
568.7520, 1631.422
569.2341, 1634.698
569.7162, 1626.547
570.1983, 1611.474
570.6804, 1593.447
571.1625, 1573.936
571.6447, 1562.362
572.1268, 1575.657
572.6089, 1593.650
573.0910, 1594.425
573.5731, 1573.342
574.0552, 1552.891
574.5374, 1541.966
575.0195, 1537.031
575.5016, 1534.701
575.9837, 1539.425
576.4658, 1540.360
576.9479, 1534.392
577.4301, 1524.473
577.9122, 1516.142
578.3943, 1509.137
578.8764, 1504.255
579.3585, 1503.216
579.8406, 1504.777
580.3228, 1499.050
580.8049, 1484.939
581.2870, 1470.644
581.7691, 1462.167
582.2512, 1458.156
582.7333, 1453.395
583.2155, 1447.693
583.6975, 1440.234
584.1796, 1425.679
584.6617, 1409.789
585.1439, 1403.127
585.6260, 1414.522
586.1081, 1424.989
586.5902, 1421.415
587.0723, 1408.842
587.5544, 1397.127
588.0366, 1384.155
588.5187, 1377.219
589.0008, 1381.207
589.4829, 1395.510
589.9650, 1407.050
590.4471, 1417.319
590.9293, 1422.734
591.4114, 1419.947
591.8935, 1407.066
592.3756, 1399.704
592.8577, 1398.868
593.3398, 1400.799
593.8220, 1402.554
594.3041, 1403.949
594.7862, 1403.849
595.2683, 1402.539
595.7504, 1398.383
596.2325, 1385.736
596.7147, 1368.246
597.1968, 1355.585
597.6789, 1353.638
598.1610, 1356.553
598.6431, 1363.170
599.1252, 1371.997
599.6074, 1376.498
600.0895, 1369.053
600.5716, 1361.284
601.0537, 1359.840
601.5358, 1367.461
602.0179, 1370.119
602.5001, 1363.338
602.9822, 1355.855
603.4643, 1354.862
603.9464, 1362.890
604.4285, 1367.106
604.9106, 1365.880
605.3928, 1362.281
605.8749, 1361.217
606.3570, 1362.434
606.8391, 1362.688
607.3212, 1361.003
607.8033, 1357.831
608.2855, 1352.787
608.7676, 1346.567
609.2497, 1341.578
609.7318, 1337.639
610.2139, 1336.609
610.6960, 1342.740
611.1782, 1355.711
611.6603, 1363.457
612.1424, 1355.051
612.6245, 1345.033
613.1066, 1342.887
613.5887, 1354.060
614.0709, 1362.089
614.5530, 1365.620
615.0351, 1367.342
615.5172, 1370.982
615.9993, 1378.188
616.4814, 1379.372
616.9636, 1371.578
617.4457, 1359.552
617.9278, 1351.334
618.4099, 1346.887
618.8920, 1345.602
619.3741, 1347.532
619.8563, 1352.154
620.3384, 1362.347
620.8205, 1376.012
621.3026, 1382.684
621.7847, 1366.453
622.2668, 1348.000
622.7490, 1345.979
623.2311, 1363.932
623.7132, 1374.809
624.1953, 1364.525
624.6774, 1349.436
625.1595, 1340.767
625.6417, 1339.929
626.1238, 1343.823
626.6059, 1355.682
627.0880, 1368.737
627.5701, 1373.387
628.0522, 1368.859
628.5344, 1362.919
629.0165, 1355.801
629.4986, 1350.207
629.9807, 1353.887
630.4628, 1364.978
630.9449, 1373.348
631.4271, 1371.654
631.9092, 1366.246
632.3913, 1361.453
632.8734, 1358.098
633.3555, 1360.967
633.8376, 1381.821
634.3198, 1402.250
634.8019, 1409.219
635.2840, 1397.849
635.7661, 1392.371
636.2482, 1399.875
636.7303, 1410.171
637.2125, 1416.958
637.6946, 1420.763
638.1767, 1418.206
638.6588, 1406.004
639.1409, 1392.954
639.6230, 1394.222
640.1052, 1408.682
640.5873, 1418.913
641.0694, 1419.505
641.5515, 1415.415
642.0336, 1412.045
642.5157, 1409.890
642.9979, 1410.379
643.4800, 1417.064
643.9621, 1424.276
644.4442, 1428.058
644.9263, 1428.744
645.4084, 1428.629
645.8906, 1429.492
646.3727, 1428.781
646.8548, 1422.626
647.3369, 1408.692
647.8190, 1408.545
648.3011, 1430.861
648.7833, 1453.961
649.2654, 1460.172
649.7475, 1447.961
650.2296, 1437.605
650.7117, 1429.711
651.1938, 1425.640
651.6760, 1428.286
652.1581, 1436.341
652.6402, 1445.980
653.1223, 1456.939
653.6044, 1467.602
654.0865, 1477.013
654.5687, 1485.201
655.0508, 1492.289
655.5329, 1501.593
656.0150, 1506.541
656.4971, 1502.917
656.9792, 1492.213
657.4614, 1482.159
657.9435, 1470.547
658.4256, 1463.231
658.9077, 1463.109
659.3898, 1469.852
659.8719, 1475.231
660.3541, 1478.886
660.8362, 1482.838
661.3183, 1489.475
661.8004, 1497.716
662.2825, 1502.922
662.7646, 1504.654
663.2468, 1506.717
663.7289, 1514.912
664.2110, 1524.518
664.6931, 1528.943
665.1752, 1525.096
665.6573, 1520.436
666.1395, 1516.800
666.6216, 1514.729
667.1037, 1514.886
667.5858, 1520.483
668.0679, 1524.300
668.5500, 1524.969
669.0322, 1523.897
669.5143, 1523.841
669.9964, 1524.655
670.4785, 1527.373
670.9606, 1533.417
671.4427, 1540.804
671.9249, 1543.191
672.4070, 1541.160
672.8891, 1539.333
673.3712, 1542.295
673.8533, 1545.830
674.3354, 1542.905
674.8176, 1534.334
675.2997, 1529.974
675.7818, 1538.992
676.2639, 1550.603
676.7460, 1558.841
677.2281, 1563.015
677.7103, 1562.590
678.1924, 1551.160
678.6745, 1541.744
679.1566, 1546.266
679.6387, 1569.921
680.1208, 1581.586
680.6030, 1577.458
681.0851, 1567.262
681.5672, 1561.405
682.0493, 1559.715
682.5314, 1561.806
683.0135, 1568.721
683.4957, 1576.627
683.9778, 1583.596
684.4599, 1588.363
684.9420, 1588.363
685.4241, 1575.216
685.9063, 1565.078
686.3884, 1566.807
686.8705, 1576.759
687.3526, 1581.817
687.8347, 1575.873
688.3168, 1573.155
688.7990, 1579.104
689.2811, 1591.862
689.7632, 1598.973
690.2453, 1600.343
690.7274, 1596.816
691.2095, 1584.581
691.6917, 1568.135
692.1738, 1562.547
692.6559, 1567.586
693.1380, 1572.785
693.6201, 1568.304
694.1022, 1561.534
694.5844, 1560.705
695.0665, 1568.094
695.5486, 1572.839
696.0307, 1567.475
696.5128, 1560.373
696.9949, 1558.517
697.4771, 1567.030
697.9592, 1569.567
698.4413, 1562.255
698.9234, 1553.971
699.4055, 1558.340
699.8876, 1575.756
700.3698, 1584.379
700.8519, 1579.049
701.3340, 1567.416
701.8161, 1558.292
702.2982, 1551.366
702.7803, 1545.720
703.2625, 1539.438
703.7446, 1536.275
704.2267, 1541.614
704.7088, 1551.783
705.1909, 1558.699
705.6730, 1558.486
706.1552, 1556.506
706.6373, 1553.254
707.1194, 1549.171
707.6015, 1546.445
708.0836, 1545.417
708.5657, 1544.609
709.0479, 1542.936
709.5300, 1541.010
710.0121, 1542.393
710.4942, 1546.913
710.9763, 1550.485
711.4584, 1549.695
711.9406, 1546.760
712.4227, 1544.070
712.9048, 1541.796
713.3869, 1540.276
713.8690, 1540.472
714.3511, 1540.929
714.8333, 1540.798
715.3154, 1540.071
715.7975, 1538.322
716.2796, 1534.119
716.7617, 1530.704
717.2438, 1530.437
717.7260, 1533.387
718.2081, 1539.857
718.6902, 1550.725
719.1723, 1561.433
719.6544, 1568.652
720.1365, 1571.312
720.6187, 1565.097
721.1008, 1545.836
721.5829, 1527.272
722.0650, 1519.039
722.5471, 1517.877
723.0292, 1519.282
723.5114, 1528.168
723.9935, 1531.856
724.4756, 1522.871
724.9577, 1509.536
725.4398, 1506.658
725.9219, 1518.289
726.4041, 1528.149
726.8862, 1532.896
727.3683, 1533.591
727.8504, 1531.085
728.3325, 1526.012
728.8146, 1522.848
729.2968, 1526.277
729.7789, 1530.378
730.2610, 1527.070
730.7431, 1518.492
731.2252, 1511.748
731.7073, 1511.353
732.1895, 1512.025
732.6716, 1511.151
733.1537, 1508.921
733.6358, 1508.866
734.1179, 1512.122
734.6000, 1515.794
735.0822, 1519.686
735.5643, 1523.359
736.0464, 1520.715
736.5285, 1511.447
737.0106, 1502.244
737.4927, 1497.001
737.9749, 1495.317
738.4570, 1498.765
738.9391, 1507.070
739.4212, 1511.598
739.9033, 1501.995
740.3854, 1490.437
740.8676, 1486.336
741.3497, 1493.200
741.8318, 1497.861
742.3139, 1501.200
742.7960, 1500.332
743.2781, 1490.482
743.7603, 1468.623
744.2424, 1461.262
744.7245, 1471.505
745.2066, 1486.207
745.6887, 1493.656
746.1708, 1494.734
746.6530, 1490.596
747.1351, 1480.542
747.6172, 1470.320
748.0993, 1461.838
748.5814, 1456.578
749.0635, 1456.655
749.5457, 1469.093
750.0278, 1476.335
750.5099, 1474.357
750.9920, 1467.285
751.4741, 1458.944
751.9562, 1448.612
752.4384, 1440.055
752.9205, 1433.607
753.4026, 1429.574
753.8847, 1427.952
754.3668, 1429.119
754.8489, 1435.715
755.3311, 1453.176
755.8132, 1467.526
756.2953, 1462.492
756.7774, 1446.350
757.2595, 1433.735
757.7416, 1432.674
758.2238, 1431.452
758.7059, 1426.217
759.1880, 1419.294
759.6701, 1416.549
760.1522, 1420.976
760.6343, 1419.214
761.1165, 1405.260
761.5986, 1385.706
762.0807, 1375.592
762.5628, 1374.310
763.0449, 1378.533
763.5270, 1395.034
764.0092, 1408.924
764.4913, 1399.349
764.9734, 1374.685
765.4555, 1360.854
765.9376, 1382.649
766.4197, 1400.655
766.9019, 1397.208
767.3840, 1377.641
767.8661, 1367.013
768.3482, 1368.241
768.8303, 1369.984
769.3124, 1368.178
769.7946, 1363.347
770.2767, 1354.994
770.7588, 1343.903
771.2409, 1337.406
771.7230, 1346.530
772.2051, 1357.783
772.6873, 1356.077
773.1694, 1342.856
773.6515, 1331.524
774.1336, 1328.388
774.6157, 1326.585
775.0978, 1323.439
775.5800, 1318.967
776.0621, 1313.409
776.5442, 1305.324
777.0263, 1300.330
777.5084, 1304.191
777.9905, 1314.013
778.4727, 1315.523
778.9548, 1309.031
779.4369, 1300.222
779.9190, 1292.127
780.4011, 1284.345
780.8832, 1274.978
781.3654, 1264.121
781.8475, 1258.046
782.3296, 1264.276
782.8117, 1270.828
783.2938, 1271.106
783.7759, 1264.269
784.2581, 1261.808
784.7402, 1265.732
785.2223, 1267.848
785.7044, 1261.506
786.1865, 1248.621
786.6686, 1233.887
787.1508, 1217.573
787.6329, 1208.082
788.1150, 1218.580
788.5971, 1234.438
789.0792, 1242.042
789.5613, 1239.619
790.0435, 1232.609
790.5256, 1214.902
791.0077, 1199.422
791.4898, 1193.067
791.9719, 1196.921
792.4540, 1203.843
792.9362, 1215.062
793.4183, 1223.708
793.9004, 1222.035
794.3825, 1213.307
794.8646, 1206.738
795.3467, 1202.957
795.8289, 1199.318
796.3110, 1195.930
796.7931, 1190.563
797.2752, 1180.208
797.7573, 1162.377
798.2394, 1148.849
798.7216, 1138.056
799.2037, 1134.745
799.6858, 1145.810
800.1679, 1175.191
800.6500, 1186.521
801.1321, 1177.930
801.6143, 1164.221
802.0964, 1158.804
802.5785, 1157.881
803.0606, 1153.737
803.5427, 1145.298
804.0248, 1137.098
804.5070, 1130.090
804.9891, 1125.482
805.4712, 1124.657
805.9533, 1129.266
806.4354, 1132.807
806.9175, 1134.363
807.3997, 1136.120
807.8818, 1142.119
808.3639, 1152.008
808.8460, 1148.672
809.3281, 1130.502
809.8102, 1111.971
810.2924, 1106.912
810.7745, 1109.138
811.2566, 1110.685
811.7387, 1110.451
812.2208, 1109.974
812.7029, 1110.031
813.1851, 1109.961
813.6672, 1108.973
814.1493, 1106.315
814.6314, 1106.661
815.1135, 1111.590
815.5956, 1115.575
816.0778, 1113.899
816.5599, 1107.387
817.0420, 1098.703
817.5241, 1087.877
818.0062, 1078.877
818.4883, 1072.308
818.9705, 1070.493
819.4526, 1078.606
819.9347, 1099.374
820.4168, 1112.665
820.8989, 1109.885
821.3810, 1102.362
821.8632, 1094.196
822.3453, 1084.685
822.8274, 1083.405
823.3095, 1091.911
823.7916, 1099.394
824.2737, 1095.758
824.7559, 1085.385
825.2380, 1075.833
825.7201, 1067.774
826.2022, 1062.815
826.6843, 1061.603
827.1664, 1064.188
827.6486, 1073.264
828.1307, 1091.231
828.6128, 1097.346
829.0949, 1085.609
829.5770, 1072.377
830.0591, 1067.060
830.5413, 1068.791
831.0234, 1067.544
831.5055, 1063.340
831.9876, 1058.201
832.4697, 1051.914
832.9518, 1046.471
833.4340, 1045.396
833.9161, 1048.390
834.3982, 1048.645
834.8803, 1036.207
835.3624, 1028.276
835.8445, 1034.387
836.3267, 1053.646
836.8088, 1065.874
837.2909, 1070.578
837.7730, 1070.096
838.2551, 1064.263
838.7372, 1054.639
839.2194, 1041.830
839.7015, 1027.445
840.1836, 1020.782
840.6657, 1037.966
841.1478, 1054.901
841.6299, 1052.818
842.1121, 1034.071
842.5942, 1025.338
843.0763, 1033.113
843.5584, 1041.896
844.0405, 1046.817
844.5226, 1049.049
845.0048, 1055.408
845.4869, 1065.234
845.9690, 1068.322
846.4511, 1053.221
846.9332, 1034.148
847.4153, 1027.282
847.8975, 1029.204
848.3796, 1030.229
848.8617, 1027.719
849.3438, 1022.755
849.8259, 1010.763
850.3080, 997.7922
850.7902, 1003.674
851.2723, 1033.210
851.7544, 1051.175
852.2365, 1043.603
852.7186, 1025.427
853.2007, 1021.613
853.6829, 1029.016
854.1650, 1039.107
854.6471, 1052.471
855.1292, 1062.731
855.6113, 1064.745
856.0934, 1062.037
856.5756, 1061.684
857.0577, 1069.103
857.5398, 1066.980
858.0219, 1048.781
858.5040, 1027.447
858.9861, 1026.832
859.4683, 1043.027
859.9504, 1054.841
860.4325, 1056.413
860.9146, 1055.099
861.3967, 1058.268
861.8788, 1062.131
862.3610, 1061.808
862.8431, 1052.742
863.3252, 1045.383
863.8073, 1039.035
864.2894, 1036.244
864.7715, 1042.509
865.2537, 1058.811
865.7358, 1062.629
866.2179, 1050.948
866.7000, 1036.292
867.1821, 1031.117
867.6642, 1031.153
868.1464, 1030.064
868.6285, 1026.439
869.1106, 1024.896
869.5927, 1029.165
870.0748, 1034.516
870.5569, 1037.334
871.0391, 1036.725
871.5212, 1040.720
872.0033, 1051.058
872.4854, 1058.777
872.9675, 1052.443
873.4496, 1039.427
873.9318, 1039.952
874.4139, 1053.373
874.8960, 1064.607
875.3781, 1064.508
875.8602, 1059.649
876.3423, 1051.391
876.8245, 1040.330
877.3066, 1037.057
877.7887, 1045.184
878.2708, 1053.115
878.7529, 1056.677
879.2350, 1056.388
879.7172, 1052.133
880.1993, 1044.807
880.6814, 1039.703
881.1635, 1041.096
881.6456, 1044.546
882.1277, 1048.616
882.6099, 1052.172
883.0920, 1051.865
883.5741, 1042.315
884.0562, 1035.603
884.5383, 1034.724
885.0204, 1036.691
885.5026, 1033.842
885.9847, 1026.685
886.4668, 1023.616
886.9489, 1028.587
887.4310, 1034.927
887.9131, 1034.023
888.3953, 1029.991
888.8774, 1029.234
889.3595, 1039.490
889.8416, 1043.920
890.3237, 1037.251
890.8058, 1026.510
891.2880, 1017.552
891.7701, 1010.118
892.2522, 1009.877
892.7343, 1018.220
893.2164, 1027.923
893.6985, 1033.131
894.1807, 1034.151
894.6628, 1029.706
895.1449, 1018.332
895.6270, 1011.359
896.1091, 1017.521
896.5912, 1025.298
897.0734, 1027.605
897.5555, 1023.894
898.0376, 1020.704
898.5197, 1017.651
899.0018, 1017.684
899.4839, 1027.589
899.9661, 1040.107
900.4482, 1038.225
900.9303, 1024.351
901.4124, 1015.549
901.8945, 1026.352
902.3766, 1038.033
902.8588, 1041.068
903.3409, 1037.138
903.8230, 1034.412
904.3051, 1032.969
904.7872, 1032.467
905.2693, 1033.557
905.7515, 1034.526
906.2336, 1030.695
906.7157, 1023.747
907.1978, 1018.541
907.6799, 1016.551
908.1620, 1017.413
908.6442, 1024.790
909.1263, 1033.622
909.6084, 1035.676
910.0905, 1029.334
910.5726, 1018.712
911.0547, 1000.834
911.5369, 986.5051
912.0190, 994.8784
912.5011, 1018.082
912.9832, 1034.253
913.4653, 1039.509
913.9474, 1038.450
914.4296, 1028.405
914.9117, 1017.037
915.3938, 1011.209
915.8759, 1012.631
916.3580, 1013.899
916.8401, 1014.887
917.3223, 1015.991
917.8044, 1017.115
918.2865, 1018.568
918.7686, 1023.522
919.2507, 1031.172
919.7328, 1034.160
920.2150, 1019.286
920.6971, 1006.105
921.1792, 1010.725
921.6613, 1030.386
922.1434, 1039.324
922.6255, 1030.876
923.1077, 1026.540
923.5898, 1034.261
924.0719, 1047.968
924.5540, 1054.847
925.0361, 1055.452
925.5182, 1051.736
926.0004, 1042.318
926.4825, 1032.227
926.9646, 1021.489
927.4467, 1013.029
927.9288, 1011.957
928.4109, 1022.374
928.8931, 1032.415
929.3752, 1043.366
929.8573, 1049.919
930.3394, 1041.178
930.8215, 1022.739
931.3036, 1016.184
931.7858, 1024.745
932.2679, 1033.981
932.7500, 1033.452
933.2321, 1029.912
933.7142, 1027.800
934.1964, 1027.427
934.6785, 1031.363
935.1606, 1042.464
935.6427, 1050.694
936.1248, 1048.630
936.6069, 1040.233
937.0891, 1041.107
937.5712, 1048.973
938.0533, 1052.317
938.5354, 1040.947
939.0175, 1027.148
939.4996, 1013.465
939.9818, 1003.066
940.4639, 1005.329
940.9460, 1026.735
941.4281, 1043.879
941.9102, 1052.865
942.3923, 1055.226
942.8745, 1049.328
943.3566, 1038.873
943.8387, 1035.649
944.3208, 1044.423
944.8029, 1053.530
945.2850, 1057.589
945.7672, 1058.149
946.2493, 1055.823
946.7314, 1049.000
947.2135, 1047.655
947.6956, 1053.757
948.1777, 1058.664
948.6599, 1052.983
949.1420, 1041.750
949.6241, 1037.742
950.1062, 1040.499
950.5883, 1043.515
951.0704, 1042.193
951.5526, 1041.320
952.0347, 1044.923
952.5168, 1051.154
952.9989, 1052.361
953.4810, 1047.271
953.9631, 1042.992
954.4453, 1041.209
954.9274, 1041.889
955.4095, 1046.964
955.8916, 1054.175
956.3737, 1058.652
956.8558, 1057.736
957.3380, 1056.050
957.8201, 1056.697
958.3022, 1056.203
958.7843, 1050.388
959.2664, 1037.398
959.7485, 1029.106
960.2307, 1025.808
960.7128, 1027.611
961.1949, 1040.034
961.6770, 1054.897
962.1591, 1058.772
962.6412, 1051.510
963.1234, 1045.973
963.6055, 1050.385
964.0876, 1053.045
964.5697, 1049.633
965.0518, 1041.232
965.5339, 1031.857
966.0161, 1021.463
966.4982, 1011.309
966.9803, 998.9891
967.4624, 991.8130
967.9445, 1004.836
968.4266, 1027.043
968.9088, 1039.983
969.3909, 1031.421
969.8730, 1023.282
970.3551, 1015.543
970.8372, 1010.641
971.3193, 1012.390
971.8015, 1019.934
972.2836, 1026.133
972.7657, 1030.502
973.2478, 1030.580
973.7299, 1017.925
974.2120, 1005.101
974.6942, 1004.908
975.1763, 1018.328
975.6584, 1024.984
976.1405, 1021.581
976.6226, 1016.520
977.1047, 1011.604
977.5869, 1008.117
978.0690, 1012.344
978.5511, 1021.701
979.0332, 1026.488
979.5153, 1020.124
979.9974, 1012.170
980.4796, 1007.253
980.9617, 1004.029
981.4438, 999.8465
981.9259, 991.5515
982.4080, 994.1921
982.8901, 1011.974
983.3723, 1027.407
983.8544, 1016.876
984.3365, 993.6644
984.8186, 984.2086
985.3007, 990.3648
985.7828, 995.1824
986.2650, 985.7502
986.7471, 979.4327
987.2292, 986.6975
987.7113, 1003.552
988.1934, 1007.847
988.6755, 999.0804
989.1577, 989.1422
989.6398, 981.8966
990.1219, 976.8222
990.6040, 973.6301
991.0861, 972.1176
991.5682, 972.0162
992.0504, 976.4521
992.5325, 976.9034
993.0146, 969.6478
993.4967, 962.4653
993.9788, 964.0468
994.4609, 973.0886
994.9431, 979.0284
995.4252, 981.3014
995.9073, 978.6953
996.3894, 963.9130
996.8715, 949.3225
997.3536, 946.7369
997.8358, 955.1906
998.3179, 954.7369
998.8000, 940.2657
999.2821, 929.5692
999.7642, 928.8092
1000.246, 933.1863
1000.728, 933.0085
1001.211, 930.0732
1001.693, 929.1245
1002.175, 932.6060
1002.657, 936.0910
1003.139, 939.9974
1003.621, 941.2567
1004.103, 935.3358
1004.585, 918.8503
1005.068, 918.6839
1005.550, 936.9993
1006.032, 950.4000
1006.514, 931.7238
1006.996, 904.0847
1007.478, 900.1205
1007.960, 915.7858
1008.442, 922.1979
1008.924, 895.0948
1009.407, 879.6199
1009.889, 888.5135
1010.371, 910.4139
1010.853, 924.3019
1011.335, 930.3534
1011.817, 927.5635
1012.299, 914.1125
1012.781, 899.1218
1013.263, 884.6018
1013.746, 874.8495
1014.228, 876.1051
1014.710, 891.7245
1015.192, 899.8914
1015.674, 898.1095
1016.156, 897.0809
1016.638, 907.0476
1017.120, 920.5452
1017.603, 918.7870
1018.085, 905.7292
1018.567, 895.4189
1019.049, 896.9700
1019.531, 898.7592
1020.013, 898.9940
1020.495, 896.3753
1020.977, 886.0093
1021.459, 867.4736
1021.942, 861.0688
1022.424, 870.5527
1022.906, 882.7440
1023.388, 885.8400
1023.870, 885.2517
1024.352, 886.4222
1024.834, 890.1409
1025.316, 892.8854
1025.799, 895.5259
1026.281, 894.6149
1026.763, 886.0654
1027.245, 875.3458
1027.727, 882.1468
1028.209, 899.5534
1028.691, 903.2894
1029.173, 869.4988
1029.656, 843.1326
1030.138, 852.6182
1030.620, 875.5727
1031.102, 888.9540
1031.584, 891.9749
1032.066, 887.2428
1032.548, 873.6467
1033.030, 863.2559
1033.512, 870.4667
1033.995, 883.6312
1034.477, 889.5892
1034.959, 888.4275
1035.441, 885.1398
1035.923, 877.1727
1036.405, 872.8898
1036.887, 875.1430
1037.369, 880.4940
1037.851, 881.8658
1038.334, 880.4185
1038.816, 881.8926
1039.298, 889.2422
1039.780, 891.8310
1040.262, 877.4383
1040.744, 859.9739
1041.226, 850.6979
1041.708, 850.0616
1042.191, 850.8315
1042.673, 853.5543
1043.155, 853.0065
1043.637, 842.5132
1044.119, 830.4763
1044.601, 828.7507
1045.083, 834.5657
1045.565, 841.6127
1046.047, 848.2990
1046.530, 856.3686
1047.012, 868.4812
1047.494, 878.1814
1047.976, 875.7736
1048.458, 864.1522
1048.940, 857.6078
1049.422, 857.1090
1049.904, 857.9070
1050.386, 859.8176
1050.869, 859.4836
1051.351, 851.6060
1051.833, 839.3682
1052.315, 836.9653
1052.797, 846.0019
1053.279, 852.6078
1053.761, 852.7643
1054.243, 850.0075
1054.726, 845.8851
1055.208, 842.9881
1055.690, 846.1727
1056.172, 860.4384
1056.654, 866.9713
1057.136, 860.4685
1057.618, 853.5318
1058.100, 855.5008
1058.583, 862.7889
1059.065, 858.2742
1059.547, 845.0980
1060.029, 837.7621
1060.511, 850.6229
1060.993, 863.0897
1061.475, 864.6715
1061.957, 872.0059
1062.439, 875.6248
1062.922, 873.7010
1063.404, 875.8997
1063.886, 869.5319
1064.368, 859.3387
1064.850, 844.1072
1065.332, 830.9804
1065.814, 828.9134
1066.296, 837.5838
1066.778, 844.6965
1067.261, 850.0201
1067.743, 851.6642
1068.225, 848.3958
1068.707, 842.4774
1069.189, 836.3976
1069.671, 831.2531
1070.153, 829.6428
1070.635, 832.2261
1071.118, 838.3551
1071.600, 853.7589
1072.082, 866.7126
1072.564, 870.0433
1073.046, 864.4309
1073.528, 855.9841
1074.010, 845.3429
1074.492, 840.9228
1074.974, 857.0421
1075.457, 869.9395
1075.939, 854.2366
1076.421, 826.0458
1076.903, 813.3099
1077.385, 822.3685
1077.867, 832.1857
1078.349, 842.8871
1078.831, 849.6832
1079.313, 843.3407
1079.796, 832.8577
1080.278, 834.3655
1080.760, 846.3057
1081.242, 852.6136
1081.724, 839.4819
1082.206, 832.5114
1082.688, 839.8967
1083.170, 852.1990
1083.652, 847.6848
1084.135, 832.5914
1084.617, 834.3541
1085.099, 861.1540
1085.581, 881.2675
1086.063, 871.8815
1086.545, 853.2381
1087.027, 835.2441
1087.509, 818.9815
1087.992, 814.7237
1088.474, 822.5754
1088.956, 834.1533
1089.438, 850.0372
1089.920, 861.2946
1090.402, 854.3640
1090.884, 839.5992
1091.366, 831.3686
1091.849, 833.9561
1092.331, 837.2585
1092.813, 842.3011
1093.295, 844.5773
1093.777, 836.9599
1094.259, 826.1833
1094.741, 827.5104
1095.223, 837.1944
1095.705, 841.7351
1096.188, 822.3785
1096.670, 817.9402
1097.152, 842.6791
1097.634, 873.4827
1098.116, 880.3212
1098.598, 866.9812
1099.080, 847.5668
1099.562, 823.5963
1100.044, 807.3317
1100.527, 810.4584
1101.009, 819.3827
1101.491, 827.8878
1101.973, 835.9940
1102.455, 845.6172
1102.937, 856.9139
1103.419, 859.6644
1103.901, 849.2259
1104.384, 838.1368
1104.866, 843.1862
1105.348, 850.7652
1105.830, 845.1801
1106.312, 822.6860
1106.794, 808.1740
1107.276, 802.7932
1107.758, 800.7144
1108.240, 798.9128
1108.723, 799.2450
1109.205, 806.6744
1109.687, 817.9807
1110.169, 827.0652
1110.651, 832.7302
1111.133, 834.8337
1111.615, 832.4644
1112.097, 828.5986
1112.579, 825.1554
1113.062, 822.1130
1113.544, 817.9464
1114.026, 813.6364
1114.508, 814.0776
1114.990, 829.4825
1115.472, 840.1849
1115.954, 838.3250
1116.436, 830.0378
1116.919, 819.6133
1117.401, 807.9194
1117.883, 812.3851
1118.365, 834.5565
1118.847, 851.9107
1119.329, 844.4984
1119.811, 830.4489
1120.293, 818.0449
1120.776, 809.1017
1121.258, 810.2304
1121.740, 822.9305
1122.222, 830.0908
1122.704, 826.9835
1123.186, 822.5164
1123.668, 826.6730
1124.150, 833.7971
1124.632, 838.8331
1125.115, 841.0914
1125.597, 837.4641
1126.079, 825.2517
1126.561, 816.4845
1127.043, 817.0294
1127.525, 821.3271
1128.007, 818.6444
1128.489, 813.6307
1128.971, 815.0842
1129.454, 829.4482
1129.936, 838.2745
1130.418, 837.9794
1130.900, 835.8402
1131.382, 835.9706
1131.864, 837.7482
1132.346, 840.3866
1132.828, 843.1063
1133.311, 843.3415
1133.793, 837.3052
1134.275, 832.1726
1134.757, 829.9361
1135.239, 828.6793
1135.721, 826.1469
1136.203, 822.7529
1136.685, 822.8737
1137.167, 826.2206
1137.650, 828.5237
1138.132, 825.3459
1138.614, 822.5326
1139.096, 822.4450
1139.578, 824.8451
1140.060, 831.2914
1140.542, 842.0699
1141.024, 844.2654
1141.506, 836.1707
1141.989, 826.8475
1142.471, 818.4481
1142.953, 816.0172
1143.435, 830.0818
1143.917, 854.6158
1144.399, 860.2020
1144.881, 843.9220
1145.363, 827.4003
1145.846, 814.8566
1146.328, 806.4749
1146.810, 804.6749
1147.292, 806.0006
1147.774, 806.1376
1148.256, 804.3977
1148.738, 808.5752
1149.220, 821.4045
1149.703, 830.1588
1150.185, 828.9473
1150.667, 824.3611
1151.149, 826.1075
1151.631, 831.2127
1152.113, 834.2581
1152.595, 831.8939
1153.077, 837.3720
1153.559, 857.6754
1154.042, 870.6464
1154.524, 860.6195
1155.006, 838.9232
1155.488, 829.4977
1155.970, 829.0453
1156.452, 830.3193
1156.934, 835.8915
1157.416, 832.8471
1157.898, 814.3429
1158.381, 796.6006
1158.863, 791.9797
1159.345, 798.2366
1159.827, 810.9583
1160.309, 827.2776
1160.791, 835.3303
1161.273, 817.0701
1161.755, 806.9601
1162.238, 819.4017
1162.720, 836.7017
1163.202, 838.4971
1163.684, 827.6876
1164.166, 823.8210
1164.648, 827.0593
1165.130, 830.2750
1165.612, 831.5511
1166.094, 829.3150
1166.577, 821.0065
1167.059, 810.1638
1167.541, 801.0633
1168.023, 793.9109
1168.505, 792.4439
1168.987, 797.0325
1169.469, 805.3115
1169.951, 822.2704
1170.433, 835.8502
1170.916, 834.8164
1171.398, 825.9662
1171.880, 828.3798
1172.362, 841.7997
1172.844, 842.6465
1173.326, 824.6501
1173.808, 808.2581
1174.290, 813.5967
1174.773, 824.8348
1175.255, 829.0402
1175.737, 827.7113
1176.219, 831.9215
1176.701, 842.2360
1177.183, 846.0916
1177.665, 838.7733
1178.147, 828.8443
1178.630, 819.7491
1179.112, 815.4043
1179.594, 823.5934
1180.076, 844.2564
1180.558, 850.2850
1181.040, 839.9927
1181.522, 832.2695
1182.004, 835.7853
1182.486, 841.6756
1182.969, 840.7833
1183.451, 836.5045
1183.933, 832.2347
1184.415, 827.7545
1184.897, 828.3339
1185.379, 835.0955
1185.861, 839.6781
1186.343, 836.9401
1186.825, 831.0199
1187.308, 823.4752
1187.790, 817.3241
1188.272, 818.5822
1188.754, 833.2441
1189.236, 837.6365
1189.718, 829.4858
1190.200, 822.7117
1190.682, 831.1203
1191.165, 841.9919
1191.647, 836.4887
1192.129, 821.5250
1192.611, 810.8058
1193.093, 806.0232
1193.575, 809.1912
1194.057, 823.1285
1194.539, 833.6298
1195.021, 823.8187
1195.504, 808.0040
1195.986, 803.5614
1196.468, 809.6937
1196.950, 824.4587
1197.432, 860.2654
1197.914, 873.6688
1198.396, 857.4226
1198.878, 835.3384
1199.360, 831.0369
1199.843, 834.4324
1200.325, 830.0307
1200.807, 819.9839
1201.289, 815.9012
1201.771, 823.0387
1202.253, 828.6438
1202.735, 831.1552
1203.217, 832.4597
1203.700, 837.1184
1204.182, 840.4098
1204.664, 835.1241
1205.146, 821.5519
1205.628, 803.1273
1206.110, 768.5121
1206.592, 757.8166
1207.074, 782.1879
1207.557, 817.9833
1208.039, 842.2239
1208.521, 855.1755
1209.003, 853.8369
1209.485, 839.0872
1209.967, 827.4842
1210.449, 821.1732
1210.931, 818.0699
1211.413, 818.4077
1211.896, 819.9132
1212.378, 819.2562
1212.860, 817.9183
1213.342, 818.8348
1213.824, 817.1854
1214.306, 822.2560
1214.788, 816.0538
1215.270, 812.2457
1215.752, 813.6578
1216.235, 816.9540
1216.717, 816.5021
1217.199, 815.2786
1217.681, 820.4631
1218.163, 834.0795
1218.645, 831.7559
1219.127, 804.2646
1219.609, 785.4522
1220.092, 787.7526
1220.574, 799.4848
1221.056, 805.9979
1221.538, 809.2532
1222.020, 812.3120
1222.502, 815.8581
1222.984, 815.4387
1223.466, 808.8617
1223.948, 805.6813
1224.431, 810.9269
1224.913, 818.0547
1225.395, 817.7022
1225.877, 813.0411
1226.359, 807.2453
1226.841, 799.5219
1227.323, 801.2513
1227.805, 816.2595
1228.287, 824.6270
1228.770, 815.3370
1229.252, 800.3130
1229.734, 793.5573
1230.216, 792.5818
1230.698, 794.9244
1231.180, 801.2600
1231.662, 804.6454
1232.144, 804.1804
1232.627, 806.5535
1233.109, 817.8210
1233.591, 828.3221
1234.073, 823.0667
1234.555, 811.7197
1235.037, 808.5140
1235.519, 817.0569
1236.001, 817.7791
1236.484, 809.6434
1236.966, 803.1292
1237.448, 804.7675
1237.930, 808.4026
1238.412, 807.3406
1238.894, 804.6943
1239.376, 805.5919
1239.858, 811.4863
1240.340, 809.2471
1240.823, 798.3316
1241.305, 792.0027
1241.787, 799.4724
1242.269, 811.3026
1242.751, 822.3209
1243.233, 831.2584
1243.715, 836.6449
1244.197, 838.5247
1244.679, 837.1489
1245.162, 832.5204
1245.644, 825.0734
1246.126, 811.0929
1246.608, 799.5538
1247.090, 798.6517
1247.572, 802.0944
1248.054, 802.4573
1248.536, 799.6443
1249.019, 795.3083
1249.501, 790.1536
1249.983, 791.9647
1250.465, 815.2758
1250.947, 833.7960
1251.429, 830.3468
1251.911, 818.1994
1252.393, 807.8707
1252.875, 799.5233
1253.358, 797.1019
1253.840, 799.9771
1254.322, 803.8835
1254.804, 809.3578
1255.286, 811.8085
1255.768, 808.7861
1256.250, 803.0333
1256.732, 793.4617
1257.214, 782.4634
1257.697, 789.0719
1258.179, 809.1595
1258.661, 823.3840
1259.143, 816.5801
1259.625, 812.5679
1260.107, 817.8236
1260.589, 823.9045
1261.071, 822.2985
1261.554, 816.0916
1262.036, 815.5268
1262.518, 819.1890
1263.000, 821.9773
1263.482, 825.1585
1263.964, 820.6691
1264.446, 803.0521
1264.928, 789.1808
1265.411, 797.7232
1265.893, 817.3190
1266.375, 827.5676
1266.857, 830.3549
1267.339, 831.4245
1267.821, 835.6218
1268.303, 829.8000
1268.785, 810.4768
1269.267, 793.2864
1269.750, 795.3572
1270.232, 803.2083
1270.714, 796.6364
1271.196, 782.4792
1271.678, 777.5623
1272.160, 785.6510
1272.642, 796.4542
1273.124, 810.7952
1273.606, 818.1599
1274.089, 802.0698
1274.571, 784.1765
1275.053, 787.7054
1275.535, 801.5390
1276.017, 804.5322
1276.499, 793.4296
1276.981, 791.2519
1277.463, 798.3371
1277.946, 806.8260
1278.428, 814.6728
1278.910, 818.8466
1279.392, 813.7083
1279.874, 806.2301
1280.356, 805.0258
1280.838, 809.9295
1281.320, 812.9078
1281.802, 813.7880
1282.285, 812.4720
1282.767, 806.5195
1283.249, 801.3692
1283.731, 798.0248
1284.213, 797.2816
1284.695, 801.6216
1285.177, 809.3615
1285.659, 811.1744
1286.141, 808.6758
1286.624, 808.6852
1287.106, 820.3561
1287.588, 824.8246
1288.070, 817.9880
1288.552, 807.9109
1289.034, 798.8553
1289.516, 792.5140
1289.998, 794.4272
1290.481, 802.1130
1290.963, 809.2743
1291.445, 817.6733
1291.927, 816.7089
1292.409, 802.8903
1292.891, 793.3362
1293.373, 809.3928
1293.855, 829.2984
1294.338, 821.2998
1294.820, 798.0433
1295.302, 783.6570
1295.784, 781.1722
1296.266, 781.8116
1296.748, 785.7207
1297.230, 790.1330
1297.712, 793.3675
1298.194, 796.4435
1298.677, 803.1621
1299.159, 807.8672
1299.641, 802.8167
1300.123, 787.6071
1300.605, 777.1967
1301.087, 771.9859
1301.569, 776.1580
1302.051, 799.4091
1302.533, 820.0665
1303.016, 830.9244
##END=



