##NAMES=Cervantite
##RRUFFID=R060667
##IDEAL CHEMISTRY=Sb^3+^Sb^5+^O_4_
##LOCALITY=Touliac, Cantal, France
##OWNER=RRUFF
##SOURCE=Michael Scott
##DESCRIPTION=Tan colored massive, spongelike, associated with quartz and romeite
##STATUS=The identification of this mineral has been confirmed by X-ray diffraction.
##URL=rruff.info/R060667
139.366, 4345.019
139.848, 4575.391
140.330, 4827.171
140.812, 5091.387
141.294, 5376.260
141.776, 5662.963
142.258, 5969.377
142.741, 6272.883
143.223, 6547.571
143.705, 6782.398
144.187, 6977.291
144.669, 7133.135
145.151, 7226.074
145.633, 7308.837
146.115, 7391.573
146.598, 7470.569
147.080, 7541.115
147.562, 7601.679
148.044, 7650.129
148.526, 7668.498
149.008, 7641.551
149.490, 7608.285
149.972, 7580.326
150.454, 7555.299
150.936, 7526.501
151.419, 7490.041
151.901, 7446.258
152.383, 7400.981
152.865, 7347.351
153.347, 7298.952
153.829, 7264.230
154.311, 7240.358
154.794, 7216.626
155.276, 7183.938
155.758, 7145.549
156.240, 7125.366
156.722, 7127.036
157.204, 7141.369
157.686, 7165.975
158.168, 7199.831
158.650, 7238.530
159.133, 7277.792
159.615, 7319.727
160.097, 7373.801
160.579, 7437.574
161.061, 7514.356
161.543, 7616.676
162.025, 7741.686
162.507, 7855.782
162.990, 7925.116
163.472, 7958.868
163.954, 8027.018
164.436, 8163.354
164.918, 8313.426
165.400, 8430.504
165.882, 8512.705
166.364, 8591.086
166.846, 8693.007
167.329, 8811.080
167.811, 8911.210
168.293, 8973.410
168.775, 9025.949
169.257, 9094.973
169.739, 9181.879
170.221, 9278.796
170.703, 9389.312
171.185, 9507.067
171.668, 9609.193
172.150, 9676.197
172.632, 9734.077
173.114, 9809.587
173.596, 9904.719
174.078, 10012.480
174.560, 10123.450
175.042, 10242.880
175.525, 10387.870
176.007, 10575.880
176.489, 10785.640
176.971, 10983.300
177.453, 11163.190
177.935, 11361.630
178.417, 11613.650
178.899, 11906.640
179.381, 12210.740
179.863, 12508.890
180.346, 12817.460
180.828, 13161.420
181.310, 13541.740
181.792, 13949.180
182.274, 14368.880
182.756, 14808.820
183.238, 15295.620
183.721, 15841.470
184.203, 16435.520
184.685, 17072.010
185.167, 17751.170
185.649, 18454.250
186.131, 19155.971
186.613, 19871.439
187.095, 20639.680
187.577, 21495.199
188.059, 22404.131
188.542, 23300.930
189.024, 24177.340
189.506, 25083.570
189.988, 26064.340
190.470, 27102.850
190.952, 28175.270
191.434, 29270.631
191.917, 30402.211
192.399, 31602.100
192.881, 32889.270
193.363, 34195.590
193.845, 35498.180
194.327, 36794.102
194.809, 38064.461
195.291, 39361.730
195.773, 40610.148
196.255, 41700.309
196.738, 42639.559
197.220, 43405.590
197.702, 43980.949
198.184, 44376.949
198.666, 44556.070
199.148, 44503.551
199.630, 44233.270
200.112, 43749.578
200.595, 43036.020
201.077, 42178.012
201.559, 41170.949
202.041, 40056.180
202.523, 38855.449
203.005, 37561.020
203.487, 36202.301
203.969, 34801.988
204.452, 33351.789
204.934, 31917.850
205.416, 30522.670
205.898, 29167.289
206.380, 27873.170
206.862, 26630.869
207.344, 25455.949
207.826, 24375.561
208.308, 23392.480
208.790, 22474.760
209.273, 21624.439
209.755, 20833.510
210.237, 20096.279
210.719, 19419.221
211.201, 18791.840
211.683, 18208.910
212.165, 17672.840
212.648, 17180.211
213.130, 16739.750
213.612, 16344.570
214.094, 15988.820
214.576, 15677.460
215.058, 15394.730
215.540, 15120.000
216.022, 14853.790
216.504, 14621.810
216.986, 14451.520
217.469, 14312.640
217.951, 14161.250
218.433, 13987.770
218.915, 13818.490
219.397, 13676.650
219.879, 13560.390
220.361, 13453.410
220.844, 13368.640
221.326, 13274.340
221.808, 13128.300
222.290, 12917.640
222.772, 12694.420
223.254, 12494.270
223.736, 12313.290
224.218, 12132.500
224.700, 11953.270
225.182, 11764.130
225.665, 11546.620
226.147, 11291.370
226.629, 11055.060
227.111, 10877.450
227.593, 10745.660
228.075, 10615.730
228.557, 10473.540
229.040, 10335.710
229.522, 10224.600
230.004, 10140.570
230.486, 10063.840
230.968, 9987.637
231.450, 9912.723
231.932, 9838.086
232.414, 9759.470
232.896, 9691.107
233.378, 9653.301
233.861, 9643.518
234.343, 9641.585
234.825, 9646.993
235.307, 9654.634
235.789, 9654.549
236.271, 9643.647
236.753, 9631.983
237.235, 9628.971
237.718, 9633.983
238.200, 9647.288
238.682, 9684.419
239.164, 9722.583
239.646, 9729.395
240.128, 9700.026
240.610, 9667.785
241.092, 9666.760
241.574, 9694.357
242.057, 9701.631
242.539, 9664.086
243.021, 9619.169
243.503, 9603.262
243.985, 9615.963
244.467, 9625.499
244.949, 9607.751
245.431, 9563.685
245.913, 9523.119
246.396, 9476.601
246.878, 9441.580
247.360, 9437.399
247.842, 9457.517
248.324, 9472.210
248.806, 9460.595
249.288, 9429.216
249.770, 9418.671
250.253, 9426.230
250.735, 9453.291
251.217, 9510.619
251.699, 9587.933
252.181, 9661.355
252.663, 9717.277
253.145, 9763.164
253.627, 9826.605
254.109, 9910.199
254.592, 10004.810
255.074, 10113.770
255.556, 10231.290
256.038, 10351.080
256.520, 10471.020
257.002, 10588.100
257.484, 10697.130
257.966, 10801.170
258.449, 10889.950
258.931, 10971.630
259.413, 11033.880
259.895, 11063.130
260.377, 11056.220
260.859, 11022.280
261.341, 10975.020
261.823, 10919.830
262.306, 10834.280
262.788, 10704.820
263.270, 10558.250
263.752, 10406.760
264.234, 10255.480
264.716, 10109.300
265.198, 9974.613
265.680, 9851.608
266.162, 9737.554
266.645, 9628.417
267.127, 9530.284
267.609, 9453.451
268.091, 9391.315
268.573, 9326.502
269.055, 9243.198
269.537, 9141.630
270.019, 9052.048
270.501, 8981.504
270.984, 8917.141
271.466, 8858.048
271.948, 8802.901
272.430, 8748.989
272.912, 8692.872
273.394, 8639.006
273.876, 8606.540
274.358, 8618.358
274.841, 8616.956
275.323, 8584.203
275.805, 8535.656
276.287, 8485.652
276.769, 8439.565
277.251, 8399.612
277.733, 8370.078
278.215, 8351.810
278.698, 8341.865
279.180, 8348.150
279.662, 8356.979
280.144, 8357.771
280.626, 8348.143
281.108, 8334.574
281.590, 8327.709
282.072, 8328.986
282.554, 8314.264
283.036, 8267.389
283.519, 8213.286
284.001, 8169.897
284.483, 8136.992
284.965, 8102.419
285.447, 8052.924
285.929, 7993.241
286.411, 7945.124
286.893, 7911.207
287.376, 7888.433
287.858, 7882.736
288.340, 7887.667
288.822, 7880.504
289.304, 7834.699
289.786, 7777.682
290.268, 7761.331
290.750, 7795.448
291.233, 7824.237
291.715, 7803.453
292.197, 7749.280
292.679, 7703.905
293.161, 7677.868
293.643, 7658.834
294.125, 7633.901
294.607, 7605.097
295.089, 7589.146
295.572, 7599.784
296.054, 7625.370
296.536, 7631.878
297.018, 7605.349
297.500, 7584.140
297.982, 7588.006
298.464, 7607.416
298.946, 7624.613
299.428, 7633.645
299.911, 7636.654
300.393, 7637.010
300.875, 7634.192
301.357, 7629.747
301.839, 7625.291
302.321, 7618.426
302.803, 7603.379
303.285, 7580.175
303.767, 7559.890
304.250, 7555.826
304.732, 7573.302
305.214, 7583.262
305.696, 7578.344
306.178, 7573.758
306.660, 7581.890
307.142, 7598.426
307.625, 7608.826
308.107, 7601.741
308.589, 7578.199
309.071, 7554.552
309.553, 7533.055
310.035, 7508.994
310.517, 7473.807
310.999, 7437.676
311.481, 7416.183
311.964, 7417.510
312.446, 7432.144
312.928, 7437.677
313.410, 7433.921
313.892, 7420.513
314.374, 7387.491
314.856, 7352.669
315.338, 7331.311
315.820, 7326.404
316.303, 7327.208
316.785, 7320.457
317.267, 7304.862
317.749, 7293.936
318.231, 7290.125
318.713, 7290.598
319.195, 7276.167
319.677, 7257.949
320.159, 7249.627
320.642, 7257.468
321.124, 7261.386
321.606, 7261.591
322.088, 7246.963
322.570, 7251.488
323.052, 7248.338
323.534, 7244.873
324.016, 7252.095
324.499, 7239.624
324.981, 7245.628
325.463, 7254.302
325.945, 7274.527
326.427, 7295.813
326.909, 7317.529
327.391, 7334.007
327.873, 7332.914
328.355, 7303.153
328.838, 7279.809
329.320, 7285.815
329.802, 7308.381
330.284, 7321.146
330.766, 7315.421
331.248, 7303.099
331.730, 7301.472
332.212, 7314.848
332.694, 7323.873
333.177, 7324.871
333.659, 7322.837
334.141, 7321.980
334.623, 7322.545
335.105, 7321.226
335.587, 7313.311
336.069, 7297.937
336.552, 7301.493
337.034, 7342.498
337.516, 7379.795
337.998, 7401.297
338.480, 7410.198
338.962, 7412.013
339.444, 7409.043
339.926, 7404.607
340.408, 7408.950
340.891, 7427.784
341.373, 7446.215
341.855, 7464.188
342.337, 7480.144
342.819, 7488.230
343.301, 7488.813
343.783, 7495.402
344.265, 7530.344
344.747, 7598.964
345.230, 7648.470
345.712, 7662.633
346.194, 7669.581
346.676, 7683.023
347.158, 7701.684
347.640, 7719.227
348.122, 7732.878
348.604, 7742.653
349.086, 7745.991
349.569, 7739.148
350.051, 7739.333
350.533, 7769.433
351.015, 7809.113
351.497, 7823.908
351.979, 7793.504
352.461, 7760.762
352.944, 7764.784
353.426, 7797.257
353.908, 7822.062
354.390, 7827.662
354.872, 7818.351
355.354, 7796.465
355.836, 7758.570
356.318, 7727.997
356.800, 7717.822
357.283, 7713.754
357.765, 7696.812
358.247, 7665.375
358.729, 7637.189
359.211, 7630.094
359.693, 7646.482
360.175, 7654.538
360.657, 7642.866
361.139, 7636.036
361.622, 7650.515
362.104, 7676.407
362.586, 7692.739
363.068, 7687.729
363.550, 7669.525
364.032, 7662.609
364.514, 7673.342
364.996, 7685.809
365.478, 7700.892
365.961, 7715.451
366.443, 7727.151
366.925, 7735.490
367.407, 7741.311
367.889, 7744.138
368.371, 7743.547
368.853, 7746.412
369.335, 7751.495
369.818, 7762.257
370.300, 7779.863
370.782, 7803.868
371.264, 7833.524
371.746, 7873.069
372.228, 7914.660
372.710, 7943.190
373.192, 7956.672
373.674, 7972.915
374.157, 8003.750
374.639, 8040.032
375.121, 8064.050
375.603, 8066.987
376.085, 8078.756
376.567, 8122.249
377.049, 8184.791
377.531, 8240.727
378.013, 8283.755
378.496, 8319.039
378.978, 8349.381
379.460, 8370.985
379.942, 8411.233
380.424, 8488.251
380.906, 8569.199
381.388, 8623.453
381.871, 8660.560
382.353, 8717.739
382.835, 8821.359
383.317, 8961.104
383.799, 9079.492
384.281, 9129.284
384.763, 9218.358
385.245, 9377.937
385.727, 9569.724
386.210, 9755.480
386.692, 9925.125
387.174, 10095.230
387.656, 10279.260
388.138, 10474.190
388.620, 10711.020
389.102, 11019.060
389.584, 11343.280
390.066, 11654.610
390.549, 11961.810
391.031, 12284.380
391.513, 12633.800
391.995, 13006.010
392.477, 13394.920
392.959, 13797.360
393.441, 14229.360
393.923, 14714.580
394.405, 15226.680
394.888, 15727.330
395.370, 16222.030
395.852, 16682.631
396.334, 17079.301
396.816, 17430.779
397.298, 17781.100
397.780, 18142.570
398.263, 18473.779
398.745, 18739.891
399.227, 18937.779
399.709, 19030.650
400.191, 18989.350
400.673, 18876.211
401.155, 18717.289
401.637, 18513.080
402.119, 18248.250
402.602, 17912.430
403.084, 17525.830
403.566, 17158.369
404.048, 16830.590
404.530, 16483.510
405.012, 16094.790
405.494, 15698.750
405.976, 15317.450
406.458, 14953.460
406.941, 14608.870
407.423, 14281.180
407.905, 13971.100
408.387, 13693.920
408.869, 13454.760
409.351, 13242.520
409.833, 13056.040
410.315, 12889.820
410.797, 12735.670
411.280, 12592.140
411.762, 12457.990
412.244, 12335.180
412.726, 12222.110
413.208, 12107.790
413.690, 11988.770
414.172, 11867.230
414.654, 11743.410
415.137, 11613.180
415.619, 11500.050
416.101, 11424.640
416.583, 11356.900
417.065, 11265.340
417.547, 11150.830
418.029, 11038.710
418.511, 10949.040
418.993, 10878.290
419.476, 10793.780
419.958, 10671.750
420.440, 10563.830
420.922, 10495.640
421.404, 10436.030
421.886, 10345.480
422.368, 10214.760
422.850, 10077.510
423.332, 9981.482
423.815, 9933.756
424.297, 9870.966
424.779, 9769.369
425.261, 9678.072
425.743, 9633.688
426.225, 9617.190
426.707, 9581.316
427.190, 9487.675
427.672, 9383.581
428.154, 9306.458
428.636, 9257.993
429.118, 9238.694
429.600, 9231.670
430.082, 9221.662
430.564, 9208.839
431.046, 9184.751
431.529, 9175.209
432.011, 9159.837
432.493, 9144.226
432.975, 9136.728
433.457, 9119.688
433.939, 9112.659
434.421, 9104.983
434.903, 9096.848
435.385, 9090.513
435.868, 9085.285
436.350, 9082.854
436.832, 9085.720
437.314, 9090.537
437.796, 9089.674
438.278, 9082.173
438.760, 9081.710
439.242, 9111.022
439.724, 9174.140
440.207, 9225.615
440.689, 9260.215
441.171, 9286.668
441.653, 9299.658
442.135, 9309.011
442.617, 9337.030
443.099, 9399.044
443.581, 9475.544
444.064, 9547.287
444.546, 9613.967
445.028, 9671.515
445.510, 9714.067
445.992, 9752.843
446.474, 9807.462
446.956, 9880.589
447.438, 9950.941
447.921, 10007.410
448.403, 10065.690
448.885, 10138.380
449.367, 10225.590
449.849, 10320.210
450.331, 10418.040
450.813, 10519.540
451.295, 10629.140
451.777, 10755.280
452.259, 10878.710
452.742, 10991.230
453.224, 11104.180
453.706, 11230.070
454.188, 11369.600
454.670, 11512.740
455.152, 11646.070
455.634, 11772.080
456.116, 11916.400
456.599, 12089.260
457.081, 12260.940
457.563, 12425.750
458.045, 12576.760
458.527, 12698.250
459.009, 12776.630
459.491, 12845.080
459.973, 12941.060
460.456, 13043.160
460.938, 13098.040
461.420, 13090.650
461.902, 13046.650
462.384, 12996.360
462.866, 12943.400
463.348, 12851.790
463.830, 12716.770
464.312, 12552.180
464.795, 12356.290
465.277, 12137.270
465.759, 11903.550
466.241, 11657.520
466.723, 11410.970
467.205, 11188.030
467.687, 10997.000
468.169, 10800.580
468.651, 10591.880
469.134, 10380.390
469.616, 10157.570
470.098, 9933.852
470.580, 9737.853
471.062, 9593.804
471.544, 9478.714
472.026, 9357.140
472.508, 9229.457
472.991, 9112.696
473.473, 9019.686
473.955, 8934.926
474.437, 8824.378
474.919, 8675.207
475.401, 8553.999
475.883, 8489.649
476.365, 8445.300
476.848, 8393.188
477.330, 8330.819
477.812, 8262.106
478.294, 8187.569
478.776, 8112.592
479.258, 8063.232
479.740, 8060.843
480.222, 8049.333
480.704, 8009.818
481.186, 7968.421
481.669, 7948.410
482.151, 7950.391
482.633, 7954.112
483.115, 7941.717
483.597, 7918.303
484.079, 7900.828
484.561, 7890.147
485.043, 7882.092
485.526, 7872.498
486.008, 7865.291
486.490, 7869.505
486.972, 7893.678
487.454, 7909.629
487.936, 7894.897
488.418, 7871.191
488.900, 7868.238
489.383, 7889.200
489.865, 7916.122
490.347, 7933.871
490.829, 7942.826
491.311, 7952.543
491.793, 7959.204
492.275, 7971.523
492.757, 7993.087
493.239, 8019.702
493.722, 8045.884
494.204, 8070.930
494.686, 8100.493
495.168, 8147.304
495.650, 8206.740
496.132, 8243.299
496.614, 8247.212
497.096, 8250.701
497.578, 8269.885
498.061, 8303.080
498.543, 8347.278
499.025, 8406.549
499.507, 8469.052
499.989, 8526.476
500.471, 8584.199
500.953, 8652.863
501.435, 8733.895
501.918, 8815.230
502.400, 8884.011
502.882, 8940.000
503.364, 9001.117
503.846, 9032.115
504.328, 9110.969
504.810, 9214.169
505.292, 9352.253
505.775, 9481.875
506.257, 9603.477
506.739, 9693.069
507.221, 9824.019
507.703, 9938.386
508.185, 10060.950
508.667, 10118.460
509.149, 10218.340
509.631, 10332.800
510.114, 10456.790
510.596, 10575.820
511.078, 10679.670
511.560, 10794.310
512.042, 10943.730
512.524, 11107.150
513.006, 11251.590
513.488, 11371.180
513.971, 11484.640
514.453, 11607.870
514.935, 11741.060
515.417, 11881.220
515.899, 12035.830
516.381, 12187.400
516.863, 12335.780
517.345, 12477.220
517.827, 12609.980
518.310, 12732.580
518.792, 12844.290
519.274, 12938.110
519.756, 13018.200
520.238, 13108.100
520.720, 13214.690
521.202, 13306.110
521.684, 13368.360
522.166, 13397.560
522.649, 13392.010
523.131, 13344.070
523.613, 13275.300
524.095, 13182.540
524.577, 13078.050
525.059, 12980.720
525.541, 12889.920
526.023, 12781.410
526.505, 12627.280
526.988, 12438.800
527.470, 12305.890
527.952, 12272.630
528.434, 12222.700
528.916, 12133.250
529.398, 12020.120
529.880, 11911.620
530.362, 11805.370
530.844, 11642.010
531.327, 11326.150
531.809, 10940.860
532.291, 10658.160
532.773, 10484.540
533.255, 10333.510
533.737, 10159.350
534.219, 9981.754
534.701, 9861.951
535.184, 9869.492
535.666, 9779.200
536.148, 9464.249
536.630, 9126.035
537.112, 8919.726
537.594, 8832.229
538.076, 8768.498
538.558, 8668.861
539.041, 8550.154
539.523, 8460.392
540.005, 8409.147
540.487, 8348.656
540.969, 8254.740
541.451, 8163.203
541.933, 8108.650
542.415, 8084.005
542.898, 8045.278
543.380, 7963.235
543.862, 7871.510
544.344, 7792.176
544.826, 7727.949
545.308, 7690.408
545.790, 7686.106
546.272, 7691.224
546.754, 7669.008
547.237, 7609.354
547.719, 7560.121
548.201, 7516.575
548.683, 7487.166
549.165, 7488.756
549.647, 7502.339
550.129, 7496.284
550.611, 7457.611
551.093, 7413.032
551.576, 7395.073
552.058, 7400.257
552.540, 7404.341
553.022, 7404.811
553.504, 7402.891
553.986, 7397.793
554.468, 7390.886
554.950, 7388.118
555.432, 7388.428
555.915, 7394.357
556.397, 7414.329
556.879, 7436.201
557.361, 7446.242
557.843, 7442.618
558.325, 7431.235
558.807, 7415.524
559.289, 7397.142
559.771, 7386.765
560.254, 7384.313
560.736, 7390.015
561.218, 7419.716
561.700, 7447.102
562.182, 7445.452
562.664, 7414.254
563.146, 7388.529
563.628, 7392.327
564.111, 7405.614
564.593, 7404.503
565.075, 7390.438
565.557, 7375.922
566.039, 7366.790
566.521, 7358.758
567.003, 7343.640
567.485, 7318.646
567.968, 7293.500
568.450, 7264.519
568.932, 7239.212
569.414, 7221.642
569.896, 7209.962
570.378, 7202.208
570.860, 7198.649
571.342, 7192.822
571.825, 7163.858
572.307, 7177.482
572.789, 7180.768
573.271, 7174.272
573.753, 7128.699
574.235, 7133.588
574.717, 7118.250
575.199, 7102.087
575.681, 7114.078
576.164, 7074.188
576.646, 7085.731
577.128, 7076.745
577.610, 7077.151
578.092, 7057.213
578.574, 7043.559
579.056, 7033.037
579.538, 7008.284
580.020, 7010.287
580.503, 7049.255
580.985, 7074.787
581.467, 7063.977
581.949, 7041.634
582.431, 7036.028
582.913, 7046.204
583.395, 7047.680
583.877, 6983.343
584.360, 6955.296
584.842, 6986.465
585.324, 7003.261
585.806, 7006.455
586.288, 6955.308
586.770, 6974.331
587.252, 6965.232
587.734, 6954.981
588.216, 6983.879
588.699, 6940.636
589.181, 6965.074
589.663, 6973.412
590.145, 7001.522
590.627, 7014.617
591.109, 7003.303
591.591, 6995.058
592.073, 7020.067
592.555, 7054.794
593.038, 7054.303
593.520, 7018.527
594.002, 6985.988
594.484, 6979.029
594.966, 6991.873
595.448, 7008.694
595.930, 7029.037
596.412, 7054.697
596.895, 7103.244
597.377, 7139.994
597.859, 7142.151
598.341, 7118.081
598.823, 7086.199
599.305, 7050.062
599.787, 7022.719
600.269, 7026.250
600.752, 7053.375
601.234, 7070.965
601.716, 7072.069
602.198, 7070.009
602.680, 7076.703
603.162, 7090.550
603.644, 7095.757
604.126, 7079.640
604.609, 7072.557
605.091, 7086.848
605.573, 7106.378
606.055, 7121.971
606.537, 7129.712
607.019, 7123.035
607.501, 7090.723
607.983, 7048.439
608.465, 7031.876
608.948, 7041.396
609.430, 7053.924
609.912, 7066.070
610.394, 7073.339
610.876, 7069.748
611.358, 7054.672
611.840, 7038.538
612.322, 7014.474
612.804, 6997.479
613.287, 7000.652
613.769, 7010.643
614.251, 7008.817
614.733, 6992.176
615.215, 6973.931
615.697, 6968.260
616.179, 6971.711
616.661, 6967.826
617.143, 6956.462
617.626, 6937.269
618.108, 6900.602
618.590, 6865.186
619.072, 6865.073
619.554, 6904.008
620.036, 6922.332
620.518, 6895.428
621.000, 6859.920
621.482, 6830.772
621.965, 6810.749
622.447, 6806.870
622.929, 6820.071
623.411, 6832.203
623.893, 6802.005
624.375, 6750.458
624.857, 6779.196
625.339, 6788.451
625.822, 6779.261
626.304, 6696.390
626.786, 6708.663
627.268, 6682.808
627.750, 6655.384
628.232, 6681.050
628.714, 6644.283
629.196, 6630.050
629.679, 6610.684
630.161, 6583.929
630.643, 6558.480
631.125, 6537.962
631.607, 6519.646
632.089, 6495.324
632.571, 6463.412
633.053, 6458.354
633.536, 6499.977
634.018, 6528.669
634.500, 6505.842
634.982, 6454.292
635.464, 6405.665
635.946, 6357.648
636.428, 6328.274
636.910, 6336.600
637.392, 6355.941
637.875, 6366.559
638.357, 6367.081
638.839, 6359.913
639.321, 6346.054
639.803, 6327.584
640.285, 6305.897
640.767, 6279.760
641.249, 6264.611
641.731, 6268.743
642.214, 6269.270
642.696, 6243.894
643.178, 6210.000
643.660, 6200.844
644.142, 6231.126
644.624, 6248.309
645.106, 6226.819
645.588, 6190.683
646.070, 6158.083
646.553, 6130.734
647.035, 6105.583
647.517, 6080.983
647.999, 6061.140
648.481, 6057.767
648.963, 6073.314
649.445, 6072.710
649.927, 6047.702
650.409, 6019.086
650.892, 5998.489
651.374, 5982.377
651.856, 5962.963
652.338, 5935.147
652.820, 5916.728
653.302, 5921.214
653.784, 5930.701
654.266, 5933.853
654.749, 5928.208
655.231, 5909.803
655.713, 5876.115
656.195, 5837.658
656.677, 5812.052
657.159, 5799.527
657.641, 5783.589
658.123, 5757.998
658.606, 5743.111
659.088, 5761.038
659.570, 5794.189
660.052, 5798.826
660.534, 5763.090
661.016, 5730.931
661.498, 5713.085
661.980, 5700.382
662.463, 5688.832
662.945, 5676.553
663.427, 5660.640
663.909, 5639.687
664.391, 5617.461
664.873, 5598.250
665.355, 5582.220
665.837, 5569.926
666.319, 5560.509
666.802, 5560.188
667.284, 5578.413
667.766, 5603.984
668.248, 5609.253
668.730, 5585.628
669.212, 5567.273
669.694, 5559.487
670.176, 5555.072
670.658, 5552.823
671.141, 5550.163
671.623, 5542.997
672.105, 5529.858
672.587, 5514.458
673.069, 5498.998
673.551, 5484.538
674.033, 5476.047
674.515, 5473.951
674.997, 5471.811
675.480, 5466.782
675.962, 5459.549
676.444, 5451.001
676.926, 5439.704
677.408, 5431.641
677.890, 5428.404
678.372, 5426.348
678.854, 5427.173
679.336, 5426.989
679.819, 5418.623
680.301, 5400.785
680.783, 5385.777
681.265, 5387.864
681.747, 5396.346
682.229, 5392.057
682.711, 5376.313
683.193, 5359.687
683.676, 5345.692
684.158, 5337.352
684.640, 5340.443
685.122, 5357.126
685.604, 5366.200
686.086, 5372.862
686.568, 5363.935
687.050, 5316.079
687.532, 5265.314
688.015, 5250.367
688.497, 5272.955
688.979, 5296.475
689.461, 5306.507
689.943, 5308.961
690.425, 5306.471
690.907, 5301.037
691.390, 5296.185
691.872, 5293.008
692.354, 5292.241
692.836, 5294.806
693.318, 5300.366
693.800, 5308.111
694.282, 5321.755
694.764, 5325.733
695.246, 5313.153
695.729, 5292.548
696.211, 5263.965
696.693, 5231.188
697.175, 5219.875
697.657, 5256.976
698.139, 5288.767
698.621, 5290.388
699.103, 5276.652
699.585, 5259.309
700.068, 5243.257
700.550, 5236.955
701.032, 5249.375
701.514, 5266.725
701.996, 5255.392
702.478, 5217.060
702.960, 5197.518
703.442, 5207.839
703.924, 5224.642
704.407, 5233.147
704.889, 5233.779
705.371, 5228.312
705.853, 5205.358
706.335, 5193.610
706.817, 5199.823
707.299, 5212.220
707.781, 5228.709
708.263, 5244.772
708.746, 5252.458
709.228, 5248.223
709.710, 5239.111
710.192, 5231.047
710.674, 5222.784
711.156, 5208.829
711.638, 5190.362
712.120, 5181.095
712.603, 5189.290
713.085, 5203.983
713.567, 5203.530
714.049, 5182.727
714.531, 5172.635
715.013, 5182.506
715.495, 5189.751
715.977, 5184.690
716.459, 5173.551
716.942, 5161.105
717.424, 5147.402
717.906, 5140.855
718.388, 5158.183
718.870, 5170.469
719.352, 5145.369
719.834, 5103.278
720.317, 5083.863
720.799, 5095.896
721.281, 5115.743
721.763, 5121.573
722.245, 5116.723
722.727, 5113.311
723.209, 5111.547
723.691, 5108.441
724.173, 5102.947
724.656, 5096.620
725.138, 5091.116
725.620, 5086.374
726.102, 5080.461
726.584, 5072.266
727.066, 5064.669
727.548, 5052.692
728.030, 5046.083
728.513, 5060.279
728.995, 5086.499
729.477, 5098.068
729.959, 5079.409
730.441, 5053.137
730.923, 5034.986
731.405, 5026.725
731.887, 5039.254
732.369, 5069.839
732.852, 5088.829
733.334, 5077.948
733.816, 5051.422
734.298, 5039.020
734.780, 5043.888
735.262, 5047.997
735.744, 5048.552
736.226, 5052.829
736.708, 5071.700
737.191, 5092.440
737.673, 5096.254
738.155, 5080.163
738.637, 5063.876
739.119, 5045.218
739.601, 5034.618
740.083, 5044.350
740.565, 5063.551
741.047, 5077.894
741.530, 5083.354
742.012, 5080.508
742.494, 5065.130
742.976, 5045.416
743.458, 5041.354
743.940, 5051.032
744.422, 5058.376
744.904, 5059.813
745.386, 5053.554
745.869, 5033.949
746.351, 5005.800
746.833, 5006.077
747.315, 5067.287
747.797, 5097.793
748.279, 5060.969
748.761, 5019.234
749.244, 5005.557
749.726, 5012.802
750.208, 5021.827
750.690, 5028.540
751.172, 5036.039
751.654, 5054.996
752.136, 5068.681
752.618, 5049.348
753.100, 5009.982
753.583, 4991.793
754.065, 5011.417
754.547, 5038.057
755.029, 5027.672
755.511, 4987.915
755.993, 4965.104
756.475, 4960.938
756.957, 4956.792
757.440, 4944.059
757.922, 4933.294
758.404, 4941.074
758.886, 4969.850
759.368, 4979.152
759.850, 4951.370
760.332, 4926.667
760.814, 4910.950
761.296, 4900.350
761.779, 4892.878
762.261, 4887.692
762.743, 4882.811
763.225, 4877.628
763.707, 4872.281
764.189, 4869.258
764.671, 4864.686
765.153, 4849.425
765.635, 4826.415
766.118, 4810.255
766.600, 4809.170
767.082, 4815.828
767.564, 4819.057
768.046, 4819.094
768.528, 4820.379
769.010, 4824.067
769.492, 4822.629
769.974, 4811.254
770.457, 4795.273
770.939, 4782.857
771.421, 4774.309
771.903, 4767.731
772.385, 4762.040
772.867, 4759.770
773.349, 4768.133
773.831, 4775.438
774.313, 4767.997
774.796, 4747.700
775.278, 4731.961
775.760, 4734.611
776.242, 4734.965
776.724, 4709.305
777.206, 4677.401
777.688, 4667.280
778.170, 4680.452
778.653, 4707.454
779.135, 4745.154
779.617, 4777.664
780.099, 4772.912
780.581, 4734.934
781.063, 4700.350
781.545, 4670.508
782.027, 4653.067
782.510, 4655.177
782.992, 4664.684
783.474, 4659.567
783.956, 4633.803
784.438, 4624.992
784.920, 4650.294
785.402, 4670.286
785.884, 4668.293
786.367, 4662.881
786.849, 4677.935
787.331, 4709.375
787.813, 4720.838
788.295, 4676.514
788.777, 4638.749
789.259, 4649.697
789.741, 4680.375
790.223, 4701.633
790.706, 4709.245
791.188, 4705.343
791.670, 4689.876
792.152, 4672.053
792.634, 4664.028
793.116, 4664.304
793.598, 4669.426
794.080, 4678.950
794.562, 4683.063
795.045, 4676.265
795.527, 4667.584
796.009, 4672.014
796.491, 4691.286
796.973, 4695.829
797.455, 4676.488
797.937, 4660.420
798.419, 4654.189
798.901, 4654.146
799.384, 4658.642
799.866, 4666.793
800.348, 4673.710
800.830, 4680.200
801.312, 4683.346
801.794, 4678.167
802.276, 4672.794
802.758, 4673.800
803.240, 4680.221
803.723, 4689.714
804.205, 4701.958
804.687, 4710.549
805.169, 4707.365
805.651, 4698.272
806.133, 4687.317
806.615, 4678.595
807.097, 4691.017
807.580, 4730.145
808.062, 4767.839
808.544, 4771.799
809.026, 4748.395
809.508, 4729.587
809.990, 4714.323
810.472, 4713.165
810.954, 4733.073
811.437, 4755.228
811.919, 4763.787
812.401, 4762.535
812.883, 4767.408
813.365, 4784.768
813.847, 4797.289
814.329, 4807.145
814.811, 4809.951
815.294, 4793.733
815.776, 4773.908
816.258, 4775.813
816.740, 4804.347
817.222, 4827.000
817.704, 4823.012
818.186, 4816.535
818.668, 4826.167
819.150, 4843.524
819.633, 4856.847
820.115, 4863.695
820.597, 4865.979
821.079, 4864.611
821.561, 4860.118
822.043, 4850.491
822.525, 4838.431
823.007, 4834.585
823.489, 4839.628
823.972, 4845.559
824.454, 4848.543
824.936, 4847.352
825.418, 4837.745
825.900, 4818.340
826.382, 4811.463
826.864, 4821.757
827.346, 4830.863
827.828, 4833.349
828.311, 4831.713
828.793, 4827.976
829.275, 4822.197
829.757, 4816.156
830.239, 4813.140
830.721, 4805.191
831.203, 4788.513
831.685, 4769.324
832.167, 4748.048
832.650, 4728.254
833.132, 4716.556
833.614, 4715.002
834.096, 4719.100
834.578, 4735.839
835.060, 4748.829
835.542, 4743.720
836.024, 4724.191
836.507, 4692.008
836.989, 4651.434
837.471, 4622.499
837.953, 4624.665
838.435, 4642.551
838.917, 4655.489
839.399, 4661.379
839.881, 4647.861
840.364, 4614.518
840.846, 4581.073
841.328, 4558.938
841.810, 4548.453
842.292, 4553.698
842.774, 4576.909
843.256, 4589.017
843.738, 4587.540
844.221, 4582.250
844.703, 4573.979
845.185, 4567.710
845.667, 4572.076
846.149, 4587.122
846.631, 4588.719
847.113, 4563.393
847.595, 4543.463
848.077, 4530.818
848.560, 4525.124
849.042, 4532.392
849.524, 4545.069
850.006, 4546.341
850.488, 4530.447
850.970, 4514.126
851.452, 4504.719
851.934, 4495.472
852.416, 4477.673
852.899, 4458.934
853.381, 4451.532
853.863, 4457.044
854.345, 4467.695
854.827, 4481.072
855.309, 4493.466
855.791, 4503.654
856.273, 4508.467
856.755, 4498.224
857.238, 4474.550
857.720, 4450.392
858.202, 4432.294
858.684, 4419.999
859.166, 4415.708
859.648, 4417.611
860.130, 4411.703
860.612, 4397.525
861.094, 4387.836
861.577, 4387.287
862.059, 4389.294
862.541, 4387.271
863.023, 4381.954
863.505, 4379.356
863.987, 4384.813
864.469, 4374.750
864.951, 4329.184
865.434, 4297.247
865.916, 4319.693
866.398, 4367.751
866.880, 4382.403
867.362, 4354.559
867.844, 4336.359
868.326, 4338.517
868.808, 4339.564
869.291, 4334.759
869.773, 4324.729
870.255, 4306.174
870.737, 4282.521
871.219, 4267.086
871.701, 4266.560
872.183, 4269.273
872.665, 4273.325
873.148, 4275.118
873.630, 4270.781
874.112, 4261.788
874.594, 4248.004
875.076, 4230.505
875.558, 4222.571
876.040, 4245.910
876.522, 4275.657
877.004, 4273.965
877.487, 4255.084
877.969, 4254.559
878.451, 4275.165
878.933, 4293.248
879.415, 4294.213
879.897, 4284.888
880.379, 4274.820
880.861, 4264.249
881.343, 4255.595
881.826, 4248.878
882.308, 4236.923
882.790, 4216.511
883.272, 4195.002
883.754, 4179.838
884.236, 4170.987
884.718, 4169.018
885.200, 4176.452
885.682, 4178.733
886.165, 4171.840
886.647, 4164.831
887.129, 4163.465
887.611, 4165.164
888.093, 4165.051
888.575, 4163.926
889.057, 4157.291
889.539, 4135.906
890.021, 4121.682
890.504, 4124.225
890.986, 4131.792
891.468, 4136.426
891.950, 4137.879
892.432, 4136.205
892.914, 4130.035
893.396, 4123.270
893.878, 4112.739
894.361, 4106.002
894.843, 4116.265
895.325, 4129.086
895.807, 4117.647
896.289, 4079.742
896.771, 4053.344
897.253, 4065.314
897.735, 4084.319
898.218, 4090.587
898.700, 4091.844
899.182, 4099.688
899.664, 4111.368
900.146, 4113.742
900.628, 4100.716
901.110, 4086.765
901.592, 4088.440
902.075, 4095.454
902.557, 4087.620
903.039, 4072.867
903.521, 4078.204
904.003, 4106.252
904.485, 4127.515
904.967, 4118.597
905.449, 4095.164
905.931, 4086.018
906.414, 4087.283
906.896, 4078.919
907.378, 4060.826
907.860, 4056.201
908.342, 4075.365
908.824, 4097.518
909.306, 4095.665
909.788, 4075.441
910.270, 4072.159
910.753, 4087.787
911.235, 4094.144
911.717, 4084.267
912.199, 4075.864
912.681, 4079.828
913.163, 4092.767
913.645, 4111.168
914.127, 4139.931
914.610, 4135.826
915.092, 4077.289
915.574, 4038.848
916.056, 4051.304
916.538, 4074.570
917.020, 4072.928
917.502, 4052.265
917.984, 4041.360
918.466, 4051.898
918.949, 4050.727
919.431, 4024.234
919.913, 4002.365
920.395, 3996.079
920.877, 3999.688
921.359, 4010.017
921.841, 4026.128
922.323, 4035.630
922.805, 4033.300
923.288, 4029.168
923.770, 4025.462
924.252, 4020.706
924.734, 4009.444
925.216, 3998.018
925.698, 4001.290
926.180, 4023.151
926.662, 4034.268
927.145, 4009.727
927.627, 3987.364
928.109, 3987.607
928.591, 4000.918
929.073, 4022.304
929.555, 4046.094
930.037, 4061.003
930.519, 4062.252
931.002, 4057.931
931.484, 4052.754
931.966, 4045.285
932.448, 4030.101
932.930, 4013.286
933.412, 4008.129
933.894, 4014.115
934.376, 4015.711
934.859, 4002.829
935.341, 3985.029
935.823, 3967.450
936.305, 3954.935
936.787, 3960.249
937.269, 3977.698
937.751, 3988.443
938.233, 3986.995
938.715, 3982.143
939.198, 3980.859
939.680, 3982.059
940.162, 3988.205
940.644, 3994.707
941.126, 3982.258
941.608, 3952.490
942.090, 3929.621
942.572, 3924.542
943.054, 3930.665
943.537, 3942.974
944.019, 3958.240
944.501, 3966.727
944.983, 3967.964
945.465, 3952.240
945.947, 3918.021
946.429, 3891.646
946.911, 3889.559
947.393, 3900.803
947.876, 3905.928
948.358, 3905.556
948.840, 3912.082
949.322, 3925.969
949.804, 3939.838
950.286, 3952.282
950.768, 3961.816
951.250, 3967.983
951.732, 3969.035
952.215, 3959.282
952.697, 3937.281
953.179, 3913.062
953.661, 3883.933
954.143, 3863.728
954.625, 3856.785
955.107, 3861.803
955.589, 3881.925
956.072, 3911.133
956.554, 3918.125
957.036, 3894.837
957.518, 3875.312
958.000, 3858.125
958.482, 3852.524
958.964, 3870.155
959.446, 3890.634
959.929, 3887.431
960.411, 3862.201
960.893, 3843.112
961.375, 3825.268
961.857, 3824.818
962.339, 3855.524
962.821, 3885.587
963.303, 3901.691
963.786, 3906.617
964.268, 3902.656
964.750, 3889.074
965.232, 3876.865
965.714, 3864.783
966.196, 3855.892
966.678, 3848.346
967.160, 3846.308
967.642, 3858.119
968.125, 3874.699
968.607, 3879.301
969.089, 3869.651
969.571, 3860.516
970.053, 3852.245
970.535, 3845.147
971.017, 3834.466
971.499, 3829.623
971.981, 3844.777
972.464, 3868.885
972.946, 3876.475
973.428, 3862.177
973.910, 3846.213
974.392, 3826.166
974.874, 3811.489
975.356, 3804.760
975.838, 3804.845
976.320, 3816.555
976.803, 3833.613
977.285, 3837.465
977.767, 3818.851
978.249, 3810.122
978.731, 3830.923
979.213, 3847.360
979.695, 3839.651
980.177, 3824.708
980.659, 3821.094
981.142, 3825.805
981.624, 3822.273
982.106, 3802.082
982.588, 3787.891
983.070, 3789.504
983.552, 3795.077
984.034, 3802.078
984.516, 3807.041
984.999, 3805.000
985.481, 3797.335
985.963, 3791.498
986.445, 3790.380
986.927, 3789.077
987.409, 3787.203
987.891, 3783.086
988.373, 3774.795
988.856, 3764.218
989.338, 3748.661
989.820, 3731.857
990.302, 3732.584
990.784, 3771.278
991.266, 3797.248
991.748, 3782.231
992.230, 3755.116
992.713, 3724.642
993.195, 3701.192
993.677, 3702.495
994.159, 3725.759
994.641, 3740.688
995.123, 3730.473
995.605, 3721.813
996.087, 3733.838
996.569, 3744.889
997.052, 3735.205
997.534, 3715.752
998.016, 3701.167
998.498, 3694.784
998.980, 3698.430
999.462, 3719.826
999.944, 3738.938
1000.426, 3746.088
1000.908, 3747.306
1001.391, 3747.957
1001.873, 3745.556
1002.355, 3730.294
1002.837, 3704.185
1003.319, 3693.161
1003.801, 3720.760
1004.283, 3744.049
1004.765, 3741.496
1005.247, 3727.952
1005.730, 3705.357
1006.212, 3685.027
1006.694, 3689.141
1007.176, 3716.893
1007.658, 3730.275
1008.140, 3701.815
1008.622, 3674.853
1009.104, 3674.939
1009.587, 3679.134
1010.069, 3663.810
1010.551, 3642.778
1011.033, 3642.896
1011.515, 3665.896
1011.997, 3684.185
1012.479, 3685.396
1012.961, 3682.100
1013.443, 3672.726
1013.926, 3667.768
1014.408, 3682.508
1014.890, 3703.421
1015.372, 3705.723
1015.854, 3688.320
1016.336, 3679.463
1016.818, 3701.985
1017.300, 3715.024
1017.783, 3695.116
1018.265, 3667.799
1018.747, 3646.012
1019.229, 3631.648
1019.711, 3627.273
1020.193, 3632.177
1020.675, 3638.215
1021.157, 3646.799
1021.639, 3649.981
1022.122, 3643.268
1022.604, 3632.233
1023.086, 3612.688
1023.568, 3595.555
1024.050, 3601.593
1024.532, 3628.894
1025.014, 3641.165
1025.496, 3614.162
1025.979, 3595.547
1026.461, 3599.892
1026.943, 3613.834
1027.425, 3647.866
1027.907, 3675.536
1028.389, 3649.464
1028.871, 3576.876
1029.353, 3543.570
1029.835, 3594.657
1030.318, 3635.727
1030.800, 3650.260
1031.282, 3650.634
1031.764, 3634.789
1032.246, 3613.583
1032.728, 3595.755
1033.210, 3582.917
1033.692, 3582.000
1034.174, 3604.690
1034.657, 3619.458
1035.139, 3618.467
1035.621, 3614.885
1036.103, 3615.236
1036.585, 3614.449
1037.067, 3605.248
1037.549, 3589.587
1038.031, 3578.821
1038.514, 3575.432
1038.996, 3572.805
1039.478, 3570.422
1039.960, 3569.433
1040.442, 3572.954
1040.924, 3575.245
1041.406, 3569.858
1041.888, 3559.021
1042.370, 3551.261
1042.853, 3546.122
1043.335, 3545.831
1043.817, 3557.985
1044.299, 3559.503
1044.781, 3531.700
1045.263, 3510.501
1045.745, 3532.385
1046.227, 3578.297
1046.709, 3592.323
1047.192, 3565.020
1047.674, 3554.931
1048.156, 3570.411
1048.638, 3580.088
1049.120, 3577.690
1049.602, 3565.130
1050.084, 3541.212
1050.566, 3511.324
1051.049, 3484.935
1051.531, 3461.323
1052.013, 3458.422
1052.495, 3481.039
1052.977, 3498.664
1053.459, 3505.946
1053.941, 3504.161
1054.423, 3491.193
1054.906, 3479.186
1055.388, 3491.497
1055.870, 3523.913
1056.352, 3532.784
1056.834, 3517.502
1057.316, 3510.815
1057.798, 3518.073
1058.280, 3518.416
1058.762, 3500.694
1059.245, 3480.345
1059.727, 3477.740
1060.209, 3487.102
1060.691, 3487.939
1061.173, 3481.656
1061.655, 3479.181
1062.137, 3480.540
1062.619, 3470.068
1063.101, 3442.267
1063.584, 3424.697
1064.066, 3449.953
1064.548, 3489.312
1065.030, 3476.884
1065.512, 3435.438
1065.994, 3433.771
1066.476, 3465.236
1066.958, 3484.163
1067.441, 3477.903
1067.923, 3462.504
1068.405, 3446.133
1068.887, 3436.629
1069.369, 3452.256
1069.851, 3475.311
1070.333, 3475.239
1070.815, 3460.594
1071.297, 3454.274
1071.780, 3458.596
1072.262, 3458.146
1072.744, 3443.335
1073.226, 3431.879
1073.708, 3445.952
1074.190, 3462.442
1074.672, 3457.583
1075.154, 3442.041
1075.636, 3429.254
1076.119, 3421.239
1076.601, 3416.446
1077.083, 3414.654
1077.565, 3413.597
1078.047, 3412.821
1078.529, 3411.626
1079.011, 3408.080
1079.494, 3405.284
1079.976, 3407.953
1080.458, 3412.974
1080.940, 3411.729
1081.422, 3402.342
1081.904, 3401.163
1082.386, 3430.387
1082.868, 3441.845
1083.350, 3400.447
1083.833, 3363.323
1084.315, 3376.107
1084.797, 3406.445
1085.279, 3400.646
1085.761, 3359.300
1086.243, 3351.099
1086.725, 3416.784
1087.207, 3440.860
1087.689, 3387.453
1088.172, 3346.301
1088.654, 3356.113
1089.136, 3382.107
1089.618, 3392.768
1090.100, 3390.548
1090.582, 3384.379
1091.064, 3373.066
1091.546, 3363.042
1092.029, 3354.798
1092.511, 3343.538
1092.993, 3324.706
1093.475, 3318.177
1093.957, 3340.800
1094.439, 3376.644
1094.921, 3394.226
1095.403, 3395.791
1095.885, 3410.452
1096.368, 3436.768
1096.850, 3438.376
1097.332, 3410.467
1097.814, 3381.154
1098.296, 3363.894
1098.778, 3359.607
1099.260, 3374.514
1099.742, 3396.480
1100.224, 3397.959
1100.707, 3383.744
1101.189, 3360.386
1101.671, 3334.338
1102.153, 3328.952
1102.635, 3348.112
1103.117, 3360.954
1103.599, 3342.242
1104.081, 3318.640
1104.564, 3317.797
1105.046, 3329.185
1105.528, 3348.020
1106.010, 3365.270
1106.492, 3364.260
1106.974, 3346.787
1107.456, 3330.055
1107.938, 3319.750
1108.421, 3315.815
1108.903, 3321.609
1109.385, 3329.683
1109.867, 3337.665
1110.349, 3343.913
1110.831, 3347.053
1111.313, 3347.351
1111.795, 3344.919
1112.277, 3339.365
1112.760, 3336.021
1113.242, 3334.875
1113.724, 3337.182
1114.206, 3353.606
1114.688, 3360.981
1115.170, 3337.697
1115.652, 3308.432
1116.134, 3306.095
1116.616, 3326.330
1117.099, 3333.275
1117.581, 3322.892
1118.063, 3311.672
1118.545, 3298.302
1119.027, 3290.251
1119.509, 3290.849
1119.991, 3294.268
1120.473, 3296.964
1120.956, 3296.670
1121.438, 3285.523
1121.920, 3265.138
1122.402, 3262.601
1122.884, 3275.900
1123.366, 3270.701
1123.848, 3243.355
1124.330, 3231.082
1124.813, 3252.104
1125.295, 3276.782
1125.777, 3269.414
1126.259, 3249.170
1126.741, 3252.405
1127.223, 3268.511
1127.705, 3275.759
1128.187, 3275.824
1128.669, 3282.243
1129.151, 3295.922
1129.634, 3299.261
1130.116, 3278.338
1130.598, 3257.334
1131.080, 3258.945
1131.562, 3263.020
1132.044, 3246.301
1132.526, 3226.758
1133.008, 3229.777
1133.491, 3250.499
1133.973, 3269.298
1134.455, 3283.542
1134.937, 3285.152
1135.419, 3259.031
1135.901, 3238.875
1136.383, 3236.672
1136.865, 3239.479
1137.348, 3239.491
1137.830, 3240.226
1138.312, 3250.269
1138.794, 3267.194
1139.276, 3262.621
1139.758, 3223.733
1140.240, 3206.128
1140.722, 3218.487
1141.204, 3226.544
1141.687, 3218.473
1142.169, 3208.583
1142.651, 3207.826
1143.133, 3213.211
1143.615, 3220.335
1144.097, 3228.322
1144.579, 3228.835
1145.061, 3223.800
1145.543, 3230.078
1146.026, 3247.066
1146.508, 3248.726
1146.990, 3224.892
1147.472, 3202.286
1147.954, 3208.856
1148.436, 3222.408
1148.918, 3211.319
1149.400, 3190.802
1149.883, 3182.812
1150.365, 3182.543
1150.847, 3175.207
1151.329, 3161.542
1151.811, 3158.107
1152.293, 3173.320
1152.775, 3189.685
1153.257, 3205.762
1153.740, 3212.584
1154.222, 3199.559
1154.704, 3181.376
1155.186, 3164.162
1155.668, 3153.087
1156.150, 3161.608
1156.632, 3191.855
1157.114, 3203.537
1157.596, 3185.282
1158.078, 3173.213
1158.561, 3172.005
1159.043, 3170.556
1159.525, 3164.109
1160.007, 3158.261
1160.489, 3158.561
1160.971, 3162.052
1161.453, 3163.348
1161.935, 3161.925
1162.418, 3142.481
1162.900, 3108.214
1163.382, 3095.574
1163.864, 3108.306
1164.346, 3118.888
1164.828, 3115.126
1165.310, 3112.491
1165.792, 3129.170
1166.275, 3149.383
1166.757, 3148.025
1167.239, 3139.521
1167.721, 3150.250
1168.203, 3167.855
1168.685, 3160.107
1169.167, 3130.037
1169.649, 3116.710
1170.131, 3138.652
1170.614, 3157.245
1171.096, 3158.648
1171.578, 3151.060
1172.060, 3130.627
1172.542, 3109.955
1173.024, 3094.671
1173.506, 3087.516
1173.988, 3097.737
1174.470, 3123.452
1174.953, 3123.967
1175.435, 3082.752
1175.917, 3070.108
1176.399, 3098.729
1176.881, 3117.552
1177.363, 3108.929
1177.845, 3099.138
1178.327, 3109.026
1178.810, 3124.295
1179.292, 3115.463
1179.774, 3091.422
1180.256, 3088.367
1180.738, 3101.549
1181.220, 3118.285
1181.702, 3133.619
1182.184, 3135.934
1182.667, 3122.482
1183.149, 3104.060
1183.631, 3086.187
1184.113, 3070.615
1184.595, 3052.754
1185.077, 3044.115
1185.559, 3066.905
1186.041, 3095.850
1186.523, 3095.655
1187.005, 3075.349
1187.488, 3068.924
1187.970, 3083.976
1188.452, 3091.636
1188.934, 3084.269
1189.416, 3075.016
1189.898, 3060.473
1190.380, 3052.721
1190.862, 3060.354
1191.345, 3069.746
1191.827, 3067.165
1192.309, 3056.921
1192.791, 3050.141
1193.273, 3046.893
1193.755, 3054.410
1194.237, 3070.957
1194.719, 3070.269
1195.202, 3051.030
1195.684, 3044.780
1196.166, 3064.293
1196.648, 3082.807
1197.130, 3073.111
1197.612, 3058.058
1198.094, 3068.475
1198.576, 3085.656
1199.058, 3085.229
1199.541, 3076.509
1200.023, 3077.821
1200.505, 3087.055
1200.987, 3088.536
1201.469, 3077.522
1201.951, 3065.513
1202.433, 3054.377
1202.915, 3043.820
1203.397, 3030.935
1203.880, 3022.570
1204.362, 3024.055
1204.844, 3028.583
1205.326, 3029.557
1205.808, 3027.299
1206.290, 3022.568
1206.772, 3015.379
1207.254, 3004.520
1207.737, 2990.411
1208.219, 2990.063
1208.701, 3005.194
1209.183, 3017.898
1209.665, 3020.231
1210.147, 3022.146
1210.629, 3034.754
1211.111, 3047.306
1211.594, 3044.940
1212.076, 3035.835
1212.558, 3028.937
1213.040, 3023.286
1213.522, 3014.757
1214.004, 3005.145
1214.486, 3001.028
1214.968, 3004.020
1215.450, 3011.762
1215.932, 3033.018
1216.415, 3044.506
1216.897, 3036.098
1217.379, 3025.961
1217.861, 3021.353
1218.343, 3017.966
1218.825, 3012.350
1219.307, 3003.806
1219.789, 2986.055
1220.272, 2960.521
1220.754, 2968.341
1221.236, 3004.641
1221.718, 3014.669
1222.200, 2995.311
1222.682, 2985.759
1223.164, 2999.724
1223.646, 3014.133
1224.129, 3011.850
1224.611, 3002.882
1225.093, 2992.070
1225.575, 2984.471
1226.057, 2988.432
1226.539, 2995.757
1227.021, 2998.253
1227.503, 2995.031
1227.985, 2984.990
1228.468, 2967.669
1228.950, 2954.709
1229.432, 2947.285
1229.914, 2944.420
1230.396, 2947.341
1230.878, 2952.385
1231.360, 2959.562
1231.842, 2965.766
1232.324, 2969.562
1232.807, 2967.498
1233.289, 2948.973
1233.771, 2923.254
1234.253, 2930.582
1234.735, 2957.510
1235.217, 2958.464
1235.699, 2938.179
1236.181, 2925.167
1236.664, 2925.607
1237.146, 2929.373
1237.628, 2932.450
1238.110, 2933.723
1238.592, 2930.522
1239.074, 2927.980
1239.556, 2929.947
1240.038, 2932.274
1240.521, 2929.983
1241.003, 2927.573
1241.485, 2932.431
1241.967, 2942.594
1242.449, 2948.749
1242.931, 2950.833
1243.413, 2948.147
1243.895, 2939.867
1244.377, 2938.914
1244.859, 2947.434
1245.342, 2949.168
1245.824, 2936.984
1246.306, 2926.037
1246.788, 2932.207
1247.270, 2940.987
1247.752, 2926.311
1248.234, 2909.532
1248.716, 2924.286
1249.199, 2950.023
1249.681, 2959.166
1250.163, 2951.292
1250.645, 2931.935
1251.127, 2902.017
1251.609, 2880.765
1252.091, 2872.772
1252.573, 2871.952
1253.056, 2883.570
1253.538, 2889.496
1254.020, 2881.402
1254.502, 2876.808
1254.984, 2889.093
##END=



