##NAMES=Cervandonite-(Ce)
##RRUFFID=R110070
##IDEAL CHEMISTRY=(Ce^3+^,Nd^3+^,La^3+^)(Fe^3+^,Ti^4+^,Fe^2+^,Al)_3_O_2_(Si_2_O_7_)_0.8_(As^3+^O_3_)_1.2_(OH)_0.6_
##LOCALITY=Monte Cervandone, Val d'Ossola, Piedmont, Italy
##OWNER=RRUFF
##SOURCE=Renato & Adriana Pagano
##DESCRIPTION=Rosettes of black platy crystals associated with microcline, quartz and rutile
##STATUS=The identification of this mineral has been confirmed by single-crystal X-ray diffraction.
##URL=rruff.info/R110070
298.9137, 975.2137
299.3958, 975.7535
299.8779, 975.8234
300.3600, 975.6931
300.8422, 975.7438
301.3243, 975.6745
301.8064, 974.8241
302.2885, 972.3450
302.7706, 969.6951
303.2527, 968.3597
303.7349, 968.3431
304.2170, 969.6238
304.6991, 973.5969
305.1812, 978.1967
305.6633, 980.6894
306.1454, 980.5571
306.6276, 978.7224
307.1097, 974.8191
307.5918, 969.0735
308.0739, 965.4674
308.5560, 966.1562
309.0381, 969.0020
309.5203, 971.9361
310.0024, 975.0586
310.4845, 976.7705
310.9666, 974.6558
311.4487, 969.7275
311.9308, 967.3709
312.4130, 970.0934
312.8951, 973.5230
313.3772, 973.0205
313.8593, 969.2169
314.3414, 966.2663
314.8235, 967.2203
315.3057, 970.5074
315.7878, 971.8611
316.2699, 970.2698
316.7520, 968.3312
317.2341, 968.0361
317.7162, 968.8428
318.1984, 969.6688
318.6805, 970.4161
319.1626, 970.8353
319.6447, 970.1318
320.1268, 967.9368
320.6089, 966.5096
321.0911, 968.3659
321.5732, 971.4586
322.0553, 972.8627
322.5374, 971.4992
323.0195, 969.1244
323.5016, 967.2964
323.9838, 966.0027
324.4659, 965.2405
324.9480, 964.8892
325.4301, 965.2460
325.9122, 966.7770
326.3943, 969.7318
326.8765, 972.7280
327.3586, 975.4693
327.8407, 977.6780
328.3228, 977.3032
328.8049, 972.2508
329.2870, 966.7360
329.7692, 964.9728
330.2513, 966.6954
330.7334, 969.6788
331.2155, 975.3379
331.6976, 981.2728
332.1797, 980.4103
332.6619, 969.4943
333.1440, 958.8856
333.6261, 959.1634
334.1082, 966.4485
334.5903, 971.9562
335.0724, 972.1902
335.5546, 969.6664
336.0367, 967.0176
336.5188, 964.1615
337.0009, 962.3458
337.4830, 962.8176
337.9651, 964.7137
338.4473, 966.4240
338.9294, 967.9110
339.4115, 968.9830
339.8936, 969.7061
340.3758, 969.9968
340.8579, 969.0145
341.3400, 965.7225
341.8221, 961.7254
342.3042, 959.4195
342.7863, 958.9329
343.2685, 959.1150
343.7506, 959.5295
344.2327, 960.1902
344.7148, 961.3621
345.1969, 963.4076
345.6790, 965.1408
346.1612, 965.0222
346.6433, 963.3265
347.1254, 960.9886
347.6075, 956.6608
348.0896, 952.5892
348.5717, 952.3611
349.0539, 956.4100
349.5360, 960.6035
350.0181, 962.3283
350.5002, 961.5696
350.9823, 959.1934
351.4644, 952.6689
351.9466, 946.7517
352.4287, 945.2233
352.9108, 947.3482
353.3929, 949.6365
353.8750, 950.5302
354.3571, 950.4173
354.8393, 950.3185
355.3214, 950.3875
355.8035, 950.1520
356.2856, 949.4338
356.7677, 948.3004
357.2498, 946.6600
357.7320, 944.3704
358.2141, 942.2040
358.6962, 941.2992
359.1783, 941.8248
359.6604, 942.5094
360.1425, 943.7990
360.6247, 944.8323
361.1068, 944.5127
361.5889, 942.8400
362.0710, 941.0652
362.5531, 940.1523
363.0352, 940.1418
363.5174, 940.6142
363.9995, 943.1652
364.4816, 944.5980
364.9637, 941.9861
365.4458, 936.9359
365.9279, 933.9139
366.4101, 935.5621
366.8922, 940.0471
367.3743, 941.3054
367.8564, 936.1508
368.3385, 932.5047
368.8206, 932.2103
369.3028, 933.5783
369.7849, 935.0212
370.2670, 936.0222
370.7491, 936.3154
371.2312, 935.3450
371.7133, 932.1916
372.1955, 930.7099
372.6776, 932.6631
373.1597, 934.6874
373.6418, 934.5142
374.1239, 932.3563
374.6060, 929.8752
375.0882, 928.3230
375.5703, 927.6932
376.0524, 927.4153
376.5345, 927.9871
377.0166, 928.3407
377.4987, 928.2927
377.9809, 927.8649
378.4630, 926.9961
378.9451, 925.6547
379.4272, 924.1407
379.9093, 923.2435
380.3914, 923.9203
380.8736, 923.5585
381.3557, 920.5482
381.8378, 917.6349
382.3199, 917.5322
382.8020, 920.1959
383.2841, 922.7972
383.7663, 921.6653
384.2484, 915.8333
384.7305, 913.0195
385.2126, 916.1453
385.6947, 919.5995
386.1768, 922.1747
386.6590, 923.7005
387.1411, 924.1085
387.6232, 923.1931
388.1053, 921.3893
388.5874, 920.2244
389.0695, 919.6990
389.5517, 919.8844
390.0338, 922.3772
390.5159, 924.6398
390.9980, 923.5680
391.4801, 918.3655
391.9622, 912.6307
392.4444, 911.1008
392.9265, 914.2446
393.4086, 917.1076
393.8907, 919.3457
394.3728, 920.8753
394.8549, 921.5068
395.3371, 921.3704
395.8192, 920.9112
396.3013, 920.1854
396.7834, 919.3594
397.2655, 919.1566
397.7477, 919.9908
398.2298, 920.3690
398.7119, 919.1785
399.1940, 917.1610
399.6761, 915.0891
400.1582, 912.9265
400.6404, 911.2624
401.1225, 911.0118
401.6046, 912.0758
402.0867, 912.9112
402.5688, 913.3124
403.0509, 912.9483
403.5331, 910.9611
404.0152, 907.2772
404.4973, 904.8168
404.9794, 905.8115
405.4615, 908.5889
405.9436, 910.4400
406.4258, 911.0685
406.9079, 910.5811
407.3900, 908.4827
407.8721, 905.1810
408.3542, 902.8221
408.8363, 901.8832
409.3185, 901.6418
409.8006, 902.1171
410.2827, 903.0164
410.7648, 903.2957
411.2469, 902.4197
411.7290, 900.8232
412.2112, 899.5208
412.6933, 898.8878
413.1754, 897.5995
413.6575, 894.3761
414.1396, 890.9473
414.6217, 889.5128
415.1039, 890.2963
415.5860, 891.2054
416.0681, 889.8663
416.5502, 885.8369
417.0323, 884.7878
417.5144, 889.9678
417.9966, 894.2390
418.4787, 894.0067
418.9608, 890.8200
419.4429, 887.8630
419.9250, 886.7694
420.4071, 886.9961
420.8893, 887.1077
421.3714, 887.8121
421.8535, 887.2214
422.3356, 883.7139
422.8177, 880.0764
423.2998, 879.0790
423.7820, 880.6711
424.2641, 882.1165
424.7462, 880.2129
425.2283, 874.5840
425.7104, 871.1165
426.1925, 871.8440
426.6747, 872.6603
427.1568, 872.3471
427.6389, 871.3635
428.1210, 870.4569
428.6031, 869.9504
429.0852, 869.8342
429.5674, 870.5038
430.0495, 872.6850
430.5316, 873.0574
431.0137, 867.8568
431.4958, 862.6250
431.9779, 861.6050
432.4601, 864.7824
432.9422, 868.0339
433.4243, 868.1120
433.9064, 865.6396
434.3885, 863.1313
434.8706, 860.3558
435.3528, 858.3458
435.8349, 858.6420
436.3170, 859.9997
436.7991, 860.2097
437.2812, 857.9427
437.7633, 855.4761
438.2455, 855.6664
438.7276, 857.9746
439.2097, 858.4116
439.6918, 854.9472
440.1739, 850.0035
440.6560, 847.3642
441.1382, 847.1367
441.6203, 846.6585
442.1024, 844.2387
442.5845, 841.7115
443.0666, 841.7758
443.5487, 844.4756
444.0309, 846.8544
444.5130, 846.5800
444.9951, 843.9482
445.4772, 841.9608
445.9593, 840.7869
446.4414, 839.9634
446.9236, 839.7715
447.4057, 839.7234
447.8878, 838.7790
448.3699, 836.6212
448.8520, 834.5126
449.3341, 834.6271
449.8163, 838.6732
450.2984, 839.9785
450.7805, 836.0409
451.2626, 832.0995
451.7447, 831.2432
452.2268, 832.7484
452.7090, 834.1274
453.1911, 833.7350
453.6732, 831.8993
454.1553, 829.9357
454.6374, 827.6002
455.1195, 825.5637
455.6017, 823.7236
456.0838, 822.3074
456.5659, 821.6623
457.0480, 821.7838
457.5301, 822.1432
458.0122, 822.3967
458.4944, 822.5328
458.9765, 821.7276
459.4586, 818.6727
459.9407, 816.6614
460.4228, 818.4355
460.9049, 822.1306
461.3871, 824.4037
461.8692, 823.8633
462.3513, 821.8146
462.8334, 819.3343
463.3155, 816.4693
463.7976, 814.5291
464.2798, 814.3590
464.7619, 814.7800
465.2440, 814.4550
465.7261, 813.4183
466.2082, 811.6705
466.6903, 808.5156
467.1725, 805.0173
467.6546, 802.2676
468.1367, 800.3929
468.6188, 799.5943
469.1009, 800.3109
469.5830, 802.1491
470.0652, 803.1216
470.5473, 803.0274
471.0294, 802.4578
471.5115, 801.4796
471.9936, 800.1426
472.4757, 798.1070
472.9579, 795.4096
473.4400, 793.2852
473.9221, 793.4967
474.4042, 796.8323
474.8863, 797.8547
475.3684, 794.4456
475.8506, 791.2615
476.3327, 790.3074
476.8148, 790.7013
477.2969, 790.8141
477.7790, 789.8592
478.2611, 788.2311
478.7433, 786.6466
479.2254, 784.8835
479.7075, 783.8334
480.1896, 784.1978
480.6717, 784.8132
481.1538, 785.1418
481.6360, 785.1565
482.1181, 785.0256
482.6002, 784.7897
483.0823, 784.5159
483.5644, 784.6952
484.0465, 785.7870
484.5287, 785.5635
485.0108, 781.2665
485.4929, 776.0375
485.9750, 773.9343
486.4571, 775.9404
486.9392, 778.1283
487.4214, 777.7145
487.9035, 775.8276
488.3856, 775.0833
488.8677, 775.9869
489.3498, 777.2390
489.8319, 777.7863
490.3141, 777.6465
490.7962, 777.5140
491.2783, 777.8760
491.7604, 777.7327
492.2425, 776.0516
492.7246, 773.6513
493.2068, 772.1199
493.6889, 772.0192
494.1710, 772.6188
494.6531, 772.8932
495.1352, 773.0303
495.6173, 772.1424
496.0995, 768.5045
496.5816, 765.6575
497.0637, 765.7931
497.5458, 768.0458
498.0279, 770.7070
498.5100, 772.9830
498.9922, 774.1943
499.4743, 771.9017
499.9564, 763.3897
500.4385, 758.3327
500.9206, 761.6487
501.4027, 765.9571
501.8849, 766.7196
502.3670, 764.0352
502.8491, 760.7579
503.3312, 758.0310
503.8133, 756.3105
504.2954, 757.4901
504.7776, 762.3113
505.2597, 766.4957
505.7418, 767.6835
506.2239, 767.2613
506.7060, 767.2401
507.1881, 767.8008
507.6703, 768.4192
508.1524, 769.2318
508.6345, 769.8050
509.1166, 769.1434
509.5987, 767.0934
510.0808, 764.9767
510.5630, 763.8626
511.0451, 763.6808
511.5272, 763.4352
512.0093, 763.3094
512.4914, 762.9073
512.9735, 761.8231
513.4556, 760.5123
513.9377, 759.5277
514.4199, 759.0349
514.9020, 758.8861
515.3841, 758.8926
515.8662, 759.0173
516.3483, 759.5588
516.8304, 761.3311
517.3126, 762.6555
517.7947, 762.9590
518.2768, 762.5441
518.7589, 761.8107
519.2410, 760.9026
519.7231, 759.9370
520.2053, 759.0934
520.6874, 758.1646
521.1695, 757.5736
521.6516, 756.4002
522.1337, 755.4159
522.6158, 754.5931
523.0980, 754.1848
523.5801, 755.0312
524.0622, 758.6232
524.5443, 762.4157
525.0264, 763.5018
525.5085, 762.2609
525.9907, 760.7158
526.4728, 759.3480
526.9549, 758.4723
527.4370, 758.7509
527.9191, 760.4078
528.4012, 761.7413
528.8834, 762.4169
529.3655, 762.8669
529.8476, 763.5273
530.3297, 764.2311
530.8118, 764.3954
531.2939, 763.6774
531.7761, 762.4080
532.2582, 761.3658
532.7403, 760.1104
533.2224, 759.9488
533.7045, 761.8453
534.1866, 763.8486
534.6688, 764.9529
535.1509, 765.1311
535.6330, 764.7026
536.1151, 763.7746
536.5972, 762.5142
537.0793, 761.0566
537.5615, 758.9983
538.0436, 758.4973
538.5257, 761.6815
539.0078, 765.5601
539.4899, 767.3249
539.9720, 767.0040
540.4542, 766.8693
540.9363, 768.3879
541.4184, 770.5656
541.9005, 772.3486
542.3826, 773.6370
542.8647, 773.3193
543.3469, 769.9900
543.8290, 765.5248
544.3111, 765.2913
544.7932, 771.9558
545.2753, 775.9423
545.7574, 773.2042
546.2396, 769.1971
546.7217, 769.1754
547.2038, 772.7225
547.6859, 775.6605
548.1680, 774.9181
548.6501, 771.4996
549.1323, 769.9484
549.6144, 771.7364
550.0965, 772.8796
550.5786, 772.0898
551.0607, 771.2334
551.5428, 771.9302
552.0250, 774.0538
552.5071, 776.0887
552.9892, 777.1011
553.4713, 777.1589
553.9534, 776.3338
554.4355, 774.4909
554.9177, 772.3950
555.3998, 769.9689
555.8819, 767.7269
556.3640, 766.3040
556.8461, 765.7607
557.3282, 765.6239
557.8104, 765.5303
558.2925, 765.8467
558.7746, 767.4881
559.2567, 770.2511
559.7388, 772.4439
560.2209, 773.1592
560.7031, 772.4322
561.1852, 770.3674
561.6673, 764.5665
562.1494, 760.8112
562.6315, 760.4407
563.1136, 761.1510
563.5958, 761.5485
564.0779, 761.4594
564.5600, 761.2941
565.0421, 761.5010
565.5242, 761.5705
566.0063, 759.2840
566.4885, 753.1839
566.9706, 749.0247
567.4527, 750.7337
567.9348, 752.9398
568.4169, 751.3711
568.8990, 746.3881
569.3812, 742.0760
569.8633, 740.7617
570.3454, 741.2861
570.8275, 742.6780
571.3096, 744.7814
571.7917, 745.5576
572.2739, 743.8723
572.7560, 740.8488
573.2381, 738.3377
573.7202, 736.2451
574.2023, 734.9374
574.6844, 735.2367
575.1666, 735.6459
575.6487, 734.9826
576.1308, 733.5599
576.6129, 732.4161
577.0950, 732.1020
577.5771, 732.1904
578.0593, 731.7750
578.5414, 730.8432
579.0235, 729.4273
579.5056, 726.1968
579.9877, 723.7261
580.4698, 724.2352
580.9520, 726.3708
581.4341, 726.9117
581.9162, 724.0898
582.3983, 719.7433
582.8804, 715.3556
583.3625, 711.1591
583.8447, 710.3627
584.3268, 714.8539
584.8089, 720.3307
585.2910, 722.4384
585.7732, 721.4250
586.2553, 719.7337
586.7374, 716.2034
587.2195, 713.4799
587.7017, 713.4755
588.1838, 715.0842
588.6659, 716.5204
589.1480, 717.2103
589.6301, 717.3605
590.1122, 717.2064
590.5944, 716.7427
591.0765, 715.9842
591.5586, 714.0194
592.0407, 712.8475
592.5228, 713.9589
593.0049, 715.6242
593.4871, 715.7645
593.9692, 713.8583
594.4513, 711.0932
594.9334, 707.9830
595.4155, 704.8467
595.8976, 703.2003
596.3798, 703.2825
596.8619, 704.2506
597.3440, 706.4674
597.8261, 708.8938
598.3082, 708.8386
598.7903, 704.7054
599.2725, 702.1374
599.7546, 704.6657
600.2367, 708.5945
600.7188, 709.7106
601.2009, 708.0062
601.6830, 706.2328
602.1652, 706.2914
602.6473, 707.5826
603.1294, 707.8774
603.6115, 706.6859
604.0936, 705.3566
604.5757, 703.3177
605.0579, 701.7579
605.5400, 701.8694
606.0221, 703.1628
606.5042, 704.0031
606.9863, 703.3879
607.4684, 701.9745
607.9506, 700.2845
608.4327, 698.3669
608.9148, 698.6000
609.3969, 702.7970
609.8790, 707.1193
610.3611, 706.3591
610.8433, 701.0736
611.3254, 698.4254
611.8075, 701.7037
612.2896, 705.1383
612.7717, 705.3096
613.2538, 703.6874
613.7360, 703.0974
614.2181, 704.2986
614.7002, 705.5391
615.1823, 704.5487
615.6644, 701.1530
616.1465, 699.1529
616.6287, 699.5666
617.1108, 700.0274
617.5929, 699.6476
618.0750, 699.1710
618.5571, 699.8276
619.0392, 701.7430
619.5214, 702.7474
620.0035, 699.9144
620.4856, 695.3152
620.9677, 694.0349
621.4498, 696.3903
621.9319, 698.7463
622.4141, 699.4061
622.8962, 698.8932
623.3783, 698.0507
623.8604, 696.3422
624.3425, 696.0123
624.8246, 699.1962
625.3068, 702.1694
625.7889, 701.9802
626.2710, 699.5111
626.7531, 697.0692
627.2352, 695.7708
627.7173, 695.6804
628.1995, 697.5089
628.6816, 702.0148
629.1637, 704.1335
629.6458, 701.9191
630.1279, 699.3939
630.6100, 698.1349
631.0922, 698.0524
631.5743, 699.2214
632.0564, 702.1119
632.5385, 704.8741
633.0206, 706.1785
633.5027, 706.4119
633.9849, 706.1465
634.4670, 705.4902
634.9491, 705.0217
635.4312, 705.3207
635.9133, 706.0555
636.3954, 705.6261
636.8776, 701.9238
637.3597, 699.9216
637.8418, 701.6262
638.3239, 703.5748
638.8060, 702.9564
639.2881, 700.2687
639.7703, 697.8829
640.2524, 697.2500
640.7345, 697.6183
641.2166, 697.5226
641.6987, 696.9247
642.1808, 696.7439
642.6630, 697.3505
643.1451, 698.1039
643.6272, 698.7426
644.1093, 699.1232
644.5914, 698.5258
645.0735, 694.6132
645.5557, 692.2722
646.0378, 695.7760
646.5199, 701.4213
647.0020, 703.7042
647.4841, 701.7390
647.9662, 698.2529
648.4484, 695.4340
648.9305, 693.3586
649.4126, 692.5477
649.8947, 693.5251
650.3768, 694.8199
650.8589, 696.5643
651.3411, 698.2099
651.8232, 699.3842
652.3053, 700.0886
652.7874, 700.5471
653.2695, 701.1659
653.7516, 701.3098
654.2338, 699.8185
654.7159, 697.0498
655.1980, 694.5439
655.6801, 692.6719
656.1622, 691.6142
656.6443, 691.8135
657.1265, 693.3919
657.6086, 693.8400
658.0907, 691.4415
658.5728, 690.2197
659.0549, 692.4064
659.5370, 695.4650
660.0192, 696.5071
660.5013, 695.3189
660.9834, 694.1061
661.4655, 695.1046
661.9476, 697.2147
662.4297, 696.4186
662.9119, 692.1870
663.3940, 689.3981
663.8761, 690.4160
664.3582, 692.4650
664.8403, 691.8607
665.3224, 688.8635
665.8046, 686.9893
666.2867, 687.6172
666.7688, 688.6384
667.2509, 688.9258
667.7330, 688.8092
668.2151, 689.0932
668.6973, 689.8941
669.1794, 690.2191
669.6615, 688.7892
670.1436, 685.8157
670.6257, 684.4538
671.1078, 685.5895
671.5900, 686.4948
672.0721, 685.9279
672.5542, 685.1819
673.0363, 685.4557
673.5184, 686.6904
674.0005, 687.6088
674.4827, 687.7494
674.9648, 687.2623
675.4469, 685.6944
675.9290, 683.6004
676.4111, 682.8525
676.8932, 684.0547
677.3754, 685.7785
677.8575, 686.3959
678.3396, 685.8797
678.8217, 684.9813
679.3038, 683.0316
679.7859, 681.5684
680.2681, 680.6039
680.7502, 680.4092
681.2323, 682.0609
681.7144, 685.1261
682.1965, 686.7853
682.6786, 684.0023
683.1608, 679.5175
683.6429, 678.0295
684.1250, 679.2178
684.6071, 680.4106
685.0892, 680.8102
685.5714, 680.9182
686.0535, 681.2903
686.5356, 681.9406
687.0177, 682.5434
687.4998, 684.6051
687.9819, 684.7473
688.4641, 680.0016
688.9462, 674.2633
689.4283, 671.9670
689.9104, 673.2120
690.3925, 674.2438
690.8746, 671.6925
691.3568, 667.4816
691.8389, 666.7811
692.3210, 669.7750
692.8031, 671.4930
693.2852, 670.2394
693.7673, 668.0499
694.2495, 666.9228
694.7316, 666.8001
695.2137, 666.5930
695.6958, 665.6444
696.1779, 665.3552
696.6600, 666.9250
697.1422, 668.9788
697.6243, 670.1885
698.1064, 670.2662
698.5885, 669.2833
699.0706, 667.0800
699.5527, 664.2267
700.0349, 662.3649
700.5170, 661.6053
700.9991, 661.1380
701.4812, 660.7803
701.9633, 660.7032
702.4454, 661.4577
702.9276, 662.6684
703.4097, 663.0093
703.8918, 661.6322
704.3739, 660.2850
704.8560, 659.9531
705.3381, 659.8908
705.8203, 658.7695
706.3024, 656.8086
706.7845, 655.9145
707.2666, 657.5704
707.7487, 660.5497
708.2308, 661.3323
708.7130, 659.4062
709.1951, 657.6424
709.6772, 656.2266
710.1593, 655.2402
710.6414, 654.9822
711.1235, 655.1385
711.6057, 655.0829
712.0878, 654.8156
712.5699, 654.0943
713.0520, 651.9175
713.5341, 649.7697
714.0162, 649.6635
714.4984, 651.4296
714.9805, 653.6231
715.4626, 655.4929
715.9447, 656.8539
716.4268, 657.4892
716.9089, 657.6469
717.3911, 655.7800
717.8732, 649.5723
718.3553, 644.4548
718.8374, 643.8525
719.3195, 645.4547
719.8016, 645.9984
720.2838, 644.8932
720.7659, 643.4687
721.2480, 641.8891
721.7301, 640.6417
722.2122, 640.4492
722.6943, 641.0930
723.1765, 641.8309
723.6586, 642.3463
724.1407, 642.5182
724.6228, 642.0403
725.1049, 640.7754
725.5870, 640.2147
726.0692, 641.1446
726.5513, 641.4960
727.0334, 639.7560
727.5155, 637.6152
727.9976, 636.9249
728.4797, 637.8103
728.9619, 638.6289
729.4440, 638.2557
729.9261, 637.8943
730.4082, 639.0779
730.8903, 641.0854
731.3724, 642.2626
731.8546, 642.1105
732.3367, 640.8496
732.8188, 638.4823
733.3009, 635.1859
733.7830, 633.0341
734.2651, 632.2079
734.7473, 632.1531
735.2294, 633.8188
735.7115, 635.3470
736.1936, 635.0706
736.6757, 633.3908
737.1578, 632.2846
737.6400, 632.8392
738.1221, 633.5042
738.6042, 633.4984
739.0863, 632.8262
739.5684, 631.0305
740.0505, 628.3329
740.5327, 626.2366
741.0148, 625.8549
741.4969, 626.7975
741.9790, 628.0775
742.4611, 630.0560
742.9432, 631.0138
743.4254, 630.4877
743.9075, 629.2582
744.3896, 626.9391
744.8717, 624.4696
745.3538, 623.9433
745.8359, 626.5612
746.3181, 628.2292
746.8002, 625.8922
747.2823, 622.5887
747.7644, 621.8083
748.2465, 622.9666
748.7286, 623.1601
749.2108, 621.0682
749.6929, 618.4634
750.1750, 618.2173
750.6571, 620.4820
751.1392, 621.9510
751.6213, 622.5955
752.1035, 622.5049
752.5856, 621.4146
753.0677, 619.7850
753.5498, 617.9638
754.0319, 615.9343
754.5140, 614.6532
754.9962, 614.9130
755.4783, 615.3890
755.9604, 615.5156
756.4425, 615.2397
756.9246, 614.3398
757.4067, 612.8867
757.8889, 611.5485
758.3710, 610.9415
758.8531, 610.8220
759.3352, 610.3828
759.8173, 609.6064
760.2994, 608.5272
760.7816, 606.5648
761.2637, 605.4099
761.7458, 607.4174
762.2279, 611.6296
762.7100, 613.3401
763.1921, 610.3920
763.6743, 608.1461
764.1564, 608.7920
764.6385, 609.8382
765.1206, 608.9310
765.6027, 606.6415
766.0848, 604.8860
766.5670, 604.5329
767.0491, 605.2407
767.5312, 607.3402
768.0133, 610.3084
768.4954, 610.8132
768.9775, 608.3488
769.4597, 606.1142
769.9418, 605.7646
770.4239, 606.3204
770.9060, 606.0712
771.3881, 604.7531
771.8702, 603.6508
772.3524, 602.6650
772.8345, 601.9913
773.3166, 601.8995
773.7987, 602.0371
774.2808, 602.0007
774.7629, 601.7495
775.2451, 601.5607
775.7272, 601.8783
776.2093, 602.1118
776.6914, 600.7568
777.1735, 598.4366
777.6556, 598.1693
778.1378, 600.7247
778.6199, 603.2822
779.1020, 603.3294
779.5841, 601.4200
780.0662, 600.4444
780.5483, 601.4341
781.0305, 601.3851
781.5126, 598.9217
781.9947, 596.6104
782.4768, 595.4083
782.9589, 595.3206
783.4410, 596.6115
783.9232, 599.7756
784.4053, 602.0961
784.8874, 601.5970
785.3695, 599.5971
785.8516, 597.0197
786.3337, 594.3763
786.8159, 592.8868
787.2980, 593.0360
787.7801, 594.3190
788.2622, 596.5018
788.7443, 599.4782
789.2264, 599.8360
789.7086, 596.3007
790.1907, 593.7217
790.6728, 593.9763
791.1549, 595.2858
791.6370, 596.1749
792.1191, 596.6184
792.6013, 596.3320
793.0834, 594.6267
793.5655, 592.9853
794.0476, 591.1755
794.5297, 590.2468
795.0118, 592.2774
795.4940, 596.3463
795.9761, 599.0053
796.4582, 598.2797
796.9403, 595.7816
797.4224, 593.5296
797.9045, 591.5663
798.3867, 590.3945
798.8688, 590.1482
799.3509, 589.8223
799.8330, 588.7851
800.3151, 587.5555
800.7972, 587.1218
801.2794, 587.6783
801.7615, 588.2771
802.2436, 588.5421
802.7257, 589.3087
803.2078, 592.6405
803.6899, 595.4207
804.1721, 593.1156
804.6542, 586.2819
805.1363, 581.4169
805.6184, 583.3610
806.1005, 587.2411
806.5826, 588.0035
807.0648, 586.8317
807.5469, 586.4122
808.0290, 587.1605
808.5111, 587.9583
808.9932, 587.9999
809.4753, 587.5975
809.9575, 587.6315
810.4396, 588.2708
810.9217, 588.6540
811.4038, 589.1608
811.8859, 588.6932
812.3680, 585.5772
812.8502, 581.6707
813.3323, 579.4952
813.8144, 579.1837
814.2965, 580.4274
814.7786, 585.4813
815.2607, 589.5981
815.7429, 588.7758
816.2250, 585.8611
816.7071, 585.0218
817.1892, 586.9026
817.6713, 589.4235
818.1534, 591.2766
818.6356, 592.3588
819.1177, 592.4752
819.5998, 591.6326
820.0819, 589.4333
820.5640, 585.5496
821.0461, 582.6183
821.5283, 582.5970
822.0104, 584.7857
822.4925, 587.2357
822.9746, 591.3294
823.4567, 592.6033
823.9388, 588.2208
824.4210, 584.2968
824.9031, 583.4274
825.3852, 584.0169
825.8673, 583.9793
826.3494, 583.0176
826.8315, 582.1942
827.3137, 582.2217
827.7958, 582.3939
828.2779, 582.3932
828.7600, 582.0201
829.2421, 580.2424
829.7242, 577.3206
830.2064, 576.0099
830.6885, 578.7578
831.1706, 583.5654
831.6527, 585.2871
832.1348, 583.8073
832.6169, 582.6000
833.0991, 582.2275
833.5812, 581.4718
834.0633, 578.9859
834.5454, 576.1070
835.0275, 576.1577
835.5096, 581.1240
835.9918, 582.9762
836.4739, 577.9641
836.9560, 574.2028
837.4381, 575.9296
837.9202, 579.6942
838.4023, 581.5118
838.8845, 581.0329
839.3666, 580.6328
839.8487, 582.4854
840.3308, 583.8625
840.8129, 580.7244
841.2950, 575.4824
841.7772, 573.2491
842.2593, 574.4531
842.7414, 576.3684
843.2235, 577.3994
843.7056, 577.3420
844.1877, 574.7782
844.6699, 569.1524
845.1520, 568.8002
845.6341, 576.3643
846.1162, 582.2539
846.5983, 581.5069
847.0804, 577.9228
847.5626, 576.7693
848.0447, 578.1901
848.5268, 579.3704
849.0089, 580.3908
849.4910, 580.9056
849.9731, 580.4245
850.4553, 579.7034
850.9374, 579.9894
851.4195, 580.6801
851.9016, 579.3317
852.3837, 574.0645
852.8658, 569.4781
853.3480, 570.9721
853.8301, 575.4288
854.3122, 577.5039
854.7943, 577.1103
855.2764, 576.0426
855.7585, 575.0648
856.2407, 574.1666
856.7228, 573.3233
857.2049, 572.5414
857.6870, 571.5967
858.1691, 569.9818
858.6512, 570.6091
859.1334, 576.0703
859.6155, 580.9606
860.0976, 579.5059
860.5797, 573.1125
861.0618, 569.9142
861.5439, 572.5538
862.0261, 573.8957
862.5082, 571.6445
862.9903, 569.4648
863.4724, 570.1514
863.9545, 572.1621
864.4366, 572.4417
864.9188, 570.3161
865.4009, 568.8581
865.8830, 571.5461
866.3651, 574.8064
866.8472, 573.5799
867.3293, 569.7953
867.8115, 568.7483
868.2936, 571.2150
868.7757, 573.1566
869.2578, 571.3761
869.7399, 567.3640
870.2220, 564.4525
870.7042, 562.6173
871.1863, 562.9453
871.6684, 566.2078
872.1505, 569.1252
872.6326, 569.9686
873.1147, 569.5398
873.5969, 569.0789
874.0790, 568.5178
874.5611, 568.2941
875.0432, 569.2869
875.5253, 569.4493
876.0074, 567.3574
876.4896, 565.0244
876.9717, 564.5514
877.4538, 565.4265
877.9359, 565.2239
878.4180, 562.6498
878.9001, 560.0596
879.3823, 558.4443
879.8644, 557.9016
880.3465, 559.4957
880.8286, 562.1693
881.3107, 562.9348
881.7928, 560.8263
882.2750, 558.2530
882.7571, 558.1154
883.2392, 556.4451
883.7213, 558.4828
884.2034, 555.5375
884.6855, 554.1140
885.1677, 555.1310
885.6498, 557.2139
886.1319, 559.6254
886.6140, 561.8973
887.0961, 562.3851
887.5782, 560.5813
888.0604, 558.1920
888.5425, 553.8702
889.0246, 550.8417
889.5067, 551.3990
889.9888, 553.3046
890.4709, 554.0858
890.9531, 553.6390
891.4352, 552.9598
891.9173, 551.4392
892.3994, 550.7313
892.8815, 552.7831
893.3636, 554.9963
893.8458, 553.9910
894.3279, 550.8423
894.8100, 549.6434
895.2921, 552.3775
895.7742, 555.3427
896.2563, 554.8029
896.7385, 552.2927
897.2206, 549.8984
897.7027, 547.9369
898.1848, 547.4398
898.6669, 548.6368
899.1490, 549.6683
899.6312, 548.5846
900.1133, 546.0707
900.5954, 544.6420
901.0775, 544.3237
901.5596, 545.0611
902.0417, 547.3802
902.5239, 548.9876
903.0060, 548.4179
903.4881, 546.3407
903.9702, 543.7875
904.4523, 539.9570
904.9344, 538.9202
905.4166, 543.0389
905.8987, 546.8815
906.3808, 550.2324
906.8629, 552.0704
907.3450, 550.5846
907.8271, 546.6692
908.3093, 544.0224
908.7914, 544.2238
909.2735, 544.4532
909.7556, 542.8469
910.2377, 541.2480
910.7198, 541.5275
911.2020, 543.0427
911.6841, 544.6277
912.1662, 545.8033
912.6483, 545.8835
913.1304, 543.4939
913.6125, 540.3764
914.0947, 539.5623
914.5768, 540.4385
915.0589, 541.0590
915.5410, 541.1097
916.0231, 541.1996
916.5052, 541.7036
916.9874, 542.5390
917.4695, 543.8651
917.9516, 545.7542
918.4337, 545.8951
918.9158, 543.9252
919.3979, 541.7411
919.8801, 539.7401
920.3622, 538.2663
920.8443, 537.7595
921.3264, 538.1515
921.8085, 538.7762
922.2906, 540.7824
922.7728, 541.1258
923.2549, 537.5424
923.7370, 534.6676
924.2191, 535.4700
924.7012, 538.0024
925.1833, 539.2944
925.6655, 538.9700
926.1476, 538.4782
926.6297, 537.5977
927.1118, 537.4199
927.5939, 539.5675
928.0760, 541.9517
928.5582, 541.9293
929.0403, 539.9393
929.5224, 538.4435
930.0045, 538.6322
930.4866, 538.7740
930.9688, 536.7575
931.4509, 534.0007
931.9330, 532.3848
932.4151, 532.0306
932.8972, 533.2737
933.3793, 536.0359
933.8615, 539.0314
934.3436, 541.3461
934.8257, 542.6339
935.3078, 541.2460
935.7899, 537.4908
936.2720, 536.3025
936.7542, 538.4612
937.2363, 540.1967
937.7184, 539.5862
938.2005, 537.7858
938.6826, 536.3515
939.1647, 535.2667
939.6469, 535.5983
940.1290, 538.6379
940.6111, 539.8455
941.0932, 536.8807
941.5753, 533.8276
942.0574, 534.1693
942.5396, 536.4734
943.0217, 536.5970
943.5038, 533.2723
943.9859, 531.6502
944.4680, 533.7478
944.9501, 535.6555
945.4323, 536.0494
945.9144, 535.4511
946.3965, 533.7460
946.8786, 531.4924
947.3607, 530.8337
947.8428, 533.2400
948.3250, 535.6846
948.8071, 536.5408
949.2892, 536.6796
949.7713, 537.1368
950.2534, 537.4473
950.7355, 536.1541
951.2177, 533.1322
951.6998, 530.5275
952.1819, 529.8231
952.6640, 530.5967
953.1461, 533.3192
953.6282, 536.8039
954.1104, 537.9392
954.5925, 536.7095
955.0746, 535.4122
955.5567, 535.1818
956.0388, 535.2491
956.5209, 534.7289
957.0031, 533.5834
957.4852, 531.2003
957.9673, 527.5845
958.4494, 524.8790
958.9315, 523.4416
959.4136, 524.2437
959.8958, 528.6429
960.3779, 534.5012
960.8600, 535.9441
961.3421, 531.7722
961.8242, 529.2983
962.3063, 528.9426
962.7885, 529.3232
963.2706, 530.3601
963.7527, 531.5091
964.2348, 532.5191
964.7169, 533.2426
965.1990, 532.5822
965.6812, 527.7961
966.1633, 525.8663
966.6454, 529.9479
967.1275, 533.2759
967.6096, 532.0882
968.0917, 529.1025
968.5739, 527.5773
969.0560, 527.7590
969.5381, 528.7115
970.0202, 531.7948
970.5023, 533.5030
970.9844, 531.4128
971.4666, 528.5443
971.9487, 527.1508
972.4308, 526.9484
972.9129, 526.8596
973.3950, 526.6085
973.8771, 526.8433
974.3593, 529.0188
974.8414, 530.7721
975.3235, 529.0883
975.8056, 526.1695
976.2877, 525.5008
976.7698, 526.9384
977.2520, 527.9769
977.7341, 527.4133
978.2162, 527.1229
978.6983, 530.3860
979.1804, 534.6481
979.6625, 534.3989
980.1447, 530.7913
980.6268, 527.8068
981.1089, 526.3635
981.5910, 525.7767
982.0731, 525.6341
982.5552, 525.7588
983.0374, 525.9235
983.5195, 526.0887
984.0016, 525.6935
984.4837, 524.7332
984.9658, 525.0864
985.4479, 527.5208
985.9301, 529.8183
986.4122, 529.9425
986.8943, 528.2960
987.3764, 526.0131
987.8585, 522.7745
988.3406, 521.1307
988.8228, 521.5977
989.3049, 522.4074
989.7870, 523.1629
990.2691, 523.2960
990.7512, 521.7486
991.2333, 518.7829
991.7155, 517.8646
992.1976, 520.5198
992.6797, 521.9410
993.1618, 520.7150
993.6439, 519.7380
994.1260, 521.0148
994.6082, 522.9540
995.0903, 523.0320
995.5724, 521.1606
996.0545, 520.1676
996.5366, 521.7571
997.0187, 521.9376
997.5009, 517.9677
997.9830, 514.5571
998.4651, 515.9247
998.9472, 519.2559
999.4293, 519.0262
999.9114, 514.2792
1000.394, 511.4785
1000.876, 514.0229
1001.358, 516.7952
1001.840, 518.0970
1002.322, 518.3362
1002.804, 517.4296
1003.286, 515.9211
1003.768, 514.6821
1004.250, 513.9227
1004.733, 514.0856
1005.215, 516.4749
1005.697, 518.7360
1006.179, 518.2225
1006.661, 517.0841
1007.143, 518.9497
1007.625, 522.9235
1008.107, 524.9611
1008.590, 523.2978
1009.072, 520.4105
1009.554, 517.6749
1010.036, 515.4363
1010.518, 514.6473
1011.000, 514.4750
1011.482, 512.6793
1011.964, 509.5094
1012.446, 508.0077
1012.929, 509.9800
1013.411, 512.7289
1013.893, 512.4528
1014.375, 510.8975
1014.857, 512.0125
1015.339, 515.0579
1015.821, 517.2958
1016.303, 518.0691
1016.786, 517.7187
1017.268, 516.3312
1017.750, 514.8751
1018.232, 515.8781
1018.714, 518.1713
1019.196, 515.5499
1019.678, 508.7141
1020.160, 505.7154
1020.642, 508.7443
1021.125, 513.2158
1021.607, 515.6557
1022.089, 516.3845
1022.571, 515.7009
1023.053, 513.7170
1023.535, 512.8137
1024.017, 513.1110
1024.499, 513.7256
1024.981, 514.5112
1025.464, 514.4522
1025.946, 512.3314
1026.428, 512.9125
1026.910, 512.3279
1027.392, 511.3865
1027.874, 511.9857
1028.356, 509.6744
1028.838, 508.9134
1029.321, 511.9066
1029.803, 514.9501
1030.285, 514.1425
1030.767, 510.5312
1031.249, 508.9277
1031.731, 509.9738
1032.213, 510.6220
1032.695, 510.9883
1033.177, 510.2815
1033.660, 507.4645
1034.142, 504.6670
1034.624, 504.0676
1035.106, 505.4467
1035.588, 507.5432
1036.070, 510.9284
1036.552, 513.7225
1037.034, 516.4311
1037.516, 517.5740
1037.999, 515.8722
1038.481, 513.0955
1038.963, 510.9244
1039.445, 509.3344
1039.927, 508.1421
1040.409, 507.8318
1040.891, 507.0592
1041.373, 505.2177
1041.856, 503.6896
1042.338, 502.6471
1042.820, 502.4153
1043.302, 503.9470
1043.784, 506.8677
1044.266, 508.3165
1044.748, 507.0073
1045.230, 506.2523
1045.713, 507.0101
1046.195, 507.4008
1046.677, 505.7395
1047.159, 504.0070
1047.641, 504.9734
1048.123, 508.1343
1048.605, 509.5439
1049.087, 507.2501
1049.569, 505.9888
1050.052, 507.3131
1050.534, 508.7611
1051.016, 509.0302
1051.498, 508.9615
1051.980, 509.8691
1052.462, 511.4813
1052.944, 511.8789
1053.426, 510.3734
1053.908, 508.3537
1054.391, 504.7590
1054.873, 502.3113
1055.355, 502.6881
1055.837, 504.7347
1056.319, 508.1806
1056.801, 512.1884
1057.283, 513.4679
1057.765, 510.0457
1058.248, 506.7318
1058.730, 504.4537
1059.212, 503.1830
1059.694, 503.0818
1060.176, 503.8541
1060.658, 505.4757
1061.140, 507.6881
1061.622, 509.7928
1062.104, 512.0903
1062.587, 512.8463
1063.069, 509.6669
1063.551, 506.7748
1064.033, 507.8705
1064.515, 509.7224
1064.997, 507.7249
1065.479, 502.8101
1065.961, 499.9233
1066.443, 500.8335
1066.926, 502.5961
1067.408, 505.4272
1067.890, 507.1442
1068.372, 505.1884
1068.854, 502.3193
1069.336, 502.0193
1069.818, 503.7403
1070.300, 504.3111
1070.783, 502.3994
1071.265, 501.4279
1071.747, 504.6571
1072.229, 507.2442
1072.711, 504.1662
1073.193, 500.5039
1073.675, 503.7108
1074.157, 511.1506
1074.640, 513.5657
1075.122, 507.7148
1075.604, 502.0580
1076.086, 499.9312
1076.568, 499.7444
1077.050, 501.6213
1077.532, 504.1280
1078.014, 506.3744
1078.496, 507.9022
1078.979, 507.8799
1079.461, 506.0340
1079.943, 503.9785
1080.425, 501.6579
1080.907, 500.3103
1081.389, 501.4276
1081.871, 503.1564
1082.353, 503.7224
1082.836, 503.4781
1083.318, 503.7022
1083.800, 504.6652
1084.282, 504.8177
1084.764, 501.2913
1085.246, 499.6160
1085.728, 505.1971
1086.210, 511.3734
1086.693, 512.3774
1087.175, 509.6735
1087.657, 505.9603
1088.139, 501.9713
1088.621, 499.3836
1089.103, 499.4162
1089.585, 500.2022
1090.067, 501.1710
1090.549, 502.3537
1091.031, 504.2570
1091.514, 506.1248
1091.996, 506.3721
1092.478, 505.1416
1092.960, 505.2272
1093.442, 509.5864
1093.924, 511.5982
1094.406, 506.7914
1094.888, 501.0199
1095.371, 497.3836
1095.853, 495.5248
1096.335, 494.8334
1096.817, 495.1772
1097.299, 496.5524
1097.781, 499.5250
1098.263, 502.0773
1098.745, 503.4327
1099.228, 504.3824
1099.710, 505.8072
1100.192, 506.6866
1100.674, 505.4680
1101.156, 502.7342
1101.638, 500.4701
1102.120, 498.7575
1102.602, 498.6396
1103.084, 502.3062
1103.567, 505.1102
1104.049, 504.8539
1104.531, 503.2955
1105.013, 500.9486
1105.495, 498.7657
1105.977, 499.0588
1106.459, 502.6538
1106.941, 504.8734
1107.423, 504.0946
1107.906, 503.0372
1108.388, 501.9102
1108.870, 501.2510
1109.352, 501.9038
1109.834, 503.0506
1110.316, 503.2074
1110.798, 502.2490
1111.280, 501.4625
1111.763, 500.4634
1112.245, 500.3827
1112.727, 503.1466
1113.209, 504.8128
1113.691, 502.0237
1114.173, 497.9915
1114.655, 497.1914
1115.137, 499.3160
1115.620, 499.9373
1116.102, 497.2470
1116.584, 496.2733
1117.066, 498.3025
1117.548, 500.2227
1118.030, 500.8150
1118.512, 501.0319
1118.994, 501.8795
1119.476, 503.0995
1119.958, 503.5973
1120.441, 504.1132
1120.923, 504.7178
1121.405, 504.2410
1121.887, 504.7317
1122.369, 503.8706
1122.851, 502.1564
1123.333, 499.5579
1123.815, 496.7635
1124.298, 495.3322
1124.780, 495.3615
1125.262, 495.5467
1125.744, 495.8775
1126.226, 496.4148
1126.708, 497.1913
1127.190, 498.1633
1127.672, 499.4509
1128.155, 500.5426
1128.637, 500.6273
1129.119, 499.8293
1129.601, 499.0020
1130.083, 498.0151
1130.565, 498.8393
1131.047, 502.0189
1131.529, 503.6201
1132.011, 501.9503
1132.494, 498.7907
1132.976, 495.6119
1133.458, 493.0145
1133.940, 493.2435
1134.422, 495.9968
1134.904, 497.1101
1135.386, 496.5260
1135.868, 497.3970
1136.350, 500.5269
1136.833, 502.6068
1137.315, 501.1007
1137.797, 503.3354
1138.279, 499.8434
1138.761, 503.5211
1139.243, 503.8254
1139.725, 501.8195
1140.207, 503.1102
1140.690, 507.7879
1141.172, 509.6280
1141.654, 505.7206
1142.136, 500.8074
1142.618, 499.7898
1143.100, 501.1556
1143.582, 503.7602
1144.064, 506.1924
1144.547, 504.5930
1145.029, 500.0920
1145.511, 496.7711
1145.993, 495.9326
1146.475, 497.2266
1146.957, 501.4610
1147.439, 505.0136
1147.921, 503.0180
1148.403, 499.4051
1148.885, 499.1349
1149.368, 500.7107
1149.850, 500.9561
1150.332, 499.7305
1150.814, 498.9899
1151.296, 499.5917
1151.778, 500.4302
1152.260, 501.3366
1152.742, 501.6848
1153.225, 500.5420
1153.707, 499.0381
1154.189, 498.5822
1154.671, 498.7112
1155.153, 497.6583
1155.635, 495.0353
1156.117, 494.4525
1156.599, 499.2004
1157.082, 503.0810
1157.564, 503.5063
1158.046, 503.2145
1158.528, 504.6174
1159.010, 505.8612
1159.492, 503.3978
1159.974, 497.8380
1160.456, 495.3827
1160.938, 498.6685
1161.421, 500.9013
1161.903, 500.7179
1162.385, 501.0512
1162.867, 503.7036
1163.349, 505.9340
1163.831, 505.1061
1164.313, 502.5756
1164.795, 501.5861
1165.277, 502.2070
1165.760, 504.0497
1166.242, 508.1632
1166.724, 509.8534
1167.206, 507.5186
1167.688, 505.6232
1168.170, 506.6630
1168.652, 508.6920
1169.134, 509.2930
1169.617, 508.6526
1170.099, 507.2664
1170.581, 505.1079
1171.063, 504.8851
1171.545, 506.7792
1172.027, 507.5993
1172.509, 506.3636
1172.991, 504.5540
1173.474, 503.1931
1173.956, 502.5260
1174.438, 503.4571
1174.920, 505.3024
1175.402, 505.3410
1175.884, 504.3194
1176.366, 505.7652
1176.848, 509.3828
1177.330, 510.5662
1177.813, 507.4587
1178.295, 503.9018
1178.777, 502.8900
1179.259, 503.8169
1179.741, 507.6785
1180.223, 511.7352
1180.705, 511.2773
1181.187, 508.0405
1181.669, 505.5615
1182.152, 504.8880
1182.634, 506.9190
1183.116, 513.3874
1183.598, 517.5417
1184.080, 512.9451
1184.562, 507.5641
1185.044, 506.9205
1185.526, 508.0519
1186.009, 507.6685
1186.491, 506.3291
1186.973, 506.1991
1187.455, 507.7090
1187.937, 508.9037
1188.419, 508.9390
1188.901, 509.3232
1189.383, 511.4068
1189.865, 512.6708
1190.348, 512.0184
1190.830, 509.6950
1191.312, 504.3369
1191.794, 497.4433
1192.276, 496.7743
1192.758, 504.9247
1193.240, 510.5885
1193.722, 513.6619
1194.204, 514.2307
1194.687, 511.6128
1195.169, 508.6473
1195.651, 506.9354
1196.133, 506.4610
1196.615, 507.4473
1197.097, 509.5399
1197.579, 510.5546
1198.061, 510.5401
1198.544, 510.3546
1199.026, 510.0707
1199.508, 509.1438
1199.990, 507.4697
1200.472, 506.8412
1200.954, 508.9649
1201.436, 507.4151
1201.918, 510.3653
1202.401, 507.5132
1202.883, 507.5497
1203.365, 509.1190
1203.847, 508.6303
1204.329, 506.1899
1204.811, 504.1484
1205.293, 503.3927
1205.775, 503.3125
1206.257, 503.5519
1206.740, 504.2355
1207.222, 506.3203
1207.704, 508.0506
1208.186, 506.8633
1208.668, 504.8326
1209.150, 505.8813
1209.632, 509.3933
1210.114, 510.2636
1210.596, 506.2108
1211.079, 503.3401
1211.561, 502.6774
1212.043, 503.5722
1212.525, 508.4776
1213.007, 511.9640
1213.489, 509.0422
1213.971, 503.7498
1214.453, 502.4688
1214.936, 504.9512
1215.418, 506.7225
1215.900, 507.6323
1216.382, 508.2949
1216.864, 508.5826
1217.346, 509.5402
1217.828, 511.8022
1218.310, 512.9610
1218.792, 510.8865
1219.275, 512.4441
1219.757, 508.3365
1220.239, 511.3678
1220.721, 510.9168
1221.203, 507.8438
1221.685, 506.4053
1222.167, 506.9251
1222.649, 507.9026
1223.131, 508.7535
1223.614, 509.4796
1224.096, 510.1664
1224.578, 510.4716
1225.060, 509.2193
1225.542, 508.0831
1226.024, 509.2781
1226.506, 511.8636
1226.988, 515.2625
1227.471, 518.3898
1227.953, 518.5562
1228.435, 514.9031
1228.917, 511.5501
1229.399, 510.1151
1229.881, 509.1896
1230.363, 508.4739
1230.845, 507.9310
1231.328, 507.1938
1231.810, 506.8720
1232.292, 508.5594
1232.774, 511.2810
1233.256, 510.6735
1233.738, 512.6671
1234.220, 514.5129
1234.702, 512.6127
1235.184, 516.2754
1235.667, 512.0106
1236.149, 507.5311
1236.631, 506.8238
1237.113, 507.6589
1237.595, 507.3813
1238.077, 506.5592
1238.559, 507.2632
1239.041, 508.9931
1239.523, 509.0884
1240.006, 507.6901
1240.488, 505.4820
1240.970, 503.0787
1241.452, 503.0640
1241.934, 506.7422
1242.416, 510.4442
1242.898, 510.4022
1243.380, 509.2062
1243.863, 509.2689
1244.345, 509.7609
1244.827, 509.6043
1245.309, 509.2491
1245.791, 509.5934
1246.273, 510.6581
1246.755, 512.0347
1247.237, 514.2260
1247.719, 514.6023
1248.202, 509.7195
1248.684, 506.9627
1249.166, 510.7698
1249.648, 514.6790
1250.130, 514.7714
1250.612, 516.2816
1251.094, 513.2466
1251.576, 514.2869
1252.058, 512.8480
1252.541, 508.2075
1253.023, 506.7888
1253.505, 509.0890
1253.987, 510.3740
1254.469, 509.5139
1254.951, 508.9803
1255.433, 510.1982
1255.915, 512.4118
1256.398, 515.5307
1256.880, 517.8691
1257.362, 514.4861
1257.844, 508.7563
1258.326, 507.7119
1258.808, 510.0443
1259.290, 511.4400
1259.772, 511.3335
1260.255, 511.8535
1260.737, 513.9876
1261.219, 515.7466
1261.701, 515.8542
1262.183, 515.6382
1262.665, 515.2482
1263.147, 515.2941
1263.629, 516.6752
1264.111, 518.4583
1264.594, 519.5086
1265.076, 519.7611
1265.558, 519.0117
1266.040, 516.6140
1266.522, 515.6631
1267.004, 516.6658
1267.486, 517.2833
1267.968, 516.9916
1268.450, 516.6220
1268.933, 516.5577
1269.415, 516.9871
1269.897, 518.4423
1270.379, 519.8142
1270.861, 517.5853
1271.343, 513.3265
1271.825, 511.6916
1272.307, 512.3401
1272.790, 514.0204
1273.272, 516.1982
1273.754, 518.4582
1274.236, 520.5881
1274.718, 520.8546
1275.200, 515.5604
1275.682, 511.9675
1276.164, 517.3677
1276.646, 522.6860
1277.129, 520.0510
1277.611, 514.7595
1278.093, 512.6959
1278.575, 513.5704
1279.057, 515.5303
1279.539, 518.7971
1280.021, 520.6095
1280.503, 520.0335
1280.985, 520.6144
1281.468, 523.5770
1281.950, 524.7895
1282.432, 522.4513
1282.914, 519.2308
1283.396, 517.0959
1283.878, 516.5634
1284.360, 519.4746
1284.842, 524.1513
1285.325, 525.9363
1285.807, 524.9436
##END=



