##NAMES=Cesbronite
##RRUFFID=R070198
##IDEAL CHEMISTRY=Cu^2+^_3_Te^6+^O_4_(OH)_4_
##LOCALITY=Bambollita mine, Moctezuma, Municipio de Moctezuma, Sonora, Mexico
##OWNER=RRUFF
##SOURCE=Michael Scott
##DESCRIPTION=Dark green prismatic crystals associated with quartz
##STATUS=The identification of this mineral has been confirmed only by single crystal X-ray diffraction.
##URL=rruff.info/R070198
189.2882, 2320.581
189.7703, 2333.704
190.2524, 2341.751
190.7345, 2345.958
191.2166, 2344.198
191.6987, 2337.862
192.1809, 2337.105
192.6630, 2347.117
193.1451, 2358.458
193.6272, 2364.044
194.1093, 2364.587
194.5914, 2364.350
195.0736, 2366.110
195.5557, 2369.556
196.0378, 2372.052
196.5199, 2370.002
197.0020, 2371.962
197.4841, 2385.127
197.9663, 2406.897
198.4484, 2427.849
198.9305, 2443.352
199.4126, 2453.445
199.8947, 2457.830
200.3768, 2451.711
200.8590, 2446.628
201.3411, 2451.816
201.8232, 2463.167
202.3053, 2470.454
202.7874, 2462.778
203.2695, 2445.403
203.7517, 2442.782
204.2338, 2466.304
204.7159, 2485.898
205.1980, 2481.893
205.6801, 2464.528
206.1622, 2453.289
206.6444, 2461.727
207.1265, 2482.773
207.6086, 2494.280
208.0907, 2492.446
208.5728, 2487.767
209.0549, 2484.239
209.5371, 2481.275
210.0192, 2478.198
210.5013, 2475.116
210.9834, 2471.344
211.4655, 2463.668
211.9476, 2447.522
212.4298, 2438.382
212.9119, 2448.120
213.3940, 2465.303
213.8761, 2476.292
214.3582, 2474.190
214.8403, 2467.028
215.3225, 2471.166
215.8046, 2492.024
216.2867, 2507.989
216.7688, 2509.547
217.2509, 2504.309
217.7330, 2496.797
218.2152, 2487.296
218.6973, 2481.294
219.1794, 2489.637
219.6615, 2517.232
220.1436, 2539.101
220.6257, 2544.618
221.1079, 2543.735
221.5900, 2542.317
222.0721, 2541.640
222.5542, 2541.140
223.0363, 2539.021
223.5184, 2534.460
224.0006, 2534.449
224.4827, 2544.936
224.9648, 2557.545
225.4469, 2568.524
225.9290, 2577.105
226.4111, 2581.958
226.8933, 2580.300
227.3754, 2571.923
227.8575, 2564.411
228.3396, 2556.163
228.8217, 2551.773
229.3038, 2555.520
229.7859, 2566.468
230.2681, 2578.199
230.7502, 2584.527
231.2323, 2586.239
231.7144, 2593.191
232.1965, 2613.038
232.6786, 2629.132
233.1608, 2627.202
233.6429, 2613.120
234.1250, 2604.894
234.6071, 2618.858
235.0892, 2648.890
235.5714, 2667.824
236.0535, 2673.002
236.5356, 2670.966
237.0177, 2658.534
237.4998, 2642.659
237.9819, 2636.962
238.4641, 2651.988
238.9462, 2679.100
239.4283, 2700.824
239.9104, 2717.876
240.3925, 2727.005
240.8746, 2718.723
241.3568, 2704.109
241.8389, 2697.023
242.3210, 2703.221
242.8031, 2716.913
243.2852, 2732.277
243.7673, 2750.567
244.2495, 2763.332
244.7316, 2761.063
245.2137, 2754.288
245.6958, 2754.482
246.1779, 2765.817
246.6600, 2777.407
247.1422, 2776.516
247.6243, 2763.095
248.1064, 2753.185
248.5885, 2756.019
249.0706, 2760.539
249.5527, 2751.916
250.0349, 2727.527
250.5170, 2710.090
250.9991, 2723.485
251.4812, 2760.927
251.9633, 2783.524
252.4454, 2777.760
252.9276, 2762.470
253.4097, 2756.854
253.8918, 2760.012
254.3739, 2761.918
254.8560, 2757.478
255.3381, 2748.312
255.8203, 2736.394
256.3024, 2719.363
256.7845, 2706.652
257.2666, 2713.878
257.7487, 2734.127
258.2308, 2744.277
258.7130, 2728.998
259.1951, 2703.740
259.6772, 2689.876
260.1593, 2689.366
260.6414, 2690.037
261.1235, 2681.498
261.6057, 2667.973
262.0878, 2661.533
262.5699, 2672.626
263.0520, 2683.829
263.5341, 2677.526
264.0162, 2655.806
264.4984, 2638.049
264.9805, 2635.355
265.4626, 2642.801
265.9447, 2646.300
266.4268, 2644.161
266.9089, 2641.181
267.3911, 2640.542
267.8732, 2640.973
268.3553, 2638.504
268.8374, 2630.938
269.3195, 2621.350
269.8016, 2615.777
270.2838, 2614.824
270.7659, 2614.217
271.2480, 2613.201
271.7301, 2611.780
272.2122, 2610.128
272.6943, 2608.306
273.1765, 2605.516
273.6586, 2599.269
274.1407, 2587.449
274.6228, 2585.196
275.1049, 2601.676
275.5870, 2622.354
276.0692, 2637.042
276.5513, 2644.376
277.0334, 2645.013
277.5155, 2638.167
277.9976, 2623.478
278.4797, 2613.667
278.9619, 2610.061
279.4440, 2609.309
279.9261, 2613.449
280.4082, 2619.523
280.8903, 2619.495
281.3724, 2607.678
281.8546, 2587.470
282.3367, 2576.150
282.8188, 2582.500
283.3009, 2586.731
283.7830, 2581.720
284.2651, 2574.177
284.7473, 2574.495
285.2294, 2586.581
285.7115, 2603.213
286.1936, 2609.870
286.6757, 2598.942
287.1578, 2589.443
287.6400, 2580.393
288.1221, 2573.334
288.6042, 2569.818
289.0863, 2569.853
289.5684, 2571.883
290.0505, 2574.255
290.5327, 2577.076
291.0148, 2579.743
291.4969, 2580.820
291.9790, 2583.106
292.4611, 2589.881
292.9432, 2599.066
293.4254, 2605.419
293.9075, 2604.616
294.3896, 2597.506
294.8717, 2592.214
295.3538, 2587.101
295.8359, 2586.373
296.3181, 2596.623
296.8002, 2609.797
297.2823, 2614.492
297.7644, 2604.944
298.2465, 2588.256
298.7286, 2580.113
299.2108, 2584.980
299.6929, 2586.499
300.1750, 2574.042
300.6571, 2561.819
301.1392, 2562.997
301.6213, 2579.477
302.1035, 2597.422
302.5855, 2600.234
303.0677, 2587.314
303.5498, 2579.529
304.0319, 2583.642
304.5140, 2588.755
304.9961, 2587.072
305.4782, 2579.979
305.9604, 2573.977
306.4425, 2572.927
306.9246, 2575.870
307.4067, 2580.698
307.8888, 2588.222
308.3709, 2595.322
308.8531, 2600.609
309.3352, 2604.071
309.8173, 2604.916
310.2994, 2600.420
310.7815, 2595.997
311.2636, 2601.839
311.7458, 2617.158
312.2279, 2620.405
312.7100, 2594.159
313.1921, 2556.579
313.6742, 2541.146
314.1563, 2554.204
314.6385, 2569.586
315.1206, 2574.541
315.6027, 2572.826
316.0848, 2573.396
316.5669, 2579.186
317.0490, 2584.701
317.5312, 2580.181
318.0133, 2563.659
318.4954, 2558.048
318.9775, 2579.871
319.4596, 2604.922
319.9417, 2609.280
320.4239, 2592.876
320.9060, 2573.443
321.3881, 2564.727
321.8702, 2566.282
322.3523, 2565.521
322.8344, 2557.786
323.3166, 2553.114
323.7987, 2556.720
324.2808, 2565.719
324.7629, 2575.051
325.2450, 2582.434
325.7271, 2588.057
326.2093, 2592.441
326.6914, 2595.738
327.1735, 2597.311
327.6556, 2595.394
328.1377, 2592.925
328.6198, 2593.129
329.1020, 2596.146
329.5841, 2598.791
330.0662, 2597.700
330.5483, 2592.917
331.0304, 2583.932
331.5125, 2558.189
331.9947, 2540.405
332.4768, 2546.001
332.9589, 2566.584
333.4410, 2583.427
333.9231, 2584.043
334.4052, 2572.596
334.8874, 2563.893
335.3695, 2555.710
335.8516, 2555.159
336.3337, 2574.660
336.8158, 2596.499
337.2979, 2600.376
337.7801, 2579.670
338.2622, 2553.426
338.7443, 2545.765
339.2264, 2557.554
339.7085, 2565.259
340.1906, 2560.611
340.6728, 2555.091
341.1549, 2559.210
341.6370, 2571.582
342.1191, 2581.370
342.6012, 2581.242
343.0833, 2574.934
343.5655, 2570.059
344.0476, 2567.068
344.5297, 2565.102
345.0118, 2564.087
345.4939, 2563.662
345.9760, 2562.795
346.4582, 2559.990
346.9403, 2558.232
347.4224, 2559.654
347.9045, 2563.877
348.3866, 2571.505
348.8687, 2585.429
349.3509, 2597.698
349.8330, 2588.370
350.3151, 2546.540
350.7972, 2519.045
351.2793, 2521.289
351.7614, 2537.790
352.2436, 2556.337
352.7257, 2573.773
353.2078, 2586.674
353.6899, 2591.372
354.1720, 2587.245
354.6541, 2581.354
355.1363, 2569.741
355.6184, 2560.820
356.1005, 2560.281
356.5826, 2564.405
357.0647, 2565.734
357.5468, 2560.223
358.0290, 2551.061
358.5111, 2547.389
358.9932, 2552.334
359.4753, 2557.729
359.9574, 2566.505
360.4395, 2573.018
360.9217, 2571.272
361.4038, 2561.375
361.8859, 2550.150
362.3680, 2544.814
362.8501, 2545.601
363.3322, 2545.883
363.8144, 2544.890
364.2965, 2544.383
364.7786, 2545.333
365.2607, 2547.232
365.7428, 2549.261
366.2249, 2551.413
366.7071, 2553.001
367.1892, 2551.547
367.6713, 2546.301
368.1534, 2545.064
368.6355, 2552.428
369.1176, 2564.191
369.5998, 2578.073
370.0819, 2595.911
370.5640, 2603.042
371.0461, 2579.449
371.5282, 2541.464
372.0103, 2526.624
372.4925, 2543.583
372.9746, 2568.113
373.4567, 2580.077
373.9388, 2579.022
374.4209, 2572.327
374.9030, 2552.211
375.3852, 2533.829
375.8673, 2526.905
376.3494, 2529.353
376.8315, 2534.630
377.3136, 2539.636
377.7957, 2544.959
378.2779, 2552.292
378.7600, 2568.411
379.2421, 2577.029
379.7242, 2574.488
380.2063, 2566.529
380.6884, 2555.261
381.1706, 2542.437
381.6527, 2532.752
382.1348, 2531.573
382.6169, 2539.431
383.0990, 2545.389
383.5811, 2547.349
384.0633, 2549.547
384.5454, 2554.551
385.0275, 2560.071
385.5096, 2562.801
385.9917, 2561.262
386.4738, 2556.442
386.9560, 2548.218
387.4381, 2534.906
387.9202, 2527.646
388.4023, 2532.171
388.8844, 2541.121
389.3665, 2552.529
389.8487, 2565.251
390.3308, 2570.637
390.8129, 2554.131
391.2950, 2528.713
391.7771, 2527.553
392.2592, 2557.196
392.7414, 2580.943
393.2235, 2567.107
393.7056, 2529.969
394.1877, 2515.125
394.6698, 2540.728
395.1519, 2567.046
395.6341, 2573.705
396.1162, 2566.111
396.5983, 2553.704
397.0804, 2538.958
397.5625, 2525.059
398.0446, 2516.625
398.5268, 2514.955
399.0089, 2515.833
399.4910, 2520.315
399.9731, 2526.313
400.4552, 2532.030
400.9373, 2538.088
401.4194, 2547.361
401.9016, 2562.391
402.3837, 2580.590
402.8658, 2591.362
403.3479, 2592.677
403.8300, 2588.809
404.3121, 2574.250
404.7943, 2559.209
405.2764, 2553.185
405.7585, 2557.391
406.2406, 2564.434
406.7227, 2567.428
407.2048, 2566.471
407.6870, 2563.561
408.1691, 2556.495
408.6512, 2551.135
409.1333, 2552.846
409.6154, 2557.964
410.0975, 2559.801
410.5797, 2555.307
411.0618, 2548.258
411.5439, 2541.432
412.0260, 2535.073
412.5081, 2530.591
412.9902, 2527.583
413.4724, 2528.054
413.9545, 2538.113
414.4366, 2559.279
414.9187, 2573.334
415.4008, 2571.853
415.8829, 2565.414
416.3651, 2562.930
416.8472, 2564.767
417.3293, 2568.326
417.8114, 2572.561
418.2935, 2576.457
418.7756, 2574.153
419.2578, 2557.464
419.7399, 2544.667
420.2220, 2534.012
420.7041, 2529.978
421.1862, 2541.826
421.6683, 2568.837
422.1505, 2595.034
422.6326, 2601.200
423.1147, 2585.852
423.5968, 2572.322
424.0789, 2555.532
424.5610, 2547.703
425.0432, 2562.736
425.5253, 2586.608
426.0074, 2595.428
426.4895, 2576.175
426.9716, 2550.489
427.4537, 2548.295
427.9359, 2568.390
428.4180, 2582.276
428.9001, 2579.848
429.3822, 2573.317
429.8643, 2577.073
430.3464, 2590.213
430.8286, 2601.598
431.3107, 2609.916
431.7928, 2614.071
432.2749, 2610.427
432.7570, 2600.510
433.2391, 2592.546
433.7213, 2590.987
434.2034, 2594.607
434.6855, 2599.728
435.1676, 2612.057
435.6497, 2617.683
436.1318, 2610.294
436.6140, 2599.617
437.0961, 2593.440
437.5782, 2592.757
438.0603, 2594.173
438.5424, 2594.134
439.0245, 2593.057
439.5067, 2598.524
439.9888, 2616.147
440.4709, 2632.136
440.9530, 2646.971
441.4351, 2656.640
441.9172, 2654.634
442.3994, 2638.746
442.8815, 2620.558
443.3636, 2610.360
443.8457, 2607.811
444.3278, 2611.477
444.8099, 2623.444
445.2921, 2636.815
445.7742, 2647.441
446.2563, 2655.237
446.7384, 2659.126
447.2205, 2656.380
447.7026, 2651.957
448.1848, 2648.827
448.6669, 2646.603
449.1490, 2643.973
449.6311, 2640.286
450.1132, 2637.143
450.5953, 2637.203
451.0775, 2642.087
451.5596, 2645.542
452.0417, 2642.554
452.5238, 2642.911
453.0059, 2657.609
453.4880, 2679.748
453.9702, 2693.004
454.4523, 2687.628
454.9344, 2669.904
455.4165, 2654.745
455.8986, 2640.410
456.3807, 2633.533
456.8629, 2639.150
457.3450, 2649.846
457.8271, 2665.640
458.3092, 2684.281
458.7913, 2695.909
459.2734, 2692.617
459.7556, 2679.123
460.2377, 2660.152
460.7198, 2634.858
461.2019, 2620.939
461.6840, 2632.206
462.1661, 2656.613
462.6483, 2668.343
463.1304, 2663.926
463.6125, 2657.817
464.0946, 2652.516
464.5767, 2648.431
465.0588, 2646.117
465.5410, 2645.577
466.0231, 2646.436
466.5052, 2648.603
466.9873, 2651.864
467.4694, 2654.185
467.9515, 2654.270
468.4337, 2655.055
468.9158, 2658.509
469.3979, 2661.832
469.8800, 2662.525
470.3621, 2660.094
470.8442, 2655.497
471.3264, 2649.153
471.8085, 2641.242
472.2906, 2632.852
472.7727, 2622.662
473.2548, 2614.985
473.7369, 2611.958
474.2191, 2613.021
474.7012, 2619.881
475.1833, 2637.400
475.6654, 2648.225
476.1475, 2635.668
476.6296, 2609.658
477.1118, 2588.608
477.5939, 2575.917
478.0760, 2572.353
478.5581, 2580.525
479.0402, 2600.532
479.5223, 2615.238
480.0045, 2625.774
480.4866, 2630.500
480.9687, 2627.254
481.4508, 2618.633
481.9329, 2604.806
482.4150, 2586.947
482.8972, 2573.376
483.3793, 2577.887
483.8614, 2603.351
484.3435, 2614.718
484.8256, 2603.036
485.3077, 2588.805
485.7899, 2574.759
486.2720, 2565.369
486.7541, 2569.100
487.2362, 2591.278
487.7183, 2617.324
488.2004, 2638.853
488.6826, 2653.943
489.1647, 2652.231
489.6468, 2628.443
490.1289, 2602.057
490.6110, 2589.493
491.0931, 2591.587
491.5753, 2601.640
492.0574, 2636.116
492.5395, 2660.358
493.0216, 2650.709
493.5037, 2625.018
493.9858, 2610.632
494.4680, 2615.903
494.9501, 2629.393
495.4322, 2637.088
495.9143, 2638.950
496.3964, 2634.948
496.8785, 2613.297
497.3607, 2599.810
497.8428, 2612.710
498.3249, 2635.394
498.8070, 2642.195
499.2891, 2622.571
499.7712, 2597.254
500.2533, 2586.791
500.7354, 2589.153
501.2176, 2595.480
501.6997, 2605.927
502.1818, 2615.056
502.6639, 2618.042
503.1460, 2615.321
503.6281, 2612.219
504.1103, 2604.787
504.5924, 2601.531
505.0745, 2611.822
505.5566, 2626.386
506.0387, 2629.164
506.5208, 2616.942
507.0030, 2602.826
507.4851, 2603.018
507.9672, 2619.053
508.4493, 2628.142
508.9314, 2628.439
509.4135, 2623.514
509.8957, 2608.410
510.3778, 2591.486
510.8599, 2582.812
511.3420, 2585.191
511.8241, 2592.949
512.3063, 2604.732
512.7884, 2618.027
513.2705, 2621.482
513.7526, 2612.232
514.2347, 2601.531
514.7169, 2596.601
515.1990, 2596.469
515.6811, 2596.301
516.1632, 2598.491
516.6453, 2597.212
517.1274, 2587.053
517.6096, 2574.367
518.0917, 2565.866
518.5738, 2562.880
519.0559, 2563.917
519.5380, 2567.928
520.0201, 2574.765
520.5023, 2583.627
520.9844, 2601.530
521.4665, 2609.442
521.9486, 2595.235
522.4307, 2576.051
522.9128, 2566.588
523.3950, 2568.772
523.8771, 2575.406
524.3592, 2584.792
524.8413, 2594.258
525.3234, 2597.425
525.8055, 2593.923
526.2877, 2588.577
526.7698, 2583.097
527.2519, 2577.843
527.7340, 2573.888
528.2161, 2571.492
528.6982, 2569.375
529.1804, 2566.562
529.6625, 2564.576
530.1446, 2564.189
530.6267, 2565.686
531.1088, 2570.867
531.5909, 2581.741
532.0731, 2593.071
532.5552, 2588.877
533.0373, 2561.687
533.5194, 2542.063
534.0015, 2534.432
534.4836, 2535.796
534.9658, 2551.205
535.4479, 2575.293
535.9300, 2589.615
536.4121, 2579.920
536.8942, 2563.863
537.3763, 2563.154
537.8585, 2573.078
538.3406, 2572.177
538.8227, 2552.010
539.3048, 2528.562
539.7869, 2522.440
540.2690, 2537.151
540.7512, 2548.304
541.2333, 2557.083
541.7154, 2561.458
542.1975, 2560.323
542.6796, 2554.497
543.1617, 2542.296
543.6439, 2523.961
544.1260, 2508.437
544.6081, 2509.581
545.0902, 2526.500
545.5723, 2535.507
546.0544, 2532.786
546.5366, 2529.243
547.0187, 2529.655
547.5008, 2533.365
547.9829, 2540.058
548.4650, 2551.032
548.9471, 2561.146
549.4292, 2571.421
549.9113, 2577.723
550.3934, 2569.942
550.8755, 2549.867
551.3577, 2535.747
551.8398, 2541.304
552.3219, 2560.978
552.8040, 2571.951
553.2861, 2569.884
553.7682, 2566.195
554.2504, 2556.336
554.7325, 2549.859
555.2146, 2556.462
555.6967, 2572.738
556.1788, 2585.134
556.6609, 2583.933
557.1431, 2577.371
557.6252, 2578.565
558.1073, 2586.874
558.5894, 2594.972
559.0715, 2601.962
559.5536, 2604.999
560.0358, 2599.043
560.5179, 2582.711
561.0000, 2572.409
561.4821, 2572.440
561.9642, 2573.989
562.4464, 2574.906
562.9285, 2574.375
563.4106, 2569.607
563.8927, 2560.558
564.3748, 2553.932
564.8569, 2559.507
565.3391, 2576.787
565.8212, 2586.396
566.3033, 2583.588
566.7854, 2582.921
567.2675, 2597.144
567.7496, 2613.716
568.2318, 2615.579
568.7139, 2598.179
569.1960, 2585.754
569.6781, 2594.033
570.1602, 2610.246
570.6423, 2620.531
571.1245, 2624.317
571.6066, 2625.759
572.0887, 2627.082
572.5708, 2627.687
573.0529, 2625.777
573.5350, 2618.392
574.0172, 2614.754
574.4993, 2617.247
574.9814, 2620.909
575.4635, 2622.832
575.9456, 2624.303
576.4277, 2629.614
576.9099, 2642.705
577.3920, 2652.564
577.8741, 2641.200
578.3562, 2615.361
578.8383, 2603.030
579.3204, 2610.106
579.8026, 2622.902
580.2847, 2631.783
580.7668, 2637.023
581.2489, 2640.681
581.7310, 2639.212
582.2131, 2641.100
582.6953, 2649.782
583.1774, 2660.891
583.6595, 2671.319
584.1416, 2680.386
584.6237, 2688.125
585.1058, 2693.720
585.5880, 2699.083
586.0701, 2711.477
586.5522, 2732.747
587.0343, 2745.615
587.5164, 2742.600
587.9985, 2733.981
588.4807, 2729.297
588.9628, 2728.102
589.4449, 2727.824
589.9270, 2730.545
590.4091, 2731.445
590.8912, 2724.448
591.3734, 2715.066
591.8555, 2712.231
592.3376, 2718.080
592.8197, 2729.629
593.3018, 2746.413
593.7839, 2767.126
594.2661, 2767.223
594.7482, 2728.646
595.2303, 2705.845
595.7124, 2733.810
596.1945, 2772.823
596.6766, 2785.983
597.1588, 2771.630
597.6409, 2762.535
598.1230, 2781.123
598.6051, 2805.771
599.0872, 2815.598
599.5693, 2812.056
600.0515, 2800.487
600.5336, 2782.419
601.0157, 2765.106
601.4978, 2758.865
601.9799, 2764.627
602.4620, 2776.317
602.9442, 2801.964
603.4263, 2823.981
603.9084, 2837.870
604.3905, 2845.804
604.8726, 2849.664
605.3547, 2849.937
605.8369, 2848.947
606.3190, 2847.834
606.8011, 2846.769
607.2832, 2846.652
607.7653, 2847.308
608.2474, 2845.809
608.7296, 2840.131
609.2117, 2833.215
609.6938, 2830.898
610.1759, 2835.486
610.6580, 2838.155
611.1401, 2836.972
611.6223, 2836.114
612.1044, 2837.390
612.5865, 2840.119
613.0686, 2842.812
613.5507, 2844.975
614.0328, 2848.284
614.5150, 2858.496
614.9971, 2871.249
615.4792, 2868.735
615.9613, 2848.598
616.4434, 2830.344
616.9255, 2823.772
617.4077, 2826.411
617.8898, 2833.568
618.3719, 2850.431
618.8540, 2859.498
619.3361, 2850.074
619.8182, 2842.426
620.3004, 2852.970
620.7825, 2872.915
621.2646, 2882.585
621.7467, 2873.816
622.2288, 2862.129
622.7109, 2870.240
623.1931, 2894.321
623.6752, 2908.494
624.1573, 2910.405
624.6394, 2903.836
625.1215, 2883.602
625.6036, 2860.072
626.0858, 2863.789
626.5679, 2910.840
627.0500, 2939.689
627.5321, 2927.617
628.0142, 2907.325
628.4963, 2899.192
628.9785, 2901.048
629.4606, 2904.398
629.9427, 2905.492
630.4248, 2904.514
630.9069, 2899.523
631.3890, 2891.200
631.8712, 2891.165
632.3533, 2902.689
632.8354, 2914.778
633.3175, 2922.662
633.7996, 2926.162
634.2817, 2923.838
634.7639, 2910.313
635.2460, 2905.718
635.7281, 2921.925
636.2102, 2941.459
636.6923, 2951.100
637.1744, 2953.552
637.6566, 2958.482
638.1387, 2970.345
638.6208, 2983.047
639.1029, 2987.408
639.5850, 2983.649
640.0671, 2976.438
640.5493, 2962.447
641.0314, 2956.089
641.5135, 2969.613
641.9956, 2994.130
642.4777, 3010.596
642.9598, 3018.040
643.4420, 3020.688
643.9241, 3016.283
644.4062, 3010.140
644.8883, 3003.378
645.3704, 2998.392
645.8525, 3001.167
646.3347, 3014.152
646.8168, 3028.329
647.2989, 3029.211
647.7810, 3017.761
648.2631, 3013.613
648.7452, 3020.035
649.2274, 3024.641
649.7095, 3017.682
650.1916, 3007.316
650.6737, 3010.673
651.1558, 3032.025
651.6379, 3048.136
652.1201, 3051.656
652.6022, 3052.288
653.0843, 3054.795
653.5664, 3059.463
654.0485, 3067.507
654.5306, 3079.014
655.0128, 3087.809
655.4949, 3080.973
655.9770, 3062.248
656.4591, 3065.765
656.9412, 3097.712
657.4233, 3122.358
657.9055, 3120.187
658.3876, 3106.183
658.8697, 3106.331
659.3518, 3123.687
659.8339, 3133.398
660.3160, 3125.644
660.7982, 3117.776
661.2803, 3122.182
661.7624, 3130.488
662.2445, 3128.077
662.7266, 3112.056
663.2087, 3095.077
663.6909, 3090.138
664.1730, 3093.953
664.6551, 3094.746
665.1372, 3092.284
665.6193, 3090.445
666.1014, 3091.656
666.5836, 3091.939
667.0657, 3084.807
667.5478, 3068.694
668.0299, 3059.709
668.5120, 3060.403
668.9941, 3064.956
669.4763, 3074.754
669.9584, 3085.594
670.4405, 3094.812
670.9226, 3101.013
671.4047, 3100.991
671.8868, 3089.772
672.3690, 3073.417
672.8511, 3064.102
673.3332, 3060.980
673.8153, 3054.687
674.2974, 3041.998
674.7795, 3029.588
675.2617, 3024.336
675.7438, 3025.837
676.2259, 3026.286
676.7080, 3025.714
677.1901, 3024.026
677.6722, 3020.665
678.1544, 3016.615
678.6365, 3014.174
679.1186, 3011.890
679.6007, 3004.219
680.0828, 2985.368
680.5649, 2966.677
681.0471, 2963.468
681.5292, 2970.264
682.0113, 2972.771
682.4934, 2968.620
682.9755, 2958.542
683.4576, 2941.648
683.9398, 2921.430
684.4219, 2910.646
684.9040, 2917.849
685.3861, 2916.638
685.8682, 2894.298
686.3503, 2875.261
686.8325, 2874.529
687.3146, 2883.810
687.7967, 2888.699
688.2788, 2886.726
688.7609, 2875.069
689.2430, 2840.740
689.7252, 2802.324
690.2073, 2784.614
690.6894, 2786.973
691.1715, 2800.506
691.6536, 2821.605
692.1357, 2840.740
692.6179, 2839.320
693.1000, 2814.023
693.5821, 2797.302
694.0642, 2792.731
694.5463, 2789.887
695.0284, 2786.981
695.5106, 2782.136
695.9927, 2772.845
696.4748, 2758.834
696.9569, 2743.047
697.4390, 2718.844
697.9211, 2700.624
698.4033, 2703.653
698.8854, 2716.903
699.3675, 2722.852
699.8496, 2716.997
700.3317, 2704.951
700.8138, 2689.730
701.2960, 2673.777
701.7781, 2667.103
702.2602, 2670.460
702.7423, 2673.937
703.2244, 2676.152
703.7065, 2675.176
704.1887, 2667.998
704.6708, 2655.037
705.1529, 2644.395
705.6350, 2633.547
706.1171, 2628.349
706.5992, 2635.575
707.0814, 2644.238
707.5635, 2646.385
708.0456, 2641.810
708.5277, 2632.719
709.0098, 2619.060
709.4919, 2604.936
709.9741, 2595.174
710.4562, 2588.870
710.9383, 2583.293
711.4204, 2578.129
711.9025, 2574.837
712.3846, 2574.501
712.8668, 2576.115
713.3489, 2578.158
713.8310, 2584.588
714.3131, 2579.987
714.7952, 2549.508
715.2773, 2525.262
715.7595, 2522.236
716.2416, 2530.128
716.7237, 2535.158
717.2058, 2534.984
717.6879, 2537.564
718.1700, 2552.020
718.6522, 2566.193
719.1343, 2568.701
719.6164, 2562.127
720.0985, 2551.601
720.5806, 2539.225
721.0627, 2528.129
721.5449, 2521.761
722.0270, 2519.373
722.5091, 2515.250
722.9912, 2507.088
723.4733, 2512.484
723.9554, 2547.601
724.4376, 2578.222
724.9197, 2563.903
725.4018, 2511.197
725.8839, 2484.834
726.3660, 2510.538
726.8481, 2528.614
727.3303, 2524.428
727.8124, 2510.418
728.2945, 2489.870
728.7766, 2468.815
729.2587, 2459.818
729.7408, 2470.109
730.2230, 2486.675
730.7051, 2499.916
731.1872, 2507.456
731.6693, 2499.080
732.1514, 2475.194
732.6335, 2454.283
733.1157, 2445.568
733.5978, 2445.616
734.0799, 2449.567
734.5620, 2459.647
735.0441, 2461.325
735.5262, 2446.633
736.0084, 2435.123
736.4905, 2436.556
736.9726, 2441.487
737.4547, 2440.659
737.9368, 2433.561
738.4189, 2425.083
738.9011, 2409.772
739.3832, 2400.978
739.8653, 2415.316
740.3474, 2437.671
740.8295, 2444.839
741.3116, 2434.826
741.7938, 2422.001
742.2759, 2416.557
742.7580, 2415.604
743.2401, 2413.497
743.7222, 2410.250
744.2043, 2406.156
744.6865, 2401.113
745.1686, 2395.039
745.6507, 2385.189
746.1328, 2376.255
746.6149, 2383.103
747.0970, 2423.348
747.5791, 2442.823
748.0612, 2424.248
748.5433, 2405.206
749.0255, 2404.569
749.5076, 2411.547
749.9897, 2407.876
750.4718, 2390.138
750.9539, 2378.271
751.4360, 2393.691
751.9182, 2412.486
752.4003, 2405.071
752.8824, 2381.408
753.3645, 2366.367
753.8466, 2366.181
754.3287, 2371.650
754.8109, 2375.093
755.2930, 2376.555
755.7751, 2376.379
756.2572, 2374.708
756.7393, 2368.837
757.2214, 2353.468
757.7036, 2344.638
758.1857, 2360.815
758.6678, 2392.464
759.1499, 2401.416
759.6320, 2371.660
760.1141, 2351.823
760.5963, 2352.921
761.0784, 2357.588
761.5605, 2359.092
762.0426, 2356.364
762.5247, 2346.834
763.0068, 2329.919
763.4890, 2316.652
763.9711, 2315.453
764.4532, 2321.947
764.9353, 2335.694
765.4174, 2352.047
765.8995, 2354.691
766.3817, 2339.724
766.8638, 2323.029
767.3459, 2321.056
767.8280, 2329.971
768.3101, 2330.137
768.7922, 2319.171
769.2744, 2311.246
769.7565, 2308.289
770.2386, 2310.041
770.7207, 2319.786
771.2028, 2333.922
771.6849, 2339.377
772.1671, 2333.230
772.6492, 2324.611
773.1313, 2311.320
773.6134, 2299.120
774.0955, 2291.249
774.5776, 2286.648
775.0598, 2282.527
775.5419, 2278.291
776.0240, 2278.225
776.5061, 2289.893
776.9882, 2304.231
777.4703, 2310.571
777.9525, 2309.438
778.4346, 2300.056
778.9167, 2283.287
779.3988, 2269.951
779.8809, 2270.990
780.3630, 2281.701
780.8452, 2283.583
781.3273, 2274.462
781.8094, 2273.111
782.2915, 2286.833
782.7736, 2297.848
783.2557, 2291.682
783.7379, 2275.415
784.2200, 2269.300
784.7021, 2279.277
785.1842, 2284.275
785.6663, 2282.020
786.1484, 2276.169
786.6306, 2262.904
787.1127, 2249.828
787.5948, 2248.156
788.0769, 2258.855
788.5590, 2268.952
789.0411, 2272.582
789.5233, 2271.194
790.0054, 2256.570
790.4875, 2241.112
790.9696, 2258.755
791.4517, 2307.576
791.9338, 2339.645
792.4160, 2319.119
792.8981, 2269.938
793.3802, 2241.124
793.8623, 2232.301
794.3444, 2228.659
794.8265, 2229.257
795.3087, 2234.339
795.7908, 2246.297
796.2729, 2259.448
796.7550, 2262.677
797.2371, 2252.853
797.7192, 2248.047
798.2014, 2257.151
798.6835, 2260.059
799.1656, 2246.145
799.6477, 2228.986
800.1298, 2220.099
800.6119, 2219.529
801.0941, 2222.017
801.5762, 2229.908
802.0583, 2234.558
802.5404, 2225.265
803.0225, 2214.678
803.5046, 2218.772
803.9868, 2234.524
804.4689, 2250.323
804.9510, 2261.141
805.4331, 2264.008
805.9152, 2250.226
806.3973, 2226.583
806.8795, 2214.215
807.3616, 2212.771
807.8437, 2211.109
808.3258, 2205.320
808.8079, 2199.633
809.2900, 2198.680
809.7722, 2202.082
810.2543, 2206.392
810.7364, 2211.553
811.2185, 2218.222
811.7006, 2230.411
812.1827, 2238.838
812.6649, 2233.799
813.1470, 2220.945
813.6291, 2214.770
814.1112, 2219.243
814.5933, 2220.492
815.0754, 2213.699
815.5576, 2206.271
816.0397, 2198.054
816.5218, 2193.526
817.0039, 2202.983
817.4860, 2225.362
817.9681, 2238.886
818.4503, 2224.501
818.9324, 2202.543
819.4145, 2192.553
819.8966, 2189.161
820.3787, 2181.000
820.8608, 2168.187
821.3430, 2160.989
821.8251, 2165.865
822.3072, 2177.126
822.7893, 2188.046
823.2714, 2197.667
823.7535, 2195.579
824.2357, 2180.280
824.7178, 2165.570
825.1999, 2155.923
825.6820, 2152.596
826.1641, 2158.758
826.6462, 2174.357
827.1284, 2182.452
827.6105, 2176.160
828.0926, 2175.402
828.5747, 2188.842
829.0568, 2203.235
829.5389, 2212.848
830.0211, 2216.694
830.5032, 2211.138
830.9853, 2190.359
831.4674, 2175.058
831.9495, 2172.308
832.4316, 2174.279
832.9138, 2181.146
833.3959, 2187.272
833.8780, 2181.283
834.3601, 2163.356
834.8422, 2152.942
835.3243, 2169.301
835.8065, 2191.106
836.2886, 2194.362
836.7707, 2186.671
837.2528, 2183.297
837.7349, 2185.215
838.2170, 2182.614
838.6992, 2169.228
839.1813, 2154.510
839.6634, 2157.197
840.1455, 2174.089
840.6276, 2179.270
841.1097, 2171.375
841.5919, 2160.359
842.0740, 2148.052
842.5561, 2140.734
843.0382, 2146.979
843.5203, 2165.343
844.0024, 2176.856
844.4846, 2179.463
844.9667, 2179.892
845.4488, 2176.735
845.9309, 2174.274
846.4130, 2176.852
846.8951, 2181.491
847.3773, 2181.829
847.8594, 2175.893
848.3415, 2172.430
848.8236, 2177.033
849.3057, 2179.270
849.7878, 2173.040
850.2700, 2163.002
850.7521, 2152.498
851.2342, 2143.159
851.7163, 2138.928
852.1984, 2142.431
852.6805, 2149.898
853.1627, 2163.901
853.6448, 2176.804
854.1269, 2174.651
854.6090, 2162.539
855.0911, 2159.468
855.5732, 2172.720
856.0554, 2187.565
856.5375, 2188.757
857.0196, 2179.104
857.5017, 2159.920
857.9838, 2134.599
858.4659, 2126.510
858.9481, 2141.064
859.4302, 2158.286
859.9123, 2163.302
860.3944, 2158.058
860.8765, 2143.780
861.3586, 2117.393
861.8408, 2113.606
862.3229, 2143.257
862.8050, 2164.823
863.2871, 2156.050
863.7692, 2136.851
864.2513, 2136.743
864.7335, 2157.500
865.2156, 2159.810
865.6977, 2111.582
866.1798, 2093.997
866.6619, 2153.401
867.1440, 2210.014
867.6262, 2204.185
868.1083, 2160.471
868.5904, 2137.505
869.0725, 2148.253
869.5546, 2158.451
870.0367, 2161.751
870.5189, 2159.194
871.0010, 2146.875
871.4831, 2131.669
871.9652, 2119.792
872.4473, 2113.279
872.9294, 2115.899
873.4116, 2136.654
873.8937, 2153.446
874.3758, 2142.896
874.8579, 2121.046
875.3400, 2107.538
875.8221, 2103.280
876.3043, 2105.716
876.7864, 2113.359
877.2685, 2118.949
877.7506, 2110.487
878.2327, 2097.102
878.7148, 2103.869
879.1970, 2125.489
879.6791, 2136.754
880.1612, 2132.878
880.6433, 2124.591
881.1254, 2118.827
881.6075, 2115.253
882.0897, 2113.055
882.5718, 2112.221
883.0539, 2114.854
883.5360, 2122.047
884.0181, 2126.268
884.5002, 2124.164
884.9824, 2119.899
885.4645, 2118.122
885.9466, 2118.417
886.4287, 2116.063
886.9108, 2104.611
887.3929, 2106.162
887.8751, 2138.265
888.3572, 2162.011
888.8393, 2150.264
889.3214, 2120.698
889.8035, 2101.496
890.2856, 2093.089
890.7678, 2092.271
891.2499, 2110.507
891.7320, 2120.920
892.2141, 2105.222
892.6962, 2088.396
893.1783, 2093.248
893.6605, 2113.975
894.1426, 2131.086
894.6247, 2139.677
895.1068, 2144.723
895.5889, 2149.502
896.0710, 2150.186
896.5532, 2143.842
897.0353, 2131.662
897.5174, 2111.326
897.9995, 2085.775
898.4816, 2069.027
898.9637, 2070.723
899.4459, 2080.450
899.9280, 2094.294
900.4101, 2106.612
900.8922, 2106.476
901.3743, 2097.177
901.8564, 2091.229
902.3386, 2092.922
902.8207, 2096.060
903.3028, 2094.372
903.7849, 2090.209
904.2670, 2086.759
904.7491, 2085.030
905.2313, 2090.666
905.7134, 2103.733
906.1955, 2116.510
906.6776, 2124.861
907.1597, 2127.005
907.6418, 2117.242
908.1240, 2097.154
908.6061, 2082.407
909.0882, 2072.726
909.5703, 2078.683
910.0524, 2106.331
910.5345, 2131.353
911.0167, 2132.702
911.4988, 2116.533
911.9809, 2101.234
912.4630, 2084.538
912.9451, 2080.818
913.4272, 2096.157
913.9094, 2109.462
914.3915, 2113.386
914.8736, 2110.379
915.3557, 2100.620
915.8378, 2085.012
916.3199, 2080.803
916.8021, 2102.511
917.2842, 2108.913
917.7663, 2077.823
918.2484, 2053.738
918.7305, 2068.484
919.2126, 2098.703
919.6948, 2108.511
920.1769, 2094.776
920.6590, 2086.439
921.1411, 2094.718
921.6232, 2096.930
922.1053, 2077.375
922.5875, 2059.222
923.0696, 2065.233
923.5517, 2084.596
924.0338, 2089.725
924.5159, 2072.576
924.9980, 2058.845
925.4802, 2059.774
925.9623, 2063.155
926.4444, 2056.866
926.9265, 2053.107
927.4086, 2073.626
927.8907, 2110.668
928.3729, 2130.288
928.8550, 2115.449
929.3371, 2096.919
929.8192, 2094.746
930.3013, 2096.871
930.7834, 2090.242
931.2656, 2080.233
931.7477, 2078.902
932.2298, 2086.776
932.7119, 2091.917
933.1940, 2085.840
933.6761, 2077.550
934.1583, 2078.137
934.6404, 2081.489
935.1225, 2077.386
935.6046, 2067.419
936.0867, 2056.602
936.5688, 2047.402
937.0510, 2045.540
937.5331, 2060.355
938.0152, 2079.027
938.4973, 2076.828
938.9794, 2061.554
939.4615, 2055.279
939.9437, 2058.783
940.4258, 2059.875
940.9079, 2053.202
941.3900, 2046.475
941.8721, 2049.890
942.3542, 2059.667
942.8364, 2063.793
943.3185, 2063.042
943.8006, 2062.260
944.2827, 2062.288
944.7648, 2062.734
945.2469, 2063.150
945.7290, 2065.745
946.2111, 2076.912
946.6932, 2094.386
947.1754, 2095.021
947.6575, 2078.122
948.1396, 2064.499
948.6217, 2058.477
949.1038, 2059.471
949.5859, 2068.626
950.0681, 2080.445
950.5502, 2082.311
951.0323, 2073.542
951.5144, 2062.537
951.9965, 2047.091
952.4786, 2042.394
952.9608, 2057.388
953.4429, 2068.436
953.9250, 2051.652
954.4071, 2019.152
954.8892, 2013.444
955.3713, 2045.388
955.8535, 2060.500
956.3356, 2051.387
956.8177, 2044.087
957.2998, 2046.802
957.7819, 2055.698
958.2640, 2070.404
958.7462, 2087.796
959.2283, 2089.666
959.7104, 2066.199
960.1925, 2050.681
960.6746, 2047.120
961.1567, 2045.711
961.6389, 2042.066
962.1210, 2039.515
962.6031, 2042.480
963.0852, 2050.449
963.5673, 2057.478
964.0494, 2066.172
964.5316, 2069.379
965.0137, 2060.571
965.4958, 2053.906
965.9779, 2058.349
966.4600, 2066.269
966.9421, 2068.286
967.4243, 2064.460
967.9064, 2060.327
968.3885, 2054.362
968.8706, 2050.616
969.3527, 2057.164
969.8348, 2057.551
970.3170, 2033.487
970.7991, 2003.591
971.2812, 1997.591
971.7633, 2017.298
972.2454, 2028.807
972.7275, 2019.458
973.2097, 2013.950
973.6918, 2021.011
974.1739, 2029.263
974.6560, 2029.180
975.1381, 2026.755
975.6202, 2033.506
976.1024, 2051.022
976.5845, 2064.256
977.0666, 2072.173
977.5487, 2072.665
978.0308, 2058.574
978.5129, 2043.167
978.9951, 2038.885
979.4772, 2038.940
979.9593, 2027.119
980.4414, 2000.074
980.9235, 1984.479
981.4056, 1992.394
981.8878, 2006.766
982.3699, 2030.030
982.8520, 2049.254
983.3341, 2052.541
983.8162, 2044.542
984.2983, 2033.879
984.7805, 2021.781
985.2626, 2015.334
985.7447, 2020.671
986.2268, 2027.536
986.7089, 2035.593
987.1910, 2039.590
987.6732, 2031.284
988.1553, 2016.414
988.6374, 2007.118
989.1195, 2006.111
989.6016, 2010.104
990.0837, 2024.277
990.5659, 2035.169
991.0480, 2032.378
991.5301, 2026.304
992.0122, 2027.399
992.4943, 2033.207
992.9764, 2035.980
993.4586, 2033.698
993.9407, 2030.782
994.4228, 2031.899
994.9049, 2029.500
995.3870, 2015.614
995.8691, 1999.447
996.3513, 1987.972
996.8334, 1982.355
997.3155, 1984.429
997.7976, 1995.235
998.2797, 2004.025
998.7618, 2000.532
999.2440, 2000.317
999.7261, 2021.657
1000.208, 2042.762
1000.690, 2034.877
1001.172, 2009.796
1001.655, 1999.482
1002.137, 2012.851
1002.619, 2029.505
1003.101, 2049.598
1003.583, 2059.004
1004.065, 2042.162
1004.547, 2017.230
1005.029, 1997.050
1005.511, 1985.325
1005.994, 1988.276
1006.476, 2008.103
1006.958, 2025.202
1007.440, 2032.656
1007.922, 2032.704
1008.404, 2021.290
1008.886, 2007.479
1009.368, 1995.672
1009.851, 1989.756
1010.333, 1999.381
1010.815, 2027.300
1011.297, 2047.758
1011.779, 2046.432
1012.261, 2039.176
1012.743, 2027.199
1013.225, 2018.818
1013.707, 2026.494
1014.190, 2041.854
1014.672, 2046.329
1015.154, 2035.873
1015.636, 2025.810
1016.118, 2021.533
1016.600, 2019.449
1017.082, 2021.995
1017.564, 2022.315
1018.047, 2010.405
1018.529, 1993.707
1019.011, 1987.900
1019.493, 1995.604
1019.975, 2000.984
1020.457, 1995.334
1020.939, 1991.149
1021.421, 1991.770
1021.903, 1996.873
1022.386, 2012.320
1022.868, 2029.180
1023.350, 2029.803
1023.832, 2012.657
1024.314, 2005.060
1024.796, 2034.599
1025.278, 2045.908
1025.760, 1998.697
1026.243, 1954.206
1026.725, 1959.800
1027.207, 1988.954
1027.689, 1999.677
1028.171, 1989.339
1028.653, 1987.685
1029.135, 2007.304
1029.617, 2025.983
1030.099, 2049.722
1030.582, 2060.128
1031.064, 2037.272
1031.546, 2001.963
1032.028, 1977.410
1032.510, 1964.998
1032.992, 1962.765
1033.474, 1980.052
1033.956, 1991.670
1034.438, 1988.770
1034.921, 1987.312
1035.403, 1996.115
1035.885, 2008.064
1036.367, 2017.662
1036.849, 2023.993
1037.331, 2022.029
1037.813, 2002.869
1038.295, 1992.238
1038.778, 1999.218
1039.260, 2002.652
1039.742, 1989.243
1040.224, 1976.440
1040.706, 1983.229
1041.188, 2003.129
1041.670, 2011.572
1042.152, 2003.925
1042.635, 1998.467
1043.117, 1995.783
1043.599, 1994.393
1044.081, 1995.387
1044.563, 1995.246
1045.045, 1989.865
1045.527, 1982.398
1046.009, 1982.010
1046.491, 1991.699
1046.974, 1988.184
1047.456, 1961.948
1047.938, 1951.186
1048.420, 1970.707
1048.902, 1989.530
1049.384, 1986.880
1049.866, 1972.468
1050.348, 1963.077
1050.830, 1958.702
1051.313, 1964.219
1051.795, 1982.837
1052.277, 1992.931
1052.759, 1990.252
1053.241, 1982.226
1053.723, 1971.046
1054.205, 1963.120
1054.687, 1969.577
1055.169, 1986.309
1055.652, 1987.338
1056.134, 1972.486
1056.616, 1955.879
1057.098, 1938.618
1057.580, 1933.073
1058.062, 1944.881
1058.544, 1963.648
1059.026, 1979.845
1059.509, 1992.379
1059.991, 1999.136
1060.473, 1999.709
1060.955, 1986.812
1061.437, 1962.762
1061.919, 1951.631
1062.401, 1960.252
1062.883, 1973.572
1063.365, 1980.783
1063.848, 1981.962
1064.330, 1973.577
1064.812, 1960.603
1065.294, 1956.508
1065.776, 1959.695
1066.258, 1965.612
1066.740, 1971.493
1067.222, 1968.322
1067.704, 1949.983
1068.187, 1930.662
1068.669, 1924.253
1069.151, 1927.991
1069.633, 1944.996
1070.115, 1965.832
1070.597, 1970.136
1071.079, 1960.558
1071.561, 1956.395
1072.044, 1965.138
1072.526, 1974.429
1073.008, 1973.778
1073.490, 1971.218
1073.972, 1974.113
1074.454, 1978.531
1074.936, 1981.574
1075.418, 1981.766
1075.901, 1974.825
1076.383, 1960.869
1076.865, 1952.977
1077.347, 1962.242
1077.829, 1971.029
1078.311, 1972.375
1078.793, 1968.902
1079.275, 1955.398
1079.757, 1942.592
1080.240, 1950.447
1080.722, 1975.597
1081.204, 1984.863
1081.686, 1959.124
1082.168, 1943.530
1082.650, 1958.831
1083.132, 1970.592
1083.614, 1955.544
1084.096, 1938.717
1084.579, 1950.273
1085.061, 1979.037
1085.543, 1983.779
1086.025, 1953.368
1086.507, 1940.334
1086.989, 1959.742
1087.471, 1968.350
1087.953, 1948.495
1088.436, 1932.313
1088.918, 1942.846
1089.400, 1965.108
1089.882, 1972.791
1090.364, 1966.270
1090.846, 1966.721
1091.328, 1976.962
1091.810, 1979.609
1092.292, 1971.318
1092.775, 1961.813
1093.257, 1954.703
1093.739, 1950.589
1094.221, 1949.881
1094.703, 1953.120
1095.185, 1966.698
1095.667, 1988.458
1096.149, 1985.695
1096.631, 1959.060
1097.114, 1942.326
1097.596, 1944.552
1098.078, 1951.241
1098.560, 1952.681
1099.042, 1949.804
1099.524, 1940.867
1100.006, 1930.195
1100.488, 1931.324
1100.971, 1938.726
1101.453, 1933.762
1101.935, 1917.893
1102.417, 1911.208
1102.899, 1921.999
1103.381, 1933.665
1103.863, 1931.463
1104.345, 1923.789
1104.828, 1918.623
1105.310, 1913.504
1105.792, 1901.004
1106.274, 1887.672
1106.756, 1890.305
1107.238, 1909.600
1107.720, 1923.079
1108.202, 1916.514
1108.684, 1911.689
1109.167, 1919.197
1109.649, 1930.860
1110.131, 1947.525
1110.613, 1961.053
1111.095, 1959.443
1111.577, 1946.811
1112.059, 1940.633
1112.541, 1945.745
1113.023, 1947.515
1113.506, 1940.423
1113.988, 1935.696
1114.470, 1937.822
1114.952, 1940.208
1115.434, 1938.599
1115.916, 1935.130
1116.398, 1933.089
1116.880, 1932.461
1117.363, 1933.479
1117.845, 1938.322
1118.327, 1934.547
1118.809, 1917.685
1119.291, 1908.258
1119.773, 1915.852
1120.255, 1925.194
1120.737, 1921.324
1121.219, 1909.613
1121.702, 1903.331
1122.184, 1902.003
1122.666, 1904.023
1123.148, 1908.187
1123.630, 1901.247
1124.112, 1882.865
1124.594, 1878.064
1125.076, 1901.214
1125.558, 1927.341
1126.041, 1925.042
1126.523, 1909.817
1127.005, 1904.140
1127.487, 1905.842
1127.969, 1914.290
1128.451, 1925.843
1128.933, 1932.546
1129.415, 1932.533
1129.898, 1929.623
1130.380, 1923.972
1130.862, 1920.433
1131.344, 1923.449
1131.826, 1928.344
1132.308, 1935.084
1132.790, 1939.076
1133.272, 1934.826
1133.755, 1923.160
1134.237, 1905.770
1134.719, 1878.101
1135.201, 1868.167
1135.683, 1898.052
1136.165, 1920.503
1136.647, 1919.886
1137.129, 1914.877
1137.611, 1914.144
1138.094, 1915.414
1138.576, 1915.993
1139.058, 1915.756
1139.540, 1912.353
1140.022, 1903.173
1140.504, 1904.558
1140.986, 1919.829
1141.468, 1932.062
1141.950, 1936.236
1142.433, 1935.195
1142.915, 1930.606
1143.397, 1924.257
1143.879, 1917.849
1144.361, 1912.691
1144.843, 1919.296
1145.325, 1932.429
1145.807, 1925.818
1146.290, 1900.813
1146.772, 1882.310
1147.254, 1879.928
1147.736, 1887.629
1148.218, 1906.885
1148.700, 1921.296
1149.182, 1906.405
1149.664, 1883.118
1150.146, 1874.424
1150.629, 1876.146
1151.111, 1879.952
1151.593, 1884.408
1152.075, 1892.195
1152.557, 1906.486
1153.039, 1911.816
1153.521, 1891.830
1154.003, 1877.044
1154.485, 1879.054
1154.968, 1889.505
1155.450, 1911.708
1155.932, 1933.043
1156.414, 1932.144
1156.896, 1910.574
1157.378, 1893.860
1157.860, 1880.889
1158.342, 1877.292
1158.825, 1886.714
1159.307, 1892.889
1159.789, 1889.789
1160.271, 1888.016
1160.753, 1896.594
1161.235, 1907.463
1161.717, 1903.231
1162.199, 1888.581
1162.682, 1887.915
1163.164, 1898.389
1163.646, 1908.796
1164.128, 1916.295
1164.610, 1913.982
1165.092, 1900.511
1165.574, 1887.306
1166.056, 1882.750
1166.538, 1882.495
1167.021, 1884.464
1167.503, 1886.138
1167.985, 1882.236
1168.467, 1877.875
1168.949, 1883.299
1169.431, 1894.980
1169.913, 1899.940
1170.395, 1894.968
1170.877, 1884.742
1171.360, 1858.952
1171.842, 1845.113
1172.324, 1862.197
1172.806, 1878.589
1173.288, 1874.658
1173.770, 1864.808
1174.252, 1863.805
1174.734, 1870.427
1175.217, 1881.316
1175.699, 1899.728
1176.181, 1900.132
1176.663, 1878.411
1177.145, 1873.144
1177.627, 1893.408
1178.109, 1912.235
1178.591, 1915.311
1179.073, 1907.493
1179.556, 1891.813
1180.038, 1873.706
1180.520, 1863.527
1181.002, 1860.959
1181.484, 1869.866
1181.966, 1884.709
1182.448, 1891.416
1182.930, 1888.055
1183.412, 1880.002
1183.895, 1868.133
1184.377, 1863.334
1184.859, 1879.285
1185.341, 1895.439
1185.823, 1902.695
1186.305, 1902.318
1186.787, 1890.222
1187.269, 1874.267
1187.752, 1866.389
1188.234, 1867.113
1188.716, 1870.567
1189.198, 1880.231
1189.680, 1883.920
1190.162, 1879.881
1190.644, 1874.482
1191.126, 1869.170
1191.609, 1862.387
1192.091, 1852.276
1192.573, 1843.459
1193.055, 1843.088
1193.537, 1849.598
1194.019, 1859.528
1194.501, 1871.039
1194.983, 1876.433
1195.465, 1875.661
1195.948, 1868.855
1196.430, 1858.112
1196.912, 1854.584
1197.394, 1865.324
1197.876, 1876.664
1198.358, 1876.775
1198.840, 1873.607
1199.322, 1872.903
1199.804, 1872.505
1200.287, 1867.024
1200.769, 1861.708
1201.251, 1869.032
1201.733, 1888.292
1202.215, 1897.210
1202.697, 1886.969
1203.179, 1879.130
1203.661, 1875.024
1204.144, 1870.465
1204.626, 1862.969
1205.108, 1859.331
1205.590, 1865.387
1206.072, 1872.768
1206.554, 1868.007
1207.036, 1855.604
1207.518, 1852.488
1208.000, 1857.783
1208.483, 1871.304
1208.965, 1888.828
1209.447, 1889.275
1209.929, 1871.468
1210.411, 1859.057
1210.893, 1864.486
##END=



