##NAMES=Cesbronite
##RRUFFID=R070198
##IDEAL CHEMISTRY=Cu^2+^_3_Te^6+^O_4_(OH)_4_
##LOCALITY=Bambollita mine, Moctezuma, Municipio de Moctezuma, Sonora, Mexico
##OWNER=RRUFF
##SOURCE=Michael Scott
##DESCRIPTION=Dark green prismatic crystals associated with quartz
##STATUS=The identification of this mineral has been confirmed only by single crystal X-ray diffraction.
##URL=rruff.info/R070198
132.3433, 3741.473
132.8254, 3868.031
133.3075, 3990.324
133.7896, 4119.127
134.2718, 4256.198
134.7539, 4383.318
135.2360, 4480.381
135.7181, 4543.450
136.2002, 4607.544
136.6823, 4686.658
137.1645, 4777.701
137.6466, 4833.992
138.1287, 4848.245
138.6108, 4841.077
139.0929, 4841.377
139.5750, 4856.507
140.0572, 4856.781
140.5393, 4828.443
141.0214, 4762.885
141.5035, 4706.710
141.9856, 4661.538
142.4677, 4624.707
142.9499, 4587.931
143.4320, 4546.229
143.9141, 4512.958
144.3962, 4496.489
144.8783, 4510.755
145.3604, 4515.626
145.8425, 4500.934
146.3247, 4471.795
146.8068, 4464.770
147.2889, 4502.357
147.7710, 4545.082
148.2531, 4567.129
148.7352, 4533.840
149.2174, 4519.568
149.6995, 4541.131
150.1816, 4603.217
150.6637, 4652.979
151.1458, 4678.961
151.6279, 4696.167
152.1101, 4719.926
152.5922, 4767.125
153.0743, 4806.189
153.5564, 4824.467
154.0385, 4810.506
154.5206, 4810.978
155.0028, 4851.837
155.4849, 4909.084
155.9670, 4942.209
156.4491, 4913.360
156.9312, 4880.422
157.4133, 4870.474
157.8955, 4902.989
158.3776, 4932.687
158.8597, 4946.462
159.3418, 4947.799
159.8239, 4948.528
160.3060, 4955.294
160.7882, 4961.551
161.2703, 4962.585
161.7524, 4944.303
162.2345, 4932.837
162.7166, 4943.741
163.1987, 4974.795
163.6808, 5003.551
164.1630, 5024.173
164.6451, 5035.650
165.1272, 5036.898
165.6093, 5007.671
166.0914, 4982.359
166.5735, 4987.220
167.0557, 5024.870
167.5378, 5064.970
168.0199, 5087.526
168.5020, 5099.248
168.9841, 5111.120
169.4662, 5131.424
169.9484, 5152.509
170.4305, 5166.581
170.9126, 5171.382
171.3947, 5174.905
171.8768, 5183.968
172.3589, 5197.197
172.8411, 5210.456
173.3232, 5219.378
173.8053, 5227.662
174.2874, 5241.486
174.7695, 5264.835
175.2516, 5288.322
175.7338, 5301.516
176.2159, 5305.244
176.6980, 5304.965
177.1801, 5299.342
177.6622, 5292.655
178.1443, 5294.442
178.6264, 5311.646
179.1086, 5334.567
179.5907, 5347.683
180.0728, 5351.163
180.5549, 5352.090
181.0370, 5354.408
181.5191, 5358.727
182.0013, 5367.288
182.4834, 5385.120
182.9655, 5406.712
183.4476, 5418.651
183.9297, 5419.971
184.4118, 5418.155
184.8940, 5418.268
185.3761, 5421.097
185.8582, 5431.569
186.3403, 5457.336
186.8224, 5493.717
187.3046, 5523.845
187.7867, 5548.598
188.2688, 5564.208
188.7509, 5558.013
189.2330, 5530.927
189.7151, 5510.732
190.1973, 5517.623
190.6794, 5547.709
191.1615, 5568.681
191.6436, 5576.536
192.1257, 5577.222
192.6078, 5583.151
193.0900, 5594.886
193.5721, 5605.568
194.0542, 5609.264
194.5363, 5606.219
195.0184, 5605.686
195.5005, 5608.636
195.9826, 5615.028
196.4648, 5626.081
196.9469, 5642.628
197.4290, 5659.079
197.9111, 5670.172
198.3932, 5675.315
198.8753, 5682.121
199.3575, 5691.240
199.8396, 5703.141
200.3217, 5722.868
200.8038, 5753.417
201.2859, 5782.447
201.7680, 5795.490
202.2502, 5789.639
202.7323, 5785.959
203.2144, 5788.337
203.6965, 5796.874
204.1786, 5815.099
204.6607, 5845.744
205.1429, 5880.631
205.6250, 5910.028
206.1071, 5932.789
206.5892, 5953.460
207.0713, 5972.349
207.5534, 5989.095
208.0356, 6010.794
208.5177, 6041.727
208.9998, 6072.500
209.4819, 6085.510
209.9640, 6072.153
210.4461, 6065.313
210.9282, 6080.531
211.4104, 6124.421
211.8925, 6157.451
212.3746, 6175.198
212.8567, 6185.241
213.3388, 6204.885
213.8209, 6239.479
214.3031, 6271.954
214.7852, 6292.070
215.2673, 6291.748
215.7494, 6305.646
216.2315, 6340.708
216.7136, 6388.593
217.1958, 6424.265
217.6779, 6442.896
218.1600, 6458.505
218.6421, 6480.907
219.1242, 6518.781
219.6063, 6539.071
220.0885, 6530.754
220.5706, 6503.088
221.0527, 6497.440
221.5348, 6520.353
222.0169, 6555.493
222.4990, 6594.604
222.9812, 6641.386
223.4633, 6682.816
223.9454, 6717.351
224.4275, 6745.466
224.9096, 6765.156
225.3917, 6765.430
225.8739, 6771.572
226.3560, 6805.358
226.8381, 6883.998
227.3202, 6955.335
227.8023, 7012.989
228.2844, 7056.729
228.7665, 7091.836
229.2487, 7108.486
229.7308, 7126.156
230.2129, 7162.997
230.6950, 7227.144
231.1771, 7294.557
231.6592, 7361.922
232.1414, 7428.828
232.6235, 7498.304
233.1056, 7567.548
233.5877, 7641.110
234.0698, 7722.596
234.5519, 7813.072
235.0341, 7909.215
235.5162, 8011.953
235.9983, 8121.324
236.4804, 8233.419
236.9625, 8351.182
237.4446, 8469.251
237.9268, 8580.058
238.4089, 8670.431
238.8910, 8777.855
239.3731, 8913.476
239.8552, 9081.102
240.3373, 9258.460
240.8195, 9457.104
241.3016, 9657.458
241.7837, 9831.778
242.2658, 9958.503
242.7479, 10095.14
243.2300, 10260.10
243.7122, 10460.53
244.1943, 10660.16
244.6764, 10858.46
245.1585, 11055.91
245.6406, 11255.09
246.1227, 11447.93
246.6048, 11656.13
247.0870, 11892.64
247.5691, 12174.08
248.0512, 12428.46
248.5333, 12651.25
249.0154, 12849.52
249.4975, 13034.46
249.9797, 13194.63
250.4618, 13362.93
250.9439, 13554.85
251.4260, 13784.48
251.9081, 13998.65
252.3902, 14199.06
252.8724, 14385.39
253.3545, 14557.87
253.8366, 14728.75
254.3187, 14863.52
254.8008, 14944.23
255.2829, 14955.19
255.7651, 14956.62
256.2472, 14959.87
256.7293, 14948.78
257.2114, 14882.52
257.6935, 14748.58
258.1756, 14583.08
258.6577, 14402.71
259.1399, 14205.69
259.6220, 13993.08
260.1041, 13757.79
260.5862, 13507.48
261.0683, 13266.08
261.5504, 13035.11
262.0326, 12810.93
262.5147, 12590.11
262.9968, 12375.64
263.4789, 12160.60
263.9610, 11945.80
264.4431, 11730.68
264.9253, 11517.62
265.4074, 11302.23
265.8895, 11099.66
266.3716, 10916.19
266.8537, 10754.66
267.3358, 10606.80
267.8180, 10474.09
268.3001, 10353.04
268.7822, 10228.47
269.2643, 10096.63
269.7464, 9972.578
270.2285, 9864.993
270.7107, 9778.692
271.1928, 9685.409
271.6749, 9578.719
272.1570, 9466.632
272.6391, 9376.571
273.1212, 9313.119
273.6034, 9256.770
274.0855, 9197.483
274.5676, 9135.169
275.0497, 9069.334
275.5318, 8997.042
276.0139, 8923.456
276.4961, 8863.941
276.9782, 8819.380
277.4603, 8785.013
277.9424, 8762.314
278.4245, 8752.069
278.9066, 8735.509
279.3888, 8710.977
279.8709, 8679.325
280.3530, 8636.776
280.8351, 8579.456
281.3172, 8536.008
281.7993, 8535.787
282.2815, 8577.533
282.7636, 8596.620
283.2457, 8582.788
283.7278, 8548.562
284.2099, 8518.870
284.6920, 8493.774
285.1741, 8472.343
285.6563, 8454.852
286.1384, 8440.949
286.6205, 8428.069
287.1026, 8414.768
287.5847, 8404.175
288.0668, 8404.353
288.5490, 8415.281
289.0311, 8426.829
289.5132, 8431.357
289.9953, 8430.557
290.4774, 8434.158
290.9595, 8445.010
291.4417, 8456.748
291.9238, 8454.421
292.4059, 8439.598
292.8880, 8431.152
293.3701, 8444.920
293.8522, 8474.774
294.3344, 8502.178
294.8165, 8525.838
295.2986, 8545.337
295.7807, 8562.176
296.2628, 8575.392
296.7449, 8578.683
297.2271, 8554.933
297.7092, 8520.068
298.1913, 8511.610
298.6734, 8539.708
299.1555, 8575.050
299.6376, 8577.613
300.1198, 8555.676
300.6019, 8539.691
301.0840, 8554.009
301.5661, 8583.305
302.0482, 8603.611
302.5303, 8611.376
303.0125, 8615.345
303.4946, 8624.454
303.9767, 8636.754
304.4588, 8647.237
304.9409, 8648.152
305.4230, 8648.041
305.9052, 8660.735
306.3873, 8691.119
306.8694, 8714.821
307.3515, 8706.337
307.8336, 8676.694
308.3157, 8647.630
308.7979, 8624.449
309.2800, 8609.645
309.7621, 8612.799
310.2442, 8639.156
310.7263, 8651.469
311.2084, 8608.287
311.6906, 8538.166
312.1727, 8486.743
312.6548, 8487.203
313.1369, 8502.240
313.6190, 8511.206
314.1011, 8512.762
314.5833, 8506.904
315.0654, 8488.795
315.5475, 8464.540
316.0296, 8442.073
316.5117, 8428.447
316.9938, 8413.541
317.4760, 8394.382
317.9580, 8371.170
318.4402, 8339.401
318.9223, 8284.421
319.4044, 8225.226
319.8865, 8181.611
320.3686, 8175.617
320.8507, 8169.538
321.3329, 8148.368
321.8150, 8111.305
322.2971, 8082.907
322.7792, 8080.417
323.2613, 8082.264
323.7434, 8070.810
324.2256, 8022.640
324.7077, 7983.127
325.1898, 7965.813
325.6719, 7970.375
326.1540, 7964.292
326.6361, 7943.135
327.1183, 7912.464
327.6004, 7875.656
328.0825, 7819.607
328.5646, 7773.331
329.0467, 7741.583
329.5288, 7722.750
330.0110, 7706.635
330.4931, 7702.429
330.9752, 7691.903
331.4573, 7662.978
331.9394, 7597.644
332.4215, 7546.198
332.9037, 7511.223
333.3858, 7492.332
333.8679, 7491.308
334.3500, 7525.583
334.8321, 7549.842
335.3142, 7535.815
335.7964, 7465.695
336.2785, 7412.321
336.7606, 7381.687
337.2427, 7366.871
337.7248, 7351.202
338.2069, 7334.079
338.6891, 7318.015
339.1712, 7307.673
339.6533, 7305.454
340.1354, 7282.884
340.6175, 7230.621
341.0996, 7171.844
341.5818, 7152.803
342.0639, 7177.319
342.5460, 7201.948
343.0281, 7208.870
343.5102, 7198.939
343.9923, 7179.872
344.4745, 7149.674
344.9566, 7117.703
345.4387, 7096.393
345.9208, 7085.358
346.4029, 7078.357
346.8850, 7068.008
347.3672, 7060.301
347.8493, 7084.504
348.3314, 7144.068
348.8135, 7192.774
349.2956, 7167.792
349.7777, 7090.396
350.2599, 7025.187
350.7419, 6997.957
351.2241, 6992.315
351.7062, 6987.359
352.1883, 6982.953
352.6704, 6976.439
353.1525, 6961.414
353.6346, 6943.801
354.1168, 6933.776
354.5989, 6941.307
355.0810, 6949.133
355.5631, 6937.492
356.0452, 6910.483
356.5273, 6887.962
357.0095, 6881.861
357.4916, 6885.944
357.9737, 6895.519
358.4558, 6914.884
358.9379, 6929.954
359.4200, 6935.301
359.9022, 6930.750
360.3843, 6915.842
360.8664, 6870.593
361.3485, 6828.526
361.8306, 6812.807
362.3127, 6837.166
362.7949, 6860.193
363.2770, 6868.507
363.7591, 6868.030
364.2412, 6868.711
364.7233, 6879.086
365.2054, 6885.432
365.6876, 6880.211
366.1697, 6858.036
366.6518, 6843.668
367.1339, 6844.816
367.6160, 6853.067
368.0981, 6858.816
368.5803, 6856.428
369.0624, 6857.830
369.5445, 6870.169
370.0266, 6895.264
370.5087, 6900.295
370.9908, 6869.026
371.4730, 6832.172
371.9551, 6815.946
372.4372, 6830.891
372.9193, 6845.209
373.4014, 6856.800
373.8835, 6864.583
374.3657, 6858.805
374.8478, 6831.689
375.3299, 6807.612
375.8120, 6805.816
376.2941, 6830.333
376.7762, 6852.675
377.2584, 6872.270
377.7405, 6886.018
378.2226, 6879.129
378.7047, 6848.080
379.1868, 6826.480
379.6689, 6843.239
380.1511, 6892.212
380.6332, 6916.688
381.1153, 6909.404
381.5974, 6888.854
382.0795, 6880.776
382.5616, 6883.563
383.0438, 6887.593
383.5259, 6889.344
384.0080, 6889.084
384.4901, 6888.004
384.9722, 6886.248
385.4543, 6881.586
385.9364, 6864.652
386.4185, 6843.383
386.9007, 6834.645
387.3828, 6853.193
387.8649, 6880.643
388.3470, 6899.935
388.8291, 6911.478
389.3112, 6919.414
389.7934, 6926.197
390.2755, 6930.626
390.7576, 6931.282
391.2397, 6926.604
391.7218, 6919.750
392.2039, 6911.076
392.6861, 6901.303
393.1682, 6892.660
393.6503, 6882.344
394.1324, 6876.013
394.6145, 6878.167
395.0966, 6894.607
395.5788, 6907.687
396.0609, 6912.423
396.5430, 6911.559
397.0251, 6909.709
397.5072, 6909.354
397.9893, 6906.335
398.4715, 6897.200
398.9536, 6878.817
399.4357, 6869.570
399.9178, 6875.927
400.3999, 6887.307
400.8820, 6893.817
401.3642, 6896.151
401.8463, 6891.736
402.3284, 6875.481
402.8105, 6849.500
403.2926, 6841.196
403.7747, 6859.222
404.2569, 6879.023
404.7390, 6878.295
405.2211, 6850.048
405.7032, 6841.356
406.1853, 6862.897
406.6674, 6900.505
407.1496, 6920.799
407.6317, 6922.934
408.1138, 6915.941
408.5959, 6895.966
409.0780, 6867.545
409.5602, 6863.736
410.0423, 6889.860
410.5244, 6926.387
411.0065, 6951.426
411.4886, 6966.074
411.9707, 6974.896
412.4529, 6977.635
412.9350, 6976.714
413.4171, 6975.343
413.8992, 6973.528
414.3813, 6972.618
414.8634, 6967.674
415.3456, 6965.722
415.8277, 6978.041
416.3098, 7018.802
416.7919, 7062.356
417.2740, 7091.958
417.7561, 7109.027
418.2382, 7121.793
418.7203, 7126.352
419.2025, 7132.745
419.6846, 7148.955
420.1667, 7181.421
420.6488, 7212.340
421.1309, 7230.911
421.6130, 7245.200
422.0952, 7270.356
422.5773, 7324.949
423.0594, 7375.832
423.5415, 7411.893
424.0236, 7428.886
424.5057, 7447.096
424.9879, 7456.857
425.4700, 7473.867
425.9521, 7514.217
426.4342, 7591.990
426.9163, 7668.894
427.3984, 7741.640
427.8806, 7809.943
428.3627, 7865.584
428.8448, 7903.238
429.3269, 7939.458
429.8090, 7984.422
430.2911, 8038.757
430.7733, 8097.388
431.2554, 8161.084
431.7375, 8226.944
432.2196, 8288.708
432.7017, 8345.910
433.1838, 8408.743
433.6660, 8485.656
434.1481, 8572.212
434.6302, 8648.937
435.1123, 8714.438
435.5944, 8781.642
436.0765, 8865.804
436.5587, 8962.104
437.0408, 9058.977
437.5229, 9153.399
438.0050, 9244.464
438.4871, 9330.350
438.9692, 9411.388
439.4514, 9489.396
439.9335, 9561.108
440.4156, 9632.536
440.8977, 9708.368
441.3798, 9785.534
441.8619, 9874.475
442.3441, 9992.313
442.8262, 10124.09
443.3083, 10242.45
443.7904, 10321.22
444.2725, 10399.19
444.7546, 10493.64
445.2368, 10608.31
445.7189, 10718.60
446.2010, 10824.04
446.6831, 10921.71
447.1652, 11007.80
447.6473, 11063.88
448.1295, 11135.38
448.6116, 11231.41
449.0937, 11348.19
449.5758, 11462.88
450.0579, 11581.83
450.5400, 11686.12
451.0221, 11757.42
451.5042, 11785.36
451.9864, 11841.38
452.4685, 11936.21
452.9506, 12046.83
453.4327, 12134.63
453.9148, 12199.00
454.3969, 12264.45
454.8791, 12346.06
455.3612, 12435.19
455.8433, 12506.17
456.3254, 12558.58
456.8075, 12588.53
457.2896, 12573.91
457.7718, 12534.43
458.2539, 12515.75
458.7360, 12540.18
459.2181, 12571.59
459.7002, 12574.92
460.1823, 12555.03
460.6645, 12527.24
461.1466, 12496.02
461.6287, 12462.67
462.1108, 12429.73
462.5929, 12398.67
463.0750, 12360.33
463.5572, 12311.47
464.0393, 12252.95
464.5214, 12186.11
465.0035, 12097.73
465.4856, 12016.02
465.9677, 11954.25
466.4499, 11911.28
466.9320, 11855.79
467.4141, 11783.43
467.8962, 11701.14
468.3783, 11611.11
468.8604, 11505.65
469.3426, 11409.34
469.8247, 11325.14
470.3068, 11246.89
470.7889, 11158.80
471.2710, 11055.59
471.7531, 10963.16
472.2353, 10897.93
472.7174, 10855.32
473.1995, 10787.12
473.6816, 10689.77
474.1637, 10588.31
474.6458, 10511.42
475.1280, 10454.16
475.6101, 10392.46
476.0922, 10319.09
476.5743, 10241.55
477.0564, 10168.45
477.5385, 10100.05
478.0207, 10040.57
478.5028, 9996.389
478.9849, 9959.537
479.4670, 9925.336
479.9491, 9894.946
480.4312, 9853.724
480.9134, 9776.623
481.3955, 9667.632
481.8776, 9675.815
482.3597, 9668.622
482.8418, 9646.880
483.3239, 9567.009
483.8060, 9562.199
484.2881, 9527.310
484.7703, 9491.180
485.2524, 9496.934
485.7345, 9425.519
486.2166, 9430.608
486.6987, 9405.161
487.1808, 9393.690
487.6630, 9367.344
488.1451, 9346.191
488.6272, 9294.652
489.1093, 9241.372
489.5914, 9188.806
490.0735, 9139.894
490.5557, 9116.681
491.0378, 9122.296
491.5199, 9137.653
492.0020, 9152.602
492.4841, 9165.620
492.9662, 9165.002
493.4484, 9144.451
493.9305, 9122.242
494.4126, 9125.534
494.8947, 9149.096
495.3768, 9174.908
495.8589, 9202.674
496.3411, 9223.309
496.8232, 9223.144
497.3053, 9202.343
497.7874, 9181.391
498.2695, 9162.928
498.7516, 9154.874
499.2338, 9166.330
499.7159, 9227.379
500.1980, 9270.696
500.6801, 9262.774
501.1622, 9221.863
501.6443, 9193.433
502.1265, 9195.766
502.6086, 9200.271
503.0907, 9197.277
503.5728, 9184.402
504.0549, 9179.297
504.5370, 9190.837
505.0192, 9200.204
505.5013, 9186.097
505.9834, 9140.017
506.4655, 9107.181
506.9476, 9100.195
507.4297, 9105.396
507.9119, 9082.914
508.3940, 9031.072
508.8761, 8980.251
509.3582, 8947.690
509.8403, 8929.019
510.3224, 8911.502
510.8046, 8894.834
511.2867, 8878.109
511.7688, 8862.546
512.2509, 8845.941
512.7330, 8822.985
513.2151, 8784.575
513.6973, 8748.506
514.1794, 8731.238
514.6615, 8727.932
515.1436, 8722.970
515.6257, 8706.632
516.1078, 8688.850
516.5900, 8677.455
517.0721, 8676.626
517.5542, 8667.129
518.0363, 8632.312
518.5184, 8594.063
519.0005, 8575.104
519.4827, 8597.846
519.9648, 8604.792
520.4469, 8580.879
520.9290, 8536.839
521.4111, 8517.023
521.8932, 8529.980
522.3754, 8543.651
522.8575, 8541.428
523.3396, 8523.312
523.8217, 8504.691
524.3038, 8485.760
524.7859, 8465.222
525.2681, 8437.349
525.7502, 8404.963
526.2323, 8380.381
526.7144, 8366.312
527.1965, 8362.205
527.6786, 8374.518
528.1608, 8398.333
528.6429, 8415.231
529.1250, 8405.580
529.6071, 8390.228
530.0892, 8387.233
530.5714, 8400.044
531.0535, 8412.929
531.5356, 8421.679
532.0176, 8426.249
532.4998, 8426.590
532.9819, 8417.002
533.4640, 8409.847
533.9461, 8409.125
534.4282, 8412.329
534.9103, 8410.928
535.3925, 8403.349
535.8746, 8393.399
536.3567, 8380.578
536.8388, 8363.911
537.3209, 8359.069
537.8030, 8370.455
538.2852, 8382.384
538.7673, 8374.719
539.2494, 8349.141
539.7315, 8332.431
540.2136, 8333.007
540.6957, 8339.748
541.1779, 8331.564
541.6600, 8312.496
542.1421, 8299.382
542.6242, 8301.451
543.1063, 8314.517
543.5884, 8339.969
544.0706, 8377.883
544.5527, 8406.497
545.0348, 8409.839
545.5169, 8400.206
545.9990, 8388.078
546.4811, 8367.781
546.9633, 8356.269
547.4454, 8360.220
547.9275, 8375.450
548.4096, 8392.235
548.8917, 8412.646
549.3738, 8431.518
549.8560, 8448.480
550.3381, 8463.550
550.8202, 8470.929
551.3023, 8467.668
551.7844, 8463.397
552.2665, 8463.826
552.7487, 8468.969
553.2308, 8483.716
553.7129, 8510.516
554.1950, 8541.827
554.6771, 8567.783
555.1592, 8588.939
555.6414, 8607.122
556.1235, 8618.703
556.6056, 8630.673
557.0877, 8655.258
557.5698, 8689.822
558.0519, 8717.665
558.5341, 8724.418
559.0162, 8723.616
559.4983, 8724.093
559.9804, 8724.845
560.4625, 8734.112
560.9446, 8756.523
561.4268, 8787.631
561.9089, 8822.768
562.3910, 8875.051
562.8731, 8912.599
563.3552, 8921.938
563.8373, 8912.537
564.3195, 8929.980
564.8016, 8985.428
565.2837, 9036.845
565.7658, 9055.381
566.2479, 9042.719
566.7300, 9058.675
567.2122, 9106.499
567.6943, 9165.493
568.1764, 9221.938
568.6585, 9273.020
569.1406, 9305.330
569.6227, 9306.400
570.1049, 9306.509
570.5870, 9336.840
571.0691, 9390.866
571.5512, 9454.094
572.0333, 9531.277
572.5154, 9605.526
572.9976, 9667.676
573.4797, 9717.763
573.9618, 9756.655
574.4439, 9764.225
574.9260, 9775.686
575.4081, 9814.097
575.8903, 9900.231
576.3724, 9974.823
576.8545, 10031.87
577.3366, 10082.24
577.8187, 10140.53
578.3008, 10206.88
578.7830, 10281.87
579.2651, 10370.84
579.7472, 10465.70
580.2293, 10535.14
580.7114, 10579.93
581.1935, 10631.67
581.6757, 10712.87
582.1578, 10813.98
582.6399, 10917.15
583.1220, 11019.32
583.6041, 11131.21
584.0862, 11269.15
584.5684, 11416.77
585.0505, 11554.22
585.5326, 11665.33
586.0147, 11779.92
586.4968, 11915.61
586.9789, 12061.21
587.4611, 12193.81
587.9432, 12281.65
588.4253, 12388.65
588.9074, 12537.93
589.3895, 12728.71
589.8716, 12896.27
590.3538, 13030.77
590.8359, 13163.79
591.3180, 13322.91
591.8001, 13508.17
592.2822, 13675.71
592.7643, 13819.27
593.2465, 13957.75
593.7286, 14117.70
594.2107, 14294.68
594.6928, 14464.98
595.1749, 14613.62
595.6570, 14765.38
596.1392, 14954.43
596.6213, 15170.15
597.1034, 15373.21
597.5854, 15534.25
598.0676, 15689.36
598.5497, 15862.86
599.0318, 16062.26
599.5139, 16237.08
599.9960, 16363.33
600.4781, 16475.68
600.9603, 16595.53
601.4424, 16733.17
601.9245, 16855.16
602.4066, 16949.42
602.8887, 17037.91
603.3708, 17168.81
603.8530, 17345.93
604.3351, 17496.82
604.8172, 17593.06
605.2993, 17652.65
605.7814, 17709.91
606.2635, 17764.80
606.7457, 17819.07
607.2278, 17882.27
607.7099, 17940.55
608.1920, 17965.49
608.6741, 17952.22
609.1563, 17961.32
609.6384, 18066.77
610.1205, 18187.61
610.6026, 18251.18
611.0847, 18194.35
611.5668, 18149.43
612.0490, 18141.42
612.5311, 18151.40
613.0132, 18148.89
613.4953, 18125.71
613.9774, 18106.84
614.4595, 18098.85
614.9417, 18099.79
615.4238, 18104.77
615.9059, 18115.27
616.3880, 18115.32
616.8701, 18080.42
617.3522, 18027.41
617.8344, 18015.31
618.3165, 18048.13
618.7986, 18079.00
619.2807, 18058.58
619.7628, 18015.28
620.2449, 17984.26
620.7271, 17969.25
621.2092, 17977.49
621.6913, 18040.98
622.1734, 18124.26
622.6555, 18167.83
623.1376, 18121.33
623.6198, 18078.17
624.1019, 18049.81
624.5840, 18037.74
625.0661, 18057.47
625.5482, 18127.31
626.0303, 18185.40
626.5125, 18192.59
626.9946, 18152.06
627.4767, 18136.11
627.9588, 18146.25
628.4409, 18169.52
628.9230, 18196.69
629.4052, 18227.21
629.8873, 18259.54
630.3694, 18291.90
630.8515, 18330.84
631.3336, 18394.67
631.8157, 18466.32
632.2979, 18518.44
632.7800, 18509.92
633.2621, 18513.38
633.7442, 18565.13
634.2263, 18653.79
634.7084, 18720.37
635.1906, 18759.23
635.6727, 18780.14
636.1548, 18775.17
636.6369, 18742.11
637.1190, 18768.88
637.6011, 18870.07
638.0833, 18976.46
638.5654, 19018.71
639.0475, 19011.41
639.5296, 19033.10
640.0117, 19095.23
640.4938, 19174.74
640.9760, 19258.14
641.4581, 19339.85
641.9402, 19412.79
642.4223, 19470.63
642.9044, 19523.57
643.3865, 19573.10
643.8687, 19621.86
644.3508, 19677.95
644.8329, 19731.64
645.3150, 19805.45
645.7971, 19912.48
646.2792, 20051.98
646.7614, 20174.75
647.2435, 20280.39
647.7256, 20372.62
648.2077, 20444.14
648.6898, 20496.41
649.1719, 20588.08
649.6541, 20728.93
650.1362, 20864.16
650.6183, 20911.03
651.1004, 20911.38
651.5825, 20966.95
652.0646, 21124.37
652.5468, 21284.81
653.0289, 21359.31
653.5110, 21387.79
653.9931, 21436.70
654.4752, 21534.68
654.9573, 21649.04
655.4395, 21779.92
655.9216, 21922.27
656.4037, 22048.49
656.8858, 22142.66
657.3679, 22247.34
657.8500, 22387.72
658.3322, 22561.32
658.8143, 22684.82
659.2964, 22748.96
659.7785, 22818.47
660.2606, 22967.33
660.7427, 23164.13
661.2249, 23305.96
661.7070, 23379.12
662.1891, 23436.93
662.6712, 23518.14
663.1533, 23616.14
663.6354, 23722.72
664.1175, 23843.60
664.5996, 23961.76
665.0817, 24079.02
665.5638, 24188.80
666.0460, 24274.78
666.5281, 24311.24
667.0102, 24362.61
667.4923, 24447.98
667.9744, 24558.96
668.4565, 24649.13
668.9387, 24715.30
669.4208, 24782.35
669.9029, 24868.99
670.3850, 24967.85
670.8671, 25050.52
671.3492, 25117.34
671.8314, 25179.34
672.3135, 25262.03
672.7956, 25336.79
673.2777, 25362.09
673.7598, 25318.32
674.2419, 25281.61
674.7241, 25293.12
675.2062, 25323.33
675.6883, 25342.10
676.1704, 25322.12
676.6525, 25326.06
677.1346, 25375.74
677.6168, 25438.81
678.0989, 25451.13
678.5810, 25404.85
679.0631, 25353.39
679.5452, 25313.46
680.0273, 25275.65
680.5095, 25219.26
680.9916, 25144.58
681.4737, 25058.08
681.9558, 24957.47
682.4379, 24850.01
682.9200, 24741.01
683.4022, 24630.59
683.8843, 24518.76
684.3664, 24408.01
684.8485, 24291.86
685.3306, 24166.19
685.8127, 24033.33
686.2949, 23881.47
686.7770, 23692.71
687.2591, 23502.14
687.7412, 23351.84
688.2233, 23250.22
688.7054, 23101.28
689.1876, 22887.19
689.6697, 22650.38
690.1518, 22451.54
690.6339, 22283.78
691.1160, 22126.00
691.5981, 21986.94
692.0803, 21832.14
692.5624, 21618.19
693.0445, 21364.81
693.5266, 21117.82
694.0087, 20895.12
694.4908, 20677.32
694.9730, 20452.99
695.4551, 20225.77
695.9372, 20016.89
696.4193, 19848.00
696.9014, 19659.66
697.3835, 19414.64
697.8657, 19114.92
698.3478, 18874.35
698.8299, 18698.23
699.3120, 18537.04
699.7941, 18361.02
700.2762, 18169.99
700.7584, 17958.10
701.2405, 17721.64
701.7226, 17493.37
702.2047, 17314.89
702.6868, 17150.79
703.1689, 16965.33
703.6511, 16730.25
704.1332, 16506.17
704.6153, 16312.61
705.0974, 16132.02
705.5795, 15941.74
706.0616, 15731.26
706.5438, 15537.44
707.0259, 15371.41
707.5080, 15219.77
707.9901, 15053.85
708.4722, 14873.90
708.9543, 14695.39
709.4365, 14520.85
709.9186, 14351.70
710.4007, 14191.59
710.8828, 14040.84
711.3649, 13897.61
711.8470, 13762.19
712.3292, 13633.45
712.8113, 13519.41
713.2934, 13422.73
713.7755, 13288.22
714.2576, 13071.28
714.7397, 12862.13
715.2219, 12702.45
715.7040, 12599.43
716.1861, 12496.58
716.6682, 12394.38
717.1503, 12289.15
717.6324, 12164.63
718.1146, 12032.47
718.5967, 11938.92
719.0788, 11898.45
719.5609, 11848.65
720.0430, 11718.17
720.5251, 11554.22
721.0073, 11414.67
721.4894, 11336.35
721.9715, 11254.04
722.4536, 11143.91
722.9357, 11024.20
723.4178, 10922.39
723.9000, 10844.81
724.3821, 10774.25
724.8642, 10712.96
725.3463, 10653.29
725.8284, 10571.87
726.3105, 10469.91
726.7927, 10373.48
727.2748, 10296.74
727.7569, 10229.16
728.2390, 10159.67
728.7211, 10087.75
729.2032, 10011.30
729.6853, 9914.397
730.1674, 9825.582
730.6495, 9767.913
731.1317, 9742.645
731.6138, 9700.748
732.0959, 9624.434
732.5780, 9549.631
733.0601, 9495.554
733.5422, 9463.998
734.0244, 9419.423
734.5065, 9359.922
734.9886, 9294.443
735.4707, 9221.790
735.9528, 9149.765
736.4349, 9102.559
736.9171, 9084.858
737.3992, 9071.431
737.8813, 9054.868
738.3634, 9026.510
738.8455, 8974.536
739.3276, 8874.595
739.8098, 8793.063
740.2919, 8750.676
740.7740, 8727.040
741.2561, 8703.045
741.7382, 8680.568
742.2203, 8652.079
742.7025, 8616.575
743.1846, 8575.434
743.6667, 8528.330
744.1488, 8476.794
744.6309, 8428.344
745.1130, 8383.736
745.5952, 8347.529
746.0773, 8334.402
746.5594, 8333.421
747.0415, 8319.323
747.5236, 8264.626
748.0057, 8213.687
748.4879, 8192.214
748.9700, 8190.328
749.4521, 8159.063
749.9342, 8079.858
750.4163, 8012.581
750.8984, 7981.149
751.3806, 7978.989
751.8627, 7976.394
752.3448, 7973.246
752.8269, 7962.624
753.3090, 7936.920
753.7911, 7902.959
754.2733, 7870.261
754.7554, 7838.657
755.2375, 7804.273
755.7196, 7756.221
756.2017, 7711.529
756.6838, 7680.629
757.1660, 7667.393
757.6481, 7657.841
758.1302, 7656.962
758.6123, 7652.456
759.0944, 7634.235
759.5765, 7602.257
760.0587, 7569.016
760.5408, 7534.099
761.0229, 7504.227
761.5050, 7489.135
761.9871, 7482.103
762.4692, 7470.316
762.9514, 7449.647
763.4335, 7431.873
763.9156, 7430.459
764.3977, 7432.007
764.8798, 7422.582
765.3619, 7387.178
765.8441, 7359.532
766.3262, 7341.615
766.8083, 7329.810
767.2904, 7321.610
767.7725, 7317.522
768.2546, 7304.908
768.7368, 7278.403
769.2189, 7250.431
769.7010, 7245.143
770.1831, 7251.947
770.6652, 7245.703
771.1473, 7203.274
771.6295, 7162.628
772.1116, 7150.846
772.5937, 7154.599
773.0758, 7145.846
773.5579, 7105.245
774.0400, 7074.542
774.5222, 7064.758
775.0043, 7067.419
775.4864, 7055.182
775.9685, 7026.549
776.4506, 7003.947
776.9327, 6996.953
777.4149, 6999.945
777.8970, 7010.544
778.3791, 7024.165
778.8612, 7024.047
779.3433, 6985.485
779.8254, 6945.235
780.3076, 6922.763
780.7897, 6917.301
781.2718, 6919.594
781.7539, 6939.706
782.2360, 6951.032
782.7181, 6940.440
783.2003, 6911.588
783.6824, 6902.229
784.1645, 6914.120
784.6466, 6916.394
785.1287, 6871.214
785.6108, 6811.110
786.0930, 6801.439
786.5751, 6838.610
787.0572, 6866.215
787.5393, 6844.437
788.0214, 6809.232
788.5035, 6777.635
788.9857, 6749.631
789.4678, 6743.829
789.9499, 6776.286
790.4320, 6807.463
790.9141, 6813.946
791.3962, 6795.570
791.8784, 6775.708
792.3605, 6754.185
792.8426, 6734.385
793.3247, 6721.805
793.8068, 6711.543
794.2889, 6691.431
794.7711, 6658.604
795.2531, 6639.408
795.7352, 6656.968
796.2173, 6686.176
796.6995, 6710.111
797.1816, 6729.585
797.6637, 6735.799
798.1458, 6722.836
798.6279, 6706.514
799.1100, 6705.636
799.5922, 6717.453
800.0743, 6705.741
800.5564, 6664.270
801.0385, 6625.611
801.5206, 6630.674
802.0027, 6653.971
802.4849, 6658.927
802.9670, 6629.985
803.4491, 6610.238
803.9312, 6629.410
804.4133, 6655.334
804.8954, 6656.443
805.3776, 6617.890
805.8597, 6593.413
806.3418, 6585.986
806.8239, 6590.754
807.3060, 6610.504
807.7881, 6639.402
808.2703, 6648.284
808.7524, 6629.110
809.2345, 6601.233
809.7166, 6568.827
810.1987, 6543.575
810.6808, 6541.502
811.1630, 6589.194
811.6451, 6622.311
812.1272, 6626.284
812.6093, 6614.447
813.0914, 6597.201
813.5735, 6570.727
814.0557, 6560.656
814.5378, 6574.693
815.0199, 6593.453
815.5020, 6583.053
815.9841, 6555.741
816.4662, 6545.685
816.9484, 6571.362
817.4305, 6594.150
817.9126, 6580.978
818.3947, 6552.056
818.8768, 6533.758
819.3589, 6537.085
819.8411, 6543.728
820.3232, 6555.927
820.8053, 6568.339
821.2874, 6570.313
821.7695, 6561.792
822.2516, 6560.748
822.7338, 6573.407
823.2159, 6587.243
823.6980, 6584.986
824.1801, 6572.440
824.6622, 6560.367
825.1443, 6553.484
825.6265, 6545.594
826.1086, 6530.742
826.5907, 6514.838
827.0728, 6507.635
827.5549, 6513.745
828.0370, 6517.454
828.5192, 6517.100
829.0013, 6513.154
829.4834, 6503.161
829.9655, 6489.303
830.4476, 6484.118
830.9297, 6495.535
831.4119, 6506.286
831.8940, 6491.002
832.3761, 6467.662
832.8582, 6463.731
833.3403, 6525.286
833.8224, 6555.175
834.3046, 6522.650
834.7867, 6466.947
835.2688, 6449.436
835.7509, 6475.529
836.2330, 6494.515
836.7151, 6496.103
837.1973, 6489.635
837.6794, 6486.251
838.1615, 6485.223
838.6436, 6485.394
839.1257, 6489.986
839.6078, 6489.550
840.0900, 6471.819
840.5721, 6449.043
841.0542, 6440.069
841.5363, 6456.767
842.0184, 6463.411
842.5005, 6452.701
842.9827, 6436.764
843.4648, 6438.448
843.9469, 6454.180
844.4290, 6458.771
844.9111, 6443.701
845.3932, 6423.614
845.8754, 6409.471
846.3575, 6400.292
846.8396, 6394.646
847.3217, 6389.358
847.8038, 6392.149
848.2859, 6413.301
848.7681, 6436.134
849.2502, 6438.965
849.7323, 6418.428
850.2144, 6403.603
850.6965, 6399.073
851.1786, 6398.610
851.6608, 6390.297
852.1429, 6380.806
852.6250, 6385.434
853.1071, 6414.818
853.5892, 6440.170
854.0714, 6445.385
854.5535, 6439.893
855.0356, 6434.365
855.5177, 6433.821
855.9998, 6421.863
856.4819, 6392.156
856.9641, 6362.225
857.4462, 6356.282
857.9283, 6369.583
858.4104, 6379.440
858.8925, 6382.214
859.3746, 6383.123
859.8568, 6384.905
860.3389, 6388.098
860.8210, 6393.799
861.3030, 6405.013
861.7852, 6411.823
862.2673, 6411.259
862.7494, 6408.709
863.2315, 6410.074
863.7136, 6415.875
864.1957, 6410.108
864.6779, 6389.849
865.1600, 6374.943
865.6421, 6391.983
866.1242, 6423.719
866.6063, 6445.767
867.0884, 6453.828
867.5706, 6456.420
868.0527, 6459.268
868.5348, 6455.137
869.0169, 6436.061
869.4990, 6395.865
869.9811, 6377.952
870.4633, 6385.735
870.9454, 6402.785
871.4275, 6420.377
871.9096, 6436.143
872.3917, 6442.758
872.8738, 6440.021
873.3560, 6435.994
873.8381, 6436.444
874.3202, 6436.812
874.8023, 6434.085
875.2844, 6427.718
875.7665, 6419.359
876.2487, 6406.504
876.7308, 6396.697
877.2129, 6395.098
877.6950, 6400.064
878.1771, 6403.325
878.6592, 6404.818
879.1414, 6404.062
879.6235, 6393.738
880.1056, 6386.510
880.5877, 6399.911
881.0698, 6430.412
881.5519, 6445.127
882.0341, 6424.673
882.5162, 6402.932
882.9983, 6385.415
883.4804, 6374.502
883.9625, 6389.102
884.4446, 6429.003
884.9268, 6455.983
885.4089, 6441.736
885.8910, 6413.621
886.3731, 6403.702
886.8552, 6407.319
887.3373, 6411.453
887.8195, 6415.839
888.3016, 6414.532
888.7837, 6400.266
889.2658, 6381.182
889.7479, 6377.543
890.2300, 6390.806
890.7122, 6409.462
891.1943, 6433.397
891.6764, 6455.883
892.1585, 6468.540
892.6406, 6471.285
893.1227, 6462.811
893.6049, 6430.072
894.0870, 6404.407
894.5691, 6402.257
895.0512, 6412.171
895.5333, 6416.831
896.0154, 6411.551
896.4976, 6418.225
896.9797, 6442.708
897.4618, 6470.081
897.9439, 6480.332
898.4260, 6477.299
898.9081, 6467.929
899.3903, 6450.962
899.8724, 6439.402
900.3545, 6442.706
900.8366, 6453.967
901.3187, 6467.496
901.8008, 6486.160
902.2830, 6497.503
902.7651, 6500.764
903.2472, 6498.659
903.7293, 6493.099
904.2114, 6484.085
904.6935, 6470.618
905.1757, 6452.725
905.6578, 6436.268
906.1399, 6425.243
906.6220, 6417.640
907.1041, 6411.713
907.5862, 6407.169
908.0684, 6406.398
908.5505, 6407.361
909.0326, 6416.487
909.5147, 6444.370
909.9968, 6483.092
910.4789, 6484.542
910.9611, 6452.808
911.4432, 6426.286
911.9253, 6433.100
912.4074, 6450.249
912.8895, 6464.541
913.3716, 6474.654
913.8538, 6476.210
914.3359, 6457.770
914.8180, 6448.764
915.3001, 6459.532
915.7822, 6481.338
916.2643, 6490.685
916.7465, 6488.670
917.2286, 6484.569
917.7107, 6479.721
918.1928, 6477.273
918.6749, 6485.866
919.1570, 6497.385
919.6392, 6498.391
920.1213, 6461.476
920.6034, 6449.185
921.0855, 6477.303
921.5676, 6518.262
922.0497, 6533.739
922.5319, 6525.865
923.0140, 6529.554
923.4961, 6552.241
923.9782, 6572.118
924.4603, 6565.521
924.9424, 6546.750
925.4246, 6529.732
925.9067, 6514.355
926.3888, 6511.511
926.8708, 6531.847
927.3530, 6552.525
927.8351, 6556.949
928.3172, 6545.499
928.7993, 6544.491
929.2814, 6554.013
929.7635, 6559.408
930.2457, 6539.354
930.7278, 6516.711
931.2099, 6518.763
931.6920, 6544.098
932.1741, 6563.999
932.6563, 6568.091
933.1384, 6570.768
933.6205, 6574.892
934.1026, 6581.043
934.5847, 6597.242
935.0668, 6622.120
935.5490, 6628.690
936.0311, 6586.083
936.5132, 6543.668
936.9953, 6566.726
937.4774, 6625.792
937.9595, 6660.833
938.4417, 6627.596
938.9238, 6606.694
939.4059, 6610.682
939.8880, 6627.270
940.3701, 6641.031
940.8522, 6651.675
941.3344, 6655.820
941.8165, 6652.884
942.2986, 6643.358
942.7807, 6614.133
943.2628, 6585.723
943.7449, 6584.349
944.2271, 6626.829
944.7092, 6657.570
945.1913, 6669.434
945.6734, 6672.379
946.1555, 6671.611
946.6376, 6667.360
947.1198, 6660.960
947.6019, 6652.543
948.0840, 6649.375
948.5661, 6663.217
949.0482, 6679.512
949.5303, 6684.908
950.0125, 6679.817
950.4946, 6676.052
950.9767, 6677.503
951.4588, 6676.068
951.9409, 6667.619
952.4230, 6655.889
952.9052, 6650.831
953.3873, 6652.451
953.8694, 6661.854
954.3515, 6688.857
954.8336, 6709.547
955.3157, 6699.713
955.7979, 6673.645
956.2800, 6653.990
956.7621, 6638.891
957.2442, 6642.086
957.7263, 6673.735
958.2084, 6706.924
958.6906, 6700.752
959.1727, 6667.383
959.6548, 6660.699
960.1369, 6690.511
960.6190, 6713.091
961.1011, 6681.397
961.5833, 6641.532
962.0654, 6633.011
962.5475, 6663.294
963.0296, 6686.244
963.5117, 6700.749
963.9938, 6710.522
964.4760, 6717.931
964.9581, 6721.956
965.4402, 6716.397
965.9223, 6703.598
966.4044, 6694.206
966.8865, 6698.572
967.3687, 6702.867
967.8508, 6697.859
968.3329, 6688.107
968.8150, 6686.222
969.2971, 6693.976
969.7792, 6702.845
970.2614, 6712.483
970.7435, 6719.417
971.2256, 6714.784
971.7077, 6704.618
972.1898, 6701.426
972.6719, 6710.887
973.1541, 6720.443
973.6362, 6726.633
974.1183, 6730.224
974.6004, 6731.854
975.0825, 6731.500
975.5646, 6728.472
976.0468, 6722.316
976.5289, 6717.707
977.0110, 6720.712
977.4931, 6725.941
977.9752, 6723.819
978.4573, 6715.756
978.9395, 6714.672
979.4216, 6739.066
979.9037, 6753.686
980.3858, 6746.199
980.8679, 6723.587
981.3500, 6701.553
981.8322, 6681.023
982.3143, 6679.395
982.7964, 6712.921
983.2785, 6746.478
983.7606, 6740.317
984.2427, 6713.646
984.7249, 6693.118
985.2070, 6679.906
985.6891, 6683.210
986.1712, 6711.319
986.6533, 6742.135
987.1354, 6752.650
987.6176, 6746.861
988.0997, 6746.009
988.5818, 6751.242
989.0639, 6750.146
989.5460, 6720.806
990.0281, 6693.516
990.5103, 6691.928
990.9924, 6716.044
991.4745, 6736.049
991.9566, 6751.505
992.4387, 6765.083
992.9208, 6779.538
993.4029, 6790.623
993.8850, 6784.933
994.3671, 6768.632
994.8492, 6758.271
995.3314, 6764.022
995.8135, 6771.126
996.2956, 6778.503
996.7777, 6782.260
997.2598, 6776.215
997.7419, 6758.159
998.2241, 6746.728
998.7062, 6743.573
999.1883, 6744.807
999.6704, 6746.979
1000.153, 6751.384
1000.635, 6760.455
1001.117, 6774.354
1001.599, 6788.446
1002.081, 6806.672
1002.563, 6817.792
1003.045, 6815.068
1003.527, 6803.112
1004.009, 6803.021
1004.492, 6812.763
1004.974, 6815.863
1005.456, 6797.704
1005.938, 6781.306
1006.420, 6785.499
1006.902, 6801.941
1007.384, 6817.783
1007.866, 6834.224
1008.349, 6842.900
1008.831, 6840.189
1009.313, 6838.104
1009.795, 6856.224
1010.277, 6883.745
1010.759, 6891.336
1011.241, 6876.482
1011.723, 6861.982
1012.205, 6865.992
1012.688, 6866.722
1013.170, 6848.528
1013.652, 6816.157
1014.134, 6796.586
1014.616, 6789.982
1015.098, 6797.925
1015.580, 6830.869
1016.062, 6863.604
1016.544, 6857.389
1017.027, 6829.852
1017.509, 6811.358
1017.991, 6815.652
1018.473, 6822.881
1018.955, 6830.845
1019.437, 6842.059
1019.919, 6863.812
1020.401, 6892.753
1020.884, 6903.561
1021.366, 6894.814
1021.848, 6885.121
1022.330, 6889.614
1022.812, 6895.863
1023.294, 6895.086
1023.776, 6887.453
1024.258, 6879.799
1024.740, 6871.013
1025.223, 6867.996
1025.705, 6876.297
1026.187, 6885.913
1026.669, 6875.227
1027.151, 6853.594
1027.633, 6841.179
1028.115, 6849.151
1028.597, 6856.832
1029.079, 6858.463
1029.562, 6858.320
1030.044, 6858.559
1030.526, 6859.125
1031.008, 6867.210
1031.490, 6882.951
1031.972, 6895.461
1032.454, 6893.921
1032.936, 6888.348
1033.419, 6884.074
1033.901, 6882.577
1034.383, 6891.168
1034.865, 6918.415
1035.347, 6935.734
1035.829, 6935.867
1036.311, 6923.958
1036.793, 6904.389
1037.276, 6880.241
1037.758, 6857.100
1038.240, 6831.429
1038.722, 6823.237
1039.204, 6864.355
1039.686, 6905.779
1040.168, 6909.454
1040.650, 6873.751
1041.132, 6867.048
1041.615, 6889.904
1042.097, 6910.085
1042.579, 6899.598
1043.061, 6883.092
1043.543, 6887.728
1044.025, 6906.113
1044.507, 6915.224
1044.989, 6903.254
1045.471, 6899.097
1045.954, 6910.631
1046.436, 6922.735
1046.918, 6905.990
1047.400, 6873.574
1047.882, 6865.410
1048.364, 6889.546
1048.846, 6911.252
1049.328, 6911.199
1049.811, 6904.501
1050.293, 6899.112
1050.775, 6895.114
1051.257, 6892.932
1051.739, 6892.650
1052.221, 6889.900
1052.703, 6878.854
1053.185, 6869.817
1053.667, 6875.619
1054.150, 6890.451
1054.632, 6904.463
1055.114, 6914.365
1055.596, 6927.424
1056.078, 6949.460
1056.560, 6962.453
1057.042, 6939.875
1057.524, 6895.688
1058.006, 6863.869
1058.489, 6847.110
1058.971, 6852.776
1059.453, 6914.934
1059.935, 6967.254
1060.417, 6978.413
1060.899, 6960.408
1061.381, 6943.498
1061.863, 6927.945
1062.346, 6918.221
1062.828, 6917.101
1063.310, 6916.678
1063.792, 6901.077
1064.274, 6886.294
1064.756, 6893.784
1065.238, 6939.836
1065.720, 6960.631
1066.203, 6949.221
1066.685, 6933.082
1067.167, 6927.011
1067.649, 6929.020
1068.131, 6941.182
1068.613, 6958.359
1069.095, 6963.283
1069.577, 6933.859
1070.059, 6910.477
1070.542, 6906.278
1071.024, 6909.770
1071.506, 6905.289
1071.988, 6893.651
1072.470, 6889.667
1072.952, 6895.128
1073.434, 6902.520
1073.916, 6903.370
1074.398, 6905.896
1074.881, 6922.057
1075.363, 6949.801
1075.845, 6953.497
1076.327, 6925.562
1076.809, 6905.983
1077.291, 6908.611
1077.773, 6922.758
1078.255, 6944.266
1078.738, 6962.194
1079.220, 6953.646
1079.702, 6889.499
1080.184, 6860.677
1080.666, 6892.701
1081.148, 6935.938
1081.630, 6963.837
1082.112, 6974.964
1082.594, 6950.243
1083.077, 6896.320
1083.559, 6855.343
1084.041, 6861.702
1084.523, 6874.730
1085.005, 6871.817
1085.487, 6865.501
1085.969, 6880.815
1086.451, 6922.142
1086.933, 6936.953
1087.416, 6916.213
1087.898, 6893.747
1088.380, 6911.078
1088.862, 6935.213
1089.344, 6921.439
1089.826, 6868.903
1090.308, 6869.842
1090.790, 6959.704
1091.272, 7015.865
1091.755, 6989.892
1092.237, 6928.847
1092.719, 6915.691
1093.201, 6933.118
1093.683, 6945.560
1094.165, 6944.366
1094.647, 6935.260
1095.129, 6908.954
1095.612, 6888.104
1096.094, 6889.306
1096.576, 6909.535
1097.058, 6927.460
1097.540, 6941.933
1098.022, 6944.128
1098.504, 6905.026
1098.986, 6878.640
1099.469, 6910.205
1099.951, 6965.562
1100.433, 6986.317
1100.915, 6966.443
1101.397, 6955.972
1101.879, 6959.592
1102.361, 6968.227
1102.843, 6977.117
1103.325, 6984.457
1103.807, 6987.230
1104.290, 6985.888
1104.772, 6988.727
1105.254, 7002.380
1105.736, 7003.427
1106.218, 6982.365
1106.700, 6953.657
1107.182, 6937.485
1107.664, 6931.326
1108.147, 6932.046
1108.629, 6941.812
1109.111, 6945.394
1109.593, 6936.191
1110.075, 6922.771
1110.557, 6902.381
1111.039, 6882.415
1111.521, 6907.162
1112.004, 6965.452
1112.486, 7003.166
1112.968, 6982.749
1113.450, 6955.533
1113.932, 6938.971
1114.414, 6931.944
1114.896, 6936.812
1115.378, 6955.850
1115.860, 6953.667
1116.343, 6928.521
1116.825, 6913.387
1117.307, 6951.317
1117.789, 6992.208
1118.271, 6988.101
1118.753, 6952.097
1119.235, 6936.297
1119.717, 6947.886
1120.199, 6960.521
1120.682, 6971.698
1121.164, 6977.518
1121.646, 6967.375
1122.128, 6952.530
1122.610, 6948.889
1123.092, 6958.660
1123.574, 6967.642
1124.056, 6971.827
1124.539, 6980.091
1125.021, 6999.509
1125.503, 7019.226
1125.985, 7015.103
1126.467, 6993.096
1126.949, 6963.063
1127.431, 6915.186
1127.913, 6897.808
1128.396, 6962.193
1128.878, 7020.860
1129.360, 7016.648
1129.842, 6961.927
1130.324, 6933.680
1130.806, 6929.955
1131.288, 6939.342
1131.770, 6973.325
1132.252, 6998.432
1132.734, 6992.476
1133.217, 6973.271
1133.699, 6959.087
1134.181, 6949.459
1134.663, 6954.792
1135.145, 6975.877
1135.627, 7000.665
1136.109, 7030.080
1136.591, 7051.411
1137.074, 7050.797
1137.556, 7033.057
1138.038, 7016.989
1138.520, 7001.951
1139.002, 6992.959
1139.484, 6991.937
1139.966, 6992.202
1140.448, 6983.292
1140.931, 6973.654
1141.413, 6974.700
1141.895, 6987.601
1142.377, 6997.546
1142.859, 7002.635
1143.341, 7008.094
1143.823, 7018.344
1144.305, 7024.289
1144.787, 6997.888
1145.270, 6959.926
1145.752, 6952.080
1146.234, 6994.003
1146.716, 7024.305
1147.198, 7029.334
1147.680, 7029.479
1148.162, 7033.828
1148.644, 7041.689
1149.126, 7058.480
1149.609, 7077.388
1150.091, 7075.927
1150.573, 7021.455
1151.055, 6985.280
1151.537, 6995.613
1152.019, 7019.658
1152.501, 7035.170
1152.983, 7042.182
1153.466, 7040.210
1153.948, 7029.642
1154.430, 7013.277
1154.912, 6980.351
1155.394, 6956.088
1155.876, 6956.220
1156.358, 6969.101
1156.840, 6983.555
1157.322, 6999.531
1157.805, 7001.829
1158.287, 6989.165
1158.769, 6978.494
1159.251, 6984.079
1159.733, 6994.411
1160.215, 7003.471
1160.697, 7010.659
1161.179, 7014.877
1161.661, 7016.137
1162.144, 7015.293
1162.626, 7013.047
1163.108, 7005.482
1163.590, 6975.910
1164.072, 6948.599
1164.554, 6955.367
1165.036, 6995.158
1165.518, 7003.588
1166.000, 6973.679
1166.483, 6954.198
1166.965, 6963.444
1167.447, 6982.109
1167.929, 6990.657
1168.411, 6992.365
1168.893, 6990.573
1169.375, 6984.082
1169.857, 6983.113
1170.340, 6990.191
1170.822, 6992.536
1171.304, 6978.978
1171.786, 6962.768
1172.268, 6967.021
1172.750, 6982.807
1173.232, 6994.063
1173.714, 6988.290
1174.197, 6998.305
1174.679, 7034.518
1175.161, 7059.481
1175.643, 7033.617
1176.125, 6983.284
1176.607, 6959.215
1177.089, 6955.912
1177.571, 6957.331
1178.053, 6961.810
1178.536, 6965.694
1179.018, 6969.042
1179.500, 6970.979
1179.982, 6970.351
1180.464, 6967.747
1180.946, 6966.165
1181.428, 6964.606
1181.910, 6956.557
1182.392, 6923.345
1182.875, 6907.578
1183.357, 6923.675
1183.839, 6949.212
1184.321, 6952.771
1184.803, 6940.459
1185.285, 6925.519
1185.767, 6909.991
1186.249, 6908.125
1186.732, 6944.547
1187.214, 6972.630
1187.696, 6977.813
1188.178, 6967.556
1188.660, 6950.690
1189.142, 6931.354
1189.624, 6925.942
1190.106, 6938.877
1190.589, 6950.058
1191.071, 6945.951
1191.553, 6943.376
1192.035, 6952.299
1192.517, 6966.014
1192.999, 6960.715
1193.481, 6941.036
1193.963, 6927.432
1194.445, 6927.444
1194.927, 6925.608
1195.410, 6902.146
1195.892, 6888.184
1196.374, 6906.156
1196.856, 6947.381
1197.338, 6969.709
1197.820, 6974.648
1198.302, 6969.750
1198.784, 6952.832
1199.267, 6937.042
1199.749, 6931.524
1200.231, 6927.261
1200.713, 6916.898
1201.195, 6901.400
1201.677, 6889.998
1202.159, 6882.873
1202.641, 6881.753
1203.124, 6891.122
1203.606, 6901.816
1204.088, 6911.132
1204.570, 6918.686
1205.052, 6925.366
1205.534, 6931.031
1206.016, 6925.677
1206.498, 6910.292
1206.980, 6895.445
1207.463, 6887.611
1207.945, 6881.116
1208.427, 6871.901
1208.909, 6863.582
1209.391, 6859.026
1209.873, 6858.464
1210.355, 6871.748
1210.837, 6897.864
1211.319, 6914.965
1211.802, 6904.061
1212.284, 6885.715
1212.766, 6861.484
1213.248, 6841.103
1213.730, 6841.824
1214.212, 6862.240
1214.694, 6880.145
1215.176, 6893.590
1215.659, 6897.373
1216.141, 6880.974
1216.623, 6861.771
1217.105, 6843.428
1217.587, 6830.999
1218.069, 6839.012
1218.551, 6864.916
1219.033, 6884.738
1219.516, 6895.172
1219.998, 6891.973
1220.480, 6845.015
1220.962, 6814.082
1221.444, 6846.188
1221.926, 6908.490
1222.408, 6908.640
1222.890, 6855.975
1223.372, 6837.275
1223.854, 6873.247
1224.337, 6899.873
1224.819, 6856.526
1225.301, 6814.230
1225.783, 6814.499
1226.265, 6843.635
1226.747, 6857.910
1227.229, 6859.334
1227.711, 6857.974
1228.193, 6855.242
1228.676, 6855.501
1229.158, 6870.242
1229.640, 6878.397
1230.122, 6864.846
1230.604, 6837.677
1231.086, 6825.192
1231.568, 6826.688
1232.050, 6843.312
1232.533, 6884.970
1233.015, 6907.277
1233.497, 6862.184
1233.979, 6819.610
1234.461, 6822.192
1234.943, 6855.819
1235.425, 6859.640
1235.907, 6842.030
1236.390, 6836.896
1236.872, 6863.180
1237.354, 6883.580
1237.836, 6878.917
1238.318, 6870.232
1238.800, 6871.003
1239.282, 6876.021
1239.764, 6858.591
1240.246, 6826.997
1240.729, 6808.682
1241.211, 6818.198
1241.693, 6834.851
1242.175, 6866.259
1242.657, 6884.288
1243.139, 6861.171
1243.621, 6813.508
1244.103, 6797.519
1244.585, 6806.373
1245.068, 6820.344
1245.550, 6841.155
1246.032, 6850.120
1246.514, 6842.049
1246.996, 6829.179
1247.478, 6818.920
1247.960, 6810.928
1248.442, 6803.634
1248.925, 6797.798
1249.407, 6795.768
1249.889, 6813.072
1250.371, 6805.951
1250.853, 6758.294
1251.335, 6721.396
1251.817, 6752.526
1252.299, 6813.633
1252.781, 6835.975
1253.264, 6827.521
1253.746, 6811.079
1254.228, 6777.651
1254.710, 6767.106
1255.192, 6786.813
1255.674, 6807.026
1256.156, 6795.604
1256.638, 6774.462
1257.120, 6776.936
1257.603, 6794.578
1258.085, 6801.495
1258.567, 6788.165
1259.049, 6783.465
1259.531, 6790.014
1260.013, 6798.203
1260.495, 6797.057
1260.977, 6796.030
1261.460, 6810.682
1261.942, 6832.492
1262.424, 6838.158
1262.906, 6824.561
1263.388, 6803.191
1263.870, 6773.308
1264.352, 6755.932
1264.834, 6778.298
1265.317, 6810.093
1265.799, 6834.720
1266.281, 6847.328
1266.763, 6835.884
1267.245, 6797.182
1267.727, 6786.375
1268.209, 6807.682
1268.691, 6824.850
1269.173, 6797.549
1269.656, 6773.158
1270.138, 6791.967
1270.620, 6826.203
1271.102, 6831.194
1271.584, 6809.891
1272.066, 6799.981
1272.548, 6804.451
1273.030, 6817.807
1273.512, 6856.612
1273.995, 6878.176
1274.477, 6861.808
1274.959, 6826.190
1275.441, 6789.807
1275.923, 6757.099
1276.405, 6751.643
1276.887, 6773.292
1277.369, 6798.997
1277.852, 6829.944
1278.334, 6846.930
1278.816, 6843.288
1279.298, 6829.750
1279.780, 6817.771
1280.262, 6807.748
1280.744, 6802.426
1281.226, 6801.095
1281.708, 6796.745
1282.191, 6773.433
1282.673, 6775.811
1283.155, 6816.930
1283.637, 6866.833
1284.119, 6897.826
1284.601, 6910.491
1285.083, 6898.613
1285.565, 6866.853
1286.047, 6846.394
1286.530, 6842.900
1287.012, 6839.622
1287.494, 6834.816
1287.976, 6826.647
1288.458, 6814.583
1288.940, 6797.201
1289.422, 6758.007
1289.904, 6712.664
1290.386, 6726.083
1290.869, 6807.534
1291.351, 6853.199
1291.833, 6848.085
1292.315, 6829.844
1292.797, 6818.688
1293.279, 6814.094
1293.761, 6818.301
1294.243, 6827.944
1294.726, 6840.465
1295.208, 6854.833
1295.690, 6855.818
1296.172, 6842.218
1296.654, 6831.824
1297.136, 6849.097
1297.618, 6852.471
1298.100, 6818.562
1298.583, 6775.215
1299.065, 6770.056
1299.547, 6791.755
1300.029, 6809.636
1300.511, 6820.457
1300.993, 6822.949
1301.475, 6806.855
1301.957, 6796.483
1302.439, 6796.993
1302.922, 6801.391
1303.404, 6798.341
1303.886, 6794.547
1304.368, 6804.681
1304.850, 6826.452
1305.332, 6837.173
1305.814, 6831.462
1306.296, 6824.392
1306.778, 6817.038
1307.261, 6813.549
1307.743, 6821.918
1308.225, 6832.732
1308.707, 6838.290
1309.189, 6838.021
1309.671, 6833.230
1310.153, 6823.746
1310.635, 6809.119
1311.118, 6788.853
1311.600, 6780.940
1312.082, 6817.207
1312.564, 6849.809
1313.046, 6843.582
1313.528, 6820.490
1314.010, 6800.671
1314.492, 6789.799
1314.974, 6843.677
##END=



