##NAMES=Chabazite-Ca
##RRUFFID=R050075
##IDEAL CHEMISTRY=Ca_2_Al_4_Si_8_O_24_&#183;13H_2_O
##LOCALITY=Victoria, Australia
##OWNER=RRUFF
##SOURCE=Rock Currier
##DESCRIPTION=White pseudohexagonal crystals
##STATUS=The identification of this mineral has been confirmed by X-ray diffraction and chemical analysis
##URL=rruff.info/R050075
##MEASURED CHEMISTRY=(Ca_0.79_Na_0.22_K_0.14_)_Σ=1.15_(Si_4.08_Al_1.92_)O_12_·6H_2_O
137.6089, 3140.345
138.0910, 3192.348
138.5731, 3233.955
139.0553, 3263.645
139.5374, 3293.809
140.0195, 3329.644
140.5016, 3365.682
140.9837, 3376.385
141.4658, 3349.296
141.9480, 3316.635
142.4301, 3301.483
142.9122, 3314.158
143.3943, 3321.818
143.8764, 3315.280
144.3585, 3295.232
144.8407, 3296.102
145.3228, 3334.241
145.8049, 3380.882
146.2870, 3408.133
146.7691, 3395.530
147.2512, 3389.978
147.7334, 3402.379
148.2155, 3438.268
148.6976, 3467.696
149.1797, 3480.986
149.6618, 3490.668
150.1439, 3513.080
150.6261, 3566.868
151.1082, 3616.393
151.5903, 3651.171
152.0724, 3663.493
152.5545, 3677.687
153.0366, 3699.481
153.5188, 3724.049
154.0009, 3741.825
154.4830, 3746.242
154.9651, 3747.642
155.4472, 3751.137
155.9293, 3763.319
156.4115, 3768.815
156.8936, 3761.563
157.3757, 3744.478
157.8578, 3727.665
158.3399, 3711.316
158.8221, 3697.758
159.3042, 3688.399
159.7863, 3694.543
160.2684, 3694.223
160.7505, 3673.614
161.2326, 3635.843
161.7148, 3606.562
162.1969, 3601.231
162.6790, 3607.752
163.1611, 3614.447
163.6432, 3617.594
164.1253, 3619.855
164.6075, 3622.610
165.0896, 3625.908
165.5717, 3628.981
166.0538, 3632.805
166.5359, 3635.883
167.0180, 3636.123
167.5002, 3628.078
167.9823, 3619.737
168.4644, 3618.020
168.9465, 3624.212
169.4286, 3631.620
169.9107, 3637.959
170.3929, 3642.001
170.8750, 3641.306
171.3571, 3632.442
171.8392, 3619.152
172.3213, 3604.412
172.8034, 3587.772
173.2856, 3572.901
173.7677, 3564.111
174.2498, 3560.252
174.7319, 3557.504
175.2140, 3555.082
175.6961, 3551.961
176.1783, 3547.472
176.6604, 3543.518
177.1425, 3534.613
177.6246, 3509.508
178.1067, 3470.752
178.5888, 3433.187
179.0710, 3409.282
179.5531, 3394.948
180.0352, 3382.033
180.5173, 3369.617
180.9994, 3356.811
181.4815, 3341.132
181.9637, 3322.592
182.4458, 3305.952
182.9279, 3296.550
183.4100, 3292.704
183.8921, 3287.992
184.3742, 3280.952
184.8564, 3271.693
185.3385, 3260.411
185.8206, 3246.939
186.3027, 3232.272
186.7848, 3218.107
187.2669, 3204.035
187.7491, 3186.407
188.2312, 3161.067
188.7133, 3131.156
189.1954, 3107.928
189.6775, 3092.030
190.1596, 3080.668
190.6418, 3072.852
191.1239, 3068.424
191.6060, 3060.018
192.0881, 3042.059
192.5702, 3016.013
193.0524, 2995.972
193.5345, 2983.756
194.0166, 2972.952
194.4987, 2952.043
194.9808, 2920.210
195.4629, 2890.515
195.9451, 2870.235
196.4272, 2858.924
196.9093, 2848.015
197.3914, 2837.624
197.8735, 2827.027
198.3556, 2815.320
198.8378, 2802.777
199.3199, 2787.740
199.8020, 2768.363
200.2841, 2744.441
200.7662, 2722.085
201.2483, 2702.284
201.7305, 2683.660
202.2126, 2661.352
202.6947, 2633.440
203.1768, 2609.018
203.6589, 2594.290
204.1410, 2590.498
204.6232, 2589.421
205.1053, 2592.911
205.5874, 2597.547
206.0695, 2590.338
206.5516, 2567.716
207.0337, 2542.612
207.5159, 2524.230
207.9980, 2514.699
208.4801, 2502.986
208.9622, 2486.130
209.4443, 2466.108
209.9264, 2453.709
210.4086, 2452.027
210.8907, 2451.732
211.3728, 2446.079
211.8549, 2434.556
212.3370, 2418.822
212.8191, 2397.002
213.3013, 2370.478
213.7834, 2349.081
214.2655, 2332.995
214.7476, 2321.713
215.2297, 2316.433
215.7118, 2320.793
216.1940, 2320.739
216.6761, 2312.767
217.1582, 2297.257
217.6403, 2283.102
218.1224, 2270.948
218.6045, 2259.502
219.0867, 2247.201
219.5688, 2232.918
220.0509, 2220.753
220.5330, 2212.486
221.0151, 2208.123
221.4972, 2201.791
221.9794, 2191.781
222.4615, 2181.648
222.9436, 2175.794
223.4257, 2177.709
223.9078, 2176.475
224.3899, 2168.269
224.8721, 2152.080
225.3542, 2141.495
225.8363, 2140.469
226.3184, 2141.219
226.8005, 2133.507
227.2827, 2111.586
227.7648, 2092.175
228.2469, 2078.943
228.7290, 2072.004
229.2111, 2071.181
229.6932, 2080.485
230.1754, 2092.661
230.6575, 2097.356
231.1396, 2088.126
231.6217, 2083.100
232.1038, 2090.961
232.5859, 2117.601
233.0681, 2123.801
233.5502, 2098.411
234.0323, 2060.658
234.5144, 2037.967
234.9965, 2035.478
235.4786, 2040.041
235.9608, 2051.007
236.4429, 2072.680
236.9250, 2079.086
237.4071, 2061.212
237.8892, 2033.598
238.3713, 2020.015
238.8535, 2028.711
239.3356, 2037.665
239.8177, 2039.824
240.2998, 2033.413
240.7819, 2026.688
241.2640, 2018.209
241.7462, 2010.142
242.2283, 2006.347
242.7104, 2008.539
243.1925, 2012.207
243.6746, 2016.081
244.1567, 2020.340
244.6389, 2024.412
245.1210, 2029.102
245.6031, 2033.132
246.0852, 2034.417
246.5673, 2033.502
247.0494, 2028.791
247.5316, 2017.671
248.0137, 1994.956
248.4958, 1984.141
248.9779, 1990.385
249.4600, 2005.714
249.9421, 2015.367
250.4243, 2017.714
250.9064, 2017.413
251.3885, 2015.346
251.8706, 2009.875
252.3527, 2008.661
252.8348, 2014.557
253.3170, 2022.940
253.7991, 2024.519
254.2812, 2016.276
254.7633, 2006.957
255.2454, 1999.080
255.7275, 1991.901
256.2097, 1989.484
256.6918, 1993.323
257.1739, 2000.920
257.6560, 2008.399
258.1381, 2017.281
258.6202, 2022.897
259.1024, 2023.079
259.5845, 2016.688
260.0666, 2008.620
260.5487, 1995.221
261.0308, 1982.964
261.5129, 1985.260
261.9951, 2008.291
262.4772, 2031.099
262.9593, 2045.660
263.4414, 2051.156
263.9235, 2052.362
264.4056, 2047.841
264.8878, 2040.371
265.3699, 2034.297
265.8520, 2029.238
266.3341, 2026.511
266.8162, 2026.495
267.2983, 2029.144
267.7805, 2036.083
268.2626, 2050.718
268.7447, 2065.762
269.2268, 2066.379
269.7089, 2048.032
270.1910, 2031.512
270.6732, 2024.113
271.1553, 2026.229
271.6374, 2036.526
272.1195, 2059.261
272.6016, 2083.955
273.0837, 2090.409
273.5659, 2074.787
274.0480, 2060.785
274.5301, 2057.762
275.0122, 2066.094
275.4943, 2076.331
275.9764, 2089.268
276.4586, 2102.615
276.9407, 2114.121
277.4228, 2124.065
277.9049, 2128.672
278.3870, 2123.192
278.8691, 2108.385
279.3513, 2102.459
279.8334, 2106.784
280.3155, 2116.467
280.7976, 2127.202
281.2798, 2139.155
281.7619, 2146.126
282.2440, 2142.883
282.7261, 2131.363
283.2082, 2126.489
283.6903, 2128.861
284.1725, 2135.669
284.6546, 2146.330
285.1367, 2160.427
285.6188, 2168.892
286.1009, 2162.804
286.5830, 2147.922
287.0652, 2151.657
287.5473, 2176.102
288.0294, 2206.426
288.5115, 2228.667
288.9936, 2243.068
289.4757, 2250.847
289.9579, 2249.977
290.4400, 2243.460
290.9221, 2239.217
291.4042, 2237.310
291.8863, 2236.893
292.3684, 2238.383
292.8506, 2241.051
293.3327, 2241.483
293.8148, 2236.059
294.2969, 2229.201
294.7790, 2231.761
295.2611, 2243.775
295.7433, 2254.665
296.2254, 2252.276
296.7075, 2241.164
297.1896, 2234.408
297.6717, 2237.587
298.1538, 2245.318
298.6360, 2250.781
299.1181, 2253.966
299.6002, 2254.173
300.0823, 2247.240
300.5644, 2237.360
301.0465, 2232.798
301.5287, 2238.034
302.0108, 2246.541
302.4929, 2251.754
302.9750, 2253.945
303.4571, 2254.366
303.9392, 2251.590
304.4214, 2248.256
304.9035, 2248.601
305.3856, 2256.510
305.8677, 2263.682
306.3498, 2260.154
306.8319, 2248.907
307.3141, 2240.393
307.7962, 2240.653
308.2783, 2246.782
308.7604, 2257.133
309.2425, 2273.924
309.7246, 2288.837
310.2068, 2295.557
310.6889, 2296.144
311.1710, 2296.064
311.6531, 2298.059
312.1352, 2300.340
312.6173, 2300.183
313.0995, 2294.329
313.5816, 2294.349
314.0637, 2311.588
314.5458, 2338.155
315.0279, 2359.319
315.5100, 2369.826
315.9922, 2373.149
316.4743, 2367.731
316.9564, 2349.193
317.4385, 2339.438
317.9206, 2354.365
318.4027, 2380.433
318.8849, 2398.724
319.3670, 2394.007
319.8491, 2389.583
320.3312, 2395.302
320.8133, 2413.897
321.2954, 2430.498
321.7776, 2442.888
322.2597, 2451.743
322.7418, 2457.783
323.2239, 2456.934
323.7060, 2457.449
324.1881, 2462.613
324.6703, 2473.151
325.1524, 2480.075
325.6345, 2482.340
326.1166, 2480.897
326.5987, 2476.396
327.0808, 2458.039
327.5630, 2449.463
328.0451, 2458.615
328.5272, 2484.299
329.0093, 2500.328
329.4914, 2501.196
329.9735, 2497.104
330.4557, 2494.548
330.9378, 2495.340
331.4199, 2494.509
331.9020, 2491.529
332.3841, 2486.605
332.8662, 2480.140
333.3484, 2469.674
333.8305, 2461.495
334.3126, 2460.760
334.7947, 2472.761
335.2768, 2475.380
335.7589, 2464.825
336.2411, 2445.774
336.7232, 2428.563
337.2053, 2412.359
337.6874, 2400.824
338.1695, 2398.876
338.6516, 2408.871
339.1338, 2406.175
339.6159, 2386.294
340.0980, 2360.144
340.5801, 2348.797
341.0622, 2354.076
341.5443, 2355.955
342.0265, 2343.367
342.5086, 2318.456
342.9907, 2300.793
343.4728, 2291.494
343.9549, 2285.673
344.4370, 2277.352
344.9192, 2266.955
345.4013, 2258.235
345.8834, 2253.538
346.3655, 2251.292
346.8476, 2248.070
347.3297, 2243.922
347.8119, 2238.061
348.2940, 2230.445
348.7761, 2220.605
349.2582, 2206.840
349.7403, 2185.238
350.2225, 2162.671
350.7046, 2150.891
351.1867, 2148.479
351.6688, 2145.321
352.1509, 2130.989
352.6331, 2112.035
353.1152, 2098.760
353.5973, 2095.405
354.0794, 2094.573
354.5615, 2088.337
355.0436, 2078.906
355.5258, 2072.997
356.0079, 2079.592
356.4900, 2088.391
356.9721, 2089.763
357.4542, 2080.477
357.9363, 2069.723
358.4185, 2061.980
358.9006, 2056.327
359.3827, 2051.175
359.8648, 2047.121
360.3469, 2042.441
360.8290, 2036.184
361.3112, 2028.135
361.7933, 2019.288
362.2754, 2004.322
362.7575, 1990.742
363.2396, 1986.690
363.7217, 2005.576
364.2039, 2022.665
364.6860, 2031.501
365.1681, 2031.864
365.6502, 2029.716
366.1323, 2024.927
366.6144, 2018.348
367.0966, 2010.481
367.5787, 1996.180
368.0608, 1987.051
368.5429, 1984.694
369.0250, 1988.376
369.5071, 1994.911
369.9893, 2010.030
370.4714, 2021.346
370.9535, 2022.404
371.4356, 2009.173
371.9177, 1994.198
372.3998, 1974.628
372.8820, 1954.871
373.3641, 1945.687
373.8462, 1950.052
374.3283, 1957.253
374.8104, 1962.666
375.2925, 1965.845
375.7747, 1974.643
376.2568, 1992.082
376.7389, 2009.301
377.2210, 2012.752
377.7031, 2001.543
378.1852, 1989.265
378.6674, 1978.794
379.1495, 1970.630
379.6316, 1967.307
380.1137, 1969.198
380.5958, 1972.793
381.0779, 1975.282
381.5601, 1976.802
382.0422, 1977.587
382.5243, 1976.835
383.0064, 1976.510
383.4885, 1981.008
383.9706, 1989.706
384.4528, 1997.702
384.9349, 2001.921
385.4170, 2003.245
385.8991, 2001.853
386.3812, 1995.931
386.8633, 1993.298
387.3455, 2007.281
387.8276, 2030.397
388.3097, 2045.714
388.7918, 2037.320
389.2739, 2022.216
389.7560, 2014.090
390.2382, 2014.477
390.7203, 2016.007
391.2024, 2012.170
391.6845, 2008.138
392.1666, 2009.860
392.6487, 2029.422
393.1309, 2045.650
393.6130, 2048.585
394.0951, 2039.149
394.5772, 2029.053
395.0593, 2016.515
395.5414, 2007.250
396.0236, 2004.995
396.5057, 2020.603
396.9878, 2030.974
397.4699, 2030.655
397.9520, 2023.083
398.4341, 2018.991
398.9163, 2018.038
399.3984, 2020.993
399.8805, 2029.683
400.3626, 2049.053
400.8447, 2058.912
401.3268, 2054.494
401.8090, 2044.072
402.2911, 2039.076
402.7732, 2040.709
403.2553, 2044.813
403.7374, 2050.795
404.2195, 2058.554
404.7017, 2067.259
405.1838, 2078.485
405.6659, 2086.415
406.1480, 2083.557
406.6301, 2069.702
407.1122, 2058.702
407.5944, 2052.591
408.0765, 2051.227
408.5586, 2056.034
409.0407, 2066.909
409.5228, 2077.723
410.0049, 2081.743
410.4871, 2082.415
410.9692, 2090.946
411.4513, 2110.064
411.9334, 2130.727
412.4155, 2142.663
412.8976, 2147.968
413.3798, 2152.329
413.8619, 2153.927
414.3440, 2158.559
414.8261, 2176.670
415.3082, 2208.354
415.7903, 2234.637
416.2725, 2235.652
416.7546, 2227.399
417.2367, 2228.177
417.7188, 2251.308
418.2009, 2276.216
418.6830, 2289.632
419.1652, 2296.018
419.6473, 2311.233
420.1294, 2353.899
420.6115, 2397.094
421.0937, 2425.679
421.5758, 2429.154
422.0579, 2435.135
422.5400, 2446.075
423.0221, 2461.864
423.5042, 2482.688
423.9864, 2512.426
424.4685, 2542.517
424.9506, 2571.042
425.4327, 2597.310
425.9148, 2626.055
426.3969, 2657.116
426.8791, 2690.807
427.3612, 2727.133
427.8433, 2766.161
428.3254, 2807.797
428.8075, 2853.821
429.2896, 2901.640
429.7718, 2939.073
430.2539, 2963.601
430.7360, 2991.326
431.2181, 3035.177
431.7002, 3093.558
432.1823, 3140.939
432.6645, 3173.443
433.1466, 3203.844
433.6287, 3250.158
434.1108, 3309.862
434.5929, 3371.057
435.0750, 3427.333
435.5572, 3482.165
436.0393, 3544.264
436.5214, 3613.117
437.0035, 3678.087
437.4856, 3724.138
437.9677, 3762.512
438.4499, 3808.803
438.9320, 3869.217
439.4141, 3934.634
439.8962, 4000.292
440.3783, 4065.773
440.8604, 4131.957
441.3426, 4195.070
441.8247, 4261.208
442.3068, 4336.090
442.7889, 4423.417
443.2710, 4504.492
443.7531, 4572.376
444.2353, 4632.034
444.7174, 4690.138
445.1995, 4742.082
445.6816, 4797.662
446.1637, 4858.633
446.6458, 4924.325
447.1280, 4994.948
447.6101, 5078.467
448.0922, 5158.413
448.5743, 5223.984
449.0564, 5269.569
449.5385, 5317.576
450.0207, 5369.762
450.5028, 5423.381
450.9849, 5473.159
451.4670, 5518.397
451.9491, 5561.115
452.4312, 5602.667
452.9134, 5642.470
453.3955, 5679.005
453.8776, 5712.898
454.3597, 5738.469
454.8418, 5744.229
455.3239, 5735.101
455.8061, 5730.987
456.2882, 5736.196
456.7703, 5748.674
457.2524, 5768.502
457.7345, 5793.964
458.2166, 5818.574
458.6988, 5841.290
459.1809, 5859.489
459.6630, 5870.780
460.1451, 5875.365
460.6272, 5870.522
461.1093, 5844.076
461.5915, 5810.451
462.0736, 5788.140
462.5557, 5796.833
463.0378, 5804.516
463.5199, 5796.992
464.0020, 5776.417
464.4842, 5759.851
464.9663, 5745.217
465.4484, 5739.829
465.9305, 5748.706
466.4126, 5786.645
466.8947, 5813.069
467.3769, 5823.327
467.8590, 5824.080
468.3411, 5825.627
468.8232, 5826.917
469.3053, 5831.255
469.7874, 5840.356
470.2696, 5853.902
470.7517, 5867.043
471.2338, 5880.918
471.7159, 5890.835
472.1980, 5888.193
472.6801, 5873.527
473.1623, 5870.758
473.6444, 5885.050
474.1265, 5909.011
474.6086, 5935.194
475.0907, 5962.066
475.5728, 5979.710
476.0550, 5981.154
476.5371, 5970.589
477.0192, 5950.378
477.5013, 5920.325
477.9834, 5895.435
478.4655, 5898.591
478.9477, 5910.314
479.4298, 5904.601
479.9119, 5863.270
480.3940, 5815.881
480.8761, 5783.605
481.3582, 5758.412
481.8404, 5717.453
482.3225, 5634.782
482.8046, 5549.938
483.2867, 5486.389
483.7688, 5461.187
484.2509, 5404.843
484.7331, 5281.664
485.2152, 5140.366
485.6973, 5023.739
486.1794, 4944.235
486.6615, 4868.220
487.1436, 4791.796
487.6258, 4714.929
488.1079, 4638.342
488.5900, 4564.658
489.0721, 4485.092
489.5542, 4389.954
490.0363, 4278.580
490.5185, 4184.767
491.0006, 4113.215
491.4827, 4049.053
491.9648, 3973.806
492.4470, 3889.409
492.9291, 3807.416
493.4112, 3733.268
493.8933, 3664.149
494.3754, 3600.320
494.8575, 3540.251
495.3397, 3478.177
495.8218, 3404.203
496.3039, 3328.053
496.7860, 3262.117
497.2681, 3209.305
497.7502, 3158.261
498.2324, 3100.373
498.7145, 3040.968
499.1966, 2986.167
499.6787, 2941.871
500.1608, 2898.955
500.6429, 2858.073
501.1251, 2818.401
501.6072, 2768.724
502.0893, 2691.277
502.5714, 2618.059
503.0535, 2564.761
503.5356, 2540.666
504.0178, 2514.623
504.4999, 2485.774
504.9820, 2455.969
505.4641, 2427.583
505.9462, 2400.966
506.4283, 2374.777
506.9105, 2350.513
507.3926, 2326.152
507.8747, 2290.613
508.3568, 2243.010
508.8389, 2198.214
509.3210, 2166.589
509.8032, 2145.683
510.2853, 2130.202
510.7674, 2121.154
511.2495, 2110.327
511.7316, 2083.823
512.2137, 2049.495
512.6959, 2023.696
513.1780, 2023.100
513.6601, 2024.795
514.1422, 2012.331
514.6243, 1987.613
515.1064, 1964.728
515.5886, 1953.162
516.0707, 1942.275
516.5528, 1924.419
517.0349, 1890.066
517.5170, 1866.353
517.9991, 1866.195
518.4813, 1874.181
518.9634, 1870.567
519.4455, 1847.514
519.9276, 1826.192
520.4097, 1810.301
520.8918, 1799.710
521.3740, 1793.148
521.8561, 1792.450
522.3382, 1789.710
522.8203, 1776.901
523.3024, 1755.101
523.7845, 1742.755
524.2667, 1742.667
524.7488, 1744.991
525.2309, 1737.021
525.7130, 1721.026
526.1951, 1704.766
526.6772, 1687.622
527.1594, 1674.473
527.6415, 1673.961
528.1236, 1683.643
528.6057, 1692.809
529.0878, 1698.464
529.5699, 1699.148
530.0521, 1691.512
530.5342, 1672.246
531.0163, 1657.685
531.4984, 1654.883
531.9805, 1658.509
532.4626, 1662.851
532.9448, 1674.762
533.4269, 1678.003
533.9090, 1667.087
534.3911, 1645.786
534.8732, 1628.688
535.3553, 1614.961
535.8375, 1606.837
536.3196, 1607.841
536.8017, 1618.796
537.2838, 1620.134
537.7659, 1609.531
538.2480, 1597.010
538.7302, 1595.855
539.2123, 1603.829
539.6944, 1604.786
540.1765, 1593.030
540.6586, 1576.793
541.1407, 1567.064
541.6229, 1562.521
542.1050, 1558.224
542.5871, 1550.362
543.0692, 1542.307
543.5513, 1536.562
544.0334, 1533.335
544.5156, 1533.321
544.9977, 1541.807
545.4798, 1550.792
545.9619, 1553.665
546.4440, 1544.296
546.9261, 1536.069
547.4083, 1533.437
547.8904, 1532.498
548.3725, 1525.823
548.8546, 1507.514
549.3367, 1493.232
549.8188, 1488.154
550.3010, 1491.281
550.7831, 1491.035
551.2652, 1487.065
551.7473, 1480.866
552.2294, 1470.904
552.7115, 1458.167
553.1937, 1454.167
553.6758, 1460.884
554.1579, 1471.893
554.6400, 1481.284
555.1221, 1488.749
555.6042, 1493.370
556.0864, 1495.936
556.5685, 1494.476
557.0506, 1483.558
557.5327, 1466.013
558.0148, 1452.562
558.4969, 1451.402
558.9791, 1453.699
559.4612, 1454.706
559.9433, 1454.043
560.4254, 1451.424
560.9075, 1440.397
561.3896, 1431.097
561.8718, 1432.891
562.3539, 1458.436
562.8360, 1473.057
563.3181, 1469.962
563.8002, 1456.340
564.2823, 1450.503
564.7645, 1454.980
565.2466, 1455.827
565.7287, 1444.763
566.2108, 1425.361
566.6929, 1415.962
567.1750, 1416.906
567.6572, 1421.877
568.1393, 1428.297
568.6214, 1434.493
569.1035, 1435.808
569.5856, 1430.167
570.0677, 1425.268
570.5499, 1430.539
571.0320, 1440.120
571.5141, 1444.772
571.9962, 1436.176
572.4783, 1426.932
572.9604, 1421.569
573.4426, 1419.783
573.9247, 1419.482
574.4068, 1421.489
574.8889, 1423.919
575.3710, 1426.215
575.8531, 1428.476
576.3353, 1429.800
576.8174, 1429.535
577.2995, 1429.282
577.7816, 1431.956
578.2637, 1438.322
578.7458, 1438.253
579.2280, 1428.535
579.7101, 1414.969
580.1922, 1407.989
580.6743, 1406.660
581.1564, 1405.695
581.6385, 1401.350
582.1207, 1396.673
582.6028, 1397.310
583.0849, 1402.375
583.5670, 1404.989
584.0491, 1397.200
584.5313, 1387.825
585.0134, 1384.494
585.4955, 1390.804
585.9776, 1395.113
586.4597, 1393.184
586.9418, 1388.251
587.4240, 1384.002
587.9061, 1381.542
588.3882, 1378.138
588.8703, 1372.615
589.3524, 1366.203
589.8345, 1361.333
590.3167, 1356.536
590.7988, 1359.519
591.2809, 1379.865
591.7630, 1411.625
592.2451, 1421.013
592.7272, 1407.428
593.2094, 1386.181
593.6915, 1362.625
594.1736, 1341.963
594.6557, 1336.541
595.1378, 1351.506
595.6199, 1368.623
596.1021, 1377.717
596.5842, 1379.428
597.0663, 1374.641
597.5485, 1352.382
598.0306, 1335.649
598.5127, 1335.203
598.9948, 1347.318
599.4769, 1355.567
599.9590, 1358.798
600.4412, 1358.250
600.9233, 1352.737
601.4054, 1341.570
601.8875, 1337.312
602.3696, 1343.218
602.8517, 1348.099
603.3339, 1339.092
603.8160, 1317.722
604.2981, 1305.755
604.7802, 1306.734
605.2623, 1313.923
605.7444, 1321.258
606.2266, 1328.069
606.7087, 1332.232
607.1908, 1332.310
607.6729, 1330.281
608.1550, 1326.207
608.6371, 1321.071
609.1193, 1317.928
609.6014, 1321.634
610.0835, 1324.527
610.5656, 1321.731
611.0477, 1311.757
611.5298, 1305.837
612.0120, 1307.213
612.4941, 1309.882
612.9762, 1310.132
613.4583, 1307.831
613.9404, 1302.750
614.4225, 1292.929
614.9047, 1283.816
615.3868, 1285.857
615.8689, 1297.932
616.3510, 1304.876
616.8331, 1301.309
617.3152, 1291.638
617.7974, 1278.602
618.2795, 1264.295
618.7616, 1256.076
619.2437, 1264.815
619.7258, 1276.138
620.2079, 1277.968
620.6901, 1269.760
621.1722, 1263.855
621.6543, 1266.354
622.1364, 1271.278
622.6185, 1274.545
623.1006, 1273.762
623.5828, 1276.467
624.0649, 1285.626
624.5470, 1295.549
625.0291, 1299.344
625.5112, 1296.293
625.9933, 1290.313
626.4755, 1280.698
626.9576, 1270.525
627.4397, 1266.915
627.9218, 1269.205
628.4039, 1272.345
628.8860, 1274.680
629.3682, 1276.002
629.8503, 1275.934
630.3324, 1274.532
630.8145, 1272.188
631.2966, 1266.543
631.7787, 1261.861
632.2609, 1261.985
632.7430, 1269.080
633.2251, 1274.314
633.7072, 1275.715
634.1893, 1274.653
634.6714, 1271.783
635.1536, 1264.392
635.6357, 1261.369
636.1178, 1264.275
636.5999, 1270.876
637.0820, 1279.952
637.5641, 1291.900
638.0463, 1293.626
638.5284, 1274.595
639.0105, 1248.254
639.4926, 1243.644
639.9747, 1257.576
640.4568, 1271.549
640.9390, 1273.765
641.4211, 1271.332
641.9032, 1271.168
642.3853, 1273.763
642.8674, 1274.290
643.3495, 1268.814
643.8317, 1261.936
644.3138, 1256.480
644.7959, 1251.128
645.2780, 1251.064
645.7601, 1260.503
646.2422, 1271.527
646.7244, 1273.295
647.2065, 1262.966
647.6886, 1258.849
648.1707, 1266.432
648.6528, 1278.592
649.1349, 1279.454
649.6171, 1270.696
650.0992, 1264.270
650.5813, 1269.219
651.0634, 1277.386
651.5455, 1278.152
652.0276, 1272.732
652.5098, 1267.597
652.9919, 1267.296
653.4740, 1267.507
653.9561, 1264.954
654.4382, 1258.504
654.9203, 1254.388
655.4025, 1255.998
655.8846, 1258.023
656.3667, 1257.027
656.8488, 1252.522
657.3309, 1245.252
657.8130, 1232.629
658.2952, 1221.907
658.7773, 1227.969
659.2594, 1248.822
659.7415, 1258.796
660.2236, 1247.102
660.7057, 1228.307
661.1879, 1223.477
661.6700, 1228.750
662.1521, 1233.465
662.6342, 1232.417
663.1163, 1229.189
663.5984, 1223.645
664.0806, 1216.732
664.5627, 1215.198
665.0448, 1229.554
665.5269, 1241.472
666.0090, 1241.898
666.4911, 1228.657
666.9733, 1219.833
667.4554, 1215.466
667.9375, 1215.439
668.4196, 1222.948
668.9017, 1237.490
669.3839, 1242.075
669.8660, 1234.307
670.3481, 1220.779
670.8302, 1203.627
671.3123, 1186.945
671.7944, 1180.621
672.2766, 1194.440
672.7587, 1208.552
673.2408, 1207.320
673.7229, 1197.411
674.2050, 1191.872
674.6871, 1197.972
675.1693, 1204.952
675.6514, 1211.855
676.1335, 1217.805
676.6156, 1217.514
677.0977, 1208.841
677.5798, 1198.715
678.0620, 1189.056
678.5441, 1180.181
679.0262, 1176.368
679.5083, 1177.735
679.9904, 1181.765
680.4725, 1189.823
680.9547, 1198.159
681.4368, 1198.565
681.9189, 1189.177
682.4010, 1180.687
682.8831, 1179.266
683.3652, 1182.936
683.8474, 1190.280
684.3295, 1207.613
684.8116, 1218.048
685.2937, 1213.912
685.7758, 1203.917
686.2579, 1199.314
686.7401, 1202.096
687.2222, 1205.147
687.7043, 1208.203
688.1864, 1209.847
688.6685, 1205.551
689.1506, 1195.669
689.6328, 1185.836
690.1149, 1176.955
690.5970, 1170.559
691.0791, 1170.140
691.5612, 1174.758
692.0433, 1179.580
692.5255, 1180.942
693.0076, 1182.604
693.4897, 1188.681
693.9718, 1200.262
694.4539, 1205.615
694.9360, 1198.060
695.4182, 1188.632
695.9003, 1182.528
696.3824, 1179.741
696.8645, 1181.722
697.3466, 1190.206
697.8287, 1198.895
698.3109, 1200.129
698.7930, 1195.247
699.2751, 1191.600
699.7572, 1190.913
700.2393, 1190.133
700.7214, 1181.960
701.2036, 1172.371
701.6857, 1171.567
702.1678, 1195.993
702.6499, 1214.855
703.1320, 1209.978
703.6141, 1191.227
704.0963, 1183.937
704.5784, 1199.916
705.0605, 1211.224
705.5426, 1210.955
706.0247, 1201.528
706.5068, 1192.172
706.9890, 1182.203
707.4711, 1177.552
707.9532, 1184.802
708.4353, 1198.885
708.9174, 1207.631
709.3995, 1211.149
709.8817, 1209.884
710.3638, 1200.823
710.8459, 1189.246
711.3280, 1179.055
711.8101, 1170.356
712.2922, 1165.339
712.7744, 1168.522
713.2565, 1172.682
713.7386, 1172.454
714.2207, 1164.012
714.7028, 1161.527
715.1849, 1166.771
715.6671, 1174.860
716.1492, 1181.174
716.6313, 1185.663
717.1134, 1188.437
717.5955, 1189.589
718.0776, 1188.687
718.5598, 1184.642
719.0419, 1178.216
719.5240, 1170.749
720.0061, 1158.937
720.4882, 1150.725
720.9703, 1154.880
721.4525, 1164.910
721.9346, 1165.845
722.4167, 1138.665
722.8988, 1125.312
723.3809, 1140.771
723.8630, 1175.150
724.3452, 1186.854
724.8273, 1173.122
725.3094, 1156.501
725.7915, 1147.761
726.2736, 1143.671
726.7557, 1132.959
727.2379, 1117.216
727.7200, 1108.969
728.2021, 1126.039
728.6842, 1147.125
729.1663, 1154.424
729.6484, 1146.080
730.1306, 1134.912
730.6127, 1116.398
731.0948, 1103.056
731.5769, 1102.828
732.0590, 1120.315
732.5411, 1131.480
733.0233, 1135.005
733.5054, 1135.167
733.9875, 1134.948
734.4696, 1134.557
734.9517, 1135.899
735.4338, 1139.457
735.9160, 1143.106
736.3981, 1145.786
736.8802, 1146.812
737.3623, 1144.762
737.8444, 1136.978
738.3266, 1130.512
738.8087, 1129.464
739.2908, 1130.817
739.7729, 1129.947
740.2551, 1123.054
740.7372, 1120.751
741.2193, 1126.027
741.7014, 1135.033
742.1835, 1139.075
742.6656, 1138.071
743.1478, 1138.677
743.6299, 1144.696
744.1120, 1151.410
744.5941, 1150.048
745.0762, 1142.886
745.5583, 1136.946
746.0405, 1136.425
746.5226, 1137.457
747.0047, 1137.171
747.4868, 1136.235
747.9689, 1139.106
748.4510, 1153.189
748.9332, 1161.941
749.4153, 1157.107
749.8974, 1140.653
750.3795, 1137.438
750.8616, 1149.104
751.3438, 1161.214
751.8259, 1163.502
752.3080, 1159.762
752.7901, 1159.554
753.2722, 1162.865
753.7543, 1165.028
754.2365, 1158.510
754.7186, 1152.607
755.2007, 1156.669
755.6828, 1174.231
756.1649, 1186.666
756.6470, 1189.431
757.1292, 1187.587
757.6113, 1183.079
758.0934, 1174.501
758.5755, 1170.087
759.0576, 1170.645
759.5397, 1172.539
760.0219, 1173.218
760.5040, 1172.166
760.9861, 1165.651
761.4682, 1151.377
761.9503, 1141.560
762.4324, 1150.881
762.9146, 1167.981
763.3967, 1179.548
763.8788, 1180.663
764.3609, 1178.850
764.8430, 1174.151
765.3251, 1167.745
765.8073, 1159.368
766.2894, 1146.269
766.7715, 1143.415
767.2536, 1156.045
767.7357, 1173.846
768.2178, 1179.753
768.7000, 1175.686
769.1821, 1169.346
769.6642, 1162.013
770.1463, 1155.257
770.6284, 1148.544
771.1105, 1143.630
771.5927, 1143.908
772.0748, 1163.201
772.5569, 1172.695
773.0390, 1159.252
773.5211, 1132.729
774.0032, 1117.118
774.4854, 1113.119
774.9675, 1118.387
775.4496, 1136.077
775.9317, 1159.219
776.4138, 1169.693
776.8959, 1169.126
777.3781, 1166.848
777.8602, 1172.080
778.3423, 1174.138
778.8244, 1159.582
779.3065, 1132.781
779.7886, 1112.444
780.2708, 1105.556
780.7529, 1105.106
781.2350, 1110.497
781.7171, 1120.767
782.1992, 1127.230
782.6813, 1129.923
783.1635, 1128.411
783.6456, 1120.828
784.1277, 1109.110
784.6098, 1096.795
785.0919, 1084.658
785.5740, 1079.568
786.0562, 1093.733
786.5383, 1111.129
787.0204, 1118.482
787.5025, 1115.000
787.9846, 1108.172
788.4667, 1096.294
788.9489, 1084.748
789.4310, 1074.977
789.9131, 1066.890
790.3952, 1065.189
790.8773, 1071.570
791.3594, 1076.490
791.8416, 1070.219
792.3237, 1057.313
792.8058, 1050.903
793.2879, 1051.459
793.7700, 1051.162
794.2521, 1042.217
794.7343, 1031.692
795.2164, 1025.889
795.6985, 1026.734
796.1806, 1026.672
796.6627, 1025.526
797.1448, 1022.574
797.6270, 1017.109
798.1091, 1008.867
798.5912, 1000.449
799.0733, 991.9817
799.5554, 982.2916
800.0375, 965.0334
800.5197, 947.1655
801.0018, 945.2755
801.4839, 963.7374
801.9660, 979.9515
802.4481, 978.0958
802.9302, 969.3106
803.4124, 963.0880
803.8945, 963.2973
804.3766, 959.8317
804.8587, 950.1767
805.3408, 940.1701
805.8229, 936.5946
806.3051, 939.3783
806.7872, 935.7347
807.2693, 923.4196
807.7514, 911.6896
808.2335, 912.7290
808.7156, 919.5693
809.1978, 920.9890
809.6799, 912.6642
810.1620, 905.6023
810.6441, 907.4823
811.1262, 911.0025
811.6083, 908.5981
812.0905, 895.5348
812.5726, 887.1661
813.0547, 884.5040
813.5368, 885.3145
814.0189, 887.8845
814.5010, 891.9067
814.9832, 896.0878
815.4653, 900.6456
815.9474, 903.1158
816.4295, 899.1635
816.9116, 892.6769
817.3937, 888.6619
817.8759, 890.1732
818.3580, 890.6307
818.8401, 887.2598
819.3222, 883.2180
819.8043, 881.4441
820.2864, 882.2989
820.7686, 884.3925
821.2507, 888.4390
821.7328, 891.1263
822.2149, 886.7507
822.6970, 877.7033
823.1791, 869.6483
823.6613, 863.6569
824.1434, 859.7585
824.6255, 860.6992
825.1076, 862.5665
825.5897, 861.0038
826.0718, 853.3102
826.5540, 843.9667
827.0361, 828.5734
827.5182, 816.4619
828.0003, 822.5110
828.4824, 846.3715
828.9645, 860.5054
829.4467, 859.0517
829.9288, 854.4816
830.4109, 864.6635
830.8930, 879.9509
831.3751, 884.8657
831.8572, 871.3785
832.3394, 856.3723
832.8215, 841.8327
833.3036, 830.8267
833.7857, 826.7589
834.2678, 832.7044
834.7499, 836.3832
835.2321, 836.1520
835.7142, 835.6284
836.1963, 839.6423
836.6784, 847.2715
837.1605, 855.7761
837.6426, 865.3185
838.1248, 872.2024
838.6069, 874.4012
839.0890, 871.9445
839.5711, 864.2195
840.0532, 844.6649
840.5353, 831.9258
841.0175, 829.5383
841.4996, 831.5839
841.9817, 832.9871
842.4638, 833.8356
842.9459, 831.1962
843.4280, 823.9732
843.9102, 817.5333
844.3923, 819.3492
844.8744, 825.3930
845.3565, 829.1109
845.8386, 828.7490
846.3207, 827.8133
846.8029, 828.5245
847.2850, 828.7198
847.7671, 826.0660
848.2492, 817.6718
848.7313, 814.8884
849.2134, 819.3835
849.6956, 825.2922
850.1777, 826.6786
850.6598, 824.6052
851.1419, 823.2130
851.6240, 823.2161
852.1061, 821.4426
852.5883, 809.9979
853.0704, 798.9908
853.5525, 798.8702
854.0346, 816.2832
854.5167, 828.6807
854.9988, 832.7551
855.4810, 834.2452
855.9631, 838.1796
856.4452, 844.6808
856.9273, 843.5988
857.4094, 834.1459
857.8915, 824.8024
858.3737, 824.5088
858.8558, 828.0547
859.3379, 827.7075
859.8200, 822.0621
860.3021, 820.6355
860.7842, 835.4514
861.2664, 847.9479
861.7485, 845.5541
862.2306, 825.6953
862.7127, 817.6592
863.1948, 822.9590
863.6769, 833.1448
864.1591, 847.7379
864.6412, 861.4993
865.1233, 859.1097
865.6054, 841.3799
866.0875, 825.0510
866.5696, 820.1861
867.0518, 819.7147
867.5339, 819.9952
868.0160, 820.7946
868.4981, 820.4702
868.9802, 817.2346
869.4623, 816.7485
869.9445, 823.3897
870.4266, 834.8629
870.9087, 841.2761
871.3908, 842.7178
871.8729, 839.5662
872.3550, 825.6589
872.8372, 812.4641
873.3193, 810.6893
873.8014, 818.8595
874.2835, 827.4173
874.7656, 839.3669
875.2477, 844.8643
875.7299, 839.2250
876.2120, 825.6887
876.6941, 815.9573
877.1762, 810.0475
877.6583, 807.5833
878.1404, 809.8488
878.6226, 814.0416
879.1047, 817.8763
879.5869, 820.6450
880.0690, 820.6310
880.5511, 810.8452
881.0332, 805.5618
881.5153, 812.1069
881.9974, 824.7969
882.4796, 833.0529
882.9617, 836.8442
883.4438, 835.5815
883.9259, 827.3882
884.4080, 817.6503
884.8901, 816.2113
885.3723, 819.8668
885.8544, 820.5086
886.3365, 809.4146
886.8186, 804.5410
887.3007, 823.8112
887.7828, 849.7844
888.2650, 857.1956
888.7471, 836.8939
889.2292, 821.5101
889.7113, 813.6348
890.1934, 811.3988
890.6755, 815.6775
891.1577, 823.5672
891.6398, 825.0414
892.1219, 816.9686
892.6040, 808.9352
893.0861, 806.7709
893.5682, 808.3436
894.0504, 811.9608
894.5325, 818.3024
895.0146, 824.9231
895.4967, 833.4691
895.9788, 839.2509
896.4609, 835.0873
896.9431, 823.5421
897.4252, 823.5228
897.9073, 836.1777
898.3894, 845.3250
898.8715, 832.0358
899.3536, 814.8168
899.8358, 810.9080
900.3179, 823.2758
900.8000, 831.3670
901.2821, 831.3790
901.7642, 829.2968
902.2463, 827.3153
902.7285, 825.5055
903.2106, 824.3725
903.6927, 823.8845
904.1748, 823.0977
904.6569, 819.8344
905.1390, 817.1765
905.6212, 819.4025
906.1033, 825.2903
906.5854, 829.4689
907.0675, 827.2366
907.5496, 827.2780
908.0317, 833.9578
908.5139, 843.3857
908.9960, 841.4963
909.4781, 828.2309
909.9602, 818.8260
910.4423, 819.3798
910.9244, 825.1786
911.4066, 833.3326
911.8887, 842.0808
912.3708, 848.2819
912.8529, 851.1463
913.3350, 850.6725
913.8171, 844.5236
914.2993, 836.8735
914.7814, 833.9739
915.2635, 836.3622
915.7456, 835.3914
916.2277, 828.7607
916.7098, 823.2626
917.1920, 829.4785
917.6741, 840.8986
918.1562, 847.6901
918.6383, 846.5761
919.1204, 845.2012
919.6025, 846.6863
920.0847, 847.9532
920.5668, 846.6156
921.0489, 842.0679
921.5310, 839.4359
922.0131, 838.9340
922.4952, 838.6238
922.9774, 836.2147
923.4595, 833.3598
923.9416, 832.8508
924.4237, 834.6968
924.9058, 836.4166
925.3879, 837.2621
925.8701, 837.4351
926.3522, 835.9103
926.8343, 833.4276
927.3164, 837.2100
927.7985, 848.1731
928.2806, 857.1672
928.7628, 859.8224
929.2449, 858.1587
929.7270, 852.6836
930.2091, 845.4404
930.6912, 841.8129
931.1733, 847.2747
931.6555, 852.9365
932.1376, 856.2742
932.6197, 858.1114
933.1018, 860.0101
933.5839, 862.2776
934.0660, 862.3880
934.5482, 859.8347
935.0303, 855.1543
935.5124, 845.0146
935.9945, 834.3051
936.4766, 832.5139
936.9587, 845.3445
937.4409, 857.1784
937.9230, 861.3056
938.4051, 863.8990
938.8872, 870.6947
939.3693, 883.7649
939.8514, 888.3223
940.3336, 883.5711
940.8157, 875.7551
941.2978, 867.1688
941.7799, 860.1772
942.2620, 859.6259
942.7441, 865.3243
943.2263, 869.6416
943.7084, 866.2076
944.1905, 864.4996
944.6726, 869.6074
945.1547, 879.8710
945.6368, 884.2277
946.1190, 882.3638
946.6011, 880.3006
947.0832, 879.4534
947.5653, 881.2637
948.0474, 892.4381
948.5295, 907.5010
949.0117, 913.7156
949.4938, 891.7834
949.9759, 880.0520
950.4580, 890.8497
950.9401, 911.2160
951.4222, 922.0911
951.9044, 923.4261
952.3865, 921.4627
952.8686, 916.5098
953.3507, 911.7431
953.8328, 910.2804
954.3149, 911.1465
954.7971, 913.5734
955.2792, 918.1729
955.7613, 921.2177
956.2434, 921.5411
956.7255, 920.9372
957.2076, 920.2394
957.6898, 919.4621
958.1719, 918.6356
958.6540, 917.7856
959.1361, 919.0301
959.6182, 929.3680
960.1003, 938.1406
960.5825, 929.7416
961.0646, 908.4861
961.5467, 901.9806
962.0288, 929.8080
962.5109, 950.2078
962.9930, 951.2916
963.4752, 940.5155
963.9573, 933.3959
964.4394, 930.3486
964.9215, 934.2856
965.4036, 949.1057
965.8857, 965.3282
966.3679, 977.9052
966.8500, 986.2221
967.3321, 989.1967
967.8142, 981.2081
968.2963, 978.6642
968.7784, 984.3010
969.2606, 990.0354
969.7427, 984.7805
970.2248, 972.6608
970.7069, 970.0621
971.1890, 978.1085
971.6711, 985.8809
972.1533, 984.4105
972.6354, 981.7134
973.1175, 982.0579
973.5996, 985.8157
974.0817, 997.3969
974.5638, 1021.885
975.0460, 1035.137
975.5281, 1020.260
976.0102, 994.2853
976.4923, 997.0896
976.9744, 1019.755
977.4565, 1036.085
977.9387, 1027.623
978.4208, 1019.114
978.9029, 1020.313
979.3850, 1025.863
979.8671, 1028.447
980.3492, 1027.300
980.8314, 1027.616
981.3135, 1030.048
981.7956, 1033.629
982.2777, 1038.746
982.7598, 1043.710
983.2419, 1044.036
983.7241, 1037.642
984.2062, 1039.097
984.6883, 1062.968
985.1704, 1085.337
985.6525, 1095.468
986.1346, 1094.371
986.6168, 1090.950
987.0989, 1085.368
987.5810, 1082.726
988.0631, 1086.754
988.5452, 1094.413
989.0273, 1104.573
989.5095, 1115.992
989.9916, 1125.521
990.4737, 1135.787
990.9558, 1138.171
991.4379, 1128.625
991.9200, 1115.098
992.4022, 1109.608
992.8843, 1110.997
993.3664, 1113.988
993.8485, 1117.456
994.3306, 1123.356
994.8127, 1140.407
995.2949, 1155.477
995.7770, 1153.399
996.2591, 1129.670
996.7412, 1121.117
997.2233, 1131.571
997.7054, 1143.462
998.1876, 1144.276
998.6697, 1139.803
999.1518, 1144.625
999.6339, 1156.192
1000.116, 1164.363
1000.598, 1159.649
1001.080, 1156.570
1001.562, 1161.198
1002.044, 1170.100
1002.527, 1177.656
1003.009, 1183.739
1003.491, 1190.213
1003.973, 1198.166
1004.455, 1202.895
1004.937, 1193.988
1005.419, 1181.180
1005.901, 1177.656
1006.384, 1188.289
1006.866, 1197.457
1007.348, 1204.789
1007.830, 1207.895
1008.312, 1201.974
1008.794, 1190.193
1009.276, 1194.194
1009.758, 1212.109
1010.240, 1228.385
1010.723, 1233.539
1011.205, 1234.589
1011.687, 1232.825
1012.169, 1230.662
1012.651, 1234.814
1013.133, 1249.515
1013.615, 1258.040
1014.097, 1256.969
1014.580, 1251.471
1015.062, 1245.273
1015.544, 1240.825
1016.026, 1246.428
1016.508, 1267.214
1016.990, 1275.930
1017.472, 1246.417
1017.954, 1215.742
1018.436, 1205.668
1018.919, 1215.275
1019.401, 1223.499
1019.883, 1230.340
1020.365, 1236.114
1020.847, 1241.983
1021.329, 1246.060
1021.811, 1242.741
1022.293, 1236.394
1022.776, 1237.954
1023.258, 1256.274
1023.740, 1271.847
1024.222, 1283.789
1024.704, 1290.692
1025.186, 1288.734
1025.668, 1280.001
1026.150, 1270.876
1026.632, 1262.021
1027.115, 1255.542
1027.597, 1250.395
1028.079, 1250.191
1028.561, 1260.310
1029.043, 1279.854
1029.525, 1289.509
1030.007, 1288.109
1030.489, 1285.169
1030.972, 1284.700
1031.454, 1285.451
1031.936, 1289.117
1032.418, 1292.198
1032.900, 1287.219
1033.382, 1256.737
1033.864, 1239.830
1034.346, 1243.319
1034.828, 1256.961
1035.311, 1274.196
1035.793, 1292.876
1036.275, 1295.198
1036.757, 1279.689
1037.239, 1262.420
1037.721, 1251.127
1038.203, 1245.269
1038.685, 1247.735
1039.167, 1257.005
1039.650, 1258.828
1040.132, 1251.082
1040.614, 1245.162
1041.096, 1245.484
1041.578, 1248.754
1042.060, 1249.235
1042.542, 1248.948
1043.024, 1252.354
1043.507, 1266.260
1043.989, 1272.336
1044.471, 1260.051
1044.953, 1247.517
1045.435, 1251.881
1045.917, 1271.125
1046.399, 1276.139
1046.881, 1267.101
1047.364, 1259.463
1047.846, 1265.442
1048.328, 1274.760
1048.810, 1279.168
1049.292, 1280.772
1049.774, 1290.109
1050.256, 1310.971
1050.738, 1326.439
1051.220, 1333.080
1051.703, 1333.220
1052.185, 1325.263
1052.667, 1314.689
1053.149, 1311.040
1053.631, 1317.068
1054.113, 1326.020
1054.595, 1341.865
1055.077, 1353.424
1055.559, 1352.564
1056.042, 1341.955
1056.524, 1340.151
1057.006, 1346.449
1057.488, 1355.111
1057.970, 1369.736
1058.452, 1378.784
1058.934, 1365.868
1059.416, 1345.308
1059.899, 1345.684
1060.381, 1376.015
1060.863, 1397.135
1061.345, 1405.996
1061.827, 1405.015
1062.309, 1386.654
1062.791, 1365.130
1063.273, 1365.326
1063.755, 1388.684
1064.238, 1407.258
1064.720, 1409.248
1065.202, 1410.787
1065.684, 1416.199
1066.166, 1424.484
1066.648, 1436.574
1067.130, 1449.806
1067.612, 1450.668
1068.094, 1426.922
1068.577, 1409.004
1069.059, 1422.400
1069.541, 1445.654
1070.023, 1456.790
1070.505, 1452.092
1070.987, 1457.405
1071.469, 1474.095
1071.951, 1488.092
1072.434, 1486.492
1072.916, 1479.293
1073.398, 1479.315
1073.880, 1484.089
1074.362, 1484.132
1074.844, 1468.568
1075.326, 1464.258
1075.808, 1478.950
1076.291, 1498.106
1076.773, 1499.663
1077.255, 1489.251
1077.737, 1482.103
1078.219, 1480.427
1078.701, 1482.235
1079.183, 1492.927
1079.665, 1500.117
1080.147, 1495.597
1080.630, 1482.334
1081.112, 1478.166
1081.594, 1482.872
1082.076, 1489.705
1082.558, 1496.119
1083.040, 1503.718
1083.522, 1517.453
1084.004, 1531.678
1084.486, 1537.941
1084.969, 1531.139
1085.451, 1530.118
1085.933, 1537.023
1086.415, 1541.667
1086.897, 1532.390
1087.379, 1517.588
1087.861, 1513.318
1088.343, 1517.320
1088.826, 1518.692
1089.308, 1507.683
1089.790, 1501.953
1090.272, 1506.494
1090.754, 1515.321
1091.236, 1519.412
1091.718, 1519.549
1092.200, 1519.516
1092.682, 1519.971
1093.165, 1518.769
1093.647, 1512.764
1094.129, 1506.302
1094.611, 1502.216
1095.093, 1500.163
1095.575, 1496.447
1096.057, 1490.793
1096.539, 1490.505
1097.022, 1499.252
1097.504, 1512.457
1097.986, 1531.955
1098.468, 1550.187
1098.950, 1555.176
1099.432, 1536.936
1099.914, 1528.973
1100.396, 1534.553
1100.879, 1540.242
1101.361, 1533.944
1101.843, 1522.217
1102.325, 1518.340
1102.807, 1520.504
1103.289, 1521.544
1103.771, 1515.762
1104.253, 1512.885
1104.735, 1515.176
1105.218, 1520.075
1105.700, 1525.344
1106.182, 1530.300
1106.664, 1531.624
1107.146, 1528.948
1107.628, 1522.609
1108.110, 1508.882
1108.592, 1495.392
1109.074, 1485.976
1109.557, 1480.354
1110.039, 1478.737
1110.521, 1481.168
1111.003, 1482.968
1111.485, 1481.647
1111.967, 1482.630
1112.449, 1499.810
1112.931, 1516.976
1113.414, 1512.155
1113.896, 1475.435
1114.378, 1462.229
1114.860, 1477.888
1115.342, 1493.771
1115.824, 1493.800
1116.306, 1484.263
1116.788, 1469.643
1117.271, 1454.011
1117.753, 1446.290
1118.235, 1459.697
1118.717, 1465.238
1119.199, 1457.953
1119.681, 1448.556
1120.163, 1447.658
1120.645, 1453.176
1121.127, 1461.330
1121.609, 1471.093
1122.092, 1475.410
1122.574, 1469.682
1123.056, 1458.352
1123.538, 1438.318
1124.020, 1417.623
1124.502, 1416.699
1124.984, 1432.319
1125.466, 1435.471
1125.949, 1419.709
1126.431, 1402.095
1126.913, 1390.036
1127.395, 1384.505
1127.877, 1388.792
1128.359, 1401.095
1128.841, 1410.021
1129.323, 1415.687
1129.806, 1415.416
1130.288, 1406.350
1130.770, 1395.112
1131.252, 1385.386
1131.734, 1378.990
1132.216, 1380.171
1132.698, 1394.496
1133.180, 1396.016
1133.662, 1382.668
1134.145, 1365.032
1134.627, 1343.151
1135.109, 1325.420
1135.591, 1334.250
1136.073, 1357.711
1136.555, 1365.365
1137.037, 1326.584
1137.519, 1305.491
1138.001, 1310.260
1138.484, 1323.978
1138.966, 1329.525
1139.448, 1330.343
1139.930, 1337.845
1140.412, 1350.898
1140.894, 1353.723
1141.376, 1330.737
1141.858, 1307.487
1142.341, 1287.583
1142.823, 1274.270
1143.305, 1277.589
1143.787, 1293.282
1144.269, 1301.830
1144.751, 1299.537
1145.233, 1295.025
1145.715, 1295.991
1146.198, 1292.686
1146.680, 1276.329
1147.162, 1251.888
1147.644, 1246.119
1148.126, 1257.474
1148.608, 1265.147
1149.090, 1262.078
1149.572, 1254.941
1150.054, 1246.672
1150.536, 1238.184
1151.019, 1228.897
1151.501, 1218.086
1151.983, 1220.675
1152.465, 1237.553
1152.947, 1246.229
1153.429, 1229.749
1153.911, 1205.086
1154.393, 1180.071
1154.876, 1160.824
1155.358, 1161.696
1155.840, 1197.158
1156.322, 1205.249
1156.804, 1180.293
1157.286, 1152.983
1157.768, 1150.865
1158.250, 1158.633
1158.733, 1156.457
1159.215, 1147.084
1159.697, 1143.518
1160.179, 1153.631
1160.661, 1155.196
1161.143, 1142.664
1161.625, 1129.576
1162.107, 1135.109
1162.589, 1149.051
1163.072, 1154.491
1163.554, 1150.399
1164.036, 1143.843
1164.518, 1135.064
1165.000, 1126.607
1165.482, 1119.252
1165.964, 1112.199
1166.446, 1104.121
1166.928, 1095.317
1167.411, 1085.881
1167.893, 1075.445
1168.375, 1067.171
1168.857, 1061.616
1169.339, 1059.424
1169.821, 1063.245
1170.303, 1068.984
1170.785, 1060.180
1171.268, 1042.732
1171.750, 1037.564
1172.232, 1058.728
1172.714, 1073.393
1173.196, 1057.297
1173.678, 1041.695
1174.160, 1048.978
1174.642, 1073.768
1175.125, 1079.312
1175.607, 1068.149
1176.089, 1053.932
1176.571, 1041.008
1177.053, 1029.100
1177.535, 1016.965
1178.017, 1006.745
1178.499, 1000.841
1178.981, 999.1721
1179.464, 998.1760
1179.946, 997.8123
1180.428, 998.4951
1180.910, 1002.924
1181.392, 1005.802
1181.874, 1001.718
1182.356, 995.5998
1182.838, 996.1599
1183.320, 1003.800
1183.803, 1005.387
1184.285, 999.7503
1184.767, 992.7360
1185.249, 988.8459
1185.731, 984.9514
1186.213, 978.6315
1186.695, 970.6516
1187.177, 961.8237
1187.660, 951.5752
1188.142, 951.6334
1188.624, 965.4207
1189.106, 977.3164
1189.588, 967.3320
1190.070, 954.8398
1190.552, 960.9274
1191.034, 981.4221
1191.516, 979.5649
1191.999, 952.0829
1192.481, 933.6356
1192.963, 933.8857
1193.445, 941.5669
1193.927, 952.6147
1194.409, 960.5293
1194.891, 956.4595
1195.373, 939.7143
1195.855, 926.0461
1196.338, 914.6306
1196.820, 914.2744
1197.302, 934.6020
1197.784, 954.4584
1198.266, 945.1927
1198.748, 924.5517
1199.230, 916.0672
1199.712, 925.0510
1200.195, 926.1699
1200.677, 918.1397
1201.159, 911.3117
1201.641, 912.4503
1202.123, 916.0682
1202.605, 915.2538
1203.087, 912.8428
1203.569, 913.9182
1204.052, 921.2709
1204.534, 925.0031
1205.016, 924.8380
1205.498, 922.8766
1205.980, 922.4116
1206.462, 919.4282
1206.944, 903.7361
1207.426, 882.8047
1207.908, 875.1798
1208.391, 886.5845
1208.873, 898.4469
1209.355, 910.5830
1209.837, 920.6333
1210.319, 927.7783
1210.801, 930.8030
1211.283, 924.9104
1211.765, 913.3591
1212.247, 907.8861
1212.730, 910.7532
1213.212, 915.0740
1213.694, 920.6063
1214.176, 925.2903
1214.658, 927.3624
1215.140, 927.4397
1215.622, 927.0720
1216.104, 925.5775
1216.587, 917.5468
1217.069, 897.1808
1217.551, 892.4686
1218.033, 911.8004
1218.515, 931.0051
1218.997, 914.3115
1219.479, 888.6367
1219.961, 885.2908
1220.443, 905.7888
1220.926, 928.6679
1221.408, 957.5896
1221.890, 967.4797
1222.372, 948.6904
1222.854, 922.3903
1223.336, 910.9569
1223.818, 908.1012
1224.300, 908.6924
1224.782, 912.1689
1225.265, 908.6432
1225.747, 894.9984
1226.229, 890.4478
1226.711, 903.8680
1227.193, 920.4686
1227.675, 921.0837
1228.157, 915.3777
1228.639, 915.9116
1229.122, 925.0487
1229.604, 926.0613
1230.086, 917.9168
1230.568, 908.0955
1231.050, 897.6918
1231.532, 890.6124
1232.014, 893.8488
1232.496, 901.6666
1232.979, 907.4594
1233.461, 910.7332
1233.943, 911.0760
1234.425, 908.2897
1234.907, 903.9991
1235.389, 895.3162
1235.871, 891.4225
1236.353, 909.5760
1236.835, 933.5323
1237.318, 940.2885
1237.800, 926.9630
1238.282, 915.1595
1238.764, 904.8366
1239.246, 898.7010
1239.728, 899.0128
1240.210, 903.3821
1240.692, 914.0777
1241.175, 925.3307
1241.657, 929.2687
1242.139, 925.0921
1242.621, 917.5286
1243.103, 906.4507
1243.585, 897.4211
1244.067, 895.1360
1244.549, 894.4286
1245.031, 890.3616
1245.514, 886.6559
1245.996, 889.5764
1246.478, 900.3312
1246.960, 900.7550
1247.442, 891.1705
1247.924, 884.3572
1248.406, 893.6254
1248.888, 902.4032
1249.370, 898.6589
1249.853, 890.6453
1250.335, 888.8076
1250.817, 893.0163
1251.299, 901.5674
1251.781, 913.7670
1252.263, 921.3774
1252.745, 912.9598
1253.227, 906.3376
1253.710, 910.7396
1254.192, 920.1843
1254.674, 929.9885
1255.156, 939.0030
1255.638, 936.8985
1256.120, 923.9904
1256.602, 911.2058
1257.084, 899.0880
1257.567, 895.8525
1258.049, 906.5212
1258.531, 922.9908
1259.013, 937.4932
1259.495, 948.1707
1259.977, 944.4293
1260.459, 927.1823
1260.941, 914.7034
1261.423, 917.9549
1261.906, 924.4838
1262.388, 933.8851
1262.870, 941.1537
1263.352, 937.5574
1263.834, 926.6907
1264.316, 912.7850
1264.798, 897.6553
1265.280, 895.9052
1265.762, 930.1224
1266.245, 946.7616
1266.727, 931.7004
1267.209, 906.6229
1267.691, 901.9407
1268.173, 907.1757
1268.655, 903.1328
1269.137, 889.0333
1269.619, 884.1288
1270.102, 894.1237
1270.584, 902.4202
1271.066, 905.2533
1271.548, 906.3607
1272.030, 911.7415
1272.512, 917.0956
1272.994, 916.0146
1273.476, 908.5859
1273.958, 904.1040
1274.441, 902.3746
1274.923, 906.9885
1275.405, 920.3033
1275.887, 932.8706
1276.369, 934.7578
1276.851, 931.2264
1277.333, 926.5622
1277.815, 920.9648
1278.297, 911.9662
1278.780, 899.1716
1279.262, 893.7591
1279.744, 899.3086
1280.226, 906.6619
1280.708, 905.8778
1281.190, 906.6686
1281.672, 918.3270
1282.154, 936.8932
1282.637, 950.3790
1283.119, 958.2042
1283.601, 951.0837
1284.083, 924.0120
1284.565, 904.7014
1285.047, 920.5647
1285.529, 936.6501
1286.011, 934.9850
1286.494, 921.8735
1286.976, 911.7876
1287.458, 905.6285
1287.940, 909.1786
1288.422, 925.5139
1288.904, 935.2115
1289.386, 923.7902
1289.868, 914.3998
1290.350, 915.5760
1290.833, 921.5352
1291.315, 920.3729
1291.797, 915.4600
1292.279, 913.4302
1292.761, 915.7232
1293.243, 919.1577
1293.725, 924.8015
1294.207, 926.9825
1294.689, 922.4180
1295.172, 916.9567
1295.654, 919.3458
1296.136, 925.9754
1296.618, 935.1738
1297.100, 947.2164
1297.582, 937.9476
1298.064, 901.3029
1298.546, 884.3575
1299.029, 907.5663
1299.511, 936.7310
1299.993, 932.6199
1300.475, 919.2068
1300.957, 921.9237
1301.439, 938.2203
1301.921, 947.2770
##END=



