##NAMES=Chabazite-Ca
##RRUFFID=R050014
##IDEAL CHEMISTRY=Ca_2_Al_4_Si_8_O_24_&#183;13H_2_O
##LOCALITY=Tablo Mountain, Baja California, Mexico
##OWNER=RRUFF
##SOURCE=University of Arizona Mineral Museum
##DESCRIPTION=Light tan colored rhombohedral single crystals
##STATUS=The identification of this mineral has been confirmed by X-ray diffraction and chemical analysis
##URL=rruff.info/R050014
##MEASURED CHEMISTRY=(Ca_0.72_Mg_0.11_K_0.09_Sr_0.06_Na_0.01_)_Σ=1_(Si_4.12_Al_1.88_)O_12_·6H_2_O
151.5903, 4704.540
152.0724, 4751.306
152.5545, 4796.098
153.0366, 4842.116
153.5188, 4886.334
154.0009, 4922.651
154.4830, 4946.874
154.9651, 4965.856
155.4472, 4982.868
155.9293, 4998.916
156.4115, 5012.078
156.8936, 5018.181
157.3757, 5020.156
157.8578, 5028.194
158.3399, 5054.187
158.8221, 5082.011
159.3042, 5101.368
159.7863, 5100.014
160.2684, 5099.397
160.7505, 5105.601
161.2326, 5118.401
161.7148, 5135.735
162.1969, 5162.876
162.6790, 5191.888
163.1611, 5214.792
163.6432, 5222.912
164.1253, 5229.340
164.6075, 5239.479
165.0896, 5253.470
165.5717, 5272.723
166.0538, 5303.997
166.5359, 5340.024
167.0180, 5370.496
167.5002, 5391.179
167.9823, 5404.987
168.4644, 5411.750
168.9465, 5410.246
169.4286, 5410.110
169.9107, 5416.432
170.3929, 5429.205
170.8750, 5448.614
171.3571, 5485.660
171.8392, 5524.485
172.3213, 5546.147
172.8034, 5544.902
173.2856, 5536.917
173.7677, 5532.516
174.2498, 5532.540
174.7319, 5539.831
175.2140, 5562.402
175.6961, 5591.850
176.1783, 5615.740
176.6604, 5631.963
177.1425, 5641.245
177.6246, 5642.629
178.1067, 5636.751
178.5888, 5627.770
179.0710, 5612.224
179.5531, 5595.861
180.0352, 5593.641
180.5173, 5616.182
180.9994, 5647.303
181.4815, 5657.272
181.9637, 5646.810
182.4458, 5635.682
182.9279, 5645.167
183.4100, 5669.301
183.8921, 5685.032
184.3742, 5679.939
184.8564, 5664.808
185.3385, 5666.272
185.8206, 5685.288
186.3027, 5709.422
186.7848, 5730.157
187.2669, 5746.763
187.7491, 5754.402
188.2312, 5746.631
188.7133, 5728.411
189.1954, 5716.729
189.6775, 5711.474
190.1596, 5713.751
190.6418, 5732.516
191.1239, 5766.965
191.6060, 5788.951
192.0881, 5779.196
192.5702, 5742.383
193.0524, 5719.233
193.5345, 5710.565
194.0166, 5713.423
194.4987, 5726.338
194.9808, 5749.913
195.4629, 5774.535
195.9451, 5802.054
196.4272, 5832.372
196.9093, 5832.875
197.3914, 5792.973
197.8735, 5738.302
198.3556, 5719.946
198.8378, 5742.580
199.3199, 5771.763
199.8020, 5789.223
200.2841, 5793.932
200.7662, 5800.480
201.2483, 5810.879
201.7305, 5822.486
202.2126, 5828.439
202.6947, 5827.828
203.1768, 5824.957
203.6589, 5821.577
204.1410, 5817.337
204.6232, 5815.673
205.1053, 5818.034
205.5874, 5822.668
206.0695, 5822.923
206.5516, 5816.965
207.0337, 5811.437
207.5159, 5809.852
207.9980, 5811.557
208.4801, 5821.505
208.9622, 5844.750
209.4443, 5876.625
209.9264, 5893.247
210.4086, 5890.745
210.8907, 5880.715
211.3728, 5870.586
211.8549, 5858.777
212.3370, 5851.885
212.8191, 5850.475
213.3013, 5854.634
213.7834, 5867.625
214.2655, 5896.559
214.7476, 5922.941
215.2297, 5927.063
215.7118, 5897.066
216.1940, 5878.166
216.6761, 5880.757
217.1582, 5903.780
217.6403, 5925.093
218.1224, 5946.492
218.6045, 5963.483
219.0867, 5970.263
219.5688, 5961.631
220.0509, 5955.268
220.5330, 5957.252
221.0151, 5968.012
221.4972, 5965.917
221.9794, 5940.618
222.4615, 5913.987
222.9436, 5911.463
223.4257, 5946.709
223.9078, 5978.322
224.3899, 5997.028
224.8721, 6002.518
225.3542, 6000.937
225.8363, 5984.563
226.3184, 5968.406
226.8005, 5972.123
227.2827, 6007.682
227.7648, 6040.494
228.2469, 6063.267
228.7290, 6076.026
229.2111, 6076.947
229.6932, 6058.011
230.1754, 6033.730
230.6575, 6023.189
231.1396, 6031.659
231.6217, 6044.979
232.1038, 6061.289
232.5859, 6082.577
233.0681, 6095.378
233.5502, 6094.695
234.0323, 6089.097
234.5144, 6091.650
234.9965, 6107.964
235.4786, 6122.844
235.9608, 6130.263
236.4429, 6126.817
236.9250, 6132.268
237.4071, 6153.604
237.8892, 6179.456
238.3713, 6190.888
238.8535, 6179.708
239.3356, 6167.727
239.8177, 6161.185
240.2998, 6160.298
240.7819, 6164.854
241.2640, 6179.555
241.7462, 6197.034
242.2283, 6203.015
242.7104, 6186.613
243.1925, 6176.790
243.6746, 6186.221
244.1567, 6224.995
244.6389, 6247.851
245.1210, 6248.003
245.6031, 6236.314
246.0852, 6231.256
246.5673, 6233.284
247.0494, 6241.246
247.5316, 6256.031
248.0137, 6280.722
248.4958, 6302.126
248.9779, 6320.660
249.4600, 6335.543
249.9421, 6344.631
250.4243, 6346.346
250.9064, 6345.206
251.3885, 6342.210
251.8706, 6336.134
252.3527, 6332.281
252.8348, 6330.976
253.3170, 6331.684
253.7991, 6332.489
254.2812, 6329.869
254.7633, 6334.202
255.2454, 6353.519
255.7275, 6397.106
256.2097, 6418.255
256.6918, 6404.937
257.1739, 6377.211
257.6560, 6374.621
258.1381, 6410.135
258.6202, 6444.058
259.1024, 6459.961
259.5845, 6451.796
260.0666, 6450.724
260.5487, 6460.402
261.0308, 6474.397
261.5129, 6479.557
261.9951, 6470.236
262.4772, 6465.540
262.9593, 6475.474
263.4414, 6505.254
263.9235, 6524.395
264.4056, 6529.461
264.8878, 6527.273
265.3699, 6531.695
265.8520, 6547.457
266.3341, 6556.208
266.8162, 6543.984
267.2983, 6502.967
267.7805, 6496.399
268.2626, 6538.763
268.7447, 6599.591
269.2268, 6621.753
269.7089, 6593.205
270.1910, 6569.290
270.6732, 6576.185
271.1553, 6618.770
271.6374, 6641.808
272.1195, 6639.032
272.6016, 6625.918
273.0837, 6629.123
273.5659, 6652.164
274.0480, 6673.439
274.5301, 6682.812
275.0122, 6679.606
275.4943, 6683.303
275.9764, 6695.251
276.4586, 6711.568
276.9407, 6726.995
277.4228, 6741.274
277.9049, 6755.368
278.3870, 6771.316
278.8691, 6788.713
279.3513, 6796.377
279.8334, 6791.793
280.3155, 6783.950
280.7976, 6786.198
281.2798, 6799.008
281.7619, 6810.410
282.2440, 6813.842
282.7261, 6811.021
283.2082, 6815.664
283.6903, 6828.737
284.1725, 6845.723
284.6546, 6863.114
285.1367, 6880.604
285.6188, 6893.757
286.1009, 6898.277
286.5830, 6896.907
287.0652, 6901.281
287.5473, 6911.593
288.0294, 6926.230
288.5115, 6946.164
288.9936, 6970.484
289.4757, 6991.228
289.9579, 7008.335
290.4400, 7019.463
290.9221, 7013.017
291.4042, 6987.400
291.8863, 6964.142
292.3684, 6968.459
292.8506, 6995.034
293.3327, 7021.081
293.8148, 7041.734
294.2969, 7056.292
294.7790, 7060.075
295.2611, 7053.076
295.7433, 7048.064
296.2254, 7060.603
296.7075, 7084.545
297.1896, 7101.851
297.6717, 7104.635
298.1538, 7100.898
298.6360, 7102.565
299.1181, 7109.246
299.6002, 7116.134
300.0823, 7115.098
300.5644, 7112.201
301.0465, 7119.959
301.5287, 7147.328
302.0108, 7179.500
302.4929, 7199.943
302.9750, 7210.027
303.4571, 7216.458
303.9392, 7221.709
304.4214, 7226.756
304.9035, 7233.598
305.3856, 7244.693
305.8677, 7254.236
306.3498, 7254.585
306.8319, 7248.229
307.3141, 7243.968
307.7962, 7252.222
308.2783, 7262.686
308.7604, 7264.549
309.2425, 7252.760
309.7246, 7238.342
310.2068, 7218.259
310.6889, 7199.776
311.1710, 7201.281
311.6531, 7254.378
312.1352, 7316.998
312.6173, 7355.643
313.0995, 7357.028
313.5816, 7356.408
314.0637, 7378.244
314.5458, 7409.094
315.0279, 7423.886
315.5100, 7389.817
315.9922, 7354.645
316.4743, 7347.612
316.9564, 7379.958
317.4385, 7407.726
317.9206, 7411.317
318.4027, 7402.808
318.8849, 7399.079
319.3670, 7406.376
319.8491, 7417.702
320.3312, 7432.528
320.8133, 7452.280
321.2954, 7466.571
321.7776, 7472.142
322.2597, 7471.892
322.7418, 7427.998
323.2239, 7477.161
323.7060, 7508.745
324.1881, 7523.696
324.6703, 7472.195
325.1524, 7506.503
325.6345, 7506.422
326.1166, 7504.932
326.5987, 7551.317
327.0808, 7509.480
327.5630, 7555.108
328.0451, 7565.821
328.5272, 7592.513
329.0093, 7584.603
329.4914, 7587.380
329.9735, 7624.771
330.4557, 7604.419
330.9378, 7612.399
331.4199, 7618.800
331.9020, 7621.939
332.3841, 7622.787
332.8662, 7625.812
333.3484, 7630.142
333.8305, 7637.928
334.3126, 7651.603
334.7947, 7674.279
335.2768, 7693.207
335.7589, 7708.854
336.2411, 7719.762
336.7232, 7719.241
337.2053, 7701.066
337.6874, 7689.699
338.1695, 7703.386
338.6516, 7747.497
339.1338, 7766.552
339.6159, 7753.935
340.0980, 7724.809
340.5801, 7702.152
341.0622, 7685.592
341.5443, 7677.020
342.0265, 7681.584
342.5086, 7697.048
342.9907, 7700.759
343.4728, 7690.484
343.9549, 7677.079
344.4370, 7671.704
344.9192, 7674.355
345.4013, 7686.356
345.8834, 7717.735
346.3655, 7756.077
346.8476, 7760.871
347.3297, 7731.054
347.8119, 7698.777
348.2940, 7696.931
348.7761, 7717.377
349.2582, 7736.309
349.7403, 7749.594
350.2225, 7756.000
350.7046, 7747.873
351.1867, 7727.541
351.6688, 7713.551
352.1509, 7725.167
352.6331, 7750.109
353.1152, 7770.625
353.5973, 7783.701
354.0794, 7789.677
354.5615, 7780.837
355.0436, 7763.422
355.5258, 7756.421
356.0079, 7784.831
356.4900, 7820.147
356.9721, 7834.819
357.4542, 7818.359
357.9363, 7802.499
358.4185, 7809.771
358.9006, 7829.184
359.3827, 7841.723
359.8648, 7828.831
360.3469, 7815.988
360.8290, 7818.713
361.3112, 7840.817
361.7933, 7860.208
362.2754, 7868.880
362.7575, 7871.726
363.2396, 7874.071
363.7217, 7874.194
364.2039, 7876.811
364.6860, 7884.859
365.1681, 7898.450
365.6502, 7908.894
366.1323, 7915.699
366.6144, 7918.858
367.0966, 7918.230
367.5787, 7901.672
368.0608, 7896.358
368.5429, 7907.912
369.0250, 7933.380
369.5071, 7958.106
369.9893, 7988.673
370.4714, 8010.836
370.9535, 8016.613
371.4356, 7998.719
371.9177, 7979.998
372.3998, 7956.713
372.8820, 7934.746
373.3641, 7929.118
373.8462, 7945.470
374.3283, 7963.346
374.8104, 7971.327
375.2925, 7967.175
375.7747, 7984.764
376.2568, 8032.673
376.7389, 8085.613
377.2210, 8105.684
377.7031, 8090.585
378.1852, 8075.425
378.6674, 8068.692
379.1495, 8070.576
379.6316, 8084.811
380.1137, 8112.485
380.5958, 8141.571
381.0779, 8161.602
381.5601, 8173.541
382.0422, 8180.428
382.5243, 8181.816
383.0064, 8180.258
383.4885, 8177.294
383.9706, 8173.754
384.4528, 8175.915
384.9349, 8195.215
385.4170, 8221.218
385.8991, 8235.984
386.3812, 8234.840
386.8633, 8229.286
387.3455, 8226.320
387.8276, 8226.977
388.3097, 8233.674
388.7918, 8255.724
389.2739, 8279.092
389.7560, 8290.354
390.2382, 8287.351
390.7203, 8286.034
391.2024, 8299.657
391.6845, 8318.099
392.1666, 8329.856
392.6487, 8323.601
393.1309, 8316.883
393.6130, 8317.006
394.0951, 8323.521
394.5772, 8329.868
395.0593, 8328.995
395.5414, 8330.827
396.0236, 8341.648
396.5057, 8384.504
396.9878, 8410.096
397.4699, 8395.308
397.9520, 8357.379
398.4341, 8351.182
398.9163, 8413.476
399.3984, 8469.374
399.8805, 8489.524
400.3626, 8458.495
400.8447, 8437.412
401.3268, 8428.768
401.8090, 8428.271
402.2911, 8430.944
402.7732, 8439.111
403.2553, 8444.188
403.7374, 8442.894
404.2195, 8435.683
404.7017, 8429.049
405.1838, 8420.615
405.6659, 8419.300
406.1480, 8437.559
406.6301, 8475.839
407.1122, 8507.515
407.5944, 8526.980
408.0765, 8538.025
408.5586, 8546.900
409.0407, 8553.735
409.5228, 8564.119
410.0049, 8587.791
410.4871, 8617.883
410.9692, 8634.557
411.4513, 8634.578
411.9334, 8626.133
412.4155, 8609.035
412.8976, 8589.555
413.3798, 8585.947
413.8619, 8619.753
414.3440, 8665.691
414.8261, 8698.661
415.3082, 8718.140
415.7903, 8732.064
416.2725, 8747.855
416.7546, 8760.355
417.2367, 8763.363
417.7188, 8738.192
418.2009, 8721.495
418.6830, 8737.893
419.1652, 8778.852
419.6473, 8812.436
420.1294, 8829.815
420.6115, 8835.934
421.0937, 8830.696
421.5758, 8802.000
422.0579, 8788.364
422.5400, 8806.325
423.0221, 8839.863
423.5042, 8862.952
423.9864, 8859.429
424.4685, 8862.425
424.9506, 8882.437
425.4327, 8921.146
425.9148, 8951.917
426.3969, 8972.957
426.8791, 8988.106
427.3612, 8997.807
427.8433, 8996.239
428.3254, 9009.123
428.8075, 9047.119
429.2896, 9099.249
429.7718, 9121.902
430.2539, 9108.469
430.7360, 9100.747
431.2181, 9128.826
431.7002, 9189.797
432.1823, 9240.938
432.6645, 9279.323
433.1466, 9310.752
433.6287, 9345.399
434.1108, 9380.928
434.5929, 9405.154
435.0750, 9404.576
435.5572, 9392.938
436.0393, 9390.021
436.5214, 9396.097
437.0035, 9416.978
437.4856, 9476.714
437.9677, 9548.165
438.4499, 9589.186
438.9320, 9568.803
439.4141, 9550.112
439.8962, 9587.444
440.3783, 9662.290
440.8604, 9728.045
441.3426, 9754.418
441.8247, 9772.399
442.3068, 9798.938
442.7889, 9837.232
443.2710, 9877.647
443.7531, 9921.095
444.2353, 9963.902
444.7174, 10002.76
445.1995, 10037.79
445.6816, 10067.54
446.1637, 10083.18
446.6458, 10087.73
447.1280, 10118.46
447.6101, 10203.55
448.0922, 10283.96
448.5743, 10322.72
449.0564, 10296.79
449.5385, 10291.72
450.0207, 10313.19
450.5028, 10353.19
450.9849, 10403.25
451.4670, 10468.29
451.9491, 10515.64
452.4312, 10524.72
452.9134, 10501.95
453.3955, 10498.14
453.8776, 10514.44
454.3597, 10541.13
454.8418, 10577.08
455.3239, 10617.63
455.8061, 10639.86
456.2882, 10631.99
456.7703, 10614.33
457.2524, 10617.60
457.7345, 10637.24
458.2166, 10654.69
458.6988, 10659.45
459.1809, 10655.85
459.6630, 10643.09
460.1451, 10618.05
460.6272, 10606.12
461.1093, 10633.27
461.5915, 10679.81
462.0736, 10720.84
462.5557, 10745.34
463.0378, 10765.70
463.5199, 10789.91
464.0020, 10815.83
464.4842, 10827.86
464.9663, 10811.87
465.4484, 10788.98
465.9305, 10769.88
466.4126, 10754.59
466.8947, 10743.26
467.3769, 10733.71
467.8590, 10729.07
468.3411, 10733.66
468.8232, 10744.95
469.3053, 10772.38
469.7874, 10828.86
470.2696, 10910.92
470.7517, 10949.30
471.2338, 10934.82
471.7159, 10904.88
472.1980, 10889.58
472.6801, 10888.62
473.1623, 10889.95
473.6444, 10892.21
474.1265, 10895.32
474.6086, 10899.69
475.0907, 10905.07
475.5728, 10909.88
476.0550, 10916.90
476.5371, 10921.55
477.0192, 10912.86
477.5013, 10890.24
477.9834, 10869.86
478.4655, 10868.43
478.9477, 10875.42
479.4298, 10877.26
479.9119, 10870.41
480.3940, 10856.89
480.8761, 10831.85
481.3582, 10800.20
481.8404, 10776.46
482.3225, 10779.91
482.8046, 10780.37
483.2867, 10762.41
483.7688, 10718.97
484.2509, 10677.08
484.7331, 10634.23
485.2152, 10596.59
485.6973, 10570.68
486.1794, 10571.15
486.6615, 10557.15
487.1436, 10515.07
487.6258, 10453.70
488.1079, 10415.66
488.5900, 10406.16
489.0721, 10406.38
489.5542, 10411.42
490.0363, 10421.51
490.5185, 10412.36
491.0006, 10379.58
491.4827, 10340.33
491.9648, 10318.09
492.4470, 10310.02
492.9291, 10300.90
493.4112, 10284.12
493.8933, 10264.99
494.3754, 10253.75
494.8575, 10248.94
495.3397, 10241.94
495.8218, 10223.88
496.3039, 10202.02
496.7860, 10182.80
497.2681, 10165.23
497.7502, 10156.89
498.2324, 10169.44
498.7145, 10191.39
499.1966, 10207.38
499.6787, 10210.14
500.1608, 10208.85
500.6429, 10207.81
501.1251, 10206.52
501.6072, 10196.31
502.0893, 10157.19
502.5714, 10126.08
503.0535, 10122.95
503.5356, 10167.21
504.0178, 10193.05
504.4999, 10197.13
504.9820, 10185.43
505.4641, 10161.67
505.9462, 10120.89
506.4283, 10094.89
506.9105, 10097.28
507.3926, 10120.62
507.8747, 10134.04
508.3568, 10136.90
508.8389, 10142.48
509.3210, 10169.94
509.8032, 10207.84
510.2853, 10222.40
510.7674, 10206.08
511.2495, 10180.57
511.7316, 10162.78
512.2137, 10152.44
512.6959, 10149.19
513.1780, 10160.22
513.6601, 10172.04
514.1422, 10170.28
514.6243, 10158.32
515.1064, 10159.39
515.5886, 10206.65
516.0707, 10252.93
516.5528, 10265.88
517.0349, 10217.26
517.5170, 10186.18
517.9991, 10195.58
518.4813, 10220.66
518.9634, 10229.28
519.4455, 10205.60
519.9276, 10192.91
520.4097, 10202.62
520.8918, 10231.14
521.3740, 10258.20
521.8561, 10285.85
522.3382, 10305.31
522.8203, 10304.95
523.3024, 10286.59
523.7845, 10283.06
524.2667, 10298.24
524.7488, 10320.46
525.2309, 10339.75
525.7130, 10355.14
526.1951, 10362.44
526.6772, 10354.37
527.1594, 10343.22
527.6415, 10344.71
528.1236, 10356.38
528.6057, 10367.55
529.0878, 10372.48
529.5699, 10374.24
530.0521, 10373.66
530.5342, 10369.31
531.0163, 10369.70
531.4984, 10384.03
531.9805, 10401.71
532.4626, 10411.54
532.9448, 10399.36
533.4269, 10394.37
533.9090, 10398.68
534.3911, 10412.41
534.8732, 10439.45
535.3553, 10496.24
535.8375, 10535.59
536.3196, 10527.68
536.8017, 10468.74
537.2838, 10443.49
537.7659, 10457.66
538.2480, 10485.96
538.7302, 10500.98
539.2123, 10505.21
539.6944, 10516.40
540.1765, 10542.41
540.6586, 10569.61
541.1407, 10577.51
541.6229, 10570.04
542.1050, 10561.54
542.5871, 10557.68
543.0692, 10557.56
543.5513, 10558.80
544.0334, 10561.36
544.5156, 10572.33
544.9977, 10602.09
545.4798, 10637.60
545.9619, 10668.71
546.4440, 10697.62
546.9261, 10716.02
547.4083, 10718.42
547.8904, 10710.31
548.3725, 10700.71
548.8546, 10683.27
549.3367, 10675.19
549.8188, 10685.15
550.3010, 10710.62
550.7831, 10716.99
551.2652, 10696.05
551.7473, 10683.53
552.2294, 10717.56
552.7115, 10791.18
553.1937, 10831.17
553.6758, 10828.81
554.1579, 10804.97
554.6400, 10772.24
555.1221, 10737.54
555.6042, 10722.27
556.0864, 10749.59
556.5685, 10783.56
557.0506, 10782.12
557.5327, 10755.69
558.0148, 10743.14
558.4969, 10775.03
558.9791, 10817.98
559.4612, 10854.53
559.9433, 10883.93
560.4254, 10900.42
560.9075, 10888.89
561.3896, 10871.76
561.8718, 10868.86
562.3539, 10889.26
562.8360, 10908.87
563.3181, 10927.08
563.8002, 10942.71
564.2823, 10950.70
564.7645, 10947.82
565.2466, 10952.06
565.7287, 10976.17
566.2108, 11013.59
566.6929, 11027.85
567.1750, 11017.86
567.6572, 11006.17
568.1393, 11013.75
568.6214, 11032.90
569.1035, 11049.03
569.5856, 11060.67
570.0677, 11066.35
570.5499, 11052.13
571.0320, 11033.84
571.5141, 11036.37
571.9962, 11094.00
572.4783, 11149.09
572.9604, 11176.73
573.4426, 11180.80
573.9247, 11183.70
574.4068, 11186.78
574.8889, 11191.08
575.3710, 11193.64
575.8531, 11189.59
576.3353, 11215.27
576.8174, 11296.68
577.2995, 11368.85
577.7816, 11353.27
578.2637, 11237.95
578.7458, 11166.05
579.2280, 11164.24
579.7101, 11203.55
580.1922, 11244.60
580.6743, 11285.06
581.1564, 11311.80
581.6385, 11304.32
582.1207, 11287.41
582.6028, 11298.68
583.0849, 11334.18
583.5670, 11363.67
584.0491, 11362.25
584.5313, 11352.21
585.0134, 11350.34
585.4955, 11360.19
585.9776, 11374.91
586.4597, 11400.19
586.9418, 11426.31
587.4240, 11441.84
587.9061, 11441.77
588.3882, 11439.09
588.8703, 11436.51
589.3524, 11431.87
589.8345, 11413.41
590.3167, 11372.77
590.7988, 11351.09
591.2809, 11374.89
591.7630, 11433.71
592.2451, 11473.62
592.7272, 11494.17
593.2094, 11506.38
593.6915, 11517.13
594.1736, 11526.49
594.6557, 11534.83
595.1378, 11542.26
595.6199, 11547.77
596.1021, 11540.35
596.5842, 11533.22
597.0663, 11545.29
597.5485, 11621.64
598.0306, 11677.04
598.5127, 11662.12
598.9948, 11597.67
599.4769, 11575.38
599.9590, 11637.03
600.4412, 11697.01
600.9233, 11726.24
601.4054, 11722.73
601.8875, 11723.36
602.3696, 11730.74
602.8517, 11735.78
603.3339, 11724.96
603.8160, 11700.45
604.2981, 11696.46
604.7802, 11721.27
605.2623, 11751.47
605.7444, 11751.24
606.2266, 11731.60
606.7087, 11722.40
607.1908, 11742.46
607.6729, 11768.82
608.1550, 11786.42
608.6371, 11795.81
609.1193, 11799.38
609.6014, 11782.61
610.0835, 11773.50
610.5656, 11792.04
611.0477, 11845.26
611.5298, 11878.32
612.0120, 11876.85
612.4941, 11867.24
612.9762, 11866.70
613.4583, 11878.05
613.9404, 11887.94
614.4225, 11895.01
614.9047, 11901.95
615.3868, 11915.19
615.8689, 11933.92
616.3510, 11944.15
616.8331, 11934.43
617.3152, 11923.74
617.7974, 11948.24
618.2795, 11999.33
618.7616, 12044.65
619.2437, 12067.46
619.7258, 12076.77
620.2079, 12075.13
620.6901, 12062.97
621.1722, 12054.72
621.6543, 12065.80
622.1364, 12075.12
622.6185, 12065.39
623.1006, 12011.54
623.5828, 11994.58
624.0649, 12035.17
624.5470, 12093.68
625.0291, 12118.19
625.5112, 12099.14
625.9933, 12099.61
626.4755, 12137.22
626.9576, 12191.77
627.4397, 12223.05
627.9218, 12232.69
628.4039, 12233.05
628.8860, 12221.60
629.3682, 12208.88
629.8503, 12209.07
630.3324, 12221.45
630.8145, 12240.51
631.2966, 12273.73
631.7787, 12304.82
632.2609, 12320.35
632.7430, 12314.37
633.2251, 12309.79
633.7072, 12313.39
634.1893, 12318.67
634.6714, 12320.39
635.1536, 12318.12
635.6357, 12310.08
636.1178, 12285.13
636.5999, 12265.95
637.0820, 12310.88
637.5641, 12423.57
638.0463, 12503.37
638.5284, 12510.27
639.0105, 12471.42
639.4926, 12425.07
639.9747, 12375.81
640.4568, 12350.93
640.9390, 12382.24
641.4211, 12435.23
641.9032, 12482.87
642.3853, 12522.98
642.8674, 12551.24
643.3495, 12559.16
643.8317, 12559.00
644.3138, 12558.77
644.7959, 12556.25
645.2780, 12559.65
645.7601, 12569.09
646.2422, 12584.27
646.7244, 12609.14
647.2065, 12648.54
647.6886, 12669.44
648.1707, 12660.28
648.6528, 12637.61
649.1349, 12635.34
649.6171, 12651.00
650.0992, 12666.98
650.5813, 12675.36
651.0634, 12679.39
651.5455, 12680.38
652.0276, 12679.51
652.5098, 12683.12
652.9919, 12700.86
653.4740, 12719.29
653.9561, 12728.60
654.4382, 12725.62
654.9203, 12727.11
655.4025, 12737.66
655.8846, 12751.21
656.3667, 12766.65
656.8488, 12792.84
657.3309, 12787.36
657.8130, 12732.54
658.2952, 12675.19
658.7773, 12694.28
659.2594, 12782.54
659.7415, 12850.48
660.2236, 12871.09
660.7057, 12866.88
661.1879, 12863.59
661.6700, 12861.11
662.1521, 12859.19
662.6342, 12854.61
663.1163, 12853.22
663.5984, 12860.46
664.0806, 12875.31
664.5627, 12889.04
665.0448, 12895.67
665.5269, 12904.15
666.0090, 12917.19
666.4911, 12934.11
666.9733, 12963.19
667.4554, 13014.32
667.9375, 13057.99
668.4196, 13063.92
668.9017, 13033.54
669.3839, 13013.73
669.8660, 13010.08
670.3481, 13010.78
670.8302, 12999.63
671.3123, 12982.68
671.7944, 12973.22
672.2766, 12977.42
672.7587, 12986.95
673.2408, 13000.75
673.7229, 13015.46
674.2050, 13024.76
674.6871, 13004.78
675.1693, 13003.42
675.6514, 13048.54
676.1335, 13127.40
676.6156, 13171.73
677.0977, 13170.60
677.5798, 13159.42
678.0620, 13149.42
678.5441, 13141.51
679.0262, 13148.83
679.5083, 13172.46
679.9904, 13194.42
680.4725, 13198.10
680.9547, 13191.02
681.4368, 13183.19
681.9189, 13174.58
682.4010, 13177.08
682.8831, 13213.28
683.3652, 13257.61
683.8474, 13282.97
684.3295, 13264.89
684.8116, 13257.03
685.2937, 13277.81
685.7758, 13308.19
686.2579, 13323.66
686.7401, 13321.10
687.2222, 13309.87
687.7043, 13284.12
688.1864, 13257.83
688.6685, 13272.40
689.1506, 13325.12
689.6328, 13372.17
690.1149, 13390.04
690.5970, 13393.79
691.0791, 13411.11
691.5612, 13437.15
692.0433, 13447.01
692.5255, 13400.73
693.0076, 13355.57
693.4897, 13351.85
693.9718, 13396.20
694.4539, 13437.25
694.9360, 13478.21
695.4182, 13504.50
695.9003, 13503.83
696.3824, 13465.83
696.8645, 13445.81
697.3466, 13446.74
697.8287, 13457.92
698.3109, 13470.59
698.7930, 13484.19
699.2751, 13494.46
699.7572, 13498.83
700.2393, 13506.15
700.7214, 13532.05
701.2036, 13565.91
701.6857, 13589.76
702.1678, 13583.16
702.6499, 13581.89
703.1320, 13607.33
703.6141, 13647.75
704.0963, 13673.37
704.5784, 13673.16
705.0605, 13673.19
705.5426, 13679.66
706.0247, 13690.59
706.5068, 13696.89
706.9890, 13698.23
707.4711, 13698.15
707.9532, 13698.19
708.4353, 13698.20
708.9174, 13696.92
709.3995, 13694.67
709.8817, 13694.71
710.3638, 13694.49
710.8459, 13700.68
711.3280, 13725.50
711.8101, 13774.20
712.2922, 13805.26
712.7744, 13782.66
713.2565, 13756.74
713.7386, 13765.04
714.2207, 13836.31
714.7028, 13861.57
715.1849, 13820.24
715.6671, 13769.10
716.1492, 13778.52
716.6313, 13842.81
717.1134, 13896.16
717.5955, 13928.00
718.0776, 13942.44
718.5598, 13929.39
719.0419, 13904.13
719.5240, 13896.52
720.0061, 13926.95
720.4882, 13965.34
720.9703, 14010.72
721.4525, 14053.36
721.9346, 14071.09
722.4167, 14035.09
722.8988, 14008.00
723.3809, 14003.09
723.8630, 14015.55
724.3452, 14027.87
724.8273, 14040.60
725.3094, 14048.97
725.7915, 14049.69
726.2736, 14044.68
726.7557, 14030.93
727.2379, 14011.54
727.7200, 14010.88
728.2021, 14068.59
728.6842, 14134.68
729.1663, 14165.88
729.6484, 14157.47
730.1306, 14147.71
730.6127, 14142.53
731.0948, 14143.28
731.5769, 14152.27
732.0590, 14174.01
732.5411, 14184.75
733.0233, 14182.20
733.5054, 14173.79
733.9875, 14160.17
734.4696, 14144.15
734.9517, 14151.01
735.4338, 14186.69
735.9160, 14226.19
736.3981, 14253.17
736.8802, 14264.73
737.3623, 14251.96
737.8444, 14187.78
738.3266, 14147.26
738.8087, 14175.46
739.2908, 14238.73
739.7729, 14288.29
740.2551, 14319.91
740.7372, 14341.31
741.2193, 14349.23
741.7014, 14350.85
742.1835, 14363.75
742.6656, 14388.05
743.1478, 14405.00
743.6299, 14404.62
744.1120, 14398.75
744.5941, 14406.95
745.0762, 14425.56
745.5583, 14443.51
746.0405, 14453.93
746.5226, 14463.34
747.0047, 14474.79
747.4868, 14488.20
747.9689, 14502.51
748.4510, 14519.27
748.9332, 14534.42
749.4153, 14545.57
749.8974, 14553.36
750.3795, 14565.87
750.8616, 14583.32
751.3438, 14603.09
751.8259, 14634.79
752.3080, 14665.16
752.7901, 14650.75
753.2722, 14593.66
753.7543, 14550.42
754.2365, 14570.34
754.7186, 14611.64
755.2007, 14642.60
755.6828, 14658.65
756.1649, 14670.83
756.6470, 14682.93
757.1292, 14690.08
757.6113, 14683.77
758.0934, 14653.09
758.5755, 14665.51
759.0576, 14732.59
759.5397, 14804.54
760.0219, 14824.12
760.5040, 14805.92
760.9861, 14792.88
761.4682, 14790.55
761.9503, 14800.50
762.4324, 14839.67
762.9146, 14885.20
763.3967, 14909.00
763.8788, 14882.99
764.3609, 14869.82
764.8430, 14894.55
765.3251, 14928.72
765.8073, 14936.95
766.2894, 14908.32
766.7715, 14896.93
767.2536, 14911.76
767.7357, 14944.09
768.2178, 14992.02
768.7000, 15047.88
769.1821, 15076.10
769.6642, 15048.82
770.1463, 15017.11
770.6284, 15034.44
771.1105, 15077.84
771.5927, 15102.94
772.0748, 15071.51
772.5569, 15049.02
773.0390, 15058.73
773.5211, 15086.42
774.0032, 15092.44
774.4854, 15066.77
774.9675, 15058.69
775.4496, 15090.21
775.9317, 15142.37
776.4138, 15168.44
776.8959, 15171.38
777.3781, 15168.66
777.8602, 15158.54
778.3423, 15155.31
778.8244, 15175.91
779.3065, 15215.20
779.7886, 15251.15
780.2708, 15287.34
780.7529, 15307.34
781.2350, 15300.66
781.7171, 15271.21
782.1992, 15256.63
782.6813, 15260.04
783.1635, 15266.34
783.6456, 15263.22
784.1277, 15257.79
784.6098, 15280.64
785.0919, 15328.43
785.5740, 15368.99
786.0562, 15377.93
786.5383, 15373.79
787.0204, 15370.00
787.5025, 15367.58
787.9846, 15365.62
788.4667, 15359.67
788.9489, 15358.38
789.4310, 15365.12
789.9131, 15379.91
790.3952, 15405.90
790.8773, 15447.51
791.3594, 15478.87
791.8416, 15464.83
792.3237, 15427.42
792.8058, 15428.36
793.2879, 15470.24
793.7700, 15521.33
794.2521, 15578.25
794.7343, 15622.59
795.2164, 15632.46
795.6985, 15594.94
796.1806, 15572.96
796.6627, 15586.14
797.1448, 15601.90
797.6270, 15594.94
798.1091, 15559.33
798.5912, 15554.50
799.0733, 15586.20
799.5554, 15619.51
800.0375, 15608.14
800.5197, 15577.29
801.0018, 15580.21
801.4839, 15628.02
801.9660, 15675.81
802.4481, 15700.48
802.9302, 15710.68
803.4124, 15712.13
803.8945, 15697.11
804.3766, 15692.05
804.8587, 15696.37
805.3408, 15711.41
805.8229, 15749.25
806.3051, 15809.51
806.7872, 15823.66
807.2693, 15779.19
807.7514, 15729.51
808.2335, 15730.92
808.7156, 15762.42
809.1978, 15794.45
809.6799, 15823.35
810.1620, 15844.06
810.6441, 15851.19
811.1262, 15850.86
811.6083, 15848.07
812.0905, 15836.80
812.5726, 15837.35
813.0547, 15850.54
813.5368, 15874.64
814.0189, 15917.00
814.5010, 15971.81
814.9832, 16000.71
815.4653, 15992.72
815.9474, 15981.26
816.4295, 16002.83
816.9116, 16036.80
817.3937, 16057.41
817.8759, 16053.51
818.3580, 16045.17
818.8401, 16029.51
819.3222, 16015.79
819.8043, 16013.29
820.2864, 16023.89
820.7686, 16037.02
821.2507, 16051.41
821.7328, 16068.91
822.2149, 16105.22
822.6970, 16145.44
823.1791, 16140.90
823.6613, 16059.34
824.1434, 16003.60
824.6255, 16077.76
825.1076, 16199.15
825.5897, 16274.71
826.0718, 16258.46
826.5540, 16234.71
827.0361, 16191.21
827.5182, 16154.65
828.0003, 16159.69
828.4824, 16205.89
828.9645, 16266.77
829.4467, 16346.15
829.9288, 16405.98
830.4109, 16382.28
830.8930, 16317.00
831.3751, 16275.93
831.8572, 16287.20
832.3394, 16299.03
832.8215, 16282.54
833.3036, 16263.96
833.7857, 16272.97
834.2678, 16320.52
834.7499, 16365.74
835.2321, 16409.93
835.7142, 16442.04
836.1963, 16440.34
836.6784, 16413.84
837.1605, 16392.09
837.6426, 16377.93
838.1248, 16382.83
838.6069, 16434.31
839.0890, 16500.95
839.5711, 16547.41
840.0532, 16558.98
840.5353, 16562.66
841.0175, 16556.17
841.4996, 16547.28
841.9817, 16542.67
842.4638, 16542.20
842.9459, 16549.06
843.4280, 16564.01
843.9102, 16583.95
844.3923, 16610.52
844.8744, 16638.23
845.3565, 16659.18
845.8386, 16673.48
846.3207, 16675.24
846.8029, 16641.10
847.2850, 16607.05
847.7671, 16605.99
848.2492, 16654.19
848.7313, 16691.75
849.2134, 16716.49
849.6956, 16735.46
850.1777, 16758.93
850.6598, 16782.89
851.1419, 16787.19
851.6240, 16766.65
852.1061, 16756.04
852.5883, 16788.07
853.0704, 16838.39
853.5525, 16890.16
854.0346, 16951.54
854.5167, 16973.81
854.9988, 16925.57
855.4810, 16876.42
855.9631, 16884.89
856.4452, 16952.38
856.9273, 16979.87
857.4094, 16962.49
857.8915, 16939.41
858.3737, 16944.77
858.8558, 16964.92
859.3379, 16983.60
859.8200, 16998.65
860.3021, 17013.88
860.7842, 17027.49
861.2664, 17044.32
861.7485, 17068.08
862.2306, 17100.27
862.7127, 17128.18
863.1948, 17154.28
863.6769, 17166.22
864.1591, 17136.48
864.6412, 17090.51
865.1233, 17098.04
865.6054, 17156.87
866.0875, 17208.53
866.5696, 17212.81
867.0518, 17203.66
867.5339, 17202.56
868.0160, 17211.44
868.4981, 17212.14
868.9802, 17199.67
869.4623, 17189.09
869.9445, 17185.18
870.4266, 17189.11
870.9087, 17207.89
871.3908, 17241.08
871.8729, 17280.71
872.3550, 17335.94
872.8372, 17384.70
873.3193, 17406.53
873.8014, 17404.32
874.2835, 17395.68
874.7656, 17374.41
875.2477, 17359.44
875.7299, 17356.84
876.2120, 17363.88
876.6941, 17366.71
877.1762, 17365.32
877.6583, 17378.10
878.1404, 17427.67
878.6226, 17480.17
879.1047, 17476.04
879.5869, 17438.39
880.0690, 17426.53
880.5511, 17492.72
881.0332, 17553.53
881.5153, 17586.05
881.9974, 17597.03
882.4796, 17595.91
882.9617, 17579.09
883.4438, 17570.11
883.9259, 17573.88
884.4080, 17589.30
884.8901, 17626.09
885.3723, 17672.38
885.8544, 17699.40
886.3365, 17684.59
886.8186, 17668.88
887.3007, 17672.73
887.7828, 17685.24
888.2650, 17688.21
888.7471, 17666.20
889.2292, 17681.04
889.7113, 17751.35
890.1934, 17829.04
890.6755, 17840.20
891.1577, 17807.28
891.6398, 17806.09
892.1219, 17857.39
892.6040, 17906.23
893.0861, 17907.52
893.5682, 17891.92
894.0504, 17889.11
894.5325, 17912.72
895.0146, 17923.58
895.4967, 17917.38
895.9788, 17906.39
896.4609, 17895.84
896.9431, 17888.03
897.4252, 17900.49
897.9073, 17934.39
898.3894, 17974.29
898.8715, 18018.00
899.3536, 18056.50
899.8358, 18082.21
900.3179, 18093.68
900.8000, 18098.65
901.2821, 18101.33
901.7642, 18092.62
902.2463, 18056.91
902.7285, 18003.44
903.2106, 18008.11
903.6927, 18068.89
904.1748, 18130.89
904.6569, 18157.89
905.1390, 18172.28
905.6212, 18200.93
906.1033, 18238.15
906.5854, 18259.01
907.0675, 18229.54
907.5496, 18216.12
908.0317, 18242.91
908.5139, 18292.91
908.9960, 18310.49
909.4781, 18295.38
909.9602, 18287.44
910.4423, 18303.35
910.9244, 18328.59
911.4066, 18352.88
911.8887, 18372.39
912.3708, 18380.32
912.8529, 18342.90
913.3350, 18335.62
913.8171, 18398.62
914.2993, 18478.03
914.7814, 18490.35
915.2635, 18427.39
915.7456, 18413.85
916.2277, 18476.47
916.7098, 18552.09
917.1920, 18566.71
917.6741, 18546.79
918.1562, 18526.62
918.6383, 18507.99
919.1204, 18509.39
919.6025, 18560.28
920.0847, 18613.88
920.5668, 18639.10
921.0489, 18632.71
921.5310, 18616.88
922.0131, 18589.96
922.4952, 18567.60
922.9774, 18559.58
923.4595, 18565.69
923.9416, 18592.93
924.4237, 18639.40
924.9058, 18676.13
925.3879, 18691.52
925.8701, 18693.79
926.3522, 18677.08
926.8343, 18647.71
927.3164, 18667.50
927.7985, 18744.23
928.2806, 18797.71
928.7628, 18769.07
929.2449, 18716.44
929.7270, 18747.08
930.2091, 18829.62
930.6912, 18879.99
931.1733, 18823.75
931.6555, 18776.40
932.1376, 18766.95
932.6197, 18790.09
933.1018, 18852.50
933.5839, 18966.21
934.0660, 19025.84
934.5482, 19001.65
935.0303, 18952.93
935.5124, 18954.80
935.9945, 18986.52
936.4766, 19011.70
936.9587, 19020.13
937.4409, 19027.16
937.9230, 19038.24
938.4051, 19049.48
938.8872, 19055.02
939.3693, 19050.49
939.8514, 19071.67
940.3336, 19122.04
940.8157, 19171.23
941.2978, 19193.54
941.7799, 19199.21
942.2620, 19200.21
942.7441, 19197.91
943.2263, 19198.24
943.7084, 19204.97
944.1905, 19213.34
944.6726, 19221.21
945.1547, 19228.95
945.6368, 19241.56
946.1190, 19260.02
946.6011, 19267.81
947.0832, 19248.13
947.5653, 19224.24
948.0474, 19227.10
948.5295, 19250.15
949.0117, 19278.17
949.4938, 19311.20
949.9759, 19342.09
950.4580, 19371.48
950.9401, 19396.88
951.4222, 19416.53
951.9044, 19430.74
952.3865, 19419.70
952.8686, 19371.89
953.3507, 19338.79
953.8328, 19400.67
954.3149, 19497.82
954.7971, 19551.57
955.2792, 19532.38
955.7613, 19523.21
956.2434, 19552.34
956.7255, 19576.02
957.2076, 19557.51
957.6898, 19499.19
958.1719, 19496.80
958.6540, 19549.54
959.1361, 19603.13
959.6182, 19614.56
960.1003, 19614.62
960.5825, 19633.10
961.0646, 19667.30
961.5467, 19695.93
962.0288, 19731.20
962.5109, 19730.76
962.9930, 19661.60
963.4752, 19570.10
963.9573, 19595.87
964.4394, 19717.09
964.9215, 19796.54
965.4036, 19769.44
965.8857, 19726.12
966.3679, 19745.38
966.8500, 19789.70
967.3321, 19808.77
967.8142, 19763.50
968.2963, 19753.36
968.7784, 19788.34
969.2606, 19839.25
969.7427, 19886.42
970.2248, 19924.90
970.7069, 19924.27
971.1890, 19882.99
971.6711, 19860.84
972.1533, 19916.41
972.6354, 19988.41
973.1175, 20038.45
973.5996, 20064.75
974.0817, 20082.92
974.5638, 20094.76
975.0460, 20091.15
975.5281, 20062.29
976.0102, 20021.05
976.4923, 19984.36
976.9744, 19957.73
977.4565, 19957.40
977.9387, 20024.86
978.4208, 20079.53
978.9029, 20070.27
979.3850, 20043.18
979.8671, 20065.46
980.3492, 20148.52
980.8314, 20214.06
981.3135, 20253.06
981.7956, 20276.56
982.2777, 20295.64
982.7598, 20308.14
983.2419, 20307.13
983.7241, 20288.97
984.2062, 20280.15
984.6883, 20288.61
985.1704, 20309.23
985.6525, 20344.71
986.1346, 20392.57
986.6168, 20430.96
987.0989, 20459.45
987.5810, 20465.04
988.0631, 20413.49
988.5452, 20357.96
989.0273, 20354.63
989.5095, 20387.21
989.9916, 20413.93
990.4737, 20418.23
990.9558, 20430.63
991.4379, 20458.51
991.9200, 20490.17
992.4022, 20500.89
992.8843, 20498.02
993.3664, 20519.35
993.8485, 20576.58
994.3306, 20626.43
994.8127, 20639.86
995.2949, 20632.05
995.7770, 20606.10
996.2591, 20554.47
996.7412, 20554.29
997.2233, 20618.01
997.7054, 20687.76
998.1876, 20739.42
998.6697, 20767.90
999.1518, 20743.69
999.6339, 20682.43
1000.116, 20646.36
1000.598, 20691.77
1001.080, 20734.06
1001.562, 20744.38
1002.044, 20733.29
1002.527, 20707.08
1003.009, 20661.50
1003.491, 20676.78
1003.973, 20781.44
1004.455, 20889.49
1004.937, 20898.86
1005.419, 20857.27
1005.901, 20817.27
1006.384, 20780.52
1006.866, 20782.58
1007.348, 20854.44
1007.830, 20921.41
1008.312, 20932.70
1008.794, 20901.59
1009.276, 20917.01
1009.758, 20972.05
1010.240, 21010.00
1010.723, 20985.39
1011.205, 20945.43
1011.687, 20902.18
1012.169, 20868.67
1012.651, 20878.55
1013.133, 20951.59
1013.615, 21012.57
1014.097, 21053.19
1014.580, 21070.73
1015.062, 21035.94
1015.544, 20982.27
1016.026, 20984.30
1016.508, 21068.50
1016.990, 21131.88
1017.472, 21103.63
1017.954, 21070.39
1018.436, 21090.21
1018.919, 21158.59
1019.401, 21165.45
1019.883, 21110.60
1020.365, 21073.81
1020.847, 21125.64
1021.329, 21197.11
1021.811, 21211.27
1022.293, 21191.51
1022.776, 21196.62
1023.258, 21261.10
1023.740, 21312.47
1024.222, 21342.29
1024.704, 21359.18
1025.186, 21374.33
1025.668, 21386.36
1026.150, 21388.68
1026.632, 21379.83
1027.115, 21369.62
1027.597, 21354.90
1028.079, 21348.78
1028.561, 21364.65
1029.043, 21400.92
1029.525, 21424.16
1030.007, 21432.17
1030.489, 21442.61
1030.972, 21466.22
1031.454, 21493.64
1031.936, 21519.81
1032.418, 21538.99
1032.900, 21538.68
1033.382, 21487.04
1033.864, 21454.96
1034.346, 21450.25
1034.828, 21465.35
1035.311, 21499.53
1035.793, 21548.66
1036.275, 21578.47
1036.757, 21586.32
1037.239, 21602.13
1037.721, 21674.52
1038.203, 21738.98
1038.685, 21736.22
1039.167, 21674.02
1039.650, 21648.13
1040.132, 21668.60
1040.614, 21679.65
1041.096, 21652.91
1041.578, 21623.47
1042.060, 21659.18
1042.542, 21730.79
1043.024, 21783.80
1043.507, 21794.47
1043.989, 21799.69
1044.471, 21809.40
1044.953, 21812.76
1045.435, 21795.16
1045.917, 21759.53
1046.399, 21744.39
1046.881, 21750.22
1047.364, 21769.35
1047.846, 21812.57
1048.328, 21852.57
1048.810, 21872.23
1049.292, 21871.76
1049.774, 21857.53
1050.256, 21822.60
1050.738, 21799.58
1051.220, 21796.57
1051.703, 21803.61
1052.185, 21804.96
1052.667, 21806.96
1053.149, 21820.05
1053.631, 21846.49
1054.113, 21883.85
1054.595, 21955.15
1055.077, 22009.39
1055.559, 22011.84
1056.042, 21972.76
1056.524, 21965.20
1057.006, 21985.71
1057.488, 22005.95
1057.970, 21994.38
1058.452, 21994.39
1058.934, 22052.72
1059.416, 22135.63
1059.899, 22177.24
1060.381, 22164.37
1060.863, 22151.23
1061.345, 22139.43
1061.827, 22139.51
1062.309, 22179.89
1062.791, 22230.46
1063.273, 22238.62
1063.755, 22201.37
1064.238, 22177.01
1064.720, 22196.87
1065.202, 22210.77
1065.684, 22197.95
1066.166, 22173.76
1066.648, 22187.88
1067.130, 22231.52
1067.612, 22263.12
1068.094, 22261.71
1068.577, 22264.09
1069.059, 22306.21
1069.541, 22353.46
1070.023, 22371.77
1070.505, 22355.66
1070.987, 22337.37
1071.469, 22315.30
1071.951, 22304.11
1072.434, 22314.41
1072.916, 22340.60
1073.398, 22390.06
1073.880, 22451.42
1074.362, 22485.28
1074.844, 22462.57
1075.326, 22446.19
1075.808, 22440.25
1076.291, 22449.45
1076.773, 22495.58
1077.255, 22560.87
1077.737, 22588.97
1078.219, 22570.07
1078.701, 22548.29
1079.183, 22537.11
1079.665, 22538.70
1080.147, 22558.48
1080.630, 22591.30
1081.112, 22604.84
1081.594, 22599.72
1082.076, 22595.03
1082.558, 22595.96
1083.040, 22603.79
1083.522, 22630.10
1084.004, 22659.37
1084.486, 22667.88
1084.969, 22637.72
1085.451, 22634.34
1085.933, 22663.65
1086.415, 22697.63
1086.897, 22715.34
1087.379, 22723.18
1087.861, 22733.21
1088.343, 22743.83
1088.826, 22747.20
1089.308, 22728.46
1089.790, 22718.39
1090.272, 22722.96
1090.754, 22737.76
1091.236, 22760.99
1091.718, 22789.26
1092.200, 22802.50
1092.682, 22795.98
1093.165, 22798.61
1093.647, 22835.98
1094.129, 22881.83
1094.611, 22924.40
1095.093, 22961.89
1095.575, 22980.17
1096.057, 22978.66
1096.539, 22971.78
1097.022, 22963.74
1097.504, 22955.04
1097.986, 22941.76
1098.468, 22930.14
1098.950, 22929.92
1099.432, 22948.43
1099.914, 22961.53
1100.396, 22966.65
1100.879, 22973.88
1101.361, 22999.38
1101.843, 23027.81
1102.325, 23014.34
1102.807, 22974.71
1103.289, 22968.29
1103.771, 23073.78
1104.253, 23134.17
1104.735, 23103.60
1105.218, 23044.18
1105.700, 23045.14
1106.182, 23094.52
1106.664, 23142.67
1107.146, 23184.88
1107.628, 23201.72
1108.110, 23141.39
1108.592, 23093.21
1109.074, 23122.43
1109.557, 23204.53
1110.039, 23240.04
1110.521, 23228.72
1111.003, 23206.97
1111.485, 23179.93
1111.967, 23163.21
1112.449, 23181.33
1112.931, 23212.60
1113.414, 23235.45
1113.896, 23248.63
1114.378, 23240.22
1114.860, 23201.32
1115.342, 23180.16
1115.824, 23215.19
1116.306, 23274.81
1116.788, 23312.63
1117.271, 23334.91
1117.753, 23356.09
1118.235, 23390.44
1118.717, 23407.17
1119.199, 23401.20
1119.681, 23384.23
1120.163, 23357.73
1120.645, 23331.05
1121.127, 23333.89
1121.609, 23365.81
1122.092, 23409.17
1122.574, 23498.50
1123.056, 23540.53
1123.538, 23477.84
1124.020, 23374.61
1124.502, 23373.32
1124.984, 23458.90
1125.466, 23496.35
1125.949, 23455.46
1126.431, 23414.35
1126.913, 23443.90
1127.395, 23479.22
1127.877, 23464.79
1128.359, 23408.88
1128.841, 23379.60
1129.323, 23377.21
1129.806, 23400.73
1130.288, 23462.33
1130.770, 23522.37
1131.252, 23534.43
1131.734, 23523.48
1132.216, 23522.31
1132.698, 23539.56
1133.180, 23548.75
1133.662, 23548.46
1134.145, 23545.74
1134.627, 23532.54
1135.109, 23528.03
1135.591, 23589.11
1136.073, 23682.35
1136.555, 23721.53
1137.037, 23614.51
1137.519, 23555.92
1138.001, 23569.69
1138.484, 23607.29
1138.966, 23613.75
1139.448, 23606.37
1139.930, 23633.60
1140.412, 23693.77
1140.894, 23744.12
1141.376, 23777.25
1141.858, 23782.26
1142.341, 23742.30
1142.823, 23690.02
1143.305, 23693.35
1143.787, 23738.75
1144.269, 23764.24
1144.751, 23758.25
1145.233, 23746.10
1145.715, 23718.52
1146.198, 23714.88
1146.680, 23766.56
1147.162, 23856.93
1147.644, 23903.36
1148.126, 23908.90
1148.608, 23915.92
1149.090, 23946.71
1149.572, 23959.57
1150.054, 23892.22
1150.536, 23813.97
1151.019, 23796.92
1151.501, 23847.97
1151.983, 23870.81
1152.465, 23864.38
1152.947, 23859.31
1153.429, 23877.74
1153.911, 23898.64
1154.393, 23904.01
1154.876, 23803.19
1155.358, 23887.71
1155.840, 23937.08
1156.322, 23953.19
1156.804, 23836.38
1157.286, 23891.20
1157.768, 23877.24
1158.250, 23860.46
1158.733, 23939.44
1159.215, 23841.97
1159.697, 23919.42
1160.179, 23927.05
1160.661, 23966.63
1161.143, 23937.01
1161.625, 23928.77
1162.107, 23989.75
1162.589, 24012.40
1163.072, 23974.83
1163.554, 24016.44
1164.036, 23916.55
1164.518, 23940.84
1165.000, 24018.70
1165.482, 23984.59
1165.964, 24027.47
1166.446, 24041.03
1166.928, 23921.34
1167.411, 24033.40
1167.893, 24045.22
1168.375, 23954.15
1168.857, 24058.26
1169.339, 23981.37
1169.821, 23969.09
1170.303, 24005.42
1170.785, 23991.07
1171.268, 24056.64
1171.750, 24090.70
1172.232, 24104.86
1172.714, 24105.85
1173.196, 24091.30
1173.678, 24075.68
1174.160, 24062.91
1174.642, 24056.05
1175.125, 24094.75
1175.607, 24166.43
1176.089, 24199.56
1176.571, 24123.91
1177.053, 24051.13
1177.535, 24025.41
1178.017, 24029.97
1178.499, 24060.32
1178.981, 24116.00
1179.464, 24138.78
1179.946, 24128.69
1180.428, 24097.99
1180.910, 23999.37
1181.392, 23942.36
1181.874, 24026.15
1182.356, 24168.96
1182.838, 24252.03
1183.320, 24275.08
1183.803, 24249.32
1184.285, 24173.78
1184.767, 24114.39
1185.249, 24135.56
1185.731, 24175.05
1186.213, 24193.95
1186.695, 24196.51
1187.177, 24200.60
1187.660, 24207.38
1188.142, 24192.21
1188.624, 24147.65
1189.106, 24110.06
1189.588, 24106.26
1190.070, 24127.11
1190.552, 24180.71
1191.034, 24257.21
1191.516, 24293.06
1191.999, 24284.32
1192.481, 24271.63
1192.963, 24263.56
1193.445, 24261.33
1193.927, 24273.02
1194.409, 24286.53
1194.891, 24289.13
1195.373, 24279.83
1195.855, 24264.54
1196.338, 24240.80
1196.820, 24233.80
1197.302, 24261.98
1197.784, 24292.99
1198.266, 24284.61
1198.748, 24261.56
1199.230, 24259.03
1199.712, 24287.71
1200.195, 24286.08
1200.677, 24249.95
1201.159, 24211.29
1201.641, 24172.47
1202.123, 24158.33
1202.605, 24222.02
1203.087, 24321.30
1203.569, 24388.41
1204.052, 24413.85
1204.534, 24412.48
1205.016, 24380.15
1205.498, 24345.79
1205.980, 24317.60
1206.462, 24307.35
1206.944, 24349.12
1207.426, 24415.87
1207.908, 24442.25
1208.391, 24412.79
1208.873, 24368.74
1209.355, 24304.69
1209.837, 24262.45
1210.319, 24297.13
1210.801, 24357.90
1211.283, 24384.29
1211.765, 24386.22
1212.247, 24407.12
1212.730, 24465.28
1213.212, 24488.23
1213.694, 24460.12
1214.176, 24436.42
1214.658, 24497.83
1215.140, 24573.90
1215.622, 24572.02
1216.104, 24503.89
1216.587, 24468.32
1217.069, 24482.22
1217.551, 24492.10
1218.033, 24490.72
1218.515, 24477.36
1218.997, 24429.48
1219.479, 24383.94
1219.961, 24388.20
1220.443, 24443.11
1220.926, 24497.88
1221.408, 24557.31
1221.890, 24582.82
1222.372, 24558.57
1222.854, 24521.64
1223.336, 24516.57
1223.818, 24523.61
1224.300, 24519.10
1224.782, 24499.82
1225.265, 24487.48
1225.747, 24482.07
1226.229, 24483.28
1226.711, 24489.75
1227.193, 24506.24
1227.675, 24555.33
1228.157, 24607.90
1228.639, 24630.22
1229.122, 24617.21
1229.604, 24567.67
1230.086, 24469.29
1230.568, 24416.15
1231.050, 24453.96
1231.532, 24532.47
1232.014, 24628.84
1232.496, 24712.33
1232.979, 24736.73
1233.461, 24691.31
1233.943, 24671.90
1234.425, 24680.02
1234.907, 24700.81
1235.389, 24732.98
1235.871, 24765.72
1236.353, 24812.88
1236.835, 24841.54
1237.318, 24791.98
1237.800, 24645.68
1238.282, 24575.90
1238.764, 24585.76
1239.246, 24619.49
1239.728, 24663.48
1240.210, 24696.91
1240.692, 24682.60
1241.175, 24657.11
1241.657, 24676.44
1242.139, 24755.65
1242.621, 24780.22
1243.103, 24749.91
1243.585, 24711.23
1244.067, 24674.46
1244.549, 24658.43
1245.031, 24688.91
1245.514, 24741.53
1245.996, 24781.57
1246.478, 24808.55
1246.960, 24839.06
1247.442, 24872.35
1247.924, 24884.65
1248.406, 24835.04
1248.888, 24788.27
1249.370, 24790.72
1249.853, 24811.15
1250.335, 24806.89
1250.817, 24779.09
1251.299, 24759.09
1251.781, 24748.45
1252.263, 24747.36
1252.745, 24755.08
1253.227, 24773.83
1253.710, 24813.23
1254.192, 24857.21
1254.674, 24893.13
1255.156, 24917.69
1255.638, 24889.03
1256.120, 24811.96
1256.602, 24769.09
1257.084, 24846.19
1257.567, 24913.43
1258.049, 24922.02
1258.531, 24909.36
1259.013, 24936.09
1259.495, 24985.39
1259.977, 24992.30
1260.459, 24954.77
1260.941, 24909.47
1261.423, 24839.69
1261.906, 24815.91
1262.388, 24869.85
1262.870, 24947.16
1263.352, 24970.53
1263.834, 24956.17
1264.316, 24931.98
1264.798, 24903.14
1265.280, 24893.63
1265.762, 24932.44
1266.245, 24953.01
1266.727, 24935.76
1267.209, 24914.47
1267.691, 24950.62
1268.173, 25006.97
1268.655, 25014.81
1269.137, 24971.79
1269.619, 24945.53
1270.102, 24938.06
1270.584, 24967.66
1271.066, 25050.41
1271.548, 25129.08
1272.030, 25113.59
1272.512, 25063.27
1272.994, 25046.52
1273.476, 25068.31
1273.958, 25092.35
1274.441, 25122.05
1274.923, 25126.96
1275.405, 25095.13
1275.887, 25060.84
1276.369, 25062.57
1276.851, 25076.91
1277.333, 25075.73
1277.815, 25064.70
1278.297, 25094.85
1278.780, 25169.31
1279.262, 25211.67
1279.744, 25202.10
1280.226, 25170.49
1280.708, 25115.68
1281.190, 25071.17
1281.672, 25058.92
1282.154, 25076.35
1282.637, 25135.85
1283.119, 25228.99
1283.601, 25267.08
1284.083, 25224.75
1284.565, 25179.86
1285.047, 25188.37
1285.529, 25195.50
1286.011, 25168.51
1286.494, 25125.30
1286.976, 25125.86
1287.458, 25154.29
1287.940, 25150.06
1288.422, 25094.38
1288.904, 25061.27
1289.386, 25100.31
1289.868, 25137.39
1290.350, 25147.69
1290.833, 25143.77
1291.315, 25144.64
1291.797, 25151.83
1292.279, 25171.90
1292.761, 25208.80
1293.243, 25230.87
1293.725, 25223.95
1294.207, 25235.48
1294.689, 25292.60
1295.172, 25348.15
1295.654, 25321.36
1296.136, 25257.27
1296.618, 25209.86
1297.100, 25188.00
1297.582, 25199.81
1298.064, 25254.76
1298.546, 25278.86
1299.029, 25240.99
1299.511, 25190.54
1299.993, 25166.68
1300.475, 25165.27
1300.957, 25194.57
1301.439, 25246.04
1301.921, 25268.39
1302.403, 25262.90
1302.885, 25268.79
1303.368, 25302.39
1303.850, 25325.42
1304.332, 25299.13
1304.814, 25264.54
1305.296, 25243.70
1305.778, 25236.86
1306.260, 25255.41
1306.742, 25289.42
1307.224, 25295.71
1307.707, 25257.97
1308.189, 25224.88
1308.671, 25213.69
1309.153, 25214.81
##END=



