##NAMES=Chabazite-Na
##RRUFFID=R070440
##IDEAL CHEMISTRY=(Na_3_K)Al_4_Si_8_O_24_&#183;11H_2_O
##LOCALITY=Faraglione dei Ciclopi, Aci Castello, Catania Province, Sicily, Italy
##OWNER=RRUFF
##SOURCE=Michael Scott
##DESCRIPTION=Group of colorless blocky crystals associated with phillipsite-Na, R061094
##STATUS=The identification of this mineral is confirmed by single-crystal X-ray diffraction and chemical analysis.
##URL=rruff.info/R070440
##MEASURED CHEMISTRY=Na_2.00_(Ca_0.75_Na_0.25_)_Σ=1_(Si_7.88_Al_4.12_)O_24_·((H_2_O)_11.64_K_0.21_Na_0.15_)_Σ=12_; H_2_O estimated by difference
139.8317, 1657.711
140.3138, 1677.504
140.7960, 1699.423
141.2781, 1729.950
141.7602, 1774.512
142.2423, 1830.935
142.7244, 1892.347
143.2065, 1955.558
143.6887, 2020.006
144.1708, 2073.662
144.6529, 2097.925
145.1350, 2127.981
145.6171, 2190.017
146.0992, 2280.885
146.5814, 2373.042
147.0635, 2443.701
147.5456, 2492.255
148.0277, 2550.541
148.5098, 2626.337
148.9919, 2705.819
149.4741, 2780.722
149.9562, 2850.816
150.4383, 2916.569
150.9204, 2979.378
151.4025, 3038.182
151.8846, 3090.024
152.3668, 3141.886
152.8489, 3182.273
153.3310, 3199.156
153.8131, 3191.292
154.2952, 3169.745
154.7773, 3137.378
155.2595, 3096.816
155.7416, 3059.920
156.2237, 3030.637
156.7058, 3004.858
157.1879, 2976.036
157.6700, 2942.710
158.1522, 2914.478
158.6343, 2902.793
159.1164, 2902.459
159.5985, 2901.914
160.0806, 2894.239
160.5627, 2886.251
161.0449, 2887.619
161.5270, 2899.044
162.0091, 2918.050
162.4912, 2949.731
162.9733, 2987.593
163.4554, 3020.091
163.9376, 3045.450
164.4197, 3062.205
164.9018, 3063.039
165.3839, 3040.439
165.8660, 3023.171
166.3481, 3034.901
166.8303, 3063.395
167.3124, 3089.060
167.7945, 3105.401
168.2766, 3113.546
168.7587, 3114.389
169.2408, 3104.210
169.7230, 3095.162
170.2051, 3096.787
170.6872, 3103.275
171.1693, 3104.932
171.6514, 3093.447
172.1335, 3075.901
172.6157, 3072.457
173.0978, 3092.806
173.5799, 3107.631
174.0620, 3101.507
174.5441, 3082.844
175.0262, 3062.929
175.5084, 3046.025
175.9905, 3032.064
176.4726, 3021.022
176.9547, 3014.321
177.4368, 3008.045
177.9189, 3003.800
178.4010, 2998.349
178.8832, 2986.296
179.3653, 2962.648
179.8474, 2932.700
180.3295, 2911.778
180.8116, 2902.138
181.2937, 2898.545
181.7759, 2906.270
182.2580, 2915.945
182.7401, 2914.627
183.2222, 2894.068
183.7043, 2861.740
184.1864, 2839.398
184.6686, 2833.104
185.1507, 2826.932
185.6328, 2811.375
186.1149, 2795.296
186.5970, 2790.187
187.0791, 2802.710
187.5613, 2825.516
188.0434, 2840.365
188.5255, 2848.904
189.0076, 2844.593
189.4897, 2815.942
189.9718, 2780.302
190.4540, 2756.741
190.9361, 2754.595
191.4182, 2764.350
191.9003, 2762.573
192.3824, 2741.849
192.8645, 2722.183
193.3467, 2704.121
193.8288, 2689.776
194.3109, 2682.083
194.7930, 2682.289
195.2751, 2687.116
195.7572, 2690.403
196.2394, 2695.417
196.7215, 2691.889
197.2036, 2670.828
197.6857, 2646.351
198.1678, 2631.168
198.6499, 2629.431
199.1321, 2635.419
199.6142, 2639.068
200.0963, 2640.654
200.5784, 2638.900
201.0605, 2633.426
201.5426, 2625.484
202.0248, 2615.816
202.5069, 2604.661
202.9890, 2592.284
203.4711, 2578.635
203.9532, 2561.948
204.4353, 2548.194
204.9175, 2538.497
205.3996, 2530.665
205.8817, 2524.455
206.3638, 2519.274
206.8459, 2512.945
207.3280, 2501.740
207.8102, 2482.765
208.2923, 2466.513
208.7744, 2451.686
209.2565, 2440.159
209.7386, 2435.201
210.2207, 2436.041
210.7029, 2437.421
211.1850, 2432.979
211.6671, 2421.056
212.1492, 2409.372
212.6313, 2396.826
213.1134, 2385.468
213.5956, 2377.792
214.0777, 2372.892
214.5598, 2366.771
215.0419, 2353.897
215.5240, 2331.688
216.0061, 2320.533
216.4883, 2336.525
216.9704, 2348.474
217.4525, 2340.417
217.9346, 2317.050
218.4167, 2294.272
218.8988, 2285.968
219.3810, 2292.641
219.8631, 2295.499
220.3452, 2292.435
220.8273, 2287.313
221.3094, 2277.375
221.7915, 2266.160
222.2737, 2260.929
222.7558, 2268.159
223.2379, 2285.987
223.7200, 2293.747
224.2021, 2285.297
224.6842, 2272.285
225.1664, 2253.006
225.6485, 2231.500
226.1306, 2213.480
226.6127, 2202.574
227.0948, 2197.012
227.5770, 2189.189
228.0591, 2175.084
228.5412, 2164.235
229.0233, 2160.498
229.5054, 2159.853
229.9875, 2158.456
230.4697, 2154.683
230.9518, 2147.910
231.4339, 2134.741
231.9160, 2102.832
232.3981, 2087.045
232.8802, 2102.382
233.3624, 2127.375
233.8445, 2144.136
234.3266, 2146.640
234.8087, 2140.254
235.2908, 2133.160
235.7729, 2123.445
236.2551, 2117.766
236.7372, 2117.822
237.2193, 2120.661
237.7014, 2124.991
238.1835, 2130.306
238.6656, 2135.976
239.1478, 2141.954
239.6299, 2149.402
240.1120, 2152.708
240.5941, 2147.174
241.0762, 2141.143
241.5583, 2140.410
242.0405, 2143.971
242.5226, 2145.134
243.0047, 2134.126
243.4868, 2108.806
243.9689, 2097.319
244.4510, 2115.162
244.9332, 2132.904
245.4153, 2138.955
245.8974, 2135.749
246.3795, 2131.547
246.8616, 2132.625
247.3437, 2138.154
247.8259, 2140.381
248.3080, 2136.055
248.7901, 2132.708
249.2722, 2134.118
249.7543, 2137.960
250.2364, 2140.497
250.7186, 2139.760
251.2007, 2136.401
251.6828, 2131.129
252.1649, 2119.810
252.6470, 2115.405
253.1291, 2129.203
253.6113, 2148.327
254.0934, 2158.576
254.5755, 2154.186
255.0576, 2141.659
255.5397, 2129.537
256.0219, 2116.531
256.5040, 2109.081
256.9861, 2113.871
257.4682, 2122.279
257.9503, 2128.175
258.4324, 2130.223
258.9146, 2131.655
259.3967, 2136.472
259.8788, 2144.905
260.3609, 2151.604
260.8430, 2155.594
261.3251, 2157.342
261.8073, 2156.951
262.2894, 2154.533
262.7715, 2151.263
263.2536, 2145.378
263.7357, 2138.320
264.2178, 2140.152
264.7000, 2158.772
265.1821, 2175.691
265.6642, 2176.664
266.1463, 2165.047
266.6284, 2151.330
267.1105, 2135.322
267.5927, 2121.470
268.0748, 2122.256
268.5569, 2142.721
269.0390, 2162.242
269.5211, 2163.358
270.0032, 2153.995
270.4854, 2147.112
270.9675, 2149.725
271.4496, 2153.146
271.9317, 2144.164
272.4138, 2122.229
272.8959, 2106.601
273.3781, 2108.459
273.8602, 2122.545
274.3423, 2138.278
274.8244, 2158.881
275.3065, 2174.426
275.7886, 2174.219
276.2708, 2162.138
276.7529, 2155.181
277.2350, 2162.029
277.7171, 2172.911
278.1992, 2169.307
278.6813, 2147.428
279.1635, 2131.602
279.6456, 2134.180
280.1277, 2147.730
280.6098, 2160.419
281.0919, 2169.947
281.5740, 2176.732
282.0562, 2179.896
282.5383, 2178.841
283.0204, 2181.630
283.5025, 2194.524
283.9846, 2208.248
284.4667, 2212.920
284.9489, 2208.363
285.4310, 2203.374
285.9131, 2205.195
286.3952, 2213.816
286.8773, 2220.917
287.3594, 2223.814
287.8416, 2227.928
288.3237, 2237.357
288.8058, 2250.311
289.2879, 2262.859
289.7700, 2273.660
290.2521, 2281.076
290.7343, 2277.467
291.2164, 2249.561
291.6985, 2227.792
292.1806, 2218.473
292.6627, 2217.131
293.1448, 2218.236
293.6270, 2219.841
294.1091, 2223.658
294.5912, 2233.476
295.0733, 2258.757
295.5554, 2271.407
296.0375, 2260.027
296.5197, 2245.167
297.0018, 2241.129
297.4839, 2249.394
297.9660, 2263.584
298.4481, 2279.054
298.9302, 2298.137
299.4124, 2301.569
299.8945, 2270.747
300.3766, 2243.339
300.8587, 2232.555
301.3408, 2235.370
301.8229, 2244.158
302.3050, 2255.203
302.7871, 2266.760
303.2693, 2268.894
303.7514, 2250.376
304.2335, 2239.116
304.7156, 2244.372
305.1977, 2257.433
305.6798, 2268.968
306.1620, 2275.490
306.6441, 2280.237
307.1262, 2290.026
307.6083, 2308.007
308.0904, 2319.079
308.5725, 2313.394
309.0547, 2304.821
309.5368, 2299.920
310.0189, 2299.815
310.5010, 2304.427
310.9831, 2315.962
311.4652, 2333.589
311.9474, 2348.456
312.4295, 2362.079
312.9116, 2369.161
313.3937, 2362.753
313.8758, 2347.705
314.3579, 2336.600
314.8401, 2332.105
315.3222, 2336.309
315.8043, 2357.959
316.2864, 2401.038
316.7685, 2437.886
317.2506, 2448.564
317.7328, 2444.666
318.2149, 2446.266
318.6970, 2460.785
319.1791, 2472.042
319.6612, 2462.133
320.1433, 2436.654
320.6255, 2420.930
321.1076, 2424.751
321.5897, 2440.222
322.0718, 2457.648
322.5539, 2478.648
323.0360, 2492.656
323.5182, 2491.100
324.0003, 2483.302
324.4824, 2480.223
324.9645, 2483.724
325.4466, 2493.435
325.9287, 2511.921
326.4109, 2540.479
326.8930, 2554.020
327.3751, 2539.074
327.8572, 2522.155
328.3393, 2517.467
328.8214, 2523.343
329.3036, 2532.589
329.7857, 2541.350
330.2678, 2549.656
330.7499, 2557.361
331.2320, 2572.973
331.7141, 2577.354
332.1963, 2557.315
332.6784, 2530.181
333.1605, 2515.348
333.6426, 2518.420
334.1247, 2529.926
334.6068, 2536.034
335.0890, 2534.769
335.5711, 2533.191
336.0532, 2528.143
336.5353, 2525.554
337.0174, 2533.359
337.4995, 2547.366
337.9817, 2554.686
338.4638, 2543.934
338.9459, 2517.146
339.4280, 2491.200
339.9101, 2456.676
340.3922, 2438.576
340.8744, 2459.039
341.3565, 2492.647
341.8386, 2504.925
342.3207, 2480.512
342.8028, 2442.548
343.2849, 2428.081
343.7671, 2441.515
344.2492, 2446.651
344.7313, 2427.319
345.2134, 2402.443
345.6955, 2385.252
346.1776, 2376.571
346.6598, 2374.789
347.1419, 2388.526
347.6240, 2408.289
348.1061, 2403.056
348.5882, 2362.042
349.0703, 2320.141
349.5525, 2309.409
350.0346, 2320.408
350.5167, 2325.996
350.9988, 2313.306
351.4809, 2299.970
351.9630, 2304.527
352.4452, 2323.106
352.9273, 2335.158
353.4094, 2330.626
353.8915, 2314.065
354.3736, 2295.977
354.8557, 2274.058
355.3379, 2255.700
355.8200, 2240.767
356.3021, 2231.080
356.7842, 2231.415
357.2663, 2242.122
357.7484, 2255.261
358.2306, 2262.392
358.7127, 2263.153
359.1948, 2258.942
359.6769, 2243.026
360.1590, 2229.564
360.6411, 2227.243
361.1233, 2232.274
361.6054, 2235.805
362.0875, 2232.542
362.5696, 2224.218
363.0517, 2217.251
363.5338, 2213.750
364.0160, 2208.121
364.4981, 2194.607
364.9802, 2182.062
365.4623, 2180.664
365.9444, 2191.421
366.4265, 2202.777
366.9087, 2198.936
367.3908, 2178.410
367.8729, 2167.883
368.3550, 2177.783
368.8371, 2186.602
369.3192, 2180.390
369.8014, 2164.723
370.2835, 2153.158
370.7656, 2152.086
371.2477, 2158.665
371.7298, 2171.253
372.2119, 2191.110
372.6941, 2204.431
373.1762, 2202.247
373.6583, 2191.672
374.1404, 2183.697
374.6225, 2178.851
375.1046, 2175.843
375.5868, 2177.065
376.0689, 2179.183
376.5510, 2173.020
377.0331, 2155.489
377.5152, 2139.388
377.9973, 2139.678
378.4795, 2158.576
378.9616, 2169.576
379.4437, 2163.046
379.9258, 2156.916
380.4079, 2165.882
380.8900, 2184.517
381.3722, 2195.782
381.8543, 2189.759
382.3364, 2172.601
382.8185, 2162.925
383.3006, 2171.632
383.7827, 2173.725
384.2649, 2160.946
384.7470, 2146.458
385.2291, 2141.903
385.7112, 2148.481
386.1933, 2158.731
386.6754, 2166.033
387.1576, 2170.550
387.6397, 2168.142
388.1218, 2150.054
388.6039, 2135.042
389.0860, 2129.819
389.5681, 2131.400
390.0503, 2135.005
390.5324, 2138.693
391.0145, 2143.287
391.4966, 2150.749
391.9787, 2161.446
392.4608, 2171.555
392.9430, 2182.589
393.4251, 2190.017
393.9072, 2187.630
394.3893, 2175.583
394.8714, 2166.274
395.3535, 2167.397
395.8357, 2174.557
396.3178, 2180.285
396.7999, 2183.802
397.2820, 2188.664
397.7641, 2198.264
398.2462, 2211.340
398.7284, 2221.169
399.2105, 2224.421
399.6926, 2228.133
400.1747, 2239.203
400.6568, 2251.546
401.1389, 2252.227
401.6211, 2236.902
402.1032, 2218.239
402.5853, 2215.438
403.0674, 2235.400
403.5495, 2250.841
404.0316, 2259.795
404.5138, 2266.878
404.9959, 2273.242
405.4780, 2279.753
405.9601, 2288.101
406.4422, 2299.844
406.9243, 2313.109
407.4065, 2320.881
407.8886, 2321.186
408.3707, 2319.859
408.8528, 2314.820
409.3349, 2310.816
409.8170, 2313.427
410.2992, 2322.912
410.7813, 2331.290
411.2634, 2330.836
411.7455, 2323.094
412.2276, 2315.286
412.7097, 2306.789
413.1919, 2300.924
413.6740, 2304.279
414.1561, 2311.661
414.6382, 2311.856
415.1203, 2295.844
415.6024, 2280.599
416.0846, 2282.269
416.5667, 2295.297
417.0488, 2301.253
417.5309, 2292.678
418.0130, 2279.276
418.4951, 2276.307
418.9773, 2288.821
419.4594, 2294.488
419.9415, 2284.304
420.4236, 2273.825
420.9057, 2276.095
421.3878, 2287.969
421.8700, 2297.029
422.3521, 2295.109
422.8342, 2284.494
423.3163, 2274.030
423.7984, 2251.695
424.2805, 2249.651
424.7627, 2290.305
425.2448, 2337.766
425.7269, 2361.943
426.2090, 2359.323
426.6911, 2347.840
427.1732, 2340.301
427.6554, 2337.195
428.1375, 2347.463
428.6196, 2380.433
429.1017, 2408.758
429.5838, 2412.250
430.0659, 2403.971
430.5481, 2402.660
431.0302, 2412.943
431.5123, 2430.526
431.9944, 2457.867
432.4765, 2490.592
432.9586, 2510.242
433.4408, 2508.860
433.9229, 2504.466
434.4050, 2520.524
434.8871, 2559.746
435.3692, 2589.904
435.8513, 2603.997
436.3335, 2613.255
436.8156, 2620.955
437.2977, 2629.499
437.7798, 2643.715
438.2619, 2666.234
438.7440, 2694.846
439.2262, 2724.150
439.7083, 2756.464
440.1904, 2785.022
440.6725, 2802.966
441.1546, 2823.317
441.6367, 2860.132
442.1189, 2908.800
442.6010, 2949.705
443.0831, 2963.951
443.5652, 2960.339
444.0473, 2974.705
444.5294, 3013.808
445.0116, 3051.996
445.4937, 3078.399
445.9758, 3099.864
446.4579, 3120.362
446.9400, 3139.067
447.4221, 3166.564
447.9043, 3223.392
448.3864, 3290.913
448.8685, 3323.016
449.3506, 3311.261
449.8327, 3299.588
450.3148, 3324.990
450.7970, 3383.158
451.2791, 3425.386
451.7612, 3437.959
452.2433, 3451.835
452.7254, 3475.817
453.2076, 3507.600
453.6897, 3546.338
454.1718, 3590.945
454.6539, 3634.480
455.1360, 3668.127
455.6181, 3691.103
456.1003, 3708.430
456.5824, 3707.216
457.0645, 3713.500
457.5466, 3739.982
458.0287, 3778.128
458.5108, 3814.517
458.9930, 3843.808
459.4751, 3868.118
459.9572, 3888.218
460.4393, 3903.878
460.9214, 3926.624
461.4035, 3963.151
461.8857, 4001.263
462.3678, 4030.949
462.8499, 4053.115
463.3320, 4071.707
463.8141, 4080.666
464.2962, 4092.203
464.7784, 4118.355
465.2605, 4156.904
465.7426, 4199.023
466.2247, 4241.266
466.7068, 4283.657
467.1889, 4325.649
467.6711, 4367.968
468.1532, 4408.357
468.6353, 4447.656
469.1174, 4484.424
469.5995, 4515.806
470.0816, 4543.551
470.5638, 4571.028
471.0459, 4599.820
471.5280, 4631.717
472.0101, 4674.643
472.4922, 4734.277
472.9743, 4788.677
473.4565, 4825.307
473.9386, 4860.656
474.4207, 4905.393
474.9028, 4959.655
475.3849, 5017.186
475.8670, 5081.229
476.3492, 5143.481
476.8313, 5187.609
477.3134, 5213.036
477.7955, 5235.472
478.2776, 5262.051
478.7597, 5291.077
479.2419, 5319.575
479.7240, 5350.349
480.2061, 5373.746
480.6882, 5379.385
481.1703, 5382.585
481.6524, 5401.112
482.1346, 5433.097
482.6167, 5461.723
483.0988, 5475.170
483.5809, 5474.119
484.0630, 5461.212
484.5451, 5423.034
485.0273, 5395.197
485.5094, 5388.600
485.9915, 5388.849
486.4736, 5385.055
486.9557, 5375.925
487.4378, 5366.365
487.9200, 5364.801
488.4021, 5365.550
488.8842, 5351.936
489.3663, 5323.741
489.8484, 5280.701
490.3305, 5212.740
490.8127, 5134.784
491.2948, 5079.947
491.7769, 5058.539
492.2590, 5029.826
492.7411, 4969.721
493.2232, 4901.307
493.7054, 4853.251
494.1875, 4826.638
494.6696, 4802.490
495.1517, 4767.419
495.6338, 4721.807
496.1159, 4666.569
496.5981, 4590.146
497.0802, 4520.616
497.5623, 4472.439
498.0444, 4423.641
498.5265, 4350.240
499.0086, 4253.490
499.4908, 4160.838
499.9729, 4098.932
500.4550, 4058.944
500.9371, 4008.212
501.4192, 3944.583
501.9013, 3878.659
502.3835, 3812.260
502.8656, 3747.590
503.3477, 3689.315
503.8298, 3639.892
504.3119, 3587.672
504.7940, 3527.952
505.2762, 3463.501
505.7583, 3393.687
506.2404, 3320.754
506.7225, 3259.652
507.2046, 3222.855
507.6867, 3201.646
508.1689, 3157.832
508.6510, 3063.982
509.1331, 2987.155
509.6152, 2941.533
510.0973, 2905.115
510.5794, 2864.948
511.0616, 2818.847
511.5437, 2767.944
512.0258, 2709.296
512.5079, 2648.907
512.9901, 2604.794
513.4722, 2579.878
513.9543, 2555.650
514.4364, 2528.226
514.9185, 2496.118
515.4006, 2452.497
515.8828, 2394.940
516.3649, 2355.384
516.8470, 2366.362
517.3291, 2382.574
517.8112, 2356.731
518.2933, 2295.518
518.7755, 2234.826
519.2576, 2193.633
519.7397, 2165.454
520.2218, 2134.801
520.7039, 2097.189
521.1860, 2065.658
521.6682, 2039.977
522.1503, 2019.799
522.6324, 2007.908
523.1145, 2001.284
523.5966, 1993.742
524.0787, 1982.620
524.5609, 1967.543
525.0430, 1945.437
525.5251, 1916.379
526.0072, 1893.236
526.4893, 1881.931
526.9714, 1872.717
527.4536, 1851.838
527.9357, 1821.278
528.4178, 1801.409
528.8999, 1804.177
529.3820, 1809.382
529.8641, 1805.167
530.3463, 1794.727
530.8284, 1784.831
531.3105, 1777.767
531.7926, 1771.598
532.2747, 1763.695
532.7568, 1753.836
533.2390, 1743.332
533.7211, 1727.891
534.2032, 1716.911
534.6853, 1715.520
535.1674, 1719.316
535.6495, 1724.013
536.1317, 1729.069
536.6138, 1728.417
537.0959, 1710.610
537.5780, 1682.361
538.0601, 1666.916
538.5422, 1668.237
539.0244, 1673.392
539.5065, 1674.842
539.9886, 1672.528
540.4707, 1666.448
540.9528, 1651.605
541.4349, 1640.175
541.9171, 1638.983
542.3992, 1639.482
542.8813, 1631.898
543.3634, 1616.596
543.8455, 1601.845
544.3276, 1593.755
544.8098, 1591.956
545.2919, 1596.597
545.7740, 1612.605
546.2561, 1621.475
546.7382, 1612.849
547.2203, 1599.358
547.7024, 1591.536
548.1845, 1589.042
548.6666, 1582.802
549.1487, 1560.725
549.6309, 1538.741
550.1130, 1539.414
550.5951, 1557.343
551.0772, 1567.502
551.5593, 1559.359
552.0414, 1541.981
552.5236, 1529.553
553.0057, 1522.589
553.4878, 1519.022
553.9699, 1518.337
554.4520, 1521.036
554.9341, 1534.274
555.4163, 1548.884
555.8984, 1549.632
556.3805, 1530.667
556.8626, 1504.376
557.3447, 1480.565
557.8268, 1460.678
558.3090, 1459.433
558.7911, 1483.445
559.2732, 1509.832
559.7553, 1527.542
560.2374, 1535.158
560.7195, 1530.097
561.2017, 1502.397
561.6838, 1479.466
562.1659, 1468.743
562.6480, 1467.703
563.1301, 1478.370
563.6122, 1497.562
564.0944, 1513.684
564.5765, 1518.749
565.0586, 1513.506
565.5407, 1498.187
566.0228, 1462.373
566.5049, 1442.907
566.9871, 1466.262
567.4692, 1491.765
567.9513, 1490.136
568.4334, 1466.240
568.9155, 1447.829
569.3976, 1451.695
569.8798, 1461.471
570.3619, 1458.651
570.8440, 1447.461
571.3261, 1442.593
571.8082, 1448.771
572.2903, 1460.479
572.7725, 1472.610
573.2546, 1486.443
573.7367, 1488.559
574.2188, 1464.444
574.7009, 1446.563
575.1830, 1449.076
575.6652, 1458.849
576.1473, 1460.467
576.6294, 1450.818
577.1115, 1438.930
577.5936, 1431.852
578.0757, 1429.085
578.5579, 1429.299
579.0400, 1432.623
579.5221, 1437.913
580.0042, 1446.066
580.4863, 1454.635
580.9684, 1457.787
581.4506, 1453.531
581.9327, 1453.125
582.4148, 1464.081
582.8969, 1473.932
583.3790, 1475.260
583.8611, 1468.765
584.3433, 1455.198
584.8254, 1434.833
585.3075, 1415.060
585.7896, 1408.708
586.2717, 1416.980
586.7538, 1425.680
587.2360, 1437.823
587.7181, 1444.305
588.2002, 1433.088
588.6823, 1414.653
589.1644, 1407.480
589.6465, 1419.176
590.1287, 1428.378
590.6108, 1421.121
591.0929, 1407.584
591.5750, 1400.264
592.0571, 1400.070
592.5392, 1402.437
593.0214, 1404.421
593.5035, 1406.666
593.9856, 1412.111
594.4677, 1425.281
594.9498, 1430.811
595.4319, 1420.708
595.9141, 1408.662
596.3962, 1400.281
596.8783, 1395.413
597.3604, 1392.717
597.8425, 1391.809
598.3246, 1392.747
598.8068, 1397.427
599.2889, 1403.848
599.7710, 1406.761
600.2531, 1405.159
600.7352, 1400.993
601.2173, 1395.416
601.6995, 1388.780
602.1816, 1384.006
602.6637, 1384.294
603.1458, 1382.031
603.6279, 1372.037
604.1100, 1362.959
604.5922, 1363.135
605.0743, 1370.850
605.5564, 1377.004
606.0385, 1376.210
606.5206, 1371.289
607.0027, 1365.894
607.4849, 1360.045
607.9670, 1353.693
608.4491, 1346.458
608.9312, 1339.960
609.4133, 1335.418
609.8954, 1332.858
610.3776, 1334.066
610.8597, 1342.193
611.3418, 1349.702
611.8239, 1357.833
612.3060, 1362.660
612.7881, 1358.070
613.2703, 1345.043
613.7524, 1332.161
614.2345, 1326.001
614.7166, 1324.495
615.1987, 1323.673
615.6808, 1323.710
616.1630, 1319.857
616.6451, 1308.893
617.1272, 1296.908
617.6093, 1290.987
618.0914, 1291.272
618.5735, 1291.450
619.0557, 1291.283
619.5378, 1290.976
620.0199, 1290.715
620.5020, 1290.304
620.9841, 1287.156
621.4662, 1282.203
621.9484, 1283.588
622.4305, 1302.848
622.9126, 1332.525
623.3947, 1340.998
623.8768, 1324.747
624.3589, 1307.204
624.8411, 1292.598
625.3232, 1282.839
625.8053, 1282.920
626.2874, 1292.172
626.7695, 1297.976
627.2516, 1291.243
627.7338, 1288.619
628.2159, 1306.076
628.6980, 1329.890
629.1801, 1338.758
629.6622, 1328.572
630.1443, 1311.320
630.6265, 1296.156
631.1086, 1284.431
631.5907, 1285.759
632.0728, 1304.505
632.5549, 1319.114
633.0370, 1320.989
633.5192, 1318.007
634.0013, 1319.593
634.4834, 1325.402
634.9655, 1328.010
635.4476, 1318.296
635.9297, 1313.051
636.4119, 1329.785
636.8940, 1354.184
637.3761, 1361.085
637.8582, 1346.094
638.3403, 1328.076
638.8224, 1326.372
639.3046, 1337.907
639.7867, 1343.797
640.2688, 1342.768
640.7509, 1340.781
641.2330, 1340.736
641.7151, 1339.163
642.1973, 1329.629
642.6794, 1313.235
643.1615, 1304.818
643.6436, 1317.088
644.1257, 1327.762
644.6078, 1319.570
645.0900, 1303.860
645.5721, 1299.515
646.0542, 1309.609
646.5363, 1321.937
647.0184, 1325.443
647.5005, 1321.534
647.9827, 1315.851
648.4648, 1307.298
648.9469, 1301.479
649.4290, 1299.722
649.9111, 1301.375
650.3932, 1307.832
650.8754, 1318.027
651.3575, 1324.255
651.8396, 1323.866
652.3217, 1320.830
652.8038, 1313.472
653.2859, 1306.296
653.7681, 1307.964
654.2502, 1317.913
654.7323, 1324.221
655.2144, 1315.632
655.6965, 1298.266
656.1786, 1295.168
656.6608, 1310.224
657.1429, 1314.421
657.6250, 1295.227
658.1071, 1272.927
658.5892, 1266.666
659.0714, 1273.250
659.5535, 1279.212
660.0356, 1285.793
660.5177, 1288.548
660.9998, 1281.853
661.4819, 1273.206
661.9641, 1271.385
662.4462, 1276.054
662.9283, 1280.964
663.4104, 1282.387
663.8925, 1280.277
664.3746, 1272.517
664.8568, 1258.764
665.3389, 1250.932
665.8210, 1251.701
666.3031, 1256.694
666.7852, 1264.249
667.2673, 1273.438
667.7495, 1280.386
668.2316, 1285.101
668.7137, 1287.583
669.1958, 1288.734
669.6779, 1286.913
670.1600, 1277.664
670.6422, 1264.364
671.1243, 1256.654
671.6064, 1259.895
672.0885, 1265.947
672.5706, 1261.177
673.0527, 1247.798
673.5349, 1242.838
674.0170, 1249.181
674.4991, 1256.501
674.9812, 1259.243
675.4633, 1258.388
675.9454, 1256.238
676.4276, 1251.670
676.9097, 1248.256
677.3918, 1246.708
677.8739, 1245.698
678.3560, 1244.598
678.8381, 1243.550
679.3203, 1242.569
679.8024, 1241.667
680.2845, 1242.042
680.7666, 1247.037
681.2487, 1253.601
681.7308, 1253.230
682.2130, 1245.989
682.6951, 1239.214
683.1772, 1235.844
683.6593, 1235.224
684.1414, 1236.830
684.6235, 1241.654
685.1057, 1243.401
685.5878, 1237.197
686.0699, 1233.792
686.5520, 1240.215
687.0341, 1247.990
687.5162, 1246.189
687.9984, 1234.514
688.4805, 1225.780
688.9626, 1231.321
689.4447, 1240.387
689.9268, 1240.498
690.4089, 1233.917
690.8911, 1227.049
691.3732, 1221.702
691.8553, 1217.316
692.3374, 1213.109
692.8195, 1209.394
693.3016, 1209.220
693.7838, 1213.805
694.2659, 1219.369
694.7480, 1230.662
695.2301, 1237.697
695.7122, 1228.147
696.1943, 1207.729
696.6765, 1198.426
697.1586, 1213.903
697.6407, 1229.190
698.1228, 1231.217
698.6049, 1225.411
699.0870, 1216.827
699.5692, 1207.032
700.0513, 1197.305
700.5334, 1188.109
701.0155, 1180.943
701.4976, 1179.623
701.9797, 1184.431
702.4619, 1189.066
702.9440, 1193.009
703.4261, 1196.478
703.9082, 1197.577
704.3903, 1199.125
704.8724, 1209.773
705.3546, 1237.188
705.8367, 1251.243
706.3188, 1235.945
706.8009, 1218.118
707.2830, 1213.518
707.7651, 1217.614
708.2473, 1222.992
708.7294, 1226.924
709.2115, 1225.926
709.6936, 1210.747
710.1757, 1189.574
710.6578, 1185.113
711.1400, 1196.778
711.6221, 1210.774
712.1042, 1223.645
712.5863, 1230.661
713.0684, 1224.107
713.5505, 1202.926
714.0327, 1190.738
714.5148, 1192.325
714.9969, 1196.762
715.4790, 1207.573
715.9611, 1216.453
716.4432, 1213.073
716.9254, 1200.536
717.4075, 1195.131
717.8896, 1211.510
718.3717, 1225.486
718.8538, 1210.266
719.3359, 1182.486
719.8181, 1172.121
720.3002, 1181.354
720.7823, 1193.134
721.2644, 1196.367
721.7465, 1193.262
722.2286, 1187.671
722.7108, 1178.408
723.1929, 1175.871
723.6750, 1185.550
724.1571, 1192.406
724.6392, 1181.104
725.1213, 1164.144
725.6035, 1169.805
726.0856, 1208.840
726.5677, 1232.862
727.0498, 1223.750
727.5319, 1206.864
728.0140, 1192.451
728.4962, 1182.365
728.9783, 1180.852
729.4604, 1187.655
729.9425, 1190.137
730.4246, 1170.764
730.9067, 1141.444
731.3889, 1132.278
731.8710, 1140.872
732.3531, 1143.261
732.8352, 1131.552
733.3173, 1117.885
733.7994, 1114.629
734.2816, 1121.099
734.7637, 1128.370
735.2458, 1139.240
735.7279, 1146.200
736.2100, 1144.754
736.6921, 1142.729
737.1743, 1146.297
737.6564, 1153.162
738.1385, 1155.906
738.6206, 1149.664
739.1027, 1146.197
739.5848, 1156.916
740.0670, 1170.746
740.5491, 1173.753
741.0312, 1167.581
741.5133, 1161.682
741.9954, 1160.514
742.4775, 1161.018
742.9597, 1157.719
743.4418, 1151.235
743.9239, 1151.501
744.4060, 1160.377
744.8881, 1165.841
745.3702, 1161.191
745.8524, 1154.115
746.3345, 1155.745
746.8166, 1167.468
747.2987, 1174.995
747.7808, 1178.395
748.2629, 1177.876
748.7451, 1170.639
749.2272, 1161.630
749.7093, 1154.086
750.1914, 1148.830
750.6735, 1146.729
751.1556, 1148.597
751.6378, 1153.026
752.1199, 1161.539
752.6020, 1170.702
753.0841, 1172.087
753.5662, 1166.143
754.0483, 1162.398
754.5305, 1166.609
755.0126, 1174.908
755.4947, 1180.702
755.9768, 1184.246
756.4589, 1181.065
756.9410, 1166.000
757.4232, 1157.590
757.9053, 1169.778
758.3874, 1188.599
758.8695, 1191.496
759.3516, 1177.086
759.8337, 1164.890
760.3159, 1154.923
760.7980, 1149.232
761.2801, 1151.998
761.7622, 1157.191
762.2443, 1157.697
762.7264, 1153.732
763.2086, 1151.405
763.6907, 1154.695
764.1728, 1160.185
764.6549, 1165.330
765.1370, 1169.359
765.6191, 1172.371
766.1013, 1173.505
766.5834, 1163.021
767.0655, 1132.742
767.5476, 1097.212
768.0297, 1091.451
768.5118, 1122.380
768.9940, 1140.878
769.4761, 1141.993
769.9582, 1139.707
770.4403, 1139.797
770.9224, 1139.857
771.4045, 1135.475
771.8867, 1126.109
772.3688, 1119.896
772.8509, 1121.328
773.3330, 1121.835
773.8151, 1117.467
774.2972, 1110.946
774.7794, 1104.432
775.2615, 1098.677
775.7436, 1093.991
776.2257, 1088.806
776.7078, 1088.477
777.1899, 1106.879
777.6721, 1132.825
778.1542, 1135.833
778.6363, 1115.562
779.1184, 1101.088
779.6005, 1109.572
780.0826, 1126.870
780.5648, 1123.811
781.0469, 1096.744
781.5290, 1087.787
782.0111, 1104.121
782.4932, 1119.537
782.9753, 1124.400
783.4575, 1123.292
783.9396, 1120.451
784.4217, 1115.746
784.9038, 1114.850
785.3859, 1123.443
785.8680, 1128.829
786.3502, 1124.888
786.8323, 1118.498
787.3144, 1116.055
787.7965, 1116.702
788.2786, 1114.969
788.7607, 1107.203
789.2429, 1100.941
789.7250, 1104.752
790.2071, 1113.025
790.6892, 1118.365
791.1713, 1119.666
791.6534, 1114.845
792.1356, 1102.960
792.6177, 1090.530
793.0998, 1087.086
793.5819, 1091.534
794.0640, 1092.737
794.5461, 1090.129
795.0283, 1088.061
795.5104, 1088.438
795.9925, 1088.263
796.4746, 1084.066
796.9567, 1076.355
797.4388, 1070.775
797.9210, 1068.498
798.4031, 1066.758
798.8852, 1068.853
799.3673, 1068.074
799.8494, 1056.588
800.3315, 1040.608
800.8137, 1032.651
801.2958, 1036.720
801.7779, 1040.749
802.2600, 1038.273
802.7421, 1033.485
803.2242, 1029.964
803.7064, 1027.085
804.1885, 1021.457
804.6706, 1013.310
805.1527, 1010.387
805.6348, 1022.305
806.1169, 1039.525
806.5991, 1040.572
807.0812, 1027.214
807.5633, 1011.325
808.0454, 994.5365
808.5275, 981.1600
809.0096, 974.2091
809.4918, 972.1154
809.9739, 971.2059
810.4560, 971.6501
810.9381, 972.6592
811.4202, 974.2766
811.9023, 976.4327
812.3845, 981.0922
812.8666, 984.9354
813.3487, 984.0887
813.8308, 978.5291
814.3129, 970.9378
814.7950, 954.3572
815.2772, 945.1742
815.7593, 956.6260
816.2414, 971.9185
816.7235, 975.4927
817.2056, 968.8223
817.6877, 961.1505
818.1699, 955.7319
818.6520, 953.0953
819.1341, 955.6383
819.6162, 960.1071
820.0983, 961.0291
820.5804, 959.1314
821.0626, 958.4426
821.5447, 960.3317
822.0268, 962.2166
822.5089, 960.6801
822.9910, 957.0753
823.4731, 959.3219
823.9553, 968.1228
824.4374, 966.3088
824.9195, 947.2600
825.4016, 929.6611
825.8837, 928.8770
826.3658, 939.3443
826.8480, 942.3357
827.3301, 934.9720
827.8122, 926.5638
828.2943, 907.8210
828.7764, 899.6747
829.2585, 920.1712
829.7407, 948.8452
830.2228, 960.5308
830.7049, 953.8009
831.1870, 946.7806
831.6691, 942.3612
832.1512, 940.2310
832.6334, 942.3181
833.1155, 945.0979
833.5976, 943.9660
834.0797, 940.1653
834.5618, 939.5757
835.0439, 945.7126
835.5261, 950.5647
836.0082, 943.4001
836.4903, 931.9042
836.9724, 931.9067
837.4545, 939.6519
837.9366, 935.4244
838.4188, 913.5725
838.9009, 895.1912
839.3830, 905.2875
839.8651, 934.3261
840.3472, 946.3671
840.8293, 941.0763
841.3115, 936.4391
841.7936, 936.1617
842.2757, 933.1959
842.7578, 920.4777
843.2399, 904.7216
843.7220, 903.6537
844.2042, 922.8693
844.6863, 938.6929
845.1684, 957.6657
845.6505, 963.4764
846.1326, 934.4319
846.6147, 900.8934
847.0969, 895.3842
847.5790, 915.9620
848.0611, 932.2159
848.5432, 944.8423
849.0253, 946.2084
849.5074, 918.8947
849.9896, 893.2620
850.4717, 897.0059
850.9538, 920.1970
851.4359, 939.7990
851.9180, 949.1969
852.4001, 949.3016
852.8823, 933.5584
853.3644, 914.9133
853.8465, 905.9167
854.3286, 904.9507
854.8107, 909.1191
855.2928, 916.8591
855.7750, 925.7311
856.2571, 935.4636
856.7392, 940.7961
857.2213, 927.3483
857.7034, 900.7258
858.1855, 886.7066
858.6677, 887.4934
859.1498, 892.0262
859.6319, 895.6055
860.1140, 897.3775
860.5961, 895.4512
861.0782, 890.0903
861.5604, 889.2785
862.0425, 895.2902
862.5246, 895.8146
863.0067, 883.2090
863.4888, 874.7466
863.9709, 889.5894
864.4531, 917.8786
864.9352, 922.6750
865.4173, 884.5962
865.8994, 863.5538
866.3815, 869.6438
866.8636, 879.8422
867.3458, 891.5446
867.8279, 899.7786
868.3100, 895.7010
868.7921, 880.2876
869.2742, 872.1259
869.7563, 880.3214
870.2385, 890.9257
870.7206, 903.8054
871.2027, 912.5217
871.6848, 907.4989
872.1669, 894.3060
872.6490, 886.1788
873.1312, 887.6145
873.6133, 891.7465
874.0954, 893.1577
874.5775, 895.0389
875.0596, 905.2017
875.5417, 917.4011
876.0239, 914.4657
876.5060, 896.6028
876.9881, 885.8268
877.4702, 898.7602
877.9523, 919.3026
878.4344, 920.2462
878.9166, 906.5997
879.3987, 895.8051
879.8808, 889.2766
880.3629, 887.6541
880.8450, 891.5305
881.3271, 895.4501
881.8093, 891.9647
882.2914, 883.1312
882.7735, 883.3747
883.2556, 894.4455
883.7377, 901.9056
884.2198, 903.9512
884.7020, 899.5019
885.1841, 884.5018
885.6662, 866.4326
886.1483, 862.4964
886.6304, 876.7674
887.1125, 886.8771
887.5947, 891.7706
888.0768, 894.1047
888.5589, 892.8138
889.0410, 890.7523
889.5231, 891.2176
890.0052, 893.2210
890.4874, 892.0157
890.9695, 883.3550
891.4516, 878.6279
891.9337, 881.7410
892.4158, 886.5628
892.8979, 893.2459
893.3801, 897.8448
893.8622, 893.2274
894.3443, 879.4729
894.8264, 869.0934
895.3085, 869.9860
895.7906, 872.0151
896.2728, 870.9966
896.7549, 867.4638
897.2370, 859.7607
897.7191, 850.3987
898.2012, 845.1802
898.6833, 846.1924
899.1655, 849.7220
899.6476, 852.5832
900.1297, 856.5123
900.6118, 868.1154
901.0939, 881.1101
901.5760, 878.1704
902.0582, 860.0123
902.5403, 847.3312
903.0224, 853.3477
903.5045, 869.1014
903.9866, 884.1701
904.4688, 897.9048
904.9509, 909.2393
905.4330, 917.4321
905.9151, 916.0779
906.3972, 903.2080
906.8793, 887.5635
907.3615, 876.3613
907.8436, 870.8922
908.3257, 878.7240
908.8078, 900.0092
909.2899, 911.0163
909.7720, 908.6953
910.2542, 899.8734
910.7363, 886.7538
911.2184, 871.9758
911.7005, 858.3033
912.1826, 845.8664
912.6647, 842.7048
913.1469, 849.7955
913.6290, 864.9406
914.1111, 897.7003
914.5932, 918.9822
915.0753, 902.4487
915.5574, 865.8085
916.0396, 850.4449
916.5217, 863.1446
917.0038, 871.7367
917.4859, 875.5940
917.9680, 876.2037
918.4501, 871.4858
918.9323, 865.7604
919.4144, 863.0710
919.8965, 862.2794
920.3786, 858.0933
920.8607, 842.7897
921.3428, 840.4252
921.8250, 872.0377
922.3071, 896.9600
922.7892, 890.0270
923.2713, 870.4703
923.7534, 860.9564
924.2355, 862.3412
924.7177, 862.0063
925.1998, 850.6575
925.6819, 846.0769
926.1640, 864.7527
926.6461, 884.3597
927.1282, 886.7377
927.6104, 877.1991
928.0925, 863.3042
928.5746, 848.2348
929.0567, 843.0560
929.5388, 865.6221
930.0209, 886.7828
930.5031, 878.9392
930.9852, 861.1104
931.4673, 857.9462
931.9494, 866.6821
932.4315, 871.7907
932.9136, 867.6638
933.3958, 861.2953
933.8779, 856.6287
934.3600, 854.7787
934.8421, 859.5692
935.3242, 867.4911
935.8063, 870.4118
936.2885, 868.3839
936.7706, 868.7965
937.2527, 875.8488
937.7348, 881.9240
938.2169, 878.3115
938.6990, 866.5645
939.1812, 842.8906
939.6633, 813.8271
940.1454, 807.5001
940.6275, 828.3179
941.1096, 854.1091
941.5917, 870.1449
942.0739, 877.4199
942.5560, 874.1493
943.0381, 863.1909
943.5202, 861.0839
944.0023, 867.6141
944.4844, 868.7898
944.9666, 860.0635
945.4487, 855.7571
945.9308, 870.7334
946.4129, 894.9523
946.8950, 898.1323
947.3771, 880.3948
947.8593, 866.5090
948.3414, 857.4435
948.8235, 862.0543
949.3056, 886.5421
949.7877, 911.9021
950.2698, 916.2000
950.7520, 903.3239
951.2341, 893.5341
951.7162, 887.1427
952.1983, 881.6874
952.6804, 876.5797
953.1625, 873.5039
953.6447, 872.1835
954.1268, 876.0726
954.6089, 892.7408
955.0910, 920.7885
955.5731, 929.7282
956.0552, 912.1129
956.5374, 897.7762
957.0195, 888.9349
957.5016, 886.8764
957.9837, 895.5318
958.4658, 907.8818
958.9479, 912.3655
959.4301, 908.4733
959.9122, 903.8057
960.3943, 895.6775
960.8764, 892.3682
961.3585, 898.3766
961.8406, 904.9219
962.3228, 905.8252
962.8049, 904.1089
963.2870, 906.2145
963.7691, 913.4713
964.2512, 917.4330
964.7333, 916.8927
965.2155, 914.8077
965.6976, 906.3098
966.1797, 901.6307
966.6618, 914.1529
967.1439, 933.7703
967.6260, 935.8947
968.1082, 914.4642
968.5903, 897.7571
969.0724, 884.1827
969.5545, 879.3536
970.0366, 894.0423
970.5187, 909.4822
971.0009, 906.6312
971.4830, 893.8470
971.9651, 895.6061
972.4472, 920.1898
972.9293, 937.6078
973.4114, 942.5117
973.8936, 941.3823
974.3757, 927.2353
974.8578, 915.7424
975.3399, 926.5555
975.8220, 951.3990
976.3041, 961.4109
976.7863, 945.1213
977.2684, 937.2365
977.7505, 957.0489
978.2326, 972.7243
978.7147, 962.3098
979.1968, 947.3111
979.6790, 954.9136
980.1611, 977.6163
980.6432, 982.7419
981.1253, 957.0500
981.6074, 933.2329
982.0895, 912.8998
982.5717, 906.2628
983.0538, 927.7812
983.5359, 958.9304
984.0180, 985.1123
984.5001, 1002.199
984.9822, 1001.438
985.4644, 970.7211
985.9465, 951.4727
986.4286, 968.8010
986.9107, 990.2205
987.3928, 1001.128
987.8749, 1002.538
988.3571, 992.0201
988.8392, 973.6805
989.3213, 961.4976
989.8034, 959.2852
990.2855, 964.6881
990.7676, 982.6958
991.2498, 1001.538
991.7319, 1018.633
992.2140, 1028.868
992.6961, 1022.033
993.1782, 1002.225
993.6603, 988.8810
994.1425, 988.8078
994.6246, 994.7735
995.1067, 1007.920
995.5888, 1021.382
996.0709, 1032.484
996.5530, 1039.789
997.0352, 1041.717
997.5173, 1038.444
997.9994, 1030.497
998.4815, 1014.745
998.9636, 1004.445
999.4457, 1010.251
999.9279, 1018.743
1000.410, 1020.991
1000.892, 1020.058
1001.374, 1023.260
1001.856, 1028.219
1002.338, 1019.810
1002.821, 983.1435
1003.303, 963.1946
1003.785, 1001.616
1004.267, 1041.675
1004.749, 1041.644
1005.231, 1021.797
1005.713, 1004.657
1006.195, 994.7964
1006.677, 994.2271
1007.160, 1007.504
1007.642, 1017.069
1008.124, 1008.314
1008.606, 1000.513
1009.088, 1009.589
1009.570, 1024.524
1010.052, 1031.222
1010.534, 1030.267
1011.017, 1031.096
1011.499, 1037.806
1011.981, 1041.973
1012.463, 1035.859
1012.945, 1030.832
1013.427, 1041.345
1013.909, 1051.233
1014.391, 1033.260
1014.873, 997.7350
1015.356, 986.7826
1015.838, 1019.471
1016.320, 1044.209
1016.802, 1034.295
1017.284, 1019.463
1017.766, 1012.833
1018.248, 1011.816
1018.730, 1015.346
1019.213, 1021.270
1019.695, 1024.666
1020.177, 1023.928
1020.659, 1023.078
1021.141, 1020.728
1021.623, 1021.909
1022.105, 1034.333
1022.587, 1046.763
1023.069, 1048.055
1023.552, 1040.914
1024.034, 1034.731
1024.516, 1032.233
1024.998, 1024.040
1025.480, 994.7325
1025.962, 976.3919
1026.444, 990.7957
1026.926, 1011.926
1027.409, 1016.190
1027.891, 1011.682
1028.373, 1021.103
1028.855, 1050.365
1029.337, 1066.806
1029.819, 1055.604
1030.301, 1043.266
1030.783, 1033.327
1031.266, 1028.048
1031.748, 1033.643
1032.230, 1042.892
1032.712, 1042.552
1033.194, 1031.018
1033.676, 1019.522
1034.158, 1006.246
1034.640, 997.4463
1035.122, 991.7341
1035.604, 993.3605
1036.087, 1013.012
1036.569, 1037.104
1037.051, 1044.160
1037.533, 1033.399
1038.015, 1024.657
1038.497, 1017.302
1038.979, 1013.356
1039.461, 1015.091
1039.944, 1017.539
1040.426, 1021.206
1040.908, 1022.109
1041.390, 1012.336
1041.872, 993.7509
1042.354, 987.6298
1042.836, 1001.714
1043.318, 1011.420
1043.800, 1015.616
1044.283, 1015.548
1044.765, 1008.025
1045.247, 1001.781
1045.729, 1007.489
1046.211, 1021.584
1046.693, 1027.496
1047.175, 1023.593
1047.657, 1015.560
1048.140, 998.1865
1048.622, 994.0995
1049.104, 1015.874
1049.586, 1038.044
1050.068, 1038.569
1050.550, 1024.218
1051.032, 1011.339
1051.514, 998.7733
1051.996, 1002.383
1052.479, 1026.294
1052.961, 1039.033
1053.443, 1031.458
1053.925, 1021.063
1054.407, 1018.997
1054.889, 1023.073
1055.371, 1029.990
1055.853, 1039.447
1056.335, 1047.544
1056.818, 1054.351
1057.300, 1064.723
1057.782, 1079.574
1058.264, 1089.372
1058.746, 1088.673
1059.228, 1085.727
1059.710, 1091.666
1060.192, 1103.880
1060.675, 1114.683
1061.157, 1123.832
1061.639, 1131.549
1062.121, 1136.833
1062.603, 1128.630
1063.085, 1103.519
1063.567, 1083.609
1064.049, 1093.255
1064.531, 1115.342
1065.014, 1117.380
1065.496, 1107.631
1065.978, 1104.489
1066.460, 1108.861
1066.942, 1119.990
1067.424, 1136.135
1067.906, 1147.674
1068.388, 1146.152
1068.870, 1144.469
1069.353, 1165.583
1069.835, 1189.203
1070.317, 1179.998
1070.799, 1153.902
1071.281, 1146.431
1071.763, 1158.970
1072.245, 1167.318
1072.727, 1160.025
1073.210, 1151.185
1073.692, 1151.595
1074.174, 1154.127
1074.656, 1151.456
1075.138, 1148.385
1075.620, 1151.790
1076.102, 1160.074
1076.584, 1168.104
1077.067, 1174.642
1077.549, 1177.614
1078.031, 1170.159
1078.513, 1166.800
1078.995, 1181.813
1079.477, 1195.838
1079.959, 1189.695
1080.441, 1174.217
1080.923, 1170.587
1081.406, 1180.206
1081.888, 1181.096
1082.370, 1156.474
1082.852, 1142.599
1083.334, 1146.353
1083.816, 1160.250
1084.298, 1196.684
1084.780, 1229.813
1085.262, 1224.313
1085.745, 1189.621
1086.227, 1172.320
1086.709, 1179.895
1087.191, 1185.094
1087.673, 1186.235
1088.155, 1188.535
1088.637, 1194.351
1089.119, 1200.181
1089.602, 1205.290
1090.084, 1206.288
1090.566, 1193.593
1091.048, 1166.243
1091.530, 1155.088
1092.012, 1163.432
1092.494, 1165.944
1092.976, 1157.074
1093.458, 1153.299
1093.941, 1164.040
1094.423, 1177.659
1094.905, 1178.533
1095.387, 1171.127
1095.869, 1172.829
1096.351, 1182.113
1096.833, 1187.892
1097.315, 1189.089
1097.797, 1183.200
1098.280, 1170.296
1098.762, 1163.698
1099.244, 1174.996
1099.726, 1194.116
1100.208, 1211.225
1100.690, 1221.893
1101.172, 1211.860
1101.654, 1189.001
1102.137, 1173.772
1102.619, 1168.299
1103.101, 1160.922
1103.583, 1145.807
1104.065, 1136.645
1104.547, 1154.709
1105.029, 1173.247
1105.511, 1160.893
1105.994, 1139.825
1106.476, 1138.225
1106.958, 1150.669
1107.440, 1160.373
1107.922, 1163.432
1108.404, 1162.798
1108.886, 1155.326
1109.368, 1150.973
1109.850, 1163.484
1110.333, 1168.994
1110.815, 1139.172
1111.297, 1103.567
1111.779, 1104.625
1112.261, 1135.443
1112.743, 1148.865
1113.225, 1133.891
1113.707, 1118.394
1114.189, 1095.743
1114.672, 1084.973
1115.154, 1097.444
1115.636, 1112.975
1116.118, 1119.358
1116.600, 1118.559
1117.082, 1113.145
1117.564, 1103.068
1118.046, 1098.651
1118.529, 1101.600
1119.011, 1099.803
1119.493, 1090.827
1119.975, 1083.540
1120.457, 1081.451
1120.939, 1084.998
1121.421, 1096.922
1121.903, 1109.276
1122.385, 1096.075
1122.868, 1063.976
1123.350, 1047.027
1123.832, 1045.074
1124.314, 1051.023
1124.796, 1061.453
1125.278, 1065.507
1125.760, 1056.593
1126.242, 1046.172
1126.724, 1049.090
1127.207, 1056.530
1127.689, 1057.228
1128.171, 1053.383
1128.653, 1046.926
1129.135, 1039.674
1129.617, 1034.262
1130.099, 1031.559
1130.581, 1032.666
1131.064, 1042.597
1131.546, 1048.480
1132.028, 1039.726
1132.510, 1028.990
1132.992, 1024.654
1133.474, 1023.479
1133.956, 1021.302
1134.438, 1018.191
1134.921, 1016.178
1135.403, 1016.242
1135.885, 1014.877
1136.367, 1009.909
1136.849, 1006.442
1137.331, 1007.421
1137.813, 1006.829
1138.295, 999.4588
1138.777, 990.7916
1139.260, 989.6336
1139.742, 994.8428
1140.224, 995.6724
1140.706, 991.9195
1141.188, 984.0864
1141.670, 971.5002
1142.152, 962.0117
1142.634, 957.9760
1143.116, 962.5864
1143.599, 980.5426
1144.081, 997.1237
1144.563, 979.0258
1145.045, 941.3181
1145.527, 932.9684
1146.009, 944.5035
1146.491, 944.4791
1146.973, 931.7904
1147.456, 923.1622
1147.938, 924.7102
1148.420, 928.3909
1148.902, 930.3904
1149.384, 928.4625
1149.866, 917.0240
1150.348, 904.0840
1150.830, 895.8625
1151.313, 892.6785
1151.795, 897.3071
1152.277, 906.7313
1152.759, 908.1666
1153.241, 895.1083
1153.723, 887.7367
1154.205, 895.6475
1154.687, 902.8503
1155.169, 910.6853
1155.651, 909.2410
1156.134, 884.3074
1156.616, 853.5173
1157.098, 843.7430
1157.580, 853.0072
1158.062, 858.8881
1158.544, 862.7140
1159.026, 854.5066
1159.508, 830.2095
1159.991, 816.2435
1160.473, 821.3639
1160.955, 830.8785
1161.437, 833.9919
1161.919, 836.2761
1162.401, 854.5584
1162.883, 876.9947
1163.365, 851.3981
1163.848, 797.6213
1164.330, 783.8997
1164.812, 808.2015
1165.294, 827.4645
1165.776, 828.4106
1166.258, 830.1354
1166.740, 848.6472
1167.222, 863.5999
1167.704, 852.9545
1168.187, 836.7599
1168.669, 832.0859
1169.151, 833.2310
1169.633, 832.6904
1170.115, 830.3039
1170.597, 828.5918
1171.079, 828.1451
1171.561, 827.0847
1172.043, 826.9108
1172.526, 823.0805
1173.008, 805.8775
1173.490, 798.6260
1173.972, 820.0228
1174.454, 843.1675
1174.936, 837.7782
1175.418, 813.2088
1175.900, 802.5051
1176.383, 806.9503
1176.865, 807.1960
1177.347, 803.1877
1177.829, 796.1465
1178.311, 786.4681
1178.793, 780.5367
1179.275, 781.4542
1179.757, 785.2189
1180.240, 790.0963
1180.722, 790.5894
1181.204, 768.5681
1181.686, 741.9547
1182.168, 745.5168
1182.650, 768.0802
1183.132, 786.3025
1183.614, 794.7941
1184.096, 792.2136
1184.578, 775.9900
1185.061, 764.9347
1185.543, 770.1195
1186.025, 778.8929
1186.507, 790.5547
1186.989, 799.0460
1187.471, 799.0766
1187.953, 794.2009
1188.435, 791.1776
1188.918, 788.4004
1189.400, 773.8257
1189.882, 737.4377
1190.364, 727.0213
1190.846, 749.3983
1191.328, 768.6421
1191.810, 777.7686
1192.292, 775.6918
1192.775, 760.7096
1193.257, 742.0997
1193.739, 729.6385
1194.221, 724.8984
1194.703, 736.0425
1195.185, 756.3524
1195.667, 768.8260
1196.149, 773.9919
1196.631, 777.8414
1197.114, 780.7825
1197.596, 776.9511
1198.078, 762.8462
1198.560, 751.4940
1199.042, 755.8652
1199.524, 759.0710
1200.006, 746.8118
1200.488, 734.3880
1200.970, 734.7248
1201.453, 742.1835
1201.935, 750.9182
1202.417, 758.8427
1202.899, 754.6151
1203.381, 729.8309
1203.863, 721.3227
1204.345, 736.4686
1204.827, 742.4387
1205.310, 729.6373
1205.792, 722.1694
1206.274, 733.9774
1206.756, 750.0889
1207.238, 752.5965
1207.720, 746.5675
1208.202, 743.9194
1208.684, 743.4716
1209.167, 741.4724
1209.649, 738.7009
1210.131, 738.4011
1210.613, 740.4700
1211.095, 741.7013
1211.577, 740.7922
1212.059, 740.7485
1212.541, 745.8430
1213.023, 749.0039
1213.505, 742.0346
1213.988, 736.7555
1214.470, 744.0787
1214.952, 755.8793
1215.434, 764.7912
1215.916, 768.7828
1216.398, 760.8444
1216.880, 737.2030
1217.362, 726.3519
1217.845, 732.8918
1218.327, 730.3121
1218.809, 712.2371
1219.291, 706.2488
1219.773, 724.7583
1220.255, 745.9070
1220.737, 749.9721
1221.219, 744.1252
1221.702, 738.2273
1222.184, 733.3258
1222.666, 734.5267
1223.148, 736.9869
1223.630, 724.9131
1224.112, 705.8312
1224.594, 709.5829
1225.076, 740.8267
1225.558, 758.0204
1226.041, 733.8033
1226.523, 711.9268
1227.005, 704.7977
1227.487, 705.8571
1227.969, 721.5073
1228.451, 734.2698
1228.933, 728.1375
1229.415, 713.9492
1229.897, 710.6171
1230.380, 716.9821
1230.862, 720.7480
1231.344, 721.8560
1231.826, 722.2014
1232.308, 721.7983
1232.790, 715.6927
1233.272, 703.7960
1233.754, 701.1550
1234.237, 716.6542
1234.719, 734.5808
1235.201, 742.5123
1235.683, 739.8882
1236.165, 713.6712
1236.647, 687.7797
1237.129, 697.1054
1237.611, 721.2665
1238.094, 721.3876
1238.576, 702.1959
1239.058, 705.2384
1239.540, 748.6887
1240.022, 763.3492
1240.504, 722.4607
1240.986, 699.7965
1241.468, 709.4587
1241.950, 724.5791
1242.432, 735.5098
1242.915, 743.0766
##END=



