##NAMES=Chabourneite
##RRUFFID=R140106
##IDEAL CHEMISTRY=Tl^1+^_4_Pb^2+^_2_(Sb^3+^,As^3+^)_20_S^2-^_34_
##LOCALITY=Jas Roux, La Chapelle En Valgaudemard, Hautes-Alpes, Provence-Alpes-CÃ´te D'Azur, France
##OWNER=RRUFF
##SOURCE=Rock Currier
##DESCRIPTION=Black metallic grains with conchoidal fracture, associated with red realgar, yellow braded or fibrous wakabayashilite (R150064), and colorless massive or tabular celestine.
##STATUS=The identification of this mineral has been confirmed only by single crystal X-ray diffraction.
##URL=rruff.info/R140106
8.930109e+001, 0.000000e+000
8.978320e+001, 4.406459e+002
9.026532e+001, 4.388346e+002
9.074744e+001, 4.390794e+002
9.122955e+001, 4.423390e+002
9.171167e+001, 4.468070e+002
9.219379e+001, 4.501432e+002
9.267590e+001, 4.526563e+002
9.315802e+001, 4.543568e+002
9.364014e+001, 4.549351e+002
9.412225e+001, 4.547561e+002
9.460437e+001, 4.546341e+002
9.508649e+001, 4.549443e+002
9.556860e+001, 4.552301e+002
9.605072e+001, 4.545861e+002
9.653284e+001, 4.533088e+002
9.701495e+001, 4.523390e+002
9.749707e+001, 4.526026e+002
9.797919e+001, 4.540327e+002
9.846130e+001, 4.556129e+002
9.894342e+001, 4.570020e+002
9.942554e+001, 4.582387e+002
9.990765e+001, 4.598565e+002
1.003898e+002, 4.620196e+002
1.008719e+002, 4.642546e+002
1.013540e+002, 4.656629e+002
1.018361e+002, 4.658774e+002
1.023182e+002, 4.666481e+002
1.028004e+002, 4.687550e+002
1.032825e+002, 4.724935e+002
1.037646e+002, 4.761844e+002
1.042467e+002, 4.798952e+002
1.047288e+002, 4.835554e+002
1.052109e+002, 4.868017e+002
1.056931e+002, 4.888118e+002
1.061752e+002, 4.916564e+002
1.066573e+002, 4.964332e+002
1.071394e+002, 5.050157e+002
1.076215e+002, 5.123163e+002
1.081036e+002, 5.181450e+002
1.085858e+002, 5.226501e+002
1.090679e+002, 5.263295e+002
1.095500e+002, 5.273895e+002
1.100321e+002, 5.289524e+002
1.105142e+002, 5.326531e+002
1.109963e+002, 5.417576e+002
1.114785e+002, 5.493556e+002
1.119606e+002, 5.539739e+002
1.124427e+002, 5.557620e+002
1.129248e+002, 5.583219e+002
1.134069e+002, 5.626887e+002
1.138890e+002, 5.677261e+002
1.143712e+002, 5.725754e+002
1.148533e+002, 5.772625e+002
1.153354e+002, 5.815282e+002
1.158175e+002, 5.851731e+002
1.162996e+002, 5.882062e+002
1.167817e+002, 5.911505e+002
1.172639e+002, 5.945420e+002
1.177460e+002, 5.979065e+002
1.182281e+002, 6.006389e+002
1.187102e+002, 6.020941e+002
1.191923e+002, 6.031544e+002
1.196744e+002, 6.042820e+002
1.201566e+002, 6.055187e+002
1.206387e+002, 6.068248e+002
1.211208e+002, 6.080033e+002
1.216029e+002, 6.092018e+002
1.220850e+002, 6.107225e+002
1.225671e+002, 6.132775e+002
1.230493e+002, 6.159612e+002
1.235314e+002, 6.178952e+002
1.240135e+002, 6.189450e+002
1.244956e+002, 6.191545e+002
1.249777e+002, 6.180438e+002
1.254598e+002, 6.159182e+002
1.259420e+002, 6.139886e+002
1.264241e+002, 6.131237e+002
1.269062e+002, 6.129675e+002
1.273883e+002, 6.129481e+002
1.278704e+002, 6.131117e+002
1.283525e+002, 6.131279e+002
1.288347e+002, 6.123427e+002
1.293168e+002, 6.107874e+002
1.297989e+002, 6.091602e+002
1.302810e+002, 6.082550e+002
1.307631e+002, 6.078234e+002
1.312452e+002, 6.067678e+002
1.317274e+002, 6.046053e+002
1.322095e+002, 6.017481e+002
1.326916e+002, 5.991726e+002
1.331737e+002, 5.968468e+002
1.336558e+002, 5.949742e+002
1.341379e+002, 5.938107e+002
1.346201e+002, 5.933526e+002
1.351022e+002, 5.930502e+002
1.355843e+002, 5.926840e+002
1.360664e+002, 5.923149e+002
1.365485e+002, 5.924350e+002
1.370306e+002, 5.930989e+002
1.375128e+002, 5.941348e+002
1.379949e+002, 5.954971e+002
1.384770e+002, 5.973099e+002
1.389591e+002, 5.988408e+002
1.394412e+002, 5.998354e+002
1.399233e+002, 6.002520e+002
1.404055e+002, 6.004521e+002
1.408876e+002, 6.003007e+002
1.413697e+002, 6.000498e+002
1.418518e+002, 6.000637e+002
1.423339e+002, 6.002528e+002
1.428160e+002, 6.008829e+002
1.432982e+002, 6.021234e+002
1.437803e+002, 6.041573e+002
1.442624e+002, 6.061836e+002
1.447445e+002, 6.081837e+002
1.452266e+002, 6.101876e+002
1.457087e+002, 6.121565e+002
1.461909e+002, 6.140212e+002
1.466730e+002, 6.159921e+002
1.471551e+002, 6.182361e+002
1.476372e+002, 6.213163e+002
1.481193e+002, 6.236829e+002
1.486014e+002, 6.248721e+002
1.490836e+002, 6.252913e+002
1.495657e+002, 6.264019e+002
1.500478e+002, 6.288875e+002
1.505299e+002, 6.314901e+002
1.510120e+002, 6.336778e+002
1.514941e+002, 6.347545e+002
1.519763e+002, 6.361985e+002
1.524584e+002, 6.387525e+002
1.529405e+002, 6.419738e+002
1.534226e+002, 6.437214e+002
1.539047e+002, 6.421954e+002
1.543868e+002, 6.402105e+002
1.548690e+002, 6.392986e+002
1.553511e+002, 6.410281e+002
1.558332e+002, 6.423472e+002
1.563153e+002, 6.427510e+002
1.567974e+002, 6.422960e+002
1.572795e+002, 6.414745e+002
1.577617e+002, 6.404531e+002
1.582438e+002, 6.390819e+002
1.587259e+002, 6.372545e+002
1.592080e+002, 6.342180e+002
1.596901e+002, 6.314346e+002
1.601722e+002, 6.292839e+002
1.606544e+002, 6.277745e+002
1.611365e+002, 6.267949e+002
1.616186e+002, 6.268193e+002
1.621007e+002, 6.271462e+002
1.625828e+002, 6.271257e+002
1.630649e+002, 6.260039e+002
1.635471e+002, 6.249336e+002
1.640292e+002, 6.245590e+002
1.645113e+002, 6.248973e+002
1.649934e+002, 6.251664e+002
1.654755e+002, 6.245693e+002
1.659576e+002, 6.237734e+002
1.664398e+002, 6.236100e+002
1.669219e+002, 6.248167e+002
1.674040e+002, 6.264548e+002
1.678861e+002, 6.279924e+002
1.683682e+002, 6.294157e+002
1.688503e+002, 6.306424e+002
1.693325e+002, 6.312419e+002
1.698146e+002, 6.316589e+002
1.702967e+002, 6.325983e+002
1.707788e+002, 6.348434e+002
1.712609e+002, 6.375060e+002
1.717430e+002, 6.396166e+002
1.722252e+002, 6.410429e+002
1.727073e+002, 6.427032e+002
1.731894e+002, 6.459716e+002
1.736715e+002, 6.500983e+002
1.741536e+002, 6.532977e+002
1.746357e+002, 6.538849e+002
1.751179e+002, 6.534824e+002
1.756000e+002, 6.541240e+002
1.760821e+002, 6.560837e+002
1.765642e+002, 6.584261e+002
1.770463e+002, 6.602213e+002
1.775284e+002, 6.616488e+002
1.780106e+002, 6.632299e+002
1.784927e+002, 6.655437e+002
1.789748e+002, 6.681371e+002
1.794569e+002, 6.701161e+002
1.799390e+002, 6.713185e+002
1.804211e+002, 6.722976e+002
1.809033e+002, 6.736557e+002
1.813854e+002, 6.753693e+002
1.818675e+002, 6.772656e+002
1.823496e+002, 6.792702e+002
1.828317e+002, 6.813846e+002
1.833138e+002, 6.837024e+002
1.837960e+002, 6.861970e+002
1.842781e+002, 6.889329e+002
1.847602e+002, 6.919257e+002
1.852423e+002, 6.952025e+002
1.857244e+002, 6.987657e+002
1.862065e+002, 7.029310e+002
1.866887e+002, 7.074634e+002
1.871708e+002, 7.115430e+002
1.876529e+002, 7.150193e+002
1.881350e+002, 7.181100e+002
1.886171e+002, 7.215518e+002
1.890992e+002, 7.253265e+002
1.895814e+002, 7.277908e+002
1.900635e+002, 7.275985e+002
1.905456e+002, 7.250045e+002
1.910277e+002, 7.219239e+002
1.915098e+002, 7.187473e+002
1.919919e+002, 7.149045e+002
1.924741e+002, 7.087610e+002
1.929562e+002, 7.002385e+002
1.934383e+002, 6.917322e+002
1.939204e+002, 6.850235e+002
1.944025e+002, 6.800204e+002
1.948846e+002, 6.751223e+002
1.953668e+002, 6.700688e+002
1.958489e+002, 6.651003e+002
1.963310e+002, 6.606867e+002
1.968131e+002, 6.567997e+002
1.972952e+002, 6.536859e+002
1.977773e+002, 6.517552e+002
1.982595e+002, 6.510558e+002
1.987416e+002, 6.500945e+002
1.992237e+002, 6.485494e+002
1.997058e+002, 6.467724e+002
2.001879e+002, 6.458074e+002
2.006700e+002, 6.457557e+002
2.011522e+002, 6.460471e+002
2.016343e+002, 6.463483e+002
2.021164e+002, 6.466639e+002
2.025985e+002, 6.469954e+002
2.030806e+002, 6.473889e+002
2.035627e+002, 6.477715e+002
2.040449e+002, 6.478503e+002
2.045270e+002, 6.475378e+002
2.050091e+002, 6.471935e+002
2.054912e+002, 6.470741e+002
2.059733e+002, 6.472126e+002
2.064554e+002, 6.473389e+002
2.069376e+002, 6.473629e+002
2.074197e+002, 6.473685e+002
2.079018e+002, 6.476721e+002
2.083839e+002, 6.482900e+002
2.088660e+002, 6.491787e+002
2.093481e+002, 6.502813e+002
2.098303e+002, 6.515776e+002
2.103124e+002, 6.532794e+002
2.107945e+002, 6.555971e+002
2.112766e+002, 6.583127e+002
2.117587e+002, 6.606808e+002
2.122408e+002, 6.628264e+002
2.127230e+002, 6.643748e+002
2.132051e+002, 6.649307e+002
2.136872e+002, 6.641297e+002
2.141693e+002, 6.636085e+002
2.146514e+002, 6.637319e+002
2.151335e+002, 6.642474e+002
2.156157e+002, 6.639108e+002
2.160978e+002, 6.623065e+002
2.165799e+002, 6.605719e+002
2.170620e+002, 6.594394e+002
2.175441e+002, 6.590652e+002
2.180262e+002, 6.588011e+002
2.185084e+002, 6.585293e+002
2.189905e+002, 6.583127e+002
2.194726e+002, 6.584982e+002
2.199547e+002, 6.592320e+002
2.204368e+002, 6.601362e+002
2.209189e+002, 6.609017e+002
2.214011e+002, 6.612957e+002
2.218832e+002, 6.622914e+002
2.223653e+002, 6.643880e+002
2.228474e+002, 6.671716e+002
2.233295e+002, 6.687540e+002
2.238116e+002, 6.686015e+002
2.242938e+002, 6.680543e+002
2.247759e+002, 6.678024e+002
2.252580e+002, 6.676578e+002
2.257401e+002, 6.683308e+002
2.262222e+002, 6.702911e+002
2.267043e+002, 6.731008e+002
2.271865e+002, 6.748591e+002
2.276686e+002, 6.746507e+002
2.281507e+002, 6.746878e+002
2.286328e+002, 6.764619e+002
2.291149e+002, 6.812396e+002
2.295970e+002, 6.847264e+002
2.300792e+002, 6.862787e+002
2.305613e+002, 6.863555e+002
2.310434e+002, 6.865528e+002
2.315255e+002, 6.864345e+002
2.320076e+002, 6.870861e+002
2.324897e+002, 6.892372e+002
2.329719e+002, 6.937072e+002
2.334540e+002, 6.978533e+002
2.339361e+002, 7.015707e+002
2.344182e+002, 7.049249e+002
2.349003e+002, 7.081303e+002
2.353824e+002, 7.109265e+002
2.358646e+002, 7.139495e+002
2.363467e+002, 7.176837e+002
2.368288e+002, 7.230351e+002
2.373109e+002, 7.269562e+002
2.377930e+002, 7.285850e+002
2.382751e+002, 7.288491e+002
2.387573e+002, 7.305750e+002
2.392394e+002, 7.344184e+002
2.397215e+002, 7.387551e+002
2.402036e+002, 7.430564e+002
2.406857e+002, 7.479099e+002
2.411678e+002, 7.512593e+002
2.416500e+002, 7.523644e+002
2.421321e+002, 7.521541e+002
2.426142e+002, 7.529762e+002
2.430963e+002, 7.549273e+002
2.435784e+002, 7.577865e+002
2.440605e+002, 7.616032e+002
2.445427e+002, 7.670305e+002
2.450248e+002, 7.717857e+002
2.455069e+002, 7.756718e+002
2.459890e+002, 7.789900e+002
2.464711e+002, 7.822133e+002
2.469532e+002, 7.848882e+002
2.474354e+002, 7.882833e+002
2.479175e+002, 7.928344e+002
2.483996e+002, 7.986542e+002
2.488817e+002, 8.054462e+002
2.493638e+002, 8.136738e+002
2.498459e+002, 8.226312e+002
2.503281e+002, 8.309793e+002
2.508102e+002, 8.384063e+002
2.512923e+002, 8.458301e+002
2.517744e+002, 8.538069e+002
2.522565e+002, 8.626232e+002
2.527386e+002, 8.706930e+002
2.532208e+002, 8.788541e+002
2.537029e+002, 8.856469e+002
2.541850e+002, 8.887689e+002
2.546671e+002, 8.873101e+002
2.551492e+002, 8.838904e+002
2.556313e+002, 8.791055e+002
2.561135e+002, 8.728655e+002
2.565956e+002, 8.658770e+002
2.570777e+002, 8.580293e+002
2.575598e+002, 8.495954e+002
2.580419e+002, 8.406182e+002
2.585240e+002, 8.302015e+002
2.590062e+002, 8.214904e+002
2.594883e+002, 8.157345e+002
2.599704e+002, 8.132582e+002
2.604525e+002, 8.101013e+002
2.609346e+002, 8.058841e+002
2.614167e+002, 8.015095e+002
2.618989e+002, 7.981580e+002
2.623810e+002, 7.963756e+002
2.628631e+002, 7.942131e+002
2.633452e+002, 7.908848e+002
2.638273e+002, 7.863793e+002
2.643094e+002, 7.837330e+002
2.647916e+002, 7.834340e+002
2.652737e+002, 7.841672e+002
2.657558e+002, 7.846775e+002
2.662379e+002, 7.848264e+002
2.667200e+002, 7.852322e+002
2.672021e+002, 7.860595e+002
2.676843e+002, 7.872712e+002
2.681664e+002, 7.884365e+002
2.686485e+002, 7.893331e+002
2.691306e+002, 7.906201e+002
2.696127e+002, 7.930447e+002
2.700948e+002, 7.969265e+002
2.705770e+002, 8.003135e+002
2.710591e+002, 8.024480e+002
2.715412e+002, 8.038173e+002
2.720233e+002, 8.072576e+002
2.725054e+002, 8.134116e+002
2.729875e+002, 8.197002e+002
2.734697e+002, 8.240170e+002
2.739518e+002, 8.260284e+002
2.744339e+002, 8.284445e+002
2.749160e+002, 8.315109e+002
2.753981e+002, 8.352158e+002
2.758802e+002, 8.397499e+002
2.763624e+002, 8.451948e+002
2.768445e+002, 8.509171e+002
2.773266e+002, 8.568278e+002
2.778087e+002, 8.630215e+002
2.782908e+002, 8.679230e+002
2.787729e+002, 8.710798e+002
2.792551e+002, 8.732715e+002
2.797372e+002, 8.761516e+002
2.802193e+002, 8.798085e+002
2.807014e+002, 8.836876e+002
2.811835e+002, 8.877389e+002
2.816656e+002, 8.919517e+002
2.821478e+002, 8.952758e+002
2.826299e+002, 8.972938e+002
2.831120e+002, 8.991683e+002
2.835941e+002, 9.031663e+002
2.840762e+002, 9.094138e+002
2.845583e+002, 9.156172e+002
2.850405e+002, 9.207221e+002
2.855226e+002, 9.248378e+002
2.860047e+002, 9.289489e+002
2.864868e+002, 9.330559e+002
2.869689e+002, 9.371684e+002
2.874510e+002, 9.412590e+002
2.879332e+002, 9.453317e+002
2.884153e+002, 9.495498e+002
2.888974e+002, 9.538019e+002
2.893795e+002, 9.581912e+002
2.898616e+002, 9.632842e+002
2.903438e+002, 9.692247e+002
2.908259e+002, 9.748495e+002
2.913080e+002, 9.786683e+002
2.917901e+002, 9.808909e+002
2.922722e+002, 9.830240e+002
2.927543e+002, 9.856844e+002
2.932365e+002, 9.884852e+002
2.937186e+002, 9.902888e+002
2.942007e+002, 9.910639e+002
2.946828e+002, 9.918165e+002
2.951649e+002, 9.939439e+002
2.956470e+002, 9.968616e+002
2.961292e+002, 9.987191e+002
2.966113e+002, 9.989835e+002
2.970934e+002, 9.979847e+002
2.975755e+002, 9.959963e+002
2.980576e+002, 9.930601e+002
2.985397e+002, 9.897376e+002
2.990219e+002, 9.861768e+002
2.995040e+002, 9.825154e+002
2.999861e+002, 9.792105e+002
3.004682e+002, 9.766101e+002
3.009503e+002, 9.738913e+002
3.014324e+002, 9.701832e+002
3.019146e+002, 9.655441e+002
3.023967e+002, 9.600273e+002
3.028788e+002, 9.534436e+002
3.033609e+002, 9.461046e+002
3.038430e+002, 9.385148e+002
3.043251e+002, 9.307094e+002
3.048073e+002, 9.227922e+002
3.052894e+002, 9.147608e+002
3.057715e+002, 9.066581e+002
3.062536e+002, 8.983655e+002
3.067357e+002, 8.903996e+002
3.072178e+002, 8.819598e+002
3.077000e+002, 8.720070e+002
3.081821e+002, 8.602975e+002
3.086642e+002, 8.485460e+002
3.091463e+002, 8.382896e+002
3.096284e+002, 8.288102e+002
3.101105e+002, 8.188397e+002
3.105927e+002, 8.072371e+002
3.110748e+002, 7.955417e+002
3.115569e+002, 7.849043e+002
3.120390e+002, 7.753456e+002
3.125211e+002, 7.656982e+002
3.130032e+002, 7.550089e+002
3.134854e+002, 7.438845e+002
3.139675e+002, 7.331100e+002
3.144496e+002, 7.226390e+002
3.149317e+002, 7.129019e+002
3.154138e+002, 7.041552e+002
3.158959e+002, 6.963546e+002
3.163781e+002, 6.889091e+002
3.168602e+002, 6.819332e+002
3.173423e+002, 6.750936e+002
3.178244e+002, 6.681223e+002
3.183065e+002, 6.604793e+002
3.187886e+002, 6.533995e+002
3.192708e+002, 6.476176e+002
3.197529e+002, 6.427912e+002
3.202350e+002, 6.379395e+002
3.207171e+002, 6.332266e+002
3.211992e+002, 6.281222e+002
3.216813e+002, 6.221708e+002
3.221635e+002, 6.145416e+002
3.226456e+002, 6.078165e+002
3.231277e+002, 6.026812e+002
3.236098e+002, 5.987151e+002
3.240919e+002, 5.952031e+002
3.245740e+002, 5.929052e+002
3.250562e+002, 5.902881e+002
3.255383e+002, 5.867636e+002
3.260204e+002, 5.820367e+002
3.265025e+002, 5.775148e+002
3.269846e+002, 5.728873e+002
3.274667e+002, 5.686916e+002
3.279489e+002, 5.654515e+002
3.284310e+002, 5.646946e+002
3.289131e+002, 5.631868e+002
3.293952e+002, 5.600885e+002
3.298773e+002, 5.553504e+002
3.303594e+002, 5.512781e+002
3.308416e+002, 5.478914e+002
3.313237e+002, 5.451984e+002
3.318058e+002, 5.433102e+002
3.322879e+002, 5.430438e+002
3.327700e+002, 5.421471e+002
3.332521e+002, 5.401161e+002
3.337343e+002, 5.372455e+002
3.342164e+002, 5.350310e+002
3.346985e+002, 5.339280e+002
3.351806e+002, 5.327961e+002
3.356627e+002, 5.308633e+002
3.361448e+002, 5.275754e+002
3.366270e+002, 5.253204e+002
3.371091e+002, 5.245800e+002
3.375912e+002, 5.246077e+002
3.380733e+002, 5.237879e+002
3.385554e+002, 5.218655e+002
3.390375e+002, 5.199626e+002
3.395197e+002, 5.186471e+002
3.400018e+002, 5.179919e+002
3.404839e+002, 5.166857e+002
3.409660e+002, 5.145281e+002
3.414481e+002, 5.122101e+002
3.419302e+002, 5.108400e+002
3.424124e+002, 5.104970e+002
3.428945e+002, 5.097982e+002
3.433766e+002, 5.081335e+002
3.438587e+002, 5.057871e+002
3.443408e+002, 5.039456e+002
3.448229e+002, 5.026292e+002
3.453051e+002, 5.017509e+002
3.457872e+002, 5.014703e+002
3.462693e+002, 5.016730e+002
3.467514e+002, 5.015757e+002
3.472335e+002, 5.009830e+002
3.477156e+002, 5.000631e+002
3.481978e+002, 4.991631e+002
3.486799e+002, 4.982733e+002
3.491620e+002, 4.972226e+002
3.496441e+002, 4.956554e+002
3.501262e+002, 4.938632e+002
3.506083e+002, 4.926372e+002
3.510905e+002, 4.921853e+002
3.515726e+002, 4.918527e+002
3.520547e+002, 4.907755e+002
3.525368e+002, 4.891615e+002
3.530189e+002, 4.876418e+002
3.535010e+002, 4.862927e+002
3.539832e+002, 4.853218e+002
3.544653e+002, 4.853833e+002
3.549474e+002, 4.865569e+002
3.554295e+002, 4.871968e+002
3.559116e+002, 4.851412e+002
3.563937e+002, 4.818871e+002
3.568759e+002, 4.797140e+002
3.573580e+002, 4.805881e+002
3.578401e+002, 4.818495e+002
3.583222e+002, 4.815233e+002
3.588043e+002, 4.798517e+002
3.592864e+002, 4.782961e+002
3.597686e+002, 4.777277e+002
3.602507e+002, 4.775572e+002
3.607328e+002, 4.772958e+002
3.612149e+002, 4.768044e+002
3.616970e+002, 4.762492e+002
3.621791e+002, 4.756056e+002
3.626613e+002, 4.749372e+002
3.631434e+002, 4.743966e+002
3.636255e+002, 4.742822e+002
3.641076e+002, 4.740975e+002
3.645897e+002, 4.735962e+002
3.650718e+002, 4.727036e+002
3.655540e+002, 4.716852e+002
3.660361e+002, 4.703565e+002
3.665182e+002, 4.690051e+002
3.670003e+002, 4.679765e+002
3.674824e+002, 4.674464e+002
3.679645e+002, 4.671108e+002
3.684467e+002, 4.669141e+002
3.689288e+002, 4.668628e+002
3.694109e+002, 4.670194e+002
3.698930e+002, 4.678642e+002
3.703751e+002, 4.685631e+002
3.708572e+002, 4.684763e+002
3.713394e+002, 4.666092e+002
3.718215e+002, 4.657010e+002
3.723036e+002, 4.665182e+002
3.727857e+002, 4.684191e+002
3.732678e+002, 4.690500e+002
3.737499e+002, 4.678579e+002
3.742321e+002, 4.663705e+002
3.747142e+002, 4.651960e+002
3.751963e+002, 4.642549e+002
3.756784e+002, 4.640196e+002
3.761605e+002, 4.647972e+002
3.766426e+002, 4.658807e+002
3.771248e+002, 4.660169e+002
3.776069e+002, 4.650064e+002
3.780890e+002, 4.642899e+002
3.785711e+002, 4.646378e+002
3.790532e+002, 4.657809e+002
3.795353e+002, 4.655404e+002
3.800175e+002, 4.637092e+002
3.804996e+002, 4.615301e+002
3.809817e+002, 4.602124e+002
3.814638e+002, 4.596616e+002
3.819459e+002, 4.590113e+002
3.824280e+002, 4.580213e+002
3.829102e+002, 4.569359e+002
3.833923e+002, 4.563345e+002
3.838744e+002, 4.561611e+002
3.843565e+002, 4.559246e+002
3.848386e+002, 4.549355e+002
3.853207e+002, 4.537116e+002
3.858029e+002, 4.535901e+002
3.862850e+002, 4.549005e+002
3.867671e+002, 4.562279e+002
3.872492e+002, 4.559045e+002
3.877313e+002, 4.544798e+002
3.882134e+002, 4.532080e+002
3.886956e+002, 4.532736e+002
3.891777e+002, 4.533698e+002
3.896598e+002, 4.518355e+002
3.901419e+002, 4.487909e+002
3.906240e+002, 4.463954e+002
3.911061e+002, 4.464280e+002
3.915883e+002, 4.475884e+002
3.920704e+002, 4.485109e+002
3.925525e+002, 4.486481e+002
3.930346e+002, 4.487323e+002
3.935167e+002, 4.493709e+002
3.939988e+002, 4.502591e+002
3.944810e+002, 4.505473e+002
3.949631e+002, 4.491300e+002
3.954452e+002, 4.476690e+002
3.959273e+002, 4.471617e+002
3.964094e+002, 4.482013e+002
3.968915e+002, 4.486530e+002
3.973737e+002, 4.472066e+002
3.978558e+002, 4.452598e+002
3.983379e+002, 4.445350e+002
3.988200e+002, 4.466132e+002
3.993021e+002, 4.484174e+002
3.997842e+002, 4.493546e+002
4.002664e+002, 4.494223e+002
4.007485e+002, 4.492523e+002
4.012306e+002, 4.485789e+002
4.017127e+002, 4.479176e+002
4.021948e+002, 4.476181e+002
4.026769e+002, 4.478940e+002
4.031591e+002, 4.480666e+002
4.036412e+002, 4.481153e+002
4.041233e+002, 4.480282e+002
4.046054e+002, 4.477122e+002
4.050875e+002, 4.470444e+002
4.055696e+002, 4.465259e+002
4.060518e+002, 4.464167e+002
4.065339e+002, 4.467342e+002
4.070160e+002, 4.470213e+002
4.074981e+002, 4.473246e+002
4.079802e+002, 4.474840e+002
4.084623e+002, 4.472834e+002
4.089445e+002, 4.467304e+002
4.094266e+002, 4.459831e+002
4.099087e+002, 4.448213e+002
4.103908e+002, 4.437167e+002
4.108729e+002, 4.441889e+002
4.113550e+002, 4.461885e+002
4.118372e+002, 4.479532e+002
4.123193e+002, 4.480082e+002
4.128014e+002, 4.469191e+002
4.132835e+002, 4.459017e+002
4.137656e+002, 4.450261e+002
4.142477e+002, 4.445530e+002
4.147299e+002, 4.452252e+002
4.152120e+002, 4.465475e+002
4.156941e+002, 4.473206e+002
4.161762e+002, 4.461559e+002
4.166583e+002, 4.447201e+002
4.171404e+002, 4.446411e+002
4.176226e+002, 4.459002e+002
4.181047e+002, 4.472667e+002
4.185868e+002, 4.481892e+002
4.190689e+002, 4.487953e+002
4.195510e+002, 4.492076e+002
4.200331e+002, 4.493019e+002
4.205153e+002, 4.494061e+002
4.209974e+002, 4.497227e+002
4.214795e+002, 4.501527e+002
4.219616e+002, 4.504287e+002
4.224437e+002, 4.504086e+002
4.229258e+002, 4.503011e+002
4.234080e+002, 4.502640e+002
4.238901e+002, 4.504499e+002
4.243722e+002, 4.502224e+002
4.248543e+002, 4.489801e+002
4.253364e+002, 4.475836e+002
4.258185e+002, 4.468908e+002
4.263007e+002, 4.474130e+002
4.267828e+002, 4.478970e+002
4.272649e+002, 4.481672e+002
4.277470e+002, 4.482512e+002
4.282291e+002, 4.483477e+002
4.287112e+002, 4.485096e+002
4.291934e+002, 4.485800e+002
4.296755e+002, 4.483691e+002
4.301576e+002, 4.477272e+002
4.306397e+002, 4.475876e+002
4.311218e+002, 4.480713e+002
4.316039e+002, 4.488959e+002
4.320861e+002, 4.496556e+002
4.325682e+002, 4.503443e+002
4.330503e+002, 4.510629e+002
4.335324e+002, 4.520049e+002
4.340145e+002, 4.529837e+002
4.344966e+002, 4.532540e+002
4.349788e+002, 4.528041e+002
4.354609e+002, 4.521363e+002
4.359430e+002, 4.513848e+002
4.364251e+002, 4.507360e+002
4.369072e+002, 4.507251e+002
4.373893e+002, 4.515162e+002
4.378715e+002, 4.527919e+002
4.383536e+002, 4.546075e+002
4.388357e+002, 4.566741e+002
4.393178e+002, 4.581856e+002
4.397999e+002, 4.577196e+002
4.402820e+002, 4.571380e+002
4.407642e+002, 4.585374e+002
4.412463e+002, 4.620418e+002
4.417284e+002, 4.651282e+002
4.422105e+002, 4.663435e+002
4.426926e+002, 4.665194e+002
4.431747e+002, 4.664278e+002
4.436569e+002, 4.656630e+002
4.441390e+002, 4.653850e+002
4.446211e+002, 4.660724e+002
4.451032e+002, 4.675372e+002
4.455853e+002, 4.692181e+002
4.460674e+002, 4.713483e+002
4.465496e+002, 4.733990e+002
4.470317e+002, 4.752328e+002
4.475138e+002, 4.769383e+002
4.479959e+002, 4.781382e+002
4.484780e+002, 4.786234e+002
4.489601e+002, 4.787794e+002
4.494423e+002, 4.789887e+002
4.499244e+002, 4.793390e+002
4.504065e+002, 4.795955e+002
4.508886e+002, 4.798047e+002
4.513707e+002, 4.798904e+002
4.518528e+002, 4.794536e+002
4.523350e+002, 4.783372e+002
4.528171e+002, 4.771439e+002
4.532992e+002, 4.762633e+002
4.537813e+002, 4.756930e+002
4.542634e+002, 4.746060e+002
4.547455e+002, 4.728099e+002
4.552277e+002, 4.709943e+002
4.557098e+002, 4.702144e+002
4.561919e+002, 4.703095e+002
4.566740e+002, 4.701678e+002
4.571561e+002, 4.694678e+002
4.576382e+002, 4.682901e+002
4.581204e+002, 4.665188e+002
4.586025e+002, 4.642488e+002
4.590846e+002, 4.622729e+002
4.595667e+002, 4.612060e+002
4.600488e+002, 4.607053e+002
4.605309e+002, 4.603632e+002
4.610131e+002, 4.601540e+002
4.614952e+002, 4.599709e+002
4.619773e+002, 4.598561e+002
4.624594e+002, 4.596986e+002
4.629415e+002, 4.593316e+002
4.634236e+002, 4.578852e+002
4.639058e+002, 4.569726e+002
4.643879e+002, 4.579647e+002
4.648700e+002, 4.605462e+002
4.653521e+002, 4.618727e+002
4.658342e+002, 4.597999e+002
4.663163e+002, 4.573459e+002
4.667985e+002, 4.562270e+002
4.672806e+002, 4.575224e+002
4.677627e+002, 4.584120e+002
4.682448e+002, 4.584012e+002
4.687269e+002, 4.581405e+002
4.692090e+002, 4.586273e+002
4.696912e+002, 4.605404e+002
4.701733e+002, 4.619486e+002
4.706554e+002, 4.622322e+002
4.711375e+002, 4.615415e+002
4.716196e+002, 4.613921e+002
4.721017e+002, 4.619385e+002
4.725839e+002, 4.625886e+002
4.730660e+002, 4.629099e+002
4.735481e+002, 4.628973e+002
4.740302e+002, 4.630171e+002
4.745123e+002, 4.632920e+002
4.749944e+002, 4.637569e+002
4.754766e+002, 4.645885e+002
4.759587e+002, 4.657245e+002
4.764408e+002, 4.667583e+002
4.769229e+002, 4.677310e+002
4.774050e+002, 4.683839e+002
4.778871e+002, 4.680054e+002
4.783693e+002, 4.667121e+002
4.788514e+002, 4.655258e+002
4.793335e+002, 4.650435e+002
4.798156e+002, 4.651280e+002
4.802977e+002, 4.657588e+002
4.807798e+002, 4.671373e+002
4.812620e+002, 4.683239e+002
4.817441e+002, 4.688018e+002
4.822262e+002, 4.687235e+002
4.827083e+002, 4.683153e+002
4.831904e+002, 4.668517e+002
4.836725e+002, 4.658274e+002
4.841547e+002, 4.663776e+002
4.846368e+002, 4.683077e+002
4.851189e+002, 4.689463e+002
4.856010e+002, 4.660233e+002
4.860831e+002, 4.632034e+002
4.865652e+002, 4.624583e+002
4.870474e+002, 4.652589e+002
4.875295e+002, 4.669779e+002
4.880116e+002, 4.674272e+002
4.884937e+002, 4.669152e+002
4.889758e+002, 4.656453e+002
4.894579e+002, 4.631488e+002
4.899401e+002, 4.613400e+002
4.904222e+002, 4.607733e+002
4.909043e+002, 4.612301e+002
4.913864e+002, 4.618477e+002
4.918685e+002, 4.626999e+002
4.923506e+002, 4.632064e+002
4.928328e+002, 4.627335e+002
4.933149e+002, 4.615220e+002
4.937970e+002, 4.607120e+002
4.942791e+002, 4.604466e+002
4.947612e+002, 4.602954e+002
4.952433e+002, 4.595983e+002
4.957255e+002, 4.586200e+002
4.962076e+002, 4.580506e+002
4.966897e+002, 4.585854e+002
4.971718e+002, 4.592098e+002
4.976539e+002, 4.588990e+002
4.981360e+002, 4.578251e+002
4.986182e+002, 4.566321e+002
4.991003e+002, 4.553608e+002
4.995824e+002, 4.542998e+002
5.000645e+002, 4.536841e+002
5.005466e+002, 4.535577e+002
5.010287e+002, 4.537237e+002
5.015109e+002, 4.545716e+002
5.019930e+002, 4.554780e+002
5.024751e+002, 4.558087e+002
5.029572e+002, 4.544960e+002
5.034393e+002, 4.537897e+002
5.039214e+002, 4.543267e+002
5.044036e+002, 4.556693e+002
5.048857e+002, 4.563091e+002
5.053678e+002, 4.560762e+002
5.058499e+002, 4.554309e+002
5.063320e+002, 4.544239e+002
5.068141e+002, 4.530061e+002
5.072963e+002, 4.520191e+002
5.077784e+002, 4.515187e+002
5.082605e+002, 4.512799e+002
5.087426e+002, 4.510953e+002
5.092247e+002, 4.509649e+002
5.097068e+002, 4.508959e+002
5.101890e+002, 4.508991e+002
5.106711e+002, 4.509414e+002
5.111532e+002, 4.509414e+002
5.116353e+002, 4.509180e+002
5.121174e+002, 4.509699e+002
5.125995e+002, 4.513456e+002
5.130817e+002, 4.517152e+002
5.135638e+002, 4.515849e+002
5.140459e+002, 4.509692e+002
5.145280e+002, 4.503852e+002
5.150101e+002, 4.502599e+002
5.154922e+002, 4.502711e+002
5.159744e+002, 4.500989e+002
5.164565e+002, 4.495313e+002
5.169386e+002, 4.490721e+002
5.174207e+002, 4.488564e+002
5.179028e+002, 4.488643e+002
5.183849e+002, 4.490593e+002
5.188671e+002, 4.496933e+002
5.193492e+002, 4.502401e+002
5.198313e+002, 4.505980e+002
5.203134e+002, 4.507681e+002
5.207955e+002, 4.508382e+002
5.212776e+002, 4.508940e+002
5.217598e+002, 4.507120e+002
5.222419e+002, 4.500892e+002
5.227240e+002, 4.488964e+002
5.232061e+002, 4.478228e+002
5.236882e+002, 4.467215e+002
5.241703e+002, 4.460666e+002
5.246525e+002, 4.469341e+002
5.251346e+002, 4.491919e+002
5.256167e+002, 4.506262e+002
5.260988e+002, 4.505326e+002
5.265809e+002, 4.493976e+002
5.270630e+002, 4.475473e+002
5.275452e+002, 4.452084e+002
5.280273e+002, 4.436071e+002
5.285094e+002, 4.441735e+002
5.289915e+002, 4.454926e+002
5.294736e+002, 4.457858e+002
5.299557e+002, 4.448831e+002
5.304379e+002, 4.442350e+002
5.309200e+002, 4.450659e+002
5.314021e+002, 4.463994e+002
5.318842e+002, 4.472700e+002
5.323663e+002, 4.471827e+002
5.328484e+002, 4.469756e+002
5.333306e+002, 4.469582e+002
5.338127e+002, 4.469463e+002
5.342948e+002, 4.465474e+002
5.347769e+002, 4.451579e+002
5.352590e+002, 4.440406e+002
5.357411e+002, 4.435827e+002
5.362233e+002, 4.437633e+002
5.367054e+002, 4.436812e+002
5.371875e+002, 4.431700e+002
5.376696e+002, 4.427372e+002
5.381517e+002, 4.427138e+002
5.386339e+002, 4.431220e+002
5.391160e+002, 4.438151e+002
5.395981e+002, 4.449328e+002
5.400802e+002, 4.459209e+002
5.405623e+002, 4.458313e+002
5.410444e+002, 4.448670e+002
5.415266e+002, 4.441869e+002
5.420087e+002, 4.442202e+002
5.424908e+002, 4.446326e+002
5.429729e+002, 4.450615e+002
5.434550e+002, 4.454811e+002
5.439371e+002, 4.458111e+002
5.444193e+002, 4.459897e+002
5.449014e+002, 4.460672e+002
5.453835e+002, 4.461153e+002
5.458656e+002, 4.461450e+002
5.463477e+002, 4.459918e+002
5.468298e+002, 4.454027e+002
5.473120e+002, 4.446991e+002
5.477941e+002, 4.441512e+002
5.482762e+002, 4.439258e+002
5.487583e+002, 4.436710e+002
5.492404e+002, 4.430574e+002
5.497225e+002, 4.424830e+002
5.502047e+002, 4.427341e+002
5.506868e+002, 4.444809e+002
5.511689e+002, 4.457368e+002
5.516510e+002, 4.458423e+002
5.521331e+002, 4.450119e+002
5.526152e+002, 4.446777e+002
5.530974e+002, 4.449389e+002
5.535795e+002, 4.452329e+002
5.540616e+002, 4.451420e+002
5.545437e+002, 4.447504e+002
5.550258e+002, 4.445625e+002
5.555079e+002, 4.446408e+002
5.559901e+002, 4.447110e+002
5.564722e+002, 4.444438e+002
5.569543e+002, 4.439624e+002
5.574364e+002, 4.434897e+002
5.579185e+002, 4.429733e+002
5.584006e+002, 4.426740e+002
5.588828e+002, 4.432000e+002
5.593649e+002, 4.440927e+002
5.598470e+002, 4.443091e+002
5.603291e+002, 4.424383e+002
5.608112e+002, 4.406781e+002
5.612933e+002, 4.400474e+002
5.617755e+002, 4.405926e+002
5.622576e+002, 4.412825e+002
5.627397e+002, 4.421367e+002
5.632218e+002, 4.429552e+002
5.637039e+002, 4.436660e+002
5.641860e+002, 4.443425e+002
5.646682e+002, 4.447064e+002
5.651503e+002, 4.446759e+002
5.656324e+002, 4.444533e+002
5.661145e+002, 4.443565e+002
5.665966e+002, 4.444370e+002
5.670787e+002, 4.441519e+002
5.675609e+002, 4.432017e+002
5.680430e+002, 4.420718e+002
5.685251e+002, 4.418985e+002
5.690072e+002, 4.425958e+002
5.694893e+002, 4.434567e+002
5.699714e+002, 4.445878e+002
5.704536e+002, 4.454305e+002
5.709357e+002, 4.447293e+002
5.714178e+002, 4.425964e+002
5.718999e+002, 4.409550e+002
5.723820e+002, 4.415500e+002
5.728641e+002, 4.429177e+002
5.733463e+002, 4.437778e+002
5.738284e+002, 4.437926e+002
5.743105e+002, 4.435932e+002
5.747926e+002, 4.431064e+002
5.752747e+002, 4.425974e+002
5.757568e+002, 4.424117e+002
5.762390e+002, 4.430928e+002
5.767211e+002, 4.433865e+002
5.772032e+002, 4.429867e+002
5.776853e+002, 4.421117e+002
5.781674e+002, 4.415023e+002
5.786495e+002, 4.411765e+002
5.791317e+002, 4.410718e+002
5.796138e+002, 4.411743e+002
5.800959e+002, 4.414816e+002
5.805780e+002, 4.419378e+002
5.810601e+002, 4.425402e+002
5.815422e+002, 4.433939e+002
5.820244e+002, 4.451351e+002
5.825065e+002, 4.471641e+002
5.829886e+002, 4.477444e+002
5.834707e+002, 4.464472e+002
5.839528e+002, 4.448753e+002
5.844349e+002, 4.442681e+002
5.849171e+002, 4.443642e+002
5.853992e+002, 4.447848e+002
5.858813e+002, 4.460154e+002
5.863634e+002, 4.468701e+002
5.868455e+002, 4.464411e+002
5.873276e+002, 4.452185e+002
5.878098e+002, 4.445631e+002
5.882919e+002, 4.455091e+002
5.887740e+002, 4.462572e+002
5.892561e+002, 4.462203e+002
5.897382e+002, 4.453818e+002
5.902203e+002, 4.445818e+002
5.907025e+002, 4.437503e+002
5.911846e+002, 4.430940e+002
5.916667e+002, 4.427612e+002
5.921488e+002, 4.427645e+002
5.926309e+002, 4.429748e+002
5.931130e+002, 4.434337e+002
5.935952e+002, 4.439445e+002
5.940773e+002, 4.443932e+002
5.945594e+002, 4.447212e+002
5.950415e+002, 4.445903e+002
5.955236e+002, 4.436388e+002
5.960057e+002, 4.427448e+002
5.964879e+002, 4.430225e+002
5.969700e+002, 4.441259e+002
5.974521e+002, 4.452433e+002
5.979342e+002, 4.462520e+002
5.984163e+002, 4.469491e+002
5.988984e+002, 4.472143e+002
5.993806e+002, 4.470591e+002
5.998627e+002, 4.465926e+002
6.003448e+002, 4.453965e+002
6.008269e+002, 4.442669e+002
6.013090e+002, 4.435634e+002
6.017911e+002, 4.433507e+002
6.022733e+002, 4.433415e+002
6.027554e+002, 4.437105e+002
6.032375e+002, 4.440351e+002
6.037196e+002, 4.437765e+002
6.042017e+002, 4.428310e+002
6.046838e+002, 4.424146e+002
6.051660e+002, 4.427656e+002
6.056481e+002, 4.434737e+002
6.061302e+002, 4.438705e+002
6.066123e+002, 4.440316e+002
6.070944e+002, 4.443050e+002
6.075765e+002, 4.448781e+002
6.080587e+002, 4.455692e+002
6.085408e+002, 4.463149e+002
6.090229e+002, 4.470320e+002
6.095050e+002, 4.474550e+002
6.099871e+002, 4.468979e+002
6.104692e+002, 4.464335e+002
6.109514e+002, 4.469668e+002
6.114335e+002, 4.486337e+002
6.119156e+002, 4.496371e+002
6.123977e+002, 4.492674e+002
6.128798e+002, 4.483755e+002
6.133619e+002, 4.473987e+002
6.138441e+002, 4.460219e+002
6.143262e+002, 4.453560e+002
6.148083e+002, 4.456415e+002
6.152904e+002, 4.463088e+002
6.157725e+002, 4.466484e+002
6.162546e+002, 4.466437e+002
6.167368e+002, 4.466631e+002
6.172189e+002, 4.467761e+002
6.177010e+002, 4.469595e+002
6.181831e+002, 4.471306e+002
6.186652e+002, 4.473203e+002
6.191473e+002, 4.476566e+002
6.196295e+002, 4.484728e+002
6.201116e+002, 4.492777e+002
6.205937e+002, 4.497151e+002
6.210758e+002, 4.497467e+002
6.215579e+002, 4.491862e+002
6.220400e+002, 4.471497e+002
6.225222e+002, 4.451260e+002
6.230043e+002, 4.439941e+002
6.234864e+002, 4.439503e+002
6.239685e+002, 4.441390e+002
6.244506e+002, 4.446418e+002
6.249327e+002, 4.452038e+002
6.254149e+002, 4.456678e+002
6.258970e+002, 4.460177e+002
6.263791e+002, 4.462934e+002
6.268612e+002, 4.464743e+002
6.273433e+002, 4.466176e+002
6.278254e+002, 4.468271e+002
6.283076e+002, 4.470959e+002
6.287897e+002, 4.473052e+002
6.292718e+002, 4.474871e+002
6.297539e+002, 4.474951e+002
6.302360e+002, 4.467330e+002
6.307181e+002, 4.455347e+002
6.312003e+002, 4.449710e+002
6.316824e+002, 4.462695e+002
6.321645e+002, 4.478737e+002
6.326466e+002, 4.485706e+002
6.331287e+002, 4.484562e+002
6.336108e+002, 4.482637e+002
6.340930e+002, 4.483273e+002
6.345751e+002, 4.483105e+002
6.350572e+002, 4.479497e+002
6.355393e+002, 4.470892e+002
6.360214e+002, 4.466512e+002
6.365035e+002, 4.467766e+002
6.369857e+002, 4.471499e+002
6.374678e+002, 4.475767e+002
6.379499e+002, 4.480763e+002
6.384320e+002, 4.485016e+002
6.389141e+002, 4.488768e+002
6.393962e+002, 4.490658e+002
6.398784e+002, 4.486100e+002
6.403605e+002, 4.477336e+002
6.408426e+002, 4.474666e+002
6.413247e+002, 4.483644e+002
6.418068e+002, 4.494952e+002
6.422889e+002, 4.500087e+002
6.427711e+002, 4.499808e+002
6.432532e+002, 4.495924e+002
6.437353e+002, 4.482832e+002
6.442174e+002, 4.472486e+002
6.446995e+002, 4.472994e+002
6.451816e+002, 4.482611e+002
6.456638e+002, 4.488699e+002
6.461459e+002, 4.483678e+002
6.466280e+002, 4.480703e+002
6.471101e+002, 4.485216e+002
6.475922e+002, 4.497776e+002
6.480743e+002, 4.506699e+002
6.485565e+002, 4.511333e+002
6.490386e+002, 4.513678e+002
6.495207e+002, 4.514691e+002
6.500028e+002, 4.514461e+002
6.504849e+002, 4.514003e+002
6.509670e+002, 4.513349e+002
6.514492e+002, 4.512464e+002
6.519313e+002, 4.508995e+002
6.524134e+002, 4.505699e+002
6.528955e+002, 4.508769e+002
6.533776e+002, 4.523278e+002
6.538597e+002, 4.536572e+002
6.543419e+002, 4.541598e+002
6.548240e+002, 4.540148e+002
6.553061e+002, 4.534841e+002
6.557882e+002, 4.517332e+002
6.562703e+002, 4.506545e+002
6.567524e+002, 4.511941e+002
6.572346e+002, 4.527189e+002
6.577167e+002, 4.533143e+002
6.581988e+002, 4.526195e+002
6.586809e+002, 4.517940e+002
6.591630e+002, 4.510351e+002
6.596451e+002, 4.504543e+002
6.601273e+002, 4.509951e+002
6.606094e+002, 4.527289e+002
6.610915e+002, 4.542383e+002
6.615736e+002, 4.542404e+002
6.620557e+002, 4.534506e+002
6.625378e+002, 4.533759e+002
6.630200e+002, 4.540841e+002
6.635021e+002, 4.547083e+002
6.639842e+002, 4.548041e+002
6.644663e+002, 4.544274e+002
6.649484e+002, 4.535056e+002
6.654305e+002, 4.516996e+002
6.659127e+002, 4.503152e+002
6.663948e+002, 4.496562e+002
6.668769e+002, 4.495981e+002
6.673590e+002, 4.500194e+002
6.678411e+002, 4.512101e+002
6.683232e+002, 4.523216e+002
6.688054e+002, 4.534096e+002
6.692875e+002, 4.542535e+002
6.697696e+002, 4.542891e+002
6.702517e+002, 4.534967e+002
6.707338e+002, 4.528326e+002
6.712159e+002, 4.524769e+002
6.716981e+002, 4.525344e+002
6.721802e+002, 4.536025e+002
6.726623e+002, 4.553410e+002
6.731444e+002, 4.565713e+002
6.736265e+002, 4.565943e+002
6.741086e+002, 4.559351e+002
6.745908e+002, 4.544816e+002
6.750729e+002, 4.524812e+002
6.755550e+002, 4.513229e+002
6.760371e+002, 4.524005e+002
6.765192e+002, 4.535587e+002
6.770013e+002, 4.537787e+002
6.774835e+002, 4.529514e+002
6.779656e+002, 4.522953e+002
6.784477e+002, 4.516251e+002
6.789298e+002, 4.514529e+002
6.794119e+002, 4.524466e+002
6.798940e+002, 4.546297e+002
6.803762e+002, 4.558050e+002
6.808583e+002, 4.558055e+002
6.813404e+002, 4.554897e+002
6.818225e+002, 4.556615e+002
6.823046e+002, 4.561874e+002
6.827867e+002, 4.569362e+002
6.832689e+002, 4.580781e+002
6.837510e+002, 4.587223e+002
6.842331e+002, 4.575586e+002
6.847152e+002, 4.557363e+002
6.851973e+002, 4.547445e+002
6.856794e+002, 4.560991e+002
6.861616e+002, 4.569655e+002
6.866437e+002, 4.562578e+002
6.871258e+002, 4.549061e+002
6.876079e+002, 4.546632e+002
6.880900e+002, 4.560526e+002
6.885721e+002, 4.571703e+002
6.890543e+002, 4.574702e+002
6.895364e+002, 4.572432e+002
6.900185e+002, 4.573472e+002
6.905006e+002, 4.577695e+002
6.909827e+002, 4.582328e+002
6.914648e+002, 4.586972e+002
6.919470e+002, 4.590624e+002
6.924291e+002, 4.590467e+002
6.929112e+002, 4.587379e+002
6.933933e+002, 4.586259e+002
6.938754e+002, 4.593802e+002
6.943575e+002, 4.601102e+002
6.948397e+002, 4.601127e+002
6.953218e+002, 4.592666e+002
6.958039e+002, 4.587254e+002
6.962860e+002, 4.587172e+002
6.967681e+002, 4.589963e+002
6.972502e+002, 4.595232e+002
6.977324e+002, 4.604053e+002
6.982145e+002, 4.609614e+002
6.986966e+002, 4.610876e+002
6.991787e+002, 4.611898e+002
6.996608e+002, 4.619411e+002
7.001429e+002, 4.630894e+002
7.006251e+002, 4.631840e+002
7.011072e+002, 4.618396e+002
7.015893e+002, 4.605420e+002
7.020714e+002, 4.608931e+002
7.025535e+002, 4.621942e+002
7.030356e+002, 4.634654e+002
7.035178e+002, 4.645648e+002
7.039999e+002, 4.653195e+002
7.044820e+002, 4.654743e+002
7.049641e+002, 4.652873e+002
7.054462e+002, 4.651536e+002
7.059283e+002, 4.649720e+002
7.064105e+002, 4.650681e+002
7.068926e+002, 4.656263e+002
7.073747e+002, 4.664057e+002
7.078568e+002, 4.668118e+002
7.083389e+002, 4.668249e+002
7.088210e+002, 4.667692e+002
7.093032e+002, 4.666416e+002
7.097853e+002, 4.666274e+002
7.102674e+002, 4.673135e+002
7.107495e+002, 4.685189e+002
7.112316e+002, 4.694522e+002
7.117137e+002, 4.694726e+002
7.121959e+002, 4.692332e+002
7.126780e+002, 4.692245e+002
7.131601e+002, 4.694095e+002
7.136422e+002, 4.694318e+002
7.141243e+002, 4.692904e+002
7.146064e+002, 4.688453e+002
7.150886e+002, 4.678046e+002
7.155707e+002, 4.661176e+002
7.160528e+002, 4.655723e+002
7.165349e+002, 4.665122e+002
7.170170e+002, 4.677118e+002
7.174991e+002, 4.685697e+002
7.179813e+002, 4.690553e+002
7.184634e+002, 4.687368e+002
7.189455e+002, 4.675620e+002
7.194276e+002, 4.665364e+002
7.199097e+002, 4.669374e+002
7.203918e+002, 4.678331e+002
7.208740e+002, 4.678482e+002
7.213561e+002, 4.666237e+002
7.218382e+002, 4.655155e+002
7.223203e+002, 4.650431e+002
7.228024e+002, 4.650316e+002
7.232845e+002, 4.653393e+002
7.237667e+002, 4.662277e+002
7.242488e+002, 4.668806e+002
7.247309e+002, 4.669323e+002
7.252130e+002, 4.671413e+002
7.256951e+002, 4.689336e+002
7.261772e+002, 4.725366e+002
7.266594e+002, 4.738901e+002
7.271415e+002, 4.718769e+002
7.276236e+002, 4.688282e+002
7.281057e+002, 4.680119e+002
7.285878e+002, 4.687243e+002
7.290699e+002, 4.690837e+002
7.295521e+002, 4.681264e+002
7.300342e+002, 4.672005e+002
7.305163e+002, 4.675815e+002
7.309984e+002, 4.685610e+002
7.314805e+002, 4.688742e+002
7.319626e+002, 4.667589e+002
7.324448e+002, 4.657448e+002
7.329269e+002, 4.669428e+002
7.334090e+002, 4.695232e+002
7.338911e+002, 4.713450e+002
7.343732e+002, 4.724572e+002
7.348553e+002, 4.724417e+002
7.353375e+002, 4.706750e+002
7.358196e+002, 4.680824e+002
7.363017e+002, 4.669623e+002
7.367838e+002, 4.672168e+002
7.372659e+002, 4.682466e+002
7.377480e+002, 4.707736e+002
7.382302e+002, 4.731432e+002
7.387123e+002, 4.734482e+002
7.391944e+002, 4.720788e+002
7.396765e+002, 4.710482e+002
7.401586e+002, 4.716365e+002
7.406407e+002, 4.721997e+002
7.411229e+002, 4.718060e+002
7.416050e+002, 4.705150e+002
7.420871e+002, 4.699583e+002
7.425692e+002, 4.703361e+002
7.430513e+002, 4.709738e+002
7.435334e+002, 4.716261e+002
7.440156e+002, 4.722675e+002
7.444977e+002, 4.725642e+002
7.449798e+002, 4.725192e+002
7.454619e+002, 4.725484e+002
7.459440e+002, 4.733582e+002
7.464261e+002, 4.742274e+002
7.469083e+002, 4.740601e+002
7.473904e+002, 4.727426e+002
7.478725e+002, 4.715981e+002
7.483546e+002, 4.708481e+002
7.488367e+002, 4.707794e+002
7.493188e+002, 4.718603e+002
7.498010e+002, 4.746855e+002
7.502831e+002, 4.763753e+002
7.507652e+002, 4.766190e+002
7.512473e+002, 4.761899e+002
7.517294e+002, 4.755328e+002
7.522115e+002, 4.746592e+002
7.526937e+002, 4.740156e+002
7.531758e+002, 4.736049e+002
7.536579e+002, 4.736014e+002
7.541400e+002, 4.746711e+002
7.546221e+002, 4.761198e+002
7.551042e+002, 4.766813e+002
7.555864e+002, 4.758692e+002
7.560685e+002, 4.751795e+002
7.565506e+002, 4.755585e+002
7.570327e+002, 4.763890e+002
7.575148e+002, 4.770598e+002
7.579969e+002, 4.781684e+002
7.584791e+002, 4.779086e+002
7.589612e+002, 4.752528e+002
7.594433e+002, 4.723596e+002
7.599254e+002, 4.724056e+002
7.604075e+002, 4.755733e+002
7.608896e+002, 4.771502e+002
7.613718e+002, 4.761122e+002
7.618539e+002, 4.742513e+002
7.623360e+002, 4.739363e+002
7.628181e+002, 4.745683e+002
7.633002e+002, 4.748692e+002
7.637823e+002, 4.742231e+002
7.642645e+002, 4.735993e+002
7.647466e+002, 4.735334e+002
7.652287e+002, 4.738297e+002
7.657108e+002, 4.741944e+002
7.661929e+002, 4.747465e+002
7.666750e+002, 4.751507e+002
7.671572e+002, 4.754106e+002
7.676393e+002, 4.754919e+002
7.681214e+002, 4.752040e+002
7.686035e+002, 4.745022e+002
7.690856e+002, 4.741106e+002
7.695677e+002, 4.742051e+002
7.700499e+002, 4.746930e+002
7.705320e+002, 4.756168e+002
7.710141e+002, 4.768188e+002
7.714962e+002, 4.779011e+002
7.719783e+002, 4.787550e+002
7.724604e+002, 4.793749e+002
7.729426e+002, 4.797451e+002
7.734247e+002, 4.798739e+002
7.739068e+002, 4.797645e+002
7.743889e+002, 4.792328e+002
7.748710e+002, 4.787440e+002
7.753531e+002, 4.784548e+002
7.758353e+002, 4.782278e+002
7.763174e+002, 4.774088e+002
7.767995e+002, 4.759439e+002
7.772816e+002, 4.753724e+002
7.777637e+002, 4.768202e+002
7.782458e+002, 4.788739e+002
7.787280e+002, 4.789164e+002
7.792101e+002, 4.774978e+002
7.796922e+002, 4.763779e+002
7.801743e+002, 4.767298e+002
7.806564e+002, 4.772754e+002
7.811385e+002, 4.773037e+002
7.816207e+002, 4.769503e+002
7.821028e+002, 4.768512e+002
7.825849e+002, 4.768741e+002
7.830670e+002, 4.773871e+002
7.835491e+002, 4.784558e+002
7.840313e+002, 4.800926e+002
7.845134e+002, 4.830404e+002
7.849955e+002, 4.873651e+002
7.854776e+002, 4.898223e+002
7.859597e+002, 4.878497e+002
7.864418e+002, 4.838686e+002
7.869240e+002, 4.813779e+002
7.874061e+002, 4.801750e+002
7.878882e+002, 4.795692e+002
7.883703e+002, 4.796172e+002
7.888524e+002, 4.798155e+002
7.893345e+002, 4.799415e+002
7.898167e+002, 4.800054e+002
7.902988e+002, 4.801048e+002
7.907809e+002, 4.801053e+002
7.912630e+002, 4.804688e+002
7.917451e+002, 4.817597e+002
7.922272e+002, 4.834677e+002
7.927094e+002, 4.827818e+002
7.931915e+002, 4.798296e+002
7.936736e+002, 4.776917e+002
7.941557e+002, 4.792107e+002
7.946378e+002, 4.818810e+002
7.951199e+002, 4.822579e+002
7.956021e+002, 4.808112e+002
7.960842e+002, 4.798092e+002
7.965663e+002, 4.809220e+002
7.970484e+002, 4.820320e+002
7.975305e+002, 4.820314e+002
7.980126e+002, 4.810648e+002
7.984948e+002, 4.805075e+002
7.989769e+002, 4.804893e+002
7.994590e+002, 4.805786e+002
7.999411e+002, 4.806166e+002
8.004232e+002, 4.806204e+002
8.009053e+002, 4.806275e+002
8.013875e+002, 4.806449e+002
8.018696e+002, 4.807238e+002
8.023517e+002, 4.809839e+002
8.028338e+002, 4.812592e+002
8.033159e+002, 4.814117e+002
8.037980e+002, 4.814362e+002
8.042802e+002, 4.813314e+002
8.047623e+002, 4.805379e+002
8.052444e+002, 4.802148e+002
8.057265e+002, 4.810193e+002
8.062086e+002, 4.827570e+002
8.066907e+002, 4.836212e+002
8.071729e+002, 4.833590e+002
8.076550e+002, 4.833086e+002
8.081371e+002, 4.844673e+002
8.086192e+002, 4.861448e+002
8.091013e+002, 4.863853e+002
8.095834e+002, 4.853739e+002
8.100656e+002, 4.841627e+002
8.105477e+002, 4.828157e+002
8.110298e+002, 4.819738e+002
8.115119e+002, 4.825970e+002
8.119940e+002, 4.844028e+002
8.124761e+002, 4.851149e+002
8.129583e+002, 4.831541e+002
8.134404e+002, 4.816683e+002
8.139225e+002, 4.818007e+002
8.144046e+002, 4.832299e+002
8.148867e+002, 4.840057e+002
8.153688e+002, 4.840992e+002
8.158510e+002, 4.840193e+002
8.163331e+002, 4.838800e+002
8.168152e+002, 4.838087e+002
8.172973e+002, 4.841671e+002
8.177794e+002, 4.848190e+002
8.182615e+002, 4.852333e+002
8.187437e+002, 4.848035e+002
8.192258e+002, 4.843897e+002
8.197079e+002, 4.842868e+002
8.201900e+002, 4.845365e+002
8.206721e+002, 4.852975e+002
8.211542e+002, 4.870851e+002
8.216364e+002, 4.882117e+002
8.221185e+002, 4.878792e+002
8.226006e+002, 4.866026e+002
8.230827e+002, 4.861565e+002
8.235648e+002, 4.864396e+002
8.240469e+002, 4.865707e+002
8.245291e+002, 4.857975e+002
8.250112e+002, 4.849043e+002
8.254933e+002, 4.846766e+002
8.259754e+002, 4.849643e+002
8.264575e+002, 4.852676e+002
8.269396e+002, 4.858236e+002
8.274218e+002, 4.858906e+002
8.279039e+002, 4.848823e+002
8.283860e+002, 4.833094e+002
8.288681e+002, 4.830664e+002
8.293502e+002, 4.844005e+002
8.298323e+002, 4.856300e+002
8.303145e+002, 4.862880e+002
8.307966e+002, 4.863911e+002
8.312787e+002, 4.855620e+002
8.317608e+002, 4.841476e+002
8.322429e+002, 4.832552e+002
8.327250e+002, 4.839334e+002
8.332072e+002, 4.847123e+002
8.336893e+002, 4.846177e+002
8.341714e+002, 4.840342e+002
8.346535e+002, 4.840163e+002
8.351356e+002, 4.849228e+002
8.356177e+002, 4.859039e+002
8.360999e+002, 4.870520e+002
8.365820e+002, 4.879887e+002
8.370641e+002, 4.874860e+002
8.375462e+002, 4.857143e+002
8.380283e+002, 4.846797e+002
8.385104e+002, 4.853155e+002
8.389926e+002, 4.864077e+002
8.394747e+002, 4.864165e+002
8.399568e+002, 4.859659e+002
8.404389e+002, 4.861490e+002
8.409210e+002, 4.885235e+002
8.414031e+002, 4.901057e+002
8.418853e+002, 4.896214e+002
8.423674e+002, 4.882847e+002
8.428495e+002, 4.878026e+002
8.433316e+002, 4.883627e+002
8.438137e+002, 4.887923e+002
8.442958e+002, 4.888495e+002
8.447780e+002, 4.888487e+002
8.452601e+002, 4.896882e+002
8.457422e+002, 4.907988e+002
8.462243e+002, 4.906570e+002
8.467064e+002, 4.882938e+002
8.471885e+002, 4.860396e+002
8.476707e+002, 4.851415e+002
8.481528e+002, 4.851327e+002
8.486349e+002, 4.855146e+002
8.491170e+002, 4.865586e+002
8.495991e+002, 4.873957e+002
8.500812e+002, 4.880519e+002
8.505634e+002, 4.884568e+002
8.510455e+002, 4.883825e+002
8.515276e+002, 4.879247e+002
8.520097e+002, 4.878568e+002
8.524918e+002, 4.883330e+002
8.529739e+002, 4.888260e+002
8.534561e+002, 4.887960e+002
8.539382e+002, 4.885433e+002
8.544203e+002, 4.883963e+002
8.549024e+002, 4.884364e+002
8.553845e+002, 4.884940e+002
8.558666e+002, 4.883760e+002
8.563488e+002, 4.883988e+002
8.568309e+002, 4.888932e+002
8.573130e+002, 4.900011e+002
8.577951e+002, 4.903593e+002
8.582772e+002, 4.898736e+002
8.587593e+002, 4.891863e+002
8.592415e+002, 4.886300e+002
8.597236e+002, 4.883345e+002
8.602057e+002, 4.887628e+002
8.606878e+002, 4.899384e+002
8.611699e+002, 4.906570e+002
8.616520e+002, 4.892580e+002
8.621342e+002, 4.881263e+002
8.626163e+002, 4.892867e+002
8.630984e+002, 4.928748e+002
8.635805e+002, 4.945250e+002
8.640626e+002, 4.937806e+002
8.645447e+002, 4.924246e+002
8.650269e+002, 4.912206e+002
8.655090e+002, 4.902328e+002
8.659911e+002, 4.897540e+002
8.664732e+002, 4.897554e+002
8.669553e+002, 4.900031e+002
8.674374e+002, 4.906760e+002
8.679196e+002, 4.912696e+002
8.684017e+002, 4.912487e+002
8.688838e+002, 4.907232e+002
8.693659e+002, 4.906547e+002
8.698480e+002, 4.918028e+002
8.703301e+002, 4.921635e+002
8.708123e+002, 4.906273e+002
8.712944e+002, 4.881215e+002
8.717765e+002, 4.884798e+002
8.722586e+002, 4.913586e+002
8.727407e+002, 4.930670e+002
8.732228e+002, 4.911299e+002
8.737050e+002, 4.882290e+002
8.741871e+002, 4.868034e+002
8.746692e+002, 4.865615e+002
8.751513e+002, 4.868555e+002
8.756334e+002, 4.882300e+002
8.761155e+002, 4.891980e+002
8.765977e+002, 4.893483e+002
8.770798e+002, 4.890815e+002
8.775619e+002, 4.891575e+002
8.780440e+002, 4.896179e+002
8.785261e+002, 4.898240e+002
8.790082e+002, 4.895562e+002
8.794904e+002, 4.892538e+002
8.799725e+002, 4.895074e+002
8.804546e+002, 4.901253e+002
8.809367e+002, 4.908207e+002
8.814188e+002, 4.917084e+002
8.819009e+002, 4.922282e+002
8.823831e+002, 4.919914e+002
8.828652e+002, 4.913896e+002
8.833473e+002, 4.908475e+002
8.838294e+002, 4.904251e+002
8.843115e+002, 4.897133e+002
8.847936e+002, 4.885633e+002
8.852758e+002, 4.876465e+002
8.857579e+002, 4.879980e+002
8.862400e+002, 4.890400e+002
8.867221e+002, 4.892769e+002
8.872042e+002, 4.884745e+002
8.876863e+002, 4.880315e+002
8.881685e+002, 4.894701e+002
8.886506e+002, 4.910017e+002
8.891327e+002, 4.910894e+002
8.896148e+002, 4.893614e+002
8.900969e+002, 4.887684e+002
8.905790e+002, 4.896700e+002
8.910612e+002, 4.907393e+002
8.915433e+002, 4.911572e+002
8.920254e+002, 4.910939e+002
8.925075e+002, 4.912144e+002
8.929896e+002, 4.914796e+002
8.934717e+002, 4.916193e+002
8.939539e+002, 4.913448e+002
8.944360e+002, 4.909972e+002
8.949181e+002, 4.907478e+002
8.954002e+002, 4.906187e+002
8.958823e+002, 4.907065e+002
8.963644e+002, 4.912350e+002
8.968466e+002, 4.915768e+002
8.973287e+002, 4.915655e+002
8.978108e+002, 4.912783e+002
8.982929e+002, 4.907839e+002
8.987750e+002, 4.901465e+002
8.992571e+002, 4.897441e+002
8.997393e+002, 4.898704e+002
9.002214e+002, 4.900644e+002
9.007035e+002, 4.896787e+002
9.011856e+002, 4.891563e+002
9.016677e+002, 4.892480e+002
9.021498e+002, 4.906841e+002
9.026320e+002, 4.920028e+002
9.031141e+002, 4.932647e+002
9.035962e+002, 4.941891e+002
9.040783e+002, 4.942570e+002
9.045604e+002, 4.935252e+002
9.050425e+002, 4.927734e+002
9.055247e+002, 4.921135e+002
9.060068e+002, 4.914501e+002
9.064889e+002, 4.904712e+002
9.069710e+002, 4.895631e+002
9.074531e+002, 4.892016e+002
9.079352e+002, 4.895941e+002
9.084174e+002, 4.900716e+002
9.088995e+002, 4.908829e+002
9.093816e+002, 4.913476e+002
9.098637e+002, 4.907088e+002
9.103458e+002, 4.889653e+002
9.108279e+002, 4.891218e+002
9.113101e+002, 4.912188e+002
9.117922e+002, 4.930238e+002
9.122743e+002, 4.924226e+002
9.127564e+002, 4.909979e+002
9.132385e+002, 4.903326e+002
9.137206e+002, 4.904533e+002
9.142028e+002, 4.909747e+002
9.146849e+002, 4.927639e+002
9.151670e+002, 4.937619e+002
9.156491e+002, 4.930933e+002
9.161312e+002, 4.912447e+002
9.166133e+002, 4.899535e+002
9.170955e+002, 4.892215e+002
9.175776e+002, 4.892162e+002
9.180597e+002, 4.904181e+002
9.185418e+002, 4.917395e+002
9.190239e+002, 4.915575e+002
9.195060e+002, 4.905380e+002
9.199882e+002, 4.899711e+002
9.204703e+002, 4.905869e+002
9.209524e+002, 4.912939e+002
9.214345e+002, 4.920931e+002
9.219166e+002, 4.927337e+002
9.223987e+002, 4.926982e+002
9.228809e+002, 4.918950e+002
9.233630e+002, 4.919747e+002
9.238451e+002, 4.932621e+002
9.243272e+002, 4.945859e+002
9.248093e+002, 4.946846e+002
9.252914e+002, 4.940597e+002
9.257736e+002, 4.931748e+002
9.262557e+002, 4.919616e+002
9.267378e+002, 4.914481e+002
9.272199e+002, 4.924993e+002
9.277020e+002, 4.938434e+002
9.281841e+002, 4.950924e+002
9.286663e+002, 4.962411e+002
9.291484e+002, 4.958470e+002
9.296305e+002, 4.938329e+002
9.301126e+002, 4.919667e+002
9.305947e+002, 4.915981e+002
9.310768e+002, 4.918544e+002
9.315590e+002, 4.916917e+002
9.320411e+002, 4.911681e+002
9.325232e+002, 4.906256e+002
9.330053e+002, 4.897672e+002
9.334874e+002, 4.894213e+002
9.339695e+002, 4.899683e+002
9.344517e+002, 4.910456e+002
9.349338e+002, 4.919244e+002
9.354159e+002, 4.926083e+002
9.358980e+002, 4.925873e+002
9.363801e+002, 4.915030e+002
9.368622e+002, 4.902579e+002
9.373444e+002, 4.896216e+002
9.378265e+002, 4.896489e+002
9.383086e+002, 4.905368e+002
9.387907e+002, 4.932501e+002
9.392728e+002, 4.949692e+002
9.397549e+002, 4.946249e+002
9.402371e+002, 4.937471e+002
9.407192e+002, 4.936889e+002
9.412013e+002, 4.944928e+002
9.416834e+002, 4.942502e+002
9.421655e+002, 4.928341e+002
9.426476e+002, 4.916268e+002
9.431298e+002, 4.919383e+002
9.436119e+002, 4.929847e+002
9.440940e+002, 4.940661e+002
9.445761e+002, 4.951202e+002
9.450582e+002, 4.959712e+002
9.455403e+002, 4.967448e+002
9.460225e+002, 4.970810e+002
9.465046e+002, 4.967659e+002
9.469867e+002, 4.959494e+002
9.474688e+002, 4.949977e+002
9.479509e+002, 4.939730e+002
9.484330e+002, 4.936643e+002
9.489152e+002, 4.947827e+002
9.493973e+002, 4.962415e+002
9.498794e+002, 4.972149e+002
9.503615e+002, 4.977328e+002
9.508436e+002, 4.978485e+002
9.513257e+002, 4.971467e+002
9.518079e+002, 4.966797e+002
9.522900e+002, 4.967368e+002
9.527721e+002, 4.967363e+002
9.532542e+002, 4.954324e+002
9.537363e+002, 4.931872e+002
9.542184e+002, 4.932260e+002
9.547006e+002, 4.961156e+002
9.551827e+002, 4.987452e+002
9.556648e+002, 4.982979e+002
9.561469e+002, 4.966914e+002
9.566290e+002, 4.955687e+002
9.571111e+002, 4.951761e+002
9.575933e+002, 4.945448e+002
9.580754e+002, 4.933592e+002
9.585575e+002, 4.924903e+002
9.590396e+002, 4.923712e+002
9.595217e+002, 4.928831e+002
9.600038e+002, 4.940107e+002
9.604860e+002, 4.955348e+002
9.609681e+002, 4.963189e+002
9.614502e+002, 4.948638e+002
9.619323e+002, 4.933880e+002
9.624144e+002, 4.934138e+002
9.628965e+002, 4.943230e+002
9.633787e+002, 4.946734e+002
9.638608e+002, 4.939835e+002
9.643429e+002, 4.938861e+002
9.648250e+002, 4.947154e+002
9.653071e+002, 4.958419e+002
9.657892e+002, 4.962992e+002
9.662714e+002, 4.963796e+002
9.667535e+002, 4.969391e+002
9.672356e+002, 4.982172e+002
9.677177e+002, 4.992113e+002
9.681998e+002, 4.992105e+002
9.686819e+002, 4.988332e+002
9.691641e+002, 4.983753e+002
9.696462e+002, 4.977959e+002
9.701283e+002, 4.980656e+002
9.706104e+002, 4.993903e+002
9.710925e+002, 5.004263e+002
9.715746e+002, 5.001050e+002
9.720568e+002, 4.991524e+002
9.725389e+002, 4.987845e+002
9.730210e+002, 4.989181e+002
9.735031e+002, 4.992954e+002
9.739852e+002, 5.001786e+002
9.744673e+002, 5.008401e+002
9.749495e+002, 5.009912e+002
9.754316e+002, 5.008532e+002
9.759137e+002, 5.006897e+002
9.763958e+002, 5.004801e+002
9.768779e+002, 5.008209e+002
9.773600e+002, 5.019724e+002
9.778422e+002, 5.030057e+002
9.783243e+002, 5.027007e+002
9.788064e+002, 5.018101e+002
9.792885e+002, 5.012990e+002
9.797706e+002, 5.014247e+002
9.802527e+002, 5.014423e+002
9.807349e+002, 5.009452e+002
9.812170e+002, 5.007169e+002
9.816991e+002, 5.014838e+002
9.821812e+002, 5.029694e+002
9.826633e+002, 5.026195e+002
9.831454e+002, 5.006216e+002
9.836276e+002, 4.991454e+002
9.841097e+002, 4.996872e+002
9.845918e+002, 5.010331e+002
9.850739e+002, 5.031320e+002
9.855560e+002, 5.052728e+002
9.860381e+002, 5.053282e+002
9.865203e+002, 5.015407e+002
9.870024e+002, 4.992981e+002
9.874845e+002, 4.995605e+002
9.879666e+002, 5.010526e+002
9.884487e+002, 5.025045e+002
9.889308e+002, 5.036434e+002
9.894130e+002, 5.032941e+002
9.898951e+002, 5.009811e+002
9.903772e+002, 4.994496e+002
9.908593e+002, 5.013937e+002
9.913414e+002, 5.038593e+002
9.918235e+002, 5.045824e+002
9.923057e+002, 5.034526e+002
9.927878e+002, 5.026484e+002
9.932699e+002, 5.021870e+002
9.937520e+002, 5.018830e+002
9.942341e+002, 5.016730e+002
9.947162e+002, 5.015268e+002
9.951984e+002, 5.013809e+002
9.956805e+002, 5.012559e+002
9.961626e+002, 5.012151e+002
9.966447e+002, 5.013080e+002
9.971268e+002, 5.014351e+002
9.976089e+002, 5.012703e+002
9.980911e+002, 5.013637e+002
9.985732e+002, 5.029345e+002
9.990553e+002, 5.059623e+002
9.995374e+002, 5.072688e+002
1.000020e+003, 5.063089e+002
1.000502e+003, 5.048365e+002
1.000984e+003, 5.038351e+002
1.001466e+003, 5.035277e+002
1.001948e+003, 5.045233e+002
1.002430e+003, 5.070467e+002
1.002912e+003, 5.084361e+002
1.003394e+003, 5.080744e+002
1.003876e+003, 5.074663e+002
1.004359e+003, 5.072330e+002
1.004841e+003, 5.072043e+002
1.005323e+003, 5.067085e+002
1.005805e+003, 5.059180e+002
1.006287e+003, 5.055557e+002
1.006769e+003, 5.063839e+002
1.007251e+003, 5.071387e+002
1.007733e+003, 5.071701e+002
1.008216e+003, 5.067238e+002
1.008698e+003, 5.060074e+002
1.009180e+003, 5.045921e+002
1.009662e+003, 5.048380e+002
1.010144e+003, 5.071980e+002
1.010626e+003, 5.095498e+002
1.011108e+003, 5.092164e+002
1.011590e+003, 5.077629e+002
1.012072e+003, 5.076114e+002
1.012555e+003, 5.088684e+002
1.013037e+003, 5.100932e+002
1.013519e+003, 5.108873e+002
1.014001e+003, 5.114349e+002
1.014483e+003, 5.118369e+002
1.014965e+003, 5.120293e+002
1.015447e+003, 5.117535e+002
1.015929e+003, 5.110395e+002
1.016411e+003, 5.100616e+002
1.016894e+003, 5.084748e+002
1.017376e+003, 5.075999e+002
1.017858e+003, 5.095226e+002
1.018340e+003, 5.124214e+002
1.018822e+003, 5.139511e+002
1.019304e+003, 5.131848e+002
1.019786e+003, 5.126955e+002
1.020268e+003, 5.125781e+002
1.020751e+003, 5.125017e+002
1.021233e+003, 5.121510e+002
1.021715e+003, 5.116622e+002
1.022197e+003, 5.113283e+002
1.022679e+003, 5.111743e+002
1.023161e+003, 5.113080e+002
1.023643e+003, 5.123751e+002
1.024125e+003, 5.130646e+002
1.024607e+003, 5.123441e+002
1.025090e+003, 5.110755e+002
1.025572e+003, 5.111992e+002
1.026054e+003, 5.128265e+002
1.026536e+003, 5.142068e+002
1.027018e+003, 5.150202e+002
1.027500e+003, 5.155250e+002
1.027982e+003, 5.164935e+002
1.028464e+003, 5.170344e+002
1.028947e+003, 5.157167e+002
1.029429e+003, 5.117234e+002
1.029911e+003, 5.092316e+002
1.030393e+003, 5.088542e+002
1.030875e+003, 5.093308e+002
1.031357e+003, 5.103490e+002
1.031839e+003, 5.116242e+002
1.032321e+003, 5.119948e+002
1.032803e+003, 5.116659e+002
1.033286e+003, 5.115029e+002
1.033768e+003, 5.122694e+002
1.034250e+003, 5.129148e+002
1.034732e+003, 5.127110e+002
1.035214e+003, 5.122385e+002
1.035696e+003, 5.123890e+002
1.036178e+003, 5.133317e+002
1.036660e+003, 5.139591e+002
1.037143e+003, 5.141980e+002
1.037625e+003, 5.140935e+002
1.038107e+003, 5.136520e+002
1.038589e+003, 5.129088e+002
1.039071e+003, 5.113799e+002
1.039553e+003, 5.091846e+002
1.040035e+003, 5.087793e+002
1.040517e+003, 5.122350e+002
1.041000e+003, 5.151461e+002
1.041482e+003, 5.162894e+002
1.041964e+003, 5.161264e+002
1.042446e+003, 5.154055e+002
1.042928e+003, 5.142611e+002
1.043410e+003, 5.131669e+002
1.043892e+003, 5.120693e+002
1.044374e+003, 5.116349e+002
1.044856e+003, 5.130609e+002
1.045339e+003, 5.147972e+002
1.045821e+003, 5.153844e+002
1.046303e+003, 5.146135e+002
1.046785e+003, 5.141002e+002
1.047267e+003, 5.138353e+002
1.047749e+003, 5.139197e+002
1.048231e+003, 5.148943e+002
1.048713e+003, 5.159247e+002
1.049195e+003, 5.156946e+002
1.049677e+003, 5.146077e+002
1.050160e+003, 5.138473e+002
1.050642e+003, 5.139423e+002
1.051124e+003, 5.141519e+002
1.051606e+003, 5.144942e+002
1.052088e+003, 5.147670e+002
1.052570e+003, 5.144261e+002
1.053052e+003, 5.137538e+002
1.053534e+003, 5.141724e+002
1.054017e+003, 5.158915e+002
1.054499e+003, 5.171035e+002
1.054981e+003, 5.158168e+002
1.055463e+003, 5.144620e+002
1.055945e+003, 5.150963e+002
1.056427e+003, 5.171668e+002
1.056909e+003, 5.168762e+002
1.057391e+003, 5.139213e+002
1.057874e+003, 5.123061e+002
1.058356e+003, 5.139356e+002
1.058838e+003, 5.163634e+002
1.059320e+003, 5.164051e+002
1.059802e+003, 5.153950e+002
1.060284e+003, 5.153395e+002
1.060766e+003, 5.174921e+002
1.061248e+003, 5.185897e+002
1.061730e+003, 5.182354e+002
1.062213e+003, 5.173957e+002
1.062695e+003, 5.165131e+002
1.063177e+003, 5.157147e+002
1.063659e+003, 5.155340e+002
1.064141e+003, 5.158757e+002
1.064623e+003, 5.163123e+002
1.065105e+003, 5.169662e+002
1.065587e+003, 5.172673e+002
1.066070e+003, 5.165778e+002
1.066552e+003, 5.156053e+002
1.067034e+003, 5.154960e+002
1.067516e+003, 5.162814e+002
1.067998e+003, 5.167922e+002
1.068480e+003, 5.168757e+002
1.068962e+003, 5.168141e+002
1.069444e+003, 5.165948e+002
1.069927e+003, 5.165484e+002
1.070409e+003, 5.173539e+002
1.070891e+003, 5.189857e+002
1.071373e+003, 5.190905e+002
1.071855e+003, 5.168450e+002
1.072337e+003, 5.152944e+002
1.072819e+003, 5.155793e+002
1.073301e+003, 5.167491e+002
1.073783e+003, 5.170168e+002
1.074266e+003, 5.168735e+002
1.074748e+003, 5.174398e+002
1.075230e+003, 5.193857e+002
1.075712e+003, 5.210071e+002
1.076194e+003, 5.219985e+002
1.076676e+003, 5.223861e+002
1.077158e+003, 5.218743e+002
1.077640e+003, 5.206318e+002
1.078122e+003, 5.205648e+002
1.078604e+003, 5.215464e+002
1.079087e+003, 5.225061e+002
1.079569e+003, 5.229064e+002
1.080051e+003, 5.230287e+002
1.080533e+003, 5.230206e+002
1.081015e+003, 5.228271e+002
1.081497e+003, 5.222551e+002
1.081979e+003, 5.210524e+002
1.082461e+003, 5.208168e+002
1.082944e+003, 5.217819e+002
1.083426e+003, 5.229195e+002
1.083908e+003, 5.233762e+002
1.084390e+003, 5.233590e+002
1.084872e+003, 5.229556e+002
1.085354e+003, 5.222300e+002
1.085836e+003, 5.217130e+002
1.086318e+003, 5.212766e+002
1.086801e+003, 5.214907e+002
1.087283e+003, 5.227715e+002
1.087765e+003, 5.243339e+002
1.088247e+003, 5.245841e+002
1.088729e+003, 5.239610e+002
1.089211e+003, 5.236243e+002
1.089693e+003, 5.238812e+002
1.090175e+003, 5.240840e+002
1.090657e+003, 5.239050e+002
1.091140e+003, 5.236300e+002
1.091622e+003, 5.233264e+002
1.092104e+003, 5.230422e+002
1.092586e+003, 5.233058e+002
1.093068e+003, 5.240659e+002
1.093550e+003, 5.246862e+002
1.094032e+003, 5.247782e+002
1.094514e+003, 5.247999e+002
1.094997e+003, 5.253912e+002
1.095479e+003, 5.259562e+002
1.095961e+003, 5.255522e+002
1.096443e+003, 5.234965e+002
1.096925e+003, 5.229456e+002
1.097407e+003, 5.240967e+002
1.097889e+003, 5.255371e+002
1.098371e+003, 5.259903e+002
1.098854e+003, 5.262043e+002
1.099336e+003, 5.275678e+002
1.099818e+003, 5.296060e+002
1.100300e+003, 5.303704e+002
1.100782e+003, 5.285124e+002
1.101264e+003, 5.268400e+002
1.101746e+003, 5.254919e+002
1.102228e+003, 5.248611e+002
1.102710e+003, 5.260297e+002
1.103193e+003, 5.282302e+002
1.103675e+003, 5.295477e+002
1.104157e+003, 5.297533e+002
1.104639e+003, 5.298268e+002
1.105121e+003, 5.303487e+002
1.105603e+003, 5.306298e+002
1.106085e+003, 5.303046e+002
1.106567e+003, 5.296204e+002
1.107049e+003, 5.293798e+002
1.107531e+003, 5.295203e+002
1.108014e+003, 5.294998e+002
1.108496e+003, 5.290092e+002
1.108978e+003, 5.288847e+002
1.109460e+003, 5.303097e+002
1.109942e+003, 5.319044e+002
1.110424e+003, 5.322925e+002
1.110906e+003, 5.313965e+002
1.111388e+003, 5.312919e+002
1.111871e+003, 5.320536e+002
1.112353e+003, 5.324836e+002
1.112835e+003, 5.316564e+002
1.113317e+003, 5.306262e+002
1.113799e+003, 5.303765e+002
1.114281e+003, 5.307826e+002
1.114763e+003, 5.317059e+002
1.115245e+003, 5.337565e+002
1.115728e+003, 5.349642e+002
1.116210e+003, 5.352534e+002
1.116692e+003, 5.349721e+002
1.117174e+003, 5.338776e+002
1.117656e+003, 5.326663e+002
1.118138e+003, 5.327829e+002
1.118620e+003, 5.339807e+002
1.119102e+003, 5.351240e+002
1.119584e+003, 5.359095e+002
1.120067e+003, 5.364633e+002
1.120549e+003, 5.368230e+002
1.121031e+003, 5.369218e+002
1.121513e+003, 5.364926e+002
1.121995e+003, 5.357264e+002
1.122477e+003, 5.352855e+002
1.122959e+003, 5.352247e+002
1.123441e+003, 5.353774e+002
1.123924e+003, 5.359389e+002
1.124406e+003, 5.363648e+002
1.124888e+003, 5.363107e+002
1.125370e+003, 5.360248e+002
1.125852e+003, 5.362294e+002
1.126334e+003, 5.368919e+002
1.126816e+003, 5.376109e+002
1.127298e+003, 5.383550e+002
1.127781e+003, 5.388618e+002
1.128263e+003, 5.390363e+002
1.128745e+003, 5.388129e+002
1.129227e+003, 5.377725e+002
1.129709e+003, 5.360095e+002
1.130191e+003, 5.360798e+002
1.130673e+003, 5.381583e+002
1.131155e+003, 5.391907e+002
1.131637e+003, 5.372728e+002
1.132120e+003, 5.349971e+002
1.132602e+003, 5.352280e+002
1.133084e+003, 5.367762e+002
1.133566e+003, 5.379623e+002
1.134048e+003, 5.383573e+002
1.134530e+003, 5.392476e+002
1.135012e+003, 5.408170e+002
1.135494e+003, 5.421249e+002
1.135976e+003, 5.424609e+002
1.136458e+003, 5.422361e+002
1.136941e+003, 5.420684e+002
1.137423e+003, 5.418802e+002
1.137905e+003, 5.414813e+002
1.138387e+003, 5.396906e+002
1.138869e+003, 5.396580e+002
1.139351e+003, 5.421954e+002
1.139833e+003, 5.450698e+002
1.140315e+003, 5.459609e+002
1.140798e+003, 5.455347e+002
1.141280e+003, 5.452648e+002
1.141762e+003, 5.451904e+002
1.142244e+003, 5.451021e+002
1.142726e+003, 5.449395e+002
1.143208e+003, 5.447087e+002
1.143690e+003, 5.444075e+002
1.144172e+003, 5.440486e+002
1.144655e+003, 5.436434e+002
1.145137e+003, 5.432000e+002
1.145619e+003, 5.424901e+002
1.146101e+003, 5.414852e+002
1.146583e+003, 5.413024e+002
1.147065e+003, 5.436793e+002
1.147547e+003, 5.458079e+002
1.148029e+003, 5.463440e+002
1.148511e+003, 5.457540e+002
1.148994e+003, 5.451451e+002
1.149476e+003, 5.445641e+002
1.149958e+003, 5.445051e+002
1.150440e+003, 5.451838e+002
1.150922e+003, 5.458609e+002
1.151404e+003, 5.457455e+002
1.151886e+003, 5.456326e+002
1.152368e+003, 5.461493e+002
1.152851e+003, 5.472306e+002
1.153333e+003, 5.483821e+002
1.153815e+003, 5.495973e+002
1.154297e+003, 5.508016e+002
1.154779e+003, 5.521666e+002
1.155261e+003, 5.530411e+002
1.155743e+003, 5.522932e+002
1.156225e+003, 5.510001e+002
1.156708e+003, 5.504031e+002
1.157190e+003, 5.505850e+002
1.157672e+003, 5.512775e+002
1.158154e+003, 5.526020e+002
1.158636e+003, 5.534066e+002
1.159118e+003, 5.528227e+002
1.159600e+003, 5.516560e+002
1.160082e+003, 5.503291e+002
1.160564e+003, 5.492082e+002
1.161047e+003, 5.490241e+002
1.161529e+003, 5.506125e+002
1.162011e+003, 5.512999e+002
1.162493e+003, 5.509346e+002
1.162975e+003, 5.502996e+002
1.163457e+003, 5.497084e+002
1.163939e+003, 5.494047e+002
1.164421e+003, 5.500329e+002
1.164903e+003, 5.512449e+002
1.165385e+003, 5.519899e+002
1.165868e+003, 5.517343e+002
1.166350e+003, 5.515223e+002
1.166832e+003, 5.514259e+002
1.167314e+003, 5.513696e+002
1.167796e+003, 5.510543e+002
1.168278e+003, 5.508278e+002
1.168760e+003, 5.516713e+002
1.169242e+003, 5.533758e+002
1.169725e+003, 5.543073e+002
1.170207e+003, 5.527169e+002
1.170689e+003, 5.523185e+002
1.171171e+003, 5.540602e+002
1.171653e+003, 5.564710e+002
1.172135e+003, 5.577206e+002
1.172617e+003, 5.579667e+002
1.173099e+003, 5.572892e+002
1.173582e+003, 5.557324e+002
1.174064e+003, 5.545824e+002
1.174546e+003, 5.544105e+002
1.175028e+003, 5.546568e+002
1.175510e+003, 5.553609e+002
1.175992e+003, 5.561791e+002
1.176474e+003, 5.563723e+002
1.176956e+003, 5.561005e+002
1.177438e+003, 5.558224e+002
1.177921e+003, 5.556317e+002
1.178403e+003, 5.553588e+002
1.178885e+003, 5.545919e+002
1.179367e+003, 5.541273e+002
1.179849e+003, 5.542116e+002
1.180331e+003, 5.548669e+002
1.180813e+003, 5.564752e+002
1.181295e+003, 5.587433e+002
1.181778e+003, 5.606129e+002
1.182260e+003, 5.618609e+002
1.182742e+003, 5.624290e+002
1.183224e+003, 5.616447e+002
1.183706e+003, 5.608216e+002
1.184188e+003, 5.607394e+002
1.184670e+003, 5.612277e+002
1.185152e+003, 5.613454e+002
1.185635e+003, 5.611633e+002
1.186117e+003, 5.610861e+002
1.186599e+003, 5.613989e+002
1.187081e+003, 5.615549e+002
1.187563e+003, 5.611425e+002
1.188045e+003, 5.605756e+002
1.188527e+003, 5.600437e+002
1.189009e+003, 5.595948e+002
1.189491e+003, 5.599239e+002
1.189974e+003, 5.609465e+002
1.190456e+003, 5.620596e+002
1.190938e+003, 5.635197e+002
1.191420e+003, 5.642461e+002
1.191902e+003, 5.628419e+002
1.192384e+003, 5.610670e+002
1.192866e+003, 5.608819e+002
1.193348e+003, 5.623408e+002
1.193830e+003, 5.620795e+002
1.194313e+003, 5.602941e+002
1.194795e+003, 5.595026e+002
1.195277e+003, 5.626025e+002
1.195759e+003, 5.655449e+002
1.196241e+003, 5.655663e+002
1.196723e+003, 5.644667e+002
1.197205e+003, 5.647771e+002
1.197687e+003, 5.665761e+002
1.198169e+003, 5.663260e+002
1.198652e+003, 5.639734e+002
1.199134e+003, 5.622486e+002
1.199616e+003, 5.638686e+002
1.200098e+003, 5.657770e+002
1.200580e+003, 5.660135e+002
1.201062e+003, 5.654109e+002
1.201544e+003, 5.654162e+002
1.202026e+003, 5.660540e+002
1.202509e+003, 5.663713e+002
1.202991e+003, 5.662816e+002
1.203473e+003, 5.662062e+002
1.203955e+003, 5.663147e+002
1.204437e+003, 5.666647e+002
1.204919e+003, 5.673480e+002
1.205401e+003, 5.682869e+002
1.205883e+003, 5.695234e+002
1.206365e+003, 5.710844e+002
1.206848e+003, 5.714778e+002
1.207330e+003, 5.704345e+002
1.207812e+003, 5.694487e+002
1.208294e+003, 5.699472e+002
1.208776e+003, 5.706448e+002
1.209258e+003, 5.704352e+002
1.209740e+003, 5.697403e+002
1.210222e+003, 5.698115e+002
1.210705e+003, 5.706630e+002
1.211187e+003, 5.716471e+002
1.211669e+003, 5.727028e+002
1.212151e+003, 5.734594e+002
1.212633e+003, 5.731224e+002
1.213115e+003, 5.728206e+002
1.213597e+003, 5.738762e+002
1.214079e+003, 5.756645e+002
1.214562e+003, 5.754114e+002
1.215044e+003, 5.731920e+002
1.215526e+003, 5.726276e+002
1.216008e+003, 5.749325e+002
1.216490e+003, 5.768453e+002
1.216972e+003, 5.744271e+002
1.217454e+003, 5.718215e+002
1.217936e+003, 5.727668e+002
1.218418e+003, 5.763513e+002
1.218901e+003, 5.778348e+002
1.219383e+003, 5.773078e+002
1.219865e+003, 5.766724e+002
1.220347e+003, 5.764620e+002
1.220829e+003, 5.762714e+002
1.221311e+003, 5.752780e+002
1.221793e+003, 5.746674e+002
1.222275e+003, 5.753907e+002
1.222757e+003, 5.772844e+002
1.223240e+003, 5.796436e+002
1.223722e+003, 5.823474e+002
1.224204e+003, 5.836207e+002
1.224686e+003, 5.824662e+002
1.225168e+003, 5.809876e+002
1.225650e+003, 5.804861e+002
1.226132e+003, 5.803390e+002
1.226614e+003, 5.800653e+002
1.227096e+003, 5.796849e+002
1.227579e+003, 5.791832e+002
1.228061e+003, 5.786375e+002
1.228543e+003, 5.788051e+002
1.229025e+003, 5.803459e+002
1.229507e+003, 5.817621e+002
1.229989e+003, 5.818666e+002
1.230471e+003, 5.817523e+002
1.230953e+003, 5.822626e+002
1.231436e+003, 5.833268e+002
1.231918e+003, 5.844240e+002
1.232400e+003, 5.855184e+002
1.232882e+003, 5.864075e+002
1.233364e+003, 5.873361e+002
1.233846e+003, 5.874333e+002
1.234328e+003, 5.848607e+002
1.234810e+003, 5.826269e+002
1.235292e+003, 5.833007e+002
1.235775e+003, 5.863956e+002
1.236257e+003, 5.879711e+002
1.236739e+003, 5.882357e+002
1.237221e+003, 5.883182e+002
1.237703e+003, 5.886725e+002
1.238185e+003, 5.890032e+002
1.238667e+003, 5.891578e+002
1.239149e+003, 5.892861e+002
1.239632e+003, 5.895692e+002
1.240114e+003, 5.899230e+002
1.240596e+003, 5.895959e+002
1.241078e+003, 5.888409e+002
1.241560e+003, 5.887292e+002
1.242042e+003, 5.904249e+002
1.242524e+003, 5.918137e+002
1.243006e+003, 5.921738e+002
1.243489e+003, 5.923500e+002
1.243971e+003, 5.930250e+002
1.244453e+003, 5.940674e+002
1.244935e+003, 5.950486e+002
1.245417e+003, 5.959079e+002
1.245899e+003, 5.963923e+002
1.246381e+003, 5.955473e+002
1.246863e+003, 5.956365e+002
1.247345e+003, 5.971113e+002
1.247828e+003, 5.991953e+002
1.248310e+003, 6.018989e+002
1.248792e+003, 6.044789e+002
1.249274e+003, 6.042970e+002
1.249756e+003, 6.021580e+002
1.250238e+003, 6.008773e+002
1.250720e+003, 6.021468e+002
1.251202e+003, 6.034852e+002
1.251684e+003, 6.050834e+002
1.252167e+003, 6.057818e+002
1.252649e+003, 6.035999e+002
1.253131e+003, 6.002912e+002
1.253613e+003, 5.994961e+002
1.254095e+003, 6.005789e+002
1.254577e+003, 6.012966e+002
1.255059e+003, 6.003946e+002
1.255541e+003, 6.005579e+002
1.256023e+003, 6.022459e+002
1.256506e+003, 6.038725e+002
1.256988e+003, 6.041254e+002
1.257470e+003, 6.034207e+002
1.257952e+003, 6.016309e+002
1.258434e+003, 5.994115e+002
1.258916e+003, 5.988383e+002
1.259398e+003, 6.009466e+002
1.259880e+003, 6.021291e+002
1.260363e+003, 6.020633e+002
1.260845e+003, 6.018204e+002
1.261327e+003, 6.024269e+002
1.261809e+003, 6.032119e+002
1.262291e+003, 6.036368e+002
1.262773e+003, 6.036410e+002
1.263255e+003, 6.030720e+002
1.263737e+003, 6.017040e+002
1.264219e+003, 6.009199e+002
1.264702e+003, 6.008314e+002
1.265184e+003, 6.010037e+002
1.265666e+003, 6.007833e+002
1.266148e+003, 6.009975e+002
1.266630e+003, 6.030475e+002
1.267112e+003, 6.057385e+002
1.267594e+003, 6.063806e+002
1.268076e+003, 6.047794e+002
1.268559e+003, 6.044853e+002
1.269041e+003, 6.057184e+002
1.269523e+003, 6.068701e+002
1.270005e+003, 6.067941e+002
1.270487e+003, 6.063670e+002
1.270969e+003, 6.057439e+002
1.271451e+003, 6.052835e+002
1.271933e+003, 6.057863e+002
1.272416e+003, 6.070992e+002
1.272898e+003, 6.069750e+002
1.273380e+003, 6.054213e+002
1.273862e+003, 6.043063e+002
1.274344e+003, 6.052011e+002
1.274826e+003, 6.060956e+002
1.275308e+003, 6.060203e+002
1.275790e+003, 6.059020e+002
1.276272e+003, 6.073786e+002
1.276755e+003, 6.097999e+002
1.277237e+003, 6.104728e+002
1.277719e+003, 6.094838e+002
1.278201e+003, 6.086080e+002
1.278683e+003, 6.092327e+002
1.279165e+003, 6.090277e+002
1.279647e+003, 6.070095e+002
1.280129e+003, 6.051439e+002
1.280611e+003, 6.060390e+002
1.281094e+003, 6.085156e+002
1.281576e+003, 6.104686e+002
1.282058e+003, 6.117092e+002
1.282540e+003, 6.118379e+002
1.283022e+003, 6.093074e+002
1.283504e+003, 6.085902e+002
1.283986e+003, 6.104846e+002
1.284468e+003, 6.129943e+002
1.284950e+003, 6.147250e+002
1.285433e+003, 6.154631e+002
1.285915e+003, 6.141476e+002
1.286397e+003, 6.115018e+002
1.286879e+003, 6.103420e+002
1.287361e+003, 6.111539e+002
1.287843e+003, 6.123699e+002
1.288325e+003, 6.139604e+002
1.288807e+003, 6.150603e+002
1.289290e+003, 6.142971e+002
1.289772e+003, 6.133018e+002
1.290254e+003, 6.135264e+002
1.290736e+003, 6.146298e+002
1.291218e+003, 6.156882e+002
1.291700e+003, 6.167227e+002
1.292182e+003, 6.173820e+002
1.292664e+003, 6.176380e+002
1.293146e+003, 6.176613e+002
1.293629e+003, 6.170258e+002
1.294111e+003, 6.167904e+002
1.294593e+003, 6.180944e+002
1.295075e+003, 6.197897e+002
1.295557e+003, 6.204519e+002
1.296039e+003, 6.201906e+002
1.296521e+003, 6.197920e+002
1.297003e+003, 6.193164e+002
1.297486e+003, 6.189568e+002
1.297968e+003, 6.190899e+002
1.298450e+003, 6.190945e+002
1.298932e+003, 6.188215e+002
1.299414e+003, 6.184214e+002
1.299896e+003, 6.180617e+002
1.300378e+003, 6.177221e+002
1.300860e+003, 6.172078e+002
1.301343e+003, 6.166547e+002
1.301825e+003, 6.165704e+002
##END=



