##NAMES=Chabazite-Ca
##RRUFFID=R050014
##IDEAL CHEMISTRY=Ca_2_Al_4_Si_8_O_24_&#183;13H_2_O
##LOCALITY=Tablo Mountain, Baja California, Mexico
##OWNER=RRUFF
##SOURCE=University of Arizona Mineral Museum
##DESCRIPTION=Light tan colored rhombohedral single crystals
##STATUS=The identification of this mineral has been confirmed by X-ray diffraction and chemical analysis
##URL=rruff.info/R050014
##MEASURED CHEMISTRY=(Ca_0.72_Mg_0.11_K_0.09_Sr_0.06_Na_0.01_)_Σ=1_(Si_4.12_Al_1.88_)O_12_·6H_2_O
168.7490, 7682.442
169.2311, 7712.654
169.7132, 7732.809
170.1953, 7742.567
170.6774, 7748.569
171.1595, 7762.337
171.6417, 7794.836
172.1238, 7836.110
172.6059, 7859.589
173.0880, 7857.180
173.5701, 7852.636
174.0522, 7851.118
174.5344, 7855.362
175.0165, 7871.153
175.4986, 7906.040
175.9807, 7951.444
176.4628, 7984.518
176.9449, 8003.434
177.4271, 8011.931
177.9092, 8001.203
178.3913, 7985.001
178.8734, 7983.559
179.3555, 8010.692
179.8376, 8055.329
180.3197, 8085.259
180.8019, 8096.599
181.2840, 8098.497
181.7661, 8084.753
182.2482, 8067.681
182.7303, 8065.019
183.2124, 8088.845
183.6946, 8126.891
184.1767, 8142.357
184.6588, 8120.201
185.1409, 8100.784
185.6230, 8085.796
186.1051, 8081.978
186.5873, 8102.820
187.0694, 8159.350
187.5515, 8230.654
188.0336, 8259.243
188.5157, 8217.702
188.9978, 8178.093
189.4800, 8154.471
189.9621, 8141.313
190.4442, 8131.582
190.9263, 8121.907
191.4084, 8116.886
191.8905, 8130.588
192.3727, 8182.505
192.8548, 8218.032
193.3369, 8223.488
193.8190, 8213.433
194.3011, 8199.688
194.7832, 8186.806
195.2654, 8176.014
195.7475, 8170.372
196.2296, 8172.414
196.7117, 8175.140
197.1938, 8175.813
197.6759, 8177.539
198.1581, 8186.963
198.6402, 8205.783
199.1223, 8222.888
199.6044, 8213.356
200.0865, 8150.598
200.5686, 8115.283
201.0508, 8137.929
201.5329, 8171.028
202.0150, 8174.097
202.4971, 8137.289
202.9792, 8086.062
203.4613, 8062.871
203.9435, 8084.202
204.4256, 8097.178
204.9077, 8100.917
205.3898, 8095.990
205.8719, 8077.750
206.3540, 8047.473
206.8362, 8016.671
207.3183, 8001.527
207.8004, 8007.829
208.2825, 8016.129
208.7646, 8033.905
209.2467, 8047.679
209.7289, 8049.133
210.2110, 8037.589
210.6931, 8017.848
211.1752, 7992.700
211.6573, 7956.788
212.1395, 7936.348
212.6216, 7941.829
213.1037, 7952.684
213.5858, 7959.218
214.0679, 7961.403
214.5500, 7965.429
215.0322, 7979.835
215.5143, 8008.601
215.9964, 8020.414
216.4785, 7993.802
216.9606, 7970.421
217.4427, 7968.592
217.9249, 7984.454
218.4070, 8003.052
218.8891, 8012.255
219.3712, 8011.841
219.8533, 8009.957
220.3354, 7990.882
220.8176, 7986.103
221.2997, 8022.416
221.7818, 8079.770
222.2639, 8118.029
222.7460, 8106.667
223.2281, 8050.668
223.7103, 8004.869
224.1924, 7975.721
224.6745, 7950.739
225.1566, 7922.552
225.6387, 7897.654
226.1208, 7886.219
226.6030, 7894.707
227.0851, 7919.835
227.5672, 7949.332
228.0493, 8001.547
228.5314, 8031.742
229.0135, 8020.768
229.4957, 7989.590
229.9778, 7961.466
230.4599, 7946.862
230.9420, 7940.608
231.4241, 7929.249
231.9062, 7906.010
232.3884, 7889.749
232.8705, 7884.355
233.3526, 7884.985
233.8347, 7887.895
234.3168, 7891.782
234.7989, 7896.843
235.2811, 7903.251
235.7632, 7910.670
236.2453, 7920.498
236.7274, 7940.729
237.2095, 7957.844
237.6916, 7960.976
238.1738, 7948.874
238.6559, 7930.655
239.1380, 7915.628
239.6201, 7902.135
240.1022, 7898.377
240.5843, 7918.765
241.0665, 7937.391
241.5486, 7940.271
242.0307, 7928.058
242.5128, 7911.267
242.9949, 7896.897
243.4770, 7884.052
243.9592, 7884.998
244.4413, 7920.848
244.9234, 7950.883
245.4055, 7955.319
245.8876, 7940.808
246.3697, 7926.499
246.8519, 7926.546
247.3340, 7939.265
247.8161, 7950.009
248.2982, 7962.682
248.7803, 7967.302
249.2624, 7955.233
249.7446, 7934.573
250.2267, 7918.152
250.7088, 7912.750
251.1909, 7916.003
251.6730, 7921.925
252.1551, 7933.001
252.6373, 7941.621
253.1194, 7946.772
253.6015, 7948.008
254.0836, 7943.200
254.5657, 7930.358
255.0478, 7915.916
255.5300, 7911.840
256.0121, 7921.958
256.4942, 7927.913
256.9763, 7911.163
257.4584, 7896.007
257.9406, 7906.039
258.4227, 7947.073
258.9048, 7990.152
259.3869, 8001.231
259.8690, 7978.639
260.3511, 7963.037
260.8333, 7964.891
261.3154, 7973.972
261.7975, 7983.879
262.2796, 7994.129
262.7617, 8004.397
263.2438, 8018.563
263.7260, 8034.222
264.2081, 8036.221
264.6902, 8017.985
265.1723, 7993.018
265.6544, 7965.827
266.1365, 7939.096
266.6187, 7923.168
267.1008, 7927.416
267.5829, 7944.932
268.0650, 7963.823
268.5471, 7986.458
269.0292, 8001.748
269.5114, 7994.493
269.9935, 7975.094
270.4756, 7960.572
270.9577, 7955.377
271.4398, 7956.782
271.9219, 7964.701
272.4041, 7979.441
272.8862, 7990.271
273.3683, 7990.292
273.8504, 7983.462
274.3325, 7977.869
274.8146, 7973.697
275.2968, 7971.089
275.7789, 7968.704
276.2610, 7967.517
276.7431, 7972.546
277.2252, 7987.934
277.7073, 8007.202
278.1895, 8018.435
278.6716, 8019.476
279.1537, 8023.981
279.6358, 8046.684
280.1179, 8073.828
280.6000, 8077.850
281.0822, 8050.293
281.5643, 8014.186
282.0464, 7995.623
282.5285, 7995.618
283.0106, 8001.389
283.4927, 8011.761
283.9749, 8027.243
284.4570, 8052.683
284.9391, 8087.011
285.4212, 8117.092
285.9033, 8131.995
286.3854, 8131.340
286.8676, 8127.923
287.3497, 8118.986
287.8318, 8110.217
288.3139, 8100.830
288.7960, 8093.467
289.2781, 8096.962
289.7603, 8118.389
290.2424, 8150.750
290.7245, 8163.713
291.2066, 8137.644
291.6887, 8117.887
292.1708, 8117.891
292.6530, 8125.485
293.1351, 8123.940
293.6172, 8107.555
294.0993, 8085.468
294.5814, 8074.161
295.0635, 8066.092
295.5457, 8097.312
296.0278, 8116.952
296.5099, 8125.631
296.9920, 8090.528
297.4741, 8111.962
297.9562, 8110.738
298.4384, 8108.586
298.9205, 8137.977
299.4026, 8109.242
299.8847, 8138.133
300.3668, 8144.020
300.8489, 8160.436
301.3311, 8154.055
301.8131, 8154.714
302.2953, 8178.179
302.7774, 8189.016
303.2595, 8180.010
303.7416, 8170.198
304.2237, 8178.380
304.7058, 8193.221
305.1880, 8207.215
305.6701, 8209.021
306.1522, 8193.926
306.6343, 8175.822
307.1164, 8182.306
307.5985, 8224.356
308.0807, 8249.850
308.5628, 8232.547
309.0449, 8207.420
309.5270, 8192.655
310.0091, 8190.576
310.4912, 8196.112
310.9734, 8207.793
311.4555, 8224.844
311.9376, 8239.272
312.4197, 8253.814
312.9018, 8260.125
313.3839, 8245.532
313.8661, 8218.889
314.3482, 8204.074
314.8303, 8223.596
315.3124, 8256.349
315.7945, 8261.828
316.2766, 8235.432
316.7588, 8208.734
317.2409, 8199.605
317.7230, 8200.860
318.2051, 8199.250
318.6872, 8187.023
319.1693, 8182.767
319.6515, 8209.962
320.1336, 8260.200
320.6157, 8294.582
321.0978, 8295.844
321.5799, 8281.788
322.0620, 8282.229
322.5442, 8300.052
323.0263, 8311.435
323.5084, 8301.719
323.9905, 8285.212
324.4726, 8279.840
324.9547, 8288.610
325.4369, 8306.776
325.9190, 8332.908
326.4011, 8368.178
326.8832, 8389.860
327.3653, 8388.832
327.8474, 8383.296
328.3296, 8380.373
328.8117, 8381.187
329.2938, 8387.683
329.7759, 8401.884
330.2580, 8421.156
330.7401, 8433.091
331.2223, 8439.258
331.7044, 8436.027
332.1865, 8414.648
332.6686, 8387.467
333.1507, 8366.463
333.6328, 8355.637
334.1150, 8353.136
334.5971, 8358.056
335.0792, 8377.608
335.5613, 8384.475
336.0434, 8373.826
336.5255, 8356.476
337.0077, 8333.198
337.4898, 8307.403
337.9719, 8286.182
338.4540, 8276.244
338.9361, 8276.163
339.4182, 8273.528
339.9004, 8270.603
340.3825, 8261.156
340.8646, 8238.156
341.3467, 8210.271
341.8288, 8188.766
342.3109, 8178.256
342.7931, 8173.197
343.2752, 8164.406
343.7573, 8150.597
344.2394, 8142.377
344.7215, 8146.382
345.2036, 8153.830
345.6858, 8164.327
346.1679, 8176.823
346.6500, 8170.893
347.1321, 8115.380
347.6142, 8031.892
348.0963, 7982.223
348.5785, 7978.033
349.0606, 7990.119
349.5427, 7998.940
350.0248, 8006.160
350.5069, 8017.026
350.9890, 8041.476
351.4712, 8062.807
351.9533, 8067.731
352.4354, 8057.484
352.9175, 8036.367
353.3996, 8001.727
353.8817, 7962.829
354.3639, 7947.062
354.8460, 7967.325
355.3281, 7978.459
355.8102, 7962.812
356.2923, 7936.253
356.7744, 7917.494
357.2566, 7910.409
357.7387, 7908.409
358.2208, 7905.583
358.7029, 7903.973
359.1850, 7888.307
359.6671, 7834.196
360.1493, 7792.211
360.6314, 7797.502
361.1135, 7832.266
361.5956, 7853.539
362.0777, 7834.113
362.5598, 7789.319
363.0420, 7777.139
363.5241, 7828.977
364.0062, 7863.345
364.4883, 7867.978
364.9704, 7855.097
365.4525, 7828.711
365.9347, 7792.229
366.4168, 7758.603
366.8989, 7746.055
367.3810, 7756.233
367.8631, 7757.331
368.3452, 7736.098
368.8274, 7720.388
369.3095, 7731.034
369.7916, 7757.680
370.2737, 7774.450
370.7558, 7761.784
371.2379, 7738.472
371.7201, 7739.596
372.2022, 7768.051
372.6843, 7793.121
373.1664, 7802.229
373.6485, 7799.826
374.1306, 7792.373
374.6128, 7777.799
375.0949, 7766.287
375.5770, 7766.564
376.0591, 7773.125
376.5412, 7775.258
377.0233, 7770.745
377.5055, 7761.970
377.9876, 7750.161
378.4697, 7734.910
378.9518, 7722.911
379.4339, 7718.486
379.9160, 7713.555
380.3982, 7700.069
380.8803, 7681.808
381.3624, 7669.321
381.8445, 7668.272
382.3266, 7676.930
382.8087, 7690.467
383.2909, 7722.620
383.7730, 7740.847
384.2551, 7734.081
384.7372, 7720.096
385.2193, 7714.743
385.7014, 7719.581
386.1836, 7723.645
386.6657, 7713.592
387.1478, 7688.239
387.6299, 7672.546
388.1120, 7674.450
388.5941, 7677.286
389.0763, 7672.920
389.5584, 7666.497
390.0405, 7666.605
390.5226, 7677.531
391.0047, 7694.673
391.4868, 7713.559
391.9690, 7735.175
392.4511, 7748.063
392.9332, 7744.722
393.4153, 7734.982
393.8974, 7727.157
394.3795, 7721.438
394.8617, 7718.752
395.3438, 7723.279
395.8259, 7729.862
396.3080, 7726.660
396.7901, 7711.838
397.2722, 7703.384
397.7544, 7720.001
398.2365, 7753.642
398.7186, 7762.802
399.2007, 7721.224
399.6828, 7685.067
400.1649, 7685.285
400.6471, 7703.077
401.1292, 7703.713
401.6113, 7675.639
402.0934, 7640.132
402.5755, 7629.317
403.0576, 7654.303
403.5398, 7671.090
404.0219, 7680.566
404.5040, 7682.475
404.9861, 7670.313
405.4682, 7650.351
405.9503, 7638.259
406.4325, 7645.721
406.9146, 7664.331
407.3967, 7661.948
407.8788, 7623.463
408.3609, 7595.103
408.8430, 7586.883
409.3252, 7590.448
409.8073, 7604.575
410.2894, 7627.508
410.7715, 7645.954
411.2536, 7642.999
411.7357, 7624.014
412.2179, 7617.576
412.7000, 7628.639
413.1821, 7644.778
413.6642, 7658.235
414.1463, 7670.642
414.6284, 7685.450
415.1106, 7708.245
415.5927, 7727.672
416.0748, 7733.590
416.5569, 7729.170
417.0390, 7723.475
417.5211, 7719.091
418.0033, 7716.173
418.4854, 7713.562
418.9675, 7707.665
419.4496, 7716.447
419.9317, 7751.636
420.4138, 7792.608
420.8960, 7830.689
421.3781, 7862.799
421.8602, 7884.351
422.3423, 7891.897
422.8244, 7887.879
423.3065, 7882.032
423.7887, 7864.518
424.2708, 7861.418
424.7529, 7881.938
425.2350, 7912.045
425.7171, 7944.026
426.1992, 7975.010
426.6814, 8000.275
427.1635, 8011.785
427.6456, 8011.257
428.1277, 8017.696
428.6098, 8030.429
429.0919, 8051.669
429.5741, 8090.424
430.0562, 8136.193
430.5383, 8171.903
431.0204, 8188.827
431.5025, 8205.211
431.9846, 8241.387
432.4668, 8290.477
432.9489, 8323.311
433.4310, 8327.180
433.9131, 8331.396
434.3952, 8376.833
434.8773, 8469.258
435.3595, 8537.828
435.8416, 8556.723
436.3237, 8570.416
436.8058, 8606.295
437.2879, 8659.603
437.7701, 8715.406
438.2522, 8766.337
438.7343, 8813.109
439.2164, 8856.379
439.6985, 8888.137
440.1806, 8931.033
440.6628, 8987.457
441.1449, 9052.336
441.6270, 9130.592
442.1091, 9216.033
442.5912, 9289.902
443.0733, 9332.338
443.5555, 9354.010
444.0376, 9398.974
444.5197, 9476.881
445.0018, 9551.133
445.4839, 9606.135
445.9660, 9651.826
446.4482, 9694.963
446.9303, 9735.050
447.4124, 9781.594
447.8945, 9845.258
448.3766, 9918.632
448.8587, 9988.918
449.3409, 10055.39
449.8230, 10108.40
450.3051, 10134.81
450.7872, 10138.84
451.2693, 10163.30
451.7514, 10227.23
452.2336, 10287.72
452.7157, 10331.31
453.1978, 10362.70
453.6799, 10387.56
454.1620, 10407.84
454.6441, 10423.66
455.1263, 10435.05
455.6084, 10441.76
456.0905, 10445.43
456.5726, 10445.49
457.0547, 10442.83
457.5368, 10438.27
458.0190, 10430.97
458.5011, 10416.85
458.9832, 10392.04
459.4653, 10370.27
459.9474, 10379.35
460.4295, 10420.03
460.9117, 10437.56
461.3938, 10411.71
461.8759, 10372.77
462.3580, 10344.85
462.8401, 10326.81
463.3222, 10314.06
463.8044, 10314.52
464.2865, 10312.45
464.7686, 10289.46
465.2507, 10250.56
465.7328, 10214.45
466.2149, 10188.09
466.6971, 10172.96
467.1792, 10173.53
467.6613, 10203.33
468.1434, 10220.27
468.6255, 10214.74
469.1076, 10204.99
469.5898, 10202.13
470.0719, 10205.11
470.5540, 10207.36
471.0361, 10204.61
471.5182, 10198.76
472.0003, 10196.35
472.4825, 10201.17
472.9646, 10199.14
473.4467, 10179.45
473.9288, 10157.46
474.4109, 10146.10
474.8930, 10144.26
475.3752, 10135.98
475.8573, 10106.55
476.3394, 10067.13
476.8215, 10039.40
477.3036, 10024.03
477.7857, 10000.77
478.2679, 9955.950
478.7500, 9899.837
479.2321, 9858.103
479.7142, 9838.042
480.1963, 9812.454
480.6784, 9775.458
481.1606, 9731.240
481.6427, 9680.465
482.1248, 9625.188
482.6069, 9572.733
483.0890, 9529.140
483.5711, 9491.863
484.0533, 9445.608
484.5354, 9386.366
485.0175, 9324.027
485.4996, 9259.211
485.9817, 9192.884
486.4638, 9128.004
486.9460, 9063.685
487.4281, 8994.122
487.9102, 8910.157
488.3923, 8817.593
488.8744, 8732.658
489.3565, 8655.091
489.8387, 8588.883
490.3208, 8542.674
490.8029, 8506.335
491.2850, 8458.931
491.7671, 8398.093
492.2492, 8333.239
492.7314, 8260.915
493.2135, 8190.440
493.6956, 8133.904
494.1777, 8091.678
494.6598, 8054.281
495.1419, 8014.485
495.6241, 7973.476
496.1062, 7938.303
496.5883, 7921.368
497.0704, 7892.646
497.5525, 7842.789
498.0346, 7784.881
498.5168, 7726.715
498.9989, 7670.940
499.4810, 7620.664
499.9631, 7577.643
500.4452, 7542.117
500.9273, 7517.737
501.4095, 7507.218
501.8916, 7496.533
502.3737, 7481.987
502.8558, 7461.961
503.3379, 7433.300
503.8200, 7393.336
504.3022, 7356.279
504.7843, 7326.920
505.2664, 7303.654
505.7485, 7287.119
506.2306, 7276.144
506.7127, 7265.212
507.1949, 7250.478
507.6770, 7232.917
508.1591, 7216.844
508.6412, 7199.762
509.1233, 7188.128
509.6054, 7193.419
510.0876, 7195.492
510.5697, 7175.551
511.0518, 7136.384
511.5339, 7097.599
512.0161, 7073.963
512.4982, 7060.413
512.9803, 7039.303
513.4624, 7006.902
513.9445, 6992.765
514.4266, 7025.171
514.9088, 7065.189
515.3909, 7055.785
515.8730, 6992.076
516.3551, 6944.003
516.8372, 6944.804
517.3193, 6961.414
517.8015, 6962.099
518.2836, 6949.557
518.7657, 6946.201
519.2478, 6965.853
519.7299, 6992.923
520.2120, 6987.527
520.6942, 6915.614
521.1763, 6876.668
521.6584, 6902.199
522.1405, 6927.292
522.6226, 6909.851
523.1047, 6862.950
523.5869, 6826.114
524.0690, 6821.297
524.5511, 6833.752
525.0332, 6842.889
525.5153, 6848.684
525.9974, 6845.834
526.4796, 6827.997
526.9617, 6809.436
527.4438, 6811.606
527.9259, 6831.042
528.4080, 6833.858
528.8901, 6794.206
529.3723, 6757.540
529.8544, 6758.918
530.3365, 6781.127
530.8186, 6788.503
531.3007, 6769.119
531.7828, 6740.020
532.2650, 6725.328
532.7471, 6728.304
533.2292, 6724.854
533.7113, 6704.400
534.1934, 6689.724
534.6755, 6693.630
535.1577, 6705.042
535.6398, 6708.365
536.1219, 6698.669
536.6040, 6685.152
537.0861, 6675.367
537.5682, 6668.624
538.0504, 6662.221
538.5325, 6655.527
539.0146, 6652.481
539.4967, 6659.068
539.9788, 6671.426
540.4609, 6670.421
540.9431, 6642.324
541.4252, 6621.193
541.9073, 6615.652
542.3894, 6618.967
542.8715, 6627.601
543.3536, 6639.266
543.8358, 6650.311
544.3179, 6659.495
544.8000, 6664.127
545.2821, 6648.914
545.7642, 6602.837
546.2463, 6567.188
546.7285, 6557.996
547.2106, 6559.457
547.6927, 6561.704
548.1748, 6563.960
548.6569, 6565.245
549.1390, 6567.117
549.6211, 6566.385
550.1032, 6554.448
550.5853, 6535.375
551.0674, 6529.918
551.5496, 6548.544
552.0317, 6572.728
552.5138, 6571.158
552.9959, 6532.557
553.4780, 6506.168
553.9601, 6495.049
554.4423, 6490.836
554.9244, 6492.103
555.4065, 6497.449
555.8886, 6505.978
556.3707, 6517.481
556.8528, 6529.524
557.3350, 6541.061
557.8171, 6551.364
558.2992, 6553.531
558.7813, 6545.145
559.2634, 6534.353
559.7455, 6527.479
560.2277, 6521.975
560.7098, 6509.670
561.1919, 6482.825
561.6740, 6462.573
562.1561, 6459.481
562.6382, 6463.837
563.1204, 6464.565
563.6025, 6461.446
564.0846, 6462.571
564.5667, 6475.042
565.0488, 6494.284
565.5309, 6502.466
566.0131, 6497.604
566.4952, 6486.667
566.9773, 6461.833
567.4594, 6438.444
567.9415, 6426.942
568.4236, 6425.969
568.9058, 6427.193
569.3879, 6429.611
569.8700, 6430.444
570.3521, 6425.344
570.8342, 6416.104
571.3163, 6409.875
571.7985, 6409.276
572.2806, 6407.440
572.7627, 6394.541
573.2448, 6368.059
573.7269, 6354.188
574.2090, 6364.613
574.6912, 6372.863
575.1733, 6367.787
575.6554, 6359.507
576.1375, 6361.784
576.6196, 6376.695
577.1017, 6390.876
577.5839, 6389.959
578.0660, 6378.650
578.5481, 6373.675
579.0302, 6376.163
579.5123, 6377.557
579.9944, 6375.778
580.4766, 6369.045
580.9587, 6349.675
581.4408, 6310.447
581.9229, 6289.555
582.4050, 6304.923
582.8871, 6328.874
583.3693, 6350.910
583.8514, 6365.857
584.3335, 6364.469
584.8156, 6342.285
585.2977, 6312.073
585.7798, 6292.882
586.2620, 6285.174
586.7441, 6284.758
587.2262, 6296.303
587.7083, 6307.113
588.1904, 6308.972
588.6725, 6305.628
589.1547, 6303.358
589.6368, 6304.657
590.1189, 6302.597
590.6010, 6288.610
591.0831, 6272.207
591.5652, 6268.004
592.0474, 6275.138
592.5295, 6279.830
593.0116, 6272.359
593.4937, 6257.756
593.9758, 6252.353
594.4579, 6262.345
594.9401, 6266.846
595.4222, 6260.835
595.9043, 6251.852
596.3864, 6240.985
596.8685, 6230.164
597.3506, 6222.920
597.8328, 6218.757
598.3149, 6222.192
598.7970, 6247.150
599.2791, 6282.100
599.7612, 6296.105
600.2433, 6283.211
600.7255, 6256.880
601.2076, 6224.664
601.6897, 6189.409
602.1718, 6174.587
602.6539, 6200.270
603.1360, 6219.577
603.6182, 6234.224
604.1003, 6237.309
604.5824, 6212.276
605.0645, 6168.439
605.5466, 6142.152
606.0287, 6163.358
606.5109, 6200.815
606.9930, 6207.563
607.4751, 6186.471
607.9572, 6156.898
608.4393, 6119.545
608.9214, 6090.775
609.4036, 6090.409
609.8857, 6118.611
610.3678, 6134.593
610.8499, 6134.620
611.3320, 6128.434
611.8141, 6110.407
612.2963, 6092.143
612.7784, 6086.669
613.2605, 6094.142
613.7426, 6104.146
614.2247, 6109.257
614.7068, 6110.966
615.1890, 6114.706
615.6711, 6120.935
616.1532, 6117.998
616.6353, 6100.090
617.1174, 6076.109
617.5995, 6052.839
618.0817, 6030.257
618.5638, 6020.095
619.0459, 6033.938
619.5280, 6047.402
620.0101, 6049.905
620.4922, 6047.331
620.9744, 6046.844
621.4565, 6050.074
621.9386, 6055.658
622.4207, 6065.286
622.9028, 6075.057
623.3849, 6065.965
623.8671, 6033.650
624.3492, 6007.547
624.8313, 5995.230
625.3134, 5994.325
625.7955, 6007.208
626.2776, 6032.940
626.7598, 6050.586
627.2419, 6052.365
627.7240, 6050.681
628.2061, 6055.080
628.6882, 6058.552
629.1703, 6045.879
629.6525, 6016.272
630.1346, 5990.085
630.6167, 5989.930
631.0988, 6009.956
631.5809, 6015.538
632.0630, 6001.840
632.5452, 5992.967
633.0273, 5999.720
633.5094, 6010.963
633.9915, 6015.659
634.4736, 6014.000
634.9557, 6006.682
635.4379, 5988.108
635.9200, 5969.950
636.4021, 5955.511
636.8842, 5946.992
637.3663, 5950.865
637.8484, 5966.872
638.3306, 5982.263
638.8127, 5983.437
639.2948, 5973.080
639.7769, 5968.951
640.2590, 5974.673
640.7411, 5972.912
641.2233, 5949.992
641.7054, 5926.080
642.1875, 5925.619
642.6696, 5946.305
643.1517, 5959.393
643.6339, 5957.527
644.1160, 5948.158
644.5981, 5929.207
645.0802, 5907.825
645.5623, 5892.625
646.0444, 5886.433
646.5266, 5892.169
647.0087, 5916.422
647.4908, 5952.565
647.9729, 5967.988
648.4550, 5958.607
648.9371, 5943.867
649.4193, 5924.703
649.9014, 5906.147
650.3835, 5891.131
650.8656, 5880.061
651.3477, 5876.613
651.8298, 5888.801
652.3120, 5900.304
652.7941, 5902.949
653.2762, 5900.628
653.7583, 5898.977
654.2404, 5898.581
654.7225, 5895.424
655.2047, 5885.316
655.6868, 5871.268
656.1689, 5865.223
656.6510, 5869.623
657.1331, 5866.044
657.6152, 5845.704
658.0974, 5823.557
658.5795, 5815.504
659.0616, 5817.925
659.5437, 5814.743
660.0258, 5798.201
660.5079, 5783.690
660.9901, 5777.189
661.4722, 5774.820
661.9543, 5772.381
662.4364, 5769.745
662.9185, 5769.900
663.4006, 5775.741
663.8828, 5782.972
664.3649, 5778.262
664.8470, 5760.786
665.3291, 5761.225
665.8112, 5791.832
666.2933, 5823.328
666.7755, 5836.026
667.2576, 5831.409
667.7397, 5818.322
668.2218, 5788.468
668.7039, 5763.779
669.1860, 5749.414
669.6682, 5741.001
670.1503, 5738.719
670.6324, 5739.101
671.1145, 5733.236
671.5966, 5715.686
672.0787, 5697.604
672.5609, 5696.837
673.0430, 5710.797
673.5251, 5722.400
674.0072, 5731.059
674.4893, 5729.966
674.9714, 5709.465
675.4536, 5680.828
675.9357, 5675.059
676.4178, 5709.861
676.8999, 5728.667
677.3820, 5721.517
677.8641, 5706.767
678.3463, 5687.322
678.8284, 5669.130
679.3105, 5662.030
679.7926, 5669.138
680.2747, 5678.338
680.7568, 5673.058
681.2390, 5662.681
681.7211, 5677.636
682.2032, 5716.766
682.6853, 5735.344
683.1674, 5709.886
683.6495, 5668.726
684.1317, 5657.868
684.6138, 5686.703
685.0959, 5696.207
685.5780, 5670.896
686.0601, 5644.646
686.5422, 5618.147
687.0244, 5599.134
687.5065, 5601.175
687.9886, 5623.165
688.4707, 5638.344
688.9528, 5620.014
689.4349, 5595.961
689.9171, 5603.813
690.3992, 5632.337
690.8813, 5646.528
691.3634, 5637.066
691.8455, 5621.794
692.3276, 5619.052
692.8098, 5626.822
693.2919, 5626.548
693.7740, 5612.649
694.2561, 5603.193
694.7382, 5609.046
695.2203, 5613.454
695.7025, 5602.770
696.1846, 5580.536
696.6667, 5560.658
697.1488, 5545.198
697.6309, 5534.840
698.1130, 5530.324
698.5952, 5530.998
699.0773, 5536.187
699.5594, 5545.756
700.0415, 5561.689
700.5236, 5586.560
701.0057, 5611.537
701.4879, 5614.550
701.9700, 5594.052
702.4521, 5586.473
702.9342, 5601.546
703.4163, 5612.481
703.8984, 5599.110
704.3806, 5572.524
704.8627, 5561.142
705.3448, 5574.306
705.8269, 5574.833
706.3090, 5538.312
706.7911, 5507.072
707.2733, 5516.411
707.7554, 5545.199
708.2375, 5553.936
708.7196, 5531.425
709.2017, 5504.677
709.6838, 5498.287
710.1660, 5507.328
710.6481, 5524.906
711.1302, 5549.671
711.6123, 5559.573
712.0944, 5544.803
712.5765, 5520.161
713.0587, 5501.801
713.5408, 5489.328
714.0229, 5492.253
714.5050, 5537.186
714.9871, 5560.722
715.4692, 5534.095
715.9514, 5497.620
716.4335, 5487.774
716.9156, 5500.091
717.3977, 5500.904
717.8798, 5464.485
718.3619, 5429.675
718.8441, 5436.758
719.3262, 5462.802
719.8083, 5465.074
720.2904, 5441.308
720.7725, 5420.988
721.2546, 5424.512
721.7368, 5441.909
722.2189, 5449.500
722.7010, 5446.141
723.1831, 5440.321
723.6652, 5430.628
724.1473, 5422.411
724.6295, 5417.877
725.1116, 5417.274
725.5937, 5421.870
726.0758, 5434.648
726.5579, 5442.038
727.0400, 5440.411
727.5222, 5433.960
728.0043, 5420.692
728.4864, 5405.971
728.9685, 5398.176
729.4506, 5399.295
729.9327, 5403.931
730.4149, 5408.545
730.8970, 5412.680
731.3791, 5416.039
731.8612, 5418.339
732.3433, 5416.035
732.8254, 5407.488
733.3076, 5398.468
733.7897, 5396.544
734.2718, 5400.257
734.7539, 5388.597
735.2360, 5337.140
735.7181, 5311.479
736.2003, 5341.542
736.6824, 5377.505
737.1645, 5391.967
737.6466, 5387.289
738.1287, 5371.754
738.6108, 5338.635
739.0930, 5316.936
739.5751, 5335.160
740.0572, 5365.350
740.5393, 5374.282
741.0214, 5364.324
741.5035, 5353.548
741.9857, 5350.455
742.4678, 5351.307
742.9499, 5351.038
743.4320, 5349.800
743.9141, 5351.961
744.3962, 5360.120
744.8784, 5356.313
745.3605, 5328.586
745.8426, 5292.750
746.3247, 5268.207
746.8068, 5254.897
747.2889, 5255.123
747.7711, 5284.078
748.2532, 5306.109
748.7353, 5307.938
749.2174, 5303.067
749.6995, 5304.336
750.1816, 5311.022
750.6638, 5313.401
751.1459, 5303.262
751.6280, 5294.146
752.1101, 5302.195
752.5922, 5318.859
753.0743, 5328.647
753.5565, 5329.853
754.0386, 5326.896
754.5207, 5322.333
755.0028, 5315.400
755.4849, 5301.582
755.9670, 5278.609
756.4492, 5272.904
756.9313, 5293.449
757.4134, 5309.634
757.8955, 5306.347
758.3776, 5292.888
758.8597, 5281.708
759.3419, 5272.407
759.8240, 5268.541
760.3061, 5276.383
760.7882, 5282.553
761.2703, 5280.560
761.7524, 5275.339
762.2346, 5271.074
762.7167, 5268.929
763.1988, 5270.659
763.6809, 5281.943
764.1630, 5289.147
764.6451, 5268.539
765.1273, 5232.967
765.6094, 5214.588
766.0915, 5217.208
766.5736, 5228.323
767.0557, 5240.800
767.5378, 5254.489
768.0200, 5272.824
768.5021, 5300.632
768.9842, 5300.538
769.4663, 5257.411
769.9484, 5217.354
770.4305, 5198.188
770.9127, 5194.493
771.3948, 5202.083
771.8769, 5222.471
772.3590, 5233.491
772.8411, 5208.863
773.3232, 5202.898
773.8054, 5268.822
774.2875, 5342.572
774.7696, 5342.902
775.2517, 5277.589
775.7338, 5227.825
776.2159, 5247.483
776.6981, 5280.755
777.1802, 5260.642
777.6623, 5207.443
778.1444, 5163.886
778.6265, 5136.049
779.1086, 5121.795
779.5908, 5120.966
780.0729, 5126.550
780.5550, 5123.719
781.0371, 5110.372
781.5192, 5111.605
782.0013, 5133.977
782.4835, 5154.359
782.9656, 5170.470
783.4477, 5174.152
783.9298, 5145.581
784.4119, 5083.487
784.8940, 5048.318
785.3762, 5063.809
785.8583, 5079.190
786.3404, 5075.378
786.8225, 5070.226
787.3046, 5085.498
787.7867, 5114.176
788.2689, 5128.399
788.7510, 5113.095
789.2331, 5091.800
789.7152, 5084.400
790.1973, 5083.818
790.6794, 5078.443
791.1616, 5068.632
791.6437, 5060.303
792.1258, 5055.946
792.6079, 5054.359
793.0900, 5055.811
793.5721, 5059.166
794.0543, 5051.687
794.5364, 5031.542
795.0185, 5010.890
795.5006, 4990.536
795.9827, 4976.532
796.4648, 4976.292
796.9470, 4988.536
797.4291, 4999.494
797.9112, 5023.225
798.3933, 5024.907
798.8754, 4979.982
799.3575, 4935.452
799.8397, 4919.976
800.3218, 4923.851
800.8039, 4925.509
801.2860, 4919.102
801.7681, 4917.473
802.2502, 4938.843
802.7324, 4957.393
803.2145, 4941.749
803.6966, 4908.082
804.1787, 4889.958
804.6608, 4894.482
805.1429, 4902.060
805.6251, 4894.993
806.1072, 4881.730
806.5893, 4882.114
807.0714, 4894.120
807.5535, 4902.701
808.0356, 4905.310
808.5178, 4904.312
808.9999, 4900.800
809.4820, 4895.776
809.9641, 4892.213
810.4462, 4891.585
810.9283, 4886.594
811.4105, 4873.160
811.8926, 4862.052
812.3747, 4862.519
812.8568, 4864.015
813.3389, 4849.978
813.8210, 4820.544
814.3032, 4806.311
814.7853, 4822.539
815.2674, 4840.938
815.7495, 4855.922
816.2316, 4865.745
816.7137, 4866.228
817.1959, 4860.398
817.6780, 4858.736
818.1601, 4868.057
818.6422, 4870.728
819.1243, 4838.426
819.6064, 4797.328
820.0886, 4793.710
820.5707, 4819.613
821.0528, 4839.830
821.5349, 4841.514
822.0170, 4828.889
822.4991, 4802.634
822.9813, 4768.103
823.4634, 4748.450
823.9455, 4744.010
824.4276, 4746.314
824.9097, 4755.580
825.3918, 4763.543
825.8740, 4763.880
826.3561, 4758.222
826.8382, 4751.772
827.3203, 4742.876
827.8024, 4737.079
828.2845, 4738.232
828.7667, 4737.750
829.2488, 4734.070
829.7309, 4726.264
830.2130, 4709.152
830.6951, 4682.783
831.1772, 4668.829
831.6594, 4687.656
832.1415, 4701.319
832.6236, 4685.451
833.1057, 4662.282
833.5878, 4651.271
834.0699, 4654.481
834.5521, 4671.022
835.0342, 4703.643
835.5163, 4731.558
835.9984, 4733.676
836.4805, 4719.616
836.9626, 4698.683
837.4448, 4675.880
837.9269, 4667.057
838.4090, 4676.833
838.8911, 4689.692
839.3732, 4689.121
839.8553, 4678.723
840.3375, 4670.781
840.8196, 4665.271
841.3017, 4663.299
841.7838, 4664.933
842.2659, 4672.200
842.7480, 4690.265
843.2302, 4709.969
843.7123, 4705.924
844.1944, 4665.387
844.6765, 4644.398
845.1586, 4658.167
845.6407, 4668.814
846.1229, 4658.109
846.6050, 4642.330
847.0871, 4638.308
847.5692, 4645.216
848.0513, 4649.274
848.5334, 4647.499
849.0156, 4644.177
849.4977, 4638.644
849.9798, 4633.623
850.4619, 4633.194
850.9440, 4634.469
851.4261, 4629.618
851.9083, 4615.600
852.3904, 4605.261
852.8725, 4610.262
853.3546, 4620.350
853.8367, 4628.617
854.3188, 4632.327
854.8010, 4623.863
855.2831, 4604.027
855.7652, 4585.885
856.2473, 4578.845
856.7294, 4579.503
857.2115, 4582.422
857.6937, 4587.804
858.1758, 4601.715
858.6579, 4623.698
859.1400, 4626.070
859.6221, 4593.673
860.1042, 4552.349
860.5864, 4540.283
861.0685, 4556.202
861.5506, 4560.917
862.0327, 4549.504
862.5148, 4547.688
862.9969, 4567.963
863.4791, 4585.148
863.9612, 4573.760
864.4433, 4545.109
864.9254, 4541.515
865.4075, 4585.448
865.8896, 4607.406
866.3718, 4590.877
866.8539, 4573.164
867.3360, 4569.444
867.8181, 4569.875
868.3002, 4562.088
868.7823, 4546.002
869.2645, 4532.909
869.7466, 4522.155
870.2287, 4519.524
870.7108, 4540.193
871.1929, 4559.202
871.6750, 4548.762
872.1572, 4519.158
872.6393, 4496.262
873.1214, 4488.534
873.6035, 4490.923
874.0856, 4505.741
874.5677, 4523.773
875.0499, 4539.931
875.5320, 4549.713
876.0141, 4538.834
876.4962, 4509.127
876.9783, 4485.647
877.4604, 4486.393
877.9426, 4497.800
878.4247, 4499.564
878.9068, 4493.347
879.3889, 4481.988
879.8710, 4466.971
880.3531, 4461.759
880.8353, 4472.096
881.3174, 4490.347
881.7995, 4509.410
882.2816, 4527.604
882.7637, 4533.025
883.2458, 4524.097
883.7280, 4512.893
884.2101, 4499.285
884.6922, 4491.242
885.1743, 4496.838
885.6564, 4508.133
886.1385, 4507.406
886.6207, 4491.989
887.1028, 4476.068
887.5849, 4452.814
888.0670, 4440.468
888.5491, 4457.787
889.0313, 4475.587
889.5134, 4459.385
889.9955, 4420.076
890.4776, 4409.047
890.9597, 4459.142
891.4418, 4484.226
891.9240, 4444.480
892.4061, 4407.688
892.8882, 4421.335
893.3703, 4453.414
893.8524, 4453.806
894.3345, 4418.774
894.8167, 4395.177
895.2988, 4407.344
895.7809, 4428.838
896.2630, 4457.346
896.7451, 4479.202
897.2272, 4473.032
897.7094, 4448.670
898.1915, 4435.497
898.6736, 4444.139
899.1557, 4450.095
899.6378, 4423.663
900.1199, 4391.825
900.6021, 4393.972
901.0842, 4414.893
901.5663, 4420.348
902.0484, 4406.294
902.5305, 4390.606
903.0126, 4384.271
903.4948, 4382.802
903.9769, 4377.908
904.4590, 4372.826
904.9411, 4381.356
905.4232, 4401.557
905.9053, 4418.325
906.3875, 4426.580
906.8696, 4414.864
907.3517, 4364.885
907.8338, 4298.648
908.3159, 4300.442
908.7980, 4371.044
909.2802, 4389.003
909.7623, 4332.728
910.2444, 4294.437
910.7265, 4321.906
911.2086, 4380.524
911.6907, 4423.881
912.1729, 4451.857
912.6550, 4461.056
913.1371, 4447.529
913.6192, 4426.631
914.1013, 4394.918
914.5834, 4367.680
915.0656, 4355.875
915.5477, 4354.806
916.0298, 4353.718
916.5119, 4352.023
916.9940, 4352.607
917.4761, 4359.101
917.9583, 4362.719
918.4404, 4364.742
918.9225, 4360.332
919.4046, 4336.559
919.8867, 4302.420
920.3688, 4292.963
920.8510, 4330.131
921.3331, 4348.752
921.8152, 4319.518
922.2973, 4292.958
922.7794, 4299.767
923.2615, 4317.059
923.7437, 4312.445
924.2258, 4288.075
924.7079, 4280.280
925.1900, 4317.042
925.6721, 4343.779
926.1542, 4328.570
926.6364, 4303.722
927.1185, 4289.208
927.6006, 4286.131
928.0827, 4297.626
928.5648, 4322.046
929.0469, 4336.731
929.5291, 4320.815
930.0112, 4300.126
930.4933, 4289.490
930.9754, 4288.194
931.4575, 4304.778
931.9396, 4328.865
932.4218, 4331.888
932.9039, 4303.850
933.3860, 4269.278
933.8681, 4242.471
934.3502, 4226.525
934.8323, 4234.184
935.3145, 4252.925
935.7966, 4253.704
936.2787, 4236.889
936.7608, 4226.724
937.2429, 4236.328
937.7250, 4252.761
938.2072, 4260.435
938.6893, 4263.149
939.1714, 4272.347
939.6535, 4284.858
940.1356, 4285.674
940.6177, 4272.526
941.0999, 4257.854
941.5820, 4249.812
942.0641, 4248.500
942.5462, 4255.864
943.0283, 4270.383
943.5104, 4290.368
943.9926, 4313.567
944.4747, 4306.692
944.9568, 4258.661
945.4389, 4210.449
945.9210, 4199.561
946.4031, 4214.397
946.8853, 4223.560
947.3674, 4227.098
947.8495, 4234.397
948.3316, 4247.001
948.8137, 4251.445
949.2958, 4241.681
949.7780, 4225.476
950.2601, 4209.649
950.7422, 4196.227
951.2243, 4199.156
951.7064, 4222.827
952.1885, 4233.741
952.6707, 4226.833
953.1528, 4212.289
953.6349, 4189.461
954.1170, 4173.550
954.5991, 4190.431
955.0812, 4237.170
955.5634, 4247.008
956.0455, 4201.653
956.5276, 4176.501
957.0097, 4187.290
957.4918, 4206.090
957.9739, 4223.876
958.4561, 4234.020
958.9382, 4221.969
959.4203, 4184.788
959.9024, 4167.586
960.3845, 4182.145
960.8666, 4192.851
961.3488, 4189.446
961.8309, 4188.366
962.3130, 4206.479
962.7951, 4230.078
963.2772, 4229.771
963.7593, 4198.933
964.2415, 4179.591
964.7236, 4173.081
965.2057, 4176.148
965.6878, 4202.089
966.1699, 4224.005
966.6520, 4220.429
967.1342, 4201.212
967.6163, 4187.669
968.0984, 4179.555
968.5805, 4180.191
969.0626, 4201.783
969.5447, 4215.990
970.0269, 4211.820
970.5090, 4201.274
970.9911, 4192.772
971.4732, 4185.329
971.9553, 4174.041
972.4374, 4154.238
972.9196, 4145.766
973.4017, 4160.942
973.8838, 4175.498
974.3659, 4179.017
974.8480, 4179.900
975.3301, 4187.572
975.8123, 4199.016
976.2944, 4203.261
976.7765, 4196.678
977.2586, 4189.288
977.7407, 4177.691
978.2228, 4172.595
978.7050, 4189.338
979.1871, 4206.592
979.6692, 4197.598
980.1513, 4169.987
980.6334, 4155.711
981.1155, 4165.056
981.5977, 4177.180
982.0798, 4195.032
982.5619, 4203.477
983.0440, 4187.568
983.5261, 4163.502
984.0082, 4146.401
984.4904, 4137.855
984.9725, 4136.681
985.4546, 4145.237
985.9367, 4153.138
986.4188, 4155.323
986.9009, 4157.328
987.3831, 4160.590
987.8652, 4166.715
988.3473, 4183.678
988.8294, 4205.837
989.3115, 4208.830
989.7936, 4177.261
990.2758, 4150.069
990.7579, 4145.010
991.2400, 4147.568
991.7221, 4152.929
992.2042, 4157.525
992.6863, 4154.182
993.1685, 4146.021
993.6506, 4150.722
994.1327, 4185.359
994.6148, 4200.200
995.0969, 4146.232
995.5790, 4093.840
996.0612, 4093.084
996.5433, 4121.031
997.0254, 4156.109
997.5075, 4189.281
997.9896, 4202.282
998.4717, 4181.603
998.9539, 4162.387
999.4360, 4162.294
999.9181, 4167.702
1000.400, 4172.311
1000.882, 4174.726
1001.364, 4172.075
1001.847, 4165.990
1002.329, 4164.150
1002.811, 4171.664
1003.293, 4175.877
1003.775, 4161.719
1004.257, 4152.100
1004.739, 4172.635
1005.221, 4200.642
1005.703, 4205.771
1006.186, 4189.407
1006.668, 4173.112
1007.150, 4165.031
1007.632, 4154.396
1008.114, 4126.113
1008.596, 4104.939
1009.078, 4113.748
1009.560, 4134.366
1010.043, 4146.377
1010.525, 4148.354
1011.007, 4146.006
1011.489, 4139.213
1011.971, 4135.206
1012.453, 4136.646
1012.935, 4142.276
1013.417, 4166.047
1013.899, 4182.868
1014.382, 4149.854
1014.864, 4084.203
1015.346, 4051.716
1015.828, 4076.961
1016.310, 4107.624
1016.792, 4129.282
1017.274, 4144.560
1017.756, 4155.588
1018.239, 4160.448
1018.721, 4153.825
1019.203, 4139.489
1019.685, 4128.419
1020.167, 4123.676
1020.649, 4119.527
1021.131, 4110.889
1021.613, 4106.398
1022.095, 4113.324
1022.578, 4123.382
1023.060, 4131.121
1023.542, 4135.148
1024.024, 4132.343
1024.506, 4120.286
1024.988, 4113.660
1025.470, 4128.957
1025.952, 4133.725
1026.435, 4096.682
1026.917, 4062.058
1027.399, 4076.834
1027.881, 4118.180
1028.363, 4131.338
1028.845, 4105.007
1029.327, 4088.048
1029.809, 4094.606
1030.292, 4104.206
1030.774, 4120.712
1031.256, 4129.166
1031.738, 4107.646
1032.220, 4076.008
1032.702, 4074.323
1033.184, 4108.592
1033.666, 4126.239
1034.148, 4102.466
1034.630, 4090.297
1035.113, 4112.549
1035.595, 4132.980
1036.077, 4126.693
1036.559, 4108.792
1037.041, 4103.119
1037.523, 4110.500
1038.005, 4111.271
1038.487, 4099.393
1038.970, 4090.445
1039.452, 4087.230
1039.934, 4084.537
1040.416, 4079.945
1040.898, 4074.824
1041.380, 4069.422
1041.862, 4064.362
1042.344, 4067.163
1042.826, 4084.080
1043.309, 4094.916
1043.791, 4096.729
1044.273, 4097.027
1044.755, 4101.286
1045.237, 4100.917
1045.719, 4084.126
1046.201, 4055.998
1046.683, 4040.690
1047.166, 4042.664
1047.648, 4041.035
1048.130, 4031.812
1048.612, 4031.650
1049.094, 4049.474
1049.576, 4067.575
1050.058, 4070.229
1050.540, 4063.105
1051.022, 4062.413
1051.505, 4069.620
1051.987, 4067.615
1052.469, 4054.676
1052.951, 4043.072
1053.433, 4035.414
1053.915, 4030.533
1054.397, 4027.134
1054.879, 4027.716
1055.361, 4039.192
1055.844, 4059.822
1056.326, 4067.120
1056.808, 4061.206
1057.290, 4059.129
1057.772, 4063.773
1058.254, 4077.115
1058.736, 4101.385
1059.218, 4120.466
1059.701, 4109.930
1060.183, 4079.560
1060.665, 4061.532
1061.147, 4054.082
1061.629, 4047.391
1062.111, 4040.918
1062.593, 4041.165
1063.075, 4050.424
1063.557, 4062.065
1064.040, 4069.244
1064.522, 4075.630
1065.004, 4093.089
1065.486, 4113.122
1065.968, 4111.135
1066.450, 4091.817
1066.932, 4076.570
1067.414, 4071.070
1067.896, 4068.645
1068.379, 4065.059
1068.861, 4061.624
1069.343, 4057.833
1069.825, 4056.610
1070.307, 4065.149
1070.789, 4078.202
1071.271, 4085.203
1071.753, 4085.334
1072.236, 4083.119
1072.718, 4079.479
1073.200, 4081.985
1073.682, 4101.946
1074.164, 4124.101
1074.646, 4142.356
1075.128, 4150.562
1075.610, 4133.966
1076.093, 4102.658
1076.575, 4084.410
1077.057, 4086.893
1077.539, 4089.553
1078.021, 4079.659
1078.503, 4073.099
1078.985, 4083.589
1079.467, 4093.733
1079.949, 4084.203
1080.432, 4067.813
1080.914, 4068.312
1081.396, 4087.432
1081.878, 4103.289
1082.360, 4114.577
1082.842, 4118.436
1083.324, 4109.613
1083.806, 4099.010
1084.288, 4085.691
1084.771, 4077.430
1085.253, 4086.184
1085.735, 4107.942
1086.217, 4123.713
1086.699, 4134.605
1087.181, 4136.283
1087.663, 4127.188
1088.145, 4110.852
1088.628, 4081.388
1089.110, 4057.442
1089.592, 4052.815
1090.074, 4062.874
1090.556, 4079.042
1091.038, 4101.699
1091.520, 4119.439
1092.002, 4132.583
1092.484, 4137.530
1092.967, 4133.117
1093.449, 4123.405
1093.931, 4109.509
1094.413, 4095.931
1094.895, 4088.192
1095.377, 4085.597
1095.859, 4087.813
1096.341, 4093.590
1096.823, 4090.276
1097.306, 4078.611
1097.788, 4077.352
1098.270, 4091.710
1098.752, 4103.789
1099.234, 4098.083
1099.716, 4087.865
1100.198, 4099.623
1100.680, 4118.392
1101.163, 4107.156
1101.645, 4078.390
1102.127, 4067.368
1102.609, 4076.899
1103.091, 4088.322
1103.573, 4093.262
1104.055, 4091.735
1104.537, 4074.506
1105.020, 4060.664
1105.502, 4073.939
1105.984, 4096.169
1106.466, 4107.337
1106.948, 4107.925
1107.430, 4104.872
1107.912, 4099.518
1108.394, 4086.791
1108.876, 4053.166
1109.359, 4029.162
1109.841, 4036.416
1110.323, 4045.267
1110.805, 4032.715
1111.287, 4014.917
1111.769, 4014.330
1112.251, 4028.292
1112.733, 4036.193
1113.215, 4032.808
1113.698, 4031.997
1114.180, 4039.604
1114.662, 4040.747
1115.144, 4024.313
1115.626, 4012.049
1116.108, 4022.481
1116.590, 4042.565
1117.072, 4047.510
1117.555, 4037.227
1118.037, 4029.369
1118.519, 4024.221
1119.001, 4020.328
1119.483, 4017.966
1119.965, 4013.155
1120.447, 4003.565
1120.929, 3996.081
1121.411, 3999.277
1121.894, 4006.300
1122.376, 3995.516
1122.858, 3972.068
1123.340, 3961.304
1123.822, 3963.831
1124.304, 3983.025
1124.786, 4015.070
1125.268, 4026.713
1125.750, 3997.791
1126.233, 3963.314
1126.715, 3968.174
1127.197, 3986.344
1127.679, 3974.823
1128.161, 3955.831
1128.643, 3975.839
1129.125, 4018.787
1129.607, 4031.745
1130.090, 4002.934
1130.572, 3967.084
1131.054, 3931.830
1131.536, 3911.033
1132.018, 3921.536
1132.500, 3938.059
1132.982, 3946.736
1133.464, 3949.019
1133.947, 3946.385
1134.429, 3940.066
1134.911, 3933.247
1135.393, 3925.627
1135.875, 3919.898
1136.357, 3920.971
1136.839, 3916.350
1137.321, 3892.743
1137.803, 3880.693
1138.286, 3908.977
1138.768, 3944.445
1139.250, 3933.654
1139.732, 3883.675
1140.214, 3863.189
1140.696, 3876.409
1141.178, 3888.309
1141.660, 3897.529
1142.142, 3892.127
1142.625, 3867.087
1143.107, 3847.968
1143.589, 3855.692
1144.071, 3875.481
1144.553, 3883.051
1145.035, 3881.282
1145.517, 3878.095
1145.999, 3873.252
1146.482, 3862.649
1146.964, 3848.941
1147.446, 3847.187
1147.928, 3861.654
1148.410, 3868.405
1148.892, 3841.808
1149.374, 3813.949
1149.856, 3793.039
1150.339, 3816.104
1150.821, 3827.593
1151.303, 3828.125
1151.785, 3784.873
1152.267, 3798.158
1152.749, 3788.785
1153.231, 3778.484
1153.713, 3799.726
1154.195, 3762.843
1154.677, 3783.584
1155.160, 3781.316
1155.642, 3789.583
1156.124, 3775.052
1156.606, 3767.563
1157.088, 3782.878
1157.570, 3785.567
1158.052, 3768.412
1158.534, 3777.347
1159.017, 3739.661
1159.499, 3742.887
1159.981, 3763.762
1160.463, 3747.753
1160.945, 3757.106
1161.427, 3737.279
1161.909, 3735.458
1162.391, 3721.383
1162.874, 3701.697
1163.356, 3701.515
1163.838, 3714.526
1164.320, 3722.413
1164.802, 3722.849
1165.284, 3715.286
1165.766, 3701.089
1166.248, 3692.458
1166.730, 3698.784
1167.213, 3709.999
1167.695, 3726.196
1168.177, 3734.870
1168.659, 3714.524
1169.141, 3687.427
1169.623, 3684.560
1170.105, 3699.585
1170.587, 3706.862
1171.069, 3701.674
1171.552, 3690.459
1172.034, 3661.934
1172.516, 3646.788
1172.998, 3663.234
1173.480, 3673.582
1173.962, 3655.260
1174.444, 3633.408
1174.926, 3635.932
1175.409, 3654.787
1175.891, 3661.385
1176.373, 3654.502
1176.855, 3654.784
1177.337, 3662.595
1177.819, 3658.709
1178.301, 3639.898
1178.783, 3622.548
1179.266, 3614.588
1179.748, 3616.061
1180.230, 3632.344
1180.712, 3648.149
1181.194, 3631.030
1181.676, 3601.064
1182.158, 3593.715
1182.640, 3601.254
1183.122, 3602.253
1183.604, 3595.618
1184.087, 3595.071
1184.569, 3606.576
1185.051, 3616.764
1185.533, 3625.657
1186.015, 3623.578
1186.497, 3586.507
1186.979, 3558.309
1187.461, 3585.434
1187.944, 3629.508
1188.426, 3632.549
1188.908, 3601.550
1189.390, 3581.082
1189.872, 3573.839
1190.354, 3567.232
1190.836, 3560.561
1191.318, 3557.200
1191.801, 3557.573
1192.283, 3565.586
1192.765, 3584.925
1193.247, 3600.573
1193.729, 3590.368
1194.211, 3567.861
1194.693, 3573.004
1195.175, 3590.243
1195.657, 3568.935
1196.140, 3523.951
1196.622, 3506.635
1197.104, 3522.753
1197.586, 3545.398
1198.068, 3564.212
1198.550, 3572.476
1199.032, 3553.952
1199.514, 3539.296
1199.996, 3556.254
1200.479, 3573.353
1200.961, 3558.599
1201.443, 3532.344
1201.925, 3528.575
1202.407, 3544.961
1202.889, 3549.490
1203.371, 3536.733
1203.853, 3529.389
1204.336, 3529.128
1204.818, 3529.111
1205.300, 3528.272
1205.782, 3525.958
1206.264, 3521.618
1206.746, 3516.967
1207.228, 3514.036
1207.710, 3512.283
1208.193, 3511.503
1208.675, 3510.399
1209.157, 3503.363
1209.639, 3493.034
1210.121, 3487.075
1210.603, 3486.664
1211.085, 3489.726
1211.567, 3495.461
1212.049, 3503.651
1212.531, 3519.265
1213.014, 3530.417
1213.496, 3528.860
1213.978, 3522.834
1214.460, 3513.109
1214.942, 3505.830
1215.424, 3514.258
1215.906, 3530.834
1216.388, 3525.600
1216.871, 3492.394
1217.353, 3476.219
1217.835, 3480.855
1218.317, 3487.643
1218.799, 3495.150
1219.281, 3495.318
1219.763, 3484.114
1220.245, 3473.677
1220.728, 3475.124
1221.210, 3483.641
1221.692, 3493.731
1222.174, 3502.858
1222.656, 3506.850
1223.138, 3505.235
1223.620, 3492.979
1224.102, 3475.299
1224.584, 3468.218
1225.067, 3474.790
1225.549, 3478.031
1226.031, 3467.380
1226.513, 3458.968
1226.995, 3464.235
1227.477, 3465.028
1227.959, 3441.128
1228.441, 3423.191
1228.923, 3441.247
1229.406, 3472.871
1229.888, 3478.137
1230.370, 3460.105
1230.852, 3453.533
1231.334, 3459.209
1231.816, 3454.264
1232.298, 3438.040
1232.780, 3427.598
1233.263, 3427.202
1233.745, 3432.376
1234.227, 3440.779
1234.709, 3448.775
1235.191, 3455.073
1235.673, 3456.126
1236.155, 3441.806
##END=



