##NAMES=Chabazite-Ca
##RRUFFID=R070353
##IDEAL CHEMISTRY=Ca_2_Al_4_Si_8_O_24_&#183;13H_2_O
##LOCALITY=Maze, Niigata perfecture, Japan
##OWNER=RRUFF
##SOURCE=Michael Scott
##DESCRIPTION=Colorless vitreous pseudocubic crystals in cavity
##STATUS=The identification of this mineral is confirmed by single-crystal X-ray diffraction and chemical analysis.
##URL=rruff.info/R070353
##MEASURED CHEMISTRY=(Ca_0.90_Na_0.08_K_0.02_)_Σ=1_(Si_4.10_Al_1.90_)O_12_·5.89H_2_O ; H_2_O estimated by difference
147.5358, 3485.436
148.0179, 3599.912
148.5001, 3700.096
148.9822, 3787.995
149.4643, 3862.705
149.9464, 3925.137
150.4285, 3982.475
150.9106, 4043.348
151.3928, 4105.193
151.8749, 4150.972
152.3570, 4173.039
152.8391, 4182.574
153.3212, 4190.032
153.8033, 4196.215
154.2855, 4195.759
154.7676, 4181.914
155.2497, 4156.859
155.7318, 4130.345
156.2139, 4101.144
156.6960, 4072.508
157.1782, 4048.144
157.6603, 4028.427
158.1424, 4011.656
158.6245, 3991.996
159.1066, 3973.969
159.5887, 3971.288
160.0709, 3998.823
160.5530, 4039.454
161.0351, 4068.215
161.5172, 4082.367
161.9993, 4092.348
162.4814, 4101.753
162.9636, 4112.215
163.4457, 4127.975
163.9278, 4152.127
164.4099, 4181.974
164.8920, 4212.851
165.3741, 4244.901
165.8563, 4277.419
166.3384, 4312.070
166.8205, 4346.764
167.3026, 4377.378
167.7847, 4398.742
168.2668, 4416.195
168.7490, 4444.290
169.2311, 4491.251
169.7132, 4529.989
170.1953, 4541.123
170.6774, 4536.250
171.1595, 4533.361
171.6417, 4544.989
172.1238, 4562.073
172.6059, 4559.560
173.0880, 4527.291
173.5701, 4495.363
174.0522, 4480.646
174.5344, 4474.003
175.0165, 4461.597
175.4986, 4432.525
175.9807, 4395.796
176.4628, 4378.089
176.9449, 4391.310
177.4271, 4402.005
177.9092, 4398.556
178.3913, 4384.990
178.8734, 4365.427
179.3555, 4339.341
179.8376, 4310.644
180.3197, 4291.738
180.8019, 4289.877
181.2840, 4285.108
181.7661, 4268.650
182.2482, 4246.831
182.7303, 4228.177
183.2124, 4217.832
183.6946, 4211.603
184.1767, 4195.823
184.6588, 4160.119
185.1409, 4133.620
185.6230, 4132.000
186.1051, 4139.543
186.5873, 4138.104
187.0694, 4118.770
187.5515, 4087.040
188.0336, 4056.255
188.5157, 4025.399
188.9978, 3998.081
189.4800, 3975.835
189.9621, 3956.704
190.4442, 3938.697
190.9263, 3921.166
191.4084, 3903.967
191.8905, 3886.879
192.3727, 3870.269
192.8548, 3852.935
193.3369, 3832.574
193.8190, 3812.405
194.3011, 3796.812
194.7832, 3787.648
195.2654, 3780.286
195.7475, 3763.242
196.2296, 3724.973
196.7117, 3699.030
197.1938, 3700.015
197.6759, 3707.394
198.1581, 3701.874
198.6402, 3677.180
199.1223, 3644.025
199.6044, 3623.948
200.0865, 3629.987
200.5686, 3622.496
201.0508, 3585.363
201.5329, 3543.642
202.0150, 3519.870
202.4971, 3519.167
202.9792, 3525.901
203.4613, 3513.555
203.9435, 3470.458
204.4256, 3434.294
204.9077, 3405.239
205.3898, 3383.386
205.8719, 3372.411
206.3540, 3371.451
206.8362, 3372.054
207.3183, 3362.579
207.8004, 3340.323
208.2825, 3314.364
208.7646, 3281.522
209.2467, 3247.969
209.7289, 3216.293
210.2110, 3187.459
210.6931, 3161.724
211.1752, 3139.006
211.6573, 3118.479
212.1395, 3104.891
212.6216, 3113.311
213.1037, 3115.577
213.5858, 3089.073
214.0679, 3039.596
214.5500, 2994.533
215.0322, 2984.266
215.5143, 3016.496
215.9964, 3032.457
216.4785, 3022.892
216.9606, 3006.017
217.4427, 2983.302
217.9249, 2958.240
218.4070, 2936.953
218.8891, 2924.993
219.3712, 2922.613
219.8533, 2920.501
220.3354, 2918.326
220.8176, 2916.779
221.2997, 2921.004
221.7818, 2925.962
222.2639, 2921.178
222.7460, 2897.761
223.2281, 2857.925
223.7103, 2827.628
224.1924, 2814.279
224.6745, 2803.256
225.1566, 2791.563
225.6387, 2780.203
226.1208, 2771.872
226.6030, 2768.759
227.0851, 2768.458
227.5672, 2760.329
228.0493, 2734.350
228.5314, 2713.930
229.0135, 2710.827
229.4957, 2712.265
229.9778, 2700.592
230.4599, 2667.263
230.9420, 2624.697
231.4241, 2605.260
231.9062, 2628.924
232.3884, 2641.936
232.8705, 2629.476
233.3526, 2609.374
233.8347, 2597.092
234.3168, 2597.734
234.7989, 2605.352
235.2811, 2610.160
235.7632, 2611.626
236.2453, 2611.364
236.7274, 2607.418
237.2095, 2603.462
237.6916, 2602.268
238.1738, 2604.212
238.6559, 2607.256
239.1380, 2610.498
239.6201, 2616.449
240.1022, 2612.883
240.5843, 2584.267
241.0665, 2558.413
241.5486, 2549.789
242.0307, 2558.018
242.5128, 2573.052
242.9949, 2587.738
243.4770, 2602.720
243.9592, 2609.709
244.4413, 2608.480
244.9234, 2598.297
245.4055, 2566.876
245.8876, 2524.794
246.3697, 2498.514
246.8519, 2514.125
247.3340, 2564.947
247.8161, 2588.745
248.2982, 2565.859
248.7803, 2540.656
249.2624, 2525.013
249.7446, 2518.125
250.2267, 2519.136
250.7088, 2529.775
251.1909, 2545.596
251.6730, 2554.032
252.1551, 2554.078
252.6373, 2548.208
253.1194, 2530.774
253.6015, 2511.187
254.0836, 2500.490
254.5657, 2503.620
255.0478, 2513.324
255.5300, 2518.459
256.0121, 2518.184
256.4942, 2516.425
256.9763, 2512.254
257.4584, 2508.176
257.9406, 2505.901
258.4227, 2505.798
258.9048, 2507.432
259.3869, 2511.479
259.8690, 2518.159
260.3511, 2522.216
260.8333, 2521.691
261.3154, 2518.879
261.7975, 2514.451
262.2796, 2508.730
262.7617, 2504.366
263.2438, 2504.501
263.7260, 2508.133
264.2081, 2509.391
264.6902, 2507.232
265.1723, 2503.156
265.6544, 2495.143
266.1365, 2485.432
266.6187, 2482.143
267.1008, 2494.372
267.5829, 2514.656
268.0650, 2527.220
268.5471, 2530.654
269.0292, 2529.761
269.5114, 2525.428
269.9935, 2519.152
270.4756, 2512.966
270.9577, 2502.821
271.4398, 2496.726
271.9219, 2508.416
272.4041, 2538.585
272.8862, 2563.413
273.3683, 2571.287
273.8504, 2565.459
274.3325, 2552.902
274.8146, 2528.035
275.2968, 2507.110
275.7789, 2501.806
276.2610, 2509.846
276.7431, 2522.609
277.2252, 2538.618
277.7073, 2556.058
278.1895, 2574.161
278.6716, 2595.666
279.1537, 2606.862
279.6358, 2592.160
280.1179, 2566.244
280.6000, 2556.549
281.0822, 2570.641
281.5643, 2591.519
282.0464, 2598.466
282.5285, 2590.076
283.0106, 2585.370
283.4927, 2587.597
283.9749, 2593.674
284.4570, 2603.037
284.9391, 2614.932
285.4212, 2623.884
285.9033, 2624.556
286.3854, 2617.050
286.8676, 2613.027
287.3497, 2611.711
287.8318, 2614.220
288.3139, 2623.129
288.7960, 2636.521
289.2781, 2649.442
289.7603, 2659.105
290.2424, 2666.318
290.7245, 2674.267
291.2066, 2684.180
291.6887, 2693.278
292.1708, 2700.419
292.6530, 2706.777
293.1351, 2714.626
293.6172, 2724.679
294.0993, 2734.292
294.5814, 2738.750
295.0635, 2736.280
295.5457, 2731.306
296.0278, 2718.174
296.5099, 2706.790
296.9920, 2704.906
297.4741, 2712.832
297.9562, 2725.351
298.4384, 2737.459
298.9205, 2749.179
299.4026, 2760.458
299.8847, 2771.918
300.3668, 2782.333
300.8489, 2792.887
301.3310, 2802.058
301.8131, 2806.102
302.2953, 2801.548
302.7774, 2790.990
303.2595, 2788.112
303.7416, 2799.312
304.2237, 2809.071
304.7058, 2812.869
305.1880, 2814.305
305.6701, 2816.891
306.1522, 2821.885
306.6343, 2829.156
307.1164, 2839.474
307.5985, 2854.385
308.0807, 2866.408
308.5628, 2868.163
309.0449, 2870.869
309.5270, 2883.155
310.0091, 2905.062
310.4912, 2927.096
310.9734, 2940.478
311.4555, 2946.017
311.9376, 2951.727
312.4197, 2955.480
312.9018, 2963.629
313.3839, 2985.148
313.8661, 3014.169
314.3482, 3034.763
314.8303, 3033.204
315.3124, 3021.729
315.7945, 3022.455
316.2766, 3037.007
316.7588, 3054.298
317.2409, 3070.126
317.7230, 3084.271
318.2051, 3095.916
318.6872, 3103.009
319.1693, 3110.903
319.6515, 3123.829
320.1336, 3141.000
320.6157, 3160.233
321.0978, 3182.890
321.5799, 3203.759
322.0620, 3213.526
322.5442, 3211.286
323.0263, 3207.686
323.5084, 3201.576
323.9905, 3197.517
324.4726, 3203.250
324.9547, 3220.042
325.4369, 3239.506
325.9190, 3255.245
326.4011, 3266.968
326.8832, 3268.885
327.3653, 3251.615
327.8474, 3233.549
328.3296, 3225.669
328.8117, 3225.833
329.2938, 3225.661
329.7759, 3219.844
330.2580, 3210.554
330.7401, 3207.850
331.2223, 3222.498
331.7044, 3230.372
332.1865, 3224.080
332.6686, 3212.052
333.1507, 3204.145
333.6328, 3203.100
334.1150, 3203.341
334.5971, 3196.133
335.0792, 3178.139
335.5613, 3161.664
336.0434, 3148.480
336.5255, 3135.103
337.0077, 3119.137
337.4898, 3101.292
337.9719, 3084.173
338.4540, 3070.270
338.9361, 3059.070
339.4182, 3045.756
339.9004, 3028.272
340.3825, 3011.841
340.8646, 2996.608
341.3467, 2983.569
341.8288, 2975.901
342.3109, 2976.148
342.7931, 2975.494
343.2752, 2956.135
343.7573, 2913.674
344.2394, 2884.125
344.7215, 2885.820
345.2036, 2896.130
345.6858, 2899.529
346.1679, 2894.944
346.6500, 2882.586
347.1321, 2855.998
347.6142, 2821.844
348.0963, 2800.239
348.5785, 2796.420
349.0606, 2794.837
349.5427, 2780.762
350.0248, 2758.782
350.5069, 2742.788
350.9890, 2740.962
351.4712, 2741.366
351.9533, 2733.355
352.4354, 2718.403
352.9175, 2704.925
353.3996, 2697.807
353.8817, 2693.538
354.3639, 2681.928
354.8460, 2658.620
355.3281, 2638.853
355.8102, 2630.313
356.2923, 2625.168
356.7744, 2612.948
357.2566, 2591.771
357.7387, 2569.621
358.2208, 2555.764
358.7029, 2552.189
359.1850, 2545.921
359.6671, 2531.822
360.1493, 2520.509
360.6314, 2518.282
361.1135, 2522.525
361.5956, 2528.236
362.0777, 2533.082
362.5598, 2535.172
363.0420, 2526.432
363.5241, 2493.140
364.0062, 2471.415
364.4883, 2475.604
364.9704, 2485.459
365.4525, 2481.442
365.9347, 2460.556
366.4168, 2438.359
366.8989, 2436.343
367.3810, 2456.508
367.8631, 2462.321
368.3452, 2442.561
368.8274, 2419.473
369.3095, 2403.160
369.7916, 2392.453
370.2737, 2383.807
370.7558, 2373.268
371.2379, 2365.692
371.7201, 2373.205
372.2022, 2397.955
372.6843, 2416.657
373.1664, 2415.801
373.6485, 2405.210
374.1306, 2400.807
374.6128, 2405.021
375.0949, 2408.313
375.5770, 2403.883
376.0591, 2395.354
376.5412, 2391.271
377.0233, 2394.065
377.5055, 2395.702
377.9876, 2386.316
378.4697, 2364.404
378.9518, 2349.988
379.4339, 2345.567
379.9160, 2346.701
380.3982, 2356.625
380.8803, 2370.496
381.3624, 2374.424
381.8445, 2359.736
382.3266, 2334.150
382.8087, 2321.058
383.2909, 2339.524
383.7730, 2345.698
384.2551, 2325.562
384.7372, 2301.457
385.2193, 2293.051
385.7014, 2302.424
386.1836, 2316.741
386.6657, 2322.273
387.1478, 2318.343
387.6299, 2318.570
388.1120, 2331.077
388.5941, 2338.110
389.0763, 2328.586
389.5584, 2311.267
390.0405, 2300.393
390.5226, 2302.801
391.0047, 2311.652
391.4868, 2317.199
391.9690, 2319.442
392.4511, 2318.281
392.9332, 2314.243
393.4153, 2305.822
393.8974, 2288.020
394.3795, 2261.099
394.8617, 2242.880
395.3438, 2244.410
395.8259, 2259.356
396.3080, 2283.500
396.7901, 2317.673
397.2722, 2338.155
397.7544, 2321.956
398.2365, 2277.367
398.7186, 2251.504
399.2007, 2257.490
399.6828, 2267.194
400.1649, 2269.861
400.6471, 2269.103
401.1292, 2271.950
401.6113, 2280.763
402.0934, 2290.494
402.5755, 2293.870
403.0576, 2289.686
403.5398, 2282.014
404.0219, 2261.799
404.5040, 2246.846
404.9861, 2250.922
405.4682, 2268.084
405.9503, 2282.111
406.4325, 2282.032
406.9146, 2272.854
407.3967, 2272.384
407.8788, 2283.545
408.3609, 2297.712
408.8430, 2315.619
409.3252, 2334.098
409.8073, 2352.328
410.2894, 2369.677
410.7715, 2382.067
411.2536, 2380.093
411.7357, 2368.322
412.2179, 2372.805
412.7000, 2401.516
413.1821, 2431.277
413.6642, 2445.970
414.1463, 2450.257
414.6284, 2451.280
415.1106, 2445.336
415.5927, 2442.655
416.0748, 2452.856
416.5569, 2472.680
417.0390, 2491.894
417.5211, 2506.778
418.0033, 2520.453
418.4854, 2536.785
418.9675, 2554.597
419.4496, 2580.317
419.9317, 2622.778
420.4138, 2666.015
420.8960, 2697.123
421.3781, 2719.036
421.8602, 2745.133
422.3423, 2785.507
422.8244, 2834.025
423.3065, 2863.184
423.7887, 2854.204
424.2708, 2854.994
424.7529, 2872.183
425.2350, 2898.983
425.7171, 2932.499
426.1992, 2971.028
426.6814, 3009.579
427.1635, 3040.638
427.6456, 3065.763
428.1277, 3101.872
428.6098, 3154.231
429.0919, 3207.445
429.5741, 3256.373
430.0562, 3300.648
430.5383, 3337.054
431.0204, 3359.250
431.5025, 3385.595
431.9846, 3435.435
432.4668, 3502.774
432.9489, 3566.711
433.4310, 3622.193
433.9131, 3671.845
434.3952, 3716.791
434.8773, 3755.910
435.3595, 3801.008
435.8416, 3855.376
436.3237, 3913.326
436.8058, 3973.714
437.2879, 4034.919
437.7701, 4093.310
438.2522, 4146.559
438.7343, 4198.679
439.2164, 4259.882
439.6985, 4336.877
440.1806, 4410.988
440.6628, 4486.506
441.1449, 4556.277
441.6270, 4610.939
442.1091, 4654.302
442.5912, 4701.642
443.0733, 4765.714
443.5555, 4841.916
444.0376, 4912.003
444.5197, 4973.742
445.0018, 5035.745
445.4839, 5103.618
445.9660, 5172.728
446.4482, 5237.680
446.9303, 5296.782
447.4124, 5357.868
447.8945, 5427.653
448.3766, 5502.510
448.8587, 5576.235
449.3409, 5648.743
449.8230, 5714.105
450.3051, 5766.877
450.7872, 5807.885
451.2693, 5848.293
451.7514, 5885.578
452.2336, 5925.177
452.7157, 5970.826
453.1978, 6019.064
453.6799, 6065.738
454.1620, 6109.392
454.6441, 6149.128
455.1263, 6183.846
455.6084, 6213.464
456.0905, 6238.299
456.5726, 6252.942
457.0547, 6267.953
457.5368, 6287.371
458.0190, 6309.042
458.5011, 6328.781
458.9832, 6344.431
459.4653, 6359.636
459.9474, 6382.698
460.4295, 6413.791
460.9117, 6433.437
461.3938, 6428.818
461.8759, 6424.223
462.3580, 6448.010
462.8401, 6493.639
463.3222, 6526.024
463.8044, 6522.688
464.2865, 6512.465
464.7686, 6520.814
465.2507, 6544.804
465.7328, 6570.900
466.2149, 6593.205
466.6971, 6614.742
467.1792, 6641.849
467.6613, 6683.656
468.1434, 6710.895
468.6255, 6700.961
469.1076, 6696.303
469.5898, 6726.362
470.0719, 6785.397
470.5540, 6852.604
471.0361, 6917.284
471.5182, 6975.539
472.0003, 7012.805
472.4825, 7015.174
472.9646, 7033.947
473.4467, 7104.075
473.9288, 7176.715
474.4109, 7219.937
474.8930, 7233.170
475.3752, 7236.415
475.8573, 7228.807
476.3394, 7223.315
476.8215, 7248.910
477.3036, 7306.438
477.7857, 7359.204
478.2679, 7389.855
478.7500, 7403.315
479.2321, 7409.242
479.7142, 7401.480
480.1963, 7402.299
480.6784, 7437.829
481.1606, 7469.054
481.6427, 7453.663
482.1248, 7394.554
482.6069, 7329.255
483.0890, 7286.867
483.5711, 7260.264
484.0533, 7207.183
484.5354, 7105.228
485.0175, 7012.997
485.4996, 6951.201
485.9817, 6892.592
486.4638, 6815.578
486.9460, 6718.020
487.4281, 6613.303
487.9102, 6508.393
488.3923, 6404.406
488.8744, 6305.297
489.3565, 6211.876
489.8387, 6120.047
490.3208, 6031.036
490.8029, 5940.800
491.2850, 5841.778
491.7671, 5731.213
492.2492, 5619.676
492.7314, 5510.866
493.2135, 5403.804
493.6956, 5295.345
494.1777, 5186.784
494.6598, 5085.854
495.1419, 5000.320
495.6241, 4926.501
496.1062, 4837.727
496.5883, 4720.378
497.0704, 4607.244
497.5525, 4496.681
498.0346, 4394.199
498.5168, 4309.813
498.9989, 4241.373
499.4810, 4171.162
499.9631, 4080.324
500.4452, 3976.041
500.9273, 3889.146
501.4095, 3823.871
501.8916, 3757.514
502.3737, 3678.104
502.8558, 3592.708
503.3379, 3511.131
503.8200, 3431.985
504.3022, 3364.680
504.7843, 3323.841
505.2664, 3290.569
505.7485, 3241.930
506.2306, 3177.659
506.7127, 3114.005
507.1949, 3062.197
507.6770, 3018.471
508.1591, 2966.786
508.6412, 2896.749
509.1233, 2833.575
509.6054, 2777.506
510.0876, 2729.185
510.5697, 2692.241
511.0518, 2664.616
511.5339, 2638.491
512.0161, 2609.188
512.4982, 2576.824
512.9803, 2540.999
513.4624, 2501.597
513.9445, 2460.423
514.4266, 2415.672
514.9088, 2371.656
515.3909, 2333.359
515.8730, 2300.793
516.3551, 2272.266
516.8372, 2250.047
517.3193, 2229.502
517.8015, 2207.113
518.2836, 2182.460
518.7657, 2153.020
519.2478, 2116.509
519.7299, 2079.271
520.2120, 2057.533
520.6942, 2064.795
521.1763, 2061.671
521.6584, 2044.305
522.1405, 2021.544
522.6226, 1994.148
523.1047, 1965.261
523.5869, 1941.625
524.0690, 1927.513
524.5511, 1918.392
525.0332, 1907.229
525.5153, 1894.039
525.9974, 1881.191
526.4796, 1869.857
526.9617, 1857.999
527.4438, 1841.282
527.9259, 1820.632
528.4080, 1806.489
528.8901, 1805.426
529.3723, 1806.192
529.8544, 1804.784
530.3365, 1799.885
530.8186, 1787.782
531.3007, 1767.412
531.7828, 1745.405
532.2650, 1731.401
532.7471, 1727.096
533.2292, 1719.718
533.7113, 1699.850
534.1934, 1688.033
534.6755, 1700.749
535.1577, 1721.125
535.6398, 1724.328
536.1219, 1701.925
536.6040, 1674.719
537.0861, 1662.252
537.5682, 1660.580
538.0504, 1657.444
538.5325, 1651.458
539.0146, 1643.878
539.4967, 1634.956
539.9788, 1625.239
540.4609, 1617.604
540.9431, 1614.486
541.4252, 1609.788
541.9073, 1596.377
542.3894, 1584.640
542.8715, 1590.262
543.3536, 1610.373
543.8358, 1623.257
544.3179, 1609.850
544.8000, 1577.016
545.2821, 1554.699
545.7642, 1545.127
546.2463, 1540.057
546.7285, 1540.662
547.2106, 1542.815
547.6926, 1543.945
548.1747, 1543.848
548.6569, 1542.236
549.1390, 1540.272
549.6211, 1535.817
550.1032, 1524.572
550.5853, 1508.189
551.0674, 1493.636
551.5496, 1483.387
552.0317, 1477.122
552.5138, 1474.330
552.9959, 1475.277
553.4780, 1479.004
553.9601, 1490.450
554.4423, 1499.020
554.9244, 1499.582
555.4065, 1494.741
555.8886, 1487.927
556.3707, 1480.262
556.8528, 1474.087
557.3350, 1473.856
557.8171, 1478.504
558.2992, 1478.604
558.7813, 1471.884
559.2634, 1465.125
559.7455, 1463.206
560.2277, 1464.640
560.7098, 1464.548
561.1919, 1463.416
561.6740, 1459.843
562.1561, 1448.564
562.6382, 1437.566
563.1204, 1438.004
563.6025, 1448.724
564.0846, 1458.036
564.5667, 1457.506
565.0488, 1448.821
565.5309, 1437.543
566.0131, 1420.139
566.4952, 1409.090
566.9773, 1410.038
567.4594, 1415.404
567.9415, 1421.866
568.4236, 1428.907
568.9058, 1435.687
569.3879, 1446.108
569.8700, 1452.320
570.3521, 1440.235
570.8342, 1416.517
571.3163, 1406.048
571.7985, 1417.424
572.2806, 1433.959
572.7627, 1435.219
573.2448, 1419.218
573.7269, 1406.660
574.2090, 1395.657
574.6912, 1389.991
575.1733, 1393.604
575.6554, 1401.488
576.1375, 1410.255
576.6196, 1418.354
577.1017, 1421.157
577.5839, 1410.300
578.0660, 1390.842
578.5481, 1379.719
579.0302, 1377.546
579.5123, 1381.029
579.9944, 1391.425
580.4766, 1404.236
580.9587, 1410.503
581.4408, 1409.587
581.9229, 1406.760
582.4050, 1404.638
582.8871, 1399.087
583.3693, 1383.154
583.8514, 1362.156
584.3335, 1347.559
584.8156, 1344.751
585.2977, 1348.169
585.7798, 1349.234
586.2620, 1347.653
586.7441, 1347.390
587.2262, 1350.056
587.7083, 1351.695
588.1904, 1350.293
588.6725, 1346.336
589.1547, 1339.759
589.6368, 1328.733
590.1189, 1319.869
590.6010, 1316.098
591.0831, 1316.400
591.5652, 1322.539
592.0474, 1332.653
592.5295, 1337.385
593.0116, 1329.821
593.4937, 1314.494
593.9758, 1305.843
594.4579, 1308.311
594.9401, 1306.980
595.4222, 1298.473
595.9043, 1287.811
596.3864, 1274.970
596.8685, 1262.015
597.3506, 1253.771
597.8328, 1253.120
598.3149, 1255.648
598.7970, 1259.234
599.2791, 1262.732
599.7612, 1262.670
600.2433, 1258.368
600.7255, 1252.623
601.2076, 1246.933
601.6897, 1241.961
602.1718, 1243.288
602.6539, 1263.430
603.1360, 1272.506
603.6182, 1259.556
604.1003, 1241.829
604.5824, 1229.172
605.0645, 1223.581
605.5466, 1226.676
606.0287, 1244.986
606.5109, 1264.836
606.9930, 1260.662
607.4751, 1236.212
607.9572, 1223.736
608.4393, 1234.133
608.9214, 1246.361
609.4036, 1237.005
609.8857, 1205.948
610.3678, 1189.388
610.8499, 1200.106
611.3320, 1207.718
611.8141, 1201.214
612.2963, 1190.774
612.7784, 1188.187
613.2605, 1193.599
613.7426, 1196.942
614.2247, 1188.180
614.7068, 1173.982
615.1890, 1173.794
615.6711, 1188.562
616.1532, 1194.859
616.6353, 1182.526
617.1174, 1165.448
617.5995, 1158.810
618.0817, 1162.867
618.5638, 1168.634
619.0459, 1180.840
619.5280, 1188.850
620.0101, 1185.385
620.4922, 1176.976
620.9744, 1172.373
621.4565, 1172.836
621.9386, 1172.466
622.4207, 1164.212
622.9028, 1151.618
623.3849, 1151.051
623.8671, 1165.543
624.3492, 1173.989
624.8313, 1167.487
625.3134, 1155.156
625.7955, 1146.412
626.2776, 1141.037
626.7598, 1139.784
627.2419, 1146.584
627.7240, 1153.417
628.2061, 1156.006
628.6882, 1156.144
629.1703, 1156.648
629.6525, 1158.126
630.1346, 1159.136
630.6167, 1157.933
631.0988, 1155.101
631.5809, 1154.821
632.0630, 1158.866
632.5452, 1157.965
633.0273, 1144.014
633.5094, 1129.053
633.9915, 1129.269
634.4736, 1143.626
634.9557, 1151.008
635.4379, 1140.616
635.9200, 1129.173
636.4021, 1125.531
636.8842, 1127.181
637.3663, 1131.853
637.8484, 1137.971
638.3306, 1140.011
638.8127, 1129.943
639.2948, 1111.437
639.7769, 1109.662
640.2590, 1130.991
640.7411, 1146.070
641.2233, 1142.061
641.7054, 1132.618
642.1875, 1131.706
642.6696, 1138.715
643.1517, 1146.639
643.6339, 1159.135
644.1160, 1166.747
644.5981, 1161.828
645.0802, 1149.638
645.5623, 1136.694
646.0444, 1125.172
646.5266, 1116.211
647.0087, 1110.463
647.4908, 1108.424
647.9729, 1114.369
648.4550, 1131.488
648.9371, 1143.671
649.4193, 1146.438
649.9014, 1143.164
650.3835, 1133.781
650.8656, 1119.835
651.3477, 1112.704
651.8298, 1119.929
652.3120, 1127.918
652.7941, 1129.073
653.2762, 1127.804
653.7583, 1131.771
654.2404, 1140.953
654.7225, 1146.667
655.2047, 1140.478
655.6868, 1127.396
656.1689, 1126.621
656.6510, 1141.686
657.1331, 1145.778
657.6152, 1125.289
658.0974, 1103.903
658.5795, 1107.464
659.0616, 1129.741
659.5437, 1142.936
660.0258, 1140.423
660.5079, 1133.685
660.9901, 1122.622
661.4722, 1111.796
661.9543, 1107.379
662.4364, 1108.505
662.9185, 1108.287
663.4006, 1101.638
663.8828, 1092.349
664.3649, 1088.140
664.8470, 1089.057
665.3291, 1094.568
665.8112, 1107.244
666.2933, 1118.364
666.7755, 1122.233
667.2576, 1119.048
667.7397, 1110.506
668.2218, 1087.809
668.7039, 1074.082
669.1860, 1081.445
669.6682, 1093.108
670.1503, 1096.003
670.6324, 1091.413
671.1145, 1086.764
671.5966, 1085.702
672.0787, 1086.220
672.5609, 1084.881
673.0430, 1082.272
673.5251, 1082.944
674.0072, 1087.714
674.4893, 1093.968
674.9714, 1101.882
675.4536, 1108.908
675.9357, 1107.894
676.4178, 1093.963
676.8999, 1082.562
677.3820, 1075.429
677.8641, 1069.512
678.3463, 1061.386
678.8284, 1054.034
679.3105, 1053.951
679.7926, 1063.183
680.2747, 1072.433
680.7568, 1069.601
681.2390, 1061.092
681.7211, 1065.258
682.2032, 1081.834
682.6853, 1091.581
683.1674, 1084.896
683.6495, 1071.730
684.1317, 1067.609
684.6138, 1074.428
685.0959, 1080.349
685.5780, 1089.300
686.0601, 1092.602
686.5422, 1082.159
687.0244, 1068.682
687.5065, 1064.303
687.9886, 1069.894
688.4707, 1075.417
688.9528, 1072.200
689.4349, 1068.290
689.9171, 1075.599
690.3992, 1089.855
690.8813, 1099.151
691.3634, 1100.155
691.8455, 1093.495
692.3276, 1077.869
692.8098, 1055.444
693.2919, 1046.228
693.7740, 1054.633
694.2561, 1066.662
694.7382, 1086.107
695.2203, 1102.678
695.7025, 1107.227
696.1846, 1102.665
696.6667, 1100.362
697.1488, 1105.841
697.6309, 1110.071
698.1130, 1108.124
698.5952, 1102.279
699.0773, 1094.207
699.5594, 1084.897
700.0415, 1076.527
700.5236, 1070.501
701.0057, 1065.638
701.4879, 1057.973
701.9700, 1046.982
702.4521, 1045.125
702.9342, 1057.432
703.4163, 1068.782
703.8984, 1069.442
704.3806, 1063.353
704.8627, 1059.665
705.3448, 1057.876
705.8269, 1059.641
706.3090, 1069.367
706.7911, 1078.548
707.2733, 1083.290
707.7554, 1083.570
708.2375, 1078.652
708.7196, 1068.660
709.2017, 1058.774
709.6838, 1052.772
710.1660, 1050.861
710.6481, 1056.703
711.1302, 1069.506
711.6123, 1074.077
712.0944, 1063.534
712.5765, 1049.260
713.0587, 1046.121
713.5408, 1054.939
714.0229, 1057.167
714.5050, 1041.483
714.9871, 1034.840
715.4692, 1049.849
715.9514, 1068.696
716.4335, 1079.269
716.9156, 1080.485
717.3977, 1073.648
717.8798, 1053.059
718.3619, 1033.530
718.8441, 1026.779
719.3262, 1029.099
719.8083, 1037.475
720.2904, 1049.517
720.7725, 1056.359
721.2546, 1051.385
721.7368, 1040.012
722.2189, 1036.690
722.7010, 1043.680
723.1831, 1041.597
723.6652, 1021.793
724.1473, 1007.233
724.6295, 1016.201
725.1116, 1037.010
725.5937, 1044.353
726.0758, 1032.574
726.5579, 1026.802
727.0400, 1040.633
727.5222, 1052.506
728.0043, 1046.276
728.4864, 1030.601
728.9685, 1019.150
729.4506, 1015.979
729.9327, 1018.507
730.4149, 1028.604
730.8970, 1041.060
731.3791, 1041.297
731.8612, 1030.975
732.3433, 1027.268
732.8254, 1036.164
733.3076, 1046.079
733.7897, 1044.169
734.2718, 1031.794
734.7539, 1027.475
735.2360, 1041.968
735.7181, 1046.354
736.2003, 1026.089
736.6824, 1005.620
737.1645, 1000.236
737.6466, 1006.851
738.1287, 1015.460
738.6108, 1024.082
739.0930, 1032.705
739.5751, 1046.533
740.0572, 1056.914
740.5393, 1047.898
741.0214, 1025.517
741.5035, 1011.553
741.9857, 1016.340
742.4678, 1030.490
742.9499, 1044.505
743.4320, 1057.539
743.9141, 1055.357
744.3962, 1034.218
744.8784, 1017.564
745.3605, 1014.992
745.8426, 1020.249
746.3247, 1025.886
746.8068, 1032.171
747.2889, 1036.218
747.7711, 1035.177
748.2532, 1035.758
748.7353, 1041.774
749.2174, 1048.419
749.6995, 1052.005
750.1816, 1052.128
750.6638, 1049.078
751.1459, 1041.119
751.6280, 1033.611
752.1101, 1032.510
752.5922, 1035.009
753.0743, 1035.642
753.5565, 1034.069
754.0386, 1033.212
754.5207, 1034.804
755.0028, 1037.906
755.4849, 1040.773
755.9670, 1043.362
756.4492, 1046.675
756.9313, 1052.508
757.4134, 1054.156
757.8955, 1044.094
758.3776, 1031.684
758.8597, 1033.763
759.3419, 1052.245
759.8240, 1062.686
760.3061, 1058.624
760.7882, 1051.620
761.2703, 1045.109
761.7524, 1038.443
762.2346, 1029.635
762.7167, 1019.391
763.1988, 1011.322
763.6809, 1007.013
764.1630, 1006.587
764.6451, 1013.351
765.1273, 1023.545
765.6094, 1026.688
766.0915, 1022.016
766.5736, 1017.694
767.0557, 1018.909
767.5378, 1022.828
768.0200, 1023.094
768.5021, 1018.980
768.9842, 1015.957
769.4663, 1015.884
769.9484, 1013.006
770.4305, 1002.915
770.9127, 989.9217
771.3948, 979.9504
771.8769, 973.0978
772.3590, 967.7827
772.8411, 963.0234
773.3232, 960.8217
773.8054, 963.1578
774.2875, 967.6413
774.7696, 971.7997
775.2517, 975.4955
775.7338, 980.6957
776.2159, 990.8862
776.6981, 997.8771
777.1802, 989.3975
777.6623, 971.4519
778.1444, 957.0261
778.6265, 947.7735
779.1086, 941.6515
779.5908, 937.7747
780.0729, 934.8971
780.5550, 930.2277
781.0371, 923.2813
781.5192, 920.4083
782.0013, 924.5782
782.4835, 924.8561
782.9656, 916.3073
783.4477, 902.6003
783.9298, 885.8054
784.4119, 865.6357
784.8940, 854.5063
785.3762, 860.7128
785.8583, 866.0173
786.3404, 864.8107
786.8225, 861.2811
787.3046, 858.1190
787.7867, 856.0536
788.2689, 856.2401
788.7510, 860.2952
789.2331, 862.9562
789.7152, 856.2772
790.1973, 847.1318
790.6794, 849.8768
791.1616, 861.5484
791.6437, 865.0054
792.1258, 852.8532
792.6079, 834.8162
793.0900, 823.1896
793.5721, 817.6171
794.0543, 815.6494
794.5364, 818.3031
795.0185, 818.0497
795.5006, 812.4761
795.9827, 803.6823
796.4648, 792.2924
796.9470, 778.9503
797.4291, 770.9938
797.9112, 774.0504
798.3933, 774.5082
798.8754, 769.9594
799.3575, 764.4720
799.8397, 759.9283
800.3218, 756.2660
800.8039, 753.3308
801.2860, 751.3432
801.7681, 748.3618
802.2502, 741.4282
802.7324, 734.8274
803.2145, 732.1952
803.6966, 732.9001
804.1787, 737.7639
804.6608, 745.5919
805.1429, 748.0485
805.6251, 736.1254
806.1072, 716.9071
806.5893, 703.8779
807.0714, 697.0948
807.5535, 699.3802
808.0356, 711.8239
808.5178, 723.3188
808.9999, 726.3164
809.4820, 723.8799
809.9641, 724.3698
810.4462, 730.8151
810.9283, 728.0832
811.4105, 705.6497
811.8926, 691.2518
812.3747, 702.9185
812.8568, 723.2305
813.3389, 731.1964
813.8210, 726.6744
814.3032, 726.4565
814.7853, 745.3274
815.2674, 753.1076
815.7495, 729.1274
816.2316, 697.7324
816.7137, 680.1537
817.1959, 675.6272
817.6780, 673.0758
818.1601, 667.2960
818.6422, 665.2351
819.1243, 677.0863
819.6064, 694.0316
820.0886, 704.0372
820.5707, 706.4879
821.0528, 700.6370
821.5349, 686.6797
822.0170, 673.3777
822.4991, 670.9682
822.9813, 676.8578
823.4634, 679.7117
823.9455, 679.3339
824.4276, 680.9348
824.9097, 686.3885
825.3918, 690.6396
825.8740, 689.2960
826.3561, 684.2722
826.8382, 682.0833
827.3203, 684.1258
827.8024, 685.8105
828.2845, 688.0885
828.7667, 688.8016
829.2488, 686.7976
829.7309, 683.0798
830.2130, 678.8754
830.6951, 674.2536
831.1772, 668.4257
831.6594, 658.1832
832.1415, 650.3909
832.6236, 648.1786
833.1057, 649.7050
833.5878, 656.1122
834.0699, 664.4438
834.5521, 666.1999
835.0342, 656.4720
835.5163, 645.7191
835.9984, 642.4612
836.4805, 645.0933
836.9626, 655.8773
837.4448, 670.4606
837.9269, 671.9644
838.4090, 655.4193
838.8911, 636.5572
839.3732, 632.6039
839.8553, 639.0852
840.3375, 638.6697
840.8196, 631.1626
841.3017, 626.8782
841.7838, 627.7250
842.2659, 631.8980
842.7480, 639.3344
843.2302, 647.7556
843.7123, 650.9260
844.1944, 645.8896
844.6765, 645.8287
845.1586, 656.6127
845.6407, 663.6168
846.1229, 658.1505
846.6050, 649.2700
847.0871, 644.7322
847.5692, 644.6819
848.0513, 648.5053
848.5334, 664.8618
849.0156, 673.2546
849.4977, 658.1646
849.9798, 641.9630
850.4619, 645.8901
850.9440, 661.6679
851.4261, 668.2878
851.9083, 658.8815
852.3904, 647.5511
852.8725, 643.3100
853.3546, 641.9195
853.8367, 641.1725
854.3188, 639.0383
854.8010, 628.2238
855.2831, 609.8830
855.7652, 599.5672
856.2473, 610.6055
856.7294, 630.5031
857.2115, 636.9121
857.6937, 632.7183
858.1758, 631.2839
858.6579, 633.7267
859.1400, 632.4450
859.6221, 623.0032
860.1042, 614.7521
860.5864, 622.5457
861.0685, 645.5371
861.5506, 661.3890
862.0327, 669.6840
862.5148, 672.3448
862.9969, 669.2963
863.4791, 661.3516
863.9612, 646.7747
864.4433, 628.3751
864.9254, 616.4521
865.4075, 611.7632
865.8896, 612.0120
866.3718, 625.6791
866.8539, 633.9661
867.3360, 623.5967
867.8181, 608.7275
868.3002, 606.8487
868.7823, 618.0602
869.2645, 626.2692
869.7466, 626.1840
870.2287, 623.9222
870.7108, 618.2498
871.1929, 614.3378
871.6750, 619.5800
872.1572, 629.8625
872.6393, 635.4125
873.1214, 632.9291
873.6035, 626.8927
874.0856, 618.4601
874.5677, 609.8815
875.0499, 602.6002
875.5320, 597.4164
876.0141, 596.2877
876.4962, 599.1794
876.9783, 604.2379
877.4604, 610.8140
877.9426, 616.4000
878.4247, 615.6446
878.9068, 610.4166
879.3889, 607.9335
879.8710, 608.4786
880.3531, 608.3986
880.8353, 606.1030
881.3174, 604.6867
881.7995, 608.1041
882.2816, 615.5659
882.7637, 623.0027
883.2458, 631.0925
883.7280, 633.1379
884.2101, 626.3844
884.6922, 618.8221
885.1743, 615.2292
885.6564, 614.6814
886.1385, 615.5716
886.6207, 618.8718
887.1028, 618.7906
887.5849, 608.8561
888.0670, 606.1509
888.5491, 622.6578
889.0313, 641.5382
889.5134, 648.6785
889.9955, 645.7516
890.4776, 640.5061
890.9597, 632.9903
891.4418, 624.0399
891.9240, 609.0034
892.4061, 597.6943
892.8882, 597.5614
893.3703, 603.0195
893.8524, 606.9584
894.3345, 608.3056
894.8167, 608.4916
895.2988, 609.1260
895.7809, 607.4694
896.2630, 598.8531
896.7451, 589.6434
897.2272, 584.7533
897.7094, 585.4288
898.1915, 594.9094
898.6736, 614.4446
899.1557, 630.8768
899.6378, 630.0192
900.1199, 623.0871
900.6021, 624.0061
901.0842, 629.6404
901.5663, 633.1405
902.0484, 633.2609
902.5305, 631.6737
903.0126, 629.2747
903.4948, 626.5999
903.9769, 625.1496
904.4590, 623.9678
904.9411, 619.0738
905.4232, 611.0258
905.9053, 604.7919
906.3875, 602.0085
906.8696, 602.6779
907.3517, 607.3749
907.8338, 614.6020
908.3159, 620.0258
908.7980, 623.6519
909.2802, 623.8368
909.7623, 619.9747
910.2444, 615.3993
910.7265, 610.9660
911.2086, 609.1555
911.6907, 614.6245
912.1729, 627.2065
912.6550, 633.3275
913.1371, 630.8261
913.6192, 628.8857
914.1013, 629.8918
914.5834, 630.0079
915.0656, 625.3916
915.5477, 618.9602
916.0298, 617.5353
916.5119, 622.3041
916.9940, 627.7310
917.4761, 636.4268
917.9583, 642.0629
918.4404, 638.6697
918.9225, 635.5912
919.4046, 644.5187
919.8867, 660.2896
920.3688, 662.8419
920.8510, 642.3234
921.3331, 627.2441
921.8152, 620.7834
922.2973, 621.6125
922.7794, 635.9531
923.2615, 652.7982
923.7437, 659.2289
924.2258, 655.1225
924.7079, 649.1440
925.1900, 641.7686
925.6721, 636.4307
926.1542, 632.1221
926.6364, 632.6790
927.1185, 647.1397
927.6006, 666.2743
928.0827, 673.5293
928.5648, 665.9777
929.0469, 656.5604
929.5291, 650.7015
930.0112, 647.6704
930.4933, 647.4232
930.9754, 649.3317
931.4575, 653.6614
931.9396, 659.3130
932.4218, 663.6642
932.9039, 665.8058
933.3860, 667.3222
933.8681, 670.5640
934.3502, 673.1469
934.8323, 669.9084
935.3145, 664.3508
935.7966, 665.2422
936.2787, 672.0522
936.7608, 675.7289
937.2429, 671.3046
937.7250, 664.7584
938.2072, 663.5524
938.6893, 665.5727
939.1714, 665.6364
939.6535, 664.4218
940.1356, 664.7051
940.6177, 667.2125
941.0999, 672.9311
941.5820, 683.3815
942.0641, 693.0398
942.5462, 689.4128
943.0283, 675.7079
943.5104, 667.7036
943.9926, 666.0793
944.4747, 672.7426
944.9568, 688.5860
945.4389, 700.2859
945.9210, 694.2109
946.4031, 678.9586
946.8853, 680.5448
947.3674, 698.8666
947.8495, 710.4326
948.3316, 713.2861
948.8137, 714.4971
949.2958, 716.4697
949.7780, 719.4269
950.2601, 723.8458
950.7422, 729.2902
951.2243, 734.0547
951.7064, 738.8107
952.1885, 737.3373
952.6707, 726.6159
953.1528, 719.1484
953.6349, 721.7365
954.1170, 728.3478
954.5991, 730.7872
955.0812, 729.3054
955.5634, 729.5378
956.0455, 731.0282
956.5276, 736.1617
957.0097, 747.9608
957.4918, 757.8898
957.9739, 761.3551
958.4561, 760.1821
958.9382, 756.4635
959.4203, 749.7201
959.9024, 747.5033
960.3845, 754.2421
960.8666, 756.0987
961.3488, 743.1245
961.8309, 735.8911
962.3130, 751.5305
962.7951, 779.0430
963.2772, 797.9572
963.7593, 808.2718
964.2415, 809.8273
964.7236, 790.7114
965.2057, 780.1652
965.6878, 791.8104
966.1699, 804.9678
966.6520, 802.9862
967.1342, 793.6010
967.6163, 796.1292
968.0984, 816.2571
968.5805, 827.0981
969.0626, 822.9048
969.5447, 815.3068
970.0269, 800.5060
970.5090, 789.4163
970.9911, 794.1859
971.4732, 808.6722
971.9553, 815.6541
972.4374, 810.5743
972.9196, 808.7167
973.4017, 812.3977
973.8838, 819.3364
974.3659, 833.9915
974.8480, 847.1563
975.3301, 847.6302
975.8123, 839.8907
976.2944, 839.1965
976.7765, 850.6740
977.2586, 860.0543
977.7407, 860.7708
978.2228, 862.8621
978.7050, 876.3794
979.1871, 888.9462
979.6692, 883.3162
980.1513, 865.5330
980.6334, 860.5566
981.1155, 879.6903
981.5977, 892.9979
982.0798, 888.1754
982.5619, 879.3837
983.0440, 868.3071
983.5261, 861.0726
984.0082, 867.3675
984.4904, 883.5652
984.9725, 894.4830
985.4546, 895.8142
985.9367, 892.6101
986.4188, 878.2498
986.9009, 869.3850
987.3831, 881.2858
987.8652, 900.2880
988.3473, 910.2344
988.8294, 911.2905
989.3115, 913.4462
989.7936, 922.0825
990.2758, 924.9566
990.7579, 907.6188
991.2400, 893.2000
991.7221, 899.1529
992.2042, 914.9131
992.6863, 929.7834
993.1685, 941.1890
993.6506, 946.8290
994.1327, 944.1033
994.6148, 940.8793
995.0969, 939.5331
995.5790, 940.0667
996.0612, 945.1964
996.5433, 950.4587
997.0254, 947.6700
997.5075, 939.0644
997.9896, 937.9489
998.4717, 951.9014
998.9539, 964.5322
999.4360, 966.7711
999.9181, 966.7262
1000.400, 968.8903
1000.882, 972.8456
1001.364, 980.2914
1001.847, 988.9317
1002.329, 989.5020
1002.811, 975.8414
1003.293, 963.1943
1003.775, 954.0348
1004.257, 953.3233
1004.739, 972.0226
1005.221, 996.3434
1005.703, 1009.427
1006.186, 1011.049
1006.668, 1010.505
1007.150, 1011.612
1007.632, 1008.128
1008.114, 989.5648
1008.596, 973.9359
1009.078, 974.8693
1009.560, 984.1991
1010.043, 994.3579
1010.525, 1002.885
1011.007, 1005.474
1011.489, 997.8630
1011.971, 995.3481
1012.453, 1014.667
1012.935, 1029.473
1013.417, 1018.692
1013.899, 998.3196
1014.382, 981.9211
1014.864, 973.4016
1015.346, 979.2825
1015.828, 1006.258
1016.310, 1026.209
1016.792, 1022.891
1017.274, 1016.194
1017.756, 1014.511
1018.239, 1016.797
1018.721, 1024.153
1019.203, 1033.834
1019.685, 1038.560
1020.167, 1035.841
1020.649, 1032.345
1021.131, 1027.129
1021.613, 1025.475
1022.095, 1032.782
1022.578, 1042.219
1023.060, 1047.776
1023.542, 1050.145
1024.024, 1053.863
1024.506, 1061.404
1024.988, 1059.267
1025.470, 1031.771
1025.952, 1009.985
1026.435, 1007.847
1026.917, 1013.851
1027.399, 1021.578
1027.881, 1029.279
1028.363, 1034.605
1028.845, 1036.895
1029.327, 1039.834
1029.809, 1044.897
1030.292, 1049.556
1030.774, 1053.594
1031.256, 1056.573
1031.738, 1058.282
1032.220, 1058.710
1032.702, 1057.196
1033.184, 1053.415
1033.666, 1051.917
1034.148, 1056.840
1034.630, 1058.687
1035.113, 1048.598
1035.595, 1043.023
1036.077, 1057.388
1036.559, 1078.545
1037.041, 1086.037
1037.523, 1079.178
1038.005, 1074.147
1038.487, 1070.158
1038.970, 1069.616
1039.452, 1077.456
1039.934, 1082.376
1040.416, 1074.853
1040.898, 1065.857
1041.380, 1070.994
1041.862, 1088.290
1042.344, 1095.285
1042.826, 1084.385
1043.309, 1079.938
1043.791, 1085.246
1044.273, 1092.634
1044.755, 1101.278
1045.237, 1108.048
1045.719, 1108.995
1046.201, 1105.592
1046.683, 1104.716
1047.166, 1106.985
1047.648, 1109.595
1048.130, 1112.159
1048.612, 1116.406
1049.094, 1123.639
1049.576, 1130.682
1050.058, 1134.750
1050.540, 1136.755
1051.022, 1139.846
1051.505, 1144.783
1051.987, 1141.586
1052.469, 1128.022
1052.951, 1121.208
1053.433, 1126.141
1053.915, 1132.316
1054.397, 1131.789
1054.879, 1131.528
1055.361, 1147.321
1055.844, 1176.650
1056.326, 1187.223
1056.808, 1179.207
1057.290, 1178.189
1057.772, 1188.633
1058.254, 1196.498
1058.736, 1194.215
1059.218, 1188.345
1059.701, 1187.253
1060.183, 1189.764
1060.665, 1193.641
1061.147, 1197.784
1061.629, 1192.894
1062.111, 1180.030
1062.593, 1177.048
1063.075, 1190.461
1063.557, 1206.029
1064.040, 1210.272
1064.522, 1207.490
1065.004, 1203.167
1065.486, 1198.800
1065.968, 1199.532
1066.450, 1203.718
1066.932, 1202.927
1067.414, 1196.232
1067.896, 1194.711
1068.379, 1207.526
1068.861, 1222.434
1069.343, 1225.882
1069.825, 1222.654
1070.307, 1214.158
1070.789, 1206.426
1071.271, 1214.694
1071.753, 1236.030
1072.236, 1248.130
1072.718, 1239.816
1073.200, 1229.397
1073.682, 1228.148
1074.164, 1232.509
1074.646, 1246.908
1075.128, 1259.757
1075.610, 1255.460
1076.093, 1237.548
1076.575, 1216.316
1077.057, 1194.011
1077.539, 1182.872
1078.021, 1197.253
1078.503, 1212.085
1078.985, 1213.470
1079.467, 1213.461
1079.949, 1225.323
1080.432, 1240.500
1080.914, 1243.036
1081.396, 1231.771
1081.878, 1221.685
1082.360, 1212.950
1082.842, 1209.354
1083.324, 1213.350
1083.806, 1220.374
1084.288, 1234.771
1084.771, 1246.365
1085.253, 1238.770
1085.735, 1217.800
1086.217, 1213.160
1086.699, 1236.991
1087.181, 1244.316
1087.663, 1227.134
1088.145, 1209.332
1088.628, 1196.094
1089.110, 1185.027
1089.592, 1171.978
1090.074, 1163.003
1090.556, 1174.213
1091.038, 1206.959
1091.520, 1218.362
1092.002, 1204.182
1092.484, 1196.166
1092.967, 1200.473
1093.449, 1203.923
1093.931, 1199.850
1094.413, 1191.372
1094.895, 1181.284
1095.377, 1171.450
1095.859, 1169.654
1096.341, 1174.986
1096.823, 1182.199
1097.306, 1190.077
1097.788, 1192.497
1098.270, 1187.642
1098.752, 1178.811
1099.234, 1167.834
1099.716, 1157.725
1100.198, 1153.878
1100.680, 1153.849
1101.163, 1152.906
1101.645, 1151.427
1102.127, 1153.289
1102.609, 1156.784
1103.091, 1150.193
1103.573, 1127.231
1104.055, 1108.900
1104.537, 1118.030
1105.020, 1133.853
1105.502, 1137.647
1105.984, 1136.750
1106.466, 1142.845
1106.948, 1151.348
1107.430, 1148.025
1107.912, 1130.805
1108.394, 1118.235
1108.876, 1120.142
1109.359, 1124.574
1109.841, 1130.444
1110.323, 1133.747
1110.805, 1132.455
1111.287, 1126.859
1111.769, 1115.320
1112.251, 1099.545
1112.733, 1087.226
1113.215, 1076.922
1113.698, 1075.762
1114.180, 1091.471
1114.662, 1104.530
1115.144, 1114.575
1115.626, 1114.705
1116.108, 1095.663
1116.590, 1068.281
1117.072, 1052.280
1117.555, 1047.687
1118.037, 1049.787
1118.519, 1061.047
1119.001, 1064.110
1119.483, 1055.647
1119.965, 1047.553
1120.447, 1044.822
1120.929, 1044.019
1121.411, 1041.192
1121.894, 1038.697
1122.376, 1046.790
1122.858, 1061.155
1123.340, 1053.303
1123.822, 1028.392
1124.304, 1025.867
1124.786, 1050.169
1125.268, 1059.523
1125.750, 1029.223
1126.233, 992.0992
1126.715, 986.4818
1127.197, 995.0212
1127.679, 997.7318
1128.161, 995.4214
1128.643, 990.3499
1129.125, 981.6663
1129.607, 961.0687
1130.090, 929.3275
1130.572, 915.6874
1131.054, 948.3728
1131.536, 978.3295
1132.018, 978.0316
1132.500, 968.6564
1132.982, 961.7433
1133.464, 956.2642
1133.947, 952.5474
1134.429, 948.2488
1134.911, 933.1987
1135.393, 898.0181
1135.875, 880.2936
1136.357, 899.9058
1136.839, 912.1360
1137.321, 905.3035
1137.803, 895.5897
1138.286, 892.3843
1138.768, 891.2766
1139.250, 885.9863
1139.732, 876.7186
1140.214, 863.1768
1140.696, 843.0055
1141.178, 838.3596
1141.660, 852.0480
1142.142, 867.3266
1142.625, 879.4105
1143.107, 881.2004
1143.589, 866.0162
1144.071, 843.1359
1144.553, 825.8620
1145.035, 814.9269
1145.517, 818.0901
1145.999, 828.7151
1146.482, 823.9545
1146.964, 804.8817
1147.446, 788.9984
1147.928, 783.0302
1148.410, 782.2275
1148.892, 783.2260
1149.374, 787.7235
1149.856, 804.5082
1150.339, 818.6122
1150.821, 809.0938
1151.303, 790.3441
1151.785, 787.6591
1152.267, 798.5137
1152.749, 796.9501
1153.231, 771.4088
1153.713, 754.6801
1154.195, 763.6107
1154.677, 769.1519
1155.160, 759.7109
1155.642, 747.3012
1156.124, 734.5618
1156.606, 727.4039
1157.088, 737.6815
1157.570, 763.0233
1158.052, 775.6160
1158.534, 774.7151
1159.017, 761.8672
1159.499, 733.7731
1159.981, 715.2956
1160.463, 714.9742
1160.945, 716.3918
1161.427, 707.6528
1161.909, 693.1147
1162.391, 676.5878
1162.874, 661.5658
1163.356, 664.4241
1163.838, 678.0551
1164.320, 677.0691
1164.802, 663.2461
1165.284, 657.5814
1165.766, 665.6524
1166.248, 671.3328
1166.730, 662.1404
1167.213, 651.5717
1167.695, 653.1356
1168.177, 655.7998
1168.659, 648.6513
1169.141, 637.4895
1169.623, 627.4393
1170.105, 620.8109
1170.587, 622.1428
1171.069, 633.2794
1171.552, 643.4501
1172.034, 658.3684
1172.516, 660.3033
1172.998, 633.9685
1173.480, 612.7001
1173.962, 613.7078
1174.444, 621.6516
1174.926, 620.7039
1175.409, 613.6327
1175.891, 610.1547
1176.373, 610.6146
1176.855, 610.2337
1177.337, 609.0556
1177.819, 602.4410
1178.301, 589.8971
1178.783, 587.4525
1179.266, 602.9374
1179.748, 621.6489
1180.230, 629.6797
1180.712, 628.3278
1181.194, 616.3752
1181.676, 598.6004
1182.158, 578.2330
1182.640, 560.9758
1183.122, 561.0804
1183.604, 575.3616
1184.087, 582.4902
1184.569, 573.6616
1185.051, 565.4198
1185.533, 565.0754
1186.015, 567.2474
1186.497, 572.7899
1186.979, 576.7347
1187.461, 575.0945
1187.944, 570.1339
1188.426, 564.4174
1188.908, 558.3279
1189.390, 553.5915
1189.872, 547.8799
1190.354, 554.1107
1190.836, 577.8484
1191.318, 586.9520
1191.801, 572.1290
1192.283, 557.5607
1192.765, 556.9249
1193.247, 563.5927
1193.729, 570.3052
1194.211, 576.5766
1194.693, 581.3828
1195.175, 584.7974
1195.657, 587.8691
1196.140, 589.5800
1196.622, 586.7765
1197.104, 579.3281
1197.586, 568.1858
1198.068, 552.7579
1198.550, 544.4435
1199.032, 557.2686
1199.514, 570.3119
1199.996, 575.1419
1200.479, 571.9207
1200.961, 552.6900
1201.443, 530.6360
1201.925, 526.4651
1202.407, 538.5782
1202.889, 546.0672
1203.371, 547.9121
1203.853, 548.0443
1204.336, 546.2627
1204.818, 542.8320
1205.300, 536.7963
1205.782, 534.5641
1206.264, 540.4260
1206.746, 545.8904
1207.228, 539.7692
1207.710, 527.9641
1208.193, 524.8766
1208.675, 528.3972
1209.157, 535.0847
1209.639, 542.3324
1210.121, 542.6856
1210.603, 536.5796
1211.085, 531.3333
1211.567, 529.8368
1212.049, 529.2959
1212.531, 528.5158
1213.014, 527.4970
1213.496, 524.4359
1213.978, 523.1289
1214.460, 526.8781
1214.942, 533.4312
1215.424, 542.1785
1215.906, 551.0252
1216.388, 553.1038
1216.871, 547.8222
1217.353, 538.3137
1217.835, 522.2363
1218.317, 511.4422
1218.799, 507.3871
1219.281, 511.8440
1219.763, 526.4329
1220.245, 537.8550
1220.728, 533.2256
1221.210, 521.4750
1221.692, 517.2824
1222.174, 518.1161
1222.656, 519.6684
1223.138, 521.6686
1223.620, 522.6882
1224.102, 524.1729
1224.584, 531.7676
1225.067, 546.0473
1225.549, 556.5836
1226.031, 560.3362
1226.513, 556.7742
1226.995, 538.5602
1227.477, 522.2498
1227.959, 514.8987
1228.441, 512.3448
1228.923, 510.6639
1229.406, 512.2984
1229.888, 523.0877
1230.370, 541.5169
1230.852, 549.7566
1231.334, 547.4857
1231.816, 542.1240
1232.298, 534.3368
1232.780, 526.7957
1233.263, 520.6060
1233.745, 520.5336
1234.227, 529.5293
1234.709, 538.6286
1235.191, 535.7910
1235.673, 531.4238
1236.155, 541.0287
1236.637, 551.8300
1237.120, 544.7332
1237.602, 531.4160
1238.084, 534.3826
1238.566, 550.5839
1239.048, 557.0712
1239.530, 548.5789
1240.012, 536.8440
1240.494, 518.4492
1240.976, 505.1385
1241.458, 496.9066
1241.941, 499.3050
1242.423, 518.6080
1242.905, 535.4069
##END=



