##NAMES=Chalcophanite
##RRUFFID=R050451
##IDEAL CHEMISTRY=Zn^2+^Mn^4+^_3_O_7_&#183;3H_2_O
##LOCALITY=Morenci mine, Morenci, Greenlee County, Arizona, USA
##OWNER=RRUFF
##SOURCE=University of Arizona Mineral Museum
##DESCRIPTION=A mass of small black hexagonal plates, not homogeneous
##STATUS=The identification of this mineral has been confirmed by X-ray diffraction and chemical analysis
##URL=rruff.info/R050451
##MEASURED CHEMISTRY=(Zn_0.60_Fe^2+^_0.20_Cu_0.12_Fe^3+^_0.08_)_Σ=1_(Mn^4+^_2.92_Fe^3+^_0.08_)_Σ=3_O_7_·3H_2_O ; = bright phase. The gray phase is jacobsite (Mn_0.65_Zn_0.25_Cu_0.09_)_Σ=1_(Fe^3+^_1.58_Mn^3+^_0.42_)_Σ=2_O_4_; dark phase: K-feldspar
95.71167, 85.68122
96.19379, 83.57999
96.67590, 79.94443
97.15803, 76.85484
97.64014, 74.69266
98.12226, 73.21259
98.60438, 72.06319
99.08649, 71.26088
99.56861, 70.59279
100.0507, 69.78630
100.5328, 68.79510
101.0150, 67.49226
101.4971, 65.55799
101.9792, 62.93440
102.4613, 60.75740
102.9434, 59.48411
103.4255, 58.81221
103.9077, 58.66048
104.3898, 59.04928
104.8719, 59.80178
105.3540, 60.66669
105.8361, 62.09285
106.3182, 62.79101
106.8004, 62.42898
107.2825, 61.33399
107.7646, 59.83834
108.2467, 58.11351
108.7288, 56.17552
109.2109, 54.26859
109.6931, 52.08293
110.1752, 50.21001
110.6573, 48.89769
111.1394, 48.05371
111.6215, 47.40638
112.1037, 46.71907
112.5858, 45.96543
113.0679, 45.46588
113.5500, 45.31566
114.0321, 45.32323
114.5142, 45.43758
114.9964, 45.64885
115.4785, 45.77171
115.9606, 45.47339
116.4427, 44.77996
116.9248, 44.27924
117.4069, 44.22304
117.8891, 44.44503
118.3712, 44.61337
118.8533, 44.67619
119.3354, 44.64383
119.8175, 44.46734
120.2996, 44.16520
120.7818, 43.97113
121.2639, 44.15346
121.7460, 44.73217
122.2281, 45.13014
122.7102, 45.07137
123.1923, 44.90742
123.6745, 44.80682
124.1566, 44.79975
124.6387, 44.81795
125.1208, 44.76750
125.6029, 44.64048
126.0850, 44.44880
126.5672, 44.18886
127.0493, 43.88312
127.5314, 43.52551
128.0135, 43.11529
128.4956, 42.69795
128.9778, 42.39429
129.4599, 42.43795
129.9420, 42.34108
130.4241, 41.93457
130.9062, 41.38599
131.3883, 40.95869
131.8705, 40.81158
132.3526, 40.87971
132.8347, 40.78654
133.3168, 40.32003
133.7989, 39.93857
134.2810, 39.87075
134.7632, 40.07708
135.2453, 40.34137
135.7274, 40.54347
136.2095, 40.69406
136.6916, 40.84669
137.1737, 41.03518
137.6559, 41.20832
138.1380, 41.30287
138.6201, 41.30445
139.1022, 41.29493
139.5843, 41.30494
140.0664, 41.34072
140.5486, 41.42331
141.0307, 41.59673
141.5128, 41.81851
141.9949, 41.96859
142.4770, 42.06547
142.9591, 42.04463
143.4413, 41.86708
143.9234, 41.57310
144.4055, 41.22533
144.8876, 40.83836
145.3697, 40.41153
145.8518, 40.12619
146.3340, 40.24856
146.8161, 40.28386
147.2982, 40.01610
147.7803, 39.50576
148.2624, 38.97037
148.7445, 38.63943
149.2267, 38.61060
149.7088, 38.37894
150.1909, 37.67097
150.6730, 37.01944
151.1551, 36.79280
151.6372, 37.00567
152.1194, 37.34644
152.6015, 37.42968
153.0836, 37.12088
153.5657, 36.88070
154.0478, 36.76581
154.5300, 36.69195
155.0121, 36.55762
155.4942, 36.33196
155.9763, 36.10362
156.4584, 36.04335
156.9405, 36.16962
157.4227, 36.23326
157.9048, 36.12037
158.3869, 35.89977
158.8690, 35.71324
159.3511, 35.59414
159.8332, 35.52850
160.3154, 35.50075
160.7975, 35.51132
161.2796, 35.52535
161.7617, 35.55191
162.2438, 35.58370
162.7259, 35.52082
163.2081, 35.26836
163.6902, 34.96399
164.1723, 34.69230
164.6544, 34.46058
165.1365, 34.28492
165.6186, 34.20182
166.1008, 34.23960
166.5829, 34.24410
167.0650, 34.10161
167.5471, 33.97521
168.0292, 33.99504
168.5113, 34.18717
168.9935, 34.44337
169.4756, 34.58628
169.9577, 34.57803
170.4398, 34.51525
170.9219, 34.37658
171.4040, 34.21332
171.8862, 34.04977
172.3683, 33.89821
172.8504, 33.78117
173.3325, 33.75392
173.8146, 33.96520
174.2967, 34.09160
174.7789, 34.05120
175.2610, 33.94563
175.7431, 33.91350
176.2252, 34.02228
176.7073, 34.20227
177.1894, 34.21659
177.6716, 33.93915
178.1537, 33.67241
178.6358, 33.43260
179.1179, 33.24257
179.6000, 33.16287
180.0822, 33.25068
180.5643, 33.43428
181.0464, 33.48722
181.5285, 33.34424
182.0106, 33.19310
182.4927, 33.12146
182.9749, 33.11730
183.4570, 33.12807
183.9391, 33.13519
184.4212, 33.13807
184.9033, 33.13163
185.3854, 33.09591
185.8676, 33.08365
186.3497, 33.17128
186.8318, 33.36322
187.3139, 33.49752
187.7960, 33.43989
188.2781, 33.31117
188.7603, 33.25053
189.2424, 33.30626
189.7245, 33.38694
190.2066, 33.33989
190.6887, 33.10139
191.1708, 32.97116
191.6530, 33.16931
192.1351, 33.46703
192.6172, 33.67398
193.0993, 33.71914
193.5814, 33.65767
194.0635, 33.58429
194.5457, 33.46199
195.0278, 33.40813
195.5099, 33.50946
195.9920, 33.65153
196.4741, 33.72112
196.9562, 33.66649
197.4384, 33.52255
197.9205, 33.37934
198.4026, 33.14440
198.8847, 33.05410
199.3668, 33.24107
199.8489, 33.54206
200.3311, 33.77145
200.8132, 33.83413
201.2953, 33.77524
201.7774, 33.77280
202.2595, 33.97069
202.7417, 34.06437
203.2238, 33.91286
203.7059, 33.66204
204.1880, 33.52337
204.6701, 33.61516
205.1522, 33.88265
205.6344, 34.08302
206.1165, 34.17482
206.5986, 34.25805
207.0807, 34.36697
207.5628, 34.48114
208.0449, 34.55635
208.5271, 34.56385
209.0092, 34.52362
209.4913, 34.51965
209.9734, 34.63078
210.4555, 34.67937
210.9376, 34.54969
211.4198, 34.30010
211.9019, 34.09040
212.3840, 34.00427
212.8661, 34.01281
213.3482, 34.01225
213.8303, 33.93973
214.3125, 33.95213
214.7946, 34.21843
215.2767, 34.68538
215.7588, 35.05256
216.2409, 35.16144
216.7230, 35.10115
217.2052, 35.06681
217.6873, 35.06651
218.1694, 35.07939
218.6515, 35.04632
219.1336, 34.97359
219.6157, 35.04271
220.0979, 35.46000
220.5800, 35.96989
221.0621, 36.27502
221.5442, 36.30896
222.0263, 36.28098
222.5084, 36.43156
222.9906, 36.78787
223.4727, 37.02942
223.9548, 36.93780
224.4369, 36.75837
224.9190, 36.66668
225.4011, 36.69661
225.8833, 36.77193
226.3654, 36.79893
226.8475, 36.76265
227.3296, 36.74958
227.8117, 36.82904
228.2939, 36.90425
228.7760, 36.90834
229.2581, 36.82893
229.7402, 36.71000
230.2223, 36.59306
230.7044, 36.45254
231.1866, 36.39954
231.6687, 36.53238
232.1508, 36.68879
232.6329, 36.77737
233.1150, 36.77852
233.5971, 36.72235
234.0793, 36.64798
234.5614, 36.55489
235.0435, 36.44300
235.5256, 36.25555
236.0077, 36.09245
236.4898, 36.02013
236.9720, 36.04809
237.4541, 36.13934
237.9362, 36.26139
238.4183, 36.48545
238.9004, 36.55095
239.3825, 36.28438
239.8647, 36.01709
240.3468, 36.01735
240.8289, 36.29044
241.3110, 36.59906
241.7931, 36.64806
242.2752, 36.34692
242.7574, 36.01073
243.2395, 35.53885
243.7216, 35.11125
244.2037, 34.85456
244.6858, 34.77739
245.1679, 34.79453
245.6501, 34.81938
246.1322, 34.85888
246.6143, 34.87243
247.0964, 34.83691
247.5785, 34.79586
248.0606, 34.79842
248.5428, 34.83883
249.0249, 34.85130
249.5070, 34.77221
249.9891, 34.58612
250.4712, 34.36625
250.9533, 34.03757
251.4355, 33.73429
251.9176, 33.54665
252.3997, 33.47697
252.8818, 33.47875
253.3639, 33.53828
253.8461, 33.65211
254.3282, 33.66949
254.8103, 33.50722
255.2924, 33.31705
255.7745, 33.20956
256.2566, 33.18196
256.7387, 33.14830
257.2209, 33.00911
257.7030, 32.81321
258.1851, 32.81515
258.6672, 33.22543
259.1493, 33.66236
259.6314, 33.84641
260.1136, 33.79721
260.5957, 33.71895
261.0778, 33.72732
261.5599, 33.79503
262.0420, 33.82454
262.5241, 33.77488
263.0063, 33.73426
263.4884, 33.80250
263.9705, 33.96125
264.4526, 34.03931
264.9348, 33.90129
265.4169, 33.66750
265.8990, 33.56998
266.3811, 33.64426
266.8632, 33.78234
267.3453, 33.93754
267.8275, 34.10347
268.3096, 34.23309
268.7917, 34.31885
269.2738, 34.34420
269.7559, 34.28106
270.2380, 34.10930
270.7202, 33.95744
271.2023, 33.89792
271.6844, 33.92926
272.1665, 34.06474
272.6486, 34.42331
273.1307, 34.75616
273.6129, 34.81723
274.0950, 34.60846
274.5771, 34.33508
275.0592, 34.06112
275.5413, 33.80964
276.0234, 33.73138
276.5056, 33.92669
276.9877, 34.20715
277.4698, 34.47956
277.9519, 34.72373
278.4340, 34.84180
278.9161, 34.65879
279.3983, 34.26934
279.8804, 34.12587
280.3625, 34.40749
280.8446, 34.70066
281.3267, 34.71534
281.8088, 34.54692
282.2910, 34.41756
282.7731, 34.44906
283.2552, 34.61109
283.7373, 34.82866
284.2194, 35.17965
284.7015, 35.43226
285.1837, 35.45130
285.6658, 35.32351
286.1479, 35.16095
286.6300, 34.98297
287.1121, 34.83240
287.5942, 34.82670
288.0764, 35.03069
288.5585, 35.22937
289.0406, 35.35713
289.5227, 35.43468
290.0048, 35.46516
290.4869, 35.43863
290.9691, 35.40738
291.4512, 35.46669
291.9333, 35.64069
292.4154, 35.83023
292.8975, 36.03658
293.3796, 36.23229
293.8618, 36.42724
294.3439, 36.62351
294.8260, 36.72623
295.3081, 36.49640
295.7902, 35.78102
296.2723, 35.46390
296.7545, 36.13312
297.2366, 36.93813
297.7187, 37.41678
298.2008, 37.52438
298.6829, 37.49196
299.1650, 37.52161
299.6472, 37.61216
300.1293, 37.77383
300.6114, 38.07180
301.0935, 38.38753
301.5756, 38.71538
302.0577, 39.02466
302.5399, 39.24408
303.0220, 39.28725
303.5041, 39.16343
303.9862, 39.07446
304.4683, 38.95099
304.9504, 38.95918
305.4326, 39.24574
305.9147, 39.69208
306.3968, 40.07743
306.8789, 40.25027
307.3610, 40.27051
307.8431, 40.39758
308.3253, 40.70846
308.8074, 41.01022
309.2895, 41.24446
309.7716, 41.44304
310.2537, 41.62916
310.7358, 41.80793
311.2180, 42.00881
311.7001, 42.33065
312.1822, 42.92045
312.6643, 43.29904
313.1465, 43.25690
313.6286, 43.06639
314.1107, 42.90832
314.5928, 42.83778
315.0749, 42.86227
315.5570, 43.03630
316.0392, 43.43970
316.5213, 43.69724
317.0034, 43.65712
317.4855, 43.55006
317.9676, 43.51076
318.4497, 43.54134
318.9319, 43.54314
319.4140, 43.41619
319.8961, 43.15299
320.3782, 42.83929
320.8603, 42.35035
321.3424, 41.93314
321.8246, 41.78232
322.3067, 41.78972
322.7888, 41.67643
323.2709, 41.19479
323.7530, 40.40982
324.2351, 39.82368
324.7173, 39.54437
325.1994, 39.32721
325.6815, 39.15816
326.1636, 38.97836
326.6457, 38.68751
327.1278, 38.21626
327.6100, 37.66313
328.0921, 37.27215
328.5742, 37.10913
329.0563, 36.97173
329.5384, 36.83862
330.0205, 36.69251
330.5027, 36.51836
330.9848, 36.31110
331.4669, 36.07739
331.9490, 35.80360
332.4311, 35.46058
332.9132, 35.20683
333.3954, 35.12767
333.8775, 35.10157
334.3596, 35.11325
334.8417, 35.13885
335.3238, 35.09507
335.8059, 34.84553
336.2881, 34.38474
336.7702, 34.08398
337.2523, 34.05857
337.7344, 34.08474
338.2165, 34.05619
338.6986, 33.99535
339.1808, 33.96701
339.6629, 34.03133
340.1450, 34.15310
340.6271, 34.19549
341.1092, 34.12325
341.5913, 34.03665
342.0735, 33.96053
342.5556, 33.89833
343.0377, 33.84152
343.5198, 33.77287
344.0019, 33.75130
344.4840, 33.92409
344.9662, 34.36782
345.4483, 34.67418
345.9304, 34.59074
346.4125, 34.39379
346.8946, 34.24463
347.3767, 34.16968
347.8589, 34.16411
348.3410, 34.26003
348.8231, 34.45380
349.3052, 34.58096
349.7873, 34.58496
350.2694, 34.55180
350.7516, 34.53178
351.2337, 34.52597
351.7158, 34.53334
352.1979, 34.51567
352.6800, 34.50795
353.1621, 34.64768
353.6443, 34.99947
354.1264, 35.35652
354.6085, 35.59751
355.0906, 35.76508
355.5727, 35.91353
356.0548, 36.04560
356.5370, 36.18485
357.0191, 36.36895
357.5012, 36.60057
357.9833, 36.84080
358.4654, 37.12466
358.9475, 37.37394
359.4297, 37.45752
359.9118, 37.31917
360.3939, 37.23087
360.8760, 37.44188
361.3581, 37.89453
361.8402, 38.30320
362.3224, 38.60352
362.8045, 38.83468
363.2866, 38.99318
363.7687, 39.09112
364.2509, 39.28521
364.7330, 39.73356
365.2151, 40.28794
365.6972, 40.69489
366.1793, 40.92183
366.6614, 41.08125
367.1436, 41.25663
367.6257, 41.42934
368.1078, 41.54101
368.5899, 41.55528
369.0720, 41.53054
369.5541, 41.52815
370.0363, 41.53790
370.5184, 41.48094
371.0005, 41.29297
371.4826, 41.04004
371.9647, 40.87628
372.4468, 40.83511
372.9290, 40.78846
373.4111, 40.73958
373.8932, 40.64237
374.3753, 40.37318
374.8574, 39.87896
375.3395, 39.34022
375.8217, 38.98751
376.3038, 38.83692
376.7859, 38.73771
377.2680, 38.71585
377.7501, 38.71323
378.2322, 38.67245
378.7144, 38.59494
379.1965, 38.52781
379.6786, 38.50420
380.1607, 38.52338
380.6428, 38.56347
381.1249, 38.68990
381.6071, 38.76289
382.0892, 38.64849
382.5713, 38.45583
383.0534, 38.41879
383.5355, 38.64882
384.0176, 39.00388
384.4998, 39.17584
384.9819, 38.99819
385.4640, 38.90179
385.9461, 38.90461
386.4282, 38.98673
386.9103, 39.17834
387.3925, 39.45860
387.8746, 39.71474
388.3567, 39.81633
388.8388, 39.73675
389.3209, 39.69295
389.8030, 39.58577
390.2852, 39.60653
390.7673, 40.00785
391.2494, 40.58125
391.7315, 40.89847
392.2136, 40.69256
392.6957, 40.10938
393.1779, 39.71807
393.6600, 39.74010
394.1421, 39.64395
394.6242, 39.30887
395.1063, 38.88397
395.5884, 38.47936
396.0706, 38.13163
396.5527, 37.85580
397.0348, 37.70831
397.5169, 37.76599
397.9990, 37.64697
398.4811, 37.15017
398.9633, 36.65613
399.4454, 36.30070
399.9275, 36.07399
400.4096, 35.91874
400.8917, 35.82554
401.3738, 35.75995
401.8560, 35.54299
402.3381, 35.01775
402.8202, 34.64677
403.3023, 34.67350
403.7844, 34.85418
404.2665, 34.95118
404.7487, 34.89484
405.2308, 34.74865
405.7129, 34.55667
406.1950, 34.31131
406.6771, 34.13849
407.1592, 34.05232
407.6414, 34.06393
408.1235, 34.26357
408.6056, 34.59795
409.0877, 34.79309
409.5698, 34.58929
410.0519, 34.14973
410.5341, 33.84983
411.0162, 33.71137
411.4983, 33.66618
411.9804, 33.70968
412.4626, 33.81440
412.9447, 33.95315
413.4268, 34.18256
413.9089, 34.34186
414.3910, 34.19784
414.8731, 33.83387
415.3553, 33.68145
415.8374, 33.94588
416.3195, 34.36597
416.8016, 34.56817
417.2837, 34.55946
417.7658, 34.47115
418.2480, 34.18191
418.7301, 33.91323
419.2122, 33.98846
419.6943, 34.42494
420.1764, 34.88546
420.6585, 35.13624
421.1407, 35.17031
421.6228, 35.03357
422.1049, 34.47426
422.5870, 34.03372
423.0691, 34.03606
423.5512, 34.28630
424.0334, 34.40845
424.5155, 34.24757
424.9976, 33.96453
425.4797, 33.86262
425.9618, 34.06631
426.4439, 34.21349
426.9261, 34.27322
427.4082, 34.30379
427.8903, 34.35199
428.3724, 34.41480
428.8545, 34.45339
429.3366, 34.43291
429.8188, 34.35647
430.3009, 34.29323
430.7830, 34.23378
431.2651, 34.20060
431.7472, 34.21187
432.2293, 34.24615
432.7115, 34.26014
433.1936, 34.24023
433.6757, 34.24854
434.1578, 34.43563
434.6399, 34.91590
435.1220, 35.16612
435.6042, 34.85332
436.0863, 34.54704
436.5684, 34.55145
437.0505, 34.81280
437.5326, 35.08841
438.0147, 35.23109
438.4969, 35.25503
438.9790, 35.18148
439.4611, 34.94159
439.9432, 34.77941
440.4253, 34.90528
440.9074, 35.11117
441.3896, 35.16362
441.8717, 34.99389
442.3538, 34.79069
442.8359, 34.72683
443.3180, 34.78082
443.8001, 34.83971
444.2823, 34.91235
444.7644, 34.92892
445.2465, 34.74139
445.7286, 34.40779
446.2107, 34.21899
446.6928, 34.37935
447.1750, 34.63564
447.6571, 34.71627
448.1392, 34.63381
448.6213, 34.57123
449.1034, 34.64133
449.5855, 34.77996
450.0677, 34.80215
450.5498, 34.66787
451.0319, 34.52760
451.5140, 34.39314
451.9961, 34.28487
452.4782, 34.21729
452.9604, 34.19605
453.4425, 34.25648
453.9246, 34.46717
454.4067, 34.86494
454.8888, 35.00376
455.3709, 34.61522
455.8531, 34.30626
456.3352, 34.37748
456.8173, 34.66135
457.2994, 34.85363
457.7815, 34.81256
458.2636, 34.65074
458.7458, 34.62115
459.2279, 34.86773
459.7100, 34.94010
460.1921, 34.62996
460.6742, 34.32985
461.1564, 34.29395
461.6385, 34.49226
462.1206, 34.72705
462.6027, 34.84963
463.0848, 34.88166
463.5670, 34.93955
464.0491, 35.04533
464.5312, 35.13009
465.0133, 35.12106
465.4954, 35.10490
465.9775, 35.18074
466.4597, 35.37618
466.9418, 35.59991
467.4239, 35.81511
467.9060, 36.00335
468.3881, 36.00462
468.8702, 35.68386
469.3524, 35.39227
469.8345, 35.47393
470.3166, 35.82715
470.7987, 36.18326
471.2808, 36.56733
471.7629, 36.85646
472.2451, 36.86457
472.7272, 36.64872
473.2093, 36.50709
473.6914, 36.57925
474.1735, 36.76296
474.6556, 36.86766
475.1378, 36.88859
475.6199, 36.86565
476.1020, 36.80968
476.5841, 36.70906
477.0662, 36.44693
477.5483, 36.08204
478.0305, 35.94068
478.5126, 36.31778
478.9947, 37.12786
479.4768, 37.60303
479.9589, 37.45382
480.4410, 37.32137
480.9232, 37.27460
481.4053, 37.28936
481.8874, 37.34923
482.3695, 37.44444
482.8516, 37.55479
483.3337, 37.68700
483.8159, 37.86710
484.2980, 37.83573
484.7801, 37.28758
485.2622, 36.87434
485.7443, 36.94063
486.2264, 37.25869
486.7086, 37.44640
487.1907, 37.32522
487.6728, 37.08392
488.1549, 37.00616
488.6370, 37.10430
489.1191, 37.16394
489.6013, 37.11056
490.0834, 37.03495
490.5655, 37.01308
491.0476, 37.04095
491.5297, 37.09132
492.0118, 37.11937
492.4940, 37.18316
492.9761, 37.37531
493.4582, 37.69269
493.9403, 38.04186
494.4224, 38.40808
494.9045, 38.74639
495.3867, 38.93430
495.8688, 38.96376
496.3509, 38.90604
496.8330, 38.62724
497.3151, 38.35443
497.7972, 38.40305
498.2794, 38.76658
498.7615, 39.10622
499.2436, 39.10521
499.7257, 38.79380
500.2078, 38.73283
500.6899, 39.19250
501.1721, 39.57658
501.6542, 39.77442
502.1363, 39.85746
502.6184, 39.89907
503.1005, 39.92272
503.5826, 39.92339
504.0648, 39.89816
504.5469, 39.84898
505.0290, 39.75404
505.5111, 39.57439
505.9932, 39.39573
506.4753, 39.24865
506.9575, 39.12589
507.4396, 39.00965
507.9217, 38.88694
508.4038, 38.79090
508.8859, 38.78656
509.3680, 38.86688
509.8502, 38.90931
510.3323, 38.89376
510.8144, 38.82181
511.2965, 38.66524
511.7787, 38.44244
512.2607, 38.25047
512.7429, 38.09528
513.2250, 37.99482
513.7071, 38.02463
514.1892, 38.13894
514.6713, 38.12513
515.1534, 37.86119
515.6356, 37.49848
516.1177, 37.32734
516.5998, 37.36766
517.0819, 37.58089
517.5640, 38.18652
518.0461, 38.78496
518.5283, 39.03160
519.0104, 39.00965
519.4925, 39.05505
519.9746, 39.39730
520.4567, 39.95080
520.9388, 40.38760
521.4210, 40.59137
521.9031, 40.89745
522.3852, 41.33492
522.8673, 41.88129
523.3494, 42.57619
523.8315, 43.38423
524.3137, 44.16477
524.7958, 44.82979
525.2779, 45.37482
525.7600, 45.71192
526.2421, 45.74590
526.7242, 45.92488
527.2064, 46.46174
527.6885, 47.25501
528.1706, 48.22527
528.6527, 49.40696
529.1348, 50.53083
529.6169, 51.40597
530.0991, 52.15851
530.5812, 53.03192
531.0633, 54.05279
531.5454, 55.01730
532.0275, 55.78794
532.5096, 56.37380
532.9918, 56.81498
533.4739, 57.17919
533.9560, 57.33950
534.4381, 57.19617
534.9202, 56.87513
535.4024, 56.50442
535.8845, 56.11226
536.3666, 55.65403
536.8488, 55.08337
537.3309, 54.39955
537.8130, 53.68633
538.2951, 52.91639
538.7772, 52.14970
539.2593, 51.39545
539.7415, 50.65425
540.2236, 49.94344
540.7057, 49.26626
541.1878, 48.56026
541.6699, 47.63831
542.1520, 46.57802
542.6342, 45.98582
543.1163, 46.08868
543.5984, 46.21181
544.0805, 45.92448
544.5626, 45.35523
545.0447, 44.69798
545.5269, 43.87287
546.0090, 43.16525
546.4911, 42.80774
546.9732, 42.66500
547.4553, 42.48132
547.9374, 42.19954
548.4196, 41.90442
548.9017, 41.68124
549.3838, 41.53157
549.8659, 41.34372
550.3480, 41.11588
550.8301, 40.85881
551.3123, 40.53359
551.7944, 40.20021
552.2765, 39.93459
552.7586, 39.75502
553.2407, 39.61890
553.7228, 39.49067
554.2050, 39.37421
554.6871, 39.17858
555.1692, 38.74942
555.6513, 38.46760
556.1334, 38.62911
556.6155, 38.93573
557.0977, 38.97445
557.5798, 38.61073
558.0619, 38.17133
558.5440, 37.90696
559.0261, 37.80634
559.5082, 37.86705
559.9904, 38.13143
560.4725, 38.36641
560.9546, 38.38497
561.4367, 38.21494
561.9188, 38.04685
562.4009, 37.78966
562.8831, 37.65165
563.3652, 37.85849
563.8473, 38.16997
564.3294, 38.22019
564.8115, 37.94830
565.2936, 37.59251
565.7758, 37.38053
566.2579, 37.31199
566.7400, 37.31873
567.2221, 37.53161
567.7042, 37.66156
568.1863, 37.62380
568.6685, 37.50092
569.1506, 37.33712
569.6327, 37.15896
570.1148, 37.05377
570.5969, 37.20872
571.0790, 37.54936
571.5612, 37.55243
572.0433, 37.08599
572.5254, 36.64151
573.0075, 36.44006
573.4896, 36.43125
573.9717, 36.57636
574.4539, 36.93879
574.9360, 37.21849
575.4181, 37.19528
575.9002, 37.04118
576.3823, 37.00809
576.8644, 37.11612
577.3466, 37.21395
577.8287, 37.17773
578.3108, 37.05597
578.7929, 37.08816
579.2750, 37.54000
579.7571, 37.79591
580.2393, 37.64650
580.7214, 37.42075
581.2035, 37.40120
581.6856, 37.57502
582.1677, 37.72108
582.6498, 37.65350
583.1320, 37.45232
583.6141, 37.42575
584.0962, 37.65644
584.5783, 37.77335
585.0604, 37.54836
585.5425, 37.26839
586.0247, 37.19543
586.5068, 37.32067
586.9889, 37.43147
587.4710, 37.43391
587.9531, 37.37556
588.4352, 37.26212
588.9174, 37.11992
589.3995, 37.11510
589.8816, 37.35506
590.3637, 37.66003
590.8458, 37.69755
591.3279, 37.29574
591.8101, 37.11906
592.2922, 37.30229
592.7743, 37.57215
593.2564, 37.84075
593.7385, 38.07659
594.2206, 38.24642
594.7028, 38.33404
595.1849, 38.36330
595.6670, 38.36011
596.1491, 38.31598
596.6312, 38.30277
597.1133, 38.33513
597.5955, 38.38766
598.0776, 38.45568
598.5597, 38.53051
599.0418, 38.58875
599.5239, 38.60415
600.0060, 38.64921
600.4882, 38.80962
600.9703, 39.04067
601.4524, 39.24599
601.9345, 39.40837
602.4166, 39.50930
602.8987, 39.51801
603.3809, 39.44249
603.8630, 39.40284
604.3451, 39.33570
604.8272, 39.37871
605.3093, 39.66127
605.7914, 40.00120
606.2736, 40.21095
606.7557, 40.27612
607.2378, 40.32808
607.7199, 40.50238
608.2020, 40.74693
608.6841, 40.77523
609.1663, 40.49636
609.6484, 40.26323
610.1305, 40.17383
610.6126, 40.18235
611.0947, 40.28709
611.5768, 40.47903
612.0590, 40.62961
612.5411, 40.65765
613.0232, 40.63648
613.5053, 40.64066
613.9874, 40.66954
614.4695, 40.69744
614.9517, 40.70677
615.4338, 40.74617
615.9159, 40.91964
616.3980, 41.33132
616.8801, 41.50488
617.3622, 41.22338
617.8444, 40.96320
618.3265, 40.92242
618.8086, 41.03759
619.2907, 41.22238
619.7728, 41.44201
620.2549, 41.62006
620.7371, 41.60313
621.2192, 41.40445
621.7013, 41.39495
622.1834, 41.67694
622.6655, 41.95428
623.1476, 41.97276
623.6298, 41.90416
624.1119, 42.07011
624.5940, 42.61689
625.0761, 43.03294
625.5582, 42.96444
626.0403, 42.70094
626.5225, 42.60858
627.0046, 42.70493
627.4867, 42.80313
627.9688, 42.77575
628.4509, 42.68159
628.9330, 42.71315
629.4152, 42.91236
629.8973, 43.16780
630.3794, 43.59894
630.8615, 43.96619
631.3436, 44.07343
631.8257, 44.00852
632.3079, 43.99660
632.7900, 44.13725
633.2721, 44.40329
633.7542, 44.85438
634.2364, 45.44943
634.7185, 45.77009
635.2006, 45.67805
635.6827, 45.46877
636.1649, 45.36351
636.6470, 45.36279
637.1291, 45.42134
637.6112, 45.65022
638.0933, 45.80243
638.5754, 45.71340
639.0576, 45.55138
639.5397, 45.49311
640.0218, 45.57080
640.5039, 45.74705
640.9860, 46.01205
641.4681, 46.33159
641.9503, 46.53406
642.4324, 46.57177
642.9145, 46.61044
643.3966, 46.63874
643.8787, 46.71785
644.3608, 46.95989
644.8430, 47.31491
645.3251, 47.53875
645.8072, 47.43031
646.2893, 47.23796
646.7714, 47.23580
647.2535, 47.36329
647.7357, 47.40702
648.2178, 47.29958
648.6999, 47.17236
649.1820, 47.17501
649.6641, 47.31455
650.1462, 47.44587
650.6284, 47.61160
651.1105, 47.71801
651.5926, 47.66961
652.0747, 47.59938
652.5568, 47.63287
653.0389, 47.78970
653.5211, 48.01985
654.0032, 48.30587
654.4853, 48.62474
654.9674, 48.92030
655.4495, 49.19381
655.9316, 49.41508
656.4138, 49.54175
656.8959, 49.64988
657.3780, 49.85703
657.8601, 50.15871
658.3422, 50.41840
658.8243, 50.53936
659.3065, 50.69420
659.7886, 50.89437
660.2707, 51.21928
660.7528, 51.88997
661.2349, 52.92685
661.7170, 53.96719
662.1992, 54.57975
662.6813, 54.78297
663.1634, 54.99973
663.6455, 55.17608
664.1276, 55.47766
664.6097, 56.03509
665.0919, 56.69233
665.5740, 57.36353
666.0561, 58.03485
666.5382, 58.58531
667.0203, 58.79837
667.5024, 58.98480
667.9846, 59.56054
668.4667, 60.40831
668.9488, 61.07442
669.4309, 61.38001
669.9130, 61.62050
670.3951, 62.23099
670.8773, 63.29808
671.3594, 64.03067
671.8415, 63.95442
672.3236, 64.10301
672.8057, 64.90696
673.2878, 65.91968
673.7700, 66.65175
674.2521, 67.03407
674.7342, 67.38863
675.2163, 68.05470
675.6984, 68.82224
676.1805, 69.19199
676.6627, 69.18088
677.1448, 69.26256
677.6269, 69.64675
678.1090, 70.12252
678.5911, 70.42085
679.0732, 70.53310
679.5554, 70.45791
680.0375, 70.11519
680.5196, 69.68237
681.0017, 69.14832
681.4838, 68.60061
681.9659, 68.17329
682.4481, 67.88094
682.9302, 67.58737
683.4123, 67.21635
683.8944, 66.73203
684.3765, 65.89838
684.8586, 64.63873
685.3408, 63.50292
685.8229, 62.67651
686.3050, 62.05822
686.7871, 61.63992
687.2692, 61.41682
687.7513, 60.88675
688.2335, 59.78904
688.7156, 58.56422
689.1977, 57.31635
689.6798, 56.15104
690.1619, 55.25438
690.6440, 54.64407
691.1262, 54.09151
691.6083, 53.35941
692.0904, 52.48281
692.5725, 51.72033
693.0546, 51.12172
693.5367, 50.50130
694.0189, 49.78898
694.5010, 49.05078
694.9831, 48.30430
695.4652, 47.56914
695.9473, 46.97640
696.4294, 46.70658
696.9116, 46.44952
697.3937, 45.94218
697.8758, 45.31035
698.3579, 44.81470
698.8400, 44.50297
699.3221, 44.17343
699.8043, 43.60730
700.2864, 42.86402
700.7685, 42.41212
701.2506, 42.37508
701.7327, 42.36668
702.2148, 42.45733
702.6970, 42.43410
703.1791, 42.01110
703.6612, 41.32107
704.1433, 40.89145
704.6254, 41.11342
705.1075, 41.40151
705.5897, 41.19620
706.0718, 40.72352
706.5539, 40.50786
707.0360, 40.62897
707.5181, 40.69836
708.0002, 40.37320
708.4824, 39.75802
708.9645, 39.38676
709.4466, 39.41050
709.9287, 39.38931
710.4108, 39.21663
710.8929, 39.05481
711.3751, 39.03163
711.8572, 39.09046
712.3393, 39.08130
712.8214, 38.94313
713.3035, 38.74217
713.7856, 38.47122
714.2678, 38.19548
714.7499, 38.06976
715.2320, 38.10891
715.7141, 38.20512
716.1962, 38.31217
716.6783, 38.37770
717.1605, 38.22987
717.6426, 37.70103
718.1247, 37.28716
718.6068, 36.96129
719.0889, 36.77322
719.5710, 36.81919
720.0532, 36.99690
720.5353, 37.15865
721.0174, 37.26911
721.4995, 37.28118
721.9816, 37.09082
722.4637, 36.79780
722.9459, 36.60693
723.4280, 36.52417
723.9101, 36.42226
724.3922, 36.21905
724.8743, 36.02497
725.3564, 36.06949
725.8386, 36.46862
726.3207, 36.68739
726.8028, 36.64976
727.2849, 36.52636
727.7670, 36.27206
728.2491, 36.00962
728.7313, 35.91230
729.2134, 36.00132
729.6955, 36.07358
730.1776, 35.94014
730.6597, 35.72743
731.1418, 35.66543
731.6240, 35.72274
732.1061, 35.68018
732.5882, 35.44952
733.0704, 35.18852
733.5525, 35.09164
734.0346, 35.16615
734.5167, 35.23213
734.9988, 35.29104
735.4810, 35.33910
735.9631, 35.40254
736.4452, 35.43488
736.9273, 35.35754
737.4094, 35.20022
737.8915, 35.11094
738.3737, 35.19854
738.8558, 35.34403
739.3379, 35.44798
739.8200, 35.50075
740.3021, 35.45650
740.7842, 35.30681
741.2664, 35.13637
741.7485, 35.00738
742.2306, 34.91752
742.7127, 34.85775
743.1948, 34.83923
743.6769, 34.83099
744.1591, 34.89764
744.6412, 34.90845
745.1233, 34.69870
745.6054, 34.39945
746.0875, 34.30662
746.5696, 34.56149
747.0518, 34.82225
747.5339, 34.78540
748.0160, 34.59850
748.4981, 34.51414
748.9802, 34.53938
749.4623, 34.54247
749.9445, 34.44711
750.4266, 34.34749
750.9087, 34.43300
751.3908, 34.76085
751.8729, 35.00453
752.3550, 35.17176
752.8372, 35.24145
753.3193, 35.16654
753.8014, 35.02182
754.2835, 34.89804
754.7656, 34.80311
755.2477, 34.65328
755.7299, 34.27346
756.2120, 33.93521
756.6941, 33.97197
757.1762, 34.24780
757.6583, 34.42960
758.1404, 34.42649
758.6226, 34.34493
759.1047, 34.27230
759.5868, 34.22279
760.0689, 34.31753
760.5510, 34.65113
761.0331, 34.87484
761.5153, 34.87336
761.9974, 34.79224
762.4795, 34.73407
762.9616, 34.68528
763.4437, 34.59350
763.9258, 34.39929
764.4080, 34.24786
764.8901, 34.27333
765.3722, 34.33800
765.8543, 34.23247
766.3364, 34.00138
766.8185, 33.89089
767.3007, 34.04098
767.7828, 34.29655
768.2649, 34.36940
768.7470, 34.24998
769.2291, 34.19503
769.7112, 34.22058
770.1934, 34.30107
770.6755, 34.50746
771.1576, 34.70659
771.6397, 34.62310
772.1218, 34.19462
772.6039, 33.94728
773.0861, 34.07708
773.5682, 34.28724
774.0503, 34.49766
774.5324, 34.65557
775.0145, 34.69008
775.4966, 34.59475
775.9788, 34.42534
776.4609, 34.17658
776.9430, 33.93533
777.4251, 33.97323
777.9072, 34.28078
778.3893, 34.42190
778.8715, 34.24701
779.3536, 34.08102
779.8357, 34.25517
780.3178, 34.69293
780.7999, 34.86801
781.2820, 34.49676
781.7642, 34.27803
782.2463, 34.36934
782.7284, 34.50535
783.2105, 34.55500
783.6926, 34.51260
784.1747, 34.37037
784.6569, 34.10857
785.1390, 33.89480
785.6211, 33.93397
786.1032, 34.10313
786.5853, 34.17223
787.0674, 34.13408
787.5496, 34.02680
788.0317, 33.85492
788.5138, 33.72031
788.9959, 33.78841
789.4780, 34.08091
789.9601, 34.26388
790.4423, 34.26283
790.9244, 34.27184
791.4065, 34.43732
791.8886, 34.55275
792.3707, 34.35337
792.8528, 33.91439
793.3350, 33.68373
793.8171, 33.91884
794.2992, 34.24775
794.7813, 34.52045
795.2634, 34.70560
795.7455, 34.73765
796.2277, 34.63030
796.7098, 34.46704
797.1919, 34.29470
797.6740, 34.11734
798.1561, 33.87816
798.6382, 33.56261
799.1204, 33.64714
799.6025, 34.34595
800.0846, 34.89686
800.5667, 34.85362
801.0488, 34.48907
801.5309, 34.27345
802.0131, 34.20950
802.4952, 34.22014
802.9773, 34.44516
803.4594, 34.57433
803.9415, 34.39304
804.4236, 34.08959
804.9058, 33.86846
805.3879, 33.77127
805.8700, 33.76181
806.3521, 33.84562
806.8342, 33.96151
807.3163, 34.00988
807.7985, 34.00724
808.2806, 34.02537
808.7627, 34.07791
809.2448, 34.12499
809.7269, 34.13307
810.2090, 34.12401
810.6912, 34.17323
811.1733, 34.34700
811.6554, 34.41961
812.1375, 34.21038
812.6196, 34.10965
813.1017, 34.40839
813.5839, 34.82892
814.0660, 34.98333
814.5481, 34.81297
815.0302, 34.61430
815.5123, 34.46489
815.9944, 34.38048
816.4766, 34.39374
816.9587, 34.47427
817.4408, 34.60177
817.9229, 34.75178
818.4050, 34.82328
818.8871, 34.71183
819.3693, 34.50021
819.8514, 34.41952
820.3335, 34.47605
820.8156, 34.51899
821.2977, 34.52489
821.7798, 34.51394
822.2620, 34.48627
822.7441, 34.45786
823.2262, 34.48331
823.7083, 34.62549
824.1904, 34.67472
824.6725, 34.49277
825.1547, 34.36329
825.6368, 34.46458
826.1189, 34.67030
826.6010, 34.83545
827.0831, 34.92287
827.5652, 34.91469
828.0474, 34.71120
828.5295, 34.47527
829.0116, 34.39771
829.4937, 34.44612
829.9758, 34.57486
830.4579, 34.76065
830.9401, 34.87813
831.4222, 34.81961
831.9044, 34.65221
832.3865, 34.58213
832.8686, 34.63293
833.3507, 34.66429
833.8328, 34.65603
834.3149, 34.64586
834.7971, 34.66052
835.2792, 34.68271
835.7613, 34.67324
836.2434, 34.61913
836.7255, 34.60612
837.2076, 34.68745
837.6898, 34.76805
838.1719, 34.80024
838.6540, 34.80661
839.1361, 34.84968
839.6182, 34.91255
840.1003, 34.85559
840.5825, 34.50626
841.0646, 34.13883
841.5467, 34.22490
842.0288, 34.60363
842.5109, 34.72445
842.9930, 34.52248
843.4752, 34.31397
843.9573, 34.28823
844.4394, 34.39019
844.9215, 34.52480
845.4036, 34.72515
845.8857, 34.77803
846.3679, 34.56929
846.8500, 34.41682
847.3321, 34.52927
847.8142, 34.68738
848.2963, 34.59535
848.7784, 34.27253
849.2606, 34.15382
849.7427, 34.53749
850.2248, 34.86954
850.7069, 34.91827
851.1890, 34.82068
851.6711, 34.66872
852.1533, 34.50426
852.6354, 34.39245
853.1175, 34.37321
853.5996, 34.35332
854.0817, 34.19659
854.5638, 33.96183
855.0460, 33.78926
855.5281, 33.68973
856.0102, 33.69090
856.4923, 33.80994
856.9744, 33.97499
857.4565, 34.08899
857.9387, 34.15615
858.4208, 34.30617
858.9029, 34.64176
859.3850, 34.80510
859.8671, 34.60450
860.3492, 34.34507
860.8314, 34.23462
861.3135, 34.24175
861.7956, 34.29093
862.2777, 34.40623
862.7598, 34.49113
863.2419, 34.55290
863.7241, 34.54511
864.2062, 34.35971
864.6883, 34.11164
865.1704, 34.00933
865.6525, 34.09352
866.1346, 34.18188
866.6168, 34.09225
867.0989, 33.95235
867.5810, 33.99557
868.0631, 34.16318
868.5452, 34.23634
869.0273, 34.17701
869.5095, 34.13525
869.9916, 34.22968
870.4737, 34.38732
870.9558, 34.41893
871.4379, 34.31065
871.9200, 34.13941
872.4022, 33.85099
872.8843, 33.62270
873.3664, 33.51204
873.8485, 33.51807
874.3306, 33.70768
874.8127, 34.09472
875.2949, 34.29133
875.7770, 34.06586
876.2591, 33.91456
876.7412, 34.08050
877.2233, 34.29775
877.7054, 34.31458
878.1876, 34.17368
878.6697, 34.06986
879.1518, 34.09151
879.6339, 34.11109
880.1160, 34.01323
880.5981, 33.86065
881.0803, 33.70234
881.5624, 33.56847
882.0445, 33.54140
882.5266, 33.64526
883.0087, 33.80906
883.4908, 33.97636
883.9730, 34.12882
884.4551, 34.18855
884.9372, 34.15285
885.4193, 34.05191
885.9014, 33.86674
886.3835, 33.69849
886.8657, 33.59934
887.3478, 33.58332
887.8299, 33.70722
888.3120, 34.09291
888.7941, 34.28978
889.2762, 34.15808
889.7584, 34.00944
890.2405, 33.93669
890.7226, 33.89128
891.2047, 33.79319
891.6868, 33.65601
892.1689, 33.61947
892.6511, 33.84394
893.1332, 34.02525
893.6153, 33.99231
894.0974, 33.85166
894.5795, 33.69017
895.0616, 33.52774
895.5438, 33.35178
896.0259, 33.15602
896.5080, 33.04319
896.9901, 33.17836
897.4722, 33.45818
897.9543, 33.69035
898.4365, 33.85347
898.9186, 33.78247
899.4007, 33.42875
899.8828, 33.18983
900.3649, 33.46334
900.8470, 34.04320
901.3292, 34.12735
901.8113, 33.56770
902.2934, 33.25465
902.7755, 33.32534
903.2576, 33.49071
903.7397, 33.66485
904.2219, 33.80639
904.7040, 33.83262
905.1861, 33.72401
905.6682, 33.64859
906.1503, 33.60520
906.6324, 33.60074
907.1146, 33.67736
907.5967, 33.75963
908.0788, 33.78279
908.5609, 33.75933
909.0430, 33.74900
909.5251, 33.79018
910.0073, 33.76568
910.4894, 33.48149
910.9715, 33.20367
911.4536, 33.23495
911.9357, 33.47328
912.4178, 33.71016
912.9000, 33.87814
913.3821, 33.97398
913.8642, 34.00172
914.3463, 33.94527
914.8284, 33.71473
915.3105, 33.36437
915.7927, 33.13958
916.2748, 33.07388
916.7569, 33.08043
917.2390, 33.10765
917.7211, 33.21371
918.2032, 33.55935
918.6854, 34.16666
919.1675, 34.31849
919.6496, 33.84994
920.1317, 33.43446
920.6138, 33.25819
921.0959, 33.16121
921.5781, 32.98342
922.0602, 32.76401
922.5423, 32.69866
923.0244, 32.83136
923.5065, 33.02749
923.9886, 33.48363
924.4708, 33.77362
924.9529, 33.57864
925.4350, 33.18647
925.9171, 32.94164
926.3992, 32.88463
926.8813, 32.88399
927.3635, 32.86481
927.8456, 32.91679
928.3277, 33.18826
928.8098, 33.48888
929.2919, 33.61357
929.7740, 33.57162
930.2562, 33.42186
930.7383, 33.18934
931.2205, 33.03016
931.7026, 33.18656
932.1847, 33.47393
932.6668, 33.53112
933.1489, 33.40927
933.6310, 33.31732
934.1132, 33.30051
934.5953, 33.26829
935.0774, 33.14756
935.5595, 32.98883
936.0416, 32.90770
936.5237, 32.90416
937.0059, 32.94650
937.4880, 33.03915
937.9701, 33.14798
938.4522, 33.26970
938.9343, 33.37679
939.4164, 33.42821
939.8986, 33.42963
940.3807, 33.48928
940.8628, 33.71788
941.3449, 33.78242
941.8270, 33.49833
942.3091, 33.22491
942.7913, 33.20125
943.2734, 33.28752
943.7555, 33.22718
944.2376, 32.97190
944.7197, 32.88003
945.2018, 33.17340
945.6840, 33.43493
946.1661, 33.47870
946.6482, 33.44502
947.1303, 33.47605
947.6124, 33.54781
948.0945, 33.53859
948.5767, 33.38876
949.0588, 33.24938
949.5409, 33.20966
950.0230, 33.22820
950.5051, 33.35173
950.9872, 33.47023
951.4694, 33.30069
951.9515, 32.85677
952.4336, 32.57484
952.9157, 32.82175
953.3978, 33.18367
953.8799, 32.93133
954.3621, 32.34640
954.8442, 32.23171
955.3263, 32.59024
955.8084, 32.99288
956.2905, 33.26957
956.7726, 33.39723
957.2548, 33.30653
957.7369, 33.07954
958.2190, 33.14366
958.7011, 33.52473
959.1832, 33.59772
959.6653, 33.19316
960.1475, 32.88475
960.6296, 33.04699
961.1117, 33.42195
961.5938, 33.52885
962.0759, 33.33390
962.5580, 33.19450
963.0402, 33.09478
963.5223, 33.08977
964.0044, 33.25756
964.4865, 33.44429
964.9686, 33.55147
965.4507, 33.58303
965.9329, 33.54060
966.4150, 33.35390
966.8971, 33.28357
967.3792, 33.50371
967.8613, 33.65123
968.3434, 33.48433
968.8256, 33.26303
969.3077, 33.28644
969.7898, 33.51361
970.2719, 33.65150
970.7540, 33.58369
971.2361, 33.49897
971.7183, 33.47666
972.2004, 33.46662
972.6825, 33.47816
973.1646, 33.45318
973.6467, 33.24143
974.1288, 32.85967
974.6110, 32.60940
975.0931, 32.72636
975.5752, 32.94490
976.0573, 33.01080
976.5394, 33.02537
977.0215, 33.21058
977.5037, 33.48652
977.9858, 33.52713
978.4679, 33.22929
978.9500, 32.87455
979.4321, 32.72253
979.9142, 32.71313
980.3964, 32.73839
980.8785, 32.80284
981.3606, 32.94901
981.8427, 33.17070
982.3248, 33.36003
982.8069, 33.46078
983.2891, 33.48033
983.7712, 33.39557
984.2533, 33.23523
984.7354, 33.24795
985.2175, 33.44212
985.6996, 33.48023
986.1818, 33.26080
986.6639, 33.07663
987.1460, 33.14515
987.6281, 33.36066
988.1102, 33.48558
988.5923, 33.50801
989.0745, 33.54025
989.5566, 33.61344
990.0387, 33.58806
990.5208, 33.34336
991.0029, 33.14014
991.4850, 33.27741
991.9672, 33.62403
992.4493, 33.64638
992.9314, 33.05114
993.4135, 32.84199
993.8956, 33.39386
994.3777, 33.82827
994.8599, 33.74525
995.3420, 33.52267
995.8241, 33.55596
996.3062, 33.78326
996.7883, 33.80802
997.2704, 33.37721
997.7526, 33.14036
998.2347, 33.32888
998.7168, 33.56720
999.1989, 33.73429
999.6810, 33.80505
1000.163, 33.72546
1000.645, 33.51426
1001.127, 33.32971
1001.609, 33.21870
1002.092, 33.14148
1002.574, 33.08797
1003.056, 33.05632
1003.538, 33.00760
1004.020, 32.99688
1004.502, 33.18217
1004.984, 33.55253
1005.466, 33.76344
1005.949, 33.50060
1006.431, 33.20520
1006.913, 33.20278
1007.395, 33.34471
1007.877, 33.52628
1008.359, 33.68599
1008.841, 33.71444
1009.323, 33.58861
1009.805, 33.43210
1010.288, 33.30008
1010.770, 33.23617
1011.252, 33.37940
1011.734, 33.59069
1012.216, 33.56393
1012.698, 33.34411
1013.180, 33.23609
1013.662, 33.36018
1014.145, 33.51772
1014.627, 33.47221
1015.109, 33.35226
1015.591, 33.49041
1016.073, 33.77031
1016.555, 33.76125
1017.037, 33.44886
1017.519, 33.16954
1018.001, 33.09209
1018.484, 33.15488
1018.966, 33.34402
1019.448, 33.57827
1019.930, 33.46806
1020.412, 33.07337
1020.894, 32.99403
1021.376, 33.32824
1021.858, 33.66846
1022.341, 33.78767
1022.823, 33.73978
1023.305, 33.57288
1023.787, 33.31028
1024.269, 33.19118
1024.751, 33.22226
1025.233, 33.25830
1025.715, 33.26741
1026.198, 33.31880
1026.680, 33.47644
1027.162, 33.64163
1027.644, 33.59708
1028.126, 33.33412
1028.608, 33.30142
1029.090, 33.57514
1029.572, 33.70088
1030.054, 33.53750
1030.536, 33.33466
1031.019, 33.24145
1031.501, 33.25325
1031.983, 33.38615
1032.465, 33.67729
1032.947, 33.77044
1033.429, 33.55106
1033.911, 33.44386
1034.393, 33.61456
1034.876, 33.78089
1035.358, 33.69985
1035.840, 33.50094
1036.322, 33.50351
1036.804, 33.76124
1037.286, 33.96544
1037.768, 34.12811
1038.250, 34.21474
1038.733, 34.20542
1039.215, 34.13057
1039.697, 33.94923
1040.179, 33.73673
1040.661, 33.70185
1041.143, 33.91571
1041.625, 34.04277
1042.107, 34.02043
1042.589, 33.99754
1043.072, 34.12644
1043.554, 34.14738
1044.036, 33.63514
1044.518, 32.92599
1045.000, 32.92107
1045.482, 33.92619
1045.964, 34.50831
1046.446, 34.18847
1046.928, 33.95317
1047.411, 34.27827
1047.893, 34.56364
1048.375, 34.14214
1048.857, 33.38500
1049.339, 33.27369
1049.821, 34.08178
1050.303, 34.58461
1050.785, 34.34294
1051.268, 34.10425
1051.750, 34.12189
1052.232, 34.21659
1052.714, 34.30706
1053.196, 34.34394
1053.678, 34.20308
1054.160, 33.82208
1054.642, 33.57832
1055.125, 33.63742
1055.607, 33.74570
1056.089, 33.87942
1056.571, 33.96249
1057.053, 33.82747
1057.535, 33.62640
1058.017, 33.74492
1058.499, 34.29673
1058.981, 34.64217
1059.464, 34.43728
1059.946, 34.18383
1060.428, 34.08035
1060.910, 34.01710
1061.392, 33.87710
1061.874, 33.70700
1062.356, 33.61732
1062.838, 33.63131
1063.320, 33.67495
1063.803, 33.68852
1064.285, 33.76910
1064.767, 34.06166
1065.249, 34.34700
1065.731, 34.39161
1066.213, 34.30090
1066.695, 34.33449
1067.177, 34.53912
1067.660, 34.62439
1068.142, 34.30809
1068.624, 34.06391
1069.106, 34.25219
1069.588, 34.47576
1070.070, 34.27715
1070.552, 33.91534
1071.034, 33.95704
1071.516, 34.47715
1071.999, 34.88414
1072.481, 34.95768
1072.963, 34.83074
1073.445, 34.35711
1073.927, 33.90548
1074.409, 33.75719
1074.891, 33.85642
1075.373, 34.17373
1075.855, 34.65015
1076.338, 34.92048
1076.820, 34.74022
1077.302, 34.48893
1077.784, 34.32576
1078.266, 34.18709
1078.748, 33.95934
1079.230, 33.75697
1079.713, 33.79060
1080.195, 34.05243
1080.677, 34.30475
1081.159, 34.46212
1081.641, 34.58570
1082.123, 34.76340
1082.605, 34.85362
1083.087, 34.62726
1083.569, 34.32610
1084.052, 34.33931
1084.534, 34.62238
1085.016, 34.72594
1085.498, 34.40997
1085.980, 34.16365
1086.462, 34.32397
1086.944, 34.48804
1087.426, 34.28941
1087.908, 34.01814
1088.391, 34.07459
1088.873, 34.39855
1089.355, 34.65580
1089.837, 34.77248
1090.319, 34.72516
1090.801, 34.28967
1091.283, 33.94457
1091.765, 34.06469
1092.248, 34.32238
1092.730, 34.36217
1093.212, 34.24356
1093.694, 34.22742
1094.176, 34.39035
1094.658, 34.51515
1095.140, 34.53330
1095.622, 34.48557
1096.104, 34.28412
1096.587, 34.11928
1097.069, 34.16978
1097.551, 34.37840
1098.033, 34.64423
1098.515, 34.95537
1098.997, 35.13291
1099.479, 35.03808
1099.961, 34.92122
1100.443, 34.86530
1100.926, 34.81815
1101.408, 34.76029
1101.890, 34.67759
1102.372, 34.48851
1102.854, 34.20448
1103.336, 34.16021
1103.818, 34.73977
1104.300, 35.10844
1104.783, 34.94630
1105.265, 34.68515
1105.747, 34.45016
1106.229, 34.31952
1106.711, 34.46228
1107.193, 34.82311
1107.675, 34.96675
1108.157, 34.65745
1108.640, 34.48112
1109.122, 34.64738
1109.604, 34.78902
1110.086, 34.71062
1110.568, 34.58463
1111.050, 34.57750
1111.532, 34.66722
1112.014, 34.75843
1112.496, 34.87788
1112.979, 34.91372
1113.461, 34.80471
1113.943, 34.68933
1114.425, 34.57461
1114.907, 34.49073
1115.389, 34.48205
1115.871, 34.51220
1116.353, 34.48946
1116.835, 34.39274
1117.318, 34.37379
1117.800, 34.52971
1118.282, 34.57981
1118.764, 34.40313
1119.246, 34.23369
1119.728, 34.20084
1120.210, 34.24913
1120.692, 34.29297
1121.175, 34.33372
1121.657, 34.43383
1122.139, 34.62728
1122.621, 34.79614
1123.103, 34.96082
1123.585, 35.01154
1124.067, 34.83331
1124.549, 34.65908
1125.031, 34.77908
1125.514, 35.10804
1125.996, 35.22648
1126.478, 35.07748
1126.960, 35.04442
1127.442, 35.18339
1127.924, 35.19921
1128.406, 34.95861
1128.888, 34.76228
1129.370, 34.87424
1129.853, 35.13990
1130.335, 35.17967
1130.817, 34.99446
1131.299, 34.93920
1131.781, 35.02020
1132.263, 35.10176
1132.745, 35.16011
1133.227, 35.16314
1133.710, 35.08682
1134.192, 34.98738
1134.674, 34.92947
1135.156, 34.92786
1135.638, 35.11056
1136.120, 35.43237
1136.602, 35.51606
1137.084, 35.33726
1137.567, 35.11211
1138.049, 34.92881
1138.531, 34.82501
1139.013, 34.84315
1139.495, 34.94709
1139.977, 35.10294
1140.459, 35.27658
1140.941, 35.36175
1141.423, 35.37314
1141.906, 35.40041
1142.388, 35.45780
1142.870, 35.45847
1143.352, 35.33325
1143.834, 35.23320
1144.316, 35.41908
1144.798, 35.68216
1145.280, 35.72296
1145.762, 35.58694
1146.245, 35.27991
1146.727, 34.90668
1147.209, 34.78022
1147.691, 35.01976
1148.173, 35.33519
1148.655, 35.61440
1149.137, 35.75703
1149.619, 35.50116
1150.102, 35.19950
1150.584, 35.36440
1151.066, 35.77454
1151.548, 35.88756
1152.030, 35.63356
1152.512, 35.44548
1152.994, 35.59559
1153.476, 35.67495
1153.958, 35.31952
1154.441, 35.00809
1154.923, 35.13225
1155.405, 35.43489
1155.887, 35.61263
1156.369, 35.66404
1156.851, 35.72005
1157.333, 35.81973
1157.815, 35.86909
1158.297, 35.81408
1158.780, 35.75207
1159.262, 35.71863
1159.744, 35.68440
1160.226, 35.56715
1160.708, 35.45897
1161.190, 35.56128
1161.672, 35.89326
1162.154, 36.14811
1162.637, 36.35528
1163.119, 36.42440
1163.601, 36.28230
1164.083, 36.11506
1164.565, 35.97823
1165.047, 35.87695
1165.529, 35.82262
1166.011, 35.80493
1166.494, 35.78209
1166.976, 35.75077
1167.458, 35.72430
1167.940, 35.69307
1168.422, 35.73567
1168.904, 35.89703
1169.386, 35.97993
1169.868, 35.83171
1170.350, 35.61707
1170.833, 35.61612
1171.315, 35.79204
1171.797, 35.95087
1172.279, 36.08866
1172.761, 36.13532
1173.243, 36.09544
1173.725, 36.14610
1174.207, 36.35202
1174.689, 36.52702
1175.172, 36.48271
1175.654, 36.36660
1176.136, 36.47902
1176.618, 36.69206
1177.100, 36.67952
1177.582, 36.51398
1178.064, 36.46558
1178.547, 36.55025
1179.029, 36.53600
1179.511, 36.30127
1179.993, 36.07877
1180.475, 36.11233
1180.957, 36.20593
1181.439, 36.16378
1181.921, 36.06768
1182.403, 35.97194
1182.885, 35.92936
1183.368, 36.10403
1183.850, 36.48510
1184.332, 36.62243
1184.814, 36.15542
1185.296, 35.73540
1185.778, 35.61871
1186.260, 35.63890
1186.742, 35.78318
1187.225, 35.94386
1187.707, 35.99120
1188.189, 35.95946
1188.671, 36.00650
1189.153, 36.19896
1189.635, 36.26842
1190.117, 36.10067
1190.599, 35.95691
1191.082, 35.88079
1191.564, 35.82771
1192.046, 35.75464
1192.528, 35.71884
1193.010, 35.83698
1193.492, 36.06965
1193.974, 36.04031
1194.456, 35.64458
1194.938, 35.58664
1195.421, 35.98024
1195.903, 36.21947
1196.385, 36.10469
1196.867, 35.92395
1197.349, 35.88546
1197.831, 35.93628
1198.313, 35.97372
1198.795, 36.01598
1199.277, 36.17755
1199.760, 36.43015
1200.242, 36.66281
1200.724, 36.83598
1201.206, 36.79724
1201.688, 36.50513
1202.170, 36.17448
1202.652, 35.95377
1203.134, 35.85643
1203.617, 35.95665
1204.099, 36.14577
1204.581, 36.35376
1205.063, 36.48933
1205.545, 36.31799
1206.027, 35.92350
1206.509, 35.69169
1206.991, 35.76746
1207.474, 35.93513
1207.956, 36.18218
1208.438, 36.35823
1208.920, 36.40730
1209.402, 36.33239
1209.884, 36.05270
1210.366, 35.69884
1210.848, 35.43392
1211.330, 35.27731
1211.813, 35.25990
1212.295, 35.48919
1212.777, 35.64660
1213.259, 35.62198
1213.741, 35.70543
1214.223, 36.11995
1214.705, 36.41322
1215.187, 36.20605
1215.669, 35.76868
1216.152, 35.61207
1216.634, 35.71183
1217.116, 35.61893
1217.598, 35.30125
1218.080, 35.22461
1218.562, 35.44572
1219.044, 35.66790
1219.526, 35.78857
1220.009, 35.88647
1220.491, 36.03695
1220.973, 36.14742
1221.455, 35.96177
1221.937, 35.65384
1222.419, 35.75796
1222.901, 36.09584
1223.383, 36.15984
1223.865, 35.94636
1224.348, 35.73405
1224.830, 35.61994
1225.312, 35.50206
1225.794, 35.20697
1226.276, 35.08146
1226.758, 35.58323
1227.240, 36.17423
1227.722, 36.46070
1228.204, 36.47863
1228.687, 36.17086
1229.169, 35.68653
1229.651, 35.46437
1230.133, 35.63086
1230.615, 35.79177
1231.097, 35.91276
1231.579, 35.97028
1232.061, 35.86604
1232.544, 35.82090
1233.026, 35.99126
1233.508, 36.20447
1233.990, 36.26851
1234.472, 36.21181
1234.954, 36.13358
1235.436, 36.01249
1235.918, 36.06001
1236.401, 36.30794
1236.883, 36.35669
1237.365, 36.11600
1237.847, 35.85677
1238.329, 35.71807
1238.811, 35.70749
1239.293, 35.88481
1239.775, 36.10424
1240.257, 36.01807
1240.740, 35.75764
1241.222, 35.56987
1241.704, 35.49674
1242.186, 35.66399
1242.668, 36.01046
1243.150, 36.18040
1243.632, 36.00471
1244.114, 35.84892
1244.596, 35.98053
1245.079, 36.17848
1245.561, 36.37693
1246.043, 36.50777
1246.525, 36.54138
1247.007, 36.45467
1247.489, 36.13049
1247.971, 35.62793
1248.453, 35.35732
1248.936, 35.41140
1249.418, 35.59027
1249.900, 36.07130
1250.382, 36.31588
1250.864, 36.13238
1251.346, 35.86409
1251.828, 35.67373
1252.310, 35.56784
1252.792, 35.56483
1253.275, 35.64264
1253.757, 35.70177
1254.239, 35.74862
1254.721, 35.88707
1255.203, 36.10398
1255.685, 36.28121
1256.167, 36.37859
1256.649, 36.28102
1257.131, 35.92579
1257.614, 35.61839
1258.096, 35.71874
1258.578, 35.95110
1259.060, 36.04100
1259.542, 36.03417
1260.024, 35.88304
1260.506, 35.73159
1260.988, 35.88197
1261.471, 36.27356
1261.953, 36.50297
1262.435, 36.45045
1262.917, 36.29749
1263.399, 35.89131
1263.881, 35.67701
1264.363, 35.99089
1264.845, 36.25825
1265.328, 36.11622
1265.810, 35.87445
1266.292, 35.91425
1266.774, 36.13497
1267.256, 36.09836
1267.738, 35.76073
1268.220, 35.63834
1268.702, 35.73734
1269.184, 35.87153
1269.667, 36.00586
1270.149, 36.15813
1270.631, 36.33575
1271.113, 36.42235
1271.595, 36.27830
1272.077, 36.05660
1272.559, 36.00571
1273.041, 36.00952
1273.523, 35.82149
1274.006, 35.59715
1274.488, 35.65802
1274.970, 35.95184
1275.452, 36.21210
1275.934, 36.36694
1276.416, 36.45470
1276.898, 36.46146
1277.380, 36.44552
1277.863, 36.45868
1278.345, 36.40758
1278.827, 36.12644
1279.309, 35.88794
1279.791, 35.96159
1280.273, 36.19930
1280.755, 36.25495
1281.237, 36.13237
1281.719, 36.20549
1282.202, 36.49859
1282.684, 36.60221
1283.166, 36.47837
1283.648, 36.31133
1284.130, 36.16202
1284.612, 36.04009
1285.094, 35.94146
##END=



