##NAMES=Chalcopyrite
##RRUFFID=R050018
##IDEAL CHEMISTRY=Cu^1+^Fe^3+^S^2-^_2_
##LOCALITY=Sudbury, Ontario, Canada
##OWNER=RRUFF
##SOURCE=Eugene Schlepp
##DESCRIPTION=Massive fragment
##STATUS=The identification of this mineral has been confirmed by X-ray diffraction and chemical analysis
##URL=rruff.info/R050018
##MEASURED CHEMISTRY=Cu_1.00_Fe_1.00_S_2.00_
113.3055, 73.40862
113.7877, 81.65861
114.2698, 94.17285
114.7519, 115.4434
115.2340, 139.4664
115.7161, 158.5778
116.1982, 170.6141
116.6804, 181.5859
117.1625, 198.1516
117.6446, 221.2629
118.1267, 242.8973
118.6088, 263.1435
119.0909, 278.8108
119.5731, 284.9094
120.0552, 278.0587
120.5373, 266.8904
121.0194, 264.7405
121.5015, 274.3411
121.9836, 285.5054
122.4658, 297.7112
122.9479, 308.8364
123.4300, 316.2148
123.9121, 318.3597
124.3942, 317.4998
124.8763, 318.8276
125.3585, 322.8576
125.8406, 328.5495
126.3227, 330.5312
126.8048, 335.2529
127.2869, 350.1068
127.7690, 378.9346
128.2512, 420.2442
128.7333, 466.9201
129.2154, 517.8954
129.6975, 576.8542
130.1796, 650.0464
130.6617, 729.9993
131.1439, 805.6569
131.6260, 869.8597
132.1081, 924.6085
132.5902, 985.5858
133.0723, 1070.464
133.5544, 1143.407
134.0366, 1203.828
134.5187, 1246.847
135.0008, 1263.983
135.4829, 1247.845
135.9650, 1200.006
136.4471, 1151.392
136.9293, 1110.287
137.4114, 1060.373
137.8935, 990.1573
138.3756, 906.3716
138.8577, 822.7708
139.3398, 748.2803
139.8220, 682.8854
140.3041, 634.4438
140.7862, 602.9388
141.2683, 583.7101
141.7504, 576.9146
142.2325, 581.4402
142.7147, 594.7037
143.1968, 615.4636
143.6789, 644.0911
144.1610, 676.2290
144.6431, 714.2584
145.1252, 753.2043
145.6074, 789.1821
146.0895, 822.7198
146.5716, 858.1667
147.0537, 899.0822
147.5358, 945.8811
148.0179, 993.5937
148.5001, 1048.833
148.9822, 1100.141
149.4643, 1143.598
149.9464, 1178.398
150.4285, 1195.942
150.9106, 1186.281
151.3928, 1149.631
151.8749, 1107.257
152.3570, 1054.972
152.8391, 1000.637
153.3212, 951.5916
153.8033, 908.5923
154.2855, 866.4289
154.7676, 820.0568
155.2497, 770.6273
155.7318, 723.7827
156.2139, 675.4368
156.6960, 632.5446
157.1782, 604.1710
157.6603, 591.7194
158.1424, 587.2924
158.6245, 588.5486
159.1066, 593.6500
159.5887, 598.4479
160.0709, 606.1253
160.5530, 611.3558
161.0351, 604.0504
161.5172, 580.9893
161.9993, 556.7833
162.4814, 542.0126
162.9636, 533.5620
163.4457, 526.3736
163.9278, 519.3286
164.4099, 512.3973
164.8920, 505.5693
165.3741, 498.8228
165.8563, 492.2895
166.3384, 487.7560
166.8205, 483.4041
167.3026, 475.5879
167.7847, 459.4837
168.2668, 440.0049
168.7490, 428.4684
169.2311, 427.6149
169.7132, 428.6166
170.1953, 428.0217
170.6774, 425.8926
171.1595, 421.9483
171.6417, 414.8883
172.1238, 406.4142
172.6059, 401.3014
173.0880, 401.6568
173.5701, 401.1357
174.0522, 396.2074
174.5344, 388.8376
175.0165, 381.9825
175.4986, 377.6111
175.9807, 374.3264
176.4628, 367.7585
176.9449, 355.5708
177.4271, 344.3789
177.9092, 337.9863
178.3913, 333.7005
178.8734, 327.5246
179.3555, 316.4880
179.8376, 303.1541
180.3197, 295.4318
180.8019, 296.6975
181.2840, 297.8311
181.7661, 295.0899
182.2482, 290.7774
182.7303, 287.6326
183.2124, 286.9069
183.6946, 288.2990
184.1767, 291.2043
184.6588, 296.7250
185.1409, 301.8321
185.6230, 306.1641
186.1051, 309.5497
186.5873, 311.8291
187.0694, 312.9210
187.5515, 312.8683
188.0336, 311.6227
188.5157, 308.2859
188.9978, 305.2900
189.4800, 304.5876
189.9621, 303.9022
190.4442, 300.4479
190.9263, 292.8338
191.4084, 282.9296
191.8905, 275.1663
192.3727, 269.8992
192.8548, 266.3955
193.3369, 265.5305
193.8190, 265.5457
194.3011, 264.8129
194.7832, 262.6866
195.2654, 259.5739
195.7475, 256.6681
196.2296, 255.7105
196.7117, 251.3351
197.1938, 238.2627
197.6759, 224.5190
198.1581, 217.8712
198.6402, 220.7858
199.1223, 228.6400
199.6044, 232.7727
200.0865, 230.7393
200.5686, 229.7548
201.0508, 231.9597
201.5329, 234.3657
202.0150, 234.3428
202.4971, 231.2712
202.9792, 226.9344
203.4613, 224.2018
203.9435, 223.7922
204.4256, 223.4588
204.9077, 223.9781
205.3898, 223.9351
205.8719, 221.9659
206.3540, 217.9817
206.8362, 213.3904
207.3183, 210.2907
207.8004, 209.8390
208.2825, 207.9455
208.7646, 201.7014
209.2467, 196.3681
209.7289, 196.3553
210.2110, 201.3928
210.6931, 206.8153
211.1752, 206.6252
211.6573, 198.4927
212.1395, 193.3366
212.6216, 193.3336
213.1037, 194.2326
213.5858, 193.8477
214.0679, 192.2916
214.5500, 191.1663
215.0322, 192.3405
215.5143, 196.3835
215.9964, 198.8948
216.4785, 199.0665
216.9606, 198.4960
217.4427, 197.4535
217.9249, 196.1275
218.4070, 194.6732
218.8891, 193.0155
219.3712, 191.1018
219.8533, 190.9277
220.3354, 196.4711
220.8176, 199.9000
221.2997, 196.8568
221.7818, 190.0383
222.2639, 185.2174
222.7460, 186.9568
223.2281, 194.3599
223.7103, 197.5586
224.1924, 190.9126
224.6745, 186.0172
225.1566, 187.6180
225.6387, 192.0249
226.1208, 193.2746
226.6030, 187.5910
227.0851, 176.9661
227.5672, 169.7679
228.0493, 167.8192
228.5314, 167.1992
229.0135, 166.1371
229.4957, 166.3174
229.9778, 171.0514
230.4599, 182.0744
230.9420, 195.1871
231.4241, 199.3302
231.9062, 187.0703
232.3884, 178.3678
232.8705, 176.0057
233.3526, 177.5790
233.8347, 182.1810
234.3168, 189.3015
234.7989, 196.5166
235.2811, 198.9796
235.7632, 193.4103
236.2453, 190.9354
236.7274, 195.2161
237.2095, 200.5948
237.6916, 203.7127
238.1738, 203.7756
238.6559, 201.6613
239.1380, 197.3532
239.6201, 189.0259
240.1022, 185.4087
240.5843, 192.2592
241.0665, 199.4152
241.5486, 201.8081
242.0307, 199.4834
242.5128, 195.7650
242.9949, 193.9099
243.4770, 194.1592
243.9592, 193.2542
244.4413, 187.3192
244.9234, 184.0381
245.4055, 187.8846
245.8876, 196.9651
246.3697, 206.1559
246.8519, 211.8555
247.3340, 214.4307
247.8161, 216.8168
248.2982, 218.5739
248.7803, 220.7778
249.2624, 224.5630
249.7446, 228.8886
250.2267, 231.8355
250.7088, 231.8728
251.1909, 230.4454
251.6730, 232.1036
252.1551, 238.8639
252.6373, 244.6320
253.1194, 246.2325
253.6015, 246.4292
254.0836, 248.7048
254.5657, 254.8134
255.0478, 261.5063
255.5300, 262.7583
256.0121, 256.6741
256.4942, 252.3437
256.9763, 253.7207
257.4584, 257.0967
257.9406, 260.6266
258.4227, 263.9958
258.9048, 265.7896
259.3869, 262.9462
259.8690, 255.1014
260.3511, 251.2872
260.8333, 256.4225
261.3154, 263.4156
261.7975, 267.4863
262.2796, 268.4557
262.7617, 268.0528
263.2438, 266.4495
263.7260, 264.1218
264.2081, 264.1628
264.6902, 268.2623
265.1723, 272.6834
265.6544, 274.5653
266.1365, 274.4972
266.6187, 274.3347
267.1008, 275.7606
267.5829, 277.5400
268.0650, 276.6316
268.5471, 272.2174
269.0292, 267.5727
269.5114, 265.7941
269.9935, 265.2786
270.4756, 263.1091
270.9577, 257.2245
271.4398, 250.4560
271.9219, 245.1711
272.4041, 241.3232
272.8862, 240.8685
273.3683, 246.8856
273.8504, 256.0624
274.3325, 261.6110
274.8146, 261.1388
275.2968, 260.8415
275.7789, 264.4142
276.2610, 271.5142
276.7431, 281.1222
277.2252, 293.6371
277.7073, 307.5597
278.1895, 320.5145
278.6716, 332.4317
279.1537, 343.9512
279.6358, 355.1459
280.1179, 366.1032
280.6000, 377.0656
281.0822, 388.2081
281.5643, 398.7416
282.0464, 406.8758
282.5285, 412.0997
283.0106, 420.9390
283.4927, 436.7984
283.9749, 454.8911
284.4570, 469.2371
284.9391, 479.9834
285.4212, 494.5438
285.9033, 519.2444
286.3854, 554.2117
286.8676, 590.2269
287.3497, 629.0739
287.8318, 667.1909
288.3139, 704.1785
288.7960, 739.2714
289.2781, 770.9182
289.7603, 798.6945
290.2424, 821.7505
290.7245, 835.4740
291.2066, 845.7530
291.6887, 840.4568
292.1708, 813.5579
292.6530, 771.4866
293.1351, 720.0964
293.6172, 661.6540
294.0993, 598.9934
294.5814, 537.0657
295.0635, 472.4538
295.5457, 415.5975
296.0278, 367.0314
296.5099, 325.4592
296.9920, 291.1261
297.4741, 263.4019
297.9562, 240.8307
298.4384, 221.8757
298.9205, 206.5625
299.4026, 194.7623
299.8847, 188.5684
300.3668, 183.6743
300.8489, 178.5800
301.3311, 173.6229
301.8131, 169.9420
302.2953, 168.4273
302.7774, 168.6286
303.2595, 168.2104
303.7416, 166.5076
304.2237, 165.1637
304.7058, 165.0432
305.1880, 165.1897
305.6701, 164.4889
306.1522, 162.5106
306.6343, 159.9286
307.1164, 157.7798
307.5985, 156.1104
308.0807, 154.7374
308.5628, 154.6199
309.0449, 154.0887
309.5270, 151.5502
310.0091, 147.0810
310.4912, 142.9588
310.9734, 140.7826
311.4555, 140.5427
311.9376, 142.4569
312.4197, 147.6044
312.9018, 153.4706
313.3839, 159.3619
313.8661, 164.7826
314.3482, 168.2690
314.8303, 168.4275
315.3124, 166.5770
315.7945, 164.4707
316.2766, 161.8122
316.7588, 160.7338
317.2409, 164.1296
317.7230, 169.2841
318.2051, 171.4703
318.6872, 168.6956
319.1693, 165.4014
319.6515, 165.0459
320.1336, 167.0636
320.6157, 168.7461
321.0978, 168.7997
321.5799, 168.7297
322.0620, 171.6822
322.5442, 178.3798
323.0263, 183.1031
323.5084, 183.0117
323.9905, 180.5826
324.4726, 179.0143
324.9547, 178.8367
325.4369, 178.8250
325.9190, 177.8513
326.4011, 175.8053
326.8832, 173.4749
327.3653, 169.5118
327.8474, 166.4849
328.3296, 167.8298
328.8117, 171.6139
329.2938, 171.6133
329.7759, 163.6068
330.2580, 149.9998
330.7401, 141.9667
331.2223, 143.5338
331.7044, 145.7054
332.1865, 148.1711
332.6686, 150.5229
333.1507, 152.5116
333.6328, 154.0159
334.1150, 154.8018
334.5971, 154.2230
335.0792, 150.9567
335.5613, 150.0113
336.0434, 153.6379
336.5255, 157.3103
337.0077, 159.4055
337.4898, 159.5363
337.9719, 157.4395
338.4540, 152.4317
338.9361, 144.9355
339.4182, 138.6149
339.9004, 132.8288
340.3825, 129.4769
340.8646, 130.4986
341.3467, 133.4332
341.8288, 135.0217
342.3109, 133.8605
342.7931, 131.8495
343.2752, 132.4094
343.7573, 136.1784
344.2394, 137.9125
344.7215, 135.1180
345.2036, 130.7269
345.6858, 125.9426
346.1679, 120.9904
346.6500, 118.8617
347.1321, 123.6588
347.6142, 132.6825
348.0963, 138.4997
348.5785, 140.0959
349.0606, 139.3755
349.5427, 136.6466
350.0248, 132.6319
350.5069, 129.5125
350.9890, 128.4439
351.4712, 127.7804
351.9533, 125.3262
352.4354, 121.7048
352.9175, 120.4968
353.3996, 124.0160
353.8817, 130.2630
354.3639, 133.9831
354.8460, 134.6671
355.3281, 134.5904
355.8102, 133.5920
356.2923, 132.3867
356.7744, 132.2591
357.2566, 133.3632
357.7387, 133.9757
358.2208, 131.8857
358.7029, 126.1986
359.1850, 122.8658
359.6671, 124.5916
360.1493, 125.6450
360.6314, 121.8555
361.1135, 115.4347
361.5956, 111.5519
362.0777, 113.4212
362.5598, 119.4457
363.0420, 123.8628
363.5241, 126.2864
364.0062, 127.5384
364.4883, 126.9410
364.9704, 125.8513
365.4525, 125.6510
365.9347, 126.5264
366.4168, 127.2064
366.8989, 125.4320
367.3810, 120.8602
367.8631, 119.6523
368.3452, 125.2589
368.8274, 130.4471
369.3095, 130.4824
369.7916, 127.2974
370.2737, 125.7475
370.7558, 129.3694
371.2379, 134.8835
371.7201, 135.9759
372.2022, 132.0525
372.6843, 129.6094
373.1664, 133.3149
373.6485, 138.8318
374.1306, 139.1883
374.6128, 132.7068
375.0949, 126.3804
375.5770, 124.8201
376.0591, 125.8322
376.5412, 124.7813
377.0233, 120.5401
377.5055, 115.7120
377.9876, 113.2252
378.4697, 113.4176
378.9518, 111.7585
379.4339, 104.2576
379.9160, 98.44165
380.3982, 100.6714
380.8803, 108.5285
381.3624, 114.9257
381.8445, 115.9655
382.3266, 113.1634
382.8087, 111.1120
383.2909, 112.2492
383.7730, 110.8228
384.2551, 102.7297
384.7372, 94.65082
385.2193, 93.03936
385.7014, 98.26622
386.1836, 104.9442
386.6657, 107.0528
387.1478, 104.2006
387.6299, 104.3327
388.1120, 112.3044
388.5941, 117.5755
389.0763, 115.2353
389.5584, 108.4091
390.0405, 101.8336
390.5226, 97.24450
391.0047, 94.44465
391.4868, 93.24487
391.9690, 93.72743
392.4511, 95.26037
392.9332, 99.48630
393.4153, 102.9983
393.8974, 101.6231
394.3795, 95.41634
394.8617, 90.74007
395.3438, 91.87234
395.8259, 96.11559
396.3080, 98.94627
396.7901, 99.90393
397.2722, 100.8902
397.7544, 103.7040
398.2365, 107.6317
398.7186, 109.1740
399.2007, 106.2030
399.6828, 103.2791
400.1649, 102.5470
400.6471, 102.9326
401.1292, 102.6808
401.6113, 101.2091
402.0934, 98.94857
402.5755, 96.40786
403.0576, 93.21307
403.5398, 90.98370
404.0219, 89.36984
404.5040, 88.86889
404.9861, 90.54397
405.4682, 93.56322
405.9503, 95.97451
406.4325, 96.48112
406.9146, 95.61393
407.3967, 94.98583
407.8788, 93.64374
408.3609, 94.61292
408.8430, 101.3137
409.3252, 108.5033
409.8073, 112.2975
410.2894, 112.0507
410.7715, 109.1890
411.2536, 102.9216
411.7357, 94.47211
412.2179, 90.95425
412.7000, 94.44576
413.1821, 98.99991
413.6642, 100.3816
414.1463, 99.90817
414.6284, 100.0286
415.1106, 101.1698
415.5927, 103.0606
416.0748, 106.4237
416.5569, 110.4913
417.0390, 112.8549
417.5211, 112.6645
418.0033, 110.5010
418.4854, 106.6888
418.9675, 99.92857
419.4496, 96.27406
419.9317, 98.76830
420.4138, 102.1352
420.8960, 102.6641
421.3781, 100.8119
421.8602, 98.96643
422.3423, 98.61288
422.8244, 99.58531
423.3065, 101.1866
423.7887, 103.8887
424.2708, 106.5177
424.7529, 110.7697
425.2350, 113.7192
425.7171, 111.5658
426.1992, 104.5265
426.6814, 97.91581
427.1635, 97.60084
427.6456, 102.9477
428.1277, 106.3530
428.6098, 107.2608
429.0919, 107.2535
429.5741, 106.3868
430.0562, 105.3569
430.5383, 105.3492
431.0204, 107.0347
431.5025, 108.9430
431.9846, 110.6142
432.4668, 111.6274
432.9489, 109.8276
433.4310, 103.9434
433.9131, 97.58195
434.3952, 95.24377
434.8773, 97.40987
435.3595, 98.98894
435.8416, 98.77785
436.3237, 98.76125
436.8058, 100.8982
437.2879, 104.2495
437.7701, 106.2006
438.2522, 105.3289
438.7343, 102.7910
439.2164, 101.5711
439.6985, 102.8487
440.1806, 103.3580
440.6628, 102.4748
441.1449, 101.3616
441.6270, 100.7038
442.1091, 100.5267
442.5912, 100.4743
443.0733, 100.0639
443.5555, 99.65684
444.0376, 101.3435
444.5197, 106.8108
445.0018, 109.6169
445.4839, 104.0496
445.9660, 96.24651
446.4482, 92.12637
446.9303, 92.65185
447.4124, 95.05329
447.8945, 98.92682
448.3766, 103.2362
448.8587, 105.7299
449.3409, 106.0712
449.8230, 105.1886
450.3051, 103.2599
450.7872, 100.5793
451.2693, 99.79618
451.7514, 102.1966
452.2336, 104.8347
452.7157, 107.2205
453.1978, 109.0929
453.6799, 109.9338
454.1620, 109.6502
454.6441, 108.8907
455.1263, 108.4579
455.6084, 108.3830
456.0905, 108.4607
456.5726, 110.8447
457.0547, 111.0899
457.5368, 104.9074
458.0190, 96.37096
458.5011, 92.74760
458.9832, 97.85731
459.4653, 105.2109
459.9474, 104.0470
460.4295, 94.18346
460.9117, 88.87542
461.3938, 92.62363
461.8759, 98.99072
462.3580, 103.3103
462.8401, 105.5780
463.3222, 105.2163
463.8044, 98.58712
464.2865, 91.99246
464.7686, 91.89988
465.2507, 97.00050
465.7328, 102.1589
466.2149, 105.4133
466.6971, 106.5963
467.1792, 105.1115
467.6613, 98.52808
468.1434, 94.42431
468.6255, 94.56068
469.1076, 95.58842
469.5898, 95.71026
470.0719, 94.89806
470.5540, 93.60786
471.0361, 91.96463
471.5182, 90.46622
472.0003, 90.60553
472.4825, 92.70560
472.9646, 95.57073
473.4467, 102.6570
473.9288, 107.6645
474.4109, 103.9649
474.8930, 92.49379
475.3752, 83.55922
475.8573, 84.97942
476.3394, 91.92741
476.8215, 96.82465
477.3036, 99.47417
477.7857, 100.0356
478.2679, 97.78032
478.7500, 94.13970
479.2321, 92.67517
479.7142, 94.02007
480.1963, 95.53901
480.6784, 97.90791
481.1606, 99.45114
481.6427, 97.87394
482.1248, 93.60334
482.6069, 89.40117
483.0890, 87.23872
483.5711, 86.95010
484.0533, 87.68919
484.5354, 90.52245
485.0175, 92.62744
485.4996, 92.88642
485.9817, 92.85372
486.4638, 94.24746
486.9460, 96.98550
487.4281, 98.88519
487.9102, 97.82335
488.3923, 94.63429
488.8744, 91.39587
489.3565, 87.83714
489.8387, 86.07135
490.3208, 88.39948
490.8029, 92.60200
491.2850, 93.90176
491.7671, 91.27580
492.2492, 88.78145
492.7314, 87.44121
493.2135, 87.14509
493.6956, 88.20055
494.1777, 90.39837
494.6598, 92.48872
495.1419, 93.43433
495.6241, 93.51012
496.1062, 94.59779
496.5883, 98.73361
497.0704, 100.9467
497.5525, 99.50086
498.0346, 96.90709
498.5168, 94.84452
498.9989, 93.71364
499.4810, 93.51955
499.9631, 94.34712
500.4452, 96.11276
500.9273, 99.27172
501.4095, 104.8228
501.8916, 107.3791
502.3737, 102.7031
502.8558, 94.69244
503.3379, 89.45461
503.8200, 87.41270
504.3022, 86.89118
504.7843, 89.06112
505.2664, 91.40588
505.7485, 89.98113
506.2306, 85.15949
506.7127, 81.57652
507.1949, 82.51929
507.6770, 86.87777
508.1591, 89.76094
508.6412, 89.48701
509.1233, 90.19854
509.6054, 93.90063
510.0876, 97.25426
510.5697, 97.16422
511.0518, 94.06601
511.5339, 91.11374
512.0161, 90.66120
512.4982, 91.92277
512.9803, 92.98369
513.4624, 93.93302
513.9445, 93.97288
514.4266, 91.88930
514.9088, 89.57624
515.3909, 89.59343
515.8730, 92.09381
516.3551, 94.75127
516.8372, 97.60706
517.3193, 99.77068
517.8015, 99.72357
518.2836, 98.06119
518.7657, 97.52174
519.2478, 99.75557
519.7299, 103.0758
520.2120, 103.3603
520.6942, 98.71585
521.1763, 94.57263
521.6584, 90.28125
522.1405, 87.02953
522.6226, 85.77901
523.1047, 86.09293
523.5869, 86.95241
524.0690, 88.03245
524.5511, 88.92117
525.0332, 88.52763
525.5153, 86.86668
525.9974, 86.35398
526.4796, 87.80743
526.9617, 90.18070
527.4438, 92.14111
527.9259, 93.82671
528.4080, 96.94211
528.8901, 105.9816
529.3723, 112.3109
529.8544, 107.4834
530.3365, 96.89434
530.8186, 91.57781
531.3007, 95.19823
531.7828, 102.3593
532.2650, 105.7363
532.7471, 104.8064
533.2292, 103.3722
533.7113, 100.1511
534.1934, 97.92854
534.6755, 98.21491
535.1577, 99.72554
535.6398, 100.7688
536.1219, 100.8637
536.6040, 100.4627
537.0861, 99.75524
537.5682, 98.88303
538.0504, 98.20522
538.5325, 97.71375
539.0146, 97.86328
539.4967, 99.25681
539.9788, 101.5490
540.4609, 102.9848
540.9431, 103.0445
541.4252, 103.0829
541.9073, 104.5022
542.3894, 105.2981
542.8715, 102.3948
543.3536, 96.36985
543.8358, 91.50066
544.3179, 91.45928
544.8000, 95.05223
545.2821, 97.00005
545.7642, 96.70839
546.2463, 96.38195
546.7285, 95.90800
547.2106, 96.12949
547.6927, 98.55427
548.1748, 102.8650
548.6569, 105.5445
549.1390, 104.3866
549.6211, 101.2871
550.1032, 97.49057
550.5853, 93.39902
551.0674, 90.70509
551.5496, 90.19489
552.0317, 90.62515
552.5138, 89.67353
552.9959, 85.74458
553.4780, 85.99059
553.9601, 94.75513
554.4423, 102.4332
554.9244, 105.5981
555.4065, 105.0049
555.8886, 101.1692
556.3707, 94.13007
556.8528, 87.86768
557.3350, 88.64037
557.8171, 95.31643
558.2992, 98.00527
558.7813, 94.47313
559.2634, 91.27200
559.7455, 93.87165
560.2277, 99.94904
560.7098, 101.8292
561.1919, 96.36613
561.6740, 92.13188
562.1561, 92.90852
562.6382, 95.56226
563.1204, 97.15572
563.6025, 97.22076
564.0846, 96.07866
564.5667, 93.68649
565.0488, 90.74950
565.5309, 90.08613
566.0131, 92.31648
566.4952, 95.26198
566.9773, 100.7479
567.4594, 105.0352
567.9415, 105.2909
568.4236, 102.0321
568.9058, 98.06797
569.3879, 93.01413
569.8700, 89.15968
570.3521, 89.90226
570.8342, 93.90956
571.3163, 96.44314
571.7985, 95.94222
572.2806, 94.80630
572.7627, 96.16797
573.2448, 100.5430
573.7269, 102.5347
574.2090, 100.6416
574.6912, 98.30865
575.1733, 95.46043
575.6554, 93.10394
576.1375, 92.79302
576.6196, 94.65828
577.1017, 96.40052
577.5839, 95.05801
578.0660, 91.93281
578.5481, 91.85901
579.0302, 95.26243
579.5123, 98.62285
579.9944, 100.7368
580.4766, 101.5220
580.9587, 100.4370
581.4408, 97.03609
581.9229, 94.04613
582.4050, 91.46566
582.8871, 89.76361
583.3693, 89.54107
583.8514, 90.41550
584.3335, 91.63352
584.8156, 92.85122
585.2977, 94.06672
585.7798, 95.28509
586.2620, 96.50412
586.7441, 97.79366
587.2262, 99.55286
587.7083, 100.7408
588.1904, 100.8207
588.6725, 99.93385
589.1547, 98.09172
589.6368, 94.92073
590.1189, 91.77650
590.6010, 88.59197
591.0831, 86.18459
591.5652, 86.47282
592.0474, 88.99488
592.5295, 90.33218
593.0116, 87.93863
593.4937, 83.57435
593.9758, 83.07274
594.4579, 89.13150
594.9401, 92.63728
595.4222, 90.25488
595.9043, 87.47865
596.3864, 86.17694
596.8685, 86.68751
597.3506, 89.76163
597.8328, 97.00829
598.3149, 104.2695
598.7970, 108.2645
599.2791, 109.3177
599.7612, 107.6621
600.2433, 103.3265
600.7255, 98.60414
601.2076, 95.27664
601.6897, 93.30003
602.1718, 92.32892
602.6539, 93.39848
603.1360, 94.08620
603.6182, 93.62570
604.1003, 93.18593
604.5824, 94.61951
605.0645, 97.11797
605.5466, 97.14827
606.0287, 91.08131
606.5109, 83.63271
606.9930, 82.67522
607.4751, 87.37867
607.9572, 90.87280
608.4393, 91.12319
608.9214, 91.27959
609.4036, 95.27373
609.8857, 103.1185
610.3678, 106.0668
610.8499, 99.42010
611.3320, 94.31229
611.8141, 94.61581
612.2963, 96.85880
612.7784, 97.53044
613.2605, 96.28271
613.7426, 94.87325
614.2247, 94.27449
614.7068, 94.74646
615.1890, 97.80118
615.6711, 103.6459
616.1532, 107.5346
616.6353, 108.4185
617.1174, 106.2002
617.5995, 98.69851
618.0817, 85.76742
618.5638, 79.57017
619.0459, 85.90230
619.5280, 92.87490
620.0101, 97.52961
620.4922, 99.44159
620.9744, 96.80479
621.4565, 90.22515
621.9386, 84.61380
622.4207, 84.47526
622.9028, 88.79579
623.3849, 94.16268
623.8671, 100.9553
624.3492, 106.7477
624.8313, 111.6617
625.3134, 114.2924
625.7955, 111.4113
626.2776, 103.3930
626.7598, 97.90109
627.2419, 97.49608
627.7240, 98.23120
628.2061, 98.40063
628.6882, 98.36313
629.1703, 98.92966
629.6525, 100.1846
630.1346, 101.2665
630.6167, 101.2373
631.0988, 100.3218
631.5809, 100.1818
632.0630, 101.5647
632.5452, 100.4572
633.0273, 92.52312
633.5094, 84.61374
633.9915, 85.94343
634.4736, 95.89743
634.9557, 102.3195
635.4379, 99.55508
635.9200, 96.05805
636.4021, 96.35284
636.8842, 99.10168
637.3663, 102.8282
637.8484, 106.7727
638.3306, 109.0755
638.8127, 107.2232
639.2948, 102.2241
639.7769, 100.8477
640.2590, 104.5776
640.7411, 106.5511
641.2233, 103.5551
641.7054, 99.20364
642.1875, 97.36211
642.6696, 97.81142
643.1517, 97.92625
643.6339, 96.39590
644.1160, 95.22109
644.5981, 95.51163
645.0802, 96.86326
645.5623, 99.30216
646.0444, 102.4653
646.5266, 104.3751
647.0087, 102.8169
647.4908, 98.68963
647.9729, 96.28794
648.4550, 95.98851
648.9371, 95.92564
649.4193, 95.18945
649.9014, 95.02623
650.3835, 97.34591
650.8656, 101.6591
651.3477, 104.4636
651.8298, 103.4905
652.3120, 102.8131
652.7941, 105.4546
653.2762, 108.9940
653.7583, 109.8682
654.2404, 107.7790
654.7225, 105.1858
655.2047, 103.9840
655.6868, 103.9159
656.1689, 104.3796
656.6510, 105.5716
657.1331, 105.9840
657.6152, 104.7649
658.0974, 103.4662
658.5795, 104.7994
659.0616, 107.6263
659.5437, 106.4784
660.0258, 94.67762
660.5079, 86.52855
660.9901, 89.65881
661.4722, 97.07054
661.9543, 102.1235
662.4364, 103.9310
662.9185, 104.0953
663.4006, 103.4218
663.8828, 102.4829
664.3649, 102.6748
664.8470, 104.0434
665.3291, 105.0859
665.8112, 105.6788
666.2933, 105.6729
666.7755, 104.9803
667.2576, 103.5727
667.7397, 101.3870
668.2218, 96.97266
668.7039, 94.14392
669.1860, 94.11102
669.6682, 95.53999
670.1503, 98.50381
670.6324, 101.9647
671.1145, 103.3799
671.5966, 101.2711
672.0787, 98.32352
672.5609, 99.04034
673.0430, 102.6828
673.5251, 103.5943
674.0072, 100.8275
674.4893, 97.74261
674.9714, 96.21931
675.4536, 95.80685
675.9357, 95.33562
676.4178, 94.40298
676.8999, 94.31467
677.3820, 95.55662
677.8641, 97.19152
678.3463, 99.74129
678.8284, 102.0058
679.3105, 101.6392
679.7926, 97.90293
680.2747, 94.01152
680.7568, 93.43990
681.2390, 94.86082
681.7211, 94.82938
682.2032, 93.32501
682.6853, 92.84496
683.1674, 94.69147
683.6495, 97.32716
684.1317, 98.30260
684.6138, 97.20139
685.0959, 96.62862
685.5780, 97.25011
686.0601, 97.59656
686.5422, 96.59849
687.0244, 95.59064
687.5065, 96.95917
687.9886, 100.5383
688.4707, 101.7937
688.9528, 94.37905
689.4349, 86.21629
689.9171, 87.87028
690.3992, 96.30123
690.8813, 102.7382
691.3634, 104.7578
691.8455, 104.0977
692.3276, 101.9349
692.8098, 98.75981
693.2919, 99.57443
693.7740, 107.9021
694.2561, 112.3598
694.7382, 107.3515
695.2203, 100.9492
695.7025, 98.87746
696.1846, 100.1517
696.6667, 100.5850
697.1488, 97.85359
697.6309, 96.01006
698.1130, 97.51517
698.5952, 100.9588
699.0773, 105.6999
699.5594, 110.8363
700.0415, 113.6262
700.5236, 112.1660
701.0057, 108.5957
701.4879, 107.3582
701.9700, 108.5634
702.4521, 110.1585
702.9342, 113.1084
703.4163, 113.2693
703.8984, 105.5881
704.3806, 94.47755
704.8627, 90.57832
705.3448, 95.59179
705.8269, 102.2800
706.3090, 114.0288
706.7911, 122.8611
707.2733, 121.9406
707.7554, 115.5082
708.2375, 110.8768
708.7196, 110.2437
709.2017, 110.4455
709.6838, 108.0115
710.1660, 104.2432
710.6481, 102.5668
711.1302, 102.9354
711.6123, 104.0631
712.0944, 105.8363
712.5765, 106.6330
713.0587, 103.8490
713.5408, 97.14248
714.0229, 94.20255
714.5050, 98.09608
714.9871, 101.6612
715.4692, 103.3343
715.9514, 104.6157
716.4335, 106.7135
716.9156, 109.5732
717.3977, 112.6229
717.8798, 117.2078
718.3619, 119.6225
718.8441, 114.8082
719.3262, 106.6432
719.8083, 101.8824
720.2904, 101.1592
720.7725, 101.1416
721.2546, 99.60246
721.7368, 97.33434
722.2189, 96.13067
722.7010, 95.99171
723.1831, 97.14306
723.6652, 100.5731
724.1473, 103.3709
724.6295, 103.2826
725.1116, 101.6945
725.5937, 101.5507
726.0758, 103.3531
726.5579, 104.8762
727.0400, 106.2315
727.5222, 106.6838
728.0043, 104.8430
728.4864, 102.1621
728.9685, 100.6603
729.4506, 100.9689
729.9327, 102.9976
730.4149, 108.2056
730.8970, 114.4483
731.3791, 116.7295
731.8612, 115.2962
732.3433, 111.8229
732.8254, 106.3409
733.3076, 102.0110
733.7897, 102.6410
734.2718, 107.6513
734.7539, 109.2082
735.2360, 103.7896
735.7181, 100.8313
736.2003, 104.6412
736.6824, 108.1181
737.1645, 106.1736
737.6466, 100.3640
738.1287, 94.98228
738.6108, 89.85693
739.0930, 88.51466
739.5751, 97.29048
740.0572, 108.0016
740.5393, 110.2834
741.0214, 105.4118
741.5035, 100.1599
741.9857, 97.71514
742.4678, 97.30429
742.9499, 98.37215
743.4320, 100.7691
743.9141, 102.6209
744.3962, 104.0828
744.8784, 103.7722
745.3605, 100.1763
745.8426, 95.99160
746.3247, 94.77313
746.8068, 96.73360
747.2889, 99.98207
747.7711, 108.7561
748.2532, 113.3146
748.7353, 108.0961
749.2174, 100.1599
749.6995, 94.42680
750.1816, 91.90584
750.6638, 93.62126
751.1459, 102.7632
751.6280, 111.1515
752.1101, 110.3595
752.5922, 103.7653
753.0743, 96.42503
753.5565, 89.56261
754.0386, 85.00923
754.5207, 83.88177
755.0028, 85.46760
755.4849, 88.98092
755.9670, 94.77956
756.4492, 99.03181
756.9313, 101.2561
757.4134, 103.0411
757.8955, 105.5159
758.3776, 107.6192
758.8597, 107.7096
759.3419, 105.7710
759.8240, 102.7012
760.3061, 95.48731
760.7882, 90.83654
761.2703, 93.48728
761.7524, 98.50833
762.2346, 100.9251
762.7167, 100.2370
763.1988, 98.30971
763.6809, 95.31915
764.1630, 93.12676
764.6451, 95.21088
765.1273, 99.53081
765.6094, 100.1262
766.0915, 96.66751
766.5736, 94.66251
767.0557, 97.66152
767.5378, 103.4833
768.0200, 107.8542
768.5021, 111.0027
768.9842, 110.7615
769.4663, 104.9871
769.9484, 100.4019
770.4305, 101.2330
770.9127, 103.9453
771.3948, 103.0493
771.8769, 98.20610
772.3590, 94.63397
772.8411, 92.91172
773.3232, 92.59411
773.8054, 94.25845
774.2875, 96.74741
774.7696, 98.85570
775.2517, 100.5441
775.7338, 102.6823
776.2159, 106.3402
776.6981, 109.3757
777.1802, 108.6355
777.6623, 105.6207
778.1444, 103.9991
778.6265, 103.9992
779.1086, 103.5401
779.5908, 101.4969
780.0729, 98.09485
780.5550, 92.52039
781.0371, 83.88474
781.5192, 83.29796
782.0013, 94.68212
782.4835, 103.6721
782.9656, 104.2476
783.4477, 100.3272
783.9298, 95.02599
784.4119, 88.14742
784.8940, 87.68598
785.3762, 101.9088
785.8583, 112.3260
786.3404, 112.0252
786.8225, 107.4379
787.3046, 102.1333
787.7867, 97.71978
788.2689, 96.96661
788.7510, 101.9452
789.2331, 107.8228
789.7152, 111.9670
790.1973, 113.6532
790.6794, 110.2618
791.1616, 103.0341
791.6437, 97.25220
792.1258, 95.15462
792.6079, 95.16738
793.0900, 95.36559
793.5721, 95.74927
794.0543, 96.75292
794.5364, 98.82170
795.0185, 98.06036
795.5006, 91.41738
795.9827, 85.88993
796.4648, 89.80128
796.9470, 101.8246
797.4291, 107.5278
797.9112, 101.2608
798.3933, 96.66389
798.8754, 93.11842
799.3575, 92.58205
799.8397, 99.11659
800.3218, 108.6182
800.8039, 113.2661
801.2860, 110.7517
801.7681, 107.0641
802.2502, 104.3804
802.7324, 102.5566
803.2145, 102.2820
803.6966, 102.5115
804.1787, 100.5110
804.6608, 96.12007
805.1429, 93.28843
805.6251, 95.98798
806.1072, 101.5625
806.5893, 104.5884
807.0714, 105.2484
807.5535, 104.4056
808.0356, 102.0836
808.5178, 100.2610
808.9999, 100.2800
809.4820, 101.6143
809.9641, 103.2444
810.4462, 106.0317
810.9283, 105.7743
811.4105, 100.2683
811.8926, 95.28506
812.3747, 92.56344
812.8568, 91.82966
813.3389, 93.67377
813.8210, 98.04515
814.3032, 100.3950
814.7853, 98.23125
815.2674, 96.26903
815.7495, 96.57078
816.2316, 97.41323
816.7137, 96.96001
817.1959, 95.58141
817.6780, 95.07896
818.1601, 96.47739
818.6422, 97.60628
819.1243, 95.16221
819.6064, 92.09055
820.0886, 94.22191
820.5707, 100.0833
821.0528, 103.1732
821.5349, 101.2810
822.0170, 98.05383
822.4991, 97.49212
822.9813, 98.95882
823.4634, 100.0904
823.9455, 100.9581
824.4276, 99.73119
824.9097, 95.45074
825.3918, 91.14983
825.8740, 88.55338
826.3561, 88.10915
826.8382, 91.83487
827.3203, 104.0049
827.8024, 110.4145
828.2845, 106.4438
828.7667, 102.3238
829.2488, 102.0787
829.7309, 103.4535
830.2130, 103.5906
830.6951, 102.3292
831.1772, 102.0338
831.6594, 104.2560
832.1415, 106.3457
832.6236, 106.9614
833.1057, 107.0357
833.5878, 107.5996
834.0699, 108.5456
834.5521, 109.1495
835.0342, 109.0850
835.5163, 108.6313
835.9984, 108.4504
836.4805, 107.8288
836.9626, 104.6759
837.4448, 99.91080
837.9269, 97.40990
838.4090, 98.36407
838.8911, 99.78779
839.3732, 98.42831
839.8553, 95.12582
840.3375, 92.31811
840.8196, 89.95508
841.3017, 91.71916
841.7838, 99.43143
842.2659, 105.3402
842.7480, 103.5560
843.2302, 97.19649
843.7123, 94.04988
844.1944, 94.68601
844.6765, 96.86983
845.1586, 103.7763
845.6407, 107.4920
846.1229, 101.5839
846.6050, 93.87872
847.0871, 91.84986
847.5692, 95.33815
848.0513, 100.4863
848.5334, 110.9577
849.0156, 117.3829
849.4977, 113.9902
849.9798, 108.5036
850.4619, 107.0047
850.9440, 108.1892
851.4261, 108.0745
851.9083, 105.3664
852.3904, 102.4754
852.8725, 99.37173
853.3546, 98.21112
853.8367, 103.7234
854.3188, 112.1954
854.8010, 115.6611
855.2831, 113.0141
855.7652, 109.0856
856.2473, 107.1677
856.7294, 106.6931
857.2115, 107.3850
857.6937, 108.7267
858.1758, 107.7759
858.6579, 104.3864
859.1400, 102.2382
859.6221, 103.0582
860.1042, 105.8073
860.5864, 109.5108
861.0685, 114.0191
861.5506, 115.5179
862.0327, 113.3473
862.5148, 110.5731
862.9969, 107.2173
863.4791, 104.6061
863.9612, 103.8582
864.4433, 104.6523
864.9254, 105.9093
865.4075, 108.4182
865.8896, 109.7388
866.3718, 110.1242
866.8539, 109.0819
867.3360, 103.7877
867.8181, 98.65529
868.3002, 99.61347
868.7823, 106.5168
869.2645, 112.0885
869.7466, 114.8177
870.2287, 115.4324
870.7108, 112.4033
871.1929, 108.8521
871.6750, 107.6184
872.1572, 108.1800
872.6393, 109.3280
873.1214, 110.7704
873.6035, 110.0335
874.0856, 101.9806
874.5677, 93.58346
875.0499, 93.61398
875.5320, 99.11363
876.0141, 104.3864
876.4962, 107.9076
876.9783, 109.5163
877.4604, 108.9174
877.9426, 107.1205
878.4247, 105.8786
878.9068, 104.8287
879.3889, 101.6915
879.8710, 96.71550
880.3531, 94.65582
880.8353, 97.54779
881.3174, 102.5342
881.7995, 106.7388
882.2816, 109.8321
882.7637, 108.3744
883.2458, 101.0217
883.7280, 100.3290
884.2101, 110.8419
884.6922, 119.8607
885.1743, 118.7370
885.6564, 111.2204
886.1385, 105.0051
886.6207, 99.57404
887.1028, 98.08106
887.5849, 103.7697
888.0670, 108.1467
888.5491, 107.5672
889.0313, 106.0625
889.5134, 108.1348
889.9955, 112.5078
890.4776, 113.2674
890.9597, 108.0843
891.4418, 102.7981
891.9240, 95.03952
892.4061, 90.77850
892.8882, 97.12365
893.3703, 106.7269
893.8524, 108.8424
894.3345, 102.5801
894.8167, 97.05702
895.2988, 95.25869
895.7809, 95.91679
896.2630, 99.83160
896.7451, 104.7383
897.2272, 109.0777
897.7094, 112.1918
898.1915, 113.0398
898.6736, 111.2390
899.1557, 108.5665
899.6378, 105.8665
900.1199, 103.5407
900.6021, 101.7465
901.0842, 100.8164
901.5663, 101.3658
902.0484, 103.5127
902.5305, 107.7947
903.0126, 115.0441
903.4948, 121.3685
903.9769, 119.4445
904.4590, 112.1498
904.9411, 108.5602
905.4232, 108.6887
905.9053, 109.3298
906.3875, 109.4288
906.8696, 109.6340
907.3517, 110.8249
907.8338, 112.1621
908.3159, 109.7814
908.7980, 103.6253
909.2802, 102.8136
909.7623, 109.0523
910.2444, 114.8581
910.7265, 116.5714
911.2086, 116.1322
911.6907, 116.2947
912.1729, 117.0403
912.6550, 117.0645
913.1371, 116.6115
913.6192, 114.4149
914.1013, 108.9064
914.5834, 104.0970
915.0656, 102.2507
915.5477, 103.1667
916.0298, 106.9222
916.5119, 115.2923
916.9940, 119.7846
917.4761, 116.6519
917.9583, 114.9424
918.4404, 119.3250
918.9225, 123.6862
919.4046, 122.8394
919.8867, 117.8958
920.3688, 112.9826
920.8510, 107.2085
921.3331, 104.1162
921.8152, 107.4035
922.2973, 109.7884
922.7794, 105.2137
923.2615, 99.66135
923.7437, 101.2755
924.2258, 109.5949
924.7079, 116.2289
925.1900, 119.6489
925.6721, 119.3933
926.1542, 110.7376
926.6364, 102.5731
927.1185, 103.3498
927.6006, 109.2483
928.0827, 113.2046
928.5648, 113.6643
929.0469, 113.2870
929.5291, 113.6303
930.0112, 113.5883
930.4933, 112.0107
930.9754, 109.7870
931.4575, 106.3982
931.9396, 103.5575
932.4218, 107.2039
932.9039, 119.2702
933.3860, 128.1828
933.8681, 119.2634
934.3502, 105.3897
934.8323, 103.7963
935.3145, 109.8197
935.7966, 113.9678
936.2787, 115.1979
936.7608, 117.4952
937.2429, 123.0557
937.7250, 128.8253
938.2072, 132.4455
938.6893, 132.9660
939.1714, 125.4296
939.6535, 112.6054
940.1356, 105.6052
940.6177, 106.6438
941.0999, 110.9568
941.5820, 115.5865
942.0641, 119.3897
942.5462, 120.0296
943.0283, 117.9581
943.5104, 114.6591
943.9926, 110.4751
944.4747, 109.4569
944.9568, 112.9400
945.4389, 116.3820
945.9210, 115.5059
946.4031, 112.0187
946.8853, 111.0580
947.3674, 112.5996
947.8495, 111.4538
948.3316, 106.8580
948.8137, 104.9157
949.2958, 108.2629
949.7780, 113.8203
950.2601, 118.4807
950.7422, 122.1251
951.2243, 124.1424
951.7064, 124.5335
952.1885, 122.8473
952.6707, 118.1733
953.1528, 114.9015
953.6349, 115.6532
954.1170, 117.6039
954.5991, 116.9431
955.0812, 113.7786
955.5634, 110.1921
956.0455, 105.4006
956.5276, 102.6043
957.0097, 102.1280
957.4918, 103.9879
957.9739, 109.4846
958.4561, 115.9468
958.9382, 119.0447
959.4203, 118.6350
959.9024, 116.8126
960.3845, 111.6927
960.8666, 109.0970
961.3488, 112.3440
961.8309, 114.8327
962.3130, 110.7460
962.7951, 104.1326
963.2772, 103.6344
963.7593, 111.1256
964.2415, 114.6657
964.7236, 109.8045
965.2057, 107.4653
965.6878, 112.0755
966.1699, 117.2209
966.6520, 119.2277
967.1342, 118.6782
967.6163, 116.2606
968.0984, 110.6186
968.5805, 108.6807
969.0626, 115.6325
969.5447, 119.8095
970.0269, 114.7995
970.5090, 109.1393
970.9911, 109.9720
971.4732, 115.2584
971.9553, 119.2441
972.4374, 121.3478
972.9196, 122.3454
973.4017, 123.1037
973.8838, 121.8235
974.3659, 115.2142
974.8480, 108.5263
975.3301, 106.5993
975.8123, 108.5263
976.2944, 111.0877
976.7765, 114.5184
977.2586, 116.0707
977.7407, 113.3041
978.2228, 110.7501
978.7050, 111.3495
979.1871, 112.3663
979.6692, 109.6033
980.1513, 104.7319
980.6334, 104.6952
981.1155, 113.3987
981.5977, 119.3477
982.0798, 116.2821
982.5619, 112.9708
983.0440, 114.8005
983.5261, 118.0825
984.0082, 118.4351
984.4904, 116.2252
984.9725, 114.6022
985.4546, 114.7141
985.9367, 114.4900
986.4188, 113.2339
986.9009, 111.3707
987.3831, 106.6983
987.8652, 103.2326
988.3473, 108.0047
988.8294, 118.8039
989.3115, 124.3079
989.7936, 119.0491
990.2758, 114.3922
990.7579, 115.6335
991.2400, 118.2726
991.7221, 121.5593
992.2042, 123.1538
992.6863, 118.4168
993.1685, 109.1245
993.6506, 104.3069
994.1327, 108.8168
994.6148, 112.6072
995.0969, 108.6976
995.5790, 105.2675
996.0612, 109.9531
996.5433, 117.0849
997.0254, 118.7917
997.5075, 115.4062
997.9896, 112.9224
998.4717, 113.4128
998.9539, 114.9349
999.4360, 118.8838
999.9181, 121.1084
1000.400, 115.8708
1000.882, 109.0005
1001.364, 109.2714
1001.847, 115.5669
1002.329, 118.7073
1002.811, 114.3141
1003.293, 110.3203
1003.775, 110.4168
1004.257, 112.2093
1004.739, 116.0459
1005.221, 119.3130
1005.703, 117.3075
1006.186, 111.5109
1006.668, 109.4369
1007.150, 114.9328
1007.632, 119.8112
1008.114, 119.9680
1008.596, 118.6913
1009.078, 117.9833
1009.560, 117.1514
1010.043, 114.2360
1010.525, 110.1971
1011.007, 109.1581
1011.489, 113.3252
1011.971, 117.0166
1012.453, 118.6985
1012.935, 118.1533
1013.417, 113.1939
1013.899, 107.4333
1014.382, 104.5472
1014.864, 104.6218
1015.346, 106.7361
1015.828, 111.5537
1016.310, 114.3911
1016.792, 111.3925
1017.274, 108.3764
1017.756, 109.5467
1018.239, 111.4737
1018.721, 109.0844
1019.203, 104.3582
1019.685, 104.5981
1020.167, 112.8601
1020.649, 119.0222
1021.131, 118.5041
1021.613, 116.7823
1022.095, 116.7817
1022.578, 116.4091
1023.060, 112.2138
1023.542, 106.2545
1024.024, 104.0189
1024.506, 106.9113
1024.988, 110.8974
1025.470, 116.7414
1025.952, 121.1285
1026.435, 122.9219
1026.917, 122.6434
1027.399, 118.8671
1027.881, 113.9072
1028.363, 113.4010
1028.845, 119.0471
1029.327, 120.5321
1029.809, 110.8041
1030.292, 103.8944
1030.774, 105.6012
1031.256, 109.2508
1031.738, 110.2060
1032.220, 109.9489
1032.702, 111.9092
1033.184, 116.6191
1033.666, 119.2775
1034.148, 116.8445
1034.630, 116.0643
1035.113, 120.9111
1035.595, 124.5385
1036.077, 121.6868
1036.559, 116.0580
1037.041, 112.3642
1037.523, 110.6316
1038.005, 113.0462
1038.487, 127.0645
1038.970, 133.0547
1039.452, 123.2158
1039.934, 113.8766
1040.416, 112.7048
1040.898, 115.2139
1041.380, 116.2280
1041.862, 115.9401
1042.344, 116.4786
1042.826, 117.4431
1043.309, 120.4768
1043.791, 129.0877
1044.273, 132.9976
1044.755, 125.5258
1045.237, 115.9975
1045.719, 114.3878
1046.201, 118.6500
1046.683, 119.0328
1047.166, 113.8111
1047.648, 110.3519
1048.130, 108.1993
1048.612, 110.0521
1049.094, 118.9635
1049.576, 126.1019
1050.058, 122.9124
1050.540, 113.8712
1051.022, 111.8361
1051.505, 118.0182
1051.987, 118.0222
1052.469, 110.1201
1052.951, 107.9500
1053.433, 116.0215
1053.915, 122.5543
1054.397, 118.9366
1054.879, 111.4970
1055.361, 112.9809
1055.844, 122.1220
1056.326, 122.6416
1056.808, 114.5890
1057.290, 109.5396
1057.772, 109.4736
1058.254, 112.0489
1058.736, 116.2646
1059.218, 119.8168
1059.701, 118.9765
1060.183, 115.5702
1060.665, 116.0851
1061.147, 119.8101
1061.629, 123.7930
1062.111, 127.2316
1062.593, 126.7847
1063.075, 121.2919
1063.557, 114.0955
1064.040, 107.3565
1064.522, 103.1971
1065.004, 108.1938
1065.486, 117.9152
1065.968, 121.0766
1066.450, 118.6014
1066.932, 116.1952
1067.414, 115.7250
1067.896, 117.8663
1068.379, 123.9900
1068.861, 129.4331
1069.343, 128.2547
1069.825, 123.6482
1070.307, 118.5839
1070.789, 114.2053
1071.271, 111.8347
1071.753, 111.8687
1072.236, 115.3568
1072.718, 123.5604
1073.200, 129.6198
1073.682, 126.1706
1074.164, 121.1025
1074.646, 120.3524
1075.128, 122.3293
1075.610, 126.6742
1076.093, 131.4172
1076.575, 131.8903
1077.057, 126.7172
1077.539, 122.3276
1078.021, 122.3920
1078.503, 122.6907
1078.985, 120.1596
1079.467, 118.2693
1079.949, 121.4124
1080.432, 126.2420
1080.914, 127.0932
1081.396, 123.4370
1081.878, 118.7366
1082.360, 108.9086
1082.842, 105.2698
1083.324, 115.8288
1083.806, 125.3767
1084.288, 126.1037
1084.771, 123.1071
1085.253, 120.7751
1085.735, 119.4774
1086.217, 121.0757
1086.699, 127.2449
1087.181, 131.9851
1087.663, 136.2799
1088.145, 136.8399
1088.628, 131.1040
1089.110, 124.4088
1089.592, 119.8498
1090.074, 118.0035
1090.556, 121.0002
1091.038, 129.1993
1091.520, 130.8874
1092.002, 124.5024
1092.484, 122.1580
1092.967, 126.5039
1093.449, 130.1714
1093.931, 129.3719
1094.413, 126.4929
1094.895, 124.4199
1095.377, 122.9623
1095.859, 121.1853
1096.341, 119.2940
1096.823, 119.8314
1097.306, 122.4752
1097.788, 121.0240
1098.270, 113.9716
1098.752, 110.5159
1099.234, 118.8432
1099.716, 130.9907
1100.198, 135.0542
1100.680, 133.8829
1101.163, 132.3000
1101.645, 130.7499
1102.127, 129.4141
1102.609, 128.4968
1103.091, 129.3587
1103.573, 132.8902
1104.055, 133.5404
1104.537, 122.3145
1105.020, 110.8513
1105.502, 110.9243
1105.984, 116.1970
1106.466, 120.0587
1106.948, 122.0447
1107.430, 123.0755
1107.912, 123.4034
1108.394, 123.2332
1108.876, 122.9375
1109.359, 121.7183
1109.841, 117.2718
1110.323, 114.0678
1110.805, 115.6490
1111.287, 119.4846
1111.769, 123.4038
1112.251, 126.7585
1112.733, 127.2875
1113.215, 122.9601
1113.698, 120.3515
1114.180, 121.0933
1114.662, 121.2302
1115.144, 118.9414
1115.626, 117.1781
1116.108, 118.2052
1116.590, 120.7568
1117.072, 122.4952
1117.555, 123.4176
1118.037, 124.9191
1118.519, 127.5743
1119.001, 126.9965
1119.483, 122.0096
1119.965, 117.9755
1120.447, 117.0151
1120.929, 119.1060
1121.411, 125.0238
1121.894, 132.0182
1122.376, 131.8451
1122.858, 126.1015
1123.340, 122.9121
1123.822, 122.3162
1124.304, 122.3205
1124.786, 122.4797
1125.268, 123.8048
1125.750, 127.0261
1126.233, 128.9762
1126.715, 123.8715
1127.197, 117.2587
1127.679, 117.3915
1128.161, 121.0026
1128.643, 123.2813
1129.125, 124.0870
1129.607, 125.0484
1130.090, 126.4834
1130.572, 126.8137
1131.054, 124.5323
1131.536, 122.2357
1132.018, 121.2513
1132.500, 120.7268
1132.982, 119.7992
1133.464, 119.1914
1133.947, 119.6931
1134.429, 121.3352
1134.911, 124.0527
1135.393, 128.3086
1135.875, 131.9950
1136.357, 138.5479
1136.839, 138.6878
1137.321, 124.6726
1137.803, 113.1191
1138.286, 115.3152
1138.768, 123.1008
1139.250, 124.3530
1139.732, 119.8852
1140.214, 117.2149
1140.696, 116.3043
1141.178, 118.2803
1141.660, 123.7268
1142.142, 125.3483
1142.625, 120.4641
1143.107, 117.7523
1143.589, 124.6273
1144.071, 134.1273
1144.553, 133.1786
1145.035, 125.3361
1145.517, 120.8577
1145.999, 118.9915
1146.482, 116.1241
1146.964, 112.8855
1147.446, 115.4023
1147.928, 125.3272
1148.410, 132.0647
1148.892, 125.6513
1149.374, 116.5404
1149.856, 112.3797
1150.339, 111.5841
1150.821, 113.8612
1151.303, 117.6651
1151.785, 122.7266
1152.267, 127.4583
1152.749, 125.5148
1153.231, 111.7320
1153.713, 105.8761
1154.195, 120.6251
1154.677, 132.4826
1155.160, 133.0704
1155.642, 130.0619
1156.124, 126.4943
1156.606, 123.7656
1157.088, 124.6190
1157.570, 128.5328
1158.052, 128.9060
1158.534, 124.3924
1159.017, 122.9646
1159.499, 125.7836
1159.981, 126.6803
1160.463, 123.4828
1160.945, 121.2399
1161.427, 124.0699
1161.909, 127.4997
1162.391, 121.5661
1162.874, 110.9528
1163.356, 112.8914
1163.838, 123.5274
1164.320, 132.1781
1164.802, 136.9016
1165.284, 135.2576
1165.766, 127.5172
1166.248, 122.8708
1166.730, 129.3031
1167.213, 135.9777
1167.695, 133.0365
1168.177, 127.3238
1168.659, 124.2560
1169.141, 122.5907
1169.623, 120.1903
1170.105, 117.4090
1170.587, 115.6486
1171.069, 115.0182
1171.552, 116.6000
1172.034, 124.0523
1172.516, 128.3297
1172.998, 126.0526
1173.480, 123.3447
1173.962, 123.1436
1174.444, 122.9923
1174.926, 119.6077
1175.409, 114.7637
1175.891, 115.1287
1176.373, 121.1813
1176.855, 126.0829
1177.337, 129.8843
1177.819, 130.0138
1178.301, 126.1251
1178.783, 123.8548
1179.266, 125.9563
1179.748, 128.2775
1180.230, 125.6784
1180.712, 122.0814
1181.194, 126.0558
1181.676, 132.0303
1182.158, 127.5422
1182.640, 118.4717
1183.122, 119.7780
1183.604, 130.8330
1184.087, 138.2685
1184.569, 136.8862
1185.051, 134.1646
1185.533, 133.1759
1186.015, 132.0399
1186.497, 129.0307
1186.979, 126.5856
1187.461, 126.9191
1187.944, 128.5417
1188.426, 130.4530
1188.908, 131.8880
1189.390, 127.3908
1189.872, 112.5957
1190.354, 108.2638
1190.836, 117.1825
1191.318, 124.0394
1191.801, 125.2185
1192.283, 126.1869
1192.765, 130.2337
1193.247, 133.8212
1193.729, 132.0319
1194.211, 127.2792
1194.693, 125.4508
1195.175, 125.4481
1195.657, 123.0395
1196.140, 120.0505
1196.622, 124.2889
1197.104, 134.8589
1197.586, 140.3125
1198.068, 135.1939
1198.550, 128.8648
1199.032, 125.8909
1199.514, 125.0705
1199.996, 126.9430
1200.479, 129.4127
1200.961, 130.2466
1201.443, 131.0078
1201.925, 136.1296
1202.407, 144.1696
1202.889, 143.3949
1203.371, 128.5083
1203.853, 122.2142
1204.336, 127.4512
1204.818, 131.9171
1205.300, 133.2731
1205.782, 132.9218
1206.264, 131.3553
1206.746, 130.1761
1207.228, 131.8212
1207.710, 134.1953
1208.193, 130.0948
1208.675, 123.0661
1209.157, 125.1475
1209.639, 133.1935
1210.121, 137.0434
1210.603, 135.2931
1211.085, 130.2131
1211.567, 122.5486
1212.049, 119.1370
1212.531, 128.9612
1213.014, 137.6340
1213.496, 136.7360
1213.978, 132.9305
1214.460, 129.9338
1214.942, 127.3749
1215.424, 123.1126
1215.906, 118.7527
1216.388, 120.8959
1216.871, 131.6352
1217.353, 135.1532
1217.835, 128.8562
1218.317, 126.5855
1218.799, 130.6566
1219.281, 136.4724
1219.763, 142.3837
1220.245, 146.2518
1220.728, 145.9097
1221.210, 143.3548
1221.692, 142.8851
1222.174, 142.2954
1222.656, 135.1894
1223.138, 125.2694
1223.620, 119.6065
1224.102, 118.6180
1224.584, 120.8761
1225.067, 125.6864
1225.549, 130.6461
1226.031, 136.2338
1226.513, 138.7847
1226.995, 133.7742
1227.477, 129.7380
1227.959, 131.6013
1228.441, 134.6017
1228.923, 134.9160
1229.406, 134.2632
1229.888, 135.7453
1230.370, 139.1048
1230.852, 141.7407
1231.334, 143.7271
1231.816, 142.3463
1232.298, 137.6530
1232.780, 134.5336
1233.263, 134.1600
1233.745, 134.7666
1234.227, 135.4074
1234.709, 135.1180
1235.191, 132.4652
1235.673, 128.8674
1236.155, 123.9185
1236.637, 120.6359
1237.120, 125.2330
##END=



